%  Data file recorded 2016/9/4  21:33:15
%  Stride Frequency         = [1, 1]
%  Lead In /Lead Out        = 
%  Deltas (Fractional)      = [0.25, 0.25, 0.25],[0.25, 0.25, 0.25]
%  Phase                    = 32768
%  Experiment.py 
%  Motor Gains    = [0, 0, 0, 0, 0, 0, 0, 0, 0, 0]
% Columns: 
% time | Right Leg Pos | Left Leg Pos | Commanded Right Leg Pos | Commanded Left Leg Pos | DCR | DCL | GyroX | GyroY | GyroZ | AX | AY | AZ | RBEMF | LBEMF | VBatt | S1 | S2 | S3 | S4 | S5 | S6 | S7 | S8
279,-43480,-15640,-45934,-13166,0,0,-24,-7,-3,91,-32,-4270,10,-4,892,2050,2109,2373,2613,2317,2119,2104,2186
1280,-43480,-15628,-45934,-13166,0,0,-24,-7,-3,91,-52,-4261,-9,3,892,2050,2109,2373,2613,2317,2119,2104,2186
2281,-43476,-15648,-45934,-13166,0,0,-24,-9,0,73,-63,-4259,9,8,892,2050,2109,2373,2613,2317,2119,2104,2186
3282,-43472,-15632,-45934,-13166,0,0,-23,-9,-2,58,-59,-4263,1,-2,892,2050,2109,2373,2613,2317,2119,2104,2186
4283,-43472,-15640,-45934,-13166,0,0,-23,-10,-1,53,-61,-4235,-7,-4,892,2050,2109,2373,2613,2317,2119,2104,2186
5284,-43484,-15632,-45934,-13166,0,0,-22,-9,-2,82,-41,-4218,9,3,892,2048,2105,2367,2610,2316,2119,2099,2181
6285,-43472,-15628,-45934,-13166,0,0,-22,-11,-3,82,-56,-4240,0,7,892,2048,2105,2367,2610,2316,2119,2099,2181
7286,-43472,-15632,-45934,-13166,0,0,-23,-12,-4,84,-62,-4268,-1,1,892,2048,2105,2367,2610,2316,2119,2099,2181
8287,-43472,-15632,-45934,-13166,0,0,-25,-16,-2,89,-51,-4241,8,-6,892,2048,2105,2367,2610,2316,2119,2099,2181
9288,-43484,-15632,-45934,-13166,0,0,-28,-15,-1,83,-64,-4254,-5,3,892,2048,2105,2367,2610,2316,2119,2099,2181
10289,-43476,-15624,-45934,-13166,0,0,-29,-14,2,89,-56,-4251,2,3,892,2048,2105,2367,2610,2316,2119,2099,2181
11290,-43468,-15644,-45934,-13166,0,0,-25,-16,0,108,-44,-4246,-4,-6,892,2046,2104,2366,2609,2316,2120,2099,2181
12291,-43480,-15644,-45934,-13166,0,0,-24,-20,-2,72,-52,-4224,-7,-2,892,2046,2104,2366,2609,2316,2120,2099,2181
13292,-43476,-15632,-45934,-13166,0,0,-23,-20,0,67,-55,-4242,10,8,892,2046,2104,2366,2609,2316,2120,2099,2181
14293,-43484,-15628,-45934,-13166,0,0,-22,-18,-1,77,-37,-4248,-8,-4,892,2046,2104,2366,2609,2316,2120,2099,2181
15294,-43480,-15632,-45934,-13166,0,0,-24,-19,-2,98,-46,-4236,1,-4,892,2046,2104,2366,2609,2316,2120,2099,2181
16295,-43484,-15636,-45934,-13166,0,0,-27,-21,-2,91,-47,-4263,8,6,892,2045,2104,2366,2608,2317,2120,2101,2182
17296,-43476,-15640,-45934,-13166,0,0,-26,-20,-1,77,-35,-4288,-7,-6,892,2045,2104,2366,2608,2317,2120,2101,2182
18297,-43484,-15620,-45934,-13166,0,0,-24,-19,-1,64,-51,-4266,11,-1,891,2045,2104,2366,2608,2317,2120,2101,2182
19298,-43476,-15640,-45934,-13166,0,0,-24,-21,1,80,-75,-4230,-8,6,891,2045,2104,2366,2608,2317,2120,2101,2182
20299,-43468,-15644,-45934,-13166,0,0,-26,-23,-1,59,-63,-4263,8,0,892,2045,2104,2366,2608,2317,2120,2101,2182
21300,-43472,-15636,-45934,-13166,0,0,-24,-21,1,64,-49,-4272,-8,-5,892,2045,2104,2366,2608,2317,2120,2101,2182
22301,-43472,-15636,-45934,-13166,0,0,-22,-21,0,66,-37,-4253,10,8,892,2047,2107,2369,2613,2320,2122,2103,2185
23302,-43480,-15636,-45934,-13166,0,0,-25,-20,-2,72,-39,-4250,-8,-4,892,2047,2107,2369,2613,2320,2122,2103,2185
24303,-43472,-15636,-45934,-13166,0,0,-24,-20,-2,71,-57,-4273,10,1,892,2047,2107,2369,2613,2320,2122,2103,2185
25304,-43468,-15636,-45934,-13166,0,0,-25,-22,0,46,-48,-4284,-7,5,892,2047,2107,2369,2613,2320,2122,2103,2185
26305,-43476,-15632,-45934,-13166,0,0,-24,-19,-2,43,-53,-4313,5,-5,892,2047,2107,2369,2613,2320,2122,2103,2185
27306,-43480,-15640,-45934,-13166,0,0,-25,-19,-1,39,-29,-4323,1,3,892,2050,2109,2372,2614,2321,2123,2105,2187
28307,-43472,-15628,-45934,-13166,0,0,-26,-19,-1,51,-64,-4296,-7,-5,892,2050,2109,2372,2614,2321,2123,2105,2187
29308,-43472,-15640,-45934,-13166,0,0,-28,-21,-1,61,-55,-4293,10,0,892,2050,2109,2372,2614,2321,2123,2105,2187
30309,-43480,-15640,-45934,-13166,0,0,-28,-19,0,44,-50,-4303,2,1,892,2050,2109,2372,2614,2321,2123,2105,2187
31310,-43476,-15628,-45934,-13166,0,0,-25,-18,0,56,-66,-4293,-9,-2,892,2050,2109,2372,2614,2321,2123,2105,2187
32311,-43472,-15632,-45934,-13166,0,0,-24,-17,-1,80,-58,-4310,2,8,892,2050,2109,2372,2614,2321,2123,2105,2187
33312,-43464,-15628,-45934,-13166,0,0,-26,-18,-1,65,-49,-4306,10,8,892,2050,2111,2373,2615,2323,2122,2105,2187
34313,-43472,-15624,-45934,-13166,0,0,-27,-17,-1,28,-51,-4280,-1,-3,892,2050,2111,2373,2615,2323,2122,2105,2187
35314,-43492,-15628,-45934,-13166,0,0,-26,-16,-1,36,-43,-4256,-8,-5,891,2050,2111,2373,2615,2323,2122,2105,2187
36315,-43472,-15640,-45934,-13166,0,0,-24,-12,-2,61,-51,-4251,2,7,891,2050,2111,2373,2615,2323,2122,2105,2187
37316,-43476,-15644,-45934,-13166,0,0,-25,-8,-2,50,-56,-4241,6,4,892,2050,2111,2373,2615,2323,2122,2105,2187
38317,-43472,-15624,-45934,-13166,0,0,-26,-9,-2,72,-55,-4262,-9,4,892,2049,2109,2373,2613,2319,2119,2103,2186
39318,-43472,-15636,-45934,-13166,0,0,-28,-9,-3,88,-68,-4257,0,-6,892,2049,2109,2373,2613,2319,2119,2103,2186
40319,-43476,-15636,-45934,-13166,0,0,-27,-12,-2,67,-51,-4259,1,6,892,2049,2109,2373,2613,2319,2119,2103,2186
41320,-43476,-15636,-45934,-13166,0,0,-26,-12,-1,40,-30,-4243,-3,7,891,2049,2109,2373,2613,2319,2119,2103,2186
42321,-43476,-15636,-45934,-13166,0,0,-25,-5,-1,38,-47,-4216,10,-6,892,2049,2109,2373,2613,2319,2119,2103,2186
43322,-43476,-15636,-45934,-13166,0,0,-25,-5,-2,23,-38,-4217,-8,-6,892,2049,2109,2373,2613,2319,2119,2103,2186
44323,-43476,-15636,-45934,-13166,0,0,-24,-7,-5,50,-42,-4218,8,-6,892,2048,2108,2368,2609,2317,2118,2099,2182
45324,-43476,-15644,-45934,-13166,0,0,-22,-7,-2,53,-65,-4256,-1,5,892,2048,2108,2368,2609,2317,2118,2099,2182
46325,-43484,-15636,-45934,-13166,0,0,-23,-5,1,47,-39,-4246,-2,3,892,2048,2108,2368,2609,2317,2118,2099,2182
47326,-43476,-15632,-45934,-13166,0,0,-25,-1,3,64,-64,-4248,10,-6,892,2048,2108,2368,2609,2317,2118,2099,2182
48327,-43460,-15636,-45934,-13166,0,0,-25,-2,0,59,-75,-4231,-3,1,892,2048,2108,2368,2609,2317,2118,2099,2182
49328,-43480,-15636,-45934,-13166,0,0,-27,-3,-1,52,-56,-4224,-8,7,892,2046,2106,2367,2608,2316,2118,2100,2181
50329,-43468,-15636,-45934,-13166,0,0,-26,-2,-1,79,-62,-4218,10,-1,892,2046,2106,2367,2608,2316,2118,2100,2181
51330,-43468,-15628,-45934,-13166,0,0,-23,-2,1,68,-53,-4238,8,-6,892,2046,2106,2367,2608,2316,2118,2100,2181
52331,-43480,-15636,-45934,-13166,0,0,-22,-4,1,62,-45,-4250,-8,8,891,2046,2106,2367,2608,2316,2118,2100,2181
53332,-43476,-15644,-45934,-13166,0,0,-24,0,-1,46,-59,-4273,5,3,891,2046,2106,2367,2608,2316,2118,2100,2181
54333,-43452,-15640,-45934,-13166,0,0,-27,-3,-1,47,-41,-4231,9,2,892,2046,2106,2367,2608,2316,2118,2100,2181
55334,-43472,-15636,-45934,-13166,0,0,-25,-3,-1,83,-37,-4248,0,-4,892,2043,2103,2365,2607,2316,2119,2100,2182
56335,-43476,-15624,-45934,-13166,0,0,-22,-1,1,75,-62,-4237,-9,5,892,2043,2103,2365,2607,2316,2119,2100,2182
57336,-43484,-15640,-45934,-13166,0,0,-19,0,1,78,-44,-4215,-3,7,892,2043,2103,2365,2607,2316,2119,2100,2182
58337,-43476,-15632,-45934,-13166,0,0,-21,-2,1,53,-29,-4229,10,-6,892,2043,2103,2365,2607,2316,2119,2100,2182
59338,-43484,-15640,-45934,-13166,0,0,-23,-2,0,45,-61,-4234,-4,-6,892,2043,2103,2365,2607,2316,2119,2100,2182
60339,-43480,-15636,-45934,-13166,0,0,-25,-4,-1,62,-50,-4257,-9,5,892,2045,2105,2368,2609,2319,2122,2103,2184
61340,-43484,-15640,-45934,-13166,0,0,-21,-4,-2,67,-33,-4268,9,6,892,2045,2105,2368,2609,2319,2122,2103,2184
62341,-43484,-15632,-45934,-13166,0,0,-18,-4,0,58,-47,-4229,-5,7,892,2045,2105,2368,2609,2319,2122,2103,2184
63342,-43460,-15644,-45934,-13166,0,0,-17,-5,1,76,-37,-4257,-8,8,892,2045,2105,2368,2609,2319,2122,2103,2184
64343,-43484,-15636,-45934,-13166,0,0,-20,-5,0,53,-41,-4289,7,-4,892,2045,2105,2368,2609,2319,2122,2103,2184
65344,-43476,-15632,-45934,-13166,0,0,-21,-7,1,54,-44,-4294,4,-4,892,2045,2105,2368,2609,2319,2122,2103,2184
66345,-43480,-15636,-45934,-13166,0,0,-18,-7,1,63,-43,-4311,-7,-4,892,2047,2106,2371,2613,2319,2124,2107,2188
67346,-43468,-15632,-45934,-13166,0,0,-15,-5,1,52,-58,-4298,-4,8,892,2047,2106,2371,2613,2319,2124,2107,2188
68347,-43484,-15640,-45934,-13166,0,0,-19,-5,1,73,-55,-4294,9,6,892,2047,2106,2371,2613,2319,2124,2107,2188
69348,-43472,-15632,-45934,-13166,0,0,-19,-6,1,81,-58,-4285,10,-5,891,2047,2106,2371,2613,2319,2124,2107,2188
70349,-43480,-15636,-45934,-13166,0,0,-20,-9,-3,71,-57,-4347,-7,3,891,2047,2106,2371,2613,2319,2124,2107,2188
71350,-43476,-15644,-45934,-13166,0,0,-21,-9,-2,60,-60,-4327,-4,5,891,2051,2110,2373,2616,2322,2123,2105,2186
72351,-43476,-15632,-45934,-13166,0,0,-20,-9,-4,72,-39,-4322,-1,7,892,2051,2110,2373,2616,2322,2123,2105,2186
73352,-43476,-15636,-45934,-13166,0,0,-18,-8,-2,82,-38,-4273,10,1,892,2051,2110,2373,2616,2322,2123,2105,2186
74353,-43488,-15632,-45934,-13166,0,0,-17,-11,0,74,-55,-4273,7,-5,892,2051,2110,2373,2616,2322,2123,2105,2186
75354,-43480,-15636,-45934,-13166,0,0,-16,-13,-2,54,-62,-4292,-5,-6,892,2051,2110,2373,2616,2322,2123,2105,2186
76355,-43476,-15632,-45934,-13166,0,0,-18,-14,-2,48,-67,-4290,-5,6,892,2051,2110,2373,2616,2322,2123,2105,2186
77356,-43484,-15648,-45934,-13166,0,0,-21,-13,-4,75,-54,-4285,10,-2,891,2054,2112,2376,2618,2322,2124,2104,2186
78357,-43472,-15632,-45934,-13166,0,0,-21,-13,0,73,-36,-4235,3,8,892,2054,2112,2376,2618,2322,2124,2104,2186
79358,-43472,-15632,-45934,-13166,0,0,-22,-14,0,67,-73,-4251,-7,-4,892,2054,2112,2376,2618,2322,2124,2104,2186
80359,-43484,-15628,-45934,-13166,0,0,-24,-12,-2,87,-65,-4267,-2,1,891,2054,2112,2376,2618,2322,2124,2104,2186
81360,-43480,-15628,-45934,-13166,0,0,-26,-13,-5,89,-60,-4274,10,-5,892,2054,2112,2376,2618,2322,2124,2104,2186
82361,-43472,-15644,-45934,-13166,0,0,-26,-13,-4,76,-73,-4264,-7,-4,892,2050,2111,2373,2615,2319,2121,2102,2184
83362,-43464,-15628,-45934,-13166,0,0,-24,-13,-2,58,-82,-4280,-5,8,892,2050,2111,2373,2615,2319,2121,2102,2184
84363,-43472,-15632,-45934,-13166,0,0,-24,-13,-4,97,-88,-4285,10,6,891,2050,2111,2373,2615,2319,2121,2102,2184
85364,-43492,-15636,-45934,-13166,0,0,-26,-14,-4,74,-90,-4235,-9,0,892,2050,2111,2373,2615,2319,2121,2102,2184
86365,-43492,-15632,-45934,-13166,0,0,-27,-16,-3,60,-91,-4194,6,-6,892,2050,2111,2373,2615,2319,2121,2102,2184
87366,-43480,-15636,-45934,-13166,0,0,-28,-15,-4,47,-71,-4238,3,-1,891,2050,2111,2373,2615,2319,2121,2102,2184
88367,-43484,-15644,-45934,-13166,0,0,-27,-14,-1,42,-52,-4252,-3,8,891,2049,2109,2372,2613,2317,2120,2100,2182
89368,-43460,-15636,-45934,-13166,0,0,-26,-11,1,29,-58,-4277,8,-4,891,2049,2109,2372,2613,2317,2120,2100,2182
90369,-43484,-15632,-45934,-13166,0,0,-29,-13,1,77,-70,-4277,-9,-3,892,2049,2109,2372,2613,2317,2120,2100,2182
91370,-43476,-15636,-45934,-13166,0,0,-30,-17,1,85,-68,-4248,9,8,892,2049,2109,2372,2613,2317,2120,2100,2182
92371,-43476,-15636,-45934,-13166,0,0,-29,-17,0,60,-68,-4215,-7,8,892,2049,2109,2372,2613,2317,2120,2100,2182
93372,-43480,-15632,-45934,-13166,0,0,-29,-14,-1,74,-42,-4235,-2,-1,892,2046,2106,2368,2610,2316,2119,2100,2182
94373,-43484,-15644,-45934,-13166,0,0,-29,-13,0,53,-60,-4248,-2,3,892,2046,2106,2368,2610,2316,2119,2100,2182
95374,-43472,-15632,-45934,-13166,0,0,-29,-17,-1,69,-65,-4272,7,-5,892,2046,2106,2368,2610,2316,2119,2100,2182
96375,-43472,-15636,-45934,-13166,0,0,-27,-18,-1,74,-42,-4275,6,-2,892,2046,2106,2368,2610,2316,2119,2100,2182
97376,-43484,-15636,-45934,-13166,0,0,-27,-17,1,64,-62,-4269,-5,8,892,2046,2106,2368,2610,2316,2119,2100,2182
98377,-43468,-15624,-45934,-13166,0,0,-29,-16,0,53,-32,-4255,9,2,892,2046,2106,2368,2610,2316,2119,2100,2182
99378,-43460,-15636,-45934,-13166,0,0,-30,-15,2,47,-36,-4260,-5,8,892,2044,2104,2368,2608,2317,2119,2101,2183
100379,-43472,-15640,-45934,-13166,0,0,-28,-15,4,46,-55,-4289,-5,0,892,2044,2104,2368,2608,2317,2119,2101,2183
101380,-43476,-15644,-45934,-13166,0,0,-25,-14,3,63,-61,-4269,9,-5,892,2044,2104,2368,2608,2317,2119,2101,2183
102383,-43488,-15640,-45934,-13166,0,0,-25,-15,0,67,-52,-4267,6,-6,892,2044,2104,2368,2608,2317,2119,2101,2183
103382,-43480,-15644,-45934,-13166,0,0,-24,-14,0,65,-49,-4262,-8,1,892,2044,2104,2368,2608,2317,2119,2101,2183
104383,-43484,-15640,-45934,-13166,0,0,-24,-15,-1,60,-29,-4237,9,1,891,2045,2105,2367,2610,2320,2121,2103,2187
105384,-43476,-15620,-45934,-13166,0,0,-27,-14,-2,70,-44,-4260,9,-2,892,2045,2105,2367,2610,2320,2121,2103,2187
106385,-43480,-15632,-45934,-13166,0,0,-27,-13,-3,59,0,-4242,1,8,892,2045,2105,2367,2610,2320,2121,2103,2187
107386,-43484,-15644,-45934,-13166,0,0,-26,-12,-1,42,-25,-4249,-9,8,892,2045,2105,2367,2610,2320,2121,2103,2187
108387,-43472,-15640,-45934,-13166,0,0,-25,-12,-1,70,-14,-4251,-8,5,892,2045,2105,2367,2610,2320,2121,2103,2187
109388,-43484,-15628,-45934,-13166,0,0,-23,-13,-1,56,-16,-4302,6,-6,892,2046,2107,2370,2611,2321,2123,2105,2187
110389,-43468,-15644,-45934,-13166,0,0,-21,-14,-2,62,-39,-4289,4,-4,892,2046,2107,2370,2611,2321,2123,2105,2187
111390,-43480,-15632,-45934,-13166,0,0,-21,-13,-2,58,-34,-4275,-8,4,892,2046,2107,2370,2611,2321,2123,2105,2187
112391,-43480,-15624,-45934,-13166,0,0,-21,-12,0,81,-62,-4294,10,6,892,2046,2107,2370,2611,2321,2123,2105,2187
113392,-43464,-15636,-45934,-13166,0,0,-22,-15,-1,72,-49,-4300,-9,0,892,2046,2107,2370,2611,2321,2123,2105,2187
114393,-43484,-15632,-45934,-13166,0,0,-20,-15,-2,58,-32,-4262,3,-4,892,2046,2107,2370,2611,2321,2123,2105,2187
115394,-43480,-15628,-45934,-13166,0,0,-20,-14,-2,65,-28,-4277,-1,-5,892,2047,2108,2371,2613,2323,2123,2103,2183
116395,-43476,-15640,-45934,-13166,0,0,-19,-13,-4,64,-58,-4270,0,1,892,2047,2108,2371,2613,2323,2123,2103,2183
117396,-43488,-15628,-45934,-13166,0,0,-17,-10,-4,73,-45,-4251,9,8,892,2047,2108,2371,2613,2323,2123,2103,2183
118397,-43484,-15632,-45934,-13166,0,0,-16,-8,-2,85,-32,-4291,-9,-6,892,2047,2108,2371,2613,2323,2123,2103,2183
119398,-43480,-15632,-45934,-13166,0,0,-16,-8,-2,59,-35,-4305,10,-4,892,2047,2108,2371,2613,2323,2123,2103,2183
120399,-43472,-15640,-45934,-13166,0,0,-17,-8,-4,54,-40,-4262,-4,1,892,2048,2109,2371,2613,2321,2122,2104,2185
121400,-43476,-15640,-45934,-13166,0,0,-19,-7,-3,33,-44,-4247,5,8,891,2048,2109,2371,2613,2321,2122,2104,2185
122401,-43472,-15636,-45934,-13166,0,0,-19,-7,-1,37,-36,-4233,-8,8,892,2048,2109,2371,2613,2321,2122,2104,2185
123402,-43484,-15632,-45934,-13166,0,0,-19,-8,-1,49,-44,-4267,1,8,892,2048,2109,2371,2613,2321,2122,2104,2185
124403,-43480,-15640,-45934,-13166,0,0,-19,-8,-2,45,-26,-4290,0,-5,892,2048,2109,2371,2613,2321,2122,2104,2185
125404,-43488,-15636,-45934,-13166,0,0,-20,-8,-2,36,-50,-4250,3,-6,892,2048,2109,2371,2613,2321,2122,2104,2185
126405,-43480,-15632,-45934,-13166,0,0,-21,-7,-4,36,-41,-4253,0,4,892,2047,2107,2367,2614,2319,2122,2104,2184
127406,-43476,-15632,-45934,-13166,0,0,-19,-7,-3,46,-69,-4249,6,4,892,2047,2107,2367,2614,2319,2122,2104,2184
128407,-43472,-15632,-45934,-13166,0,0,-19,-6,-1,64,-65,-4232,-6,8,892,2047,2107,2367,2614,2319,2122,2104,2184
129408,-43480,-15636,-45934,-13166,0,0,-22,-3,2,57,-66,-4264,7,0,892,2047,2107,2367,2614,2319,2122,2104,2184
130409,-43484,-15640,-45934,-13166,0,0,-21,-1,0,67,-49,-4232,-8,-6,892,2047,2107,2367,2614,2319,2122,2104,2184
131410,-43468,-15636,-45934,-13166,0,0,-19,-1,-2,65,-94,-4234,8,-4,892,2046,2106,2368,2610,2315,2118,2099,2181
132411,-43480,-15636,-45934,-13166,0,0,-23,0,-1,58,-105,-4245,2,4,892,2046,2106,2368,2610,2315,2118,2099,2181
133412,-43480,-15636,-45934,-13166,0,0,-25,0,-1,63,-98,-4234,-2,7,892,2046,2106,2368,2610,2315,2118,2099,2181
134413,-43472,-15632,-45934,-13166,0,0,-23,-1,-1,81,-54,-4201,7,0,892,2046,2106,2368,2610,2315,2118,2099,2181
135414,-43480,-15628,-45934,-13166,0,0,-25,-2,0,83,-62,-4228,-7,-6,892,2046,2106,2368,2610,2315,2118,2099,2181
136415,-43480,-15636,-45934,-13166,0,0,-25,-3,1,73,-73,-4246,3,4,892,2046,2106,2368,2610,2315,2118,2099,2181
137416,-43476,-15628,-45934,-13166,0,0,-25,-4,-2,50,-57,-4258,4,9,893,2047,2106,2368,2610,2316,2120,2100,2181
138417,-43476,-15640,-45934,-13166,0,0,-26,-4,-1,64,-55,-4255,-8,8,891,2047,2106,2368,2610,2316,2120,2100,2181
139418,-43476,-15624,-45934,-13166,0,0,-26,-5,1,58,-66,-4272,10,8,892,2047,2106,2368,2610,2316,2120,2100,2181
140419,-43476,-15636,-45934,-13166,0,0,-24,-4,2,61,-40,-4261,-9,6,892,2047,2106,2368,2610,2316,2120,2100,2181
141420,-43476,-15636,-45934,-13166,0,0,-24,-3,0,83,-50,-4267,10,-5,892,2047,2106,2368,2610,2316,2120,2100,2181
142421,-43476,-15636,-45934,-13166,0,0,-23,-3,1,69,-54,-4237,-9,6,892,2045,2105,2369,2611,2317,2120,2101,2183
143422,-43480,-15636,-45934,-13166,0,0,-23,-4,2,79,-58,-4212,10,0,892,2045,2105,2369,2611,2317,2120,2101,2183
144423,-43476,-15648,-45934,-13166,0,0,-22,-6,2,63,-68,-4249,-8,8,892,2045,2105,2369,2611,2317,2120,2101,2183
145424,-43468,-15640,-45934,-13166,0,0,-24,-6,-1,83,-48,-4263,5,-5,893,2045,2105,2369,2611,2317,2120,2101,2183
146425,-43464,-15624,-45934,-13166,0,0,-27,-6,-2,101,-58,-4263,-5,4,892,2045,2105,2369,2611,2317,2120,2101,2183
147426,-43472,-15636,-45934,-13166,0,0,-25,-9,-3,77,-62,-4289,-3,-6,892,2045,2105,2369,2611,2317,2120,2101,2183
148427,-43484,-15640,-45934,-13166,0,0,-23,-7,0,87,-30,-4264,10,4,892,2046,2106,2369,2611,2320,2123,2104,2185
149428,-43476,-15640,-45934,-13166,0,0,-22,-6,0,79,-28,-4243,-9,7,892,2046,2106,2369,2611,2320,2123,2104,2185
150429,-43480,-15616,-45934,-13166,0,0,-23,-9,-1,77,-29,-4273,-2,3,892,2046,2106,2369,2611,2320,2123,2104,2185
151430,-43484,-15648,-45934,-13166,0,0,-21,-12,-2,83,-56,-4290,10,6,892,2046,2106,2369,2611,2320,2123,2104,2185
152431,-43488,-15644,-45934,-13166,0,0,-20,-12,-2,82,-44,-4292,-8,1,893,2046,2106,2369,2611,2320,2123,2104,2185
153432,-43480,-15636,-45934,-13166,0,0,-22,-14,0,90,-38,-4308,-5,-6,893,2047,2108,2371,2614,2322,2125,2106,2186
154433,-43468,-15644,-45934,-13166,0,0,-23,-13,-1,91,-41,-4287,11,-4,892,2047,2108,2371,2614,2322,2125,2106,2186
155434,-43480,-15636,-45934,-13166,0,0,-20,-13,-3,89,-41,-4273,-5,2,891,2047,2108,2371,2614,2322,2125,2106,2186
156435,-43476,-15636,-45934,-13166,0,0,-19,-16,-2,93,-45,-4288,-7,4,893,2047,2108,2371,2614,2322,2125,2106,2186
157436,-43484,-15628,-45934,-13166,0,0,-20,-18,0,72,-50,-4291,-1,8,892,2047,2108,2371,2614,2322,2125,2106,2186
158437,-43480,-15632,-45934,-13166,0,0,-22,-19,0,75,-73,-4266,9,0,892,2047,2108,2371,2614,2322,2125,2106,2186
159438,-43480,-15636,-45934,-13166,0,0,-21,-17,1,51,-40,-4258,0,-5,892,2049,2109,2371,2615,2321,2124,2105,2185
160439,-43480,-15632,-45934,-13166,0,0,-20,-17,0,55,-44,-4294,-7,0,893,2049,2109,2371,2615,2321,2124,2105,2185
161440,-43468,-15636,-45934,-13166,0,0,-17,-16,-3,51,-47,-4263,9,5,893,2049,2109,2371,2615,2321,2124,2105,2185
162441,-43480,-15636,-45934,-13166,0,0,-18,-20,-2,60,-64,-4277,7,8,892,2049,2109,2371,2615,2321,2124,2105,2185
163442,-43464,-15632,-45934,-13166,0,0,-22,-20,-2,53,-51,-4318,-9,6,892,2049,2109,2371,2615,2321,2124,2105,2185
164443,-43472,-15636,-45934,-13166,0,0,-25,-22,-4,75,-48,-4296,1,2,892,2048,2108,2371,2613,2319,2119,2099,2183
165444,-43464,-15632,-45934,-13166,0,0,-23,-19,-3,70,-89,-4275,9,-5,892,2048,2108,2371,2613,2319,2119,2099,2183
166445,-43472,-15640,-45934,-13166,0,0,-21,-19,-3,77,-71,-4282,3,-1,892,2048,2108,2371,2613,2319,2119,2099,2183
167446,-43484,-15636,-45934,-13166,0,0,-21,-20,-4,101,-59,-4296,-9,4,892,2048,2108,2371,2613,2319,2119,2099,2183
168447,-43488,-15632,-45934,-13166,0,0,-23,-18,-3,69,-68,-4290,0,8,893,2048,2108,2371,2613,2319,2119,2099,2183
169448,-43476,-15636,-45934,-13166,0,0,-23,-17,-3,52,-76,-4243,10,2,892,2048,2108,2371,2613,2319,2119,2099,2183
170449,-43476,-15640,-45934,-13166,0,0,-27,-18,-3,60,-82,-4248,-3,-1,892,2048,2108,2370,2611,2317,2118,2101,2182
171450,-43488,-15640,-45934,-13166,0,0,-28,-19,-1,67,-77,-4240,-9,-5,892,2048,2108,2370,2611,2317,2118,2101,2182
172451,-43480,-15636,-45934,-13166,0,0,-27,-16,-3,58,-73,-4239,7,0,891,2048,2108,2370,2611,2317,2118,2101,2182
173452,-43488,-15644,-45934,-13166,0,0,-28,-14,-1,38,-68,-4232,1,-1,892,2048,2108,2370,2611,2317,2118,2101,2182
174453,-43472,-15624,-45934,-13166,0,0,-29,-16,0,28,-40,-4224,-9,3,892,2048,2108,2370,2611,2317,2118,2101,2182
175454,-43488,-15636,-45934,-13166,0,0,-28,-17,2,53,-90,-4239,7,8,892,2043,2106,2372,2612,2318,2120,2100,2184
176455,-43468,-15636,-45934,-13166,0,0,-27,-16,0,67,-82,-4238,-1,4,892,2043,2106,2372,2612,2318,2120,2100,2184
177456,-43472,-15636,-45934,-13166,0,0,-27,-14,-1,65,-38,-4221,-8,-4,892,2043,2106,2372,2612,2318,2120,2100,2184
178457,-43472,-15632,-45934,-13166,0,0,-26,-13,0,58,-50,-4222,6,-3,892,2043,2106,2372,2612,2318,2120,2100,2184
179458,-43484,-15632,-45934,-13166,0,0,-27,-15,0,46,-69,-4223,0,4,892,2043,2106,2372,2612,2318,2120,2100,2184
180459,-43488,-15620,-45934,-13166,0,0,-29,-11,-2,50,-29,-4241,-8,7,892,2043,2106,2372,2612,2318,2120,2100,2184
181460,-43468,-15636,-45934,-13166,0,0,-29,-7,-3,35,-49,-4261,10,3,892,2045,2107,2368,2609,2316,2119,2101,2183
182461,-43476,-15632,-45934,-13166,0,0,-27,-8,-1,45,-59,-4267,-9,-2,892,2045,2107,2368,2609,2316,2119,2101,2183
183462,-43480,-15632,-45934,-13166,0,0,-27,-10,1,55,-43,-4267,-1,-3,892,2045,2107,2368,2609,2316,2119,2101,2183
184463,-43472,-15624,-45934,-13166,0,0,-27,-12,0,41,-65,-4268,7,-4,892,2045,2107,2368,2609,2316,2119,2101,2183
185464,-43476,-15640,-45934,-13166,0,0,-29,-10,1,57,-22,-4271,-8,-2,892,2045,2107,2368,2609,2316,2119,2101,2183
186465,-43484,-15644,-45934,-13166,0,0,-30,-9,0,66,-45,-4259,-8,6,892,2047,2108,2372,2612,2320,2121,2104,2186
187466,-43476,-15628,-45934,-13166,0,0,-26,-9,1,46,-78,-4279,4,-2,892,2047,2108,2372,2612,2320,2121,2104,2186
188467,-43472,-15632,-45934,-13166,0,0,-24,-8,0,41,-47,-4298,8,-6,892,2047,2108,2372,2612,2320,2121,2104,2186
189468,-43472,-15636,-45934,-13166,0,0,-23,-7,1,48,-55,-4297,-7,-2,891,2047,2108,2372,2612,2320,2121,2104,2186
190469,-43484,-15644,-45934,-13166,0,0,-26,-6,1,48,-55,-4287,1,6,892,2047,2108,2372,2612,2320,2121,2104,2186
191470,-43476,-15628,-45934,-13166,0,0,-29,-6,1,43,-19,-4318,10,6,892,2047,2108,2372,2612,2320,2121,2104,2186
192471,-43480,-15632,-45934,-13166,0,0,-25,-5,1,91,-52,-4254,2,-5,892,2046,2107,2369,2610,2322,2124,2105,2188
193472,-43480,-15632,-45934,-13166,0,0,-21,-5,1,76,-45,-4242,-5,6,892,2046,2107,2369,2610,2322,2124,2105,2188
194473,-43472,-15636,-45934,-13166,0,0,-22,-6,0,64,-38,-4265,7,8,892,2046,2107,2369,2610,2322,2124,2105,2188
195474,-43472,-15636,-45934,-13166,0,0,-22,-7,-1,57,-20,-4293,-4,8,892,2046,2107,2369,2610,2322,2124,2105,2188
196475,-43484,-15648,-45934,-13166,0,0,-20,-4,-4,89,-23,-4287,-5,-3,892,2046,2107,2369,2610,2322,2124,2105,2188
197476,-43472,-15636,-45934,-13166,0,0,-19,-4,-3,76,-27,-4299,11,-5,892,2046,2108,2370,2613,2322,2124,2105,2186
198477,-43484,-15632,-45934,-13166,0,0,-18,-5,-1,70,-42,-4243,3,6,892,2046,2108,2370,2613,2322,2124,2105,2186
199478,-43472,-15640,-45934,-13166,0,0,-17,-8,-3,56,-46,-4253,-8,-3,892,2046,2108,2370,2613,2322,2124,2105,2186
200479,-43480,-15636,-45934,-13166,0,0,-21,-5,-2,65,-39,-4243,4,-6,892,2046,2108,2370,2613,2322,2124,2105,2186
201480,-43476,-15632,-29550,3218,0,0,-20,-4,-1,61,-25,-4258,10,-3,892,2046,2108,2370,2613,2322,2124,2105,2186
202481,-43488,-15640,-29485,3283,0,0,-17,-4,0,59,-30,-4268,-9,7,892,2046,2108,2370,2613,2322,2124,2105,2186
203482,-43460,-15640,-29420,3348,0,0,-16,-7,-2,50,-58,-4248,9,8,892,2046,2108,2370,2612,2321,2122,2104,2183
204483,-43464,-15636,-29355,3413,0,0,-15,-8,-2,78,-78,-4258,5,3,892,2046,2108,2370,2612,2321,2122,2104,2183
205484,-43480,-15640,-29290,3478,0,0,-17,-7,-1,67,-58,-4254,-9,-6,892,2046,2108,2370,2612,2321,2122,2104,2183
206485,-43484,-15632,-29225,3543,0,0,-16,-7,-3,73,-27,-4235,5,-1,891,2046,2108,2370,2612,2321,2122,2104,2183
207486,-43472,-15640,-29160,3608,0,0,-17,-7,-4,85,-62,-4254,9,-4,892,2046,2108,2370,2612,2321,2122,2104,2183
208487,-43472,-15620,-29095,3673,0,0,-16,-7,-3,71,-63,-4232,-5,2,892,2046,2107,2370,2611,2318,2120,2102,2182
209488,-43480,-15628,-29030,3738,0,0,-18,-6,-1,66,-77,-4237,-5,8,892,2046,2107,2370,2611,2318,2120,2102,2182
210489,-43476,-15628,-28965,3803,0,0,-17,-7,-1,73,-47,-4248,-2,4,892,2046,2107,2370,2611,2318,2120,2102,2182
211490,-43484,-15632,-28900,3868,0,0,-17,-6,-2,70,-42,-4254,10,-6,892,2046,2107,2370,2611,2318,2120,2102,2182
212491,-43480,-15632,-28835,3933,0,0,-20,-8,-1,69,-66,-4251,-2,2,892,2046,2107,2370,2611,2318,2120,2102,2182
213492,-43480,-15640,-28770,3998,0,0,-20,-10,-2,81,-100,-4236,-8,8,892,2046,2107,2370,2611,2318,2120,2102,2182
214493,-43472,-15644,-28705,4063,0,0,-22,-11,-3,43,-109,-4235,5,-6,892,2047,2107,2369,2609,2313,2119,2102,2184
215494,-43464,-15628,-28640,4128,0,0,-19,-9,-2,58,-82,-4240,5,2,892,2047,2107,2369,2609,2313,2119,2102,2184
216495,-43468,-15628,-28575,4193,0,0,-22,-8,-2,43,-93,-4275,-7,8,892,2047,2107,2369,2609,2313,2119,2102,2184
217496,-43468,-15628,-28510,4258,0,0,-23,-8,0,76,-80,-4287,6,-1,892,2047,2107,2369,2609,2313,2119,2102,2184
218497,-43476,-15628,-28445,4323,0,0,-24,-7,0,70,-76,-4251,7,-6,892,2047,2107,2369,2609,2313,2119,2102,2184
219498,-43484,-15636,-28380,4388,0,0,-26,-6,-2,75,-91,-4258,-7,-3,892,2048,2106,2369,2611,2315,2118,2099,2181
220499,-43472,-15620,-28315,4453,0,0,-28,-8,-2,65,-61,-4273,-3,8,892,2048,2106,2369,2611,2315,2118,2099,2181
221500,-43484,-15636,-28250,4518,0,0,-27,-10,-2,71,-52,-4273,10,5,892,2048,2106,2369,2611,2315,2118,2099,2181
222501,-43476,-15636,-28185,4583,0,0,-26,-8,-2,79,-60,-4292,-3,-4,892,2048,2106,2369,2611,2315,2118,2099,2181
223502,-43476,-15636,-28120,4648,0,0,-26,-8,-2,64,-64,-4245,3,1,891,2048,2106,2369,2611,2315,2118,2099,2181
224503,-43476,-15636,-28055,4713,0,0,-27,-8,1,84,-70,-4251,-3,2,892,2048,2106,2369,2611,2315,2118,2099,2181
225504,-43476,-15636,-27990,4778,0,0,-29,-11,2,87,-58,-4290,-8,8,892,2047,2108,2370,2612,2317,2120,2101,2182
226505,-43476,-15636,-27925,4843,0,0,-28,-10,1,46,-44,-4255,10,-6,892,2047,2108,2370,2612,2317,2120,2101,2182
227506,-43476,-15640,-27860,4908,0,0,-29,-9,0,47,-50,-4247,-8,-2,892,2047,2108,2370,2612,2317,2120,2101,2182
228507,-43472,-15632,-27795,4973,0,0,-31,-8,-1,71,-53,-4249,10,8,892,2047,2108,2370,2612,2317,2120,2101,2182
229508,-43480,-15628,-27730,5038,0,0,-30,-11,-2,65,-37,-4294,-9,1,892,2047,2108,2370,2612,2317,2120,2101,2182
230509,-43472,-15628,-27665,5103,0,0,-28,-13,-2,76,-50,-4297,10,-4,892,2048,2108,2371,2614,2319,2122,2103,2185
231510,-43480,-15632,-27600,5168,0,0,-28,-14,-1,70,-55,-4251,-5,-5,892,2048,2108,2371,2614,2319,2122,2103,2185
232511,-43468,-15632,-27535,5233,0,0,-28,-14,-1,78,-66,-4255,6,8,892,2048,2108,2371,2614,2319,2122,2103,2185
233512,-43476,-15632,-27470,5298,0,0,-27,-13,0,65,-68,-4275,-4,8,892,2048,2108,2371,2614,2319,2122,2103,2185
234513,-43472,-15620,-27405,5363,0,0,-28,-15,-1,68,-55,-4301,-6,1,892,2048,2108,2371,2614,2319,2122,2103,2185
235514,-43480,-15636,-27340,5428,0,0,-27,-16,-1,66,-47,-4297,10,8,892,2048,2108,2371,2614,2319,2122,2103,2185
236515,-43476,-15632,-27275,5493,0,0,-26,-15,-1,65,-61,-4286,-9,3,892,2048,2108,2371,2614,2322,2124,2105,2186
237516,-43472,-15636,-27210,5558,0,0,-26,-15,1,83,-51,-4281,2,-6,892,2048,2108,2371,2614,2322,2124,2105,2186
238517,-43468,-15632,-27145,5623,0,0,-25,-18,2,70,-48,-4248,-3,7,892,2048,2108,2371,2614,2322,2124,2105,2186
239518,-43484,-15640,-27080,5688,0,0,-25,-17,0,72,-19,-4262,3,7,892,2048,2108,2371,2614,2322,2124,2105,2186
240519,-43468,-15624,-27015,5753,0,0,-26,-16,0,44,-33,-4259,-1,1,891,2048,2108,2371,2614,2322,2124,2105,2186
241520,-43476,-15632,-26950,5818,0,0,-28,-17,-1,65,-27,-4281,8,-6,892,2045,2107,2370,2614,2324,2126,2106,2186
242521,-43460,-15624,-26885,5883,0,0,-27,-20,0,67,-32,-4273,0,5,892,2045,2107,2370,2614,2324,2126,2106,2186
243522,-43476,-15636,-26820,5948,0,0,-28,-19,0,60,-43,-4300,-9,3,892,2045,2107,2370,2614,2324,2126,2106,2186
244523,-43476,-15632,-26755,6013,0,0,-26,-18,-1,58,-33,-4276,10,-1,892,2045,2107,2370,2614,2324,2126,2106,2186
245524,-43476,-15628,-26690,6078,0,0,-21,-17,-1,62,-46,-4248,-8,-6,892,2045,2107,2370,2614,2324,2126,2106,2186
246525,-43476,-15620,-26625,6143,0,0,-20,-18,0,57,-50,-4270,-3,3,892,2045,2107,2370,2614,2324,2126,2106,2186
247526,-43480,-15624,-26560,6208,0,0,-22,-20,-1,44,-52,-4260,6,2,892,2045,2106,2369,2611,2319,2122,2102,2184
248527,-43484,-15636,-26495,6273,0,0,-22,-20,-2,52,-58,-4259,-4,5,892,2045,2106,2369,2611,2319,2122,2102,2184
249528,-43472,-15636,-26430,6338,0,0,-22,-17,-3,73,-49,-4252,9,-4,892,2045,2106,2369,2611,2319,2122,2102,2184
250529,-43480,-15640,-26365,6403,0,0,-21,-16,-1,60,-55,-4253,-5,-4,892,2045,2106,2369,2611,2319,2122,2102,2184
251530,-43468,-15632,-26300,6468,0,0,-21,-15,-1,49,-42,-4270,3,3,892,2045,2106,2369,2611,2319,2122,2102,2184
252531,-43472,-15640,-26235,6533,0,0,-19,-16,0,50,-64,-4285,-5,-2,892,2044,2105,2368,2609,2317,2119,2100,2182
253532,-43476,-15628,-26170,6598,0,0,-18,-17,-1,57,-70,-4235,10,1,892,2044,2105,2368,2609,2317,2119,2100,2182
254533,-43472,-15628,-26105,6663,0,0,-19,-16,-1,45,-67,-4212,-5,8,892,2044,2105,2368,2609,2317,2119,2100,2182
255534,-43464,-15636,-26040,6728,0,0,-21,-14,-1,67,-69,-4205,-6,6,892,2044,2105,2368,2609,2317,2119,2100,2182
256535,-43480,-15640,-25975,6793,0,0,-22,-15,-2,64,-81,-4192,9,5,892,2044,2105,2368,2609,2317,2119,2100,2182
257536,-43476,-15620,-25910,6858,0,0,-20,-15,-4,43,-63,-4225,-9,-6,891,2044,2105,2368,2609,2317,2119,2100,2182
258537,-43464,-15644,-25845,6923,0,0,-20,-12,-3,28,-42,-4245,8,-4,892,2044,2106,2367,2608,2316,2118,2099,2179
259538,-43472,-15636,-25780,6988,0,0,-21,-9,-1,37,-79,-4256,-3,8,892,2044,2106,2367,2608,2316,2118,2099,2179
260539,-43484,-15632,-25715,7053,0,0,-21,-7,1,37,-51,-4260,-2,-4,892,2044,2106,2367,2608,2316,2118,2099,2179
261540,-43468,-15636,-25650,7118,0,0,-22,-7,0,39,-46,-4287,10,-6,892,2044,2106,2367,2608,2316,2118,2099,2179
262541,-43476,-15636,-25585,7183,0,0,-24,-10,0,26,-60,-4286,-6,5,892,2044,2106,2367,2608,2316,2118,2099,2179
263542,-43476,-15624,-25520,7248,0,0,-24,-10,-1,26,-80,-4253,7,8,892,2044,2106,2369,2610,2318,2118,2101,2184
264543,-43476,-15628,-25455,7313,0,0,-23,-7,-2,47,-46,-4233,2,-1,892,2044,2106,2369,2610,2318,2118,2101,2184
265544,-43472,-15652,-25390,7378,0,0,-25,-7,0,66,-56,-4250,-5,-5,892,2044,2106,2369,2610,2318,2118,2101,2184
266545,-43480,-15636,-25325,7443,0,0,-24,-7,0,47,-63,-4246,9,-5,892,2044,2106,2369,2610,2318,2118,2101,2184
267546,-43484,-15636,-25260,7508,0,0,-25,-7,0,40,-47,-4266,-8,2,892,2044,2106,2369,2610,2318,2118,2101,2184
268547,-43484,-15632,-25195,7573,0,0,-26,-4,-3,43,-55,-4294,7,0,892,2044,2106,2369,2610,2318,2118,2101,2184
269548,-43480,-15644,-25130,7638,0,0,-25,-4,-3,51,-63,-4269,-8,-6,892,2047,2110,2374,2614,2320,2124,2104,2186
270549,-43472,-15636,-25065,7703,0,0,-24,-3,-3,45,-59,-4284,1,3,892,2047,2110,2374,2614,2320,2124,2104,2186
271550,-43480,-15636,-25000,7768,0,0,-22,-1,-1,66,-61,-4271,3,-3,892,2047,2110,2374,2614,2320,2124,2104,2186
272551,-43456,-15644,-24935,7833,0,0,-22,-2,-3,60,-33,-4270,-7,-6,892,2047,2110,2374,2614,2320,2124,2104,2186
273552,-43480,-15636,-24870,7898,0,0,-21,-3,-2,58,-20,-4268,10,1,892,2047,2110,2374,2614,2320,2124,2104,2186
274553,-43484,-15620,-24805,7963,0,0,-20,-3,-1,63,-37,-4250,-3,-2,891,2048,2110,2371,2614,2321,2123,2105,2187
275554,-43472,-15628,-24740,8028,0,0,-23,-3,0,84,-58,-4262,-5,-3,892,2048,2110,2371,2614,2321,2123,2105,2187
276555,-43472,-15620,-24675,8093,0,0,-23,-2,-2,70,-60,-4274,5,3,892,2048,2110,2371,2614,2321,2123,2105,2187
277556,-43484,-15640,-24610,8158,0,0,-24,-2,-2,53,-44,-4261,2,8,892,2048,2110,2371,2614,2321,2123,2105,2187
278557,-43480,-15636,-24545,8223,0,0,-24,-4,0,48,-43,-4274,-7,8,892,2048,2110,2371,2614,2321,2123,2105,2187
279559,-43468,-15644,-24480,8288,0,0,-22,-5,-1,50,-36,-4283,9,8,892,2048,2110,2371,2614,2321,2123,2105,2187
280559,-43476,-15620,-24415,8353,0,0,-21,-4,-2,92,-64,-4273,-3,-2,892,2048,2108,2372,2613,2322,2124,2105,2186
281560,-43480,-15640,-24350,8418,0,0,-19,-3,-2,64,-59,-4280,-6,-6,892,2048,2108,2372,2613,2322,2124,2105,2186
282561,-43484,-15636,-24285,8483,0,0,-22,-4,-1,63,-15,-4308,7,1,892,2048,2108,2372,2613,2322,2124,2105,2186
283562,-43472,-15632,-24220,8548,0,0,-22,-5,2,78,-44,-4260,-3,8,892,2048,2108,2372,2613,2322,2124,2105,2186
284563,-43476,-15628,-24155,8613,0,0,-20,-6,2,80,-53,-4260,-5,0,892,2048,2108,2372,2613,2322,2124,2105,2186
285564,-43480,-15636,-24090,8678,0,0,-19,-6,0,75,-62,-4229,8,-6,892,2046,2107,2371,2613,2320,2123,2103,2184
286565,-43476,-15628,-24025,8743,0,0,-18,-7,0,89,-80,-4270,4,5,892,2046,2107,2371,2613,2320,2123,2103,2184
287566,-43472,-15640,-23960,8808,0,0,-19,-7,-1,62,-76,-4292,-5,-4,892,2046,2107,2371,2613,2320,2123,2103,2184
288567,-43468,-15636,-23895,8873,0,0,-20,-6,-2,71,-70,-4246,10,-4,892,2046,2107,2371,2613,2320,2123,2103,2184
289568,-43468,-15632,-23830,8938,0,0,-19,-8,-4,55,-71,-4201,-4,7,892,2046,2107,2371,2613,2320,2123,2103,2184
290569,-43468,-15636,-23765,9003,0,0,-17,-10,-2,58,-71,-4247,3,7,892,2046,2107,2371,2613,2320,2123,2103,2184
291570,-43468,-15636,-23700,9068,0,0,-19,-10,-2,44,-58,-4242,10,4,891,2045,2106,2368,2610,2318,2121,2102,2182
292571,-43480,-15632,-23635,9133,0,0,-20,-10,0,81,-44,-4249,-9,-1,892,2045,2106,2368,2610,2318,2121,2102,2182
293572,-43468,-15628,-23570,9198,0,0,-19,-9,2,65,-68,-4252,10,-4,892,2045,2106,2368,2610,2318,2121,2102,2182
294573,-43472,-15632,-23505,9263,0,0,-21,-11,1,62,-98,-4265,-6,-6,892,2045,2106,2368,2610,2318,2121,2102,2182
295574,-43476,-15632,-23440,9328,0,0,-24,-13,0,56,-86,-4240,3,-3,892,2045,2106,2368,2610,2318,2121,2102,2182
296575,-43476,-15628,-23375,9393,0,0,-24,-14,0,77,-63,-4268,5,1,892,2045,2105,2368,2610,2316,2118,2100,2182
297576,-43468,-15636,-23310,9458,0,0,-23,-13,-1,76,-36,-4239,-9,7,892,2045,2105,2368,2610,2316,2118,2100,2182
298577,-43484,-15632,-23245,9523,0,0,-19,-12,-4,96,-57,-4218,1,5,892,2045,2105,2368,2610,2316,2118,2100,2182
299578,-43488,-15644,-23180,9588,0,0,-20,-14,-2,92,-69,-4233,7,3,892,2045,2105,2368,2610,2316,2118,2100,2182
300579,-43476,-15644,-23115,9653,0,0,-22,-14,-1,71,-71,-4225,-9,-4,892,2045,2105,2368,2610,2316,2118,2100,2182
301580,-43484,-15628,-23050,9718,0,0,-23,-14,0,61,-83,-4244,7,-5,892,2045,2105,2368,2610,2316,2118,2100,2182
302581,-43480,-15632,-22985,9783,0,0,-23,-14,-1,51,-51,-4281,2,-6,892,2045,2105,2368,2610,2316,2119,2101,2182
303582,-43472,-15632,-22920,9848,0,0,-23,-12,0,93,-51,-4264,-9,-5,892,2045,2105,2368,2610,2316,2119,2101,2182
304583,-43488,-15624,-22855,9913,0,0,-27,-15,0,70,-66,-4281,10,5,892,2045,2105,2368,2610,2316,2119,2101,2182
305584,-43476,-15644,-22790,9978,0,0,-26,-14,-2,54,-64,-4289,-9,8,892,2045,2105,2368,2610,2316,2119,2101,2182
306585,-43468,-15636,-22725,10043,0,0,-23,-14,-3,86,-38,-4265,9,7,892,2045,2105,2368,2610,2316,2119,2101,2182
307586,-43484,-15628,-22660,10108,0,0,-25,-14,-1,59,-62,-4243,-5,-3,892,2047,2107,2371,2611,2318,2122,2104,2186
308587,-43476,-15636,-22595,10173,0,0,-24,-14,-1,58,-58,-4239,-2,-6,891,2047,2107,2371,2611,2318,2122,2104,2186
309588,-43476,-15628,-22530,10238,0,0,-25,-15,-1,49,-54,-4279,7,-6,892,2047,2107,2371,2611,2318,2122,2104,2186
310589,-43484,-15644,-22465,10303,0,0,-24,-16,-1,64,-43,-4292,-9,-5,892,2047,2107,2371,2611,2318,2122,2104,2186
311590,-43472,-15632,-22400,10368,0,0,-27,-18,-1,38,-56,-4278,4,4,892,2047,2107,2371,2611,2318,2122,2104,2186
312591,-43472,-15640,-22335,10433,0,0,-28,-18,-1,39,-50,-4256,10,8,892,2047,2107,2371,2611,2318,2122,2104,2186
313592,-43476,-15636,-22270,10498,0,0,-29,-17,-2,60,-55,-4283,-8,4,892,2048,2109,2372,2614,2320,2122,2104,2185
314593,-43468,-15632,-22205,10563,0,0,-30,-17,0,69,-53,-4284,-2,4,892,2048,2109,2372,2614,2320,2122,2104,2185
315594,-43488,-15636,-22140,10628,0,0,-27,-17,-2,73,-82,-4297,7,0,892,2048,2109,2372,2614,2320,2122,2104,2185
316595,-43468,-15644,-22075,10693,0,0,-24,-16,0,33,-62,-4251,9,-6,892,2048,2109,2372,2614,2320,2122,2104,2185
317596,-43480,-15644,-22010,10758,0,0,-28,-16,0,24,-72,-4288,0,-6,892,2048,2109,2372,2614,2320,2122,2104,2185
318597,-43472,-15628,-21945,10823,0,0,-29,-18,-2,41,-52,-4297,-9,-1,892,2051,2111,2374,2616,2322,2123,2105,2187
319598,-43472,-15632,-21880,10888,0,0,-27,-18,-5,42,-16,-4290,-2,7,892,2051,2111,2374,2616,2322,2123,2105,2187
320599,-43468,-15636,-21815,10953,0,0,-29,-16,-4,39,-21,-4287,10,3,892,2051,2111,2374,2616,2322,2123,2105,2187
321600,-43464,-15640,-21750,11018,0,0,-27,-14,-4,39,-27,-4273,-2,-4,892,2051,2111,2374,2616,2322,2123,2105,2187
322601,-43488,-15636,-21685,11083,0,0,-28,-15,-4,50,-37,-4269,-6,3,892,2051,2111,2374,2616,2322,2123,2105,2187
323602,-43480,-15632,-21620,11148,0,0,-27,-17,-2,60,-45,-4300,10,8,892,2051,2111,2374,2616,2322,2123,2105,2187
324603,-43468,-15628,-21555,11213,0,0,-25,-17,-3,41,-55,-4276,-7,7,892,2047,2109,2371,2612,2321,2122,2103,2185
325604,-43484,-15632,-21490,11278,0,0,-24,-17,-2,38,-54,-4218,8,-4,891,2047,2109,2371,2612,2321,2122,2103,2185
326605,-43472,-15636,-21425,11343,0,0,-24,-15,-3,42,-72,-4222,-8,3,892,2047,2109,2371,2612,2321,2122,2103,2185
327606,-43476,-15632,-21360,11408,0,0,-25,-14,-3,60,-54,-4257,0,2,892,2047,2109,2371,2612,2321,2122,2103,2185
328607,-43484,-15636,-21295,11473,0,0,-26,-14,-4,41,-45,-4267,0,-5,892,2047,2109,2371,2612,2321,2122,2103,2185
329608,-43480,-15636,-21230,11538,0,0,-27,-16,-4,20,-50,-4243,-8,-6,892,2045,2106,2368,2609,2318,2120,2102,2183
330609,-43476,-15624,-21165,11603,0,0,-26,-15,-3,45,-29,-4260,2,-5,892,2045,2106,2368,2609,2318,2120,2102,2183
331610,-43476,-15628,-21100,11668,0,0,-24,-13,-3,52,-35,-4253,2,2,892,2045,2106,2368,2609,2318,2120,2102,2183
332611,-43464,-15632,-21035,11733,0,0,-24,-12,-3,49,-30,-4232,-5,8,892,2045,2106,2368,2609,2318,2120,2102,2183
333612,-43468,-15628,-20970,11798,0,0,-25,-14,-1,56,-47,-4196,6,8,892,2045,2106,2368,2609,2318,2120,2102,2183
334613,-43480,-15632,-20905,11863,0,0,-24,-15,0,57,-45,-4214,0,2,892,2043,2104,2366,2607,2317,2118,2100,2183
335614,-43484,-15636,-20840,11928,0,0,-19,-12,-3,78,-44,-4210,-6,1,892,2043,2104,2366,2607,2317,2118,2100,2183
336615,-43472,-15636,-20775,11993,0,0,-18,-11,-3,57,-38,-4251,10,0,892,2043,2104,2366,2607,2317,2118,2100,2183
337616,-43484,-15620,-20710,12058,0,0,-19,-13,-2,45,-56,-4250,-7,-6,892,2043,2104,2366,2607,2317,2118,2100,2183
338617,-43488,-15640,-20645,12123,0,0,-23,-12,-2,39,-40,-4222,3,-6,892,2043,2104,2366,2607,2317,2118,2100,2183
339618,-43472,-15636,-20580,12188,0,0,-23,-7,-2,50,-52,-4200,8,-4,892,2043,2104,2366,2607,2317,2118,2100,2183
340619,-43488,-15644,-20515,12253,0,0,-23,-7,-2,29,-59,-4245,-9,7,892,2043,2104,2365,2607,2316,2118,2101,2183
341620,-43472,-15624,-20450,12318,0,0,-21,-8,0,56,-49,-4264,7,8,892,2043,2104,2365,2607,2316,2118,2101,2183
342621,-43472,-15640,-20385,12383,0,0,-20,-7,2,37,-48,-4241,5,7,891,2043,2104,2365,2607,2316,2118,2101,2183
343622,-43476,-15628,-20320,12448,0,0,-20,-5,3,28,-78,-4258,-4,7,892,2043,2104,2365,2607,2316,2118,2101,2183
344623,-43480,-15620,-20255,12513,0,0,-18,-6,2,44,-52,-4274,10,7,892,2043,2104,2365,2607,2316,2118,2101,2183
345624,-43468,-15640,-20190,12578,0,0,-19,-5,-1,72,-23,-4279,-5,8,892,2044,2106,2369,2607,2315,2119,2103,2186
346625,-43464,-15632,-20125,12643,0,0,-20,-4,0,48,-47,-4265,7,2,892,2044,2106,2369,2607,2315,2119,2103,2186
347626,-43472,-15628,-20060,12708,0,0,-20,-4,1,50,-50,-4268,-1,3,892,2044,2106,2369,2607,2315,2119,2103,2186
348627,-43472,-15628,-19995,12773,0,0,-19,-6,3,70,-41,-4259,-7,6,892,2044,2106,2369,2607,2315,2119,2103,2186
349628,-43480,-15636,-19930,12838,0,0,-19,-4,1,70,-55,-4242,10,-2,892,2044,2106,2369,2607,2315,2119,2103,2186
350629,-43468,-15636,-19865,12903,0,0,-21,-2,-1,52,-46,-4254,-9,-3,892,2044,2106,2369,2607,2315,2119,2103,2186
351630,-43484,-15632,-19800,12968,0,0,-22,-3,-1,54,-46,-4264,-1,-1,892,2048,2108,2372,2613,2320,2121,2104,2186
352631,-43464,-15632,-19735,13033,0,0,-24,-4,0,65,-52,-4299,3,-5,892,2048,2108,2372,2613,2320,2121,2104,2186
353632,-43480,-15620,-19670,13098,0,0,-23,-5,-2,51,-34,-4315,-8,-4,892,2048,2108,2372,2613,2320,2121,2104,2186
354633,-43480,-15636,-19605,13163,0,0,-22,-6,-1,72,-47,-4313,7,-3,892,2048,2108,2372,2613,2320,2121,2104,2186
355634,-43472,-15640,-19540,13228,0,0,-19,-6,-1,59,-61,-4242,-5,-6,892,2048,2108,2372,2613,2320,2121,2104,2186
356635,-43480,-15632,-19475,13293,0,0,-19,-5,-3,53,-47,-4272,6,-6,892,2052,2112,2376,2616,2322,2124,2104,2186
357636,-43484,-15632,-19410,13358,0,0,-20,-3,-1,65,-57,-4292,0,-6,892,2052,2112,2376,2616,2322,2124,2104,2186
358637,-43476,-15632,-19345,13423,0,0,-23,-4,-2,67,-42,-4284,0,-3,892,2052,2112,2376,2616,2322,2124,2104,2186
359638,-43472,-15632,-19280,13488,0,0,-23,-5,-2,69,-74,-4299,-3,-1,891,2052,2112,2376,2616,2322,2124,2104,2186
360639,-43480,-15636,-19215,13553,0,0,-24,-5,-1,51,-55,-4281,4,-6,892,2052,2112,2376,2616,2322,2124,2104,2186
361640,-43484,-15640,-19150,13618,0,0,-23,-3,-1,65,-52,-4268,-4,-3,892,2052,2112,2376,2616,2322,2124,2104,2186
362641,-43480,-15636,-19085,13683,0,0,-23,-3,-1,80,-63,-4283,1,-2,892,2049,2110,2373,2615,2321,2123,2104,2186
363642,-43480,-15628,-19020,13748,0,0,-21,-6,-3,71,-54,-4290,9,0,892,2049,2110,2373,2615,2321,2123,2104,2186
364643,-43472,-15628,-18955,13813,0,0,-23,-7,-4,79,-40,-4288,-9,8,892,2049,2110,2373,2615,2321,2123,2104,2186
365644,-43476,-15648,-18890,13878,0,0,-24,-5,-4,52,-54,-4268,10,8,892,2049,2110,2373,2615,2321,2123,2104,2186
366645,-43480,-15636,-18825,13943,0,0,-25,-4,-4,75,-60,-4294,-7,8,892,2049,2110,2373,2615,2321,2123,2104,2186
367646,-43476,-15640,-18760,14008,0,0,-24,-5,-5,83,-53,-4274,4,5,892,2048,2108,2371,2613,2318,2121,2101,2183
368647,-43484,-15628,-18695,14073,0,0,-24,-6,-5,71,-23,-4259,7,2,892,2048,2108,2371,2613,2318,2121,2101,2183
369648,-43484,-15624,-18630,14138,0,0,-23,-7,-2,61,-57,-4253,-9,4,892,2048,2108,2371,2613,2318,2121,2101,2183
370649,-43468,-15632,-18565,14203,0,0,-23,-9,-3,82,-28,-4203,10,-4,892,2048,2108,2371,2613,2318,2121,2101,2183
371650,-43472,-15632,-18500,14268,0,0,-26,-9,-4,77,-44,-4259,-9,-3,892,2048,2108,2371,2613,2318,2121,2101,2183
372651,-43468,-15644,-18435,14333,0,0,-26,-8,-3,67,-51,-4267,8,2,892,2048,2108,2371,2613,2318,2121,2101,2183
373652,-43472,-15632,-18370,14398,0,0,-26,-11,-3,75,-34,-4236,-7,-4,892,2045,2105,2368,2611,2317,2119,2101,2183
374653,-43464,-15648,-18305,14463,0,0,-27,-13,-1,53,-69,-4256,10,-6,892,2045,2105,2368,2611,2317,2119,2101,2183
375654,-43480,-15636,-18240,14528,0,0,-25,-13,1,72,-66,-4256,1,-6,892,2045,2105,2368,2611,2317,2119,2101,2183
376655,-43476,-15640,-18175,14593,0,0,-24,-10,-1,79,-84,-4254,0,1,891,2045,2105,2368,2611,2317,2119,2101,2183
377656,-43464,-15644,-18110,14658,0,0,-25,-10,-3,75,-79,-4265,7,-4,892,2045,2105,2368,2611,2317,2119,2101,2183
378657,-43468,-15624,-18045,14723,0,0,-26,-12,-2,65,-71,-4267,-3,-6,893,2044,2105,2367,2608,2314,2118,2099,2181
379658,-43472,-15628,-17980,14788,0,0,-25,-18,-3,78,-56,-4272,-1,0,892,2044,2105,2367,2608,2314,2118,2099,2181
380659,-43476,-15628,-17915,14853,0,0,-25,-18,-1,93,-44,-4273,7,2,892,2044,2105,2367,2608,2314,2118,2099,2181
381660,-43476,-15628,-17850,14918,0,0,-25,-16,1,91,-58,-4259,-8,7,892,2044,2105,2367,2608,2314,2118,2099,2181
382661,-43488,-15644,-17785,14983,0,0,-26,-16,0,88,-54,-4221,3,7,892,2044,2105,2367,2608,2314,2118,2099,2181
383662,-43480,-15636,-17720,15048,0,0,-28,-18,-2,80,-50,-4235,7,7,893,2044,2105,2367,2608,2314,2118,2099,2181
384663,-43484,-15640,-17655,15113,0,0,-27,-18,-1,100,-40,-4235,-7,4,892,2046,2108,2370,2612,2320,2120,2101,2183
385664,-43480,-15640,-17590,15178,0,0,-27,-17,0,89,-60,-4251,4,-4,892,2046,2108,2370,2612,2320,2120,2101,2183
386665,-43468,-15640,-17525,15243,0,0,-26,-18,-1,77,-64,-4254,-3,-5,892,2046,2108,2370,2612,2320,2120,2101,2183
387666,-43484,-15632,-17460,15308,0,0,-25,-19,0,46,-73,-4271,-7,-6,892,2046,2108,2370,2612,2320,2120,2101,2183
388667,-43480,-15636,-17395,15373,0,0,-25,-19,-1,69,-56,-4252,10,-4,892,2046,2108,2370,2612,2320,2120,2101,2183
389668,-43472,-15644,-17330,15438,0,0,-27,-20,-1,70,-42,-4289,-8,-1,892,2045,2106,2370,2612,2319,2122,2103,2185
390669,-43464,-15648,-17265,15503,0,0,-27,-17,-1,65,-66,-4244,-2,3,892,2045,2106,2370,2612,2319,2122,2103,2185
391670,-43472,-15640,-17200,15568,0,0,-24,-17,-2,44,-89,-4228,9,8,892,2045,2106,2370,2612,2319,2122,2103,2185
392671,-43476,-15644,-17135,15633,0,0,-21,-19,1,57,-60,-4232,-8,8,892,2045,2106,2370,2612,2319,2122,2103,2185
393672,-43472,-15636,-17070,15698,0,0,-20,-21,2,47,-45,-4238,2,8,892,2045,2106,2370,2612,2319,2122,2103,2185
394673,-43476,-15628,-17005,15763,0,0,-25,-20,3,59,-45,-4283,-1,6,892,2045,2106,2370,2612,2319,2122,2103,2185
395674,-43468,-15632,-16940,15828,0,0,-26,-20,1,43,-66,-4269,-3,2,892,2046,2108,2371,2613,2321,2122,2104,2186
396675,-43472,-15628,-16875,15893,0,0,-22,-19,-1,46,-62,-4294,7,-4,892,2046,2108,2371,2613,2321,2122,2104,2186
397676,-43480,-15640,-16810,15958,0,0,-22,-17,0,51,-51,-4310,-7,-3,892,2046,2108,2371,2613,2321,2122,2104,2186
398677,-43476,-15640,-16745,16023,0,0,-22,-16,1,67,-48,-4316,10,1,892,2046,2108,2371,2613,2321,2122,2104,2186
399678,-43484,-15632,-16680,16088,0,0,-22,-15,2,58,-61,-4289,0,-5,892,2046,2108,2371,2613,2321,2122,2104,2186
400679,-43468,-15636,-16615,16153,0,0,-27,-15,-1,53,-62,-4232,-4,-2,892,2048,2110,2372,2614,2321,2123,2103,2183
401680,-43476,-15632,-16550,16218,0,0,-26,-17,-2,45,-50,-4269,10,-3,892,2048,2110,2372,2614,2321,2123,2103,2183
402681,-43468,-15644,-16485,16283,0,0,-26,-15,-3,43,-60,-4262,2,-3,892,2048,2110,2372,2614,2321,2123,2103,2183
403682,-43476,-15636,-16420,16348,0,0,-24,-12,-2,53,-72,-4253,-7,1,892,2048,2110,2372,2614,2321,2123,2103,2183
404683,-43476,-15644,-16355,16413,0,0,-23,-11,-1,50,-51,-4275,10,-2,892,2048,2110,2372,2614,2321,2123,2103,2183
405684,-43484,-15644,-16290,16478,0,0,-22,-12,-4,80,-70,-4267,0,-1,892,2048,2110,2372,2614,2321,2123,2103,2183
406685,-43476,-15640,-16225,16543,0,0,-23,-12,-4,63,-64,-4240,-8,4,892,2047,2109,2371,2613,2320,2121,2102,2186
407686,-43480,-15632,-16160,16608,0,0,-25,-10,0,51,-34,-4266,10,-1,892,2047,2109,2371,2613,2320,2121,2102,2186
408687,-43480,-15628,-16095,16673,0,0,-25,-8,-3,60,-42,-4253,0,-5,892,2047,2109,2371,2613,2320,2121,2102,2186
409688,-43484,-15628,-16030,16738,0,0,-23,-8,-3,55,-54,-4242,-5,1,892,2047,2109,2371,2613,2320,2121,2102,2186
410689,-43484,-15628,-15965,16803,0,0,-20,-9,-4,56,-59,-4250,10,-1,891,2047,2109,2371,2613,2320,2121,2102,2186
411690,-43480,-15636,-15900,16868,0,0,-22,-8,-4,49,-61,-4232,-6,-5,892,2043,2105,2367,2610,2319,2120,2104,2184
412691,-43476,-15636,-15835,16933,0,0,-26,-6,-4,41,-72,-4228,5,-1,892,2043,2105,2367,2610,2319,2120,2104,2184
413692,-43480,-15636,-15770,16998,0,0,-24,-4,-4,39,-55,-4257,5,-5,892,2043,2105,2367,2610,2319,2120,2104,2184
414693,-43472,-15632,-15705,17063,0,0,-25,-4,-4,61,-60,-4243,-9,-6,892,2043,2105,2367,2610,2319,2120,2104,2184
415694,-43476,-15632,-15640,17128,0,0,-25,-4,-3,69,-68,-4224,9,-3,892,2043,2105,2367,2610,2319,2120,2104,2184
416695,-43480,-15624,-15575,17193,0,0,-24,-4,-1,79,-68,-4220,-6,-6,892,2043,2105,2367,2610,2319,2120,2104,2184
417696,-43476,-15640,-15510,17258,0,0,-21,-5,-1,53,-74,-4257,-7,-6,892,2044,2106,2368,2609,2317,2118,2101,2183
418697,-43492,-15636,-15445,17323,0,0,-22,-4,-2,65,-56,-4270,10,-4,892,2044,2106,2368,2609,2317,2118,2101,2183
419698,-43476,-15632,-15380,17388,0,0,-24,-3,0,67,-47,-4242,-9,-4,892,2044,2106,2368,2609,2317,2118,2101,2183
420699,-43484,-15632,-15315,17453,0,0,-25,-3,-5,59,-59,-4241,0,-5,892,2044,2106,2368,2609,2317,2118,2101,2183
421700,-43484,-15636,-15250,17518,0,0,-24,-1,-6,79,-65,-4237,2,3,892,2044,2106,2368,2609,2317,2118,2101,2183
422701,-43472,-15640,-15185,17583,0,0,-22,-1,-4,48,-66,-4238,-2,8,892,2046,2108,2368,2612,2320,2120,2102,2183
423702,-43476,-15616,-15120,17648,0,0,-20,-2,0,48,-26,-4227,3,8,892,2046,2108,2368,2612,2320,2120,2102,2183
424703,-43480,-15640,-15055,17713,0,0,-20,-2,0,57,-22,-4221,0,5,892,2046,2108,2368,2612,2320,2120,2102,2183
425704,-43476,-15636,-14990,17778,0,0,-21,-3,-2,35,-55,-4222,5,1,892,2046,2108,2368,2612,2320,2120,2102,2183
426705,-43476,-15636,-14925,17843,0,0,-22,-4,-2,41,-55,-4211,-9,1,892,2046,2108,2368,2612,2320,2120,2102,2183
427706,-43460,-15624,-14860,17908,0,0,-23,-6,-1,48,-54,-4256,3,-4,891,2046,2108,2368,2612,2320,2120,2102,2183
428707,-43472,-15628,-14795,17973,0,0,-21,-3,-1,50,-59,-4276,-2,2,892,2044,2105,2368,2610,2319,2121,2103,2185
429708,-43484,-15632,-14730,18038,0,0,-18,-3,1,79,-40,-4252,-9,1,892,2044,2105,2368,2610,2319,2121,2103,2185
430709,-43476,-15632,-14665,18103,0,0,-18,-5,2,77,-27,-4230,3,-3,892,2044,2105,2368,2610,2319,2121,2103,2185
431710,-43468,-15632,-14600,18168,0,0,-20,-6,0,76,-37,-4258,2,1,892,2044,2105,2368,2610,2319,2121,2103,2185
432711,-43480,-15628,-14535,18233,0,0,-19,-6,0,84,-49,-4255,-9,-1,892,2044,2105,2368,2610,2319,2121,2103,2185
433712,-43472,-15632,-14470,18298,0,0,-20,-5,-2,78,-44,-4275,8,-6,892,2046,2106,2370,2612,2320,2122,2104,2185
434713,-43476,-15636,-14405,18363,0,0,-21,-5,-2,67,-37,-4263,-2,-6,892,2046,2106,2370,2612,2320,2122,2104,2185
435714,-43480,-15628,-14340,18428,0,0,-21,-5,0,89,-55,-4299,9,-6,892,2046,2106,2370,2612,2320,2122,2104,2185
436715,-43468,-15632,-14275,18493,0,0,-21,-5,0,67,-62,-4285,-5,-3,892,2046,2106,2370,2612,2320,2122,2104,2185
437716,-43476,-15644,-14210,18558,0,0,-20,-7,0,50,-53,-4259,-1,-5,892,2046,2106,2370,2612,2320,2122,2104,2185
438717,-43480,-15648,-14145,18623,0,0,-19,-9,2,58,-64,-4256,-6,-3,892,2046,2106,2370,2612,2320,2122,2104,2185
439718,-43476,-15640,-14080,18688,0,0,-20,-10,1,82,-55,-4269,2,5,892,2047,2108,2371,2614,2320,2123,2104,2185
440719,-43484,-15628,-14015,18753,0,0,-19,-12,0,74,-51,-4294,-3,8,892,2047,2108,2371,2614,2320,2123,2104,2185
441720,-43472,-15632,-13950,18818,0,0,-17,-10,-2,65,-63,-4304,9,8,892,2047,2108,2371,2614,2320,2123,2104,2185
442721,-43468,-15632,-13885,18883,0,0,-19,-9,-3,74,-50,-4292,-9,0,892,2047,2108,2371,2614,2320,2123,2104,2185
443722,-43476,-15632,-13820,18948,0,0,-20,-12,-2,83,-50,-4295,4,-2,892,2047,2108,2371,2614,2320,2123,2104,2185
444723,-43476,-15636,-13755,19013,0,0,-22,-14,-1,53,-59,-4283,10,-2,892,2047,2109,2371,2614,2319,2122,2103,2184
445724,-43476,-15624,-13690,19078,0,0,-22,-14,-3,58,-61,-4255,-6,-6,892,2047,2109,2371,2614,2319,2122,2103,2184
446725,-43480,-15640,-13625,19143,0,0,-21,-14,-4,76,-70,-4256,10,-6,892,2047,2109,2371,2614,2319,2122,2103,2184
447726,-43476,-15640,-13560,19208,0,0,-23,-15,-2,57,-75,-4235,-6,-1,892,2047,2109,2371,2614,2319,2122,2103,2184
448727,-43472,-15620,-13495,19273,0,0,-24,-13,0,63,-72,-4250,9,8,892,2047,2109,2371,2614,2319,2122,2103,2184
449728,-43484,-15632,-13430,19338,0,0,-26,-14,-1,67,-83,-4232,-9,8,892,2047,2109,2371,2614,2319,2122,2103,2184
450729,-43484,-15628,-13166,19602,0,0,-25,-15,-2,87,-66,-4263,9,5,892,2047,2107,2371,2611,2315,2119,2101,2186
451730,-43476,-15640,-13101,19667,0,0,-24,-15,-2,75,-34,-4251,-4,-1,892,2047,2107,2371,2611,2315,2119,2101,2186
452731,-43476,-15636,-13036,19732,0,0,-25,-14,0,61,-66,-4248,-2,-2,892,2047,2107,2371,2611,2315,2119,2101,2186
453732,-43468,-15636,-12971,19797,0,0,-26,-18,0,38,-80,-4297,10,-3,892,2047,2107,2371,2611,2315,2119,2101,2186
454734,-43476,-15640,-12906,19862,0,0,-25,-18,-2,43,-67,-4282,-9,-6,892,2047,2107,2371,2611,2315,2119,2101,2186
455734,-43476,-15616,-12841,19927,0,0,-30,-14,-1,85,-57,-4256,8,-4,892,2048,2106,2370,2612,2316,2118,2101,2182
456735,-43484,-15640,-12776,19992,0,0,-31,-12,0,82,-62,-4280,2,-2,892,2048,2106,2370,2612,2316,2118,2101,2182
457736,-43480,-15636,-12711,20057,0,0,-28,-15,0,85,-75,-4276,-7,6,892,2048,2106,2370,2612,2316,2118,2101,2182
458737,-43480,-15648,-12646,20122,0,0,-27,-14,-1,49,-54,-4234,9,5,892,2048,2106,2370,2612,2316,2118,2101,2182
459738,-43484,-15636,-12581,20187,0,0,-30,-14,-4,51,-62,-4243,-8,6,892,2048,2106,2370,2612,2316,2118,2101,2182
460739,-43484,-15636,-12516,20252,0,0,-32,-16,-3,67,-55,-4253,7,5,892,2048,2106,2370,2612,2316,2118,2101,2182
461740,-43476,-15636,-12451,20317,0,0,-29,-16,-1,70,-50,-4228,-5,-1,891,2047,2108,2370,2612,2316,2120,2101,2182
462741,-43484,-15628,-12386,20382,0,0,-27,-15,0,75,-75,-4263,5,4,892,2047,2108,2370,2612,2316,2120,2101,2182
463742,-43476,-15636,-12321,20447,0,0,-28,-14,-1,72,-79,-4269,1,-1,892,2047,2108,2370,2612,2316,2120,2101,2182
464743,-43476,-15644,-12256,20512,0,0,-26,-13,-1,82,-85,-4232,-4,-6,892,2047,2108,2370,2612,2316,2120,2101,2182
465744,-43460,-15636,-12191,20577,0,0,-26,-14,-2,61,-63,-4221,10,6,892,2047,2108,2370,2612,2316,2120,2101,2182
466745,-43480,-15644,-12126,20642,0,0,-29,-15,-1,61,-48,-4247,-9,0,892,2045,2107,2369,2610,2319,2121,2102,2184
467746,-43484,-15632,-12061,20707,0,0,-29,-15,-2,70,-53,-4308,10,-5,892,2045,2107,2369,2610,2319,2121,2102,2184
468747,-43480,-15632,-11996,20772,0,0,-29,-15,-3,62,-37,-4288,-6,-6,892,2045,2107,2369,2610,2319,2121,2102,2184
469748,-43480,-15640,-11931,20837,0,0,-27,-15,-4,70,-50,-4243,5,-4,892,2045,2107,2369,2610,2319,2121,2102,2184
470749,-43468,-15640,-11866,20902,0,0,-29,-14,-4,56,-47,-4269,0,3,892,2045,2107,2369,2610,2319,2121,2102,2184
471750,-43468,-15632,-11801,20967,0,0,-28,-13,-2,87,-38,-4251,-7,8,892,2045,2107,2369,2610,2319,2121,2102,2184
472751,-43476,-15636,-11736,21032,0,0,-27,-14,1,94,-40,-4263,10,7,892,2045,2107,2369,2610,2319,2122,2104,2186
473752,-43460,-15644,-11671,21097,0,0,-25,-15,0,54,-41,-4267,-5,-5,892,2045,2107,2369,2610,2319,2122,2104,2186
474753,-43476,-15644,-11606,21162,0,0,-26,-14,-1,58,-28,-4250,-9,-2,892,2045,2107,2369,2610,2319,2122,2104,2186
475754,-43480,-15632,-11541,21227,0,0,-25,-15,-4,51,-14,-4240,11,5,892,2045,2107,2369,2610,2319,2122,2104,2186
476755,-43476,-15628,-11476,21292,0,0,-22,-17,-2,43,-37,-4266,-9,6,892,2045,2107,2369,2610,2319,2122,2104,2186
477756,-43480,-15632,-11411,21357,0,0,-21,-14,1,40,-42,-4240,-4,-4,892,2045,2107,2369,2613,2319,2123,2106,2189
478757,-43476,-15640,-11346,21422,0,0,-21,-12,1,69,-56,-4266,10,-6,891,2045,2107,2369,2613,2319,2123,2106,2189
479758,-43476,-15636,-11281,21487,0,0,-20,-11,-3,51,-46,-4261,-8,-2,892,2045,2107,2369,2613,2319,2123,2106,2189
480759,-43484,-15632,-11216,21552,0,0,-19,-12,-4,73,-52,-4281,-3,8,892,2045,2107,2369,2613,2319,2123,2106,2189
481760,-43472,-15636,-11151,21617,0,0,-20,-12,-4,53,-37,-4244,8,7,892,2045,2107,2369,2613,2319,2123,2106,2189
482761,-43480,-15652,-11086,21682,0,0,-19,-12,-2,29,-16,-4268,-6,5,892,2045,2107,2369,2613,2319,2123,2106,2189
483762,-43484,-15640,-11021,21747,0,0,-21,-12,1,55,-22,-4245,7,8,892,2045,2107,2369,2610,2320,2121,2104,2185
484763,-43472,-15640,-10956,21812,0,0,-23,-16,1,87,-41,-4240,2,9,892,2045,2107,2369,2610,2320,2121,2104,2185
485764,-43476,-15632,-10891,21877,0,0,-21,-12,-1,55,-62,-4245,-8,8,892,2045,2107,2369,2610,2320,2121,2104,2185
486765,-43476,-15624,-10826,21942,0,0,-20,-10,-2,50,-64,-4270,-3,8,892,2045,2107,2369,2610,2320,2121,2104,2185
487766,-43468,-15632,-10761,22007,0,0,-19,-8,0,68,-61,-4271,11,-6,892,2045,2107,2369,2610,2320,2121,2104,2185
488767,-43480,-15636,-10696,22072,0,0,-18,-7,4,63,-49,-4249,-6,-6,892,2047,2110,2372,2612,2320,2121,2104,2185
489768,-43484,-15636,-10631,22137,0,0,-17,-7,1,36,-69,-4248,-8,-6,892,2047,2110,2372,2612,2320,2121,2104,2185
490769,-43472,-15640,-10566,22202,0,0,-18,-6,-1,36,-77,-4251,2,5,892,2047,2110,2372,2612,2320,2121,2104,2185
491770,-43480,-15636,-10501,22267,0,0,-21,-5,-2,37,-104,-4268,10,4,892,2047,2110,2372,2612,2320,2121,2104,2185
492771,-43468,-15640,-10436,22332,0,0,-20,-5,0,45,-77,-4252,-5,-4,892,2047,2110,2372,2612,2320,2121,2104,2185
493772,-43468,-15636,-10371,22397,0,0,-18,-9,-1,68,-64,-4217,-1,8,892,2047,2110,2372,2612,2320,2121,2104,2185
494773,-43480,-15640,-10306,22462,0,0,-19,-9,1,70,-75,-4254,10,3,892,2044,2107,2370,2611,2317,2119,2101,2183
495774,-43484,-15636,-10241,22527,0,0,-26,-8,-1,62,-57,-4250,-6,-5,892,2044,2107,2370,2611,2317,2119,2101,2183
496775,-43472,-15640,-10176,22592,0,0,-26,-4,-1,28,-67,-4241,8,-5,892,2044,2107,2370,2611,2317,2119,2101,2183
497776,-43480,-15632,-10111,22657,0,0,-23,-4,-2,55,-42,-4245,0,-4,892,2044,2107,2370,2611,2317,2119,2101,2183
498777,-43484,-15624,-10046,22722,0,0,-21,-5,-4,78,-35,-4226,-9,-7,892,2044,2107,2370,2611,2317,2119,2101,2183
499778,-43476,-15636,-9981,22787,0,0,-21,-3,-1,48,-53,-4269,4,8,892,2046,2108,2369,2611,2317,2119,2100,2183
500779,-43464,-15632,-9916,22852,0,0,-23,-2,1,31,-76,-4250,7,1,892,2046,2108,2369,2611,2317,2119,2100,2183
501780,-43476,-15644,-9851,22917,0,0,-22,-1,0,33,-73,-4246,-6,-6,892,2046,2108,2369,2611,2317,2119,2100,2183
502781,-43468,-15640,-9786,22982,0,0,-21,-3,2,43,-67,-4272,-1,3,892,2046,2108,2369,2611,2317,2119,2100,2183
503782,-43484,-15640,-9721,23047,0,0,-24,-7,0,51,-57,-4277,6,8,892,2046,2108,2369,2611,2317,2119,2100,2183
504783,-43476,-15624,-9656,23112,0,0,-26,-8,0,73,-54,-4264,-9,8,892,2046,2108,2369,2611,2317,2119,2100,2183
505784,-43480,-15636,-9591,23177,0,0,-25,-5,-1,79,-35,-4245,9,8,892,2044,2107,2370,2612,2317,2120,2102,2184
506785,-43468,-15648,-9526,23242,0,0,-25,-3,-3,55,-53,-4256,2,6,892,2044,2107,2370,2612,2317,2120,2102,2184
507786,-43476,-15640,-9461,23307,0,0,-28,-5,-2,54,-61,-4262,-9,8,892,2044,2107,2370,2612,2317,2120,2102,2184
508787,-43480,-15636,-9396,23372,0,0,-27,-7,-2,56,-75,-4273,5,7,892,2044,2107,2370,2612,2317,2120,2102,2184
509788,-43480,-15628,-9331,23437,0,0,-25,-5,0,48,-94,-4276,9,5,892,2044,2107,2370,2612,2317,2120,2102,2184
510789,-43476,-15644,-9266,23502,0,0,-23,-5,0,67,-89,-4269,-6,-4,892,2045,2107,2370,2612,2318,2121,2102,2185
511790,-43480,-15632,-9201,23567,0,0,-23,-4,0,77,-60,-4266,0,4,892,2045,2107,2370,2612,2318,2121,2102,2185
512791,-43468,-15628,-9136,23632,0,0,-24,-7,-3,57,-30,-4267,8,0,891,2045,2107,2370,2612,2318,2121,2102,2185
513792,-43480,-15644,-9071,23697,0,0,-25,-9,-4,49,-51,-4274,-9,-2,892,2045,2107,2370,2612,2318,2121,2102,2185
514793,-43484,-15636,-9006,23762,0,0,-24,-8,-2,60,-55,-4298,4,-5,892,2045,2107,2370,2612,2318,2121,2102,2185
515794,-43472,-15636,-8941,23827,0,0,-22,-7,-4,70,-40,-4275,-3,-4,892,2045,2107,2370,2612,2318,2121,2102,2185
516795,-43480,-15628,-8876,23892,0,0,-23,-7,-3,55,-43,-4292,-5,4,892,2045,2106,2370,2612,2320,2123,2105,2185
517796,-43488,-15636,-8811,23957,0,0,-27,-8,-2,60,-37,-4293,10,6,892,2045,2106,2370,2612,2320,2123,2105,2185
518797,-43476,-15640,-8746,24022,0,0,-26,-12,-2,76,-46,-4277,-8,-2,892,2045,2106,2370,2612,2320,2123,2105,2185
519798,-43472,-15616,-8681,24087,0,0,-24,-13,-4,67,-57,-4255,2,-6,892,2045,2106,2370,2612,2320,2123,2105,2185
520799,-43468,-15636,-8616,24152,0,0,-23,-13,-3,67,-62,-4273,2,2,892,2045,2106,2370,2612,2320,2123,2105,2185
521800,-43468,-15624,-8551,24217,0,0,-22,-13,-2,52,-43,-4228,-3,6,892,2046,2108,2371,2613,2321,2123,2104,2186
522801,-43472,-15636,-8486,24282,0,0,-19,-15,-2,53,-37,-4239,10,6,892,2046,2108,2371,2613,2321,2123,2104,2186
523802,-43480,-15632,-8421,24347,0,0,-20,-15,-1,72,-41,-4256,-7,5,892,2046,2108,2371,2613,2321,2123,2104,2186
524803,-43484,-15632,-8356,24412,0,0,-22,-14,-1,59,-58,-4257,8,-6,892,2046,2108,2371,2613,2321,2123,2104,2186
525804,-43476,-15628,-8291,24477,0,0,-26,-14,0,53,-49,-4254,1,-3,892,2046,2108,2371,2613,2321,2123,2104,2186
526805,-43476,-15644,-8226,24542,0,0,-23,-15,-1,53,-40,-4265,4,2,892,2046,2108,2371,2613,2321,2123,2104,2186
527806,-43476,-15640,-8161,24607,0,0,-21,-17,-3,38,-28,-4292,-4,-4,892,2047,2107,2370,2613,2321,2123,2102,2183
528807,-43484,-15636,-8096,24672,0,0,-23,-19,-2,76,-32,-4264,-5,6,892,2047,2107,2370,2613,2321,2123,2102,2183
529808,-43472,-15640,-8031,24737,0,0,-23,-19,-2,75,-79,-4271,10,7,891,2047,2107,2370,2613,2321,2123,2102,2183
530809,-43480,-15632,-7966,24802,0,0,-22,-18,-2,85,-63,-4243,-7,-3,892,2047,2107,2370,2613,2321,2123,2102,2183
531810,-43468,-15628,-7901,24867,0,0,-25,-16,0,75,-58,-4243,4,2,892,2047,2107,2370,2613,2321,2123,2102,2183
532811,-43480,-15648,-7836,24932,0,0,-25,-15,1,63,-68,-4249,10,1,892,2046,2107,2370,2612,2318,2121,2102,2183
533812,-43472,-15620,-7771,24997,0,0,-23,-17,3,70,-64,-4261,-9,-6,892,2046,2107,2370,2612,2318,2121,2102,2183
534813,-43468,-15636,-7706,25062,0,0,-21,-19,2,76,-64,-4255,-1,6,892,2046,2107,2370,2612,2318,2121,2102,2183
535814,-43488,-15636,-7641,25127,0,0,-21,-18,-2,77,-63,-4237,10,4,892,2046,2107,2370,2612,2318,2121,2102,2183
536815,-43476,-15640,-7576,25192,0,0,-23,-17,-2,79,-63,-4271,-9,8,892,2046,2107,2370,2612,2318,2121,2102,2183
537816,-43472,-15620,-7511,25257,0,0,-24,-18,0,62,-65,-4251,6,2,892,2046,2107,2370,2612,2318,2121,2102,2183
538817,-43468,-15628,-7446,25322,0,0,-25,-16,1,63,-87,-4261,-4,-6,892,2043,2103,2367,2611,2319,2120,2104,2184
539818,-43488,-15636,-7381,25387,0,0,-26,-15,3,44,-64,-4200,4,8,892,2043,2103,2367,2611,2319,2120,2104,2184
540819,-43476,-15644,-7316,25452,0,0,-27,-14,3,23,-89,-4216,2,8,892,2043,2103,2367,2611,2319,2120,2104,2184
541820,-43476,-15644,-7251,25517,0,0,-27,-14,2,31,-84,-4224,0,-2,892,2043,2103,2367,2611,2319,2120,2104,2184
542821,-43480,-15624,-7186,25582,0,0,-24,-18,0,56,-70,-4237,6,-6,892,2043,2103,2367,2611,2319,2120,2104,2184
543822,-43476,-15640,-7121,25647,0,0,-23,-17,1,52,-64,-4235,-9,-5,892,2044,2106,2368,2610,2316,2118,2101,2183
544823,-43484,-15624,-7056,25712,0,0,-24,-13,1,72,-55,-4245,11,8,892,2044,2106,2368,2610,2316,2118,2101,2183
545824,-43476,-15640,-6991,25777,0,0,-25,-12,-1,65,-55,-4267,-9,5,892,2044,2106,2368,2610,2316,2118,2101,2183
546825,-43476,-15636,-6926,25842,0,0,-25,-14,-1,80,-33,-4267,-3,-3,892,2044,2106,2368,2610,2316,2118,2101,2183
547826,-43476,-15628,-6861,25907,0,0,-27,-15,-1,61,-25,-4273,7,-6,892,2044,2106,2368,2610,2316,2118,2101,2183
548827,-43488,-15632,-6796,25972,0,0,-28,-15,-1,29,-40,-4263,-9,-2,892,2044,2106,2368,2610,2316,2118,2101,2183
549828,-43476,-15624,-6731,26037,0,0,-27,-12,1,38,-38,-4269,5,-3,892,2046,2108,2370,2610,2317,2119,2102,2183
550829,-43484,-15632,-6666,26102,0,0,-27,-9,-1,62,-25,-4251,3,-3,892,2046,2108,2370,2610,2317,2119,2102,2183
551830,-43480,-15624,-6601,26167,0,0,-25,-8,-3,67,-16,-4264,-9,-6,892,2046,2108,2370,2610,2317,2119,2102,2183
552831,-43464,-15640,-6536,26232,0,0,-24,-9,-2,68,-60,-4293,5,-6,892,2046,2108,2370,2610,2317,2119,2102,2183
553832,-43480,-15636,-6471,26297,0,0,-23,-8,-3,62,-74,-4220,2,-4,892,2046,2108,2370,2610,2317,2119,2102,2183
554833,-43480,-15644,-6406,26362,0,0,-24,-9,1,59,-79,-4219,-8,5,892,2045,2107,2369,2611,2319,2122,2103,2185
555834,-43472,-15636,-6341,26427,0,0,-23,-9,0,72,-62,-4264,4,7,892,2045,2107,2369,2611,2319,2122,2103,2185
556835,-43484,-15636,-6276,26492,0,0,-23,-10,-2,57,-44,-4245,-2,-6,892,2045,2107,2369,2611,2319,2122,2103,2185
557836,-43472,-15632,-6211,26557,0,0,-24,-11,-2,41,-40,-4285,0,-3,892,2045,2107,2369,2611,2319,2122,2103,2185
558837,-43476,-15632,-6146,26622,0,0,-25,-9,-3,52,-60,-4276,10,-6,892,2045,2107,2369,2611,2319,2122,2103,2185
559838,-43460,-15636,-6081,26687,0,0,-25,-8,-4,81,-36,-4262,-7,8,892,2045,2107,2369,2611,2319,2122,2103,2185
560839,-43464,-15628,-6016,26752,0,0,-25,-5,-5,83,-43,-4237,3,0,892,2045,2107,2369,2611,2319,2122,2104,2186
561840,-43476,-15648,-5951,26817,0,0,-23,-6,-4,79,-47,-4263,6,-5,892,2045,2107,2369,2611,2319,2122,2104,2186
562841,-43476,-15644,-5886,26882,0,0,-22,-7,-3,87,-42,-4258,-6,-7,892,2045,2107,2369,2611,2319,2122,2104,2186
563842,-43476,-15636,-5821,26947,0,0,-23,-8,-4,66,-32,-4239,8,-4,891,2045,2107,2369,2611,2319,2122,2104,2186
564843,-43468,-15632,-5756,27012,0,0,-23,-7,-4,47,-44,-4270,-8,-4,892,2045,2107,2369,2611,2319,2122,2104,2186
565844,-43476,-15628,-5691,27077,0,0,-22,-8,-3,58,-45,-4251,10,-1,892,2045,2107,2370,2611,2321,2121,2103,2183
566845,-43468,-15632,-5626,27142,0,0,-21,-7,-3,73,-9,-4244,-9,-5,892,2045,2107,2370,2611,2321,2121,2103,2183
567846,-43488,-15632,-5561,27207,0,0,-18,-8,-3,61,-29,-4281,0,-6,892,2045,2107,2370,2611,2321,2121,2103,2183
568847,-43480,-15640,-5496,27272,0,0,-20,-9,-2,61,-24,-4249,9,7,892,2045,2107,2370,2611,2321,2121,2103,2183
569848,-43472,-15620,-5431,27337,0,0,-21,-8,-2,77,-25,-4232,-7,5,892,2045,2107,2370,2611,2321,2121,2103,2183
570849,-43468,-15636,-5366,27402,0,0,-21,-6,-2,50,-20,-4244,7,4,892,2045,2107,2370,2611,2320,2122,2104,2184
571850,-43464,-15636,-5301,27467,0,0,-19,-8,-1,52,-47,-4259,6,7,892,2045,2107,2370,2611,2320,2122,2104,2184
572851,-43468,-15636,-5236,27532,0,0,-19,-7,0,41,-79,-4273,-9,2,892,2045,2107,2370,2611,2320,2122,2104,2184
573852,-43468,-15628,-5171,27597,0,0,-20,-6,-2,76,-63,-4262,-3,-4,892,2045,2107,2370,2611,2320,2122,2104,2184
574853,-43476,-15632,-5106,27662,0,0,-18,-9,-2,61,-62,-4249,10,6,892,2045,2107,2370,2611,2320,2122,2104,2184
575854,-43484,-15636,-5041,27727,0,0,-18,-10,-1,82,-56,-4270,-8,-5,892,2045,2107,2370,2611,2320,2122,2104,2184
576855,-43476,-15636,-4976,27792,0,0,-21,-6,0,63,-56,-4258,-4,-5,892,2043,2103,2367,2611,2319,2122,2104,2185
577856,-43484,-15620,-4911,27857,0,0,-21,-6,-2,66,-57,-4234,10,6,892,2043,2103,2367,2611,2319,2122,2104,2185
578857,-43476,-15632,-4846,27922,0,0,-17,-8,-3,60,-45,-4262,4,-3,892,2043,2103,2367,2611,2319,2122,2104,2185
579858,-43472,-15624,-4781,27987,0,0,-20,-9,-3,48,-56,-4240,-7,5,892,2043,2103,2367,2611,2319,2122,2104,2185
580859,-43484,-15640,-4716,28052,0,0,-21,-7,-2,61,-58,-4246,-3,4,891,2043,2103,2367,2611,2319,2122,2104,2185
581860,-43464,-15636,-4651,28117,0,0,-23,-8,0,72,-65,-4286,3,-5,892,2045,2106,2369,2612,2316,2119,2101,2182
582861,-43480,-15648,-4586,28182,0,0,-24,-8,-2,63,-73,-4275,-9,7,892,2045,2106,2369,2612,2316,2119,2101,2182
583862,-43476,-15636,-4521,28247,0,0,-20,-7,-3,62,-55,-4251,9,-6,892,2045,2106,2369,2612,2316,2119,2101,2182
584863,-43480,-15640,-4456,28312,0,0,-19,-9,-2,75,-50,-4237,3,5,892,2045,2106,2369,2612,2316,2119,2101,2182
585864,-43468,-15636,-4391,28377,0,0,-21,-9,-3,72,-53,-4280,-8,-3,892,2045,2106,2369,2612,2316,2119,2101,2182
586865,-43472,-15628,-4326,28442,0,0,-22,-7,-3,59,-79,-4298,1,-3,892,2045,2106,2369,2612,2316,2119,2101,2182
587866,-43476,-15636,-4261,28507,0,0,-23,-6,-4,54,-66,-4273,9,-6,892,2047,2108,2372,2614,2320,2120,2102,2184
588867,-43484,-15620,-4196,28572,0,0,-24,-7,1,61,-86,-4281,10,-5,892,2047,2108,2372,2614,2320,2120,2102,2184
589868,-43480,-15632,-4131,28637,0,0,-25,-7,2,57,-62,-4254,4,7,892,2047,2108,2372,2614,2320,2120,2102,2184
590869,-43472,-15636,-4066,28702,0,0,-27,-8,1,48,-64,-4240,-9,4,892,2047,2108,2372,2614,2320,2120,2102,2184
591870,-43476,-15620,-4001,28767,0,0,-27,-8,0,60,-66,-4259,1,5,892,2047,2108,2372,2614,2320,2120,2102,2184
592871,-43468,-15624,-3936,28832,0,0,-27,-11,2,62,-49,-4240,9,-4,892,2045,2107,2369,2612,2317,2120,2101,2183
593872,-43472,-15632,-3871,28897,0,0,-25,-10,2,60,-30,-4250,4,-1,892,2045,2107,2369,2612,2317,2120,2101,2183
594873,-43484,-15632,-3806,28962,0,0,-25,-11,-1,60,-42,-4250,-8,-1,892,2045,2107,2369,2612,2317,2120,2101,2183
595874,-43476,-15632,-3741,29027,0,0,-26,-11,-1,40,-58,-4277,6,8,892,2045,2107,2369,2612,2317,2120,2101,2183
596875,-43480,-15636,-3676,29092,0,0,-25,-10,1,58,-80,-4297,9,-3,892,2045,2107,2369,2612,2317,2120,2101,2183
597876,-43484,-15628,-3611,29157,0,0,-24,-11,-1,65,-59,-4252,-7,-4,892,2045,2107,2369,2612,2317,2120,2101,2183
598877,-43480,-15640,-3546,29222,0,0,-27,-12,-1,59,-55,-4243,10,-2,892,2047,2108,2372,2612,2320,2121,2104,2184
599878,-43484,-15640,-3481,29287,0,0,-27,-10,2,85,-79,-4256,10,8,892,2047,2108,2372,2612,2320,2121,2104,2184
600879,-43484,-15636,-3416,29352,0,0,-26,-12,-2,54,-54,-4290,3,-3,892,2047,2108,2372,2612,2320,2121,2104,2184
601880,-43468,-15620,-3351,29417,0,0,-25,-14,-3,55,-60,-4293,-9,-5,892,2047,2108,2372,2612,2320,2121,2104,2184
602881,-43472,-15628,-3286,29482,0,0,-23,-12,1,72,-57,-4283,-4,0,892,2047,2108,2372,2612,2320,2121,2104,2184
603882,-43476,-15640,-3221,29547,0,0,-22,-12,1,55,-61,-4278,11,8,892,2046,2108,2371,2612,2320,2122,2104,2185
604883,-43476,-15628,-3156,29612,0,0,-26,-13,0,60,-52,-4275,-9,-5,892,2046,2108,2371,2612,2320,2122,2104,2185
605884,-43488,-15636,-3091,29677,0,0,-27,-13,-2,75,-54,-4296,-6,-1,892,2046,2108,2371,2612,2320,2122,2104,2185
606885,-43472,-15628,-3026,29742,0,0,-29,-13,-4,82,-52,-4299,10,-6,892,2046,2108,2371,2612,2320,2122,2104,2185
607886,-43484,-15636,-2961,29807,0,0,-26,-13,-1,80,-59,-4288,-5,-6,892,2046,2108,2371,2612,2320,2122,2104,2185
608887,-43476,-15640,-2896,29872,0,0,-22,-15,0,58,-42,-4288,-6,0,892,2046,2108,2371,2612,2320,2122,2104,2185
609888,-43476,-15624,-2831,29937,0,0,-23,-15,-3,51,-62,-4293,10,-6,892,2045,2107,2370,2613,2321,2122,2104,2185
610889,-43476,-15624,-2766,30002,0,0,-25,-13,-3,70,-48,-4301,-3,0,892,2045,2107,2370,2613,2321,2122,2104,2185
611890,-43468,-15620,-2701,30067,0,0,-25,-15,-2,45,-54,-4262,-9,7,892,2045,2107,2370,2613,2321,2122,2104,2185
612891,-43476,-15640,-2636,30132,0,0,-24,-14,-1,82,-57,-4265,6,0,892,2045,2107,2370,2613,2321,2122,2104,2185
613892,-43472,-15640,-2571,30197,0,0,-23,-15,-2,68,-49,-4272,9,7,892,2045,2107,2370,2613,2321,2122,2104,2185
614893,-43480,-15632,-2506,30262,0,0,-21,-16,-3,61,-55,-4269,-4,4,891,2046,2106,2369,2612,2319,2121,2104,2185
615894,-43492,-15628,-2441,30327,0,0,-21,-17,-4,61,-65,-4293,-7,8,892,2046,2106,2369,2612,2319,2121,2104,2185
616895,-43472,-15632,-2376,30392,0,0,-21,-14,-1,64,-56,-4235,10,3,892,2046,2106,2369,2612,2319,2121,2104,2185
617896,-43468,-15640,-2311,30457,0,0,-24,-15,-2,48,-39,-4209,3,-4,892,2046,2106,2369,2612,2319,2121,2104,2185
618897,-43480,-15636,-2246,30522,0,0,-24,-15,-3,67,-66,-4252,-6,-2,892,2046,2106,2369,2612,2319,2121,2104,2185
619898,-43468,-15620,-2181,30587,0,0,-23,-16,-3,61,-46,-4259,9,-5,892,2046,2106,2369,2612,2319,2121,2104,2185
620899,-43476,-15632,-2116,30652,0,0,-25,-14,-4,98,-58,-4249,3,-5,892,2045,2107,2369,2610,2318,2120,2102,2184
621900,-43484,-15644,-2051,30717,0,0,-23,-13,-4,83,-68,-4216,-7,-2,892,2045,2107,2369,2610,2318,2120,2102,2184
622901,-43484,-15652,-1986,30782,0,0,-20,-13,-2,37,-48,-4266,10,8,892,2045,2107,2369,2610,2318,2120,2102,2184
623902,-43480,-15644,-1921,30847,0,0,-21,-13,0,45,-54,-4263,-1,3,892,2045,2107,2369,2610,2318,2120,2102,2184
624903,-43472,-15636,-1856,30912,0,0,-23,-14,1,62,-36,-4243,-1,-6,892,2045,2107,2369,2610,2318,2120,2102,2184
625904,-43480,-15640,-1791,30977,0,0,-22,-13,-1,45,-32,-4246,9,-5,892,2044,2106,2369,2610,2318,2120,2099,2182
626905,-43476,-15640,-1726,31042,0,0,-21,-12,-1,45,-47,-4254,-5,0,892,2044,2106,2369,2610,2318,2120,2099,2182
627906,-43480,-15636,-1661,31107,0,0,-24,-10,-1,46,-80,-4274,-4,8,892,2044,2106,2369,2610,2318,2120,2099,2182
628907,-43480,-15636,-1596,31172,0,0,-24,-8,0,58,-67,-4267,9,7,892,2044,2106,2369,2610,2318,2120,2099,2182
629910,-43484,-15640,-1531,31237,0,0,-24,-7,0,49,-70,-4258,3,5,892,2044,2106,2369,2610,2318,2120,2099,2182
630909,-43468,-15636,-1466,31302,0,0,-24,-6,0,74,-70,-4240,-9,-4,892,2044,2106,2369,2610,2318,2120,2099,2182
631910,-43484,-15632,-1401,31367,0,0,-25,-7,0,89,-61,-4274,3,-4,891,2044,2107,2370,2611,2318,2120,2102,2183
632911,-43480,-15648,-1336,31432,0,0,-26,-8,0,75,-55,-4245,10,-6,892,2044,2107,2370,2611,2318,2120,2102,2183
633912,-43472,-15628,-1271,31497,0,0,-23,-9,-1,51,-52,-4265,3,3,892,2044,2107,2370,2611,2318,2120,2102,2183
634913,-43480,-15636,-1206,31562,0,0,-23,-9,0,35,-46,-4277,-8,8,892,2044,2107,2370,2611,2318,2120,2102,2183
635914,-43460,-15636,-1141,31627,0,0,-23,-9,0,36,-52,-4262,-1,3,892,2044,2107,2370,2611,2318,2120,2102,2183
636915,-43464,-15652,-1076,31692,0,0,-23,-9,0,70,-38,-4244,10,-6,892,2043,2103,2369,2611,2322,2122,2104,2186
637916,-43484,-15640,-1011,31757,0,0,-22,-9,-2,74,-48,-4272,-6,-4,892,2043,2103,2369,2611,2322,2122,2104,2186
638917,-43468,-15628,-946,31822,0,0,-23,-8,1,68,-55,-4289,-8,6,892,2043,2103,2369,2611,2322,2122,2104,2186
639918,-43472,-15632,-881,31887,0,0,-26,-8,2,62,-82,-4294,6,-1,892,2043,2103,2369,2611,2322,2122,2104,2186
640919,-43480,-15628,-816,31952,0,0,-23,-8,0,47,-71,-4265,6,-6,892,2043,2103,2369,2611,2322,2122,2104,2186
641920,-43476,-15640,-751,32017,0,0,-23,-8,-1,73,-60,-4246,-7,-5,892,2043,2103,2369,2611,2322,2122,2104,2186
642921,-43480,-15620,-686,32082,0,0,-23,-5,-2,68,-41,-4268,-7,8,892,2046,2108,2370,2610,2319,2121,2103,2185
643922,-43460,-15636,-621,32147,0,0,-22,-4,-2,69,-42,-4292,8,1,892,2046,2108,2370,2610,2319,2121,2103,2185
644923,-43476,-15632,-556,32212,0,0,-24,-4,-2,45,-56,-4307,7,-6,892,2046,2108,2370,2610,2319,2121,2103,2185
645924,-43484,-15636,-491,32277,0,0,-25,-6,-3,40,-47,-4258,-8,6,892,2046,2108,2370,2610,2319,2121,2103,2185
646925,-43484,-15636,-426,32342,0,0,-24,-5,-1,63,-41,-4256,8,8,892,2046,2108,2370,2610,2319,2121,2103,2185
647926,-43468,-15636,-361,32407,0,0,-23,-3,0,61,-26,-4311,10,3,892,2046,2108,2370,2612,2320,2122,2103,2185
648927,-43472,-15640,-296,32472,0,0,-21,-4,-1,59,-32,-4275,-8,-3,892,2046,2108,2370,2612,2320,2122,2103,2185
649928,-43476,-15644,-231,32537,0,0,-20,-6,-3,33,-44,-4245,-8,6,891,2046,2108,2370,2612,2320,2122,2103,2185
650929,-43468,-15644,-166,32602,0,0,-21,-9,-2,64,-57,-4262,-5,-2,892,2046,2108,2370,2612,2320,2122,2103,2185
651930,-43464,-15616,-101,32667,0,0,-21,-9,-1,58,-53,-4259,9,-1,892,2046,2108,2370,2612,2320,2122,2103,2185
652931,-43476,-15632,-36,32732,0,0,-21,-9,-1,92,-62,-4218,2,7,892,2046,2108,2370,2612,2320,2122,2103,2185
653932,-43468,-15624,29,32797,0,0,-19,-10,-2,69,-76,-4281,-6,-1,892,2045,2107,2369,2611,2319,2120,2102,2184
654933,-43472,-15636,94,32862,0,0,-24,-10,-2,51,-45,-4281,-3,8,892,2045,2107,2369,2611,2319,2120,2102,2184
655934,-43468,-15636,159,32927,0,0,-25,-9,-3,52,-34,-4297,10,8,892,2045,2107,2369,2611,2319,2120,2102,2184
656935,-43488,-15636,224,32992,0,0,-22,-11,-3,64,-30,-4309,7,8,892,2045,2107,2369,2611,2319,2120,2102,2184
657936,-43484,-15628,289,33057,0,0,-19,-12,-3,74,-33,-4248,-7,-4,892,2045,2107,2369,2611,2319,2120,2102,2184
658937,-43476,-15636,354,33122,0,0,-21,-13,-4,60,-43,-4229,-1,1,892,2043,2106,2368,2611,2318,2120,2101,2182
659938,-43464,-15636,419,33187,0,0,-27,-12,-5,54,-46,-4265,7,8,892,2043,2106,2368,2611,2318,2120,2101,2182
660939,-43480,-15632,484,33252,0,0,-27,-11,-3,48,-34,-4250,7,6,892,2043,2106,2368,2611,2318,2120,2101,2182
661940,-43468,-15620,549,33317,0,0,-25,-13,-4,93,-51,-4204,-9,7,892,2043,2106,2368,2611,2318,2120,2101,2182
662941,-43476,-15624,614,33382,0,0,-21,-13,-4,78,-45,-4252,4,6,892,2043,2106,2368,2611,2318,2120,2101,2182
663942,-43476,-15628,679,33447,0,0,-21,-11,-3,75,-55,-4243,10,4,892,2043,2106,2368,2611,2318,2120,2101,2182
664943,-43468,-15652,744,33512,0,0,-21,-14,-2,68,-48,-4246,3,8,892,2044,2105,2368,2610,2316,2119,2101,2183
665944,-43480,-15632,809,33577,0,0,-21,-13,-1,39,-67,-4243,-9,1,891,2044,2105,2368,2610,2316,2119,2101,2183
666945,-43476,-15636,874,33642,0,0,-23,-11,-4,54,-40,-4243,5,-5,892,2044,2105,2368,2610,2316,2119,2101,2183
667946,-43480,-15636,939,33707,0,0,-25,-13,-5,79,-49,-4232,8,-6,892,2044,2105,2368,2610,2316,2119,2101,2183
668947,-43484,-15632,1004,33772,0,0,-24,-14,-1,63,-63,-4187,0,-1,892,2044,2105,2368,2610,2316,2119,2101,2183
669948,-43472,-15628,1069,33837,0,0,-24,-14,-1,61,-73,-4236,-9,-4,893,2044,2106,2369,2610,2317,2120,2102,2182
670949,-43476,-15628,1134,33902,0,0,-25,-13,1,49,-56,-4224,11,-5,892,2044,2106,2369,2610,2317,2120,2102,2182
671950,-43480,-15640,1199,33967,0,0,-25,-12,1,61,-36,-4251,3,-3,892,2044,2106,2369,2610,2317,2120,2102,2182
672951,-43472,-15636,1264,34032,0,0,-24,-14,1,73,-40,-4286,-5,-4,892,2044,2106,2369,2610,2317,2120,2102,2182
673952,-43484,-15636,1329,34097,0,0,-24,-15,-1,74,-62,-4245,9,7,892,2044,2106,2369,2610,2317,2120,2102,2182
674953,-43468,-15632,1394,34162,0,0,-26,-15,-2,67,-79,-4281,-6,7,892,2044,2106,2369,2610,2317,2120,2102,2182
675954,-43476,-15640,1459,34227,0,0,-26,-15,0,63,-53,-4272,2,-5,892,2043,2103,2370,2614,2320,2122,2104,2184
676955,-43484,-15632,1524,34292,0,0,-24,-11,0,32,-62,-4275,1,-2,892,2043,2103,2370,2614,2320,2122,2104,2184
677956,-43476,-15636,1589,34357,0,0,-24,-10,0,41,-77,-4287,-9,-6,892,2043,2103,2370,2614,2320,2122,2104,2184
678957,-43472,-15648,1654,34422,0,0,-26,-12,-3,80,-26,-4317,4,-6,892,2043,2103,2370,2614,2320,2122,2104,2184
679959,-43484,-15636,1719,34487,0,0,-25,-14,-3,92,-49,-4287,8,-2,892,2043,2103,2370,2614,2320,2122,2104,2184
680959,-43460,-15636,1784,34552,0,0,-22,-15,0,77,-45,-4257,-6,8,892,2046,2108,2371,2612,2319,2122,2103,2185
681960,-43476,-15620,1849,34617,0,0,-23,-13,2,68,-39,-4285,-3,7,892,2046,2108,2371,2612,2319,2122,2103,2185
682961,-43476,-15636,1914,34682,0,0,-28,-12,1,40,-35,-4256,9,-5,891,2046,2108,2371,2612,2319,2122,2103,2185
683962,-43468,-15632,1979,34747,0,0,-29,-16,1,41,-49,-4259,4,3,891,2046,2108,2371,2612,2319,2122,2103,2185
684963,-43476,-15640,2044,34812,0,0,-26,-13,0,45,-55,-4270,-8,0,892,2046,2108,2371,2612,2319,2122,2103,2185
685964,-43492,-15640,2109,34877,0,0,-26,-12,2,47,-48,-4275,-3,8,892,2046,2108,2371,2612,2319,2122,2103,2185
686965,-43480,-15640,2174,34942,0,0,-27,-11,1,43,-45,-4259,4,2,892,2047,2108,2371,2613,2320,2122,2103,2186
687966,-43472,-15636,2239,35007,0,0,-27,-11,1,55,-43,-4265,5,5,892,2047,2108,2371,2613,2320,2122,2103,2186
688967,-43476,-15636,2304,35072,0,0,-27,-13,0,57,-59,-4264,-9,8,892,2047,2108,2371,2613,2320,2122,2103,2186
689968,-43480,-15640,2369,35137,0,0,-24,-14,2,61,-57,-4270,-1,3,892,2047,2108,2371,2613,2320,2122,2103,2186
690969,-43468,-15628,2434,35202,0,0,-25,-13,0,63,-43,-4271,9,-1,892,2047,2108,2371,2613,2320,2122,2103,2186
691970,-43480,-15640,2499,35267,0,0,-25,-12,-2,67,-43,-4279,-2,-6,892,2046,2108,2371,2612,2320,2123,2105,2185
692971,-43472,-15628,2564,35332,0,0,-24,-11,-3,51,-50,-4271,-9,-1,892,2046,2108,2371,2612,2320,2123,2105,2185
693972,-43476,-15640,2629,35397,0,0,-24,-12,0,50,-28,-4258,-1,2,892,2046,2108,2371,2612,2320,2123,2105,2185
694973,-43476,-15644,2694,35462,0,0,-25,-11,-1,52,-35,-4247,10,-5,892,2046,2108,2371,2612,2320,2123,2105,2185
695974,-43476,-15632,2759,35527,0,0,-24,-10,-1,53,-56,-4287,4,-2,892,2046,2108,2371,2612,2320,2123,2105,2185
696975,-43480,-15632,2824,35592,0,0,-24,-10,0,62,-51,-4289,-8,-4,892,2046,2108,2371,2612,2320,2123,2105,2185
697976,-43476,-15636,2889,35657,0,0,-24,-8,-3,67,-60,-4242,-5,-6,892,2045,2107,2370,2610,2320,2121,2103,2184
698977,-43476,-15636,2954,35722,0,0,-23,-8,-4,65,-64,-4234,0,1,892,2045,2107,2370,2610,2320,2121,2103,2184
699978,-43472,-15632,3019,35787,0,0,-20,-8,-4,75,-66,-4245,1,-6,892,2045,2107,2370,2610,2320,2121,2103,2184
700979,-43484,-15640,3218,35986,0,0,-20,-7,-3,83,-63,-4285,-8,-4,891,2045,2107,2370,2610,2320,2121,2103,2184
701980,-43480,-15640,3283,36051,0,0,-22,-8,0,64,-58,-4227,4,-6,892,2045,2107,2370,2610,2320,2121,2103,2184
702981,-43464,-15640,3348,36116,0,0,-24,-10,0,79,-57,-4233,6,2,892,2043,2103,2367,2607,2318,2122,2104,2185
703982,-43480,-15628,3413,36181,0,0,-22,-8,-3,68,-59,-4230,-9,-4,892,2043,2103,2367,2607,2318,2122,2104,2185
704983,-43472,-15628,3478,36246,0,0,-21,-8,-1,63,-44,-4263,-4,-5,892,2043,2103,2367,2607,2318,2122,2104,2185
705984,-43476,-15636,3543,36311,0,0,-21,-9,3,58,-43,-4246,9,0,892,2043,2103,2367,2607,2318,2122,2104,2185
706985,-43488,-15632,3608,36376,0,0,-21,-8,3,56,-57,-4217,-3,7,892,2043,2103,2367,2607,2318,2122,2104,2185
707986,-43468,-15632,3673,36441,0,0,-21,-9,0,50,-56,-4209,-8,8,892,2043,2103,2367,2607,2318,2122,2104,2185
708987,-43480,-15636,3738,36506,0,0,-21,-9,-2,58,-59,-4249,6,-4,892,2044,2105,2368,2609,2317,2119,2101,2184
709988,-43484,-15636,3803,36571,0,0,-21,-9,-3,78,-41,-4254,2,3,892,2044,2105,2368,2609,2317,2119,2101,2184
710989,-43476,-15628,3868,36636,0,0,-23,-8,-2,62,-64,-4270,-8,1,892,2044,2105,2368,2609,2317,2119,2101,2184
711990,-43464,-15636,3933,36701,0,0,-21,-8,-2,68,-50,-4300,-2,0,892,2044,2105,2368,2609,2317,2119,2101,2184
712991,-43468,-15632,3998,36766,0,0,-19,-7,-4,54,-24,-4261,10,8,892,2044,2105,2368,2609,2317,2119,2101,2184
713992,-43468,-15624,4063,36831,0,0,-18,-5,-3,54,-35,-4249,2,-6,892,2044,2106,2369,2612,2320,2120,2101,2183
714993,-43484,-15636,4128,36896,0,0,-17,-4,-1,63,-62,-4261,-9,-4,892,2044,2106,2369,2612,2320,2120,2101,2183
715994,-43468,-15636,4193,36961,0,0,-18,-5,-2,66,-56,-4243,9,8,892,2044,2106,2369,2612,2320,2120,2101,2183
716995,-43472,-15628,4258,37026,0,0,-19,-6,-3,53,-69,-4251,3,8,891,2044,2106,2369,2612,2320,2120,2101,2183
717996,-43472,-15640,4323,37091,0,0,-20,-7,-2,77,-73,-4237,-7,-3,891,2044,2106,2369,2612,2320,2120,2101,2183
718997,-43468,-15624,4388,37156,0,0,-21,-9,0,77,-68,-4240,10,-1,892,2044,2106,2369,2612,2320,2120,2101,2183
719998,-43484,-15632,4453,37221,0,0,-21,-8,0,91,-54,-4251,-5,-5,892,2045,2107,2370,2611,2319,2121,2102,2184
720999,-43476,-15636,4518,37286,0,0,-21,-6,-3,75,-32,-4278,4,-4,892,2045,2107,2370,2611,2319,2121,2102,2184
722000,-43484,-15632,4583,37351,0,0,-22,-6,-2,86,-34,-4284,4,7,892,2045,2107,2370,2611,2319,2121,2102,2184
723001,-43464,-15636,4648,37416,0,0,-22,-8,0,79,-38,-4281,-9,-2,892,2045,2107,2370,2611,2319,2121,2102,2184
724002,-43468,-15632,4713,37481,0,0,-23,-8,-1,56,-49,-4254,6,6,892,2045,2107,2370,2611,2319,2121,2102,2184
725003,-43476,-15628,4778,37546,0,0,-20,-7,-2,96,-57,-4216,-3,-5,892,2046,2109,2371,2613,2319,2122,2104,2185
726004,-43472,-15644,4843,37611,0,0,-19,-9,-3,76,-59,-4223,-8,-1,892,2046,2109,2371,2613,2319,2122,2104,2185
727005,-43484,-15628,4908,37676,0,0,-20,-9,0,81,-58,-4232,1,-6,892,2046,2109,2371,2613,2319,2122,2104,2185
728006,-43476,-15632,4973,37741,0,0,-22,-6,-1,55,-57,-4262,8,-6,892,2046,2109,2371,2613,2319,2122,2104,2185
729007,-43472,-15632,5038,37806,0,0,-25,-6,-2,71,-47,-4265,3,-1,892,2046,2109,2371,2613,2319,2122,2104,2185
730008,-43468,-15640,5103,37871,0,0,-21,-8,-1,62,-60,-4262,-8,8,892,2046,2109,2371,2613,2319,2122,2104,2185
731009,-43472,-15644,5168,37936,0,0,-20,-11,-1,62,-41,-4256,-2,3,892,2047,2109,2373,2615,2317,2119,2101,2188
732010,-43476,-15636,5233,38001,0,0,-23,-12,-1,60,-73,-4266,9,-5,892,2047,2109,2373,2615,2317,2119,2101,2188
733011,-43480,-15636,5298,38066,0,0,-24,-11,1,61,-57,-4285,-3,-5,892,2047,2109,2373,2615,2317,2119,2101,2188
734012,-43468,-15640,5363,38131,0,0,-24,-11,1,62,-47,-4281,-5,7,891,2047,2109,2373,2615,2317,2119,2101,2188
735013,-43484,-15644,5428,38196,0,0,-21,-11,-1,65,-70,-4270,7,6,891,2047,2109,2373,2615,2317,2119,2101,2188
736014,-43484,-15628,5493,38261,0,0,-22,-9,-2,60,-63,-4284,6,0,892,2048,2109,2372,2612,2318,2121,2102,2182
737015,-43468,-15644,5558,38326,0,0,-27,-8,0,74,-66,-4282,-8,-5,892,2048,2109,2372,2612,2318,2121,2102,2182
738016,-43464,-15640,5623,38391,0,0,-28,-9,0,62,-60,-4270,0,-3,892,2048,2109,2372,2612,2318,2121,2102,2182
739017,-43480,-15636,5688,38456,0,0,-27,-11,1,67,-53,-4269,9,-5,892,2048,2109,2372,2612,2318,2121,2102,2182
740018,-43476,-15628,5753,38521,0,0,-26,-12,-1,85,-71,-4274,-6,-5,892,2048,2109,2372,2612,2318,2121,2102,2182
741019,-43480,-15640,5818,38586,0,0,-28,-13,-3,77,-75,-4263,-9,-4,892,2048,2109,2372,2612,2318,2121,2102,2182
742020,-43472,-15636,5883,38651,0,0,-26,-13,-3,50,-38,-4253,5,-4,892,2043,2107,2370,2612,2320,2122,2104,2184
743021,-43472,-15628,5948,38716,0,0,-27,-12,-2,46,-55,-4258,6,0,892,2043,2107,2370,2612,2320,2122,2104,2184
744022,-43476,-15636,6013,38781,0,0,-26,-10,-2,32,-52,-4232,-4,-4,892,2043,2107,2370,2612,2320,2122,2104,2184
745023,-43476,-15632,6078,38846,0,0,-25,-13,-3,64,-64,-4242,-5,-6,892,2043,2107,2370,2612,2320,2122,2104,2184
746024,-43472,-15624,6143,38911,0,0,-25,-16,-2,75,-55,-4264,7,-5,892,2043,2107,2370,2612,2320,2122,2104,2184
747025,-43476,-15632,6208,38976,0,0,-26,-15,-3,61,-47,-4224,10,2,892,2044,2104,2368,2609,2317,2119,2101,2183
748026,-43476,-15636,6273,39041,0,0,-27,-17,-3,67,-51,-4211,-5,6,892,2044,2104,2368,2609,2317,2119,2101,2183
749027,-43484,-15636,6338,39106,0,0,-25,-16,-4,71,-59,-4278,-3,-1,892,2044,2104,2368,2609,2317,2119,2101,2183
750028,-43468,-15640,6403,39171,0,0,-25,-12,-2,61,-58,-4292,5,1,892,2044,2104,2368,2609,2317,2119,2101,2183
751029,-43476,-15636,6468,39236,0,0,-26,-11,-1,62,-62,-4243,3,6,891,2044,2104,2368,2609,2317,2119,2101,2183
752030,-43476,-15636,6533,39301,0,0,-26,-13,1,70,-34,-4235,-8,8,891,2044,2104,2368,2609,2317,2119,2101,2183
753031,-43472,-15636,6598,39366,0,0,-25,-14,-1,49,-31,-4236,-2,-1,892,2044,2108,2368,2609,2320,2120,2101,2183
754032,-43488,-15636,6663,39431,0,0,-23,-15,-2,43,-51,-4230,5,-6,892,2044,2108,2368,2609,2320,2120,2101,2183
755033,-43484,-15636,6728,39496,0,0,-24,-16,-1,67,-49,-4248,-8,0,892,2044,2108,2368,2609,2320,2120,2101,2183
756034,-43492,-15624,6793,39561,0,0,-26,-16,-1,59,-24,-4247,1,-4,892,2044,2108,2368,2609,2320,2120,2101,2183
757035,-43468,-15632,6858,39626,0,0,-28,-16,0,51,-54,-4239,8,-3,892,2044,2108,2368,2609,2320,2120,2101,2183
758036,-43480,-15612,6923,39691,0,0,-27,-17,-1,33,-57,-4230,-8,8,892,2043,2106,2369,2611,2319,2121,2103,2184
759037,-43484,-15640,6988,39756,0,0,-23,-17,-4,48,-48,-4243,-3,6,892,2043,2106,2369,2611,2319,2121,2103,2184
760038,-43472,-15640,7053,39821,0,0,-21,-14,-3,55,-52,-4265,10,6,892,2043,2106,2369,2611,2319,2121,2103,2184
761039,-43468,-15636,7118,39886,0,0,-23,-15,-3,67,-39,-4289,3,0,892,2043,2106,2369,2611,2319,2121,2103,2184
762040,-43480,-15640,7183,39951,0,0,-23,-15,-3,53,-49,-4269,-6,-5,892,2043,2106,2369,2611,2319,2121,2103,2184
763041,-43480,-15640,7248,40016,0,0,-24,-15,0,49,-34,-4230,-8,-5,892,2043,2106,2369,2611,2319,2121,2103,2184
764042,-43472,-15628,7313,40081,0,0,-24,-11,1,33,-59,-4229,7,5,892,2044,2107,2370,2611,2319,2122,2103,2186
765043,-43472,-15644,7378,40146,0,0,-25,-10,-3,69,-58,-4227,10,-4,892,2044,2107,2370,2611,2319,2122,2103,2186
766044,-43476,-15636,7443,40211,0,0,-26,-11,-4,64,-57,-4288,-2,2,892,2044,2107,2370,2611,2319,2122,2103,2186
767045,-43472,-15644,7508,40276,0,0,-26,-14,-1,62,-64,-4269,-7,-6,892,2044,2107,2370,2611,2319,2122,2103,2186
768046,-43480,-15648,7573,40341,0,0,-25,-12,-1,49,-43,-4253,9,5,891,2044,2107,2370,2611,2319,2122,2103,2186
769047,-43472,-15636,7638,40406,0,0,-24,-13,-2,60,-45,-4247,4,8,891,2046,2108,2371,2612,2321,2123,2104,2183
770048,-43476,-15636,7703,40471,0,0,-24,-12,-3,80,-46,-4258,-8,-4,892,2046,2108,2371,2612,2321,2123,2104,2183
771049,-43472,-15644,7768,40536,0,0,-23,-9,-4,75,-57,-4264,7,6,892,2046,2108,2371,2612,2321,2123,2104,2183
772050,-43476,-15636,7833,40601,0,0,-25,-9,-2,35,-53,-4267,2,8,892,2046,2108,2371,2612,2321,2123,2104,2183
773051,-43476,-15640,7898,40666,0,0,-23,-9,-2,46,-47,-4253,-5,1,892,2046,2108,2371,2612,2321,2123,2104,2183
774052,-43484,-15632,7963,40731,0,0,-23,-12,-3,62,-43,-4260,7,8,892,2046,2108,2371,2612,2321,2123,2104,2183
775053,-43480,-15644,8028,40796,0,0,-21,-11,-5,52,-48,-4261,5,-3,892,2045,2108,2372,2612,2320,2121,2102,2184
776054,-43480,-15632,8093,40861,0,0,-21,-8,-2,43,-64,-4247,-9,0,892,2045,2108,2372,2612,2320,2121,2102,2184
777055,-43468,-15632,8158,40926,0,0,-22,-7,0,47,-82,-4280,-7,8,892,2045,2108,2372,2612,2320,2121,2102,2184
778056,-43476,-15644,8223,40991,0,0,-23,-7,-3,40,-68,-4234,9,7,892,2045,2108,2372,2612,2320,2121,2102,2184
779057,-43464,-15636,8288,41056,0,0,-25,-6,-2,58,-65,-4283,-3,8,892,2045,2108,2372,2612,2320,2121,2102,2184
780058,-43468,-15620,8353,41121,0,0,-25,-6,-2,59,-87,-4302,-8,4,892,2045,2108,2372,2614,2320,2122,2104,2184
781059,-43472,-15640,8418,41186,0,0,-22,-5,-1,52,-72,-4254,8,8,892,2045,2108,2372,2614,2320,2122,2104,2184
782060,-43476,-15640,8483,41251,0,0,-22,-3,-2,75,-76,-4255,4,7,892,2045,2108,2372,2614,2320,2122,2104,2184
783061,-43472,-15628,8548,41316,0,0,-22,-3,1,48,-83,-4269,-5,4,892,2045,2108,2372,2614,2320,2122,2104,2184
784062,-43484,-15644,8613,41381,0,0,-22,-3,-1,63,-53,-4267,-7,7,892,2045,2108,2372,2614,2320,2122,2104,2184
785063,-43476,-15632,8678,41446,0,0,-21,-4,-2,65,-62,-4221,9,-1,891,2044,2107,2369,2611,2317,2119,2102,2183
786064,-43472,-15624,8743,41511,0,0,-23,-4,0,70,-60,-4213,9,2,891,2044,2107,2369,2611,2317,2119,2102,2183
787065,-43476,-15632,8808,41576,0,0,-24,-4,1,72,-49,-4272,-6,7,892,2044,2107,2369,2611,2317,2119,2102,2183
788066,-43484,-15648,8873,41641,0,0,-24,-4,0,69,-51,-4254,-7,1,892,2044,2107,2369,2611,2317,2119,2102,2183
789067,-43476,-15640,8938,41706,0,0,-24,-6,-2,76,-47,-4218,4,-4,892,2044,2107,2369,2611,2317,2119,2102,2183
790068,-43472,-15628,9003,41771,0,0,-22,-8,-1,78,-62,-4249,2,-1,892,2044,2107,2369,2611,2317,2119,2102,2183
791069,-43476,-15632,9068,41836,0,0,-21,-8,-1,83,-25,-4253,-6,5,892,2046,2108,2372,2610,2320,2121,2102,2184
792070,-43484,-15628,9133,41901,0,0,-21,-5,0,77,-40,-4244,10,8,892,2046,2108,2372,2610,2320,2121,2102,2184
793071,-43468,-15624,9198,41966,0,0,-22,-6,-2,67,-60,-4264,-6,-3,892,2046,2108,2372,2610,2320,2121,2102,2184
794072,-43480,-15640,9263,42031,0,0,-23,-6,-2,68,-49,-4257,-3,-4,892,2046,2108,2372,2610,2320,2121,2102,2184
795073,-43476,-15632,9328,42096,0,0,-25,-6,-2,46,-20,-4257,10,1,892,2046,2108,2372,2610,2320,2121,2102,2184
796074,-43480,-15632,9393,42161,0,0,-22,-5,0,44,-57,-4270,-8,8,892,2044,2106,2369,2611,2319,2122,2103,2184
797075,-43476,-15636,9458,42226,0,0,-24,-4,0,44,-34,-4239,5,7,892,2044,2106,2369,2611,2319,2122,2103,2184
798076,-43476,-15636,9523,42291,0,0,-24,-5,-3,99,-41,-4254,9,0,892,2044,2106,2369,2611,2319,2122,2103,2184
799077,-43472,-15628,9588,42356,0,0,-23,-5,-2,92,-60,-4250,-8,-6,892,2044,2106,2369,2611,2319,2122,2103,2184
800078,-43476,-15648,9653,42421,0,0,-21,-6,1,77,-66,-4239,4,-4,892,2044,2106,2369,2611,2319,2122,2103,2184
801079,-43472,-15644,9718,42486,0,0,-23,-9,-1,61,-59,-4233,9,5,892,2044,2106,2369,2611,2319,2122,2103,2184
802080,-43480,-15644,9783,42551,0,0,-24,-10,-2,50,-57,-4258,-8,8,892,2046,2108,2370,2612,2320,2122,2104,2184
803081,-43484,-15644,9848,42616,0,0,-24,-10,-4,67,-56,-4272,10,6,891,2046,2108,2370,2612,2320,2122,2104,2184
804082,-43472,-15624,9913,42681,0,0,-22,-9,-4,51,-49,-4265,2,2,892,2046,2108,2370,2612,2320,2122,2104,2184
805083,-43472,-15640,9978,42746,0,0,-22,-12,-5,76,-42,-4248,-6,-6,892,2046,2108,2370,2612,2320,2122,2104,2184
806084,-43476,-15652,10043,42811,0,0,-21,-13,-2,93,-57,-4276,10,-4,892,2046,2108,2370,2612,2320,2122,2104,2184
807085,-43476,-15628,10108,42876,0,0,-22,-13,-1,83,-61,-4255,-7,-1,892,2046,2107,2371,2613,2319,2122,2103,2184
808086,-43476,-15632,10173,42941,0,0,-22,-10,0,81,-49,-4249,6,7,892,2046,2107,2371,2613,2319,2122,2103,2184
809087,-43484,-15636,10238,43006,0,0,-22,-12,0,60,-50,-4255,-7,8,892,2046,2107,2371,2613,2319,2122,2103,2184
810088,-43480,-15632,10303,43071,0,0,-22,-13,-2,53,-53,-4270,0,7,892,2046,2107,2371,2613,2319,2122,2103,2184
811089,-43472,-15644,10368,43136,0,0,-21,-15,-1,58,-53,-4291,-3,-4,892,2046,2107,2371,2613,2319,2122,2103,2184
812090,-43480,-15644,10433,43201,0,0,-21,-16,-2,70,-57,-4265,6,-6,892,2046,2107,2371,2613,2319,2122,2103,2184
813091,-43472,-15636,10498,43266,0,0,-23,-13,-3,85,-25,-4250,-5,-6,892,2045,2107,2371,2612,2319,2121,2103,2184
814092,-43472,-15640,10563,43331,0,0,-24,-15,-2,71,-30,-4261,9,5,892,2045,2107,2371,2612,2319,2121,2103,2184
815093,-43480,-15636,10628,43396,0,0,-24,-14,-2,55,-59,-4271,-9,8,892,2045,2107,2371,2612,2319,2121,2103,2184
816094,-43480,-15632,10693,43461,0,0,-25,-16,-1,82,-85,-4246,7,-1,892,2045,2107,2371,2612,2319,2121,2103,2184
817095,-43480,-15636,10758,43526,0,0,-25,-16,0,44,-57,-4259,-9,-4,892,2045,2107,2371,2612,2319,2121,2103,2184
818096,-43484,-15628,10823,43591,0,0,-23,-15,-3,58,-51,-4267,10,5,892,2046,2108,2371,2613,2318,2121,2102,2181
819097,-43472,-15640,10888,43656,0,0,-24,-16,-3,53,-59,-4239,-7,8,891,2046,2108,2371,2613,2318,2121,2102,2181
820098,-43484,-15632,10953,43721,0,0,-26,-16,-3,41,-52,-4238,5,8,891,2046,2108,2371,2613,2318,2121,2102,2181
821099,-43476,-15636,11018,43786,0,0,-25,-15,-1,51,-49,-4249,-6,7,892,2046,2108,2371,2613,2318,2121,2102,2181
822100,-43480,-15628,11083,43851,0,0,-25,-13,-1,53,-61,-4267,9,5,892,2046,2108,2371,2613,2318,2121,2102,2181
823101,-43480,-15628,11148,43916,0,0,-25,-12,-3,88,-54,-4233,-4,-6,892,2046,2108,2371,2613,2318,2121,2102,2181
824102,-43476,-15628,11213,43981,0,0,-26,-13,-3,73,-36,-4254,0,-6,892,2045,2107,2370,2612,2318,2119,2100,2182
825103,-43476,-15636,11278,44046,0,0,-23,-15,-2,59,-51,-4233,0,-6,892,2045,2107,2370,2612,2318,2119,2100,2182
826104,-43476,-15652,11343,44111,0,0,-24,-17,-1,68,-75,-4258,-1,4,892,2045,2107,2370,2612,2318,2119,2100,2182
827105,-43468,-15628,11408,44176,0,0,-25,-17,0,65,-70,-4264,3,7,892,2045,2107,2370,2612,2318,2119,2100,2182
828106,-43476,-15644,11473,44241,0,0,-24,-15,-1,51,-48,-4265,7,8,892,2045,2107,2370,2612,2318,2119,2100,2182
829107,-43464,-15632,11538,44306,0,0,-25,-13,-3,55,-38,-4222,-8,-6,892,2043,2107,2371,2613,2319,2122,2104,2184
830108,-43468,-15640,11603,44371,0,0,-26,-14,-1,75,-42,-4232,10,-6,892,2043,2107,2371,2613,2319,2122,2104,2184
831109,-43480,-15632,11668,44436,0,0,-27,-15,0,82,-49,-4243,-2,-1,892,2043,2107,2371,2613,2319,2122,2104,2184
832110,-43480,-15632,11733,44501,0,0,-26,-14,1,53,-36,-4235,1,8,892,2043,2107,2371,2613,2319,2122,2104,2184
833111,-43484,-15640,11798,44566,0,0,-27,-12,-1,41,-59,-4258,8,6,892,2043,2107,2371,2613,2319,2122,2104,2184
834112,-43472,-15628,11863,44631,0,0,-26,-13,-2,61,-42,-4256,-9,3,892,2043,2107,2371,2613,2319,2122,2104,2184
835113,-43488,-15632,11928,44696,0,0,-26,-13,0,53,-47,-4245,10,-6,892,2043,2106,2369,2610,2318,2119,2102,2185
836114,-43480,-15628,11993,44761,0,0,-27,-12,1,65,-52,-4248,-3,-6,891,2043,2106,2369,2610,2318,2119,2102,2185
837115,-43468,-15636,12058,44826,0,0,-26,-13,0,71,-43,-4236,9,-4,891,2043,2106,2369,2610,2318,2119,2102,2185
838116,-43472,-15632,12123,44891,0,0,-28,-13,-2,75,-50,-4222,-7,8,892,2043,2106,2369,2610,2318,2119,2102,2185
839117,-43468,-15636,12188,44956,0,0,-27,-13,-2,69,-46,-4262,9,7,892,2043,2106,2369,2610,2318,2119,2102,2185
840118,-43472,-15620,12253,45021,0,0,-24,-14,-1,48,-39,-4244,-6,3,892,2044,2106,2369,2610,2320,2121,2102,2185
841119,-43480,-15636,12318,45086,0,0,-23,-11,1,34,-47,-4253,7,-6,892,2044,2106,2369,2610,2320,2121,2102,2185
842120,-43488,-15644,12383,45151,0,0,-24,-10,2,41,-60,-4278,-3,-6,892,2044,2106,2369,2610,2320,2121,2102,2185
843121,-43476,-15640,12448,45216,0,0,-25,-10,0,59,-36,-4265,-5,-3,892,2044,2106,2369,2610,2320,2121,2102,2185
844122,-43472,-15628,12513,45281,0,0,-24,-11,1,75,-48,-4248,9,8,892,2044,2106,2369,2610,2320,2121,2102,2185
845123,-43464,-15632,12578,45346,0,0,-25,-14,-1,71,-50,-4249,-8,7,892,2044,2106,2369,2610,2320,2121,2102,2185
846124,-43476,-15636,12643,45411,0,0,-24,-14,0,77,-48,-4291,-4,-4,892,2044,2107,2370,2610,2319,2122,2103,2183
847125,-43480,-15632,12708,45476,0,0,-24,-12,-2,75,-54,-4282,10,0,892,2044,2107,2370,2610,2319,2122,2103,2183
848126,-43480,-15640,12773,45541,0,0,-25,-11,-1,54,-41,-4272,-7,8,892,2044,2107,2370,2610,2319,2122,2103,2183
849127,-43480,-15636,12838,45606,0,0,-23,-11,0,46,-98,-4265,-3,4,892,2044,2107,2370,2610,2319,2122,2103,2183
850128,-43480,-15636,12903,45671,0,0,-22,-9,1,49,-60,-4260,6,3,892,2044,2107,2370,2610,2319,2122,2103,2183
851129,-43468,-15636,12968,45736,0,0,-23,-6,-1,75,-46,-4254,-5,6,892,2044,2107,2369,2611,2320,2121,2103,2184
852130,-43484,-15628,13033,45801,0,0,-22,-10,-3,79,-57,-4242,10,-2,892,2044,2107,2369,2611,2320,2121,2103,2184
853131,-43472,-15636,13098,45866,0,0,-22,-8,-5,55,-48,-4277,-4,-6,892,2044,2107,2369,2611,2320,2121,2103,2184
854132,-43476,-15644,13163,45931,0,0,-21,-11,-2,51,-43,-4258,6,4,891,2044,2107,2369,2611,2320,2121,2103,2184
855135,-43480,-15644,13228,45996,0,0,-22,-12,-1,69,-64,-4259,-9,-2,892,2044,2107,2369,2611,2320,2121,2103,2184
856134,-43484,-15624,13293,46061,0,0,-21,-8,-2,83,-49,-4291,10,-2,892,2044,2107,2369,2611,2320,2121,2103,2184
857135,-43468,-15628,13358,46126,0,0,-20,-5,-2,78,-74,-4251,-9,-5,892,2045,2107,2369,2607,2319,2122,2104,2188
858136,-43480,-15636,13423,46191,0,0,-18,-4,-2,82,-70,-4247,8,-5,892,2045,2107,2369,2607,2319,2122,2104,2188
859137,-43468,-15644,13488,46256,0,0,-18,-9,-2,79,-51,-4284,-9,-2,892,2045,2107,2369,2607,2319,2122,2104,2188
860138,-43484,-15628,13553,46321,0,0,-21,-9,0,55,-56,-4265,7,7,892,2045,2107,2369,2607,2319,2122,2104,2188
861139,-43476,-15644,13618,46386,0,0,-22,-6,-1,38,-75,-4254,4,-5,892,2045,2107,2369,2607,2319,2122,2104,2188
862140,-43472,-15636,13683,46451,0,0,-20,-5,-4,55,-46,-4256,0,-6,892,2045,2106,2370,2610,2318,2120,2102,2183
863141,-43484,-15640,13748,46516,0,0,-20,-6,-2,92,-69,-4257,4,-5,892,2045,2106,2370,2610,2318,2120,2102,2183
864142,-43476,-15632,13813,46581,0,0,-21,-7,0,78,-69,-4234,-7,-6,892,2045,2106,2370,2610,2318,2120,2102,2183
865143,-43472,-15624,13878,46646,0,0,-22,-4,-1,49,-43,-4259,10,-2,892,2045,2106,2370,2610,2318,2120,2102,2183
866144,-43480,-15628,13943,46711,0,0,-21,-3,-1,62,-38,-4238,-8,-4,892,2045,2106,2370,2610,2318,2120,2102,2183
867145,-43484,-15628,14008,46776,0,0,-19,-4,-1,59,-58,-4273,9,7,892,2045,2106,2370,2610,2318,2120,2102,2183
868146,-43468,-15632,14073,46841,0,0,-19,-6,-3,90,-50,-4286,-8,0,892,2046,2108,2372,2613,2320,2120,2102,2184
869147,-43484,-15640,14138,46906,0,0,-21,-5,-3,97,-63,-4275,10,8,892,2046,2108,2372,2613,2320,2120,2102,2184
870148,-43472,-15628,14203,46971,0,0,-23,-6,-2,70,-82,-4280,-7,7,891,2046,2108,2372,2613,2320,2120,2102,2184
871149,-43476,-15628,14268,47036,0,0,-22,-8,-1,52,-66,-4280,8,6,891,2046,2108,2372,2613,2320,2120,2102,2184
872150,-43472,-15636,14333,47101,0,0,-19,-9,-1,65,-60,-4279,-8,-4,892,2046,2108,2372,2613,2320,2120,2102,2184
873151,-43480,-15636,14398,47166,0,0,-20,-8,-2,47,-56,-4293,5,-6,892,2045,2107,2370,2612,2318,2121,2103,2184
874152,-43484,-15636,14463,47231,0,0,-21,-6,-1,52,-29,-4247,-7,-5,892,2045,2107,2370,2612,2318,2121,2103,2184
875153,-43476,-15640,14528,47296,0,0,-22,-7,-1,74,-51,-4247,9,7,892,2045,2107,2370,2612,2318,2121,2103,2184
876154,-43480,-15636,14593,47361,0,0,-23,-7,-1,91,-38,-4271,-5,3,892,2045,2107,2370,2612,2318,2121,2103,2184
877155,-43468,-15628,14658,47426,0,0,-24,-4,-3,64,-49,-4282,1,-5,892,2045,2107,2370,2612,2318,2121,2103,2184
878156,-43480,-15640,14723,47491,0,0,-26,-3,-4,63,-57,-4259,3,2,892,2045,2107,2370,2612,2318,2121,2103,2184
879157,-43476,-15628,14788,47556,0,0,-23,-7,1,84,-46,-4275,-9,6,892,2045,2107,2370,2611,2318,2121,2102,2183
880158,-43468,-15620,14853,47621,0,0,-23,-12,4,73,-61,-4270,9,3,892,2045,2107,2370,2611,2318,2121,2102,2183
881159,-43480,-15632,14918,47686,0,0,-24,-12,1,55,-50,-4245,-5,-4,892,2045,2107,2370,2611,2318,2121,2102,2183
882160,-43476,-15636,14983,47751,0,0,-25,-9,0,66,-53,-4253,-5,3,892,2045,2107,2370,2611,2318,2121,2102,2183
883161,-43476,-15640,15048,47816,0,0,-23,-11,0,65,-48,-4243,10,7,892,2045,2107,2370,2611,2318,2121,2102,2183
884162,-43456,-15644,15113,47881,0,0,-23,-10,-1,72,-57,-4236,-8,-5,892,2045,2107,2370,2612,2319,2121,2101,2183
885163,-43480,-15624,15178,47946,0,0,-24,-11,-3,72,-48,-4269,6,5,892,2045,2107,2370,2612,2319,2121,2101,2183
886164,-43476,-15636,15243,48011,0,0,-24,-12,-3,68,-61,-4243,0,3,892,2045,2107,2370,2612,2319,2121,2101,2183
887165,-43460,-15640,15308,48076,0,0,-19,-11,-2,84,-59,-4240,-5,-1,891,2045,2107,2370,2612,2319,2121,2101,2183
888166,-43472,-15640,15373,48141,0,0,-20,-13,-1,56,-45,-4280,7,7,891,2045,2107,2370,2612,2319,2121,2101,2183
889167,-43476,-15628,15438,48206,0,0,-22,-15,0,48,-43,-4273,8,-6,892,2045,2107,2370,2612,2319,2121,2101,2183
890168,-43472,-15632,15503,48271,0,0,-25,-15,1,65,-58,-4268,-9,7,892,2045,2107,2370,2612,2318,2120,2102,2184
891169,-43476,-15644,15568,48336,0,0,-25,-14,2,86,-52,-4241,5,-4,892,2045,2107,2370,2612,2318,2120,2102,2184
892170,-43468,-15640,15633,48401,0,0,-25,-14,1,67,-52,-4225,-1,-2,892,2045,2107,2370,2612,2318,2120,2102,2184
893171,-43476,-15628,15698,48466,0,0,-22,-14,-1,55,-48,-4270,0,7,892,2045,2107,2370,2612,2318,2120,2102,2184
894172,-43472,-15640,15763,48531,0,0,-21,-14,-1,65,-49,-4275,8,8,892,2045,2107,2370,2612,2318,2120,2102,2184
895173,-43464,-15636,15828,48596,0,0,-23,-14,-2,77,-74,-4241,-8,2,892,2041,2108,2372,2614,2320,2121,2104,2184
896174,-43468,-15640,15893,48661,0,0,-25,-16,-1,69,-47,-4289,10,8,892,2041,2108,2372,2614,2320,2121,2104,2184
897175,-43476,-15640,15958,48726,0,0,-24,-15,-2,73,-67,-4294,-5,2,892,2041,2108,2372,2614,2320,2121,2104,2184
898176,-43484,-15632,16023,48791,0,0,-21,-13,-1,90,-43,-4299,10,-5,892,2041,2108,2372,2614,2320,2121,2104,2184
899177,-43480,-15620,16088,48856,0,0,-22,-14,0,93,-57,-4242,-8,-3,892,2041,2108,2372,2614,2320,2121,2104,2184
900178,-43484,-15628,16153,48921,0,0,-23,-15,0,50,-55,-4252,0,8,892,2041,2108,2372,2614,2320,2121,2104,2184
901179,-43472,-15624,16218,48986,0,0,-25,-16,2,64,-55,-4236,3,-2,892,2044,2105,2369,2610,2318,2120,2102,2183
902180,-43472,-15644,16283,49051,0,0,-26,-17,0,36,-58,-4249,-3,-5,892,2044,2105,2369,2610,2318,2120,2102,2183
903181,-43472,-15624,16348,49116,0,0,-25,-16,-2,58,-20,-4243,10,-5,892,2044,2105,2369,2610,2318,2120,2102,2183
904182,-43468,-15636,16413,49181,0,0,-23,-14,-3,58,-55,-4255,-4,-1,892,2044,2105,2369,2610,2318,2120,2102,2183
905183,-43476,-15632,16478,49246,0,0,-21,-13,-3,67,-47,-4269,8,8,891,2044,2105,2369,2610,2318,2120,2102,2183
906184,-43484,-15636,16543,49311,0,0,-24,-14,-1,50,-42,-4242,-9,2,892,2045,2108,2369,2611,2319,2120,2102,2184
907185,-43484,-15648,16608,49376,0,0,-25,-16,1,67,-57,-4246,10,4,892,2045,2108,2369,2611,2319,2120,2102,2184
908186,-43480,-15632,16673,49441,0,0,-23,-17,-1,70,-59,-4256,-8,8,892,2045,2108,2369,2611,2319,2120,2102,2184
909187,-43492,-15624,16738,49506,0,0,-22,-14,-1,48,-23,-4241,-2,-3,892,2045,2108,2369,2611,2319,2120,2102,2184
910188,-43488,-15644,16803,49571,0,0,-23,-13,-3,48,-42,-4268,5,-2,892,2045,2108,2369,2611,2319,2120,2102,2184
911189,-43468,-15632,16868,49636,0,0,-23,-15,-1,45,-38,-4284,-5,6,892,2045,2108,2369,2611,2319,2120,2102,2184
912190,-43476,-15640,16933,49701,0,0,-26,-15,0,44,-61,-4302,10,-5,892,2045,2107,2370,2611,2318,2121,2103,2185
913191,-43476,-15632,16998,49766,0,0,-27,-11,-1,57,-35,-4272,-9,-6,892,2045,2107,2370,2611,2318,2121,2103,2185
914192,-43476,-15636,17063,49831,0,0,-26,-10,-3,65,-34,-4275,10,-5,892,2045,2107,2370,2611,2318,2121,2103,2185
915193,-43480,-15644,17128,49896,0,0,-24,-11,-2,51,-53,-4287,-8,3,892,2045,2107,2370,2611,2318,2121,2103,2185
916194,-43484,-15628,17193,49961,0,0,-23,-14,-1,44,-43,-4268,9,7,892,2045,2107,2370,2611,2318,2121,2103,2185
917195,-43476,-15636,17258,50026,0,0,-24,-16,-3,55,-57,-4253,-5,5,892,2044,2107,2370,2611,2319,2121,2103,2184
918196,-43480,-15648,17323,50091,0,0,-25,-16,-2,58,-35,-4257,7,-3,892,2044,2107,2370,2611,2319,2121,2103,2184
919197,-43480,-15636,17388,50156,0,0,-23,-13,1,80,-62,-4268,0,-5,892,2044,2107,2370,2611,2319,2121,2103,2184
920198,-43472,-15624,17453,50221,0,0,-23,-12,-1,52,-47,-4264,-5,-5,892,2044,2107,2370,2611,2319,2121,2103,2184
921199,-43472,-15632,17518,50286,0,0,-24,-9,-1,74,-50,-4239,9,5,891,2044,2107,2370,2611,2319,2121,2103,2184
922200,-43476,-15632,17583,50351,0,0,-23,-10,-2,58,-65,-4215,-8,8,891,2044,2107,2370,2611,2319,2121,2103,2184
923201,-43464,-15636,17648,50416,0,0,-23,-10,1,51,-70,-4234,9,7,892,2045,2107,2369,2607,2319,2122,2104,2188
924202,-43468,-15640,17713,50481,0,0,-25,-13,0,60,-103,-4262,-3,3,892,2045,2107,2369,2607,2319,2122,2104,2188
925203,-43472,-15636,17778,50546,0,0,-25,-13,-4,61,-49,-4284,2,7,892,2045,2107,2369,2607,2319,2122,2104,2188
926204,-43476,-15628,17843,50611,0,0,-24,-8,-4,65,-46,-4260,1,7,892,2045,2107,2369,2607,2319,2122,2104,2188
927205,-43472,-15632,17908,50676,0,0,-24,-7,0,62,-42,-4281,-4,6,892,2045,2107,2369,2607,2319,2122,2104,2188
928206,-43464,-15624,17973,50741,0,0,-23,-7,1,55,-57,-4275,4,6,892,2045,2107,2370,2610,2318,2120,2102,2184
929207,-43476,-15624,18038,50806,0,0,-23,-7,-1,80,-47,-4250,-3,-5,892,2045,2107,2370,2610,2318,2120,2102,2184
930208,-43472,-15628,18103,50871,0,0,-21,-6,-2,52,-89,-4306,9,-5,892,2045,2107,2370,2610,2318,2120,2102,2184
931209,-43480,-15628,18168,50936,0,0,-22,-5,-3,51,-46,-4289,-7,-2,892,2045,2107,2370,2610,2318,2120,2102,2184
932210,-43472,-15640,18233,51001,0,0,-21,-7,-2,47,-30,-4265,4,4,892,2045,2107,2370,2610,2318,2120,2102,2184
933211,-43468,-15636,18298,51066,0,0,-22,-7,-1,49,-41,-4267,-6,7,892,2045,2107,2370,2610,2318,2120,2102,2184
934212,-43480,-15636,18363,51131,0,0,-22,-5,-2,60,-60,-4244,7,7,892,2046,2108,2372,2612,2320,2120,2104,2184
935213,-43484,-15644,18428,51196,0,0,-21,-6,-2,61,-44,-4260,-7,8,892,2046,2108,2372,2612,2320,2120,2104,2184
936214,-43476,-15620,18493,51261,0,0,-21,-7,-2,69,-65,-4267,10,7,892,2046,2108,2372,2612,2320,2120,2104,2184
937215,-43488,-15620,18558,51326,0,0,-20,-4,-1,64,-88,-4262,-7,8,892,2046,2108,2372,2612,2320,2120,2104,2184
938216,-43476,-15640,18623,51391,0,0,-20,-4,1,56,-79,-4242,9,8,891,2046,2108,2372,2612,2320,2120,2104,2184
939217,-43476,-15632,18688,51456,0,0,-21,-5,0,56,-42,-4249,1,5,891,2043,2106,2369,2611,2319,2119,2102,2185
940218,-43472,-15624,18753,51521,0,0,-21,-3,0,60,-50,-4242,-2,4,892,2043,2106,2369,2611,2319,2119,2102,2185
941219,-43480,-15628,18818,51586,0,0,-20,-5,1,42,-40,-4248,10,-4,892,2043,2106,2369,2611,2319,2119,2102,2185
942220,-43476,-15632,18883,51651,0,0,-22,-5,-1,64,-47,-4309,-3,-3,892,2043,2106,2369,2611,2319,2119,2102,2185
943221,-43480,-15636,18948,51716,0,0,-22,-7,-3,73,-60,-4316,6,-6,892,2043,2106,2369,2611,2319,2119,2102,2185
944222,-43476,-15644,19013,51781,0,0,-20,-7,0,88,-66,-4308,-7,-1,892,2043,2106,2369,2611,2319,2119,2102,2185
945223,-43480,-15632,19078,51846,0,0,-20,-8,-1,81,-81,-4279,5,7,892,2046,2106,2370,2611,2320,2121,2103,2184
946224,-43476,-15628,19143,51911,0,0,-24,-10,0,74,-40,-4233,0,3,892,2046,2106,2370,2611,2320,2121,2103,2184
947225,-43468,-15628,19208,51976,0,0,-24,-12,-1,58,-54,-4225,7,-4,892,2046,2106,2370,2611,2320,2121,2103,2184
948226,-43476,-15632,19273,52041,0,0,-20,-11,-2,57,-51,-4278,-8,6,892,2046,2106,2370,2611,2320,2121,2103,2184
949227,-43476,-15624,19338,52106,0,0,-19,-8,-3,53,-60,-4304,10,8,892,2046,2106,2370,2611,2320,2121,2103,2184
950228,-43468,-15636,19403,52171,0,0,-22,-11,0,73,-68,-4281,4,-4,892,2045,2107,2369,2611,2319,2122,2103,2185
951229,-43480,-15636,19602,52370,0,0,-24,-12,0,64,-74,-4291,-7,3,892,2045,2107,2369,2611,2319,2122,2103,2185
952230,-43476,-15624,19667,52435,0,0,-21,-11,-2,76,-51,-4272,9,-6,892,2045,2107,2369,2611,2319,2122,2103,2185
953231,-43480,-15636,19732,52500,0,0,-20,-12,-3,73,-48,-4251,5,-1,892,2045,2107,2369,2611,2319,2122,2103,2185
954232,-43464,-15628,19797,52565,0,0,-21,-10,-2,60,-55,-4263,-3,6,892,2045,2107,2369,2611,2319,2122,2103,2185
955233,-43480,-15636,19862,52630,0,0,-20,-9,-4,42,-67,-4274,10,4,891,2045,2107,2369,2611,2319,2122,2103,2185
956234,-43484,-15640,19927,52695,0,0,-21,-11,-2,59,-53,-4252,-7,1,891,2045,2107,2370,2612,2319,2121,2102,2183
957235,-43472,-15628,19992,52760,0,0,-24,-13,-2,78,-51,-4267,10,-6,892,2045,2107,2370,2612,2319,2121,2102,2183
958236,-43480,-15636,20057,52825,0,0,-23,-14,-3,64,-46,-4288,1,-3,892,2045,2107,2370,2612,2319,2121,2102,2183
959237,-43476,-15628,20122,52890,0,0,-22,-13,-4,35,-78,-4296,-9,8,892,2045,2107,2370,2612,2319,2121,2102,2183
960238,-43480,-15624,20187,52955,0,0,-22,-12,-2,45,-82,-4246,10,8,892,2045,2107,2370,2612,2319,2121,2102,2183
961239,-43472,-15632,20252,53020,0,0,-25,-11,0,40,-49,-4247,9,-5,892,2045,2107,2371,2611,2318,2121,2102,2183
962240,-43472,-15636,20317,53085,0,0,-24,-15,-1,29,-46,-4214,-2,6,892,2045,2107,2371,2611,2318,2121,2102,2183
963241,-43488,-15644,20382,53150,0,0,-23,-13,-3,59,-60,-4255,-4,8,892,2045,2107,2371,2611,2318,2121,2102,2183
964242,-43488,-15640,20447,53215,0,0,-23,-11,-3,56,-47,-4279,10,4,892,2045,2107,2371,2611,2318,2121,2102,2183
965243,-43480,-15624,20512,53280,0,0,-24,-13,-1,49,-57,-4280,-8,8,892,2045,2107,2371,2611,2318,2121,2102,2183
966244,-43476,-15644,20577,53345,0,0,-26,-16,-2,52,-53,-4246,10,4,892,2045,2107,2371,2611,2318,2121,2102,2183
967245,-43480,-15628,20642,53410,0,0,-28,-14,-1,48,-77,-4245,-1,-5,892,2044,2106,2370,2611,2317,2120,2101,2183
968246,-43472,-15628,20707,53475,0,0,-28,-12,-1,55,-66,-4246,-7,3,892,2044,2106,2370,2611,2317,2120,2101,2183
969247,-43464,-15628,20772,53540,0,0,-24,-12,-4,64,-63,-4273,3,7,892,2044,2106,2370,2611,2317,2120,2101,2183
970248,-43480,-15628,20837,53605,0,0,-24,-14,-1,60,-55,-4260,-9,-6,892,2044,2106,2370,2611,2317,2120,2101,2183
971249,-43480,-15636,20902,53670,0,0,-27,-13,1,47,-54,-4284,9,-6,892,2044,2106,2370,2611,2317,2120,2101,2183
972250,-43476,-15636,20967,53735,0,0,-29,-14,1,61,-63,-4292,-9,-2,891,2044,2107,2369,2611,2318,2119,2102,2184
973251,-43464,-15624,21032,53800,0,0,-25,-15,-1,76,-59,-4275,7,8,891,2044,2107,2369,2611,2318,2119,2102,2184
974252,-43472,-15640,21097,53865,0,0,-25,-14,-1,56,-40,-4249,-2,4,892,2044,2107,2369,2611,2318,2119,2102,2184
975253,-43472,-15632,21162,53930,0,0,-25,-15,-2,61,-47,-4262,9,-4,892,2044,2107,2369,2611,2318,2119,2102,2184
976254,-43480,-15624,21227,53995,0,0,-24,-14,-2,68,-47,-4255,-6,0,892,2044,2107,2369,2611,2318,2119,2102,2184
977255,-43472,-15640,21292,54060,0,0,-23,-11,-1,81,-36,-4246,9,-6,892,2044,2107,2369,2611,2318,2119,2102,2184
978256,-43476,-15632,21357,54125,0,0,-23,-14,0,51,-44,-4264,-4,-6,892,2044,2106,2369,2611,2317,2120,2102,2183
979257,-43472,-15640,21422,54190,0,0,-26,-14,1,57,-53,-4254,0,5,892,2044,2106,2369,2611,2317,2120,2102,2183
980258,-43480,-15636,21487,54255,0,0,-27,-14,1,53,-59,-4247,5,-6,892,2044,2106,2369,2611,2317,2120,2102,2183
981259,-43472,-15636,21552,54320,0,0,-24,-12,-1,51,-51,-4267,-6,1,892,2044,2106,2369,2611,2317,2120,2102,2183
982260,-43492,-15624,21617,54385,0,0,-26,-11,-1,59,-62,-4242,10,3,892,2044,2106,2369,2611,2317,2120,2102,2183
983261,-43468,-15644,21682,54450,0,0,-27,-11,0,59,-54,-4227,-5,-4,892,2043,2106,2370,2610,2319,2121,2102,2185
984262,-43472,-15624,21747,54515,0,0,-24,-11,1,56,-50,-4315,10,7,892,2043,2106,2370,2610,2319,2121,2102,2185
985263,-43472,-15620,21812,54580,0,0,-21,-10,-1,33,-79,-4271,-8,6,892,2043,2106,2370,2610,2319,2121,2102,2185
986264,-43488,-15636,21877,54645,0,0,-23,-10,-1,45,-65,-4269,10,3,892,2043,2106,2370,2610,2319,2121,2102,2185
987265,-43476,-15636,21942,54710,0,0,-23,-9,-1,75,-48,-4274,-8,1,892,2043,2106,2370,2610,2319,2121,2102,2185
988266,-43468,-15644,22007,54775,0,0,-21,-11,1,65,-28,-4294,10,-6,892,2043,2106,2370,2610,2319,2121,2102,2185
989267,-43468,-15628,22072,54840,0,0,-23,-11,0,60,-63,-4261,-2,7,891,2045,2106,2371,2611,2319,2122,2103,2186
990268,-43476,-15640,22137,54905,0,0,-24,-10,-4,75,-60,-4267,4,4,892,2045,2106,2371,2611,2319,2122,2103,2186
991269,-43472,-15636,22202,54970,0,0,-23,-12,-2,54,-47,-4272,-5,-6,892,2045,2106,2371,2611,2319,2122,2103,2186
992270,-43472,-15644,22267,55035,0,0,-23,-13,2,47,-63,-4259,5,-5,892,2045,2106,2371,2611,2319,2122,2103,2186
993271,-43476,-15632,22332,55100,0,0,-19,-12,0,53,-55,-4280,-7,6,892,2045,2106,2371,2611,2319,2122,2103,2186
994272,-43468,-15644,22397,55165,0,0,-18,-10,-3,58,-30,-4297,4,5,892,2045,2107,2370,2611,2319,2121,2103,2185
995273,-43472,-15636,22462,55230,0,0,-19,-9,-3,55,-58,-4282,-3,8,892,2045,2107,2370,2611,2319,2121,2103,2185
996274,-43476,-15636,22527,55295,0,0,-21,-10,-1,68,-80,-4267,5,6,892,2045,2107,2370,2611,2319,2121,2103,2185
997275,-43476,-15628,22592,55360,0,0,-20,-10,0,77,-60,-4253,2,-4,892,2045,2107,2370,2611,2319,2121,2103,2185
998276,-43476,-15636,22657,55425,0,0,-19,-9,0,77,-80,-4263,-7,7,892,2045,2107,2370,2611,2319,2121,2103,2185
999277,-43468,-15628,22722,55490,0,0,-23,-9,-2,45,-60,-4251,-1,-1,892,2045,2107,2370,2611,2319,2121,2103,2185
1000278,-43472,-15636,22787,55555,0,0,-27,-7,-2,56,-61,-4270,-1,-4,892,2044,2106,2370,2611,2319,2120,2103,2184
1001279,-43484,-15632,22852,55620,0,0,-23,-6,-2,50,-54,-4252,3,-6,892,2044,2106,2370,2611,2319,2120,2103,2184
1002280,-43476,-15636,22917,55685,0,0,-20,-7,-2,73,-47,-4238,0,-1,892,2044,2106,2370,2611,2319,2120,2103,2184
1003281,-43476,-15636,22982,55750,0,0,-20,-6,-1,62,-76,-4266,4,-6,892,2044,2106,2370,2611,2319,2120,2103,2184
1004282,-43476,-15628,23047,55815,0,0,-20,-6,-3,55,-58,-4256,-5,6,892,2044,2106,2370,2611,2319,2120,2103,2184
1005283,-43472,-15636,23112,55880,0,0,-20,-9,-2,76,-40,-4239,6,-3,892,2043,2106,2370,2610,2316,2119,2099,2181
1006284,-43480,-15640,23177,55945,0,0,-21,-9,0,65,-72,-4250,-5,6,891,2043,2106,2370,2610,2316,2119,2099,2181
1007285,-43468,-15636,23242,56010,0,0,-21,-7,-3,56,-45,-4253,-2,-1,892,2043,2106,2370,2610,2316,2119,2099,2181
1008286,-43476,-15628,23307,56075,0,0,-21,-4,-4,80,-51,-4275,-8,2,892,2043,2106,2370,2610,2316,2119,2099,2181
1009287,-43472,-15644,23372,56140,0,0,-24,-5,-3,71,-47,-4271,9,3,892,2043,2106,2370,2610,2316,2119,2099,2181
1010288,-43468,-15640,23437,56205,0,0,-27,-8,-3,59,-39,-4257,-3,-5,892,2044,2106,2369,2610,2317,2120,2101,2181
1011289,-43472,-15628,23502,56270,0,0,-22,-9,-4,61,-38,-4265,3,3,892,2044,2106,2369,2610,2317,2120,2101,2183
1012290,-43476,-15628,23567,56335,0,0,-20,-8,-2,65,-38,-4290,5,-6,892,2044,2106,2369,2610,2317,2120,2101,2183
1013291,-43464,-15628,23632,56400,0,0,-21,-9,-4,81,-29,-4264,-8,1,892,2044,2106,2369,2610,2317,2120,2101,2183
1014292,-43472,-15636,23697,56465,0,0,-24,-8,-5,83,-58,-4256,7,8,892,2044,2106,2369,2610,2317,2120,2101,2183
1015293,-43476,-15632,23762,56530,0,0,-25,-7,-3,77,-69,-4249,-8,-4,892,2044,2106,2369,2610,2317,2120,2101,2183
1016294,-43484,-15628,23827,56595,0,0,-24,-7,0,88,-57,-4258,10,-5,892,2044,2107,2371,2611,2317,2119,2099,2183
1017295,-43480,-15624,23892,56660,0,0,-23,-6,-2,85,-49,-4254,-5,8,892,2044,2107,2371,2611,2317,2119,2099,2183
1018296,-43460,-15636,23957,56725,0,0,-20,-6,-3,53,-47,-4278,7,0,892,2044,2107,2371,2611,2317,2119,2099,2183
1019297,-43480,-15636,24022,56790,0,0,-23,-8,0,48,-44,-4261,-9,-5,892,2044,2107,2371,2611,2317,2119,2099,2183
1020298,-43480,-15632,24087,56855,0,0,-21,-9,0,74,-48,-4257,10,6,892,2044,2107,2371,2611,2317,2119,2099,2183
1021299,-43476,-15628,24152,56920,0,0,-21,-12,0,78,-50,-4293,-7,2,892,2044,2107,2371,2612,2319,2122,2102,2185
1022300,-43480,-15640,24217,56985,0,0,-23,-9,0,86,-60,-4333,1,-4,891,2044,2107,2371,2612,2319,2122,2102,2185
1023301,-43488,-15644,24282,57050,0,0,-25,-9,0,79,-55,-4278,-3,-6,891,2044,2107,2371,2612,2319,2122,2102,2185
1024302,-43484,-15636,24347,57115,0,0,-24,-9,0,69,-22,-4285,-5,-4,892,2044,2107,2371,2612,2319,2122,2102,2185
1025303,-43472,-15632,24412,57180,0,0,-22,-12,0,65,-25,-4279,4,1,892,2044,2107,2371,2612,2319,2122,2102,2185
1026304,-43476,-15632,24477,57245,0,0,-21,-12,-1,79,-24,-4262,3,3,892,2044,2107,2371,2612,2319,2122,2102,2185
1027305,-43472,-15636,24542,57310,0,0,-21,-11,-1,85,-49,-4247,3,1,892,2046,2109,2371,2611,2319,2119,2103,2188
1028306,-43472,-15640,24607,57375,0,0,-23,-12,0,78,-74,-4244,-5,-1,892,2046,2109,2371,2611,2319,2119,2103,2188
1029307,-43472,-15628,24672,57440,0,0,-24,-14,0,55,-70,-4240,-2,8,892,2046,2109,2371,2611,2319,2119,2103,2188
1030308,-43484,-15644,24737,57505,0,0,-24,-15,0,72,-55,-4282,4,-5,892,2046,2109,2371,2611,2319,2119,2103,2188
1031309,-43476,-15648,24802,57570,0,0,-26,-12,0,79,-15,-4294,-7,-4,892,2046,2109,2371,2611,2319,2119,2103,2188
1032310,-43484,-15628,24867,57635,0,0,-26,-10,-1,71,-10,-4278,10,-2,892,2048,2108,2371,2613,2320,2121,2103,2185
1033311,-43476,-15636,24932,57700,0,0,-24,-11,0,81,-34,-4267,-9,-6,892,2048,2108,2371,2613,2320,2121,2103,2185
1034312,-43468,-15640,24997,57765,0,0,-22,-14,0,50,-50,-4245,10,-5,892,2048,2108,2371,2613,2320,2121,2103,2185
1035313,-43476,-15632,25062,57830,0,0,-23,-13,2,39,-39,-4241,-7,-5,892,2048,2108,2371,2613,2320,2121,2103,2185
1036314,-43476,-15632,25127,57895,0,0,-23,-12,0,36,-43,-4265,5,-6,892,2048,2108,2371,2613,2320,2121,2103,2185
1037315,-43488,-15628,25192,57960,0,0,-23,-16,-2,49,-25,-4270,-7,-5,892,2048,2108,2371,2613,2320,2121,2103,2185
1038316,-43480,-15632,25257,58025,0,0,-25,-17,-3,53,-31,-4263,3,-4,892,2047,2109,2374,2616,2320,2122,2104,2185
1039317,-43480,-15628,25322,58090,0,0,-24,-14,-1,75,-52,-4258,-8,1,891,2047,2109,2374,2616,2320,2122,2104,2185
1040318,-43480,-15640,25387,58155,0,0,-20,-10,0,65,-52,-4264,10,-5,892,2047,2109,2374,2616,2320,2122,2104,2185
1041319,-43468,-15632,25452,58220,0,0,-20,-11,1,59,-50,-4283,-9,-6,892,2047,2109,2374,2616,2320,2122,2104,2185
1042320,-43484,-15628,25517,58285,0,0,-20,-13,1,58,-66,-4266,8,1,892,2047,2109,2374,2616,2320,2122,2104,2185
1043321,-43472,-15636,25582,58350,0,0,-23,-12,-2,69,-53,-4248,-3,8,892,2044,2107,2370,2611,2318,2120,2101,2183
1044322,-43480,-15636,25647,58415,0,0,-22,-12,-3,71,-49,-4215,6,4,892,2044,2107,2370,2611,2318,2120,2101,2183
1045323,-43484,-15628,25712,58480,0,0,-22,-13,0,86,-35,-4248,-5,-6,892,2044,2107,2370,2611,2318,2120,2101,2183
1046324,-43472,-15644,25777,58545,0,0,-23,-15,0,103,-52,-4259,6,3,892,2044,2107,2370,2611,2318,2120,2101,2183
1047325,-43484,-15640,25842,58610,0,0,-24,-13,1,67,-73,-4249,-8,8,892,2044,2107,2370,2611,2318,2120,2101,2183
1048326,-43468,-15632,25907,58675,0,0,-25,-12,1,45,-87,-4228,10,-3,892,2044,2107,2370,2611,2318,2120,2101,2183
1049327,-43476,-15620,25972,58740,0,0,-24,-11,-2,55,-63,-4267,-8,-6,892,2044,2108,2370,2610,2320,2120,2101,2183
1050328,-43472,-15628,26037,58805,0,0,-22,-10,-4,39,-70,-4260,9,-5,892,2044,2108,2370,2610,2320,2120,2101,2183
1051329,-43472,-15636,26102,58870,0,0,-20,-10,-4,42,-60,-4261,-8,-4,892,2044,2108,2370,2610,2320,2120,2101,2183
1052330,-43476,-15636,26167,58935,0,0,-23,-8,-5,42,-79,-4279,4,-6,892,2044,2108,2370,2610,2320,2120,2101,2183
1053331,-43476,-15636,26232,59000,0,0,-27,-8,-2,66,-60,-4247,-3,7,892,2044,2108,2370,2610,2320,2120,2101,2183
1054332,-43472,-15648,26297,59065,0,0,-26,-11,-1,79,-43,-4254,-1,8,892,2044,2106,2369,2610,2317,2119,2102,2183
1055333,-43472,-15644,26362,59130,0,0,-27,-14,-1,58,-44,-4248,5,7,892,2044,2106,2369,2610,2317,2119,2102,2183
1056334,-43484,-15624,26427,59195,0,0,-25,-13,-2,58,-48,-4264,-2,3,892,2044,2106,2369,2610,2317,2119,2102,2183
1057335,-43484,-15640,26492,59260,0,0,-24,-12,-3,48,-73,-4286,10,-6,891,2044,2106,2369,2610,2317,2119,2102,2183
1058336,-43480,-15640,26557,59325,0,0,-25,-9,0,60,-59,-4272,-5,7,892,2044,2106,2369,2610,2317,2119,2102,2183
1059337,-43480,-15636,26622,59390,0,0,-23,-9,-1,55,-51,-4259,9,-2,892,2044,2106,2369,2610,2317,2119,2102,2183
1060338,-43468,-15636,26687,59455,0,0,-25,-8,-1,76,-63,-4271,-3,2,892,2044,2108,2370,2610,2320,2121,2102,2185
1061339,-43480,-15632,26752,59520,0,0,-25,-9,-1,64,-63,-4272,1,-5,892,2044,2108,2370,2610,2320,2121,2102,2185
1062340,-43468,-15628,26817,59585,0,0,-26,-11,-4,59,-72,-4246,-5,7,892,2044,2108,2370,2610,2320,2121,2102,2185
1063341,-43472,-15624,26882,59650,0,0,-27,-10,-3,60,-56,-4244,7,8,892,2044,2108,2370,2610,2320,2121,2102,2185
1064342,-43476,-15636,26947,59715,0,0,-24,-9,-2,78,-38,-4251,-7,-5,892,2044,2108,2370,2610,2320,2121,2102,2185
1065343,-43476,-15628,27012,59780,0,0,-22,-8,-1,69,-30,-4252,10,8,892,2045,2106,2370,2611,2318,2121,2103,2185
1066344,-43476,-15636,27077,59845,0,0,-23,-8,-3,50,-47,-4234,-9,-2,892,2045,2106,2370,2611,2318,2121,2103,2185
1067345,-43492,-15632,27142,59910,0,0,-26,-10,-2,48,-49,-4230,10,7,892,2045,2106,2370,2611,2318,2121,2103,2185
1068346,-43472,-15628,27207,59975,0,0,-24,-12,-2,68,-53,-4236,-9,4,892,2045,2106,2370,2611,2318,2121,2103,2185
1069347,-43480,-15632,27272,60040,0,0,-23,-8,-1,53,-37,-4259,10,-6,892,2045,2106,2370,2611,2318,2121,2103,2185
1070348,-43476,-15644,27337,60105,0,0,-21,-8,1,67,-33,-4264,-7,-1,892,2045,2106,2370,2611,2318,2121,2103,2185
1071349,-43480,-15644,27402,60170,0,0,-22,-10,-2,69,-59,-4269,10,8,892,2044,2106,2369,2611,2319,2121,2102,2183
1072350,-43476,-15636,27467,60235,0,0,-22,-10,-4,52,-63,-4245,-8,5,892,2044,2106,2369,2611,2319,2121,2102,2183
1073351,-43476,-15640,27532,60300,0,0,-25,-11,1,55,-78,-4309,4,8,892,2044,2106,2369,2611,2319,2121,2102,2183
1074352,-43476,-15644,27597,60365,0,0,-24,-10,2,54,-61,-4241,3,8,891,2044,2106,2369,2611,2319,2121,2102,2183
1075353,-43472,-15632,27662,60430,0,0,-22,-11,-2,74,-65,-4212,-3,-1,892,2044,2106,2369,2611,2319,2121,2102,2183
1076354,-43476,-15624,27727,60495,0,0,-20,-10,-2,70,-48,-4248,7,-2,892,2044,2107,2369,2611,2319,2121,2103,2184
1077355,-43468,-15636,27792,60560,0,0,-22,-11,-2,77,-59,-4261,-9,5,892,2044,2107,2369,2611,2319,2121,2103,2184
1078356,-43472,-15640,27857,60625,0,0,-22,-11,2,60,-64,-4270,11,-1,892,2044,2107,2369,2611,2319,2121,2103,2184
1079357,-43480,-15644,27922,60690,0,0,-22,-9,3,60,-47,-4260,-9,6,891,2044,2107,2369,2611,2319,2121,2103,2184
1080358,-43472,-15628,27987,60755,0,0,-24,-10,-1,53,-33,-4256,2,7,892,2044,2107,2369,2611,2319,2121,2103,2184
1081359,-43488,-15632,28052,60820,0,0,-23,-10,-3,62,-50,-4272,3,3,891,2044,2107,2369,2611,2319,2121,2103,2184
1082360,-43464,-15632,28117,60885,0,0,-21,-12,-3,70,-49,-4258,-1,-6,892,2044,2105,2369,2610,2318,2121,2102,2183
1083361,-43468,-15632,28182,60950,0,0,-24,-12,-1,59,-45,-4260,7,3,892,2044,2105,2369,2610,2318,2121,2102,2183
1084362,-43476,-15632,28247,61015,0,0,-25,-10,0,63,-55,-4249,-2,-6,892,2044,2105,2369,2610,2318,2121,2102,2183
1085363,-43484,-15636,28312,61080,0,0,-24,-8,2,68,-61,-4223,-1,-5,891,2044,2105,2369,2610,2318,2121,2102,2183
1086364,-43476,-15624,28377,61145,0,0,-21,-10,1,48,-56,-4232,-2,-2,892,2044,2105,2369,2610,2318,2121,2102,2183
1087365,-43480,-15628,28442,61210,0,0,-22,-12,0,46,-46,-4260,3,8,892,2043,2106,2368,2610,2318,2121,2101,2181
1088366,-43476,-15632,28507,61275,0,0,-25,-10,0,61,-69,-4248,-5,8,892,2043,2106,2368,2610,2318,2121,2101,2181
1089367,-43484,-15628,28572,61340,0,0,-25,-8,-1,78,-54,-4251,10,8,891,2043,2106,2368,2610,2318,2121,2101,2181
