%  Data file recorded 2016/7/9  16:6:37
%  Stride Frequency         = [4, 4]
%  Lead In /Lead Out        = 
%  Deltas (Fractional)      = [0.25, 0.25, 0.25],[0.25, 0.25, 0.25]
%  Phase                    = 32768
%  Experiment.py 
%  Motor Gains    = [-5000, -400, -200, 0, -300, -5000, -400, -200, 0, -300]
% Columns: 
% time | Right Leg Pos | Left Leg Pos | Commanded Right Leg Pos | Commanded Left Leg Pos | DCR | DCL | GyroX | GyroY | GyroZ | AX | AY | AZ | RBEMF | LBEMF | VBatt | S1 | S2 | S3 | S4 | S5 | S6 | S7 | S8
328,5396,-56276,0,0,3800,-3800,-29,15,10,128,-66,-4275,7,2,900,2471,2711,3117,3331,3131,2920,2749,2967
1329,5388,-56272,0,0,3800,-3800,-31,13,9,142,-67,-4303,-5,6,900,2471,2711,3117,3331,3131,2920,2749,2967
2330,5380,-56260,0,0,3800,-3800,-31,9,8,141,-70,-4300,-9,-9,900,2471,2711,3117,3331,3131,2920,2749,2967
3331,5396,-56268,0,0,3800,-3800,-27,10,7,128,-65,-4272,-1,-8,900,2471,2711,3117,3331,3131,2920,2749,2967
4332,5388,-56264,0,0,3800,-3800,-28,13,8,103,-64,-4254,10,2,900,2471,2711,3117,3331,3131,2920,2749,2967
5333,5400,-56260,0,0,3800,-3800,-28,13,10,109,-47,-4292,10,-4,900,2472,2713,3118,3332,3132,2920,2749,2966
6334,5384,-56268,0,0,3800,-3800,-29,12,11,115,-66,-4263,5,-4,900,2472,2713,3118,3332,3132,2920,2749,2966
7335,5392,-56272,0,0,3800,-3800,-29,12,11,98,-57,-4267,-1,5,900,2472,2713,3118,3332,3132,2920,2749,2966
8336,5384,-56272,0,0,3800,-3800,-27,11,8,111,-71,-4289,-2,-5,900,2472,2713,3118,3332,3132,2920,2749,2966
9337,5396,-56256,0,0,3800,-3800,-28,11,7,100,-76,-4286,-9,-2,900,2472,2713,3118,3332,3132,2920,2749,2966
10338,5388,-56272,0,0,3800,-3800,-29,12,8,108,-60,-4271,-7,3,900,2472,2712,3116,3328,3130,2918,2747,2965
11339,5384,-56272,0,0,3800,-3800,-28,11,11,129,-54,-4247,-3,-6,900,2472,2712,3116,3328,3130,2918,2747,2965
12340,5388,-56256,0,0,3800,-3800,-29,11,12,134,-67,-4270,9,5,900,2472,2712,3116,3328,3130,2918,2747,2965
13341,5392,-56268,0,0,3800,-3800,-26,12,9,145,-71,-4265,2,-2,900,2472,2712,3116,3328,3130,2918,2747,2965
14342,5388,-56256,0,0,3800,-3800,-27,12,9,109,-54,-4250,-2,-1,900,2472,2712,3116,3328,3130,2918,2747,2965
15343,5396,-56264,0,0,3800,-3800,-27,12,11,112,-65,-4284,-8,4,901,2472,2712,3116,3328,3130,2918,2747,2965
16344,5400,-56260,0,0,3800,-3800,-28,13,11,124,-53,-4293,-7,-8,900,2466,2706,3110,3322,3125,2913,2743,2959
17345,5388,-56268,0,0,3800,-3800,-27,11,13,133,-59,-4259,-3,5,900,2466,2706,3110,3322,3125,2913,2743,2959
18346,5396,-56264,0,0,3800,-3800,-28,9,14,123,-66,-4229,8,-8,900,2466,2706,3110,3322,3125,2913,2743,2959
19347,5400,-56264,0,0,3800,-3800,-28,10,12,143,-64,-4238,10,6,899,2466,2706,3110,3322,3125,2913,2743,2959
20348,5388,-56260,0,0,3800,-3800,-27,10,12,128,-52,-4233,5,-7,900,2466,2706,3110,3322,3125,2913,2743,2959
21349,5388,-56272,0,0,3800,-3800,-28,9,12,123,-44,-4237,-2,-8,900,2461,2699,3101,3312,3118,2906,2738,2953
22350,5400,-56260,0,0,3800,-3800,-30,7,13,129,-60,-4236,-9,2,900,2461,2699,3101,3312,3118,2906,2738,2953
23351,5392,-56264,0,0,3800,-3800,-31,8,10,115,-41,-4211,-7,-8,900,2461,2699,3101,3312,3118,2906,2738,2953
24352,5400,-56264,0,0,3800,-3800,-30,10,10,127,-32,-4232,9,3,901,2461,2699,3101,3312,3118,2906,2738,2953
25353,5396,-56268,0,0,3800,-3800,-26,15,12,122,-34,-4226,-2,-8,900,2461,2699,3101,3312,3118,2906,2738,2953
26354,5388,-56260,0,0,3800,-3800,-28,15,12,111,-35,-4222,-9,-1,900,2461,2699,3101,3312,3118,2906,2738,2953
27355,5392,-56268,0,0,3800,-3800,-28,11,11,111,-28,-4228,-3,-1,900,2456,2693,3096,3304,3112,2899,2732,2948
28356,5380,-56264,0,0,3800,-3800,-27,8,10,139,-43,-4198,3,-7,900,2456,2693,3096,3304,3112,2899,2732,2948
29357,5388,-56264,0,0,3800,-3800,-27,9,12,125,-33,-4206,2,6,900,2456,2693,3096,3304,3112,2899,2732,2948
30358,5396,-56252,0,0,3800,-3800,-27,10,14,109,-52,-4173,10,-8,900,2456,2693,3096,3304,3112,2899,2732,2948
31359,5384,-56260,0,0,3800,-3800,-26,12,10,111,-48,-4170,5,5,900,2456,2693,3096,3304,3112,2899,2732,2948
32360,5388,-56260,0,0,3800,-3800,-26,12,9,96,-63,-4173,-6,-5,900,2449,2687,3089,3300,3109,2897,2733,2947
33361,5384,-56268,0,0,3800,-3800,-29,12,10,98,-73,-4226,-8,-1,900,2449,2687,3089,3300,3109,2897,2733,2947
34362,5396,-56260,0,0,3800,-3800,-27,11,12,96,-41,-4210,-7,6,900,2449,2687,3089,3300,3109,2897,2733,2947
35363,5388,-56272,0,0,3800,-3800,-26,13,12,144,-64,-4204,-9,-4,900,2449,2687,3089,3300,3109,2897,2733,2947
36364,5384,-56264,0,0,3800,-3800,-27,10,9,132,-61,-4183,-9,-2,899,2449,2687,3089,3300,3109,2897,2733,2947
37365,5396,-56264,0,0,3800,-3800,-29,9,7,125,-65,-4205,-8,3,900,2450,2689,3089,3300,3109,2897,2733,2947
38366,5392,-56268,0,0,3800,-3800,-28,10,9,111,-18,-4230,-8,0,900,2450,2689,3090,3300,3110,2898,2733,2949
39367,5392,-56264,0,0,3800,-3800,-26,9,10,104,-28,-4222,-9,4,900,2450,2689,3090,3300,3110,2898,2733,2949
40368,5380,-56272,0,0,3800,-3800,-24,9,12,121,-18,-4215,-7,-8,900,2450,2689,3090,3300,3110,2898,2733,2949
41369,5380,-56268,0,0,3800,-3800,-20,10,13,96,-34,-4220,-6,-1,900,2450,2689,3090,3300,3110,2898,2733,2949
42370,5388,-56268,0,0,3800,-3800,-23,9,11,98,-48,-4225,-2,0,901,2450,2689,3090,3300,3110,2898,2733,2949
43371,5384,-56256,0,0,3800,-3800,-29,9,11,124,-42,-4237,4,-3,900,2452,2694,3095,3307,3115,2903,2737,2954
44372,5388,-56268,0,0,3800,-3800,-29,9,11,106,-41,-4239,4,-8,900,2452,2694,3095,3307,3115,2903,2737,2954
45373,5388,-56256,0,0,3800,-3800,-27,10,12,110,-45,-4237,7,-8,900,2452,2694,3095,3307,3115,2903,2737,2954
46374,5376,-56272,0,0,3800,-3800,-26,9,11,90,-58,-4259,8,-3,900,2452,2694,3095,3307,3115,2903,2737,2954
47375,5392,-56260,0,0,3800,-3800,-25,9,14,105,-60,-4218,3,-8,900,2452,2694,3095,3307,3115,2903,2737,2954
48376,5392,-56268,0,0,3800,-3800,-26,8,11,106,-43,-4228,-4,4,900,2458,2701,3103,3315,3119,2910,2737,2954
49377,5388,-56260,0,0,3800,-3800,-29,8,11,123,-64,-4253,-4,2,900,2458,2701,3103,3315,3119,2910,2744,2960
50378,5388,-56268,0,0,3800,-3800,-29,6,11,114,-85,-4240,-9,-8,900,2458,2701,3103,3315,3119,2910,2744,2960
51379,5396,-56264,0,0,3800,-3800,-29,8,11,119,-71,-4272,-4,5,900,2458,2701,3103,3315,3119,2910,2744,2960
52380,5388,-56264,0,0,3800,-3800,-27,10,14,112,-69,-4298,2,-6,900,2458,2701,3103,3315,3119,2910,2744,2960
53381,5392,-56260,0,0,3800,-3800,-29,9,15,106,-55,-4273,6,6,900,2458,2701,3103,3315,3119,2910,2744,2960
54382,5376,-56272,0,0,3800,-3800,-29,7,14,131,-61,-4256,-8,0,900,2465,2706,3112,3323,3127,2915,2747,2964
55383,5392,-56264,0,0,3800,-3800,-28,8,12,129,-71,-4250,-9,-8,900,2465,2706,3112,3323,3127,2915,2747,2964
56384,5384,-56264,0,0,3800,-3800,-27,9,13,120,-56,-4245,-7,6,900,2465,2706,3112,3323,3127,2915,2747,2964
57385,5400,-56272,0,0,3800,-3800,-26,8,13,109,-50,-4263,2,-5,900,2465,2706,3112,3323,3127,2915,2747,2964
58386,5392,-56260,0,0,3800,-3800,-26,6,13,130,-47,-4272,5,6,900,2465,2706,3112,3323,3127,2915,2747,2964
59387,5384,-56264,0,0,3800,-3800,-27,6,14,133,-62,-4290,9,4,900,2469,2712,3117,3329,3131,2919,2749,2967
60388,5392,-56264,0,0,3800,-3800,-28,6,11,106,-82,-4296,10,-1,900,2469,2712,3117,3329,3131,2919,2749,2967
61389,5396,-56268,0,0,3800,-3800,-29,5,11,107,-71,-4269,9,5,900,2469,2712,3117,3329,3131,2919,2749,2967
62390,5396,-56268,0,0,3800,-3800,-28,6,10,128,-78,-4268,8,-8,900,2469,2712,3117,3329,3131,2919,2749,2967
63391,5380,-56268,0,0,3800,-3800,-27,5,9,117,-67,-4246,4,4,900,2469,2712,3117,3329,3131,2919,2749,2967
64392,5388,-56264,0,0,3800,-3800,-27,7,6,125,-69,-4277,4,-3,900,2469,2712,3117,3329,3131,2919,2749,2967
65393,5388,-56272,0,0,3800,-3800,-28,8,8,131,-76,-4289,-3,4,900,2472,2714,3118,3327,3130,2919,2751,2970
66394,5380,-56264,0,0,3800,-3800,-26,7,10,104,-67,-4257,-8,-8,900,2472,2714,3118,3327,3130,2919,2751,2970
67395,5388,-56260,0,0,3800,-3800,-26,6,11,99,-57,-4241,-5,5,900,2472,2714,3118,3327,3130,2919,2751,2970
68396,5388,-56264,0,0,3800,-3800,-29,4,9,101,-72,-4284,-7,-7,900,2472,2714,3118,3327,3130,2919,2751,2970
69397,5392,-56268,0,0,3800,-3800,-29,6,9,112,-54,-4292,-8,4,900,2472,2714,3118,3327,3130,2919,2751,2970
70398,5400,-56272,0,0,3800,-3800,-29,5,12,104,-75,-4253,-7,-8,899,2469,2712,3114,3325,3127,2914,2746,2965
71399,5388,-56272,0,0,3800,-3800,-28,5,12,107,-50,-4253,-7,4,900,2469,2712,3114,3325,3127,2914,2746,2965
72400,5384,-56264,0,0,3800,-3800,-28,5,11,120,-67,-4259,-9,0,900,2469,2712,3114,3325,3127,2914,2746,2965
73401,5380,-56264,0,0,3800,-3800,-28,4,12,138,-63,-4257,-9,-8,900,2469,2712,3114,3325,3127,2914,2746,2965
74402,5376,-56268,0,0,3800,-3800,-29,6,11,142,-59,-4246,-5,6,900,2469,2712,3114,3325,3127,2914,2746,2965
75403,5392,-56264,0,0,3800,-3800,-27,6,11,120,-48,-4266,3,-7,900,2469,2712,3114,3325,3127,2914,2746,2965
76404,5380,-56264,0,0,3800,-3800,-29,7,13,118,-34,-4272,1,-2,900,2464,2707,3109,3319,3124,2910,2743,2960
77405,5396,-56268,0,0,3800,-3800,-27,8,15,120,-47,-4260,4,-8,900,2464,2707,3109,3319,3124,2910,2743,2960
78406,5384,-56268,0,0,3800,-3800,-28,9,12,99,-48,-4255,7,5,900,2464,2707,3109,3319,3124,2910,2743,2960
79407,5380,-56260,0,0,3800,-3800,-32,9,11,101,-63,-4253,5,-5,900,2464,2707,3109,3319,3124,2910,2743,2960
80408,5388,-56264,0,0,3800,-3800,-30,8,10,97,-47,-4243,8,6,900,2464,2707,3109,3319,3124,2910,2743,2960
81409,5380,-56268,0,0,3800,-3800,-29,5,11,126,-23,-4218,9,-7,900,2461,2702,3105,3309,3119,2903,2741,2960
82410,5384,-56276,0,0,3800,-3800,-29,4,10,112,-51,-4247,3,6,900,2461,2702,3105,3309,3119,2903,2741,2960
83411,5396,-56260,0,0,3800,-3800,-30,4,11,98,-59,-4227,-6,-7,900,2461,2702,3105,3309,3119,2903,2741,2960
84412,5388,-56264,0,0,3800,-3800,-29,6,10,108,-64,-4220,-7,0,900,2461,2702,3105,3309,3119,2903,2741,2960
85413,5388,-56264,0,0,3800,-3800,-27,7,9,94,-56,-4218,-1,-4,900,2461,2702,3105,3309,3119,2903,2741,2960
86414,5384,-56260,0,0,3800,-3800,-31,8,10,113,-64,-4207,10,2,900,2461,2702,3105,3309,3119,2903,2741,2960
87415,5384,-56264,0,0,3800,-3800,-32,8,10,115,-71,-4242,2,-5,900,2456,2698,3097,3304,3117,2900,2737,2955
88416,5392,-56268,0,0,3800,-3800,-29,8,11,117,-61,-4208,-3,-7,900,2456,2698,3097,3304,3117,2900,2737,2955
89417,5396,-56272,0,0,3800,-3800,-30,6,8,102,-60,-4215,-8,6,900,2456,2698,3097,3304,3117,2900,2737,2955
90418,5372,-56264,0,0,3800,-3800,-30,7,9,121,-52,-4213,-6,-7,900,2456,2698,3097,3304,3117,2900,2737,2955
91419,5384,-56260,0,0,3800,-3800,-30,10,10,107,-36,-4199,0,-3,900,2456,2698,3097,3304,3117,2900,2737,2955
92420,5388,-56272,0,0,3800,-3800,-31,9,11,106,-74,-4229,10,4,900,2452,2695,3093,3301,3114,2899,2735,2954
93421,5392,-56260,0,0,3800,-3800,-29,7,7,104,-67,-4218,-2,-8,900,2452,2695,3093,3301,3114,2899,2735,2954
94422,5388,-56264,0,0,3800,-3800,-24,8,7,114,-48,-4232,-7,1,901,2452,2695,3093,3301,3114,2899,2735,2954
95423,5372,-56268,0,0,3800,-3800,-23,7,9,91,-51,-4272,-6,-4,900,2452,2695,3093,3301,3114,2899,2735,2954
96424,5380,-56264,0,0,3800,-3800,-25,10,9,103,-48,-4248,5,-3,900,2452,2695,3093,3301,3114,2899,2735,2954
97425,5388,-56268,0,0,3800,-3800,-29,12,10,77,-64,-4248,9,6,900,2452,2695,3093,3301,3114,2899,2735,2954
98426,5392,-56272,0,0,3800,-3800,-30,13,11,99,-67,-4229,4,-8,900,2452,2697,3093,3299,3118,2902,2740,2958
99427,5392,-56272,0,0,3800,-3800,-30,10,10,99,-79,-4219,-6,4,900,2452,2697,3093,3299,3118,2902,2740,2958
100428,5388,-56268,0,0,3800,-3800,-26,9,9,98,-76,-4229,-8,-1,900,2452,2697,3093,3299,3118,2902,2740,2958
101429,5384,-56268,0,0,3800,-3800,-27,9,11,112,-93,-4253,9,-3,900,2452,2697,3093,3299,3118,2902,2740,2958
102430,5396,-56256,16384,16384,-3800,-3800,-26,10,14,98,-54,-4256,-3,-6,900,2452,2697,3093,3299,3118,2902,2740,2958
103431,5384,-56260,16648,16648,-3800,-3800,-24,10,16,100,-21,-4234,-10,-315,900,2454,2698,3098,3306,3119,2903,2740,2959
104432,5376,-56204,16912,16912,-3800,-3800,-27,11,15,93,-28,-4226,-25,-322,862,2454,2698,3098,3306,3119,2903,2740,2959
105433,5380,-56104,17176,17176,-3800,-3800,-30,8,11,55,-43,-4212,-23,-317,865,2454,2698,3098,3306,3119,2903,2740,2959
106434,5396,-55952,17440,17440,-3800,-3800,-35,-23,8,-176,-53,-4046,-22,-349,868,2454,2698,3098,3306,3119,2903,2740,2959
107435,5392,-55732,17704,17704,-3800,-3800,-47,-84,3,-617,-93,-3915,-32,-345,870,2454,2698,3098,3306,3119,2903,2740,2959
108436,5396,-55492,17968,17968,-3800,-3800,-46,-128,-14,-903,-106,-3895,-18,-350,872,2454,2698,3098,3306,3119,2903,2740,2959
109437,5388,-55232,18232,18232,-3800,-3800,-43,-178,-34,-794,-194,-4164,-21,-342,875,2460,2704,3104,3312,3130,2912,2752,2981
110438,5380,-54924,18496,18496,-3800,-3800,-14,-224,-38,-70,-170,-4417,-19,-332,876,2460,2704,3104,3312,3130,2912,2752,2981
111439,5380,-54640,18760,18760,-3800,-3800,6,-335,-35,1088,-158,-4367,-22,-348,877,2460,2704,3104,3312,3130,2912,2752,2981
112440,5376,-54292,19024,19024,-3800,-3800,12,-400,-49,319,-90,-3457,-25,-378,880,2460,2704,3104,3312,3130,2912,2752,2981
113441,5380,-53924,19288,19288,-3800,-3800,21,-296,-44,-274,-236,-4676,-18,-360,881,2460,2704,3104,3312,3130,2912,2752,2981
114442,5380,-53464,19552,19552,-3800,-3800,31,-272,-42,735,167,-3486,-34,-367,882,2489,2751,3144,3347,3145,2923,2785,3019
115443,5384,-53076,19816,19816,-3800,-3800,5,-169,-23,843,146,-3343,-34,-382,884,2489,2751,3144,3347,3145,2923,2785,3019
116444,5368,-52632,20080,20080,-3800,-3800,7,30,19,886,109,-4248,-33,-369,884,2489,2751,3144,3347,3145,2923,2785,3019
117445,5372,-52200,20344,20344,-3800,-3800,-13,95,33,1355,229,-4224,-36,-367,885,2489,2751,3144,3347,3145,2923,2785,3019
118447,5388,-51744,20608,20608,-3800,-3800,-34,218,67,1358,249,-3983,-22,-376,887,2489,2751,3144,3347,3145,2923,2785,3019
119447,5372,-51284,20872,20872,-3800,-3800,-48,275,119,1075,341,-4092,-21,-383,889,2489,2751,3144,3347,3145,2923,2785,3019
120448,5384,-50780,21136,21136,-3800,-3800,-55,321,174,-591,238,-4853,-35,-380,879,2560,2832,3216,3423,3168,2977,2828,3061
121449,5372,-50240,21400,21400,-3800,-3800,-54,308,179,488,244,-3735,-33,-394,887,2560,2832,3216,3423,3168,2977,2828,3061
122450,5368,-49716,21664,21664,-3800,-3800,-71,319,212,311,174,-5559,-28,-368,891,2560,2832,3216,3423,3168,2977,2828,3061
123451,5376,-49164,21928,21928,-3800,-3800,-43,239,237,368,21,-3702,-35,-369,891,2560,2832,3216,3423,3168,2977,2828,3061
124452,5380,-48600,22192,22192,-3800,-3800,-49,204,233,-373,28,-5944,-26,-383,886,2560,2832,3216,3423,3168,2977,2828,3061
125453,5376,-48004,22456,22456,-3800,-3800,-3,191,214,-82,-72,-4109,-24,-405,892,2583,2833,3265,3483,3260,3036,2840,3069
126454,5384,-47396,22720,22720,-3800,-3800,-24,129,202,5,-133,-5340,-26,-407,892,2583,2833,3265,3483,3260,3036,2840,3069
127455,5376,-46800,22984,22984,-3800,-3800,-2,127,177,-92,-100,-4791,-23,-380,893,2583,2833,3265,3483,3260,3036,2840,3069
128456,5368,-46164,23248,23248,-3800,-3800,-10,34,137,-1259,57,-4181,-29,-403,890,2583,2833,3265,3483,3260,3036,2840,3069
129457,5376,-45528,23512,23512,-3800,-3800,-23,65,74,-236,-202,-6007,-38,-405,892,2583,2833,3265,3483,3260,3036,2840,3069
130458,5384,-44872,23776,23776,-3800,-3800,-21,29,20,497,-402,-3825,-36,-410,892,2583,2833,3265,3483,3260,3036,2840,3069
131459,5376,-44180,24040,24040,-3800,-3800,-61,-31,-14,-815,-88,-5177,-23,-404,892,2584,2829,3276,3482,3250,3007,2789,3027
132460,5388,-43524,24304,24304,-3800,-3800,-74,-28,-86,-1415,-296,-4821,-28,-402,892,2584,2829,3276,3482,3250,3007,2789,3027
133461,5372,-42828,24568,24568,-3800,-3800,-78,-26,-163,-1173,-88,-4085,-38,-406,893,2584,2829,3276,3482,3250,3007,2789,3027
134462,5388,-42128,24832,24832,-3800,-3800,-74,-143,-167,-145,-443,-5453,-25,-395,892,2584,2829,3276,3482,3250,3007,2789,3027
135463,5384,-41456,25096,25096,-3800,-3800,8,-227,-179,-145,-10,-4274,-27,-384,895,2584,2829,3276,3482,3250,3007,2789,3027
136464,5376,-40708,25360,25360,-3800,-3800,24,-365,-220,-497,-543,-4395,-38,-385,893,2522,2759,3200,3376,3176,2936,2726,2960
137465,5384,-39996,25624,25624,-3800,-3800,81,-357,-267,-770,-415,-5070,-23,-382,894,2522,2759,3200,3376,3176,2936,2726,2960
138466,5380,-39296,25888,25888,-3800,-3800,165,-288,-238,-84,-390,-3693,-31,-412,893,2522,2759,3200,3376,3176,2936,2726,2960
139467,5364,-38588,26152,26152,-3800,-3800,173,-228,-239,1052,-921,-4460,-34,-391,893,2522,2759,3200,3376,3176,2936,2726,2960
140468,5380,-37844,26416,26416,-3800,-3800,186,-76,-260,267,-275,-3956,-24,-413,893,2522,2759,3200,3376,3176,2936,2726,2960
141469,5380,-37052,26680,26680,-3800,-3800,194,15,-224,-442,-343,-3222,-35,-387,894,2522,2759,3200,3376,3176,2936,2726,2960
142470,5372,-36328,26944,26944,-3800,-3800,161,101,-165,482,-283,-4555,-24,-389,895,2473,2725,3125,3310,3007,2788,2636,2836
143471,5368,-35556,27208,27208,-3800,-3800,138,161,-138,883,-68,-3768,-38,-411,896,2473,2725,3125,3310,3007,2788,2636,2836
144472,5380,-34868,27472,27472,-3800,-3800,100,166,-74,440,181,-3996,-23,-384,893,2473,2725,3125,3310,3007,2788,2636,2836
145473,5372,-34120,27736,27736,-3800,-3800,64,173,-3,461,-185,-4698,-32,-396,895,2473,2725,3125,3310,3007,2788,2636,2836
146474,5380,-33316,28000,28000,-3800,-3800,11,194,21,1067,173,-4446,-38,-413,897,2473,2725,3125,3310,3007,2788,2636,2836
147475,5388,-32604,28264,28264,-3800,-3800,-24,222,77,463,211,-4197,-22,-394,895,2459,2691,3059,3277,2876,2690,2574,2752
148476,5388,-31876,28528,28528,-3800,-3800,-89,203,126,695,99,-4595,-33,-398,895,2459,2691,3059,3277,2876,2690,2574,2752
149477,5388,-31176,28792,28792,-3800,-3800,-91,208,154,1618,193,-4422,-38,-401,896,2459,2691,3059,3277,2876,2690,2574,2752
150478,5384,-30420,29056,29056,-3800,-3800,-150,176,158,1061,-78,-3608,-30,-385,895,2459,2691,3059,3277,2876,2690,2574,2752
151479,5380,-29800,29320,29320,-3800,-3800,-189,231,167,336,243,-4558,-21,-400,895,2459,2691,3059,3277,2876,2690,2574,2752
152480,5388,-29016,29584,29584,-3800,-3800,-178,153,161,442,61,-4029,-28,-415,895,2459,2691,3059,3277,2876,2690,2574,2752
153481,5376,-28316,29848,29848,-3800,-3800,-209,215,115,861,-275,-3513,-32,-392,896,2394,2600,2963,3177,2864,2670,2550,2733
154482,5388,-27680,30112,30112,-3800,-3800,-220,249,123,620,-37,-4239,-36,-398,897,2394,2600,2963,3177,2864,2670,2550,2733
155483,5392,-27048,30376,30376,-3800,-3800,-169,182,108,-381,291,-4185,-39,-408,895,2394,2600,2963,3177,2864,2670,2550,2733
156484,5392,-26456,30640,30640,-3800,-3800,-164,173,67,-28,-230,-3159,-38,-410,895,2394,2600,2963,3177,2864,2670,2550,2733
157485,5388,-25648,30904,30904,-3800,-3800,-161,148,9,312,-139,-4123,-32,-391,896,2394,2600,2963,3177,2864,2670,2550,2733
158486,5388,-25064,31168,31168,-3800,-3800,-137,78,-38,-541,-125,-3514,-35,-388,896,2296,2494,2873,3071,2879,2686,2542,2738
159487,5404,-24420,31432,31432,-3800,-3800,-94,88,-50,-628,-84,-3481,-36,-397,897,2296,2494,2873,3071,2879,2686,2542,2738
160488,5392,-23816,31696,31696,-3800,-3800,-85,132,-79,949,-188,-4411,-28,-400,895,2296,2494,2873,3071,2879,2686,2542,2738
161489,5400,-23120,31960,31960,-3800,-3800,-55,75,-106,634,-341,-3453,-35,-398,896,2296,2494,2873,3071,2879,2686,2542,2738
162490,5392,-22444,32224,32224,-3800,-3800,-29,165,-136,408,-504,-4028,-38,-403,897,2296,2494,2873,3071,2879,2686,2542,2738
163491,5408,-21788,32768,32768,-3800,-3800,-38,199,-133,496,-677,-3803,-38,-417,896,2296,2494,2873,3071,2879,2686,2542,2738
164492,5400,-21172,33032,33032,-3800,-3800,-73,205,-152,-538,-589,-3566,-36,-411,897,2258,2466,2853,3060,2908,2710,2566,2757
165493,5412,-20500,33296,33296,-3800,-3800,-87,387,-191,-407,-250,-4043,-33,-403,897,2258,2466,2853,3060,2908,2710,2566,2757
166494,5408,-19848,33560,33560,-3800,-3800,-148,474,-193,-767,-158,-3299,-33,-400,897,2258,2466,2853,3060,2908,2710,2566,2757
167495,5388,-19172,33824,33824,-3800,-3800,-164,340,-149,-877,203,-4218,-28,-413,898,2258,2466,2853,3060,2908,2710,2566,2757
168496,5416,-18428,34088,34088,-3800,-3800,-153,210,-114,-102,189,-4291,-22,-411,897,2258,2466,2853,3060,2908,2710,2566,2757
169497,5416,-17772,34352,34352,-3800,-3800,-185,79,-139,-28,-32,-4303,-21,-400,898,2262,2480,2868,3112,2996,2824,2662,2840
170498,5404,-17064,34616,34616,-3800,-3800,-187,-106,-126,-1353,-222,-4907,-21,-392,896,2262,2480,2868,3112,2996,2824,2662,2840
171499,5408,-16404,34880,34880,-3800,-3800,-205,-317,-108,-1960,87,-5051,-20,-412,896,2262,2480,2868,3112,2996,2824,2662,2840
172500,5408,-15700,35144,35144,-3800,-3800,-167,-256,-57,-418,121,-4216,-24,-391,897,2262,2480,2868,3112,2996,2824,2662,2840
173501,5416,-14908,35408,35408,-3800,-3800,-181,-328,7,509,167,-3964,-22,-412,886,2262,2480,2868,3112,2996,2824,2662,2840
174502,5408,-14212,35672,35672,-3800,-3800,-125,-308,27,-380,-2,-4107,-21,-412,895,2262,2480,2868,3112,2996,2824,2662,2840
175503,5420,-13524,35936,35936,-3800,-3800,-110,-312,62,-346,90,-3535,-28,-390,896,2273,2515,2906,3138,3144,2952,2789,2993
176504,5412,-12716,36200,36200,-3800,-3800,-128,-326,58,-329,-201,-3354,-32,-413,895,2273,2515,2906,3138,3144,2952,2789,2993
177505,5392,-12024,36464,36464,-3800,-3800,-135,-206,104,604,144,-4510,-27,-391,890,2273,2515,2906,3138,3144,2952,2789,2993
178506,5424,-11148,36728,36728,-3800,-3800,-111,-102,177,875,153,-3717,-24,-411,895,2273,2515,2906,3138,3144,2952,2789,2993
179507,5412,-10436,36992,36992,-3800,-3800,-156,20,202,516,144,-3978,-24,-413,896,2273,2515,2906,3138,3144,2952,2789,2993
180508,5404,-9672,37256,37256,-3800,-3800,-177,195,185,1011,134,-4498,-21,-402,897,2336,2593,2981,3215,3275,3086,2906,3119
181509,5404,-8876,37520,37520,-3800,-3800,-194,241,198,1231,470,-4285,-24,-418,893,2336,2593,2981,3215,3275,3086,2906,3119
182510,5408,-8136,37784,37784,-3800,-3800,-172,215,250,336,296,-3586,-21,-415,898,2336,2593,2981,3215,3275,3086,2906,3119
183511,5400,-7336,38048,38048,-3800,-3800,-214,181,264,172,48,-4915,-23,-404,897,2336,2593,2981,3215,3275,3086,2906,3119
184512,5408,-6448,38312,38312,-3800,-3800,-221,42,257,-408,648,-4677,-27,-401,897,2336,2593,2981,3215,3275,3086,2906,3119
185513,5420,-5700,38576,38576,-3800,-3800,-218,-131,292,106,346,-4178,-38,-413,895,2336,2593,2981,3215,3275,3086,2906,3119
186514,5408,-4888,38840,38840,-3800,-3800,-215,-125,258,959,336,-5154,-36,-409,897,2411,2643,3057,3331,3470,3280,3040,3280
187515,5416,-4104,39104,39104,-3800,-3800,-269,-242,207,22,162,-4980,-31,-405,897,2411,2643,3057,3331,3470,3280,3040,3280
188516,5404,-3320,39368,39368,-3800,-3800,-287,-271,164,-600,172,-4120,-27,-401,898,2411,2643,3057,3331,3470,3280,3040,3280
189517,5404,-2484,39632,39632,-3800,-3800,-244,-244,150,-432,-292,-3902,-20,-411,894,2411,2643,3057,3331,3470,3280,3040,3280
190518,5408,-1684,39896,39896,-3800,-3800,-114,-127,133,1954,-40,-4786,-24,-398,897,2411,2643,3057,3331,3470,3280,3040,3280
191519,5412,-964,40160,40160,-3800,-3800,44,-50,90,2707,-777,-3777,-24,-409,897,2463,2689,3154,3361,3691,3458,3153,3420
192520,5400,-204,40424,40424,-3800,-3800,131,125,-23,1387,-431,-3807,-28,-406,897,2463,2689,3154,3361,3691,3458,3153,3420
193521,5412,512,40688,40688,-3800,-3800,231,144,-48,-116,-339,-4240,-28,-403,895,2463,2689,3154,3361,3691,3458,3153,3420
194522,5412,1300,40952,40952,-3800,-3800,343,188,-50,261,-455,-4293,-39,-390,897,2463,2689,3154,3361,3691,3458,3153,3420
195523,5388,1980,41216,41216,-3800,-3800,438,246,-65,1237,-129,-4446,-32,-414,898,2463,2689,3154,3361,3691,3458,3153,3420
196524,5404,2732,41480,41480,-3800,-3800,430,162,-121,480,-145,-4494,-34,-411,897,2463,2689,3154,3361,3691,3458,3153,3420
197525,5400,3368,41744,41744,-3800,-3800,415,-86,-122,-1129,117,-5416,-29,-417,897,2540,2788,3269,3531,3623,3411,3123,3314
198526,5396,4052,42008,42008,-3800,-3800,386,-287,-135,-1929,542,-4745,-23,-406,897,2540,2788,3269,3531,3623,3411,3123,3314
199527,5388,4704,42272,42272,-3800,-3800,275,-447,-118,-942,386,-5329,-21,-401,897,2540,2788,3269,3531,3623,3411,3123,3314
200528,5400,5412,42536,42536,-3800,-3800,209,-600,-89,-75,362,-6312,-24,-391,898,2540,2788,3269,3531,3623,3411,3123,3314
201529,5388,6068,42800,42800,-3800,-3800,153,-761,-27,-153,912,-5319,-32,-404,896,2540,2788,3269,3531,3623,3411,3123,3314
202530,5388,6676,43064,43064,-3800,-3800,87,-675,-14,-36,746,-4951,-38,-396,898,2708,2970,3410,3702,3495,3280,3087,3311
203531,5392,7348,43328,43328,-3800,-3800,-47,-559,6,946,858,-5106,-34,-418,896,2708,2970,3410,3702,3495,3280,3087,3311
204532,5392,8024,43592,43592,-3800,-3800,-93,-406,28,763,1104,-4265,-25,-393,896,2708,2970,3410,3702,3495,3280,3087,3311
205533,5396,8700,43856,43856,-3800,-3800,-147,-242,48,251,1140,-3988,-28,-395,897,2708,2970,3410,3702,3495,3280,3087,3311
206534,5380,9316,44120,44120,-3800,-3800,-167,-147,71,74,697,-3822,-22,-395,897,2708,2970,3410,3702,3495,3280,3087,3311
207535,5396,9948,44384,44384,-3800,-3800,-116,-9,109,1218,510,-5383,-22,-416,896,2708,2970,3410,3702,3495,3280,3087,3311
208536,5388,10596,44648,44648,-3800,-3800,-40,105,116,1966,510,-4493,-21,-398,897,2736,3020,3408,3601,3473,3218,3021,3301
209537,5380,11156,44912,44912,-3800,-3800,12,76,175,748,118,-5065,-22,-402,896,2736,3020,3408,3601,3473,3218,3021,3301
210538,5388,11868,45176,45176,-3800,-3800,81,137,187,495,-151,-5130,-26,-403,897,2736,3020,3408,3601,3473,3218,3021,3301
211539,5380,12448,45440,45440,-3800,-3800,123,236,187,829,-360,-4719,-33,-419,897,2736,3020,3408,3601,3473,3218,3021,3301
212540,5384,13104,45704,45704,-3800,-3800,178,243,231,-582,-196,-3766,-38,-415,898,2736,3020,3408,3601,3473,3218,3021,3301
213541,5384,13720,45968,45968,-3800,-3800,167,183,228,-1014,-419,-4172,-36,-402,896,2636,2912,3339,3478,3318,3043,2808,3072
214542,5392,14356,46232,46232,-3800,-3800,203,261,175,489,-940,-4618,-35,-392,897,2636,2912,3339,3478,3318,3043,2808,3072
215543,5380,14988,46496,46496,-3800,-3800,254,123,179,602,-988,-4315,-23,-395,898,2636,2912,3339,3478,3318,3043,2808,3072
216544,5380,15704,46760,46760,-3800,-3800,278,-26,159,-407,-1273,-4363,-23,-404,897,2636,2912,3339,3478,3318,3043,2808,3072
217545,5380,16340,47024,47024,-3800,-3800,321,51,96,-519,-1050,-5650,-23,-407,897,2636,2912,3339,3478,3318,3043,2808,3072
218546,5380,17004,47288,47288,-3800,-3800,393,-40,28,-654,-1330,-3871,-21,-415,898,2636,2912,3339,3478,3318,3043,2808,3072
219547,5384,17612,47552,47552,-3800,-3800,431,-200,-155,-911,-893,-4029,-21,-406,897,2562,2822,3267,3406,3058,2771,2591,2823
220548,5380,18348,47816,47816,-3800,-3800,410,-215,-220,-101,-871,-4697,-21,-398,898,2562,2822,3267,3406,3058,2771,2591,2823
221549,5388,19088,48080,48080,-3800,-3800,396,-314,-233,-520,71,-3214,-20,-412,896,2562,2822,3267,3406,3058,2771,2591,2823
222550,5380,19828,48344,48344,-3800,-3800,303,-244,-275,-143,-650,-5459,-20,-415,897,2562,2822,3267,3406,3058,2771,2591,2823
223551,5384,20488,48608,48608,-3800,-3800,220,-251,-340,-511,20,-3768,-21,-409,895,2562,2822,3267,3406,3058,2771,2591,2823
224552,5380,21240,48872,48872,-3800,-3800,111,-157,-343,-1643,409,-4144,-21,-412,895,2541,2803,3178,3352,2776,2526,2440,2654
225553,5376,21952,49152,49152,-3800,-3800,27,-43,-275,-409,587,-4008,-25,-387,897,2541,2803,3178,3352,2776,2526,2440,2654
226554,5368,22768,49416,49416,-3800,-3800,-19,-8,-250,-160,301,-4267,-36,-403,888,2541,2803,3178,3352,2776,2526,2440,2654
227555,5372,23492,49680,49680,-3800,-3800,-60,15,-216,-173,805,-3165,-37,-412,895,2541,2803,3178,3352,2776,2526,2440,2654
228556,5376,24276,49944,49944,-3800,-3800,-65,12,-161,-719,465,-3614,-38,-415,897,2541,2803,3178,3352,2776,2526,2440,2654
229557,5372,24992,50208,50208,-3800,-3800,-56,-48,-96,-617,509,-4184,-37,-399,896,2541,2803,3178,3352,2776,2526,2440,2654
230558,5364,25728,50472,50472,-3800,-3800,-5,2,-20,600,284,-3668,-33,-411,890,2489,2745,3057,3227,2627,2409,2361,2554
231559,5384,26512,50736,50736,-3800,-3800,-43,62,-3,638,-747,-3578,-29,-398,897,2489,2745,3057,3227,2627,2409,2361,2554
232560,5376,27324,51000,51000,-3800,-3800,-67,123,5,-663,48,-4096,-22,-393,896,2489,2745,3057,3227,2627,2409,2361,2554
233561,5380,28116,51264,51264,-3800,-3800,-68,318,57,-400,-258,-3460,-27,-402,896,2489,2745,3057,3227,2627,2409,2361,2554
234562,5372,28896,51528,51528,-3800,-3800,-88,373,124,756,-633,-2621,-28,-416,892,2489,2745,3057,3227,2627,2409,2361,2554
235563,5372,29632,51792,51792,-3800,-3800,-167,449,139,787,-711,-3420,-34,-415,896,2408,2652,2972,3141,2547,2363,2302,2495
236564,5368,30392,52056,52056,-3800,-3800,-227,492,133,555,-599,-3225,-35,-404,897,2408,2652,2972,3141,2547,2363,2302,2495
237565,5364,31200,52320,52320,-3800,-3800,-241,512,171,279,-236,-3179,-35,-396,895,2408,2652,2972,3141,2547,2363,2302,2495
238566,5372,31924,52584,52584,-3800,-3800,-280,455,197,483,-801,-3566,-38,-410,894,2408,2652,2972,3141,2547,2363,2302,2495
239567,5364,32720,52848,52848,-3800,-3800,-277,470,138,969,-624,-4130,-38,-387,896,2408,2652,2972,3141,2547,2363,2302,2495
240568,5368,33428,53112,53112,-3800,-3800,-240,399,133,681,-628,-3673,-38,-411,896,2408,2652,2972,3141,2547,2363,2302,2495
241569,5376,34156,53376,53376,-3800,-3800,-248,257,108,421,-1089,-3823,-33,-388,895,2363,2566,2938,3125,2632,2461,2366,2579
242570,5368,34952,53640,53640,-3800,-3800,-244,221,66,566,-649,-4336,-24,-417,894,2363,2566,2938,3125,2632,2461,2366,2579
243571,5368,35688,53904,53904,-3800,-3800,-192,154,37,138,-662,-3624,-27,-415,895,2363,2566,2938,3125,2632,2461,2366,2579
244572,5372,36364,54168,54168,-3800,-3800,-191,174,-14,832,-1284,-3990,-21,-409,897,2363,2566,2938,3125,2632,2461,2366,2579
245575,5380,37076,54432,54432,-3800,-3800,-156,131,-39,1167,-361,-4205,-21,-396,896,2363,2566,2938,3125,2632,2461,2366,2579
246574,5376,37832,54696,54696,-3800,-3800,-132,151,-88,417,-820,-3866,-29,-399,895,2352,2552,2969,3328,2820,2635,2510,2738
247575,5376,38448,54960,54960,-3800,-3800,-118,130,-96,-67,-10,-3336,-32,-403,897,2352,2552,2969,3328,2820,2635,2510,2738
248576,5392,39180,55224,55224,-3800,-3800,-126,114,-131,212,-133,-4415,-39,-405,897,2352,2552,2969,3328,2820,2635,2510,2738
249577,5392,39784,55488,55488,-3800,-3800,-97,138,-133,634,106,-4051,-39,-411,897,2352,2552,2969,3328,2820,2635,2510,2738
250578,5388,40512,55752,55752,-3800,-3800,-106,88,-150,406,121,-3792,-38,-396,896,2352,2552,2969,3328,2820,2635,2510,2738
251579,5396,41096,56016,56016,-3800,-3800,-139,74,-172,19,287,-5046,-27,-415,897,2352,2552,2969,3328,2820,2635,2510,2738
252580,5384,41740,56280,56280,-3800,-3800,-151,152,-188,764,116,-5128,-20,-414,896,2403,2626,3045,3298,2954,2787,2655,2851
253581,5384,42476,56544,56544,-3800,-3800,-183,185,-161,1553,193,-4730,-22,-413,897,2403,2626,3045,3298,2954,2787,2655,2851
254582,5392,43072,56808,56808,-3800,-3800,-216,258,-150,1525,230,-4772,-25,-400,897,2403,2626,3045,3298,2954,2787,2655,2851
255583,5388,43784,57072,57072,-3800,-3800,-269,205,-108,607,91,-5039,-37,-397,897,2403,2626,3045,3298,2954,2787,2655,2851
256584,5384,44444,57336,57336,-3800,-3800,-278,243,-71,-392,422,-4930,-37,-416,897,2403,2626,3045,3298,2954,2787,2655,2851
257585,5392,45068,57600,57600,-3800,-3800,-351,233,-55,-933,474,-4190,-36,-395,895,2504,2730,3131,3420,3095,2942,2797,2966
258586,5404,45812,57864,57864,-3800,-3800,-398,230,-20,-969,1115,-5295,-27,-415,895,2504,2730,3131,3420,3095,2942,2797,2966
259587,5396,46492,58128,58128,-3800,-3800,-381,114,59,-789,484,-5125,-33,-413,897,2504,2730,3131,3420,3095,2942,2797,2966
260588,5396,47228,58392,58392,-3800,-3800,-354,-109,102,631,406,-5655,-21,-400,896,2504,2730,3131,3420,3095,2942,2797,2966
261589,5408,47840,58656,58656,-3800,-3800,-380,-355,96,111,-254,-5744,-24,-386,898,2504,2730,3131,3420,3095,2942,2797,2966
262590,5420,48648,58920,58920,-3800,-3800,-370,-552,91,-1370,491,-5944,-21,-416,895,2504,2730,3131,3420,3095,2942,2797,2966
263591,5416,49296,59184,59184,-3800,-3800,-317,-637,162,-1475,374,-5081,-22,-392,896,2466,2700,3106,3384,3316,3140,2936,3138
264592,5408,50076,59448,59448,-3800,-3800,-300,-620,194,285,1,-3929,-35,-372,897,2466,2700,3106,3384,3316,3140,2936,3138
265593,5408,50768,59712,59712,-3800,-3800,-283,-524,163,273,-309,-3789,-23,-391,897,2466,2700,3106,3384,3316,3140,2936,3138
266594,5412,51540,59976,59976,-3800,-3800,-273,-441,140,-186,-474,-3412,-23,-410,896,2466,2700,3106,3384,3316,3140,2936,3138
267595,5408,52304,60240,60240,-3800,-3800,-274,-306,140,517,-174,-3227,-22,-397,897,2466,2700,3106,3384,3316,3140,2936,3138
268596,5416,53060,60504,60504,-3800,-3800,-318,-203,127,753,-340,-3328,-25,-416,896,2366,2631,3025,3211,3446,3188,2980,3238
269597,5416,53892,60768,60768,-3800,-3800,-358,-3,75,167,-413,-4013,-27,-395,897,2366,2631,3025,3211,3446,3188,2980,3238
270598,5412,54692,61032,61032,-3800,-3800,-346,160,50,438,-420,-3791,-22,-399,897,2366,2631,3025,3211,3446,3188,2980,3238
271599,5404,55456,61296,61296,-3800,-3800,-370,134,13,233,-523,-4054,-21,-394,898,2366,2631,3025,3211,3446,3188,2980,3238
272600,5408,56180,61560,61560,-3800,-3800,-334,232,-14,354,-362,-5201,-31,-419,897,2366,2631,3025,3211,3446,3188,2980,3238
273601,5400,57052,61824,61824,-3800,-1329,-290,181,-23,-112,-208,-4686,-33,-408,897,2336,2597,3010,3200,3529,3285,3019,3245
274602,5412,57916,62088,62088,-3800,-698,-254,-29,-23,-1999,17,-4559,-35,-384,896,2336,2597,3010,3200,3529,3285,3019,3245
275603,5404,58680,62352,62352,-3800,-1340,-252,-283,-27,-2011,-24,-4800,-34,-381,934,2336,2597,3010,3200,3529,3285,3019,3245
276604,5408,59404,62616,62616,-3800,-1279,-197,-416,-12,22,369,-4803,-34,-385,900,2336,2597,3010,3200,3529,3285,3019,3245
277605,5416,60196,62880,62880,-3800,214,-240,-526,-57,539,-220,-3955,-31,-376,899,2336,2597,3010,3200,3529,3285,3019,3245
278606,5412,60976,63144,63144,-3800,693,-264,-605,-62,-1252,521,-4463,-21,-371,899,2336,2597,3010,3200,3529,3285,3019,3245
279607,5408,61824,63408,63408,-3800,2255,-251,-571,-11,-1181,504,-4212,-30,-369,892,2340,2572,3027,3270,3546,3337,3056,3333
280608,5400,62584,63672,63672,-3800,1759,-167,-445,20,288,-132,-3021,-18,-364,895,2340,2572,3027,3270,3546,3337,3056,3333
281609,5404,63216,63936,63936,-3800,609,-69,-223,27,1889,-39,-4132,-4,-320,878,2340,2572,3027,3270,3546,3337,3056,3333
282610,5416,63832,64200,64200,-3800,838,125,-8,72,2464,138,-3999,-2,-299,880,2340,2572,3027,3270,3546,3337,3056,3333
283611,5400,64400,64464,64464,-3800,608,268,194,151,1871,345,-3290,-9,-271,890,2340,2572,3027,3270,3546,3337,3056,3333
284612,5404,64932,64728,64728,-3800,486,386,409,186,1522,621,-4226,-9,-266,893,2366,2592,3024,3207,3612,3356,3095,3316
285613,5404,65452,64992,64992,-3800,649,507,527,203,667,128,-3185,-4,-263,895,2366,2592,3024,3207,3612,3356,3095,3316
286614,5408,66016,65256,65256,-3800,1565,582,576,228,11,1180,-3872,-19,-263,896,2366,2592,3024,3207,3612,3356,3095,3316
287615,5404,66448,65536,65536,-3800,101,590,576,255,887,613,-4080,-17,-232,892,2366,2592,3024,3207,3612,3356,3095,3316
288616,5404,66888,65800,65800,-3800,416,569,396,273,142,1261,-4623,-2,-229,884,2366,2592,3024,3207,3612,3356,3095,3316
289617,5388,67316,66064,66064,-3800,467,466,72,252,-1177,1180,-4193,-11,-220,899,2366,2592,3024,3207,3612,3356,3095,3316
290618,5400,67796,66328,66328,-3800,1380,390,-109,206,-1573,1415,-5063,-19,-212,897,2381,2616,3024,3301,3366,3148,2936,3088
291619,5408,68152,66592,66592,-3800,-56,257,-283,138,170,700,-5468,0,-216,894,2381,2616,3024,3301,3366,3148,2936,3088
292620,5408,68556,66856,66856,-3800,715,167,-476,108,-65,1369,-6168,2,-188,887,2381,2616,3024,3301,3366,3148,2936,3088
293621,5400,68920,67120,67120,-3800,338,75,-654,60,-51,982,-4954,-18,-197,899,2381,2616,3024,3301,3366,3148,2936,3088
294622,5408,69284,67384,67384,-3800,461,-27,-537,-17,-516,279,-5551,-5,-187,895,2381,2616,3024,3301,3366,3148,2936,3088
295623,5392,69672,67648,67648,-3800,912,-99,-350,-74,904,-1,-4741,-13,-186,896,2490,2722,3108,3355,3290,3034,2874,3107
296624,5392,69972,67912,67912,-3800,-143,-181,-263,-118,1316,-791,-3731,26,-181,897,2490,2722,3108,3355,3290,3034,2874,3107
297625,5388,70248,68176,68176,-3800,-427,-157,-36,-142,407,282,-2918,-17,-178,893,2490,2722,3108,3355,3290,3034,2874,3107
298626,5408,70588,68440,68440,-3800,467,-64,41,-169,1103,331,-3400,-17,-180,899,2490,2722,3108,3355,3290,3034,2874,3107
299627,5392,70848,68704,68704,-3800,-537,18,18,-214,279,-215,-2972,0,-176,897,2490,2722,3108,3355,3290,3034,2874,3107
300628,5388,71148,68968,68968,-3800,7,113,72,-245,-390,-454,-4590,-17,-177,897,2490,2722,3108,3355,3290,3034,2874,3107
301629,5396,71496,69232,69232,-3800,710,225,12,-221,-260,-686,-4185,-1,-176,899,2416,2677,3055,3191,3295,3009,2816,3103
302630,5396,71784,69496,69496,-3800,-10,290,-65,-178,-82,-852,-4519,1,-161,900,2416,2677,3055,3191,3295,3009,2816,3103
303631,5388,72044,69760,69760,-3800,-363,332,-39,-149,294,-1175,-4805,-3,-159,895,2416,2677,3055,3191,3295,3009,2816,3103
304632,5384,72348,70024,70024,-3800,236,346,-130,-130,-108,-846,-4651,-7,-152,900,2416,2677,3055,3191,3295,3009,2816,3103
305633,5380,72628,70288,70288,-3800,-43,332,-295,-93,-683,-999,-3412,-15,-163,899,2416,2677,3055,3191,3295,3009,2816,3103
306634,5384,72892,70552,70552,-3800,-242,301,-226,-52,-399,-993,-4069,-5,-162,899,2419,2715,3135,3283,3115,2851,2682,2932
307635,5376,73176,70816,70816,-3800,33,288,-171,-4,-141,-795,-4230,-7,-150,899,2419,2715,3135,3283,3115,2851,2682,2932
308636,5380,73472,71080,71080,-3800,223,249,-240,39,400,-756,-3762,0,-159,899,2419,2715,3135,3283,3115,2851,2682,2932
309637,5380,73712,71344,71344,-3800,-506,216,-183,59,417,-768,-3858,-12,-159,899,2419,2715,3135,3283,3115,2851,2682,2932
310638,5376,73980,71608,71608,-3800,-150,199,-48,91,-271,-732,-4576,-11,-155,899,2419,2715,3135,3283,3115,2851,2682,2932
311639,5388,74300,71872,71872,-3800,569,205,-3,126,7,-465,-4083,-13,-147,898,2419,2715,3135,3283,3115,2851,2682,2932
312640,5384,74548,72136,72136,-3800,-349,195,-11,146,130,-364,-3605,-10,-153,900,2539,2815,3230,3396,2944,2719,2596,2831
313641,5392,74756,72400,72400,-3800,-917,200,82,153,-232,-438,-4218,-7,-152,896,2539,2815,3230,3396,2944,2719,2596,2831
314642,5368,74972,72664,72664,-3800,-874,212,124,146,-313,-101,-4276,-5,-152,899,2539,2815,3230,3396,2944,2719,2596,2831
315643,5392,75224,72928,72928,-3800,-438,220,113,153,387,-66,-4298,-3,-158,896,2539,2815,3230,3396,2944,2719,2596,2831
316644,5384,75460,73192,73192,-3800,-671,206,75,133,-65,50,-3895,-19,-152,897,2539,2815,3230,3396,2944,2719,2596,2831
317645,5388,75696,73456,73456,-3800,-704,179,139,115,-839,243,-4803,-15,-147,899,2602,2892,3253,3435,2875,2649,2560,2785
318646,5380,75972,73720,73720,-3800,-189,151,139,104,-219,189,-4549,-3,-156,898,2602,2892,3253,3435,2875,2649,2560,2785
319647,5380,76216,73984,73984,-3800,-613,88,22,85,-401,293,-3737,-2,-155,897,2602,2892,3253,3435,2875,2649,2560,2785
320648,5372,76456,74248,74248,-3800,-691,14,30,48,-1639,407,-3803,2,-155,900,2602,2892,3253,3435,2875,2649,2560,2785
321649,5380,76720,74512,74512,-3800,-390,-33,103,13,-926,306,-4963,-10,-143,898,2602,2892,3253,3435,2875,2649,2560,2785
322650,5380,76992,74776,74776,-3800,-279,-74,-15,-2,739,432,-4601,-14,-163,898,2602,2892,3253,3435,2875,2649,2560,2785
323651,5380,77252,75040,75040,-3800,-433,-125,-99,-15,891,438,-4302,-18,-147,899,2615,2907,3231,3399,2871,2633,2575,2815
324652,5364,77492,75304,75304,-3800,-712,-167,-36,-43,-273,94,-4787,-10,-161,899,2615,2907,3231,3399,2871,2633,2575,2815
325653,5360,77732,75568,75568,-3800,-741,-198,-8,-70,-388,234,-4597,-16,-149,898,2615,2907,3231,3399,2871,2633,2575,2815
326654,5368,77964,75832,75832,-3800,-879,-236,4,-78,729,94,-3426,-13,-161,897,2615,2907,3231,3399,2871,2633,2575,2815
327655,5380,78268,76096,76096,-3800,71,-267,142,-73,212,-3,-3892,-3,-166,897,2615,2907,3231,3399,2871,2633,2575,2815
328656,5376,78548,76360,76360,-3800,-209,-277,246,-81,20,-184,-3914,-18,-162,911,2601,2890,3218,3368,2928,2683,2604,2870
329657,5368,78816,76624,76624,-3800,-353,-276,204,-86,75,-232,-3830,-8,-165,899,2601,2890,3218,3368,2928,2683,2604,2870
330658,5372,79032,76888,76888,-3800,-1060,-267,196,-77,620,-562,-3738,-1,-148,900,2601,2890,3218,3368,2928,2683,2604,2870
331659,5380,79304,77152,77152,-3800,-351,-245,261,-66,1067,-1127,-5045,-1,-168,899,2601,2890,3218,3368,2928,2683,2604,2870
332660,5376,79592,77416,77416,-3800,-120,-202,163,-39,536,-764,-4304,-18,-157,889,2601,2890,3218,3368,2928,2683,2604,2870
333661,5376,79872,77680,77680,-3800,-200,-157,68,-16,-312,-676,-3421,0,-154,899,2601,2890,3218,3368,2928,2683,2604,2870
334662,5364,80148,77944,77944,-3800,-234,-124,141,-23,-512,-1190,-4020,-15,-160,900,2521,2800,3173,3301,2987,2755,2622,2890
335663,5368,80416,78208,78208,-3800,-328,-91,174,-1,62,-868,-4476,-17,-145,899,2521,2800,3173,3301,2987,2755,2622,2890
336664,5372,80680,78472,78472,-3800,-377,-41,105,47,1153,-649,-3891,-13,-165,894,2521,2800,3173,3301,2987,2755,2622,2890
337665,5372,80948,78736,78736,-3800,-322,-15,87,41,814,-704,-3671,-15,-159,899,2521,2800,3173,3301,2987,2755,2622,2890
338666,5368,81260,79000,79000,-3800,287,8,137,41,-313,-767,-4666,-13,-155,899,2521,2800,3173,3301,2987,2755,2622,2890
339667,5372,81528,79264,79264,-3800,-257,34,109,71,70,-256,-4530,-5,-149,899,2487,2762,3159,3311,3035,2811,2674,2935
340668,5372,81776,79528,79528,-3800,-525,36,75,82,1009,-148,-3901,-2,-150,895,2487,2762,3159,3311,3035,2811,2674,2935
341669,5372,82024,79792,79792,-3800,-544,7,150,60,590,-202,-4273,-2,-141,899,2487,2762,3159,3311,3035,2811,2674,2935
342670,5364,82280,80056,80056,-3800,-453,-21,213,49,-34,54,-4632,-5,-137,898,2487,2762,3159,3311,3035,2811,2674,2935
343671,5376,82544,80320,80320,-3800,-352,-49,206,51,-145,334,-3919,-14,-147,898,2487,2762,3159,3311,3035,2811,2674,2935
344672,5372,82820,80584,80584,-3800,-187,-112,209,53,374,486,-4017,-17,-151,897,2487,2762,3159,3311,3035,2811,2674,2935
345673,5380,83056,80848,80848,-3800,-720,-152,287,41,-73,367,-4683,-17,-148,899,2523,2792,3165,3351,3049,2835,2719,2951
346674,5376,83336,81112,81112,-3800,-150,-183,274,19,-153,455,-4921,-1,-133,900,2523,2792,3165,3351,3049,2835,2719,2951
347675,5372,83616,81376,81376,-3800,-129,-214,185,3,52,564,-4226,-5,-156,898,2523,2792,3165,3351,3049,2835,2719,2951
348676,5360,83876,81640,81640,-3800,-383,-249,148,-10,-1074,646,-4099,-15,-147,898,2523,2792,3165,3351,3049,2835,2719,2951
349677,5372,84164,81920,81920,-3800,-22,-270,216,-33,-980,367,-4797,-10,-145,899,2523,2792,3165,3351,3049,2835,2719,2951
350678,5352,84424,82184,82184,-3800,-376,-274,198,-59,340,340,-4723,-5,-143,899,2509,2753,3136,3349,3143,2922,2778,2995
351679,5376,84680,82448,82448,-3800,-436,-282,147,-64,619,411,-4319,-10,-142,900,2509,2753,3136,3349,3143,2922,2778,2995
352680,5376,84928,82712,82712,-3800,-554,-288,158,-63,-489,210,-4138,-13,-137,898,2509,2753,3136,3349,3143,2922,2778,2995
353681,5380,85196,82976,82976,-3800,-299,-292,259,-84,-1169,108,-4547,-13,-136,899,2509,2753,3136,3349,3143,2922,2778,2995
354682,5376,85464,83240,83240,-3800,-293,-284,311,-91,157,73,-4511,-6,-143,898,2509,2753,3136,3349,3143,2922,2778,2995
355683,5372,85728,83504,83504,-3800,-342,-274,267,-78,294,41,-3804,-10,-147,899,2509,2753,3136,3349,3143,2922,2778,2995
356684,5376,85988,83768,83768,-3800,-396,-263,242,-59,-656,-117,-4192,-3,-136,898,2435,2685,3076,3276,3240,3024,2818,3045
357685,5356,86248,84032,84032,-3800,-400,-232,275,-47,-886,-221,-4770,-16,-134,899,2435,2685,3076,3276,3240,3024,2818,3045
358686,5368,86496,84296,84296,-3800,-569,-184,212,-32,295,-279,-4441,1,-123,899,2435,2685,3076,3276,3240,3024,2818,3045
359687,5368,86776,84560,84560,-3800,-148,-143,84,-18,222,-243,-4061,-16,-132,899,2435,2685,3076,3276,3240,3024,2818,3045
360688,5368,87032,84824,84824,-3800,-457,-108,86,-11,-571,-557,-4130,-9,-133,897,2435,2685,3076,3276,3240,3024,2818,3045
361689,5368,87284,85088,85088,-3800,-521,-61,150,7,-361,-439,-4499,-12,-132,900,2365,2591,3021,3229,3305,3101,2853,3071
362690,5364,87532,85352,85352,-3800,-589,-21,134,12,667,-400,-4164,-3,-124,899,2365,2591,3021,3229,3305,3101,2853,3071
363691,5368,87772,85616,85616,-3800,-718,-1,56,8,752,-243,-3841,-17,-142,898,2365,2591,3021,3229,3305,3101,2853,3071
364692,5380,88072,85880,85880,-3800,76,8,18,30,45,-259,-3879,1,-136,898,2365,2591,3021,3229,3305,3101,2853,3071
365693,5372,88376,86144,86144,-3800,176,40,91,57,-83,-52,-4225,-16,-122,898,2365,2591,3021,3229,3305,3101,2853,3071
366694,5368,88604,86408,86408,-3800,-817,83,162,59,1344,-160,-4433,-13,-119,900,2365,2591,3021,3229,3305,3101,2853,3071
367695,5364,88844,86672,86672,-3800,-695,92,139,40,1595,-44,-4241,3,-126,899,2335,2549,2984,3204,3300,3098,2857,3057
368696,5368,89092,86936,86936,-3800,-614,91,136,43,512,116,-4052,-6,-113,896,2335,2549,2984,3204,3300,3098,2857,3057
369697,5376,89348,87200,87200,-3800,-522,95,190,57,316,268,-4247,-11,-131,897,2335,2549,2984,3204,3300,3098,2857,3057
370698,5380,89644,87464,87464,-3800,17,94,236,60,517,432,-4288,-3,-115,898,2335,2549,2984,3204,3300,3098,2857,3057
371699,5380,89896,87728,87728,-3800,-547,102,225,59,574,542,-3853,-17,-127,898,2335,2549,2984,3204,3300,3098,2857,3057
372700,5372,90112,87992,87992,-3800,-1055,79,216,36,307,271,-4320,-4,-110,900,2332,2540,2960,3210,3264,3069,2850,3024
373701,5368,90368,88256,88256,-3800,-563,53,261,14,410,468,-4772,1,-117,898,2332,2540,2960,3210,3264,3069,2850,3024
374702,5384,90596,88520,88520,-3800,-956,43,216,-1,427,708,-4471,-9,-123,895,2332,2540,2960,3210,3264,3069,2850,3024
375703,5368,90868,88784,88784,-3800,-397,46,147,-9,327,661,-4360,-16,-130,898,2332,2540,2960,3210,3264,3069,2850,3024
376704,5368,91132,89048,89048,-3800,-496,32,81,-29,372,556,-4194,-2,-119,895,2332,2540,2960,3210,3264,3069,2850,3024
377705,5368,91372,89312,89312,-3800,-824,17,88,-47,-32,448,-4536,-15,-130,898,2332,2540,2960,3210,3264,3069,2850,3024
378706,5376,91628,89576,89576,-3800,-633,8,111,-69,16,476,-4569,-13,-131,898,2359,2548,2972,3254,3229,3045,2823,2966
379707,5364,91896,89840,89840,-3800,-477,26,65,-70,259,596,-4252,0,-122,897,2359,2548,2972,3254,3229,3045,2823,2966
380708,5380,92140,90104,90104,-3800,-801,55,-31,-53,15,583,-4063,-17,-138,898,2359,2548,2972,3254,3229,3045,2823,2966
381709,5372,92436,90368,90368,-3800,-111,78,-91,-52,-68,288,-4211,-5,-131,895,2359,2548,2972,3254,3229,3045,2823,2966
382710,5376,92704,90632,90632,-3800,-455,74,-68,-81,-174,22,-4457,-10,-118,897,2359,2548,2972,3254,3229,3045,2823,2966
383711,5380,92980,90896,90896,-3800,-340,75,-78,-83,-91,24,-4355,-15,-128,900,2356,2541,2980,3257,3163,3001,2769,2935
384712,5376,93244,91160,91160,-3800,-489,87,-109,-57,-108,47,-3809,-17,-130,899,2356,2541,2980,3257,3163,3001,2769,2935
385713,5376,93480,91424,91424,-3800,-873,89,-65,-36,370,-169,-4154,-14,-127,892,2356,2541,2980,3257,3163,3001,2769,2935
386714,5376,93748,91688,91688,-3800,-467,76,-22,-53,391,-458,-4144,2,-128,899,2356,2541,2980,3257,3163,3001,2769,2935
387715,5384,94020,91952,91952,-3800,-406,73,-18,-55,152,-404,-4311,-18,-137,897,2356,2541,2980,3257,3163,3001,2769,2935
388716,5368,94292,92216,92216,-3800,-395,92,-87,-17,226,-212,-3748,1,-124,898,2356,2541,2980,3257,3163,3001,2769,2935
389717,5376,94544,92480,92480,-3800,-659,130,-98,19,143,-394,-3830,-13,-138,894,2376,2559,3024,3288,3118,2951,2721,2905
390718,5380,94800,92744,92744,-3800,-619,147,-33,19,409,-779,-4243,-1,-114,899,2376,2559,3024,3288,3118,2951,2721,2905
391719,5372,95052,93008,93008,-3800,-682,163,7,8,421,-774,-4527,-12,-137,897,2376,2559,3024,3288,3118,2951,2721,2905
392720,5376,95364,93272,93272,-3800,127,177,-27,36,142,-352,-3895,-1,-134,898,2376,2559,3024,3288,3118,2951,2721,2905
393721,5372,95616,93536,93536,-3800,-636,205,-32,89,-224,-167,-3804,-17,-137,894,2376,2559,3024,3288,3118,2951,2721,2905
394722,5380,95864,93800,93800,-3800,-706,218,-30,94,-30,-438,-3978,-14,-131,899,2417,2610,3083,3348,3065,2899,2683,2867
395723,5376,96144,94064,94064,-3800,-285,199,4,65,304,-517,-4514,-7,-128,898,2417,2610,3083,3348,3065,2899,2683,2867
396724,5380,96392,94328,94328,-3800,-704,193,-74,91,193,-58,-4432,-15,-134,897,2417,2610,3083,3348,3065,2899,2683,2867
397725,5380,96688,94592,94592,-3800,-64,185,-160,119,270,-14,-4256,-11,-133,897,2417,2610,3083,3348,3065,2899,2683,2867
398726,5380,96940,94856,94856,-3800,-628,151,-152,101,339,-61,-4311,-12,-120,897,2417,2610,3083,3348,3065,2899,2683,2867
399727,5392,97188,95120,95120,-3800,-697,120,-165,75,66,-169,-4673,-13,-128,900,2417,2610,3083,3348,3065,2899,2683,2867
400728,5380,97472,95384,95384,-3800,-222,99,-185,67,482,-36,-4471,-17,-135,898,2508,2697,3170,3462,2994,2836,2650,2823
401729,5388,97724,95648,95648,-3800,-635,66,-204,63,976,107,-4284,0,-130,896,2508,2697,3170,3462,2994,2836,2650,2823
402730,5396,98036,95912,95912,-3800,174,32,-175,36,547,-10,-4023,-22,-135,899,2508,2697,3170,3462,2994,2836,2650,2823
403731,5392,98312,96176,96176,-3800,-260,3,-93,18,-170,-42,-4373,0,-123,898,2508,2697,3170,3462,2994,2836,2650,2823
404732,5384,98548,96440,96440,-3800,-794,3,-61,30,741,23,-4600,-4,-131,899,2508,2697,3170,3462,2994,2836,2650,2823
405733,5380,98800,96704,96704,-3800,-608,-4,-99,12,1079,104,-4023,-7,-134,898,2591,2778,3236,3522,2957,2800,2631,2811
406734,5384,99068,96968,96968,-3800,-402,-28,-125,-11,-32,14,-4265,-2,-133,897,2591,2778,3236,3522,2957,2800,2631,2811
407735,5392,99404,97232,97232,-3800,537,-51,-69,-25,-109,-281,-4575,-4,-126,898,2591,2778,3236,3522,2957,2800,2631,2811
408736,5376,99592,97496,97496,-3800,-1405,-57,-38,-10,708,-74,-4716,-7,-135,899,2591,2778,3236,3522,2957,2800,2631,2811
409737,5380,99816,97760,97760,-3800,-1004,-74,-120,-22,158,-234,-4111,3,-135,896,2591,2778,3236,3522,2957,2800,2631,2811
410738,5388,100064,98024,98024,-3800,-722,-110,-139,-60,-291,-427,-4489,-19,-139,893,2591,2778,3236,3522,2957,2800,2631,2811
411739,5388,100300,98304,98304,-3800,-925,-141,-168,-66,-295,-285,-4170,-9,-135,895,2605,2798,3240,3518,2958,2796,2629,2829
412740,5388,100548,98568,98568,-3800,-794,-114,-138,-31,-64,-451,-4718,-1,-146,897,2605,2798,3240,3518,2958,2796,2629,2829
413741,5380,100864,98832,98832,-3800,121,-98,-198,-11,839,-330,-4302,-1,-145,895,2605,2798,3240,3518,2958,2796,2629,2829
414742,5380,101144,99096,99096,-3800,-309,-88,-250,-23,202,-517,-4101,-7,-149,897,2605,2798,3240,3518,2958,2796,2629,2829
415743,5388,101372,99360,99360,-3800,-1002,-87,-247,-8,-551,-632,-4445,-15,-145,899,2605,2798,3240,3518,2958,2796,2629,2829
416744,5372,101620,99624,99624,-3800,-771,-76,-183,26,45,-445,-4610,-12,-140,899,2573,2788,3235,3464,2994,2810,2645,2856
417745,5388,101868,99888,99888,-3800,-790,-67,-162,65,737,-339,-4002,-18,-147,895,2573,2788,3235,3464,2994,2810,2645,2856
418746,5380,102140,100152,100152,-3800,-480,-75,-164,80,242,-465,-3780,-8,-144,897,2573,2788,3235,3464,2994,2810,2645,2856
419747,5392,102400,100416,100416,-3800,-634,-112,-126,72,-455,-627,-4302,-1,-149,897,2573,2788,3235,3464,2994,2810,2645,2856
420750,5376,102656,100680,100680,-3800,-692,-136,-57,102,-202,-379,-4397,-2,-144,899,2573,2788,3235,3464,2994,2810,2645,2856
421749,5384,102944,100944,100944,-3800,-262,-151,-78,133,506,-235,-4149,0,-136,898,2573,2788,3235,3464,2994,2810,2645,2856
422750,5388,103240,101208,101208,-3800,-123,-174,-171,125,2,-335,-3945,-2,-153,898,2539,2782,3206,3410,2996,2802,2651,2876
423751,5384,103540,101472,101472,-3800,-28,-211,-134,96,-749,-425,-4363,-8,-160,899,2539,2782,3206,3410,2996,2802,2651,2876
424752,5388,103824,101736,101736,-3800,-203,-202,-105,114,-93,-355,-4805,-14,-140,900,2539,2782,3206,3410,2996,2802,2651,2876
425753,5380,104144,102000,102000,-3800,317,-214,-169,99,735,-115,-4006,1,-149,900,2539,2782,3206,3410,2996,2802,2651,2876
426754,5392,104256,102264,102264,-3800,-2468,-198,-154,91,556,-211,-4591,-16,-148,899,2539,2782,3206,3410,2996,2802,2651,2876
427755,5404,104496,102528,102528,-3800,-897,-206,-212,47,-44,-65,-3714,-17,-139,898,2501,2746,3145,3328,3052,2834,2692,2927
428756,5396,104796,102792,102792,-3800,-102,-211,-172,18,-1012,-104,-4290,-11,-164,886,2501,2746,3145,3328,3052,2834,2692,2927
429757,5392,105060,103056,103056,-3800,-551,-200,-143,28,-105,103,-3790,-20,-159,896,2501,2746,3145,3328,3052,2834,2692,2927
430758,5392,105352,103320,103320,-3800,-166,-194,-122,17,297,274,-4324,-16,-160,900,2501,2746,3145,3328,3052,2834,2692,2927
431759,5384,105648,103584,103584,-3800,-77,-168,-67,3,651,28,-4646,-6,-159,898,2501,2746,3145,3328,3052,2834,2692,2927
432760,5388,105872,103848,103848,-3800,-1025,-159,-113,-10,1212,183,-4497,-13,-159,899,2501,2746,3145,3328,3052,2834,2692,2927
433761,5392,106120,104112,104112,-3800,-743,-189,-193,-28,-207,71,-3590,-3,-152,900,2445,2710,3079,3250,3115,2874,2740,2982
434762,5396,106428,104376,104376,-3800,61,-206,-115,-31,-955,285,-4606,-19,-154,900,2445,2710,3079,3250,3115,2874,2740,2982
435763,5384,106704,104640,104640,-3800,-323,-198,-4,-20,368,363,-4338,-2,-158,897,2445,2710,3079,3250,3115,2874,2740,2982
436764,5396,106944,104904,104904,-3800,-802,-215,-26,-5,1245,169,-4111,0,-162,899,2445,2710,3079,3250,3115,2874,2740,2982
437765,5396,107184,105168,105168,-3800,-831,-240,-53,-21,332,100,-4134,-16,-164,899,2445,2710,3079,3250,3115,2874,2740,2982
438766,5396,107488,105432,105432,-3800,19,-261,-32,-31,-695,232,-4767,-10,-149,891,2425,2695,3055,3238,3154,2910,2780,3016
439767,5408,107812,105696,105696,-3800,344,-259,-50,1,-118,364,-4149,-19,-164,897,2425,2695,3055,3238,3154,2910,2780,3016
440768,5392,108084,105960,105960,-3800,-296,-280,-52,1,553,-68,-4240,-15,-152,900,2425,2695,3055,3238,3154,2910,2780,3016
441769,5396,108320,106224,106224,-3800,-780,-304,43,-45,506,-145,-4960,-13,-163,898,2425,2695,3055,3238,3154,2910,2780,3016
442770,5404,108576,106488,106488,-3800,-539,-314,-62,-43,4,144,-4286,1,-151,895,2425,2695,3055,3238,3154,2910,2780,3016
443771,5396,108848,106752,106752,-3800,-328,-318,-173,-13,-621,271,-3822,-9,-151,897,2425,2695,3055,3238,3154,2910,2780,3016
444772,5396,109144,107016,107016,-3800,12,-314,-111,-11,-622,77,-4218,-18,-161,898,2403,2664,3038,3229,3190,2938,2791,3021
445773,5388,109416,107280,107280,-3800,-277,-292,-70,-39,85,-181,-4769,-17,-158,896,2403,2664,3038,3229,3190,2938,2791,3021
446774,5404,109664,107544,107544,-3800,-597,-264,-145,-48,672,-242,-4361,1,-158,899,2403,2664,3038,3229,3190,2938,2791,3021
447775,5400,109932,107808,107808,-3800,-341,-244,-225,-38,203,-104,-4075,-15,-153,898,2403,2664,3038,3229,3190,2938,2791,3021
448776,5400,110184,108072,108072,-3800,-554,-212,-164,-33,-606,-118,-4419,-18,-168,899,2403,2664,3038,3229,3190,2938,2791,3021
449777,5396,110476,108336,108336,-3800,-19,-162,-122,-32,29,15,-4225,-8,-155,896,2365,2615,2999,3207,3239,3005,2822,3066
450778,5412,110740,108600,108600,-3800,-368,-121,-130,-35,224,-191,-3511,0,-152,900,2365,2615,2999,3207,3239,3005,2822,3066
451779,5400,110988,108864,108864,-3800,-588,-110,-85,-40,-124,-206,-3990,-1,-149,899,2365,2615,2999,3207,3239,3005,2822,3066
452780,5400,111260,109128,109128,-3800,-277,-83,-32,-17,-407,-134,-4490,-16,-160,898,2365,2615,2999,3207,3239,3005,2822,3066
453781,5408,111568,109392,109392,-3800,228,-54,-79,1,3,105,-3870,-1,-160,898,2365,2615,2999,3207,3239,3005,2822,3066
454782,5404,111812,109656,109656,-3800,-596,-38,-82,15,-136,-143,-4014,-5,-157,899,2365,2615,2999,3207,3239,3005,2822,3066
455783,5416,112108,109920,109920,-3800,94,-45,-42,23,-209,-141,-4487,-13,-154,898,2339,2593,2991,3175,3288,3026,2846,3084
456784,5404,112412,110184,110184,-3800,244,-37,-69,43,-89,-35,-4368,-11,-161,899,2339,2593,2991,3175,3288,3026,2846,3084
457785,5408,112692,110448,110448,-3800,-36,-43,-107,62,163,57,-3579,-15,-156,898,2339,2593,2991,3175,3288,3026,2846,3084
458786,5404,112936,110712,110712,-3800,-510,-47,-26,75,-188,-147,-4420,-14,-152,900,2339,2593,2991,3175,3288,3026,2846,3084
459787,5400,113204,110976,110976,-3800,-204,-34,36,85,88,154,-4381,2,-152,898,2339,2593,2991,3175,3288,3026,2846,3084
460788,5412,113500,111240,111240,-3800,186,-22,-50,96,163,203,-3761,-14,-164,899,2304,2569,2943,3117,3277,3016,2852,3101
461789,5408,113768,111504,111504,-3800,-158,-20,-89,89,-250,266,-3764,-15,-155,898,2304,2569,2943,3117,3277,3016,2852,3101
462790,5404,114044,111768,111768,-3800,-42,-19,-28,94,-561,268,-4514,-16,-152,899,2304,2569,2943,3117,3277,3016,2852,3101
463791,5420,114356,112032,112032,-3800,467,5,-15,124,24,504,-4468,-4,-150,900,2304,2569,2943,3117,3277,3016,2852,3101
464792,5408,114608,112296,112296,-3800,-297,7,-51,103,586,373,-3774,-13,-142,897,2304,2569,2943,3117,3277,3016,2852,3101
465793,5400,114816,112560,112560,-3800,-915,-10,-42,59,331,48,-4698,-2,-143,899,2304,2569,2943,3117,3277,3016,2852,3101
466794,5408,115076,112824,112824,-3800,-268,-5,-78,31,37,262,-4538,2,-149,896,2306,2572,2944,3133,3281,3012,2854,3093
467795,5408,115364,113088,113088,-3800,112,-3,-159,25,-109,591,-3858,-4,-140,899,2306,2572,2944,3133,3281,3012,2854,3093
468796,5404,115600,113352,113352,-3800,-571,8,-83,19,350,447,-3765,-4,-149,899,2306,2572,2944,3133,3281,3012,2854,3093
469797,5404,115884,113616,113616,-3800,54,6,-6,-22,478,168,-4401,-11,-136,898,2306,2572,2944,3133,3281,3012,2854,3093
470798,5412,116124,113880,113880,-3800,-524,15,-27,-68,120,217,-4226,-4,-143,900,2306,2572,2944,3133,3281,3012,2854,3093
471799,5400,116440,114144,114144,-3800,490,32,-64,-66,25,385,-3930,0,-138,898,2338,2599,2965,3151,3279,3007,2855,3110
472800,5408,116724,114408,114408,-3800,115,58,-17,-60,770,240,-4137,-14,-135,897,2338,2599,2965,3151,3279,3007,2855,3110
473801,5412,116984,114688,114688,-3800,-209,76,53,-69,967,-1,-4483,-3,-138,899,2338,2599,2965,3151,3279,3007,2855,3110
474802,5416,117204,114952,114952,-3800,-761,94,43,-81,258,192,-4160,-3,-137,899,2338,2599,2965,3151,3279,3007,2855,3110
475803,5416,117472,115216,115216,-3800,-156,101,12,-71,-500,174,-3746,-2,-128,897,2338,2599,2965,3151,3279,3007,2855,3110
476804,5408,117768,115480,115480,-3800,234,92,8,-46,-324,176,-3783,-16,-132,899,2338,2599,2965,3151,3279,3007,2855,3110
477805,5408,118032,115744,115744,-3800,-165,97,93,-18,176,-53,-4663,-14,-128,898,2339,2616,2985,3159,3250,2980,2828,3082
478806,5404,118332,116008,116008,-3800,330,111,134,19,729,31,-4552,-12,-136,898,2339,2616,2985,3159,3250,2980,2828,3082
479807,5404,118572,116272,116272,-3800,-448,115,69,32,389,102,-4219,-15,-129,898,2339,2616,2985,3159,3250,2980,2828,3082
480808,5420,118804,116536,116536,-3800,-587,105,23,44,-345,-166,-4125,-7,-122,899,2339,2616,2985,3159,3250,2980,2828,3082
481809,5408,119056,116800,116800,-3800,-351,102,-10,48,-582,-243,-4291,-9,-134,898,2339,2616,2985,3159,3250,2980,2828,3082
482810,5404,119336,117064,117064,-3800,20,102,-17,71,-752,-138,-4236,-4,-130,899,2376,2659,3041,3220,3217,2945,2796,3045
483811,5408,119624,117328,117328,-3800,150,106,2,75,31,-232,-4125,-12,-125,900,2376,2659,3041,3220,3217,2945,2796,3045
484812,5400,119884,117592,117592,-3800,-204,98,33,56,489,-328,-4658,-13,-121,899,2376,2659,3041,3220,3217,2945,2796,3045
485813,5412,120132,117856,117856,-3800,-372,116,-40,41,-39,-222,-3997,-1,-125,899,2376,2659,3041,3220,3217,2945,2796,3045
486814,5400,120372,118120,118120,-3800,-500,124,-60,34,-897,-142,-4103,-5,-134,896,2376,2659,3041,3220,3217,2945,2796,3045
487815,5412,120700,118384,118384,-3800,679,130,-6,37,-370,-332,-3908,2,-130,898,2376,2659,3041,3220,3217,2945,2796,3045
488816,5416,121000,118648,118648,-3800,373,148,19,43,422,-26,-4414,-17,-137,895,2431,2711,3099,3279,3166,2914,2761,3012
489817,5412,121236,118912,118912,-3800,-461,170,32,34,726,-312,-4205,-3,-111,898,2431,2711,3099,3279,3166,2914,2761,3012
490818,5404,121480,119176,119176,-3800,-384,189,24,27,-165,-17,-4362,-3,-119,892,2431,2711,3099,3279,3166,2914,2761,3012
491819,5400,121644,119440,119440,-3800,-1505,191,6,33,-1242,92,-3668,-15,-107,899,2431,2711,3099,3279,3166,2914,2761,3012
492820,5408,121900,119704,119704,-3800,-364,198,44,59,-322,85,-4282,-7,-121,893,2431,2711,3099,3279,3166,2914,2761,3012
493821,5416,122160,119968,119968,-3800,-318,186,62,68,481,192,-4208,-4,-129,898,2483,2768,3154,3335,3109,2864,2728,2961
494822,5416,122504,120232,120232,-3800,831,156,120,53,513,-192,-4604,2,-127,894,2483,2768,3154,3335,3109,2864,2728,2961
495823,5400,122728,120496,120496,-3800,-718,118,171,38,461,-119,-4855,2,-127,894,2483,2768,3154,3335,3109,2864,2728,2961
496824,5408,122940,120760,120760,-3800,-930,87,98,38,17,-33,-4224,-7,-116,897,2483,2768,3154,3335,3109,2864,2728,2961
497825,5408,123220,121024,121024,-3800,-60,33,-6,56,-541,468,-3805,1,-131,896,2483,2768,3154,3335,3109,2864,2728,2961
498826,5424,123464,121288,121288,-3800,-533,-10,44,49,-163,-323,-4140,-17,-116,896,2550,2828,3206,3392,3055,2831,2707,2953
499827,5400,123696,121552,121552,-3800,-721,-45,93,4,419,-34,-4737,-11,-124,898,2550,2828,3206,3392,3055,2831,2707,2953
500828,5400,123992,121816,121816,-3800,119,-64,92,-40,-13,-165,-4532,-15,-125,897,2550,2828,3206,3392,3055,2831,2707,2953
501829,5400,124236,122080,122080,-3800,-556,-72,119,-64,528,-143,-4536,-13,-131,899,2550,2828,3206,3392,3055,2831,2707,2953
502830,5408,124460,122344,122344,-3800,-853,-58,172,-69,1230,-401,-4352,-14,-122,895,2550,2828,3206,3392,3055,2831,2707,2953
503831,5404,124732,122608,122608,-3800,-243,-26,197,-62,893,-359,-3979,-14,-120,896,2550,2828,3206,3392,3055,2831,2707,2953
504832,5404,125016,122872,122872,-3800,-67,20,249,-55,-321,-109,-3825,0,-124,899,2548,2827,3203,3358,3111,2871,2944,3007
505833,5420,125272,123136,123136,-3800,-426,70,350,-40,-20,-191,-4120,-9,-118,899,2548,2827,3203,3358,3111,2871,2944,3007
506834,5396,125556,123400,123400,-3800,-51,104,340,-14,657,-298,-4058,3,-130,897,2548,2827,3203,3358,3111,2871,2944,3007
507835,5412,125800,123664,123664,-3800,-575,120,302,2,-210,-516,-4374,-6,-128,900,2548,2827,3203,3358,3111,2871,2944,3007
508836,5400,126064,123928,123928,-3800,-324,140,317,16,-759,-504,-4735,-7,-133,898,2548,2827,3203,3358,3111,2871,2944,3007
509837,5412,126328,124192,124192,-3800,-323,131,305,35,145,-258,-4841,-12,-128,899,2514,2802,3194,3338,3110,2868,2719,2964
510838,5404,126608,124456,124456,-3800,-103,101,191,58,791,-264,-4377,3,-127,898,2514,2802,3194,3338,3110,2868,2719,2964
511839,5408,126844,124720,124720,-3800,-686,62,87,63,-745,-470,-4100,-3,-119,899,2514,2802,3194,3338,3110,2868,2719,2964
512840,5396,127116,124984,124984,-3800,-226,25,57,59,-1313,-315,-4357,-3,-127,897,2514,2802,3194,3338,3110,2868,2719,2964
513841,5400,127352,125248,125248,-3800,-709,-2,82,46,-360,-134,-4492,-13,-130,899,2514,2802,3194,3338,3110,2868,2719,2964
514842,5400,127652,125512,125512,-3800,136,-17,74,38,615,-251,-4291,-15,-128,897,2514,2802,3194,3338,3110,2868,2719,2964
515843,5412,127912,125776,125776,-3800,-368,-22,27,24,190,-87,-4028,1,-127,899,2508,2800,3176,3350,3081,2843,2711,2954
516844,5408,128160,126040,126040,-3800,-537,-12,30,3,-515,-196,-4249,-3,-117,899,2508,2800,3176,3350,3081,2843,2711,2954
517845,5400,128408,126304,126304,-3800,-555,-7,107,-17,141,33,-4418,-6,-124,898,2508,2800,3176,3350,3081,2843,2711,2954
518846,5404,128704,126568,126568,-3800,84,5,161,-26,392,279,-3680,0,-127,897,2508,2800,3176,3350,3081,2843,2711,2954
519847,5408,128976,126832,126832,-3800,-205,14,219,-16,56,165,-4197,-17,-136,899,2508,2800,3176,3350,3081,2843,2711,2954
520848,5396,129236,127096,127096,-3800,-359,11,216,-24,82,229,-3828,-4,-122,899,2495,2771,3132,3311,3071,2830,2713,2939
521849,5404,129416,127360,127360,-3800,-1461,-6,255,-27,-196,155,-4585,-5,-133,899,2495,2771,3132,3311,3071,2830,2713,2939
522850,5404,129704,127624,127624,-3800,-80,-13,276,-13,157,382,-4330,-15,-115,893,2495,2771,3132,3311,3071,2830,2713,2939
523851,5400,129980,127888,127888,-3800,-216,-29,235,7,529,236,-4444,-8,-142,899,2495,2771,3132,3311,3071,2830,2713,2939
524852,5388,130280,128152,128152,-3800,129,-56,234,-9,-72,220,-3939,-10,-134,899,2495,2771,3132,3311,3071,2830,2713,2939
525853,5392,130564,128416,128416,-3800,-45,-106,262,-12,-510,47,-4585,-1,-130,899,2495,2771,3132,3311,3071,2830,2713,2939
526854,5396,130772,128680,128680,-3800,-1063,-129,230,14,-238,290,-4275,-14,-125,899,2486,2746,3109,3317,3066,2847,2714,2933
527855,5404,130996,128944,128944,-3800,-911,-150,228,16,530,31,-4007,-15,-117,895,2486,2746,3109,3317,3066,2847,2714,2933
528856,5404,131248,129208,129208,-3800,-575,-151,243,-5,761,-13,-4225,0,-126,896,2486,2746,3109,3317,3066,2847,2714,2933
529857,5396,131508,129472,129472,-3800,-479,-149,216,-9,-130,-299,-4440,-3,-148,897,2486,2746,3109,3317,3066,2847,2714,2933
530858,5396,131752,129736,129736,-3800,-703,-142,187,-6,183,47,-4231,-1,-133,898,2486,2746,3109,3317,3066,2847,2714,2933
531859,5400,132016,130000,130000,-3800,-452,-120,165,11,85,-79,-3831,-11,-130,897,2455,2695,3090,3292,3108,2900,2732,2952
532860,5400,132268,130264,130264,-3800,-616,-117,158,-8,278,-234,-4121,-15,-129,898,2455,2695,3090,3292,3108,2900,2732,2952
533861,5404,132520,130528,130528,-3800,-630,-99,201,-40,-51,-319,-4110,-7,-135,898,2455,2695,3090,3292,3108,2900,2732,2952
534862,5388,132748,130792,130792,-3800,-973,-67,220,-23,151,-269,-4229,-11,-140,897,2455,2695,3090,3292,3108,2900,2732,2952
535863,5392,133016,131072,131072,-3800,-486,-34,215,-4,1036,-317,-4361,-10,-145,895,2455,2695,3090,3292,3108,2900,2732,2952
536864,5408,133288,131336,131336,-3800,-426,-29,167,-24,977,-298,-3642,-4,-141,898,2455,2695,3090,3292,3108,2900,2732,2952
537865,5396,133516,131600,131600,-3800,-1020,-21,153,-36,-494,-312,-3946,-4,-146,898,2421,2648,3066,3275,3135,2935,2744,2962
538866,5412,133788,131864,131864,-3800,-459,1,215,-11,-793,-154,-4368,-9,-144,895,2421,2648,3066,3275,3135,2935,2744,2962
539867,5392,134096,132128,132128,-3800,46,16,162,13,639,67,-4032,-18,-141,888,2421,2648,3066,3275,3135,2935,2744,2962
540868,5396,134348,132392,132392,-3800,-669,6,134,6,804,-135,-3850,-6,-140,899,2421,2648,3066,3275,3135,2935,2744,2962
541869,5380,134612,132656,132656,-3800,-518,-8,161,-14,-274,-194,-4354,-10,-127,898,2421,2648,3066,3275,3135,2935,2744,2962
542870,5392,134864,132920,132920,-3800,-681,-2,170,10,-345,-66,-4952,-2,-136,898,2427,2647,3082,3316,3160,2970,2760,2976
543871,5388,135124,133184,133184,-3800,-585,6,82,26,594,207,-4189,-14,-150,890,2427,2647,3082,3316,3160,2970,2760,2976
544872,5380,135372,133448,133448,-3800,-755,-3,71,13,542,25,-4075,-18,-142,898,2427,2647,3082,3316,3160,2970,2760,2976
545873,5384,135604,133712,133712,-3800,-993,-27,116,2,102,13,-4459,-17,-154,897,2427,2647,3082,3316,3160,2970,2760,2976
546874,5388,135860,133976,133976,-3800,-702,-48,114,11,-22,77,-4240,-15,-154,895,2427,2647,3082,3316,3160,2970,2760,2976
547875,5388,136144,134240,134240,-3800,-326,-52,149,6,310,125,-4001,-2,-144,893,2427,2647,3082,3316,3160,2970,2760,2976
548876,5388,136408,134504,134504,-3800,-576,-56,130,6,-72,-17,-4081,-8,-146,899,2459,2678,3116,3356,3184,3000,2800,2994
549877,5384,136668,134768,134768,-3800,-630,-44,111,-4,-450,125,-4532,-15,-162,898,2459,2678,3116,3356,3184,3000,2800,2994
550878,5396,136936,135032,135032,-3800,-524,-38,61,-6,73,231,-4457,-5,-155,898,2459,2678,3116,3356,3184,3000,2800,2994
551879,5380,137212,135296,135296,-3800,-409,-29,44,-15,1138,-162,-4525,-17,-154,895,2459,2678,3116,3356,3184,3000,2800,2994
552880,5388,137444,135560,135560,-3800,-998,-9,65,-21,699,-50,-4677,-15,-149,899,2459,2678,3116,3356,3184,3000,2800,2994
553881,5384,137716,135824,135824,-3800,-487,5,89,-23,-94,31,-4752,-15,-150,896,2477,2687,3139,3408,3208,3034,2815,2999
554882,5380,137996,136088,136088,-3800,-366,8,22,-2,-31,371,-3690,-20,-158,898,2477,2687,3139,3408,3208,3034,2815,2999
555883,5392,138244,136352,136352,-3800,-786,3,2,15,-110,51,-3807,0,-158,897,2477,2687,3139,3408,3208,3034,2815,2999
556884,5368,138528,136616,136616,-3800,-311,-1,127,6,439,-146,-4695,-5,-154,897,2477,2687,3139,3408,3208,3034,2815,2999
557885,5388,138824,136880,136880,-3800,-120,8,171,9,984,20,-4636,-7,-159,899,2477,2687,3139,3408,3208,3034,2815,2999
558886,5384,139100,137144,137144,-3800,-355,-8,73,36,762,74,-4179,-14,-143,899,2477,2687,3139,3408,3208,3034,2815,2999
559887,5380,139340,137408,137408,-3800,-834,-11,52,31,-534,-30,-4564,-5,-151,898,2503,2703,3164,3438,3205,3036,2813,3001
560888,5392,139600,137672,137672,-3800,-588,-11,92,38,-238,-50,-4953,-17,-145,897,2503,2703,3164,3438,3205,3036,2813,3001
561889,5388,139904,137936,137936,-3800,12,-8,31,41,1024,-42,-4315,-6,-160,898,2503,2703,3164,3438,3205,3036,2813,3001
562890,5384,140140,138200,138200,-3800,-871,-24,-39,44,320,-102,-3914,-10,-164,900,2503,2703,3164,3438,3205,3036,2813,3001
563891,5380,140388,138464,138464,-3800,-741,-29,57,42,-292,-244,-4911,2,-166,895,2503,2703,3164,3438,3205,3036,2813,3001
564892,5380,140660,138728,138728,-3800,-430,-2,27,46,333,61,-4519,-2,-161,897,2512,2704,3168,3442,3200,3026,2797,2983
565893,5384,140920,138992,138992,-3800,-584,-4,-87,50,630,-4,-4083,-15,-161,899,2512,2704,3168,3442,3200,3026,2797,2983
566894,5376,141156,139256,139256,-3800,-917,-11,-66,24,39,-313,-4307,-14,-158,898,2512,2704,3168,3442,3200,3026,2797,2983
567895,5380,141436,139520,139520,-3800,-348,-11,-6,2,-488,-238,-4934,-3,-159,896,2512,2704,3168,3442,3200,3026,2797,2983
568896,5388,141700,139784,139784,-3800,-547,6,-93,2,551,-57,-4243,-9,-171,899,2512,2704,3168,3442,3200,3026,2797,2983
569897,5396,141964,140048,140048,-3800,-546,7,-137,-13,176,-52,-3705,-14,-161,898,2512,2704,3168,3442,3200,3026,2797,2983
570898,5380,142232,140312,140312,-3800,-490,25,-47,-1,-278,-183,-4794,-1,-162,898,2496,2687,3150,3413,3159,2983,2766,2954
571899,5364,142500,140576,140576,-3800,-485,42,-114,-8,495,-95,-4557,-10,-159,898,2496,2687,3150,3413,3159,2983,2766,2954
572900,5392,142816,140840,140840,-3800,180,34,-229,-25,285,-15,-3715,-18,-156,899,2496,2687,3150,3413,3159,2983,2766,2954
573901,5384,143068,141104,141104,-3800,-634,31,-196,-38,-602,-137,-4157,-1,-158,899,2496,2687,3150,3413,3159,2983,2766,2954
574902,5368,143324,141368,141368,-3800,-593,39,-157,-34,-501,-82,-4693,-8,-158,898,2496,2687,3150,3413,3159,2983,2766,2954
575903,5372,143588,141632,141632,-3800,-493,41,-202,-23,1012,-83,-3974,-18,-155,898,2476,2663,3125,3375,3095,2912,2712,2903
576904,5380,143856,141896,141896,-3800,-437,36,-196,-23,777,10,-4008,-3,-163,898,2476,2663,3125,3375,3095,2912,2712,2903
577905,5384,144176,142160,142160,-3800,282,34,-160,-21,-220,-189,-4653,-17,-163,899,2476,2663,3125,3375,3095,2912,2712,2903
578906,5372,144440,142424,142424,-3800,-417,27,-194,-22,-47,111,-3749,-15,-169,898,2476,2663,3125,3375,3095,2912,2712,2903
579907,5360,144724,142688,142688,-3800,-142,2,-145,1,459,-80,-3862,-13,-153,899,2476,2663,3125,3375,3095,2912,2712,2903
580908,5376,144992,142952,142952,-3800,-336,13,-53,24,950,-95,-4567,0,-168,898,2476,2663,3125,3375,3095,2912,2712,2903
581909,5372,145264,143216,143216,-3800,-275,19,-56,38,748,182,-4394,2,-159,899,2472,2680,3105,3345,3037,2850,2670,2875
582910,5380,145516,143480,143480,-3800,-539,1,-64,37,524,-189,-3292,-8,-168,899,2472,2680,3105,3345,3037,2850,2670,2875
583911,5376,145832,143744,143744,-3800,324,-21,14,39,-693,-117,-4408,-12,-160,898,2472,2680,3105,3345,3037,2850,2670,2875
584912,5376,146116,144008,144008,-3800,-50,-12,30,69,-412,26,-4260,-11,-154,898,2472,2680,3105,3345,3037,2850,2670,2875
585913,5384,146368,144272,144272,-3800,-464,-12,-18,75,621,103,-3971,-16,-154,900,2472,2680,3105,3345,3037,2850,2670,2875
586914,5380,146620,144536,144536,-3800,-478,-26,7,59,999,-310,-4447,2,-158,899,2461,2675,3091,3315,3014,2820,2655,2856
587915,5368,146892,144800,144800,-3800,-217,-17,-48,62,-44,-228,-4579,-18,-154,899,2461,2675,3091,3315,3014,2820,2655,2856
588916,5372,147200,145064,145064,-3800,287,-21,-140,71,-679,-97,-4107,-18,-147,899,2461,2675,3091,3315,3014,2820,2655,2856
589917,5380,147460,145328,145328,-3800,-317,-29,-169,66,-347,-15,-3676,0,-153,898,2461,2675,3091,3315,3014,2820,2655,2856
590918,5372,147704,145592,145592,-3800,-540,-50,-124,44,-621,-256,-4335,-12,-149,899,2461,2675,3091,3315,3014,2820,2655,2856
591919,5368,147952,145856,145856,-3800,-509,-46,-134,29,428,-299,-4505,-16,-136,898,2461,2675,3091,3315,3014,2820,2655,2856
592920,5376,148192,146120,146120,-3800,-637,-53,-241,19,559,-60,-3959,-1,-147,892,2444,2670,3083,3301,3002,2797,2638,2849
593921,5376,148484,146384,146384,-3800,47,-57,-298,7,-265,-93,-3733,-1,-146,898,2444,2670,3083,3301,3002,2797,2638,2849
594922,5356,148740,146648,146648,-3800,-412,-52,-228,3,-535,-215,-4491,-10,-149,900,2444,2670,3083,3301,3002,2797,2638,2849
595923,5368,149020,146912,146912,-3800,-91,-34,-198,4,391,-102,-4155,-8,-140,899,2444,2670,3083,3301,3002,2797,2638,2849
596924,5368,149284,147176,147176,-3800,-290,-31,-254,-13,622,-223,-3711,-17,-149,895,2444,2670,3083,3301,3002,2797,2638,2849
597925,5364,149540,147456,147456,-3800,-419,-41,-220,-38,-16,-171,-3930,-1,-131,899,2445,2683,3085,3283,3005,2789,2648,2876
598926,5372,149796,147720,147720,-3800,-428,-30,-128,-33,-254,-94,-4237,-1,-151,899,2445,2683,3085,3283,3005,2789,2648,2876
599927,5376,150096,147984,147984,-3800,167,-10,-106,-1,431,52,-3951,-17,-138,899,2445,2683,3085,3283,3005,2789,2648,2876
600928,5368,150324,148248,148248,-3800,-776,-12,-69,-1,836,-129,-3905,-6,-146,895,2445,2683,3085,3283,3005,2789,2648,2876
601929,5372,150568,148512,148512,-3800,-600,-29,29,-24,849,-475,-4562,-15,-129,897,2445,2683,3085,3283,3005,2789,2648,2876
602930,5368,150844,148776,148776,-3800,-184,-55,46,-21,-198,-93,-4149,-3,-145,898,2445,2683,3085,3283,3005,2789,2648,2876
603931,5364,151112,149040,149040,-3800,-279,-62,1,35,-660,190,-3829,-14,-144,900,2459,2718,3106,3302,3024,2808,2672,2896
604932,5384,151380,149304,149304,-3800,-273,-81,-7,36,-691,23,-3867,-7,-130,897,2459,2718,3106,3302,3024,2808,2672,2896
605933,5368,151612,149568,149568,-3800,-761,-111,-3,14,-396,-211,-4554,-8,-135,899,2459,2718,3106,3302,3024,2808,2672,2896
606934,5372,151896,149832,149832,-3800,-86,-99,-69,23,301,-182,-4977,-2,-127,897,2459,2718,3106,3302,3024,2808,2672,2896
607935,5388,152164,150096,150096,-3800,-280,-82,-198,56,290,28,-4343,-15,-143,900,2459,2718,3106,3302,3024,2808,2672,2896
608936,5364,152416,150360,150360,-3800,-495,-77,-246,63,-196,-118,-4135,-14,-135,898,2473,2735,3125,3318,3057,2851,2707,2945
609937,5388,152652,150624,150624,-3800,-728,-96,-175,36,-497,-348,-4701,-11,-132,899,2473,2735,3125,3318,3057,2851,2707,2945
610938,5368,152904,150888,150888,-3800,-542,-101,-109,16,-158,-177,-4400,0,-140,898,2473,2735,3125,3318,3057,2851,2707,2945
611939,5376,153156,151152,151152,-3800,-555,-103,-127,40,674,62,-4015,-18,-125,898,2473,2735,3125,3318,3057,2851,2707,2945
612940,5360,153412,151416,151416,-3800,-514,-115,-151,46,415,153,-3702,-8,-133,897,2473,2735,3125,3318,3057,2851,2707,2945
613941,5372,153712,151680,151680,-3800,80,-130,-109,45,-374,-3,-4140,-15,-128,898,2473,2735,3125,3318,3057,2851,2707,2945
614942,5368,153952,151944,151944,-3800,-698,-110,-49,55,80,-90,-4639,-13,-137,900,2478,2737,3127,3305,3116,2882,2744,2993
615943,5368,154232,152208,152208,-3800,-178,-84,-45,52,588,-44,-4332,-12,-131,898,2478,2737,3127,3305,3116,2882,2744,2993
616944,5372,154492,152472,152472,-3800,-432,-75,-75,47,228,-20,-4080,-12,-131,899,2478,2737,3127,3305,3116,2882,2744,2993
617945,5376,154724,152736,152736,-3800,-821,-84,-43,32,-392,-49,-4390,2,-129,899,2478,2737,3127,3305,3116,2882,2744,2993
618946,5372,154992,153000,153000,-3800,-365,-91,39,14,-181,-64,-4441,-1,-127,897,2478,2737,3127,3305,3116,2882,2744,2993
619947,5380,155260,153264,153264,-3800,-359,-103,49,20,624,14,-4293,-16,-125,899,2481,2757,3141,3320,3160,2921,2764,3012
620948,5380,155544,153528,153528,-3800,-134,-117,-20,25,526,87,-4157,-14,-122,898,2481,2757,3141,3320,3160,2921,2764,3012
621949,5368,155768,153792,153792,-3800,-932,-123,-12,10,164,-216,-4300,-16,-121,899,2481,2757,3141,3320,3160,2921,2764,3012
622950,5360,156008,154056,154056,-3800,-761,-146,48,-20,172,-281,-4890,-11,-125,897,2481,2757,3141,3320,3160,2921,2764,3012
623951,5368,156232,154320,154320,-3800,-1009,-141,53,-23,-20,-137,-4626,-18,-122,897,2481,2757,3141,3320,3160,2921,2764,3012
624952,5388,156504,154584,154584,-3800,-398,-128,-23,-22,-29,-16,-4197,-3,-131,895,2481,2757,3141,3320,3160,2921,2764,3012
625953,5376,156780,154848,154848,-3800,-333,-125,-37,-41,-31,-93,-4319,-9,-132,899,2492,2760,3153,3333,3189,2958,2791,3032
626954,5380,157008,155112,155112,-3800,-976,-137,-14,-58,-132,-104,-4519,-2,-118,899,2492,2760,3153,3333,3189,2958,2791,3032
627955,5376,157272,155376,155376,-3800,-525,-118,-19,-46,-169,-51,-4516,-9,-137,896,2492,2760,3153,3333,3189,2958,2791,3032
628956,5376,157564,155640,155640,-3800,-140,-96,-56,-33,-16,22,-4262,-18,-132,898,2492,2760,3153,3333,3189,2958,2791,3032
629957,5376,157808,155904,155904,-3800,-764,-71,-95,-36,121,114,-4227,-8,-118,900,2492,2760,3153,3333,3189,2958,2791,3032
630958,5376,158060,156168,156168,-3800,-678,-62,-99,-33,-219,-79,-4471,-14,-132,897,2466,2732,3128,3317,3200,2970,2795,3027
631959,5372,158344,156432,156432,-3800,-253,-54,-49,-39,64,-252,-4528,-18,-139,897,2466,2732,3128,3317,3200,2970,2795,3027
632960,5376,158616,156696,156696,-3800,-392,-44,-18,-19,410,63,-4392,-5,-130,899,2466,2732,3128,3317,3200,2970,2795,3027
633961,5380,158864,156960,156960,-3800,-711,-44,-22,2,121,105,-3944,-15,-131,899,2466,2732,3128,3317,3200,2970,2795,3027
634962,5376,159120,157224,157224,-3800,-620,-75,24,1,110,0,-4242,-16,-121,898,2466,2732,3128,3317,3200,2970,2795,3027
635963,5364,159400,157488,157488,-3800,-300,-100,52,11,0,57,-4305,0,-131,898,2466,2732,3128,3317,3200,2970,2795,3027
636964,5376,159700,157752,157752,-3800,-6,-94,24,37,-12,102,-4329,-17,-128,899,2453,2712,3105,3301,3172,2948,2778,2998
637965,5372,159936,158016,158016,-3800,-839,-100,-14,42,393,111,-4161,0,-131,900,2453,2712,3105,3301,3172,2948,2778,2998
638966,5372,160212,158280,158280,-3800,-323,-113,-12,34,181,-42,-4459,-1,-123,897,2453,2712,3105,3301,3172,2948,2778,2998
639967,5380,160444,158544,158544,-3800,-911,-121,10,39,61,-142,-4550,0,-123,899,2453,2712,3105,3301,3172,2948,2778,2998
640968,5380,160724,158808,158808,-3800,-292,-95,24,42,3,-226,-4346,-12,-131,897,2453,2712,3105,3301,3172,2948,2778,2998
641969,5380,161032,159072,159072,-3800,113,-88,42,29,7,33,-3790,-19,-127,899,2427,2675,3068,3263,3163,2942,2766,2974
642970,5376,161280,159336,159336,-3800,-655,-80,77,27,-170,-34,-4026,0,-137,900,2427,2675,3068,3263,3163,2942,2766,2974
643971,5372,161520,159600,159600,-3800,-784,-88,94,24,347,-99,-4290,2,-115,898,2427,2675,3068,3263,3163,2942,2766,2974
644972,5396,161788,159864,159864,-3800,-429,-66,87,29,480,-42,-4455,-2,-131,897,2427,2675,3068,3263,3163,2942,2766,2974
645974,5376,162036,160128,160128,-3800,-697,-49,6,25,177,260,-4029,-18,-132,894,2427,2675,3068,3263,3163,2942,2766,2974
646974,5364,162284,160392,160392,-3800,-716,-29,-77,12,-322,10,-4057,1,-128,898,2427,2675,3068,3263,3163,2942,2766,2974
647975,5376,162584,160656,160656,-3800,-21,-23,-22,-3,-279,-127,-4241,-16,-125,897,2384,2622,3019,3215,3143,2931,2750,2967
648976,5372,162844,160920,160920,-3800,-526,-17,11,0,255,-34,-4379,-9,-134,899,2384,2622,3019,3215,3143,2931,2750,2967
649977,5392,163112,161184,161184,-3800,-420,2,-16,12,548,232,-4251,-15,-130,893,2384,2622,3019,3215,3143,2931,2750,2967
650978,5380,163380,161448,161448,-3800,-414,17,-65,3,395,157,-3713,-15,-132,899,2384,2622,3019,3215,3143,2931,2750,2967
651979,5388,163640,161712,161712,-3800,-519,4,-38,-15,87,-78,-4102,-12,-132,899,2384,2622,3019,3215,3143,2931,2750,2967
652980,5380,163920,161976,161976,-3800,-248,2,29,-17,85,-95,-4138,-16,-141,898,2365,2600,2995,3195,3127,2904,2737,2951
653981,5388,164168,162240,162240,-3800,-667,-3,61,-17,316,73,-4064,1,-135,895,2365,2600,2995,3195,3127,2904,2737,2951
654982,5372,164412,162504,162504,-3800,-740,-7,57,-22,606,69,-3944,-11,-131,898,2365,2600,2995,3195,3127,2904,2737,2951
655983,5384,164676,162768,162768,-3800,-490,-26,59,-22,340,25,-3931,-18,-127,897,2365,2600,2995,3195,3127,2904,2737,2951
656984,5384,165012,163032,163032,-3800,498,-38,93,-16,-108,-29,-4301,0,-122,898,2365,2600,2995,3195,3127,2904,2737,2951
657985,5392,165188,163296,163296,-3800,-1608,-15,105,15,168,211,-4355,-17,-122,894,2365,2600,2995,3195,3127,2904,2737,2951
658986,5388,165408,163560,163560,-3800,-1111,-4,31,-1,267,37,-3802,2,-131,892,2363,2607,2995,3198,3126,2908,2736,2952
659987,5388,165680,163840,163840,-3800,-470,-25,37,-42,11,-217,-4267,-7,-130,895,2363,2607,2995,3198,3126,2908,2736,2952
660988,5384,165912,164104,164104,-3800,-1008,-36,21,-10,-448,127,-4275,-19,-146,898,2363,2607,2995,3198,3126,2908,2736,2952
661989,5380,166176,164368,164368,-3800,-607,10,32,45,22,85,-4316,-17,-142,894,2363,2607,2995,3198,3126,2908,2736,2952
662990,5392,166496,164632,164632,-3800,161,34,20,41,919,128,-4104,-18,-147,898,2363,2607,2995,3198,3126,2908,2736,2952
663991,5400,166736,164896,164896,-3800,-867,29,-27,21,28,-70,-3971,-5,-142,899,2366,2613,3004,3205,3136,2915,2748,2967
664992,5396,167000,165160,165160,-3800,-566,34,-36,40,-908,-17,-4294,1,-129,897,2366,2613,3004,3205,3136,2915,2748,2967
665993,5392,167288,165424,165424,-3800,-236,51,7,77,-90,230,-4272,-19,-145,896,2366,2613,3004,3205,3136,2915,2748,2967
666994,5404,167588,165688,165688,-3800,-42,68,45,98,826,192,-3964,0,-125,899,2366,2613,3004,3205,3136,2915,2748,2967
667995,5400,167832,165952,165952,-3800,-766,60,57,88,561,-176,-4202,-15,-135,900,2366,2613,3004,3205,3136,2915,2748,2967
668996,5396,168160,166216,166216,-3800,364,28,62,69,-57,-137,-4664,-6,-137,898,2366,2613,3004,3205,3136,2915,2748,2967
669997,5380,168404,166480,166480,-3800,-711,7,73,61,-27,9,-4343,-9,-141,897,2392,2645,3043,3247,3135,2914,2747,2967
670998,5396,168636,166744,166744,-3800,-899,-5,34,74,338,201,-3862,-12,-141,897,2392,2645,3043,3247,3135,2914,2747,2967
671999,5400,168964,167008,167008,-3800,380,-36,19,35,-175,-218,-3865,-15,-131,897,2392,2645,3043,3247,3135,2914,2747,2967
673000,5392,169204,167272,167272,-3800,-748,-45,103,3,-407,-291,-4612,-14,-147,898,2392,2645,3043,3247,3135,2914,2747,2967
674001,5392,169452,167536,167536,-3800,-668,-19,56,21,72,115,-4399,0,-136,897,2392,2645,3043,3247,3135,2914,2747,2967
675002,5388,169644,167800,167800,-3800,-1455,-2,-4,3,527,-153,-4228,0,-151,898,2428,2681,3065,3279,3159,2935,2764,3000
676003,5396,169892,168064,168064,-3800,-773,-4,-16,-51,225,-225,-4166,-3,-153,893,2428,2681,3065,3279,3159,2935,2764,3000
677004,5396,170144,168328,168328,-3800,-737,17,39,-76,-241,-316,-4675,-5,-163,897,2428,2681,3065,3279,3159,2935,2764,3000
678005,5404,170356,168592,168592,-3800,-1300,64,28,-38,341,-59,-4471,-2,-155,897,2428,2681,3065,3279,3159,2935,2764,3000
679006,5396,170656,168856,168856,-3800,-155,73,-17,-41,702,80,-3608,-5,-150,895,2428,2681,3065,3279,3159,2935,2764,3000
680007,5392,170924,169120,169120,-3800,-549,83,47,-46,-271,-175,-4327,-19,-163,899,2428,2681,3065,3279,3159,2935,2764,3000
681008,5404,171208,169384,169384,-3800,-325,89,92,-36,-433,-195,-4458,-16,-160,898,2445,2707,3109,3299,3178,2948,2784,3012
682009,5400,171456,169648,169648,-3800,-793,85,36,-4,12,42,-4432,-2,-164,899,2445,2707,3109,3299,3178,2948,2784,3012
683010,5384,171728,169912,169912,-3800,-483,80,74,13,300,36,-4020,1,-163,896,2445,2707,3109,3299,3178,2948,2784,3012
684011,5392,171992,170176,170176,-3800,-583,64,159,20,404,-189,-5084,-2,-169,899,2445,2707,3109,3299,3178,2948,2784,3012
685012,5404,172308,170440,170440,-3800,132,68,122,36,107,27,-4515,-18,-147,898,2445,2707,3109,3299,3178,2948,2784,3012
686013,5384,172564,170704,170704,-3800,-627,39,63,71,176,23,-4029,-17,-158,899,2482,2757,3154,3353,3154,2930,2770,3000
687014,5392,172820,170968,170968,-3800,-636,20,132,71,-207,-135,-4314,-1,-154,898,2482,2757,3154,3353,3154,2930,2770,3000
688015,5400,173108,171232,171232,-3800,-206,-11,180,65,-188,-95,-4737,-7,-158,898,2482,2757,3154,3353,3154,2930,2770,3000
689016,5388,173388,171496,171496,-3800,-286,-25,188,65,350,-84,-4451,-3,-158,900,2482,2757,3154,3353,3154,2930,2770,3000
690017,5400,173692,171760,171760,-3800,64,-51,160,62,365,-258,-4249,1,-153,899,2482,2757,3154,3353,3154,2930,2770,3000
691018,5404,173976,172024,172024,-3800,-162,-58,165,46,-270,-220,-4731,-13,-166,900,2482,2757,3154,3353,3154,2930,2770,3000
692019,5408,174216,172288,172288,-3800,-740,-48,182,46,-44,5,-4259,-4,-158,899,2494,2756,3151,3345,3149,2919,2759,2991
693020,5404,174476,172552,172552,-3800,-494,-49,186,28,-160,-131,-4019,-9,-147,898,2494,2756,3151,3345,3149,2919,2759,2991
694021,5400,174712,172816,172816,-3800,-827,-55,221,-7,-600,-225,-4334,-19,-157,899,2494,2756,3151,3345,3149,2919,2759,2991
695022,5400,175012,173080,173080,-3800,17,-27,147,-30,-432,-65,-4622,-9,-147,898,2494,2756,3151,3345,3149,2919,2759,2991
696023,5396,175268,173344,173344,-3800,-542,-9,25,-49,129,-22,-4285,-7,-157,900,2494,2756,3151,3345,3149,2919,2759,2991
697024,5400,175568,173608,173608,-3800,53,12,-41,-45,-147,7,-4145,2,-150,898,2449,2706,3101,3289,3146,2913,2741,2972
698025,5408,175840,173872,173872,-3800,-286,29,-56,-57,-808,-133,-4699,-18,-167,899,2449,2706,3101,3289,3146,2913,2741,2972
699026,5408,176076,174136,174136,-3800,-770,51,-39,-74,75,-174,-4709,-5,-152,891,2449,2706,3101,3289,3146,2913,2741,2972
700027,5412,176344,174400,174400,-3800,-364,59,-87,-70,771,-27,-3494,-15,-158,897,2449,2706,3101,3289,3146,2913,2741,2972
701028,5400,176612,174664,174664,-3800,-359,50,-6,-64,-431,-172,-4289,-12,-170,899,2449,2706,3101,3289,3146,2913,2741,2972
702029,5412,176928,174928,174928,-3800,306,43,76,-53,90,100,-3986,-3,-151,899,2449,2706,3101,3289,3146,2913,2741,2972
703030,5396,177180,175192,175192,-3800,-509,17,45,-43,285,-49,-3709,0,-158,893,2424,2680,3066,3251,3097,2865,2712,2936
704031,5404,177448,175456,175456,-3800,-303,2,78,-15,139,-43,-3770,-12,-155,899,2424,2680,3066,3251,3097,2865,2712,2936
705032,5388,177708,175720,175720,-3800,-407,-21,171,-6,321,-55,-4685,0,-157,899,2424,2680,3066,3251,3097,2865,2712,2936
706033,5408,178020,175984,175984,-3800,303,-49,170,11,497,63,-4111,-3,-156,899,2424,2680,3066,3251,3097,2865,2712,2936
707034,5404,178304,176248,176248,-3800,-23,-61,150,29,294,-64,-3809,-16,-155,895,2424,2680,3066,3251,3097,2865,2712,2936
708035,5408,178592,176512,176512,-3800,58,-78,186,39,-274,-107,-4209,-1,-156,900,2419,2671,3049,3247,3063,2833,2699,2919
709036,5416,178844,176776,176776,-3800,-406,-65,207,64,254,-47,-4701,-15,-155,900,2419,2671,3049,3247,3063,2833,2699,2919
710037,5408,179112,177040,177040,-3800,-200,-63,139,66,955,-12,-3626,-14,-152,899,2419,2671,3049,3247,3063,2833,2699,2919
711038,5408,179412,177304,177304,-3800,245,-76,126,51,318,-345,-4280,-17,-139,896,2419,2671,3049,3247,3063,2833,2699,2919
712039,5412,179676,177568,177568,-3800,-205,-74,165,41,21,-139,-4337,-4,-145,899,2419,2671,3049,3247,3063,2833,2699,2919
713040,5400,179984,177832,177832,-3800,399,-42,108,65,4,79,-3661,-16,-152,899,2419,2671,3049,3247,3063,2833,2699,2919
714041,5412,180248,178096,178096,-3800,-150,-45,89,72,-371,216,-3506,-2,-135,898,2403,2639,3024,3237,3083,2872,2708,2924
715042,5404,180484,178360,178360,-3800,-533,-25,252,73,68,-131,-4530,-12,-133,898,2403,2639,3024,3237,3083,2872,2708,2924
716043,5404,180772,178624,178624,-3800,148,-17,233,50,1208,-305,-4755,-16,-141,898,2403,2639,3024,3237,3083,2872,2708,2924
717044,5408,181008,178888,178888,-3800,-537,-11,83,12,788,-145,-4396,-4,-137,899,2403,2639,3024,3237,3083,2872,2708,2924
718045,5416,181268,179152,179152,-3800,-240,-16,-31,1,-297,124,-3530,-15,-131,898,2403,2639,3024,3237,3083,2872,2708,2924
719046,5408,181540,179416,179416,-3800,-80,-24,11,-5,-952,74,-4219,-17,-129,898,2403,2630,3040,3260,3104,2898,2723,2932
720047,5412,181768,179680,179680,-3800,-673,-22,170,-3,314,-3,-4411,1,-130,900,2403,2630,3040,3260,3104,2898,2723,2932
721048,5416,182052,179944,179944,-3800,53,-30,164,-20,1409,-48,-3880,-9,-132,898,2403,2630,3040,3260,3104,2898,2723,2932
722049,5416,182352,180224,180224,-3800,277,-52,114,-57,154,-170,-4138,-13,-136,900,2403,2630,3040,3260,3104,2898,2723,2932
723050,5408,182620,180488,180488,-3800,-117,-55,123,-47,-366,41,-4358,-11,-126,898,2403,2630,3040,3260,3104,2898,2723,2932
724051,5412,182888,180752,180752,-3800,-111,-49,116,-41,-94,68,-4452,-16,-137,900,2423,2647,3070,3300,3127,2937,2750,2955
725052,5416,183128,181016,181016,-3800,-489,-52,92,-55,335,44,-4084,2,-139,900,2423,2647,3070,3300,3127,2937,2750,2955
726053,5408,183376,181280,181280,-3800,-408,-57,33,-58,-146,-127,-4115,-9,-124,898,2423,2647,3070,3300,3127,2937,2750,2955
727054,5416,183744,181544,181544,-3800,1220,-52,8,-43,-735,-20,-4418,-16,-128,898,2423,2647,3070,3300,3127,2937,2750,2955
728055,5408,183980,181808,181808,-3800,-464,-40,79,-12,427,-44,-4657,-5,-138,890,2423,2647,3070,3300,3127,2937,2750,2955
729056,5424,184236,182072,182072,-3800,-223,-29,79,-7,892,-75,-4203,-3,-115,898,2423,2647,3070,3300,3127,2937,2750,2955
730057,5392,184472,182336,182336,-3800,-506,-21,-27,-9,-436,-82,-4243,-4,-128,899,2439,2666,3102,3337,3174,2983,2782,2992
731058,5412,184660,182600,182600,-3800,-1198,-15,-29,9,-769,-189,-4212,0,-119,898,2439,2666,3102,3337,3174,2983,2782,2992
732059,5400,184896,182864,182864,-3800,-631,-12,-9,42,12,-117,-4545,-4,-134,895,2439,2666,3102,3337,3174,2983,2782,2992
733060,5400,185212,183128,183128,-3800,432,-5,-59,71,247,112,-3991,-19,-125,898,2439,2666,3102,3337,3174,2983,2782,2992
734061,5404,185468,183392,183392,-3800,-326,-19,-46,57,379,-208,-4300,-13,-134,897,2439,2666,3102,3337,3174,2983,2782,2992
735062,5404,185776,183656,183656,-3800,378,-22,10,48,399,-322,-4781,-8,-132,899,2463,2691,3134,3368,3199,3007,2801,3013
736063,5408,186028,183920,183920,-3800,-335,-17,11,53,160,-207,-4224,-9,-130,898,2463,2691,3134,3368,3199,3007,2801,3013
737064,5412,186188,184184,184184,-3800,-1611,-20,35,63,458,-63,-4263,3,-118,899,2463,2691,3134,3368,3199,3007,2801,3013
738065,5412,186460,184448,184448,-3800,-201,-27,5,66,377,35,-3902,-16,-116,893,2463,2691,3134,3368,3199,3007,2801,3013
739066,5408,186768,184712,184712,-3800,303,-34,11,59,134,-192,-4182,-6,-135,899,2463,2691,3134,3368,3199,3007,2801,3013
740067,5408,187032,184976,184976,-3800,-246,-24,58,50,284,-176,-4608,0,-125,898,2463,2691,3134,3368,3199,3007,2801,3013
741068,5408,187308,185240,185240,-3800,-80,-13,91,32,411,-93,-4669,-15,-121,899,2480,2715,3155,3397,3209,3019,2815,3021
742069,5416,187536,185504,185504,-3800,-723,-8,33,7,429,128,-4238,-5,-114,900,2480,2715,3155,3397,3209,3019,2815,3021
743070,5400,187848,185768,185768,-3800,386,-14,30,1,341,-113,-4551,0,-117,897,2480,2715,3155,3397,3209,3019,2815,3021
744071,5400,188116,186032,186032,-3800,-159,-14,50,0,561,-71,-4327,-5,-127,898,2480,2715,3155,3397,3209,3019,2815,3021
745072,5412,188428,186296,186296,-3800,451,-11,51,23,20,227,-4645,-2,-123,899,2480,2715,3155,3397,3209,3019,2815,3021
746073,5408,188608,186560,186560,-3800,-1300,-10,37,20,337,213,-4096,-9,-127,897,2502,2719,3158,3403,3200,3002,2804,3004
747074,5416,188928,186824,186824,-3800,519,-44,-42,11,-153,247,-4413,-15,-115,894,2502,2719,3158,3403,3200,3002,2804,3004
748075,5400,189144,187088,187088,-3800,-840,-55,-76,24,-315,-38,-4552,-7,-131,839,2502,2719,3158,3403,3200,3002,2804,3004
749076,5392,189404,187352,187352,-3800,-294,-64,-111,16,14,73,-4932,-15,-114,897,2502,2719,3158,3403,3200,3002,2804,3004
750077,5412,189656,187616,187616,-3800,-407,-81,-135,13,140,389,-4663,0,-117,899,2502,2719,3158,3403,3200,3002,2804,3004
751078,5408,189916,187880,187880,-3800,-311,-98,-162,1,776,-95,-4167,-8,-129,898,2502,2719,3158,3403,3200,3002,2804,3004
752079,5420,190172,188144,188144,-3800,-371,-109,-148,-20,221,-177,-4344,0,-123,892,2492,2710,3135,3372,3192,2992,2790,3008
753080,5400,190416,188408,188408,-3800,-544,-84,-115,-14,-296,-110,-3806,2,-122,899,2492,2710,3135,3372,3192,2992,2790,3008
754081,5408,190692,188672,188672,-3800,-129,-47,-46,4,467,-74,-4040,-1,-113,898,2492,2710,3135,3372,3192,2992,2790,3008
755082,5400,190956,188936,188936,-3800,-278,-16,29,-9,855,-199,-4069,1,-117,900,2492,2710,3135,3372,3192,2992,2790,3008
756083,5416,191200,189200,189200,-3800,-551,17,17,-18,512,-375,-3939,-2,-130,894,2492,2710,3135,3372,3192,2992,2790,3008
757084,5412,191456,189464,189464,-3800,-411,44,44,-25,-100,-539,-4472,1,-115,898,2443,2671,3096,3303,3173,2960,2760,2973
758085,5404,191712,189728,189728,-3800,-420,57,52,-22,204,-356,-4303,-2,-127,899,2443,2671,3096,3303,3173,2960,2760,2973
759086,5408,191996,189992,189992,-3800,-44,73,10,-18,197,-123,-3969,-16,-121,899,2443,2671,3096,3303,3173,2960,2760,2973
760087,5396,192244,190256,190256,-3800,-513,74,-10,4,-109,-175,-4141,-3,-135,896,2443,2671,3096,3303,3173,2960,2760,2973
761088,5408,192492,190520,190520,-3800,-532,68,-58,18,-93,-296,-4199,-4,-120,898,2443,2671,3096,3303,3173,2960,2760,2973
762089,5416,192744,190784,190784,-3800,-496,47,-133,24,-613,-117,-4254,-5,-116,898,2443,2671,3096,3303,3173,2960,2760,2973
763090,5392,193016,191048,191048,-3800,-235,29,-154,35,-588,-94,-4423,-4,-124,898,2426,2660,3077,3295,3102,2898,2721,2926
764091,5404,193276,191312,191312,-3800,-389,10,-199,49,20,78,-4422,-7,-133,897,2426,2660,3077,3295,3102,2898,2721,2926
765092,5412,193524,191576,191576,-3800,-559,2,-227,61,302,-17,-4161,-15,-124,899,2426,2660,3077,3295,3102,2898,2721,2926
766093,5408,193800,191840,191840,-3800,-193,-10,-165,58,397,-131,-4223,-15,-120,898,2426,2660,3077,3295,3102,2898,2721,2926
767094,5396,194072,192104,192104,-3800,-232,-22,-155,41,-196,63,-4119,-4,-125,899,2426,2660,3077,3295,3102,2898,2721,2926
768095,5408,194312,192368,192368,-3800,-660,-27,-157,46,-294,150,-3689,-1,-126,897,2435,2678,3071,3284,3076,2860,2696,2922
769096,5392,194548,192632,192632,-3800,-745,-29,-87,34,195,281,-3825,-1,-129,898,2435,2678,3071,3284,3076,2860,2696,2922
770097,5404,194816,192896,192896,-3800,-339,-35,-45,15,747,-36,-4372,11,-134,897,2435,2678,3071,3284,3076,2860,2696,2922
771098,5400,195064,193160,193160,-3800,-607,-29,-33,-1,498,4,-4263,-5,-134,899,2435,2678,3071,3284,3076,2860,2696,2922
772099,5404,195344,193424,193424,-3800,-187,-10,-54,11,-49,241,-4064,-14,-135,897,2435,2678,3071,3284,3076,2860,2696,2922
773102,5392,195584,193688,193688,-3800,-716,1,-60,11,15,102,-4082,-16,-141,900,2435,2678,3071,3284,3076,2860,2696,2922
774101,5392,195840,193952,193952,-3800,-525,-10,-8,-5,247,30,-4219,-1,-124,898,2435,2682,3064,3255,3064,2846,2703,2918
775102,5404,196132,194216,194216,-3800,-40,-20,-10,3,164,171,-4265,-18,-139,898,2435,2682,3064,3255,3064,2846,2703,2918
776103,5400,196432,194480,194480,-3800,104,-11,-99,47,-290,289,-3850,0,-132,899,2435,2682,3064,3255,3064,2846,2703,2918
777104,5400,196656,194744,194744,-3800,-894,-23,-105,63,-36,114,-4128,-5,-129,900,2435,2682,3064,3255,3064,2846,2703,2918
778105,5404,196868,195008,195008,-3800,-1106,-47,-52,26,50,-203,-4169,4,-123,897,2435,2682,3064,3255,3064,2846,2703,2918
779106,5392,197112,195272,195272,-3800,-729,-62,-32,31,199,-90,-4779,-1,-128,895,2434,2696,3078,3281,3069,2848,2705,2932
780107,5408,197384,195536,195536,-3800,-370,-57,-125,71,376,52,-4043,-3,-131,897,2434,2696,3078,3281,3069,2848,2705,2932
781108,5388,197684,195800,195800,-3800,25,-74,-169,70,60,60,-3922,-9,-125,899,2434,2696,3078,3281,3069,2848,2705,2932
782109,5400,197912,196064,196064,-3800,-918,-91,-154,47,-383,-182,-3688,0,-130,900,2434,2696,3078,3281,3069,2848,2705,2932
783110,5392,198188,196328,196328,-3800,-302,-99,-90,28,-335,-346,-4456,-9,-128,897,2434,2696,3078,3281,3069,2848,2705,2932
784111,5392,198428,196608,196608,-3800,-801,-70,-37,24,742,-299,-4447,-19,-142,899,2434,2696,3078,3281,3069,2848,2705,2932
785112,5408,198680,196872,196872,-3800,-664,-52,-87,16,1112,-207,-4001,-10,-144,896,2455,2713,3102,3282,3109,2875,2727,2973
786113,5396,198960,197136,197136,-3800,-294,-35,-118,-2,52,-467,-3786,-1,-143,898,2455,2713,3102,3282,3109,2875,2727,2973
787114,5396,199188,197400,197400,-3800,-988,-12,-87,-19,-664,-365,-4104,-7,-153,899,2455,2713,3102,3282,3109,2875,2727,2973
788115,5404,199444,197664,197664,-3800,-647,8,-43,-9,-177,-169,-4387,-3,-139,896,2455,2713,3102,3282,3109,2875,2727,2973
789116,5392,199720,197928,197928,-3800,-381,10,-27,-16,1278,-271,-3943,-19,-145,898,2455,2713,3102,3282,3109,2875,2727,2973
790117,5396,200004,198192,198192,-3800,-257,23,-92,-28,6,-172,-3831,-11,-136,899,2470,2743,3135,3311,3143,2904,2755,3008
791118,5392,200296,198456,198456,-3800,-121,16,-105,-24,-1292,-22,-4429,-14,-156,899,2470,2743,3135,3311,3143,2904,2755,3008
792119,5388,200552,198720,198720,-3800,-580,13,-44,-12,222,-156,-4834,-13,-136,900,2470,2743,3135,3311,3143,2904,2755,3008
793120,5380,200816,198984,198984,-3800,-480,1,-87,1,1028,-35,-4362,-3,-144,898,2470,2743,3135,3311,3143,2904,2755,3008
794121,5388,201060,199248,199248,-3800,-754,-16,-126,-1,-196,-38,-4013,-5,-149,898,2470,2743,3135,3311,3143,2904,2755,3008
795122,5392,201296,199512,199512,-3800,-887,-42,-42,2,-676,-5,-4812,-3,-154,897,2470,2743,3135,3311,3143,2904,2755,3008
796123,5396,201608,199776,199776,-3800,123,-55,-7,28,496,136,-4309,-1,-143,897,2519,2807,3197,3383,3164,2927,2784,3032
797124,5388,201852,200040,200040,-3800,-752,-74,2,47,1124,162,-4088,-1,-160,899,2519,2807,3197,3383,3164,2927,2784,3032
798125,5400,202088,200304,200304,-3800,-885,-95,74,37,153,-65,-4449,-8,-152,897,2519,2807,3197,3383,3164,2927,2784,3032
799126,5384,202280,200568,200568,-3800,-1522,-112,144,37,-129,-36,-4911,-4,-151,897,2519,2807,3197,3383,3164,2927,2784,3032
800127,5400,202540,200832,200832,-3800,-677,-115,154,50,794,142,-4444,-3,-157,894,2519,2807,3197,3383,3164,2927,2784,3032
801128,5388,202856,201096,201096,-3800,88,-122,120,71,563,-96,-4166,-20,-164,871,2557,2840,3231,3415,3192,2962,2803,3055
802129,5388,203128,201360,201360,-3800,-451,-119,101,70,-1354,-69,-4303,-18,-160,898,2557,2840,3231,3415,3192,2962,2803,3055
803130,5380,203404,201624,201624,-3800,-387,-121,95,44,-1470,-220,-4640,-1,-158,899,2557,2840,3231,3415,3192,2962,2803,3055
804131,5388,203652,201888,201888,-3800,-755,-96,29,36,583,-133,-4582,-6,-151,899,2557,2840,3231,3415,3192,2962,2803,3055
805132,5380,203904,202152,202152,-3800,-719,-63,-60,42,423,-241,-4590,-3,-152,891,2557,2840,3231,3415,3192,2962,2803,3055
806133,5380,204164,202416,202416,-3800,-624,-27,-83,31,-68,-260,-5228,-2,-165,898,2557,2840,3231,3415,3192,2962,2803,3055
807134,5392,204436,202680,202680,-3800,-463,-3,-129,4,106,-188,-4539,-19,-160,898,2536,2812,3217,3396,3227,2984,2799,3055
808135,5384,204696,202944,202944,-3800,-617,-8,-150,-22,229,-358,-3829,-1,-164,899,2536,2812,3217,3396,3227,2984,2799,3055
809136,5380,204980,203208,203208,-3800,-292,-12,-90,-28,-721,-184,-3977,-6,-161,893,2536,2812,3217,3396,3227,2984,2799,3055
810137,5388,205276,203472,203472,-3800,-102,-9,15,-13,-481,96,-4295,-16,-164,899,2536,2812,3217,3396,3227,2984,2799,3055
811138,5384,205520,203736,203736,-3800,-776,-14,40,-18,1227,14,-3760,-15,-167,900,2536,2812,3217,3396,3227,2984,2799,3055
812139,5388,205784,204000,204000,-3800,-526,-39,62,-43,650,-294,-4269,-10,-147,898,2518,2793,3182,3351,3179,2936,2779,3015
813140,5380,206028,204264,204264,-3800,-799,-48,68,-57,-247,-82,-4794,-3,-153,895,2518,2793,3182,3351,3179,2936,2779,3015
814141,5380,206300,204528,204528,-3800,-438,-52,36,-38,-483,183,-4608,-14,-147,898,2518,2793,3182,3351,3179,2936,2779,3015
815142,5384,206548,204792,204792,-3800,-758,-60,-24,-15,584,24,-3959,-10,-156,899,2518,2793,3182,3351,3179,2936,2779,3015
816143,5376,206788,205056,205056,-3800,-886,-63,21,-27,72,-1,-4657,-14,-171,898,2518,2793,3182,3351,3179,2936,2779,3015
817144,5400,207072,205320,205320,-3800,-311,-72,49,-29,178,132,-4365,-2,-167,895,2518,2793,3182,3351,3179,2936,2779,3015
818145,5380,207368,205584,205584,-3800,-122,-81,3,-12,182,141,-3841,-18,-174,899,2491,2759,3138,3328,3138,2906,2752,2980
819146,5384,207628,205848,205848,-3800,-576,-93,14,0,-526,225,-3695,-18,-164,899,2491,2759,3138,3328,3138,2906,2752,2980
820147,5376,207876,206112,206112,-3800,-744,-85,110,5,-356,-40,-4671,-17,-163,898,2491,2759,3138,3328,3138,2906,2752,2980
821150,5368,208168,206376,206376,-3800,-160,-75,76,7,768,260,-4445,-12,-171,896,2491,2759,3138,3328,3138,2906,2752,2980
822149,5376,208444,206640,206640,-3800,-344,-73,26,18,626,-2,-3884,-13,-162,900,2491,2759,3138,3328,3138,2906,2752,2980
823150,5376,208732,206904,206904,-3800,-164,-67,76,28,108,-41,-4683,-12,-171,899,2451,2707,3083,3274,3122,2888,2736,2960
824151,5384,209008,207168,207168,-3800,-298,-57,114,36,-76,107,-4166,-13,-155,900,2451,2707,3083,3274,3122,2888,2736,2960
825152,5364,209280,207432,207432,-3800,-339,-59,116,48,1050,20,-3907,-11,-164,898,2451,2707,3083,3274,3122,2888,2736,2960
826153,5384,209556,207696,207696,-3800,-273,-59,134,39,-90,48,-3782,0,-173,899,2451,2707,3083,3274,3122,2888,2736,2960
827154,5380,209840,207960,207960,-3800,-148,-70,183,22,-1178,-12,-4065,0,-159,899,2451,2707,3083,3274,3122,2888,2736,2960
828155,5372,210120,208224,208224,-3800,-178,-62,154,27,87,-123,-3662,-5,-158,900,2451,2707,3083,3274,3122,2888,2736,2960
829156,5380,210368,208488,208488,-3800,-597,-52,104,32,81,-58,-4181,1,-159,899,2406,2654,3034,3220,3095,2867,2705,2921
830157,5368,210700,208752,208752,-3800,537,-25,90,22,674,-172,-4997,-11,-159,898,2406,2654,3034,3220,3095,2867,2705,2921
831158,5364,210928,209016,209016,-3800,-806,-6,6,11,546,-54,-4276,-18,-167,897,2406,2654,3034,3220,3095,2867,2705,2921
832159,5376,211196,209280,209280,-3800,-301,-8,-46,-13,-124,-304,-3807,1,-152,897,2406,2654,3034,3220,3095,2867,2705,2921
833160,5376,211436,209544,209544,-3800,-679,-1,60,-34,-298,-334,-4328,-5,-161,899,2406,2654,3034,3220,3095,2867,2705,2921
834161,5372,211748,209808,209808,-3800,281,10,125,-28,243,141,-3907,-7,-161,898,2379,2622,3014,3200,3077,2862,2700,2922
835162,5384,212024,210072,210072,-3800,-154,-5,135,-25,503,55,-3353,-14,-167,899,2379,2622,3014,3200,3077,2862,2700,2922
836163,5364,212248,210336,210336,-3800,-853,-6,164,-33,-329,-66,-3859,-14,-155,898,2379,2622,3014,3200,3077,2862,2700,2922
837164,5376,212500,210600,210600,-3800,-516,3,173,-44,-702,1,-4496,-12,-146,897,2379,2622,3014,3200,3077,2862,2700,2922
838165,5364,212756,210864,210864,-3800,-475,20,103,-56,570,-107,-4343,-11,-143,899,2379,2622,3014,3200,3077,2862,2700,2922
839166,5368,213056,211128,211128,-3800,119,19,-2,-45,145,5,-4065,-12,-154,899,2379,2622,3014,3200,3077,2862,2700,2922
840167,5372,213312,211392,211392,-3800,-440,33,12,-24,-647,-36,-4486,0,-161,899,2371,2607,3007,3203,3091,2871,2712,2928
841168,5384,213568,211656,211656,-3800,-449,57,7,-16,-530,40,-4383,-12,-150,898,2371,2607,3007,3203,3091,2871,2712,2928
842169,5376,213828,211920,211920,-3800,-402,60,-27,-14,-30,71,-3943,-7,-148,899,2371,2607,3007,3203,3091,2871,2712,2928
843170,5368,214084,212184,212184,-3800,-462,61,-19,-5,455,-70,-3851,-10,-143,899,2371,2607,3007,3203,3091,2871,2712,2928
844171,5376,214356,212448,212448,-3800,-251,53,13,10,-126,77,-4145,0,-147,899,2371,2607,3007,3203,3091,2871,2712,2928
845172,5368,214640,212712,212712,-3800,-76,66,40,37,169,164,-4077,-11,-151,899,2389,2640,3030,3235,3094,2874,2718,2939
846173,5380,214892,212992,212992,-3800,-509,44,19,26,376,184,-3643,-11,-135,900,2389,2640,3030,3235,3094,2874,2718,2939
847174,5368,215192,213256,213256,-3800,135,17,105,25,-3,38,-4277,-4,-142,898,2389,2640,3030,3235,3094,2874,2718,2939
848175,5372,215448,213520,213520,-3800,-424,23,141,54,181,122,-4510,-15,-136,899,2389,2640,3030,3235,3094,2874,2718,2939
849176,5376,215728,213784,213784,-3800,-103,20,149,67,669,247,-4296,-1,-137,899,2389,2640,3030,3235,3094,2874,2718,2939
850177,5364,216012,214048,214048,-3800,-28,13,169,65,1056,-110,-4212,-15,-146,900,2389,2640,3030,3235,3094,2874,2718,2939
851178,5368,216284,214312,214312,-3800,-168,1,210,61,73,-46,-4332,1,-134,900,2433,2688,3075,3280,3120,2906,2749,2973
852179,5368,216492,214576,214576,-3800,-1036,-5,280,65,-373,38,-4435,-8,-129,899,2433,2688,3075,3280,3120,2906,2749,2973
853180,5368,216744,214840,214840,-3800,-499,-27,235,35,200,12,-3892,-8,-146,895,2433,2688,3075,3280,3120,2906,2749,2973
854181,5376,217008,215104,215104,-3800,-349,-54,216,22,127,139,-4390,-18,-145,895,2433,2688,3075,3280,3120,2906,2749,2973
855182,5356,217292,215368,215368,-3800,-74,-52,191,24,-317,-132,-4464,-12,-132,899,2433,2688,3075,3280,3120,2906,2749,2973
856183,5360,217560,215632,215632,-3800,-268,-42,150,16,105,-203,-5173,-17,-127,899,2467,2709,3127,3351,3161,2951,2767,2986
857184,5380,217804,215896,215896,-3800,-591,-25,70,-1,787,-99,-4486,-14,-137,899,2467,2709,3127,3351,3161,2951,2767,2986
858185,5364,218044,216160,216160,-3800,-671,-14,-24,-18,-314,-123,-4430,-7,-127,892,2467,2709,3127,3351,3161,2951,2767,2986
859186,5368,218284,216424,216424,-3800,-699,5,18,-41,-782,-309,-4609,-13,-132,898,2467,2709,3127,3351,3161,2951,2767,2986
860187,5368,218596,216688,216688,-3800,261,37,-11,-39,-237,-100,-4407,-3,-135,898,2467,2709,3127,3351,3161,2951,2767,2986
861188,5384,218856,216952,216952,-3800,-393,69,-79,-40,63,123,-3834,0,-132,899,2467,2709,3127,3351,3161,2951,2767,2986
862189,5376,219132,217216,217216,-3800,-179,82,-114,-43,-50,-141,-4005,-15,-137,894,2484,2714,3152,3380,3160,2955,2757,2970
863190,5368,219388,217480,217480,-3800,-437,91,-38,-44,231,-222,-4725,-15,-116,899,2484,2714,3152,3380,3160,2955,2757,2970
864191,5364,219656,217744,217744,-3800,-282,97,-38,-34,582,-248,-4766,0,-125,899,2484,2714,3152,3380,3160,2955,2757,2970
865192,5368,219916,218008,218008,-3800,-385,80,-45,-49,547,-90,-4177,-6,-119,899,2484,2714,3152,3380,3160,2955,2757,2970
866193,5368,220160,218272,218272,-3800,-610,47,5,-47,362,-217,-4157,-6,-119,895,2484,2714,3152,3380,3160,2955,2757,2970
867194,5376,220408,218536,218536,-3800,-578,-8,79,-48,209,-285,-4391,-7,-115,898,2520,2746,3184,3421,3108,2916,2733,2927
868195,5368,220664,218800,218800,-3800,-487,-43,180,-43,374,-120,-4353,2,-130,898,2520,2746,3184,3421,3108,2916,2733,2927
869196,5372,220912,219064,219064,-3800,-607,-54,147,-20,529,-62,-3874,-3,-123,898,2520,2746,3184,3421,3108,2916,2733,2927
870197,5368,221132,219328,219328,-3800,-1009,-56,123,-19,210,-232,-4319,-12,-118,895,2520,2746,3184,3421,3108,2916,2733,2927
871198,5376,221388,219592,219592,-3800,-568,-68,146,-35,222,-392,-4596,-17,-123,896,2520,2746,3184,3421,3108,2916,2733,2927
872199,5380,221616,219856,219856,-3800,-962,-54,156,-7,70,-200,-4813,-1,-127,898,2520,2746,3184,3421,3108,2916,2733,2927
873200,5372,221868,220120,220120,-3800,-676,-18,82,31,45,-103,-4468,-11,-121,896,2524,2744,3181,3419,3093,2921,2727,2923
874201,5376,222108,220384,220384,-3800,-854,0,24,14,129,-139,-4304,-8,-124,896,2524,2744,3181,3419,3093,2921,2727,2923
875202,5380,222364,220648,220648,-3800,-664,-16,7,11,-531,-128,-4182,-2,-133,897,2524,2744,3181,3419,3093,2921,2727,2923
876203,5384,222672,220912,220912,-3800,41,-17,30,31,-729,-174,-4410,-7,-129,898,2524,2744,3181,3419,3093,2921,2727,2923
877204,5388,222928,221176,221176,-3800,-618,-4,50,71,-9,110,-4392,-12,-133,900,2524,2744,3181,3419,3093,2921,2727,2923
878205,5368,223208,221440,221440,-3800,-298,19,-13,98,526,199,-4091,-3,-120,897,2492,2699,3141,3387,3075,2892,2701,2889
879206,5376,223456,221704,221704,-3800,-717,10,-75,78,302,-59,-4343,-6,-133,899,2492,2699,3141,3387,3075,2892,2701,2889
880207,5376,223696,221968,221968,-3800,-845,-19,-85,57,-32,-189,-4502,-4,-126,898,2492,2699,3141,3387,3075,2892,2701,2889
881208,5380,223992,222232,222232,-3800,-106,-48,-62,46,248,-219,-4400,1,-124,897,2492,2699,3141,3387,3075,2892,2701,2889
882209,5384,224240,222496,222496,-3800,-725,-70,-49,43,524,73,-4123,-15,-128,899,2492,2699,3141,3387,3075,2892,2701,2889
883210,5376,224504,222760,222760,-3800,-524,-93,-12,34,558,-4,-3884,-10,-118,898,2492,2699,3141,3387,3075,2892,2701,2889
884211,5376,224772,223024,223024,-3800,-469,-122,28,8,361,-304,-4090,-15,-121,898,2480,2680,3112,3353,3036,2853,2673,2869
885212,5368,225052,223288,223288,-3800,-298,-137,34,-8,182,-132,-4218,-5,-129,898,2480,2680,3112,3353,3036,2853,2673,2869
886213,5380,225304,223552,223552,-3800,-662,-100,-16,10,45,143,-3969,-6,-127,899,2480,2680,3112,3353,3036,2853,2673,2869
887214,5380,225560,223816,223816,-3800,-621,-70,-33,-12,313,-69,-3987,2,-133,897,2480,2680,3112,3353,3036,2853,2673,2869
888215,5372,225828,224080,224080,-3800,-466,-67,-55,-51,489,-264,-4259,-15,-128,898,2480,2680,3112,3353,3036,2853,2673,2869
889216,5368,226096,224344,224344,-3800,-460,-61,-52,-43,-198,-174,-4226,0,-131,898,2434,2635,3062,3293,3050,2864,2679,2882
890217,5376,226380,224608,224608,-3800,-234,-33,-33,-12,-102,-116,-4124,-12,-132,898,2434,2635,3062,3293,3050,2864,2679,2882
891218,5376,226636,224872,224872,-3800,-594,-20,32,-12,822,-210,-4057,-16,-133,899,2434,2635,3062,3293,3050,2864,2679,2882
892219,5392,226908,225136,225136,-3800,-383,-47,28,-32,597,-119,-3886,3,-118,898,2434,2635,3062,3293,3050,2864,2679,2882
893220,5380,227188,225400,225400,-3800,-263,-65,-14,-36,-458,-131,-4133,-2,-136,899,2434,2635,3062,3293,3050,2864,2679,2882
894221,5372,227412,225664,225664,-3800,-1012,-56,-23,-8,-119,-40,-4089,-17,-133,899,2434,2635,3062,3293,3050,2864,2679,2882
895222,5376,227692,225928,225928,-3800,-291,-56,-35,0,779,-11,-4132,-14,-125,896,2411,2620,3042,3274,3050,2859,2684,2879
896223,5372,227952,226192,226192,-3800,-545,-69,-88,-14,376,-37,-4137,-14,-132,899,2411,2620,3042,3274,3050,2859,2684,2879
897224,5376,228216,226456,226456,-3800,-495,-76,-113,5,-310,-44,-4341,-7,-126,898,2411,2620,3042,3274,3050,2859,2684,2879
898225,5380,228508,226720,226720,-3800,-110,-62,-93,22,383,-188,-4487,-2,-129,898,2411,2620,3042,3274,3050,2859,2684,2879
899226,5384,228776,226984,226984,-3800,-404,-59,-107,26,610,171,-4038,-13,-138,899,2411,2620,3042,3274,3050,2859,2684,2879
900227,5380,229072,227248,227248,-3800,-15,-54,-126,38,-83,58,-3756,3,-117,899,2403,2623,3024,3272,3072,2882,2707,2913
901228,5380,229304,227512,227512,-3800,-853,-64,-40,43,-52,-123,-4208,-5,-128,900,2403,2623,3024,3272,3072,2882,2707,2913
902229,5400,229556,227776,227776,-3800,-617,-79,17,51,555,51,-4266,-15,-131,897,2403,2623,3024,3272,3072,2882,2707,2913
903230,5384,229836,228040,228040,-3800,-247,-86,-16,66,423,40,-4128,-18,-125,898,2403,2623,3024,3272,3072,2882,2707,2913
904231,5392,230092,228304,228304,-3800,-556,-93,-53,75,157,164,-4029,-14,-143,898,2403,2623,3024,3272,3072,2882,2707,2913
905232,5388,230352,228568,228568,-3800,-510,-98,-22,57,175,-216,-4291,-8,-127,898,2403,2623,3024,3272,3072,2882,2707,2913
906233,5380,230636,228832,228832,-3800,-185,-102,10,57,193,-97,-4585,-17,-144,898,2413,2641,3054,3283,3117,2922,2745,2948
907234,5388,230924,229096,229096,-3800,-105,-94,-42,58,-242,57,-4121,-7,-135,892,2413,2641,3054,3283,3117,2922,2745,2948
908235,5388,231144,229376,229376,-3800,-1027,-80,-52,62,-105,63,-4277,-13,-136,900,2413,2641,3054,3283,3117,2922,2745,2948
909236,5384,231372,229640,229640,-3800,-971,-74,-80,45,356,-171,-4143,2,-119,896,2413,2641,3054,3283,3117,2922,2745,2948
910237,5384,231604,229904,229904,-3800,-959,-79,-74,20,101,-229,-4640,-10,-133,897,2413,2641,3054,3283,3117,2922,2745,2948
911238,5388,231884,230168,230168,-3800,-339,-61,-107,23,-378,65,-4341,-18,-135,891,2422,2659,3077,3294,3174,2974,2786,3006
912239,5388,232152,230432,230432,-3800,-484,-57,-138,20,-59,129,-4051,-18,-152,899,2422,2659,3077,3294,3174,2974,2786,3006
913240,5376,232428,230696,230696,-3800,-368,-39,-72,24,373,43,-4367,-5,-138,899,2422,2659,3077,3294,3174,2974,2786,3006
914241,5392,232676,230960,230960,-3800,-737,-27,-93,19,390,-238,-4656,-7,-144,899,2422,2659,3077,3294,3174,2974,2786,3006
915242,5384,232948,231224,231224,-3800,-427,-13,-119,30,122,126,-4490,-1,-136,894,2422,2659,3077,3294,3174,2974,2786,3006
916243,5388,233200,231488,231488,-3800,-691,-3,-157,40,-58,160,-3808,-15,-143,899,2422,2659,3077,3294,3174,2974,2786,3006
917244,5388,233460,231752,231752,-3800,-595,-21,-79,21,38,-175,-4485,1,-151,898,2437,2683,3099,3307,3216,2992,2808,3037
918245,5396,233716,232016,232016,-3800,-654,-39,-13,12,378,-109,-4591,-3,-147,898,2437,2683,3099,3307,3216,2992,2808,3037
919246,5396,234012,232280,232280,-3800,-114,-40,-44,29,329,4,-4362,0,-151,895,2437,2683,3099,3307,3216,2992,2808,3037
920247,5388,234232,232544,232544,-3800,-1117,-46,-93,48,31,144,-4033,-1,-156,900,2437,2683,3099,3307,3216,2992,2808,3037
921248,5392,234484,232808,232808,-3800,-732,-45,-31,55,139,53,-4602,-15,-135,895,2437,2683,3099,3307,3216,2992,2808,3037
922249,5400,234764,233072,233072,-3800,-361,-39,-13,32,259,-159,-4659,-4,-159,897,2454,2711,3116,3315,3225,2996,2815,3048
923250,5400,235064,233336,233336,-3800,-66,-55,-69,1,346,-239,-4367,-5,-146,897,2454,2711,3116,3315,3225,2996,2815,3048
924251,5380,235332,233600,233600,-3800,-461,-66,-107,-4,-292,-2,-4004,-4,-149,899,2454,2711,3116,3315,3225,2996,2815,3048
925252,5400,235572,233864,233864,-3800,-840,-57,-67,26,-736,157,-4534,-11,-136,899,2454,2711,3116,3315,3225,2996,2815,3048
926253,5388,235876,234128,234128,-3800,10,-42,17,28,803,-215,-4919,-5,-152,897,2454,2711,3116,3315,3225,2996,2815,3048
927254,5392,236260,234392,234392,-3800,1157,-36,-90,2,798,66,-3879,-4,-153,898,2454,2711,3116,3315,3225,2996,2815,3048
928255,5392,236380,234656,234656,-3800,-2318,-39,-100,-24,-426,-239,-4420,-6,-156,891,2455,2720,3119,3307,3219,2982,2808,3046
929256,5396,236628,234920,234920,-3800,-737,-24,-59,-14,78,-80,-4786,-12,-145,888,2455,2720,3119,3307,3219,2982,2808,3046
930257,5388,236896,235184,235184,-3800,-482,-29,-99,-23,463,150,-4177,-8,-152,897,2455,2720,3119,3307,3219,2982,2808,3046
931258,5392,237216,235448,235448,-3800,238,-23,-85,-24,-119,-47,-3862,-18,-151,897,2455,2720,3119,3307,3219,2982,2808,3046
932259,5396,237360,235712,235712,-3800,-2108,-29,-38,-32,-389,-156,-4510,0,-145,899,2455,2720,3119,3307,3219,2982,2808,3046
933260,5396,237636,235976,235976,-3800,-443,-24,-15,-35,34,-41,-4769,-12,-151,890,2452,2720,3112,3302,3181,2929,2775,3002
934261,5404,237928,236240,236240,-3800,-208,-19,-37,-15,723,63,-4117,-16,-155,898,2452,2720,3112,3302,3181,2929,2775,3002
935262,5392,238184,236504,236504,-3800,-667,-24,-62,0,258,-60,-4236,-13,-159,898,2452,2720,3112,3302,3181,2929,2775,3002
936263,5396,238428,236768,236768,-3800,-841,-15,-2,-9,-146,-136,-4395,-16,-165,898,2452,2720,3112,3302,3181,2929,2775,3002
937264,5396,238724,237032,237032,-3800,-151,-24,32,-17,82,-102,-4512,-18,-162,897,2452,2720,3112,3302,3181,2929,2775,3002
938265,5408,238996,237296,237296,-3800,-441,-34,56,0,568,-119,-4222,-3,-159,898,2452,2720,3112,3302,3181,2929,2775,3002
939266,5404,239268,237560,237560,-3800,-431,-39,41,19,125,-45,-4014,-17,-161,899,2449,2713,3090,3293,3115,2885,2727,2951
940267,5396,239556,237824,237824,-3800,-200,-39,113,26,-548,-133,-4407,-17,-153,899,2449,2713,3090,3293,3115,2885,2727,2951
941268,5384,239824,238088,238088,-3800,-445,-59,141,41,-356,16,-3988,-17,-158,899,2449,2713,3090,3293,3115,2885,2727,2951
942269,5396,240112,238352,238352,-3800,-165,-67,143,62,-438,22,-4118,-13,-158,899,2449,2713,3090,3293,3115,2885,2727,2951
943270,5404,240384,238616,238616,-3800,-354,-68,123,65,-448,-83,-4426,-18,-163,899,2449,2713,3090,3293,3115,2885,2727,2951
944271,5400,240624,238880,238880,-3800,-784,-61,4,46,313,-36,-4919,-17,-163,899,2424,2675,3060,3254,3075,2855,2690,2898
945272,5408,240916,239144,239144,-3800,-98,-69,-149,33,276,-119,-3847,-5,-154,897,2424,2675,3060,3254,3075,2855,2690,2898
946273,5404,241192,239408,239408,-3800,-283,-76,-206,22,-980,-212,-4153,-19,-164,899,2424,2675,3060,3254,3075,2855,2690,2898
947274,5424,241468,239672,239672,-3800,-267,-81,-152,-12,-1198,-219,-4231,-3,-159,899,2424,2675,3060,3254,3075,2855,2690,2898
948275,5396,241748,239936,239936,-3800,-198,-60,-93,-17,317,-140,-4052,-16,-142,899,2424,2675,3060,3254,3075,2855,2690,2898
949276,5400,241992,240200,240200,-3800,-671,-33,-82,8,1067,-137,-3322,-15,-150,899,2378,2627,3008,3184,3057,2823,2675,2904
950277,5396,242256,240464,240464,-3800,-420,-38,-77,-36,-250,-362,-4066,-12,-159,898,2378,2627,3008,3184,3057,2823,2675,2904
951278,5412,242560,240728,240728,-3800,129,-31,-91,-78,-507,-97,-3986,-8,-163,899,2378,2627,3008,3184,3057,2823,2675,2904
952279,5396,242840,240992,240992,-3800,-151,-16,-157,-70,480,-117,-3408,-7,-168,899,2378,2627,3008,3184,3057,2823,2675,2904
953280,5408,243144,241256,241256,-3800,199,-7,-49,-58,454,-197,-4051,-15,-150,900,2378,2627,3008,3184,3057,2823,2675,2904
954281,5404,243380,241520,241520,-3800,-685,6,92,-51,769,19,-4296,-10,-161,899,2378,2627,3008,3184,3057,2823,2675,2904
955282,5396,243652,241784,241784,-3800,-224,9,84,-30,423,-75,-3950,2,-157,897,2355,2613,2987,3163,3052,2820,2682,2908
956283,5416,243924,242048,242048,-3800,-213,-1,60,-22,-120,54,-3320,-19,-147,863,2355,2613,2987,3163,3052,2820,2682,2908
957284,5404,244188,242312,242312,-3800,-312,-36,126,2,-741,177,-4019,-7,-157,899,2355,2613,2987,3163,3052,2820,2682,2908
958285,5412,244464,242576,242576,-3800,-148,-32,155,43,323,106,-4500,1,-153,899,2355,2613,2987,3163,3052,2820,2682,2908
959286,5400,244828,242840,242840,-3800,1075,-35,64,63,973,93,-3919,-17,-158,899,2355,2613,2987,3163,3052,2820,2682,2908
960287,5408,245076,243104,243104,-3800,-393,-61,54,60,341,-110,-4403,-16,-155,886,2383,2638,3014,3208,3062,2850,2708,2929
961288,5408,245328,243368,243368,-3800,-357,-82,112,68,198,-25,-4983,-13,-137,898,2383,2638,3014,3208,3062,2850,2708,2929
962289,5408,245544,243632,243632,-3800,-866,-90,65,91,267,79,-3757,-4,-132,899,2383,2638,3014,3208,3062,2850,2708,2929
963290,5416,245824,243896,243896,-3800,-45,-107,25,117,56,134,-3707,-10,-137,897,2383,2638,3014,3208,3062,2850,2708,2929
964291,5412,246088,244160,244160,-3800,-244,-113,115,110,-432,-18,-4026,-16,-133,895,2383,2638,3014,3208,3062,2850,2708,2929
965292,5400,246364,244424,244424,-3800,-79,-110,106,95,35,47,-4372,-16,-146,899,2383,2638,3014,3208,3062,2850,2708,2929
966293,5412,246620,244688,244688,-3800,-338,-96,52,82,193,72,-4138,2,-140,899,2395,2658,3047,3244,3135,2917,2758,2992
967294,5408,246888,244952,244952,-3800,-182,-89,-18,68,155,-107,-4090,-16,-139,899,2395,2658,3047,3244,3135,2917,2758,2992
968295,5404,247152,245216,245216,-3800,-231,-76,24,25,-27,-303,-4934,-14,-152,896,2395,2658,3047,3244,3135,2917,2758,2992
969296,5404,247416,245480,245480,-3800,-231,-38,17,16,565,-41,-4401,-5,-126,899,2395,2658,3047,3244,3135,2917,2758,2992
970297,5408,247700,245760,245760,-3800,25,-22,-22,-3,659,-17,-3695,-9,-139,899,2395,2658,3047,3244,3135,2917,2758,2992
971298,5396,247964,246024,246024,-3800,-224,-20,34,-19,-209,-163,-3909,0,-127,900,2418,2678,3080,3272,3224,2984,2816,3060
972299,5408,248272,246288,246288,-3800,380,-16,107,-32,-175,-67,-4344,-13,-146,897,2418,2678,3080,3272,3224,2984,2816,3060
973300,5408,248516,246552,246552,-3800,-444,3,129,-40,245,6,-4427,-15,-124,898,2418,2678,3080,3272,3224,2984,2816,3060
974301,5408,248760,246816,246816,-3800,-467,6,112,-54,629,54,-4383,-16,-144,899,2418,2678,3080,3272,3224,2984,2816,3060
975302,5412,249012,247080,247080,-3800,-381,4,71,-52,85,-157,-4468,-11,-124,898,2418,2678,3080,3272,3224,2984,2816,3060
976303,5416,249268,247344,247344,-3800,-340,-15,65,-49,-407,-85,-4817,-16,-146,897,2418,2678,3080,3272,3224,2984,2816,3060
977304,5420,249564,247608,247608,-3800,199,-17,56,-22,-359,195,-4397,-1,-123,899,2455,2722,3133,3341,3268,3041,2852,3086
978305,5408,249828,247872,247872,-3800,-200,-30,42,-18,-139,15,-4335,-5,-144,899,2455,2722,3133,3341,3268,3041,2852,3086
979306,5408,250140,248136,248136,-3800,460,-38,32,-19,-24,-109,-4742,3,-129,899,2455,2722,3133,3341,3268,3041,2852,3086
980307,5428,250344,248400,248400,-3800,-962,-40,-17,-9,-229,-119,-4647,-16,-115,897,2455,2722,3133,3341,3268,3041,2852,3086
981308,5408,250628,248664,248664,-3800,62,-38,-14,-1,200,-38,-4714,-15,-131,896,2455,2722,3133,3341,3268,3041,2852,3086
982309,5408,250956,248928,248928,-3800,691,-27,-74,28,-78,205,-4192,-3,-134,899,2487,2752,3169,3377,3283,3060,2864,3097
983310,5404,251132,249192,249192,-3800,-1315,-27,-58,40,-393,-139,-4276,-7,-119,896,2487,2752,3169,3377,3283,3060,2864,3097
984311,5408,251364,249456,249456,-3800,-653,-33,32,22,349,-356,-4746,3,-131,893,2487,2752,3169,3377,3283,3060,2864,3097
985312,5400,251636,249720,249720,-3800,-144,-14,-7,24,11,78,-4554,-20,-123,897,2487,2752,3169,3377,3283,3060,2864,3097
986313,5420,251940,249984,249984,-3800,306,5,-65,58,-68,141,-4059,-18,-128,899,2487,2752,3169,3377,3283,3060,2864,3097
987314,5396,252240,250248,250248,-3800,301,9,-13,54,684,-18,-4517,-6,-136,898,2487,2752,3169,3377,3283,3060,2864,3097
988315,5404,252416,250512,250512,-3800,-1355,17,57,43,397,-326,-4586,2,-118,898,2495,2756,3171,3374,3276,3048,2856,3089
989316,5412,252692,250776,250776,-3800,-91,35,82,40,497,-76,-4611,-8,-116,893,2495,2756,3171,3374,3276,3048,2856,3089
990317,5412,252976,251040,251040,-3800,35,57,70,69,252,327,-3990,-3,-119,899,2495,2756,3171,3374,3276,3048,2856,3089
991318,5404,253288,251304,251304,-3800,444,57,71,84,133,67,-3858,-6,-123,900,2495,2756,3171,3374,3276,3048,2856,3089
992319,5400,253492,251568,251568,-3800,-978,31,125,68,48,-201,-4553,2,-127,897,2495,2756,3171,3374,3276,3048,2856,3089
993320,5416,253772,251832,251832,-3800,-8,17,151,29,-149,-147,-4465,-15,-119,897,2487,2739,3143,3346,3228,3001,2803,3039
994321,5408,254056,252096,252096,-3800,67,7,127,23,308,29,-4681,-6,-116,899,2487,2739,3143,3346,3228,3001,2803,3039
995322,5412,254316,252360,252360,-3800,-237,7,61,28,773,143,-4239,-15,-128,899,2487,2739,3143,3346,3228,3001,2803,3039
996323,5404,254548,252624,252624,-3800,-625,-14,19,7,253,46,-4171,1,-116,899,2487,2739,3143,3346,3228,3001,2803,3039
997324,5412,254780,252888,252888,-3800,-664,-23,-4,-10,-237,-186,-4405,-10,-110,898,2487,2739,3143,3346,3228,3001,2803,3039
998326,5408,255052,253152,253152,-3800,-153,-29,-14,-31,-172,111,-4433,-17,-130,898,2487,2739,3143,3346,3228,3001,2803,3039
