time,Right Leg Pos,Left Leg Pos,Commanded Right Leg Pos,Commanded Left Leg Pos,DCR,DCL,GyroX,GyroY,GyroZ,AX,AY,AZ,RBEMF,LBEMF,VBatt,S1,S2,S3,S4,S5,S6,S7,S8
862,29532,-17172,0,0,-696,394,-6,-25,-6,-10,79,-4277,-7,6,923,1777,1815,1457,1732,1860,1752,2152,2472
1863,29528,-17180,0,0,-696,469,-4,-27,-8,-17,70,-4278,-2,-3,923,1777,1815,1457,1732,1860,1752,2152,2472
2864,29524,-17172,0,0,-696,369,-3,-30,-7,-13,71,-4273,0,-6,923,1777,1815,1457,1732,1860,1752,2152,2472
3865,29528,-17180,0,0,-746,469,-4,-31,-5,-3,66,-4298,7,5,923,1777,1815,1457,1732,1860,1752,2152,2472
4866,29532,-17176,0,0,-746,394,-6,-28,-1,26,77,-4310,3,0,923,1783,1820,1463,1737,1862,1755,2155,2475
5867,29536,-17176,0,0,-747,419,-4,-28,-3,17,89,-4267,0,1,923,1783,1820,1463,1737,1862,1755,2155,2475
6868,29532,-17180,0,0,-696,444,-4,-27,-3,2,87,-4310,-5,-4,923,1783,1820,1463,1737,1862,1755,2155,2475
7869,29524,-17176,0,0,-671,394,-4,-26,-3,9,83,-4342,-8,5,923,1783,1820,1463,1737,1862,1755,2155,2475
8870,29528,-17176,0,0,-746,419,-3,-27,-3,-20,76,-4306,-7,-5,923,1783,1820,1463,1737,1862,1755,2155,2475
9871,29532,-17172,0,0,-746,394,-5,-29,-4,-19,72,-4309,0,-9,923,1783,1820,1463,1737,1862,1755,2155,2475
10872,29524,-17180,0,0,-671,469,-6,-29,-2,-12,74,-4306,8,6,923,1786,1822,1465,1738,1863,1757,2158,2478
11873,29532,-17172,0,0,-771,369,-5,-28,1,-5,81,-4286,6,-6,923,1786,1822,1465,1738,1863,1757,2158,2478
12874,29536,-17176,0,0,-747,444,-2,-26,1,-37,99,-4311,0,-4,923,1786,1822,1465,1738,1863,1757,2158,2478
13875,29528,-17168,0,0,-671,369,-3,-26,0,-16,90,-4319,-8,3,923,1786,1822,1465,1738,1863,1757,2158,2478
14876,29540,-17176,0,0,-797,469,-2,-28,0,-10,83,-4324,-3,3,923,1786,1822,1465,1738,1863,1757,2158,2478
15877,29536,-17188,0,0,-697,494,-3,-28,1,-1,94,-4342,6,-9,923,1786,1821,1464,1738,1863,1754,2155,2474
16878,29528,-17176,0,0,-671,344,-3,-27,1,-23,88,-4328,3,-4,923,1786,1821,1464,1738,1863,1754,2155,2474
17879,29536,-17184,0,0,-772,469,-4,-25,1,-20,62,-4292,-4,-7,923,1786,1821,1464,1738,1863,1754,2155,2474
18880,29532,-17180,0,0,-696,394,-4,-27,-1,9,69,-4328,-6,2,923,1786,1821,1464,1738,1863,1754,2155,2474
19881,29544,-17184,0,0,-797,444,-4,-29,1,19,97,-4283,-6,2,921,1786,1821,1464,1738,1863,1754,2155,2474
20882,29528,-17184,0,0,-621,419,-5,-30,0,17,90,-4281,-4,-8,923,1786,1821,1464,1738,1863,1754,2155,2474
21883,29532,-17188,0,0,-746,444,-4,-29,1,-6,91,-4294,-7,6,923,1782,1817,1460,1733,1858,1750,2147,2468
22884,29528,-17172,0,0,-696,319,-2,-28,2,4,84,-4251,-5,3,923,1782,1817,1460,1733,1858,1750,2147,2468
23885,29536,-17184,0,0,-772,494,-2,-26,0,-21,87,-4212,-7,-8,923,1782,1817,1460,1733,1858,1750,2147,2468
24886,29524,-17172,0,0,-646,344,-3,-26,-1,-11,95,-4236,-7,5,923,1782,1817,1460,1733,1858,1750,2147,2468
25887,29532,-17180,0,0,-771,469,-4,-26,-2,0,74,-4237,-5,-6,923,1782,1817,1460,1733,1858,1750,2147,2468
26888,29528,-17192,0,0,-696,494,-4,-26,-1,-1,80,-4252,-5,5,923,1774,1809,1455,1729,1852,1744,2140,2457
27889,29516,-17184,0,0,-646,369,-4,-25,0,-5,75,-4232,3,5,923,1774,1809,1455,1729,1852,1744,2140,2457
28890,29528,-17168,0,0,-796,319,-3,-26,-1,13,80,-4229,7,-4,923,1774,1809,1455,1729,1852,1744,2140,2457
29891,29524,-17180,0,0,-696,494,-2,-27,-1,29,81,-4217,6,5,923,1774,1809,1455,1729,1852,1744,2140,2457
30892,29528,-17180,0,0,-746,419,-4,-27,-1,13,72,-4229,3,-5,923,1774,1809,1455,1729,1852,1744,2140,2457
31893,29524,-17176,0,0,-696,394,-3,-27,-2,23,88,-4234,-4,-7,923,1774,1809,1455,1729,1852,1744,2140,2457
32894,29536,-17180,0,0,-797,444,-3,-26,-5,-8,86,-4196,-8,-5,923,1767,1805,1452,1722,1847,1738,2134,2452
33895,29528,-17176,0,0,-671,394,-2,-24,-5,9,78,-4200,-8,-8,923,1767,1805,1452,1722,1847,1738,2134,2452
34896,29532,-17184,0,0,-746,469,-3,-26,-2,6,69,-4200,-5,3,923,1767,1805,1452,1722,1847,1738,2134,2452
35897,29528,-17168,0,0,-696,319,-4,-27,-4,6,53,-4176,-4,4,923,1767,1805,1452,1722,1847,1738,2134,2452
36898,29524,-17188,0,0,-696,544,-4,-26,-4,11,59,-4172,-3,-9,921,1767,1805,1452,1722,1847,1738,2134,2452
37899,29528,-17176,0,0,-746,344,-1,-24,-3,-5,66,-4201,3,6,923,1764,1800,1448,1718,1843,1736,2129,2447
38900,29532,-17176,0,0,-746,419,-1,-24,-3,-2,67,-4190,7,-2,923,1764,1800,1448,1718,1843,1736,2129,2447
39901,29532,-17172,0,0,-721,394,-1,-24,-3,-5,64,-4202,6,6,923,1764,1800,1448,1718,1843,1736,2129,2447
40902,29524,-17176,0,0,-671,444,-3,-24,-3,18,88,-4230,-4,-8,923,1764,1800,1448,1718,1843,1736,2129,2447
41903,29536,-17184,0,0,-797,469,-3,-23,-5,27,89,-4222,-8,5,923,1764,1800,1448,1718,1843,1736,2129,2447
42904,29532,-17180,0,0,-696,394,-4,-24,-4,13,78,-4233,-8,-9,923,1764,1800,1448,1718,1843,1736,2129,2447
43905,29536,-17180,0,0,-747,419,-6,-24,-2,-2,77,-4219,-5,1,923,1764,1800,1449,1720,1844,1737,2131,2449
44906,29528,-17180,0,0,-671,419,-4,-26,-4,-5,103,-4197,-3,6,923,1764,1800,1449,1720,1844,1737,2131,2449
45907,29536,-17184,0,0,-772,444,-3,-26,-5,2,67,-4211,-2,-3,923,1764,1800,1449,1720,1844,1737,2131,2449
46908,29528,-17176,0,0,-671,369,-4,-23,-6,-10,68,-4186,7,-9,923,1764,1800,1449,1720,1844,1737,2131,2449
47909,29532,-17192,0,0,-746,519,-4,-23,-4,-7,86,-4212,8,3,923,1764,1800,1449,1720,1844,1737,2131,2449
48910,29524,-17180,0,0,-671,344,-4,-24,-5,-1,82,-4232,6,-2,923,1766,1803,1452,1725,1849,1742,2138,2456
49911,29528,-17184,0,0,-746,444,-3,-24,-6,-17,80,-4250,-7,-7,923,1766,1803,1452,1725,1849,1742,2138,2456
50912,29544,-17188,0,0,-822,444,-4,-28,-6,2,72,-4270,-8,-2,923,1766,1803,1452,1725,1849,1742,2138,2456
51913,29532,-17176,0,0,-646,344,-4,-26,-5,19,91,-4266,-8,-5,923,1766,1803,1452,1725,1849,1742,2138,2456
52914,29540,-17188,0,0,-772,494,-5,-23,-5,-16,93,-4237,-2,1,923,1766,1803,1452,1725,1849,1742,2138,2456
53915,29528,-17184,0,0,-646,394,-4,-23,-4,-38,97,-4253,-3,1,922,1766,1803,1452,1725,1849,1742,2138,2456
54916,29536,-17184,0,0,-772,419,-4,-25,-1,-17,81,-4292,-5,2,923,1773,1812,1458,1730,1853,1748,2145,2466
55917,29532,-17176,0,0,-696,369,-4,-26,-2,-2,91,-4301,2,6,923,1773,1812,1458,1730,1853,1748,2145,2466
56918,29524,-17176,0,0,-671,419,-2,-26,-4,-8,67,-4276,7,0,923,1773,1812,1458,1730,1853,1748,2145,2466
57919,29532,-17176,0,0,-771,419,-3,-29,-3,-6,81,-4265,8,4,923,1773,1812,1458,1730,1853,1748,2145,2466
58920,29524,-17176,0,0,-671,419,-6,-29,-3,-38,97,-4246,0,-4,923,1773,1812,1458,1730,1853,1748,2145,2466
59921,29532,-17184,0,0,-771,469,-8,-28,-3,8,75,-4304,-4,-8,923,1780,1817,1461,1735,1857,1751,2155,2478
60922,29528,-17180,0,0,-696,394,-3,-27,-1,2,79,-4313,-3,-6,923,1780,1817,1461,1735,1857,1751,2155,2478
61923,29524,-17184,0,0,-696,444,-1,-29,-2,3,62,-4300,-8,5,923,1780,1817,1461,1735,1857,1751,2155,2478
62924,29536,-17176,0,0,-797,369,-3,-29,-3,20,88,-4321,-6,0,923,1780,1817,1461,1735,1857,1751,2155,2478
63925,29528,-17176,0,0,-671,419,-5,-25,0,-4,61,-4317,-4,-7,923,1780,1817,1461,1735,1857,1751,2155,2478
64926,29528,-17172,0,0,-721,394,-4,-24,1,8,80,-4358,7,6,923,1780,1817,1461,1735,1857,1751,2155,2478
65927,29528,-17184,0,0,-721,494,-5,-25,0,7,94,-4360,5,1,923,1785,1821,1464,1740,1864,1758,2159,2479
66928,29528,-17180,0,0,-721,394,-4,-28,-1,-7,86,-4336,-1,-9,923,1785,1821,1464,1740,1864,1758,2159,2479
67929,29520,-17180,0,0,-671,419,-3,-28,-1,9,93,-4324,-8,-1,923,1785,1821,1464,1740,1864,1758,2159,2479
68930,29532,-17176,0,0,-796,394,-3,-29,1,-24,76,-4325,-7,-4,923,1785,1821,1464,1740,1864,1758,2159,2479
69931,29528,-17176,0,0,-696,419,-4,-27,1,-30,70,-4295,-2,-7,923,1785,1821,1464,1740,1864,1758,2159,2479
70932,29520,-17180,0,0,-671,444,-4,-27,0,-7,92,-4267,8,0,921,1788,1824,1466,1740,1864,1758,2158,2477
71933,29532,-17176,0,0,-796,394,-5,-26,-1,7,86,-4286,6,1,923,1788,1824,1466,1740,1864,1758,2158,2477
72934,29532,-17176,0,0,-721,419,-6,-26,-2,3,99,-4285,-8,-1,923,1788,1824,1466,1740,1864,1758,2158,2477
73935,29536,-17180,0,0,-747,444,-3,-27,-1,-15,95,-4286,-1,5,923,1788,1824,1466,1740,1864,1758,2158,2477
74936,29520,-17180,0,0,-621,419,-1,-28,0,-3,83,-4298,3,-1,923,1788,1824,1466,1740,1864,1758,2158,2477
75937,29536,-17180,0,0,-822,419,-1,-30,0,-8,83,-4314,6,-9,923,1788,1824,1466,1740,1864,1758,2158,2477
76938,29532,-17168,0,0,-696,344,-5,-30,1,22,89,-4301,3,4,923,1783,1822,1466,1740,1861,1753,2153,2473
77939,29532,-17180,0,0,-721,494,-4,-28,0,-18,101,-4274,-4,-8,923,1783,1822,1466,1740,1861,1753,2153,2473
78940,29524,-17184,0,0,-671,444,-4,-28,-2,-10,93,-4273,-8,-7,923,1783,1822,1466,1740,1861,1753,2153,2473
79941,29536,-17184,0,0,-797,419,-4,-31,-2,-11,78,-4268,-7,-5,923,1783,1822,1466,1740,1861,1753,2153,2473
80942,29524,-17180,0,0,-646,394,-2,-30,0,-8,81,-4266,0,0,923,1783,1822,1466,1740,1861,1753,2153,2473
81943,29536,-17176,0,0,-797,394,-3,-27,-2,-17,56,-4265,8,-8,923,1779,1815,1459,1733,1855,1747,2146,2464
82944,29528,-17168,0,0,-671,369,-4,-28,-3,2,85,-4234,8,5,923,1779,1815,1459,1733,1855,1747,2146,2464
83945,29536,-17180,0,0,-772,494,-5,-29,0,11,70,-4229,7,-9,923,1779,1815,1459,1733,1855,1747,2146,2464
84946,29528,-17188,0,0,-671,469,-6,-28,0,18,65,-4233,4,2,923,1779,1815,1459,1733,1855,1747,2146,2464
85947,29524,-17176,0,0,-696,344,-3,-27,-2,14,89,-4239,-4,-4,923,1779,1815,1459,1733,1855,1747,2146,2464
86948,29520,-17172,0,0,-696,394,-1,-28,-2,11,65,-4229,-7,6,923,1779,1815,1459,1733,1855,1747,2146,2464
87949,29520,-17184,0,0,-721,494,-3,-29,-3,-4,55,-4234,-8,1,921,1772,1808,1454,1725,1849,1740,2136,2452
88950,29524,-17180,0,0,-746,394,-5,-28,-1,-16,78,-4199,-7,6,923,1772,1808,1454,1725,1849,1740,2136,2452
89951,29532,-17184,0,0,-771,444,-4,-30,-2,-15,68,-4202,-2,-7,923,1772,1808,1454,1725,1849,1740,2136,2452
90952,29528,-17188,0,0,-696,444,-1,-27,-3,17,57,-4206,7,-9,923,1772,1808,1454,1725,1849,1740,2136,2452
91953,29536,-17172,0,0,-772,319,-1,-26,-2,-9,70,-4176,7,1,923,1772,1808,1454,1725,1849,1740,2136,2452
92954,29528,-17184,0,0,-671,494,-3,-28,-1,17,82,-4181,8,6,923,1767,1803,1450,1720,1844,1737,2131,2447
93955,29528,-17184,0,0,-721,419,-5,-27,-4,6,78,-4203,4,0,923,1767,1803,1450,1720,1844,1737,2131,2447
94956,29532,-17180,0,0,-746,394,-4,-27,-3,26,86,-4210,0,-8,923,1767,1803,1450,1720,1844,1737,2131,2447
95957,29524,-17168,0,0,-671,344,-3,-28,-1,4,95,-4213,0,-2,923,1767,1803,1450,1720,1844,1737,2131,2447
96958,29524,-17172,0,0,-721,444,-4,-28,-1,8,81,-4181,-8,-8,923,1767,1803,1450,1720,1844,1737,2131,2447
97959,29540,-17176,0,0,-822,444,-3,-26,-2,-7,78,-4208,-7,-3,923,1767,1803,1450,1720,1844,1737,2131,2447
98960,29528,-17176,0,0,-646,419,-3,-25,-3,-20,86,-4194,-3,6,923,1764,1800,1448,1718,1843,1736,2130,2447
99961,29536,-17180,0,0,-772,444,-3,-28,-2,-4,89,-4194,7,1,923,1764,1800,1448,1718,1843,1736,2130,2447
100962,29520,-17180,0,0,-621,419,-4,-28,-2,-1,54,-4175,7,-6,923,1764,1800,1448,1718,1843,1736,2130,2447
101963,29536,-17180,0,0,-822,419,-3,-28,-3,-10,39,-4195,8,-5,923,1764,1800,1448,1718,1843,1736,2130,2447
102964,29536,-17188,0,0,-722,469,-3,-28,-4,-21,72,-4236,2,5,923,1764,1800,1448,1718,1843,1736,2130,2447
103965,29532,-17180,0,0,-696,369,-4,-28,-3,-5,67,-4235,-7,-4,923,1764,1801,1447,1721,1847,1740,2134,2452
104966,29536,-17172,16384,16384,2578,3694,-3,-31,-4,-1,62,-4194,-8,3,921,1764,1801,1447,1721,1847,1740,2134,2452
105967,29532,-17144,16852,16852,2640,3579,-3,-27,-3,0,90,-4189,-25,-69,855,1764,1801,1447,1721,1847,1740,2134,2452
106968,29540,-16976,17320,17320,2576,2712,3,-25,-3,-26,-67,-4145,-3,-247,806,1764,1801,1447,1721,1847,1740,2134,2452
107969,29576,-16668,17788,17788,2412,1841,33,-67,-1,-226,-316,-4098,21,17,827,1764,1801,1447,1721,1847,1740,2134,2452
108970,29928,-16304,18256,18256,440,1493,63,-107,5,-581,-85,-3708,29,65,853,1764,1801,1447,1721,1847,1740,2134,2452
109971,30280,-15840,18724,18724,442,868,93,-170,-2,-358,-318,-3886,77,72,887,1769,1806,1440,1728,1852,1744,2128,2440
110972,30632,-15460,19192,19192,445,1395,122,-208,33,-724,-858,-3537,67,88,903,1769,1806,1440,1728,1852,1744,2128,2440
111973,30972,-15060,19660,19660,523,1272,131,-245,89,91,-1284,-4024,77,79,906,1769,1806,1440,1728,1852,1744,2128,2440
112974,31300,-14596,20128,20128,602,872,135,-290,150,558,1082,-3724,75,84,903,1769,1806,1440,1728,1852,1744,2128,2440
113975,31672,-14144,20596,20596,329,948,168,-223,57,172,1231,-3456,74,91,904,1769,1806,1440,1728,1852,1744,2128,2440
114976,32000,-13628,21064,21064,608,546,75,-257,-63,142,526,-3654,68,91,909,1796,1840,1469,1752,1850,1743,2169,2495
115977,32384,-13136,21532,21532,260,696,51,-196,-30,390,518,-3799,58,98,911,1796,1840,1469,1752,1850,1743,2169,2495
116978,32704,-12624,22000,22000,663,570,-18,-126,52,86,570,-4278,74,85,914,1796,1840,1469,1752,1850,1743,2169,2495
117979,33052,-12192,22468,22468,491,1071,-7,13,33,36,1239,-3685,80,76,913,1796,1840,1469,1752,1850,1743,2169,2495
118980,33404,-11652,22936,22936,469,394,-52,82,-39,1016,971,-4432,75,74,910,1796,1840,1469,1752,1850,1743,2169,2495
119981,33756,-11176,23404,23404,472,794,-69,42,-78,1074,630,-4658,63,99,911,1796,1840,1469,1752,1850,1743,2169,2495
120982,34088,-10696,23872,23872,600,768,-67,53,-78,-181,768,-4637,75,94,914,1869,1918,1517,1813,1896,1796,2247,2592
121983,34456,-10216,24340,24340,378,768,-34,6,-101,158,464,-4717,65,81,908,1869,1918,1517,1813,1896,1796,2247,2592
122984,34804,-9748,24808,24808,505,843,-2,21,-88,1086,-6,-4720,79,87,911,1869,1918,1517,1813,1896,1796,2247,2592
123985,35148,-9196,25276,25276,533,316,-21,23,-41,1012,493,-5177,68,85,911,1869,1918,1517,1813,1896,1796,2247,2592
124986,35524,-8680,25744,25744,336,540,-22,47,-40,526,404,-5056,78,88,913,1869,1918,1517,1813,1896,1796,2247,2592
125987,35876,-8256,26212,26212,489,1116,-13,86,-107,116,663,-4973,68,93,916,1938,1980,1573,1870,1959,1853,2299,2663
126988,36256,-7772,26680,26680,316,741,-27,127,-151,-84,265,-5256,75,91,911,1938,1980,1573,1870,1959,1853,2299,2663
127989,36588,-7328,27148,27148,619,991,11,225,-132,5,-388,-5646,73,97,910,1938,1980,1573,1870,1959,1853,2299,2663
128990,36904,-6812,27616,27616,723,540,38,205,-66,-692,-552,-5022,73,99,910,1938,1980,1573,1870,1959,1853,2299,2663
129991,37236,-6332,28084,28084,626,765,63,226,-34,-557,-467,-4767,77,94,909,1938,1980,1573,1870,1959,1853,2299,2663
130992,37588,-5860,28552,28552,504,815,92,147,-19,-885,-528,-5255,82,93,911,1938,1980,1573,1870,1959,1853,2299,2663
131993,37948,-5396,29020,29020,457,865,116,80,10,-1249,-507,-4959,69,77,910,1952,1986,1595,1883,1966,1846,2264,2614
132994,38328,-4896,29488,29488,334,639,102,52,44,-1346,-544,-4922,73,95,911,1952,1986,1595,1883,1966,1846,2264,2614
133995,38688,-4444,29956,29956,461,939,96,-41,69,-1239,12,-4934,74,93,913,1952,1986,1595,1883,1966,1846,2264,2614
134999,39028,-4004,30424,30424,589,1015,67,-64,80,-956,-244,-4919,71,82,912,1952,1986,1595,1883,1966,1846,2264,2614
135997,39388,-3588,30892,30892,467,1166,41,-84,96,-1061,-633,-5107,76,92,908,1952,1986,1595,1883,1966,1846,2264,2614
136998,39772,-3144,31360,31360,319,992,5,-110,113,-828,-35,-4889,69,80,907,1923,1953,1576,1856,1898,1776,2166,2496
137999,40124,-2680,31828,31828,522,867,-19,-113,104,-385,-452,-5152,67,94,909,1923,1953,1576,1856,1898,1776,2166,2496
139000,40500,-2236,32768,32768,386,1004,-52,-119,76,4,-229,-4581,84,95,908,1923,1953,1576,1856,1898,1776,2166,2496
140001,40848,-1812,33236,33236,564,1130,-60,-116,81,-41,-480,-4959,83,97,908,1923,1953,1576,1856,1898,1776,2166,2496
141002,41208,-1368,33704,33704,491,1006,-77,-123,65,177,-355,-4343,78,87,908,1923,1953,1576,1856,1898,1776,2166,2496
142003,41564,-900,34172,34172,519,856,-58,-149,23,211,-318,-4492,78,99,908,1923,1953,1576,1856,1898,1776,2166,2496
143004,41948,-480,34640,34640,346,1157,-78,-119,-11,448,-399,-3809,79,87,910,1854,1872,1509,1766,1811,1692,2059,2376
144005,42332,-36,35108,35108,348,1008,-43,-85,-25,488,-489,-4215,69,96,909,1854,1872,1509,1766,1811,1692,2059,2376
145006,42688,396,35576,35576,526,1083,-34,21,-62,783,112,-3556,74,92,908,1854,1872,1509,1766,1811,1692,2059,2376
146007,43056,832,36044,36044,453,1059,-57,23,-86,672,-157,-3779,84,94,909,1854,1872,1509,1766,1811,1692,2059,2376
147008,43396,1320,36512,36512,631,734,-72,91,-101,808,116,-3610,72,88,908,1854,1872,1509,1766,1811,1692,2059,2376
148009,43788,1792,36980,36980,308,834,-96,103,-72,887,199,-3768,74,97,909,1736,1763,1419,1659,1733,1620,1969,2272
149010,44112,2256,37448,37448,737,884,-119,176,-53,916,162,-3333,81,96,911,1736,1763,1419,1659,1733,1620,1969,2272
150011,44476,2692,37916,37916,489,1059,-155,205,-47,680,303,-3802,73,99,911,1736,1763,1419,1659,1733,1620,1969,2272
151012,44836,3184,38384,38384,517,709,-150,282,-54,1067,252,-3459,82,94,908,1736,1763,1419,1659,1733,1620,1969,2272
152013,45188,3712,38852,38852,570,482,-105,349,-37,761,147,-4232,80,107,910,1736,1763,1419,1659,1733,1620,1969,2272
153014,45540,4208,39320,39320,573,682,-70,328,-30,371,502,-2962,82,95,913,1736,1763,1419,1659,1733,1620,1969,2272
154015,45928,4716,39788,39788,350,606,-29,277,-7,201,-274,-4005,79,107,913,1645,1676,1355,1594,1696,1592,1930,2209
155016,46268,5208,40256,40256,653,705,-17,273,18,-34,183,-3364,72,99,914,1645,1676,1355,1594,1696,1592,1930,2209
156017,46648,5816,40724,40724,405,-23,19,147,-5,-298,583,-3845,68,105,911,1645,1676,1355,1594,1696,1592,1930,2209
157018,46988,6340,41192,41192,658,500,49,87,-37,-289,701,-3692,77,110,914,1645,1676,1355,1594,1696,1592,1930,2209
158019,47308,6864,41660,41660,787,499,102,36,-32,-351,852,-3811,77,108,916,1645,1676,1355,1594,1696,1592,1930,2209
159020,47684,7384,42128,42128,439,523,66,145,-16,-382,548,-2950,81,103,913,1593,1628,1328,1575,1681,1579,1909,2172
160021,48044,7948,42596,42596,541,245,27,176,1,-941,709,-3664,82,103,913,1593,1628,1328,1575,1681,1579,1909,2172
161022,48388,8532,43064,43064,645,118,-51,187,2,-1189,321,-3453,76,114,915,1593,1628,1328,1575,1681,1579,1909,2172
162023,48732,9064,43532,43532,648,441,-104,155,3,-1094,-3,-4009,72,104,916,1593,1628,1328,1575,1681,1579,1909,2172
163024,49080,9664,44000,44000,625,13,-132,35,29,-840,-294,-4143,78,101,916,1593,1628,1328,1575,1681,1579,1909,2172
164025,49448,10244,44468,44468,503,135,-177,-77,69,-1019,-202,-3648,82,103,914,1593,1628,1328,1575,1681,1579,1909,2172
165026,49796,10736,44936,44936,631,684,-186,-229,91,-1044,-270,-3821,71,109,918,1600,1633,1339,1597,1701,1610,1947,2225
166027,50132,11408,45404,45404,709,-446,-211,-214,105,-700,-1060,-3486,71,91,918,1600,1633,1339,1597,1701,1610,1947,2225
167028,50468,11984,45872,45872,712,152,-209,-122,81,-237,-47,-3943,78,92,912,1600,1633,1339,1597,1701,1610,1947,2225
168029,50792,12408,46340,46340,791,1103,-178,-136,74,-87,-277,-4306,74,88,911,1600,1633,1339,1597,1701,1610,1947,2225
169030,51128,12940,46808,46808,719,426,-158,-133,30,405,-695,-4097,71,101,915,1600,1633,1339,1597,1701,1610,1947,2225
170031,51488,13548,47276,47276,572,-52,-192,-46,-64,259,218,-3231,65,93,905,1617,1649,1359,1620,1789,1696,2054,2369
171032,51820,14116,47744,47744,750,195,-164,-144,-95,310,401,-4655,77,92,913,1617,1649,1359,1620,1789,1696,2054,2369
172033,52136,14624,48212,48212,854,570,-97,-174,-106,982,-576,-4231,75,109,917,1617,1649,1359,1620,1789,1696,2054,2369
173034,52444,15196,48680,48680,908,167,-75,-142,-134,237,-103,-4371,74,111,912,1617,1649,1359,1620,1789,1696,2054,2369
174035,52760,15740,49152,49152,861,340,-50,-41,-185,79,-345,-3949,65,91,909,1617,1649,1359,1620,1789,1696,2054,2369
175036,53096,16340,49620,49620,740,-13,-40,43,-180,919,127,-4212,65,88,912,1617,1649,1359,1620,1789,1696,2054,2369
176037,53440,16904,50088,50088,693,210,9,106,-178,1208,2,-4064,84,101,912,1660,1703,1399,1660,1881,1791,2176,2514
177038,53776,17408,50556,50556,746,584,50,61,-183,595,48,-4779,84,102,915,1660,1703,1399,1660,1881,1791,2176,2514
178039,54096,17936,51024,51024,850,432,63,-29,-142,428,-771,-4573,84,100,915,1660,1703,1399,1660,1881,1791,2176,2514
179040,54452,18596,51492,51492,627,-397,67,-9,-70,616,21,-4112,75,84,911,1660,1703,1399,1660,1881,1791,2176,2514
180041,54844,19192,51960,51960,404,0,65,10,-22,1022,247,-4661,72,102,911,1660,1703,1399,1660,1881,1791,2176,2514
181042,55196,19632,52428,52428,657,975,73,-44,46,747,279,-5139,90,103,913,1730,1775,1446,1730,1951,1871,2284,2608
182043,55544,20248,52896,52896,685,-128,79,-112,80,-161,325,-4564,73,88,919,1730,1775,1446,1730,1951,1871,2284,2608
183044,55896,20792,53364,53364,663,320,30,-102,105,-329,615,-4593,75,98,908,1730,1775,1446,1730,1951,1871,2284,2608
184045,56284,21336,53832,53832,440,318,3,-53,154,809,389,-5052,70,108,915,1730,1775,1446,1730,1951,1871,2284,2608
185047,56628,21860,54300,54300,718,441,1,-42,214,296,571,-5209,79,95,915,1730,1775,1446,1730,1951,1871,2284,2608
186047,57044,22388,54768,54768,269,415,-5,-18,229,-783,683,-4917,72,96,917,1730,1775,1446,1730,1951,1871,2284,2608
187048,57400,22976,55236,55236,647,37,-19,17,209,5,529,-4670,93,91,913,1810,1852,1487,1792,1996,1912,2355,2672
188049,57796,23528,55704,55704,398,260,-42,61,180,239,864,-4939,95,103,917,1810,1852,1487,1792,1996,1912,2355,2672
189050,58184,24160,56172,56172,450,-244,-68,134,139,97,771,-4786,92,92,917,1810,1852,1487,1792,1996,1912,2355,2672
190051,58572,24684,56640,56640,452,430,-81,123,110,-253,970,-5116,89,86,916,1810,1852,1487,1792,1996,1912,2355,2672
191052,59012,25204,57108,57108,128,453,-95,76,49,-367,959,-4741,75,82,916,1810,1852,1487,1792,1996,1912,2355,2672
192053,59432,25760,57576,57576,254,226,-84,14,-11,-175,698,-5079,94,87,916,1844,1880,1500,1807,2031,1937,2378,2696
193054,59852,26292,58044,58044,255,375,-62,-33,-35,-183,415,-4922,95,87,918,1844,1880,1500,1807,2031,1937,2378,2696
194055,60224,26884,58512,58512,558,-3,-5,-74,-36,-489,405,-5202,94,93,920,1844,1880,1500,1807,2031,1937,2378,2696
195056,60624,27308,58980,58980,384,1048,25,-85,-54,-667,228,-4699,85,94,918,1844,1880,1500,1807,2031,1937,2378,2696
196057,61128,27936,59448,59448,-267,-231,47,-100,-71,-488,54,-4860,88,87,918,1844,1880,1500,1807,2031,1937,2378,2696
197058,61556,28440,59916,59916,209,543,51,-64,-81,-159,-285,-4103,86,87,909,1844,1880,1500,1807,2031,1937,2378,2696
198059,61972,28988,60384,60384,286,266,106,-60,-86,-281,-317,-4689,96,91,918,1813,1843,1486,1778,2013,1905,2320,2637
199060,62384,29424,60852,60852,312,967,159,-30,-99,-295,-362,-4097,88,92,917,1813,1843,1486,1778,2013,1905,2320,2637
200061,62800,29968,61320,61320,288,290,211,-90,-73,-172,-321,-4585,86,82,919,1813,1843,1486,1778,2013,1905,2320,2637
201062,63212,30420,61788,61788,315,865,196,-91,-32,-137,-324,-3930,85,89,911,1813,1843,1486,1778,2013,1905,2320,2637
202063,63616,30904,62256,62256,366,665,209,-108,-25,-564,-200,-4412,83,101,919,1813,1843,1486,1778,2013,1905,2320,2637
203064,64072,31436,62724,62724,42,363,269,-145,-59,-49,266,-4215,83,99,913,1770,1803,1457,1739,1922,1813,2199,2496
204065,64472,31920,63192,63192,393,663,265,-141,-53,350,-270,-4179,91,102,914,1770,1803,1457,1739,1922,1813,2199,2496
205066,64860,32396,63660,63660,470,713,196,-131,1,6,327,-4074,77,99,920,1770,1803,1457,1739,1922,1813,2199,2496
206067,65240,32860,64128,64128,522,788,99,-130,70,-738,-129,-4298,93,97,915,1770,1803,1457,1739,1922,1813,2199,2496
207068,65732,33300,64596,64596,-178,939,38,-136,78,-518,459,-4078,94,103,911,1770,1803,1457,1739,1922,1813,2199,2496
208069,66112,33844,65064,65064,524,287,-1,-166,58,96,186,-4515,98,100,910,1770,1803,1457,1739,1922,1813,2199,2496
209070,66520,34264,65536,65536,350,1063,-25,-132,54,366,103,-3382,87,103,912,1755,1785,1434,1713,1821,1723,2102,2389
210071,66920,34720,66004,66004,402,838,-77,-146,61,144,-415,-4221,80,109,917,1755,1785,1434,1713,1821,1723,2102,2389
211072,67368,35168,66472,66472,103,889,41,-286,83,-561,-310,-2559,87,103,910,1755,1785,1434,1713,1821,1723,2102,2389
212073,67800,35728,66940,66940,204,187,15,-248,27,311,-636,-4266,93,107,912,1755,1785,1434,1713,1821,1723,2102,2389
213074,68164,36168,67408,67408,631,937,31,-100,-8,1106,632,-3089,87,125,913,1755,1785,1434,1713,1821,1723,2102,2389
214075,68548,36664,67876,67876,508,587,31,-213,-2,-57,206,-5014,76,110,920,1715,1744,1404,1670,1789,1690,2067,2373
215076,68900,37136,68344,68344,711,736,-89,-154,52,268,922,-2233,77,107,909,1715,1744,1404,1670,1789,1690,2067,2373
216077,69304,37664,68812,68812,387,385,-126,-248,38,1369,-711,-4156,81,112,913,1715,1744,1404,1670,1789,1690,2067,2373
217078,69672,38212,69280,69280,615,258,-59,-357,67,-50,-345,-4886,94,129,911,1715,1744,1404,1670,1789,1690,2067,2373
218079,70080,38752,69748,69748,366,306,4,-268,88,-66,-368,-2008,96,112,917,1715,1744,1404,1670,1789,1690,2067,2373
219080,70476,39264,70216,70216,443,480,36,-360,130,-298,-575,-4515,77,112,916,1706,1746,1406,1664,1789,1690,2067,2373
220081,70832,39796,70684,70684,696,354,-7,-202,117,532,-207,-2540,81,120,918,1706,1746,1406,1664,1813,1710,2101,2434
221082,71180,40372,71152,71152,749,76,-53,-157,146,510,-56,-3432,87,110,916,1706,1746,1406,1664,1813,1710,2101,2434
222083,71536,40912,71620,71620,702,299,-60,-14,161,670,60,-3610,80,118,914,1706,1746,1406,1664,1813,1710,2101,2434
223084,71944,41520,72088,72088,378,-129,-23,-45,138,743,465,-4436,85,109,915,1706,1746,1406,1664,1813,1710,2101,2434
224085,72328,42072,72556,72556,530,219,-22,-46,105,1214,-9,-4068,90,113,912,1706,1746,1406,1664,1813,1710,2101,2434
225086,72688,42604,73024,73024,683,342,-61,-138,71,1010,588,-4198,73,109,917,1739,1787,1437,1703,1878,1770,2193,2545
226087,73052,43184,73492,73492,660,39,-75,-187,26,575,500,-4373,75,110,917,1739,1787,1437,1703,1878,1770,2193,2545
227088,73400,43832,73960,73960,763,-390,-126,-198,19,150,182,-4581,82,107,914,1739,1787,1437,1703,1878,1770,2193,2545
228089,73768,44408,74428,74428,641,57,-143,-92,-36,145,470,-4139,77,97,917,1739,1787,1437,1703,1878,1770,2193,2545
229090,74120,44956,74896,74896,743,230,-140,-60,-57,-477,377,-4819,69,109,912,1739,1787,1437,1703,1878,1770,2193,2545
230091,74488,45488,75364,75364,646,329,-120,-2,-110,163,359,-4245,80,105,916,1807,1858,1486,1761,1979,1862,2316,2698
231092,74836,46104,75832,75832,774,-200,-75,21,-86,586,-132,-5180,83,112,914,1807,1858,1486,1761,1979,1862,2316,2698
232093,75180,46684,76300,76300,802,23,-55,81,-54,375,458,-4433,70,92,915,1807,1858,1486,1761,1979,1862,2316,2698
233094,75548,47252,76768,76768,654,95,-22,85,-76,118,347,-5166,89,103,914,1807,1858,1486,1761,1979,1862,2316,2698
234095,75964,47716,77236,77236,356,745,-8,44,-100,277,371,-5000,76,104,915,1807,1858,1486,1761,1979,1862,2316,2698
235096,76368,48276,77704,77704,432,143,-2,44,-68,-9,-21,-5179,75,104,916,1807,1858,1486,1761,1979,1862,2316,2698
236097,76704,48796,78172,78172,860,392,28,24,-28,-501,255,-5219,83,103,913,1853,1904,1528,1812,2060,1928,2381,2755
237098,77056,49344,78640,78640,763,215,105,7,-40,-1090,-85,-5717,73,97,918,1853,1904,1528,1812,2060,1928,2381,2755
238099,77408,49908,79108,79108,766,112,131,-42,-56,-1167,278,-4995,80,95,911,1853,1904,1528,1812,2060,1928,2381,2755
239100,77800,50388,79576,79576,518,637,171,-89,-41,-1630,-541,-5005,77,105,915,1853,1904,1528,1812,2060,1928,2381,2755
240101,78196,50956,80044,80044,495,85,164,-294,-55,-1430,-65,-5228,88,91,915,1853,1904,1528,1812,2060,1928,2381,2755
241102,78572,51460,80512,80512,622,484,150,-434,-92,-681,-616,-4255,76,93,910,1879,1924,1547,1832,2036,1893,2331,2684
242103,78992,51968,80980,80980,348,458,220,-569,-133,-713,-245,-5128,75,86,915,1879,1924,1547,1832,2036,1893,2331,2684
243104,79388,52476,81448,81448,500,457,272,-581,-165,-214,-187,-4612,70,91,914,1879,1924,1547,1832,2036,1893,2331,2684
244105,79804,52924,81920,81920,376,832,324,-561,-160,368,-235,-4753,76,97,917,1879,1924,1547,1832,2036,1893,2331,2684
245106,80184,53432,82388,82388,603,456,265,-577,-138,-23,678,-4528,81,83,915,1879,1924,1547,1832,2036,1893,2331,2684
246107,80608,53900,82856,82856,329,706,251,-529,-201,-64,459,-4847,74,78,912,1879,1924,1547,1832,2036,1893,2331,2684
247108,81012,54388,83324,83324,456,581,213,-514,-246,-78,385,-4997,76,89,914,1881,1934,1527,1802,1908,1774,2213,2546
248109,81416,54852,83792,83792,458,731,206,-402,-207,330,583,-4539,74,89,914,1881,1934,1527,1802,1908,1774,2213,2546
249110,81836,55360,84260,84260,359,455,132,-346,-93,798,367,-4286,81,88,914,1881,1934,1527,1802,1908,1774,2213,2546
250111,82332,55836,84728,84728,-117,655,32,-215,-74,168,730,-3974,88,91,913,1881,1934,1527,1802,1908,1774,2213,2546
251112,82808,56304,85196,85196,8,705,-44,-125,-86,-276,227,-4252,81,97,916,1881,1934,1527,1802,1908,1774,2213,2546
252113,83184,56792,85664,85664,635,579,-81,-42,-36,640,360,-4519,92,91,916,1863,1923,1488,1744,1797,1669,2100,2436
253114,83604,57224,86132,86132,361,930,-119,-25,67,949,502,-4158,77,84,916,1863,1923,1488,1744,1797,1669,2100,2436
254115,84016,57708,86600,86600,413,605,-188,-14,109,919,855,-3723,85,81,913,1863,1923,1488,1744,1797,1669,2100,2436
255116,84488,58164,87068,87068,37,780,-236,-51,125,719,241,-3871,101,85,910,1863,1923,1488,1744,1797,1669,2100,2436
256117,84912,58612,87536,87536,339,831,-247,-67,155,671,349,-4048,89,98,915,1863,1923,1488,1744,1797,1669,2100,2436
257118,85324,59064,88004,88004,415,806,-254,-55,229,799,-189,-4055,91,79,915,1863,1923,1488,1744,1797,1669,2100,2436
258119,85740,59516,88472,88472,391,806,-208,32,259,502,338,-3895,98,83,911,1770,1830,1432,1662,1783,1650,2060,2424
259120,86160,59984,88940,88940,367,706,-212,95,233,-187,-95,-3344,103,82,910,1770,1830,1432,1662,1783,1650,2060,2424
260121,86644,60436,89408,89408,-33,807,-136,175,201,-404,-633,-3368,92,93,912,1770,1830,1432,1662,1783,1650,2060,2424
261122,87100,60876,89876,89876,142,883,-71,249,192,-123,-652,-3627,94,87,914,1770,1830,1432,1662,1783,1650,2060,2424
262123,87556,61288,90344,90344,143,1059,28,291,174,-139,-671,-3753,88,88,914,1770,1830,1432,1662,1783,1650,2060,2424
263124,87972,61756,90812,90812,394,709,99,303,110,-540,-391,-3679,99,79,913,1669,1738,1394,1602,1813,1649,2028,2397
264125,88444,62168,91280,91280,44,1060,179,279,43,-373,-81,-3787,101,80,910,1669,1738,1394,1602,1813,1649,2028,2397
265126,88908,62596,91748,91748,94,961,192,278,-21,-375,-404,-3594,101,87,914,1669,1738,1394,1602,1813,1649,2028,2397
266127,89404,63032,92216,92216,-107,912,201,257,-70,-590,-352,-3914,100,89,911,1669,1738,1394,1602,1813,1649,2028,2397
267128,89880,63472,92684,92684,18,888,176,279,-103,-441,-217,-3865,93,93,911,1669,1738,1394,1602,1813,1649,2028,2397
268129,90320,63960,93152,93152,244,587,166,288,-137,-487,-511,-3760,110,102,911,1669,1738,1394,1602,1813,1649,2028,2397
269130,90788,64396,93620,93620,69,913,87,279,-210,-1058,67,-3983,106,98,914,1653,1724,1395,1617,1782,1623,1990,2323
270131,91240,64836,94088,94088,169,889,36,215,-270,-1431,124,-3436,103,99,916,1653,1724,1395,1617,1782,1623,1990,2323
271132,91760,65276,94556,94556,-257,889,4,164,-313,-1112,-503,-4316,91,103,913,1653,1724,1395,1617,1782,1623,1990,2323
272133,92288,65732,95024,95024,-309,790,10,115,-356,-1127,46,-3932,108,92,912,1653,1724,1395,1617,1782,1623,1990,2323
273134,92776,66224,95492,95492,-59,564,-1,43,-352,-1049,244,-4226,104,100,912,1653,1724,1395,1617,1782,1623,1990,2323
274135,93204,66672,95960,95960,317,840,-44,-20,-333,-814,105,-4032,86,98,913,1683,1747,1411,1653,1766,1634,2011,2336
275136,93672,67140,96428,96428,67,715,-54,-91,-297,-1164,332,-4205,85,91,915,1683,1747,1411,1653,1766,1634,2011,2336
276137,94124,67612,96896,96896,167,689,-95,-125,-269,-834,318,-4160,101,94,910,1683,1747,1411,1653,1766,1634,2011,2336
277138,94668,68084,97364,97364,-410,689,-112,-73,-208,-531,131,-4164,104,106,915,1683,1747,1411,1653,1766,1634,2011,2336
278139,95128,68572,97832,97832,116,589,-90,-55,-116,-451,-115,-4275,92,94,916,1683,1747,1411,1653,1766,1634,2011,2336
279140,95548,69040,98304,98304,367,714,-77,-28,-56,-397,-209,-3879,92,94,912,1683,1747,1411,1653,1766,1634,2011,2336
280141,95952,69548,98772,98772,468,463,-45,-55,37,316,447,-4114,86,93,916,1714,1780,1434,1680,1785,1675,2072,2411
281142,96368,70036,99240,99240,395,587,-21,-19,58,1151,700,-4105,90,99,914,1714,1780,1434,1680,1785,1675,2072,2411
282143,96776,70596,99708,99708,446,135,52,-54,73,660,409,-4659,97,96,916,1714,1780,1434,1680,1785,1675,2072,2411
283144,97240,71116,100176,100176,96,384,75,-57,152,436,263,-4669,88,97,915,1714,1780,1434,1680,1785,1675,2072,2411
284145,97716,71656,100644,100644,21,257,21,-21,236,660,-691,-4036,94,101,918,1714,1780,1434,1680,1785,1675,2072,2411
285146,98164,72164,101112,101112,196,456,-61,5,346,624,-1297,-4411,88,116,919,1757,1818,1459,1713,1815,1711,2120,2464
286147,98608,72700,101580,101580,222,280,-91,131,431,1479,-195,-4686,101,95,921,1757,1818,1459,1713,1815,1711,2120,2464
287148,99080,73304,102048,102048,47,-149,-42,292,388,1458,860,-3833,84,107,918,1757,1818,1459,1713,1815,1711,2120,2464
288149,99504,73848,102516,102516,348,224,-10,454,290,725,-632,-4063,91,102,919,1757,1818,1459,1713,1815,1711,2120,2464
289150,99948,74416,102984,102984,224,72,-53,470,290,601,94,-4190,83,113,921,1757,1818,1459,1713,1815,1711,2120,2464
290151,100348,74972,103452,103452,500,145,-51,466,308,1191,496,-4503,85,106,918,1757,1818,1459,1713,1815,1711,2120,2464
291152,100796,75512,103920,103920,201,243,-28,479,261,1134,494,-4563,85,102,920,1802,1850,1482,1754,1864,1759,2170,2503
292153,101204,76080,104388,104388,452,66,-23,465,119,427,1056,-4145,81,107,915,1802,1850,1482,1754,1864,1759,2170,2503
293154,101676,76636,104856,104856,52,138,-39,374,-9,57,11,-4998,78,101,918,1802,1850,1482,1754,1864,1759,2170,2503
294155,102060,77180,105324,105324,604,212,-51,323,-76,-57,209,-4785,94,89,918,1802,1850,1482,1754,1864,1759,2170,2503
295156,102424,77696,105792,105792,732,385,-90,340,-100,-283,-554,-4938,97,89,921,1802,1850,1482,1754,1864,1759,2170,2503
296157,102800,78280,106260,106260,659,-42,-142,361,-147,-615,67,-5157,92,103,917,1835,1860,1502,1796,1904,1800,2201,2510
297158,103224,78756,106728,106728,360,632,-151,357,-243,-821,124,-4474,94,96,914,1835,1860,1502,1796,1904,1800,2201,2510
298159,103648,79280,107196,107196,361,331,-178,280,-311,-1090,-31,-5002,89,91,916,1835,1860,1502,1796,1904,1800,2201,2510
299160,104092,79800,107664,107664,237,355,-155,169,-330,-1252,174,-4459,83,99,915,1835,1860,1502,1796,1904,1800,2201,2510
300161,104476,80364,108132,108132,614,77,-121,100,-333,-1184,-153,-4855,88,105,918,1835,1860,1502,1796,1904,1800,2201,2510
301162,104912,80888,108600,108600,290,326,-55,44,-319,-975,344,-4620,99,112,919,1835,1860,1502,1796,1904,1800,2201,2510
302163,105300,81408,109068,109068,591,350,-26,35,-295,-841,-179,-4541,98,92,917,1820,1835,1496,1792,1921,1830,2217,2513
303164,105744,81892,109536,109536,242,574,-23,-34,-238,-1070,193,-4751,81,87,918,1820,1835,1496,1792,1921,1830,2217,2513
304165,106136,82500,110004,110004,569,-204,1,-72,-193,-686,-25,-4574,91,95,915,1820,1835,1496,1792,1921,1830,2217,2513
305166,106568,83036,110472,110472,320,244,18,-128,-141,-458,-342,-4941,100,100,917,1820,1835,1496,1792,1921,1830,2217,2513
306167,106984,83600,110940,110940,421,67,3,-122,-71,-180,120,-4162,86,102,916,1820,1835,1496,1792,1921,1830,2217,2513
307168,107412,84124,111408,111408,347,316,-1,-200,-16,-268,-220,-4955,86,97,919,1781,1799,1469,1763,1886,1805,2180,2469
308169,107836,84720,111876,111876,373,-138,-29,-178,58,296,122,-3494,79,97,919,1781,1799,1469,1763,1886,1805,2180,2469
309170,108284,85152,112344,112344,224,888,-25,-154,155,896,-166,-4536,85,102,916,1781,1799,1469,1763,1886,1805,2180,2469
310171,108684,85744,112812,112812,525,-115,-10,-102,212,916,546,-3876,84,91,916,1781,1799,1469,1763,1886,1805,2180,2469
311172,109088,86188,113280,113280,502,811,-49,-137,222,324,453,-4175,84,90,912,1781,1799,1469,1763,1886,1805,2180,2469
312176,109472,86684,113748,113748,629,485,-69,-118,241,845,397,-3784,75,89,917,1781,1799,1469,1763,1886,1805,2180,2469
313174,109860,87264,114216,114216,606,-42,-88,-172,273,1482,160,-4608,82,94,912,1747,1772,1435,1716,1850,1769,2143,2437
314175,110312,87716,114688,114688,206,758,-113,-105,282,1235,179,-3772,85,89,913,1747,1772,1435,1716,1850,1769,2143,2437
315176,110732,88348,115156,115156,408,-371,-117,-44,269,1081,262,-4069,83,84,917,1747,1772,1435,1716,1850,1769,2143,2437
316177,111128,88804,115624,115624,559,729,-135,-42,214,826,277,-3954,87,86,914,1747,1772,1435,1716,1850,1769,2143,2437
317178,111528,89320,116092,116092,536,353,-140,71,179,1468,12,-4048,83,82,915,1747,1772,1435,1716,1850,1769,2143,2437
318179,111924,89872,116560,116560,563,126,-146,93,162,1123,-166,-3928,84,84,912,1711,1742,1411,1674,1856,1766,2142,2450
319180,112368,90448,117028,117028,263,-27,-98,215,153,323,229,-3917,76,94,916,1711,1742,1411,1674,1856,1766,2142,2450
320181,112736,91012,117496,117496,741,46,-93,262,85,181,201,-3629,90,97,917,1711,1742,1411,1674,1856,1766,2142,2450
321182,113132,91484,117964,117964,567,621,-49,257,-6,259,-104,-4137,81,89,920,1711,1742,1411,1674,1856,1766,2142,2450
322183,113524,92048,118432,118432,594,44,83,182,16,-926,-1553,-2667,78,94,916,1711,1742,1411,1674,1856,1766,2142,2450
323184,113908,92480,118900,118900,646,870,58,325,-141,1272,1093,-4663,78,92,913,1711,1742,1411,1674,1856,1766,2142,2450
324185,114312,93120,119368,119368,523,-435,84,302,-99,-127,-316,-4900,69,86,917,1677,1710,1394,1663,1880,1784,2157,2446
325186,114740,93632,119836,119836,374,364,87,257,-119,-339,933,-3820,72,93,909,1677,1710,1394,1663,1880,1784,2157,2446
326187,115120,94128,120304,120304,676,464,-10,260,-143,-832,-280,-3826,78,93,911,1677,1710,1394,1663,1880,1784,2157,2446
327188,115520,94624,120772,120772,553,463,-16,156,-139,-699,-52,-4174,82,89,915,1677,1710,1394,1663,1880,1784,2157,2446
328189,115892,95144,121240,121240,730,312,19,113,-112,-834,-74,-4527,70,77,913,1677,1710,1394,1663,1880,1784,2157,2446
329190,116272,95632,121708,121708,682,511,45,116,-84,-1292,342,-4384,70,78,914,1694,1721,1408,1696,1881,1797,2173,2445
330191,116676,96144,122176,122176,534,360,17,-76,-77,-1772,508,-4643,75,95,914,1694,1721,1408,1696,1881,1797,2173,2445
331192,117076,96636,122644,122644,560,484,-8,-156,-88,-1184,97,-4402,90,98,913,1694,1721,1408,1696,1881,1797,2173,2445
332193,117436,97084,123112,123112,813,760,11,-291,-85,-640,378,-4845,84,82,916,1694,1721,1408,1696,1881,1797,2173,2445
333194,117812,97568,123580,123580,715,535,52,-437,-34,-578,302,-4304,74,86,914,1694,1721,1408,1696,1881,1797,2173,2445
334195,118164,98080,124048,124048,868,358,36,-531,35,-875,344,-4450,74,93,908,1694,1721,1408,1696,1881,1797,2173,2445
335196,118544,98536,124516,124516,695,709,1,-512,71,-744,-204,-3804,77,92,912,1710,1737,1415,1711,1886,1804,2188,2471
336197,118916,98944,124984,124984,748,1010,-26,-371,60,-412,108,-3611,86,89,912,1710,1737,1415,1711,1886,1804,2188,2471
337198,119300,99416,125452,125452,675,610,-6,-238,10,-98,1025,-4069,86,84,910,1710,1737,1415,1711,1886,1804,2188,2471
338199,119664,99848,125920,125920,802,861,13,-250,46,-275,90,-4460,74,98,905,1710,1737,1415,1711,1886,1804,2188,2471
339200,120048,100272,126388,126388,679,912,-4,-157,71,941,-38,-3387,89,94,911,1710,1737,1415,1711,1886,1804,2188,2471
340201,120428,100720,126856,126856,706,763,-17,-179,108,835,175,-4527,82,103,908,1735,1772,1430,1716,1899,1815,2215,2527
341202,120872,101136,127324,127324,307,964,-29,-200,82,1058,820,-3893,95,108,907,1735,1772,1430,1716,1899,1815,2215,2527
342203,121248,101676,127792,127792,734,187,6,-269,57,984,-111,-5119,94,96,910,1735,1772,1430,1716,1899,1815,2215,2527
343204,121644,102116,128260,128260,611,813,84,-248,64,1160,594,-4746,95,108,909,1735,1772,1430,1716,1899,1815,2215,2527
344205,122044,102600,128728,128728,588,537,134,-363,86,877,232,-4370,79,103,913,1735,1772,1430,1716,1899,1815,2215,2527
345206,122472,103084,129196,129196,414,537,129,-377,98,533,397,-4701,82,104,910,1735,1772,1430,1716,1899,1815,2215,2527
346207,122944,103536,129664,129664,139,737,147,-330,91,788,-278,-4138,98,110,913,1766,1805,1455,1734,1916,1821,2230,2558
347208,123356,104028,130132,130132,515,487,201,-238,85,664,173,-4135,103,117,915,1766,1805,1455,1734,1916,1821,2230,2558
348209,123744,104520,130600,130600,667,486,255,-98,69,443,-56,-3406,98,99,915,1766,1805,1455,1734,1916,1821,2230,2558
349210,124188,104964,131072,131072,318,787,226,31,71,818,-132,-3150,99,112,915,1766,1805,1455,1734,1916,1821,2230,2558
350211,124628,105492,131540,131540,343,260,197,131,90,921,173,-3927,101,117,913,1766,1805,1455,1734,1916,1821,2230,2558
351212,125144,105964,132008,132008,-133,610,183,92,73,935,1070,-4611,95,112,914,1808,1852,1483,1764,1894,1795,2214,2537
352213,125592,106492,132476,132476,293,259,210,2,47,800,574,-4864,100,113,918,1808,1852,1483,1764,1894,1795,2214,2537
353214,126056,107004,132944,132944,193,358,202,-104,13,1126,666,-4851,100,101,916,1808,1852,1483,1764,1894,1795,2214,2537
354215,126496,107476,133412,133412,343,608,171,-112,13,941,163,-4191,86,108,919,1808,1852,1483,1764,1894,1795,2214,2537
355216,126936,107984,133880,133880,344,382,110,-109,18,217,563,-4524,84,108,919,1808,1852,1483,1764,1894,1795,2214,2537
356217,127368,108544,134348,134348,395,54,66,-11,-1,-238,501,-3556,93,102,915,1808,1852,1483,1764,1894,1795,2214,2537
357218,127852,109068,134816,134816,70,278,50,73,-37,-234,0,-4489,102,117,917,1884,1914,1526,1824,1880,1782,2204,2525
358219,128304,109636,135284,135284,270,1,12,62,-32,-863,171,-4266,96,111,919,1884,1914,1526,1824,1880,1782,2204,2525
359220,128760,110180,135752,135752,245,149,-12,-17,-45,-838,394,-4755,102,109,920,1884,1914,1526,1824,1880,1782,2204,2525
360223,129260,110704,136220,136220,-31,272,-25,-76,-57,3,129,-4686,94,93,919,1884,1914,1526,1824,1880,1782,2204,2525
361222,129692,111304,136688,136688,395,-206,-16,-127,-40,357,103,-5031,109,118,917,1884,1914,1526,1824,1880,1782,2204,2525
362223,130128,111816,137156,137156,371,343,-47,-155,-4,-208,104,-4423,101,100,921,1922,1942,1556,1854,1907,1795,2214,2558
363224,130568,112348,137624,137624,347,217,-75,-245,-1,-596,-84,-5262,93,104,918,1922,1942,1556,1854,1907,1795,2214,2558
364225,131044,112892,138092,138092,122,140,-142,-294,-19,-138,-306,-4970,86,103,917,1922,1942,1556,1854,1907,1795,2214,2558
365226,131472,113556,138560,138560,423,-615,-122,-273,-26,-263,-381,-5100,99,114,919,1922,1942,1556,1854,1907,1795,2214,2558
366227,131932,114052,139028,139028,223,434,-80,-205,-18,-626,-590,-4702,98,96,921,1922,1942,1556,1854,1907,1795,2214,2558
367228,132404,114568,139496,139496,148,308,-39,-132,-12,-891,-1016,-4434,83,98,912,1922,1942,1556,1854,1907,1795,2214,2558
368229,132872,115140,139964,139964,173,-44,28,-97,-2,-1050,-870,-4760,88,91,917,1909,1935,1565,1833,1928,1797,2195,2564
369230,133288,115636,140432,140432,499,430,60,-125,-16,-958,-874,-4574,106,97,919,1909,1935,1565,1833,1928,1797,2195,2564
370231,133724,116184,140900,140900,375,103,120,-209,-50,-1187,-530,-4689,90,96,921,1909,1935,1565,1833,1928,1797,2195,2564
371232,134100,116688,141368,141368,752,377,134,-316,-98,-563,-929,-5011,85,94,916,1909,1935,1565,1833,1928,1797,2195,2564
372233,134504,117144,141836,141836,579,677,129,-460,-137,-257,-678,-4059,92,88,919,1909,1935,1565,1833,1928,1797,2195,2564
373234,134980,117640,142304,142304,128,427,141,-578,-130,-424,-900,-5083,97,84,913,1861,1898,1538,1791,1878,1737,2125,2477
374235,135416,118136,142772,142772,379,426,177,-615,-146,-228,-661,-4430,94,89,912,1861,1898,1538,1791,1878,1737,2125,2477
375236,135828,118632,143240,143240,530,425,155,-612,-151,-91,-862,-3921,95,81,918,1861,1898,1538,1791,1878,1737,2125,2477
376237,136240,119104,143708,143708,532,575,161,-508,-147,277,-52,-3990,87,81,916,1861,1898,1538,1791,1878,1737,2125,2477
377238,136624,119548,144176,144176,709,751,181,-407,-113,147,-489,-4368,93,80,912,1861,1898,1538,1791,1878,1737,2125,2477
378239,137068,120024,144644,144644,334,551,104,-288,-116,306,54,-3166,86,96,911,1861,1898,1538,1791,1878,1737,2125,2477
379240,137472,120528,145112,145112,586,375,90,-257,-86,142,772,-4675,99,84,910,1826,1877,1489,1733,1774,1641,2048,2378
380241,137872,121000,145580,145580,613,575,53,-200,-47,452,288,-3844,82,92,915,1826,1877,1489,1733,1774,1641,2048,2378
381242,138268,121420,146048,146048,639,901,7,-198,-21,326,859,-4134,82,72,914,1826,1877,1489,1733,1774,1641,2048,2378
382243,138692,121884,146516,146516,466,626,-61,-227,14,-3,607,-4085,89,91,912,1826,1877,1489,1733,1774,1641,2048,2378
383244,139072,122376,146984,146984,743,450,-125,-219,68,353,483,-3899,82,95,909,1826,1877,1489,1733,1774,1641,2048,2378
384245,139472,122800,147456,147456,619,876,-172,-204,127,123,579,-3711,81,82,913,1799,1860,1446,1692,1726,1600,2016,2348
385246,139856,123224,147924,147924,721,878,-200,-148,178,11,1043,-3611,80,77,912,1799,1860,1446,1692,1726,1600,2016,2348
386247,140240,123640,148392,148392,724,929,-227,-110,204,962,150,-4104,89,92,908,1799,1860,1446,1692,1726,1600,2016,2348
387248,140592,124080,148860,148860,926,779,-237,-34,213,760,660,-4106,88,95,908,1799,1860,1446,1692,1726,1600,2016,2348
388249,141004,124508,149328,149328,553,855,-255,-55,200,375,912,-3836,85,95,906,1799,1860,1446,1692,1726,1600,2016,2348
389250,141432,125004,149796,149796,454,430,-264,-69,172,452,599,-4609,83,75,906,1799,1860,1446,1692,1726,1600,2016,2348
390251,141836,125460,150264,150264,605,680,-269,-84,174,644,516,-3780,90,77,909,1743,1808,1409,1642,1759,1621,2045,2403
391252,142228,125848,150732,150732,682,1107,-286,-41,163,333,477,-4234,79,84,915,1743,1808,1409,1642,1759,1621,2045,2403
392253,142608,126260,151200,151200,759,958,-270,-22,119,-357,214,-3616,71,80,912,1743,1808,1409,1642,1759,1621,2045,2403
393254,142992,126704,151668,151668,736,759,-225,43,43,112,-280,-4418,74,83,904,1743,1808,1409,1642,1759,1621,2045,2403
394255,143416,127088,152136,152136,487,1136,-123,43,29,-430,29,-3871,86,85,904,1743,1808,1409,1642,1759,1621,2045,2403
395256,143820,127512,152604,152604,614,887,-77,19,58,47,-341,-3895,84,92,906,1680,1754,1387,1602,1826,1663,2076,2459
396257,144224,127912,153072,153072,616,1039,-85,92,34,166,-772,-3973,77,89,907,1680,1754,1387,1602,1826,1663,2076,2459
397258,144644,128348,153540,153540,517,815,-111,123,-15,-837,0,-3502,87,90,909,1680,1754,1387,1602,1826,1663,2076,2459
398259,145052,128804,154008,154008,593,690,-55,106,-78,-598,-226,-4094,86,92,906,1680,1754,1387,1602,1826,1663,2076,2459
399260,145528,129224,154476,154476,168,916,-6,91,-117,457,-471,-4113,91,91,910,1680,1754,1387,1602,1826,1663,2076,2459
400261,145920,129660,154944,154944,695,817,14,80,-144,135,-114,-4189,79,91,911,1680,1754,1387,1602,1826,1663,2076,2459
401262,146344,130096,155412,155412,496,818,5,38,-198,-816,121,-4284,89,89,912,1649,1730,1384,1598,1862,1690,2101,2482
402263,146748,130576,155880,155880,622,542,32,-37,-257,-628,-234,-4455,89,92,909,1649,1730,1384,1598,1862,1690,2101,2482
403264,147224,130980,156348,156348,172,1019,24,-26,-257,-107,-199,-4174,81,91,910,1649,1730,1384,1598,1862,1690,2101,2482
404265,147628,131432,156816,156816,624,719,17,-27,-207,-267,-437,-4533,88,104,912,1649,1730,1384,1598,1862,1690,2101,2482
405266,148172,131884,157284,157284,-253,720,-23,-23,-226,-971,-309,-4120,82,95,911,1649,1730,1384,1598,1862,1690,2101,2482
406267,148628,132356,157752,157752,297,595,23,12,-262,-995,-98,-4603,93,88,911,1663,1748,1396,1617,1861,1703,2125,2491
407268,149104,132828,158220,158220,172,594,37,96,-249,5,-286,-3994,87,88,913,1663,1748,1396,1617,1861,1703,2125,2491
408269,149520,133296,158688,158688,548,619,3,107,-188,69,501,-4413,101,93,915,1663,1748,1396,1617,1861,1703,2125,2491
409270,149996,133756,159156,159156,173,670,-44,94,-124,-180,608,-4010,98,110,916,1663,1748,1396,1617,1861,1703,2125,2491
410272,150480,134224,159624,159624,123,620,-75,29,-70,98,494,-4425,102,99,913,1663,1748,1396,1617,1861,1703,2125,2491
411272,150912,134688,160092,160092,449,645,-106,1,-23,336,412,-4552,88,101,913,1663,1748,1396,1617,1861,1703,2125,2491
412273,151336,135260,160560,160560,500,-33,-97,-10,15,-204,652,-4391,100,108,913,1680,1765,1399,1634,1865,1724,2160,2518
413274,151756,135712,161028,161028,526,718,-124,15,34,-81,238,-4383,96,108,913,1680,1765,1399,1634,1865,1724,2160,2518
414275,152224,136232,161496,161496,226,291,-135,84,27,210,491,-3792,97,90,918,1680,1765,1399,1634,1865,1724,2160,2518
415276,152692,136736,161964,161964,226,390,-123,178,47,155,-95,-4193,96,90,912,1680,1765,1399,1634,1865,1724,2160,2518
416277,153200,137328,162432,162432,-25,-163,-89,235,78,157,354,-4118,108,99,918,1680,1765,1399,1634,1865,1724,2160,2518
417278,153672,137844,162900,162900,200,311,-88,253,104,235,386,-3880,105,105,918,1678,1762,1399,1629,1899,1761,2197,2563
418279,154132,138368,163368,163368,275,260,-68,253,105,266,802,-4073,108,106,920,1678,1762,1399,1629,1899,1761,2197,2563
419280,154628,138868,163840,163840,49,409,-75,231,64,309,694,-3998,108,91,919,1678,1762,1399,1629,1899,1761,2197,2563
420281,155104,139376,164308,164308,174,358,-52,183,56,119,390,-4528,99,109,919,1678,1762,1399,1629,1899,1761,2197,2563
421282,155624,140008,164776,164776,-102,-421,-47,160,97,136,109,-4410,104,110,919,1678,1762,1399,1629,1899,1761,2197,2563
422283,156096,140628,165244,165244,198,-350,-9,151,116,-468,-8,-4295,105,106,918,1678,1762,1399,1629,1899,1761,2197,2563
423284,156584,141140,165712,165712,97,324,-20,216,59,-812,92,-3686,109,86,916,1679,1758,1409,1647,1944,1798,2231,2591
424285,157068,141600,166180,166180,122,650,7,300,-17,-959,195,-4324,105,98,917,1679,1758,1409,1647,1944,1798,2231,2591
425286,157576,142064,166648,166648,-29,625,24,314,-63,-524,53,-4205,114,107,919,1679,1758,1409,1647,1944,1798,2231,2591
426287,158160,142668,167116,167116,-507,-254,40,319,-97,-494,341,-4326,105,93,915,1679,1758,1409,1647,1944,1798,2231,2591
427288,158660,143232,167584,167584,17,-6,41,223,-108,-507,272,-4605,99,102,916,1679,1758,1409,1647,1944,1798,2231,2591
428289,159132,143776,168052,168052,192,117,48,149,-120,-514,114,-4723,91,92,911,1696,1769,1429,1677,1963,1822,2242,2588
429290,159592,144280,168520,168520,267,366,50,105,-117,-605,284,-4907,94,103,919,1696,1769,1429,1677,1963,1822,2242,2588
430291,160088,144816,168988,168988,42,165,3,76,-138,-1002,161,-4519,98,98,920,1696,1769,1429,1677,1963,1822,2242,2588
431292,160568,145324,169456,169456,141,339,-26,77,-165,-1144,-237,-4381,103,97,918,1696,1769,1429,1677,1963,1822,2242,2588
432293,161036,145840,169924,169924,216,287,-17,89,-163,-906,-405,-4324,95,92,921,1696,1769,1429,1677,1963,1822,2242,2588
433294,161428,146356,170392,170392,693,286,75,98,-105,-461,-331,-4607,101,92,918,1696,1769,1429,1677,1963,1822,2242,2588
434295,161924,146832,170860,170860,43,536,114,111,-89,268,640,-4059,106,100,919,1722,1784,1445,1700,1946,1828,2237,2580
435296,162432,147340,171328,171328,-33,335,133,40,-131,214,290,-3980,108,98,915,1722,1784,1445,1700,1946,1828,2237,2580
436297,162860,147792,171796,171796,468,686,180,-112,-144,-53,121,-5142,105,85,917,1722,1784,1445,1700,1946,1828,2237,2580
437298,163392,148252,172264,172264,-184,636,242,-137,-72,216,-886,-4341,88,92,919,1722,1784,1445,1700,1946,1828,2237,2580
438299,163836,148788,172732,172732,367,159,186,-42,61,542,-1224,-3619,102,102,913,1722,1784,1445,1700,1946,1828,2237,2580
439300,164308,149300,173200,173200,192,308,143,76,160,754,70,-4653,107,95,915,1739,1793,1451,1715,1900,1798,2197,2524
440301,164788,149960,173668,173668,141,-622,118,230,222,902,45,-4066,93,86,918,1739,1793,1451,1715,1900,1798,2197,2524
441302,165256,150420,174136,174136,216,629,121,373,219,605,-575,-4207,98,107,919,1739,1793,1451,1715,1900,1798,2197,2524
442303,165736,150880,174604,174604,141,629,73,342,231,797,381,-4046,91,90,914,1739,1793,1451,1715,1900,1798,2197,2524
443304,166168,151448,175072,175072,442,-49,42,333,263,921,186,-4271,97,93,915,1739,1793,1451,1715,1900,1798,2197,2524
444305,166612,151972,175540,175540,367,225,-8,294,302,839,554,-4102,96,85,916,1775,1814,1459,1744,1865,1777,2175,2475
445306,167048,152440,176008,176008,418,575,-17,311,273,922,553,-3938,91,93,916,1775,1814,1459,1744,1865,1777,2175,2475
446307,167476,152972,176476,176476,469,173,-20,282,200,670,674,-4728,79,87,916,1775,1814,1459,1744,1865,1777,2175,2475
447308,167904,153404,176944,176944,470,799,-30,265,169,445,63,-4433,87,90,915,1775,1814,1459,1744,1865,1777,2175,2475
448309,168308,153948,177412,177412,622,97,-94,230,193,395,-394,-4326,87,84,918,1775,1814,1459,1744,1865,1777,2175,2475
449310,168760,154468,177880,177880,322,246,-125,218,163,60,355,-4136,84,95,911,1775,1814,1459,1744,1865,1777,2175,2475
450311,169168,155016,178348,178348,599,69,-120,270,40,365,139,-4126,94,100,916,1794,1814,1465,1761,1878,1796,2187,2475
451312,169624,155476,178816,178816,299,619,-59,178,-11,-53,210,-4753,84,92,919,1794,1814,1465,1761,1878,1796,2187,2475
452313,170076,156000,179284,179284,324,218,-17,140,-53,-371,422,-3868,92,95,917,1794,1814,1465,1761,1878,1796,2187,2475
453314,170488,156588,179752,179752,576,-185,0,133,-141,-333,635,-4380,105,79,915,1794,1814,1465,1761,1878,1796,2187,2475
454315,170952,157012,180224,180224,251,841,34,71,-191,-335,575,-4381,87,87,919,1794,1814,1465,1761,1878,1796,2187,2475
455316,171388,157540,180692,180692,427,190,68,126,-222,-164,269,-4183,92,83,916,1782,1797,1462,1764,1893,1808,2185,2465
456317,171780,157984,181160,181160,704,715,115,124,-194,-352,219,-4559,89,93,912,1782,1797,1462,1764,1893,1808,2185,2465
457318,172260,158536,181628,181628,153,38,126,118,-177,-574,36,-4377,98,81,918,1782,1797,1462,1764,1893,1808,2185,2465
458319,172740,159116,182096,182096,153,-139,140,70,-179,-804,-66,-3993,101,81,911,1782,1797,1462,1764,1893,1808,2185,2465
459320,173168,159600,182564,182564,479,460,177,17,-124,-1484,-1174,-3801,99,93,921,1782,1797,1462,1764,1893,1808,2185,2465
460321,173620,160092,183032,183032,329,410,140,138,-257,1034,860,-4577,97,88,920,1782,1797,1462,1764,1893,1808,2185,2465
461322,174032,160556,183500,183500,581,585,184,169,-134,-956,-15,-5280,90,89,915,1793,1804,1470,1784,1853,1780,2145,2408
462323,174468,160996,183968,183968,431,735,121,124,-101,207,947,-3091,100,74,916,1793,1804,1470,1784,1853,1780,2145,2408
463324,174908,161524,184436,184436,407,184,-6,146,-74,13,522,-4460,95,93,910,1793,1804,1470,1784,1853,1780,2145,2408
464325,175364,162000,184904,184904,307,509,-53,-10,-59,808,312,-5126,95,86,913,1793,1804,1470,1784,1853,1780,2145,2408
465326,175784,162460,185372,185372,534,609,-36,-27,-8,-259,42,-4339,80,88,918,1793,1804,1470,1784,1853,1780,2145,2408
466327,176184,162916,185840,185840,660,634,-9,-55,5,209,27,-4245,88,82,916,1820,1819,1483,1801,1830,1769,2128,2393
467328,176612,163436,186308,186308,486,233,-57,-69,38,70,83,-3981,96,96,913,1820,1819,1483,1801,1830,1769,2128,2393
468329,177048,163932,186776,186776,437,382,-20,-54,60,-48,-328,-4251,86,95,912,1820,1819,1483,1801,1830,1769,2128,2393
469330,177504,164376,187244,187244,312,708,4,-12,87,57,-587,-3778,92,89,917,1820,1819,1483,1801,1830,1769,2128,2393
470331,177920,164800,187712,187712,564,834,32,85,114,164,-343,-3864,88,82,916,1820,1819,1483,1801,1830,1769,2128,2393
471333,178312,165228,188180,188180,715,810,31,102,148,-229,-202,-4385,79,93,911,1820,1819,1483,1801,1830,1769,2128,2393
472333,178736,165740,188648,188648,516,284,62,27,193,-156,-150,-4684,93,92,909,1811,1811,1486,1797,1827,1767,2117,2385
473334,179168,166184,189116,189116,467,709,4,65,203,811,-176,-3578,74,109,916,1811,1811,1486,1797,1827,1767,2117,2385
474335,179584,166616,189584,189584,569,785,-28,-71,216,395,-91,-4971,78,99,913,1811,1811,1486,1797,1827,1767,2117,2385
475336,179984,167056,190052,190052,670,736,-42,-101,208,-196,-220,-3901,72,97,910,1811,1811,1486,1797,1827,1767,2117,2385
476337,180372,167468,190520,190520,747,912,-13,-171,230,135,-330,-4331,91,101,911,1811,1811,1486,1797,1827,1767,2117,2385
477338,180764,167988,190988,190988,724,236,1,-127,262,299,-753,-3573,85,110,908,1826,1819,1496,1806,1836,1775,2130,2409
478339,181184,168428,191456,191456,550,737,10,-196,274,-690,-423,-3874,86,108,912,1826,1819,1496,1806,1836,1775,2130,2409
479340,181568,168964,191924,191924,777,135,45,-191,211,-600,-725,-3881,74,98,909,1826,1819,1496,1806,1836,1775,2130,2409
480341,182008,169388,192392,192392,428,836,89,-297,170,-641,-25,-4192,89,115,914,1826,1819,1496,1806,1836,1775,2130,2409
481342,182412,169948,192860,192860,655,-16,121,-342,103,109,-513,-4115,82,92,911,1826,1819,1496,1806,1836,1775,2130,2409
482343,182816,170408,193328,193328,656,609,100,-412,31,433,624,-4494,88,101,916,1826,1819,1496,1806,1836,1775,2130,2409
483344,183216,170896,193796,193796,683,434,53,-483,-21,468,121,-4416,91,98,912,1849,1848,1515,1825,1851,1784,2164,2450
484345,183588,171412,194264,194264,860,257,1,-498,-88,825,1127,-4138,89,96,913,1849,1848,1515,1825,1851,1784,2164,2450
485346,183996,171860,194732,194732,637,683,-43,-508,-91,1337,94,-4982,80,106,912,1849,1848,1515,1825,1851,1784,2164,2450
486347,184368,172336,195200,195200,864,508,-57,-324,-84,1695,340,-3420,75,96,911,1849,1848,1515,1825,1851,1784,2164,2450
487348,184772,172816,195668,195668,666,482,-27,-225,-101,1013,1156,-4439,85,102,911,1849,1848,1515,1825,1851,1784,2164,2450
488349,185156,173296,196136,196136,793,482,-33,-117,-146,750,715,-3983,93,99,913,1902,1909,1538,1844,1874,1801,2211,2518
489350,185548,173748,196608,196608,745,658,-39,-59,-205,1099,95,-4560,84,96,911,1902,1909,1538,1844,1874,1801,2211,2518
490351,186000,174208,197076,197076,370,608,-51,86,-213,1124,960,-4799,81,106,910,1902,1909,1538,1844,1874,1801,2211,2518
491352,186432,174772,197544,197544,496,-45,-71,14,-181,597,1045,-4623,87,100,915,1902,1909,1538,1844,1874,1801,2211,2518
492353,186836,175300,198012,198012,672,179,-103,1,-204,191,1072,-5035,88,119,918,1902,1909,1538,1844,1874,1801,2211,2518
493354,187252,175792,198480,198480,599,403,-93,-119,-205,586,565,-5278,94,109,915,1902,1909,1538,1844,1874,1801,2211,2518
494355,187664,176288,198948,198948,625,378,-55,-158,-160,615,527,-4887,91,103,915,1927,1935,1553,1861,1907,1834,2248,2568
495356,188096,176812,199416,199416,501,201,-69,-190,-91,511,455,-5291,85,105,912,1927,1935,1553,1861,1907,1834,2248,2568
496357,188564,177372,199884,199884,276,-26,-71,-141,-31,226,104,-4759,98,109,915,1927,1935,1553,1861,1907,1834,2248,2568
497358,189008,177900,200352,200352,426,173,-61,-24,0,-228,253,-4598,94,105,920,1927,1935,1553,1861,1907,1834,2248,2568
498359,189452,178416,200820,200820,427,246,-31,29,23,-425,-389,-4417,101,96,918,1927,1935,1553,1861,1907,1834,2248,2568
499360,189888,179044,201288,201288,478,-457,-30,25,74,-432,-95,-4656,91,105,918,1889,1906,1537,1828,1918,1821,2215,2545
500361,190408,179560,201756,201756,-48,241,-12,-21,124,-577,-294,-4895,100,106,914,1889,1906,1537,1828,1918,1821,2215,2545
501362,190904,180088,202224,202224,101,165,27,-127,147,-1039,-101,-5273,100,97,920,1889,1906,1537,1828,1918,1821,2215,2545
502363,191384,180612,202692,202692,201,189,83,-219,150,-973,-370,-5296,93,91,921,1889,1906,1537,1828,1918,1821,2215,2545
503364,191884,181100,203160,203160,75,413,159,-354,152,-1046,-721,-4967,104,101,919,1889,1906,1537,1828,1918,1821,2215,2545
504365,192332,181600,203628,203628,400,337,160,-419,180,-1364,-553,-4452,100,92,918,1889,1906,1537,1828,1918,1821,2215,2545
505366,192776,182156,204096,204096,426,-15,143,-413,181,-1100,-1238,-3680,95,83,917,1833,1857,1514,1778,1876,1751,2117,2447
506367,193280,182664,204564,204564,50,284,134,-368,144,-977,-914,-3814,99,85,919,1833,1857,1514,1778,1876,1751,2117,2447
507368,193712,183188,205032,205032,501,183,134,-381,112,-1011,-871,-4076,100,94,920,1833,1857,1514,1778,1876,1751,2117,2447
508369,194208,183652,205500,205500,100,558,175,-433,94,-506,-855,-4542,87,99,917,1833,1857,1514,1778,1876,1751,2117,2447
509370,194700,184164,205968,205968,125,257,186,-496,47,-193,-372,-4219,95,79,916,1833,1857,1514,1778,1876,1751,2117,2447
510371,195164,184612,206436,206436,300,657,184,-526,-4,-284,-132,-4095,102,94,919,1784,1819,1467,1717,1785,1649,2023,2343
511372,195588,185064,206904,206904,551,633,108,-561,-52,213,18,-3741,106,92,915,1784,1819,1467,1717,1785,1649,2023,2343
512373,196092,185520,207372,207372,50,608,70,-563,-93,436,-182,-4600,102,96,911,1784,1819,1467,1717,1785,1649,2023,2343
513374,196552,185952,207840,207840,325,759,-29,-557,-118,295,183,-3881,99,83,914,1784,1819,1467,1717,1785,1649,2023,2343
514375,197044,186460,208308,208308,125,283,-87,-507,-126,354,23,-3798,106,84,913,1784,1819,1467,1717,1785,1649,2023,2343
515376,197488,186908,208776,208776,425,658,-121,-368,-143,412,228,-3716,93,91,919,1784,1819,1467,1717,1785,1649,2023,2343
516377,197924,187360,209244,209244,476,634,-125,-254,-146,369,62,-3329,100,91,914,1747,1798,1420,1656,1722,1588,1984,2315
517378,198468,187840,209712,209712,-201,458,-140,-118,-135,426,278,-3051,103,86,913,1747,1798,1420,1656,1722,1588,1984,2315
518379,198920,188268,210180,210180,374,784,-186,-152,-115,370,584,-3916,94,78,916,1747,1798,1420,1656,1722,1588,1984,2315
519380,199300,188744,210648,210648,827,484,-157,-222,-122,66,1062,-4243,99,89,912,1747,1798,1420,1656,1722,1588,1984,2315
520381,199752,189144,211116,211116,377,961,-175,-207,-123,1115,-85,-3406,85,75,911,1747,1798,1420,1656,1722,1588,1984,2315
521382,200164,189580,211584,211584,628,737,-174,-301,-85,659,718,-4349,86,79,910,1692,1758,1381,1607,1738,1603,2013,2371
522383,200632,190004,212052,212052,278,813,-187,-316,-59,63,626,-3350,98,97,910,1692,1758,1381,1607,1738,1603,2013,2371
523384,201084,190468,212520,212520,379,563,-199,-252,-55,339,-173,-4429,90,90,912,1692,1758,1381,1607,1738,1603,2013,2371
524385,201532,190892,212992,212992,404,814,-242,-106,-24,396,466,-2776,98,79,914,1692,1758,1381,1607,1738,1603,2013,2371
525386,201928,191312,213460,213460,731,840,-225,39,35,33,-127,-3904,94,77,911,1692,1758,1381,1607,1738,1603,2013,2371
526387,202332,191700,213928,213928,683,1042,-207,35,81,37,102,-3991,92,85,908,1692,1758,1381,1607,1738,1603,2013,2371
527388,202760,192112,214396,214396,534,894,-201,76,112,495,14,-3632,95,92,906,1656,1740,1370,1582,1808,1658,2087,2474
528389,203208,192552,214864,214864,409,719,-118,113,103,185,356,-4516,98,89,909,1656,1740,1370,1582,1808,1658,2087,2474
529390,203644,192952,215332,215332,485,971,-118,41,87,-317,313,-4258,97,79,910,1656,1740,1370,1582,1808,1658,2087,2474
530391,204052,193352,215800,215800,661,973,-103,58,98,3,176,-3829,92,83,906,1656,1740,1370,1582,1808,1658,2087,2474
531392,204444,193764,216268,216268,763,899,-109,71,110,-171,-228,-4255,77,82,907,1656,1740,1370,1582,1808,1658,2087,2474
532393,204856,194152,216736,216736,640,1051,-77,80,114,-654,-223,-3756,98,85,905,1648,1741,1385,1597,1891,1723,2157,2558
533394,205284,194600,217204,217204,541,676,-15,56,119,-672,-215,-4411,91,82,905,1648,1741,1385,1597,1891,1723,2157,2558
534395,205676,195032,217672,217672,767,777,23,18,85,-656,-149,-4446,80,84,911,1648,1741,1385,1597,1891,1723,2157,2558
535396,206072,195436,218140,218140,744,954,89,84,28,-794,-245,-4259,90,97,908,1648,1741,1385,1597,1891,1723,2157,2558
536397,206476,195844,218608,218608,696,930,155,-4,12,-535,206,-4449,88,92,906,1648,1741,1385,1597,1891,1723,2157,2558
537400,206876,196320,219076,219076,722,505,133,-23,0,-217,145,-4219,95,88,907,1648,1741,1385,1597,1891,1723,2157,2558
538399,207364,196748,219544,219544,172,806,143,-63,-36,-685,334,-4774,92,102,911,1671,1767,1410,1633,1932,1752,2196,2581
539400,207760,197164,220012,220012,749,882,132,-95,-111,-1031,198,-4810,79,105,912,1671,1767,1410,1633,1932,1752,2196,2581
540401,208164,197608,220480,220480,700,708,153,-51,-160,-614,481,-4646,87,102,906,1671,1767,1410,1633,1932,1752,2196,2581
541402,208548,198068,220948,220948,827,608,91,-75,-150,-329,213,-5313,88,87,909,1671,1767,1410,1633,1932,1752,2196,2581
542403,208956,198532,221416,221416,679,583,44,-32,-144,-303,720,-4428,96,97,909,1671,1767,1410,1633,1932,1752,2196,2581
543404,209388,198960,221884,221884,530,809,-21,-17,-108,-190,397,-4919,92,99,911,1734,1824,1440,1681,1915,1751,2210,2580
544405,209856,199440,222352,222352,305,484,-40,-30,-108,151,351,-4714,78,97,910,1734,1824,1440,1681,1915,1751,2210,2580
545406,210296,199924,222820,222820,480,458,-81,-10,-88,-248,24,-4626,91,87,915,1734,1824,1440,1681,1915,1751,2210,2580
546407,210704,200428,223288,223288,682,333,-74,-87,-85,-193,412,-4734,83,90,913,1734,1824,1440,1681,1915,1751,2210,2580
547408,211172,200908,223756,223756,307,482,-17,-88,-41,320,368,-4973,85,97,912,1734,1824,1440,1681,1915,1751,2210,2580
548409,211588,201380,224224,224224,633,532,-91,-104,-16,945,301,-4465,84,107,915,1734,1824,1440,1681,1915,1751,2210,2580
549410,212004,201912,224692,224692,634,156,-145,-62,-14,56,383,-4414,92,99,912,1752,1832,1441,1681,1908,1760,2210,2585
550411,212484,202444,225160,225160,234,154,-157,-96,-8,-138,310,-5243,83,102,915,1752,1832,1441,1681,1908,1760,2210,2585
551412,212920,202988,225628,225628,510,77,-141,10,-6,926,14,-4060,86,111,918,1752,1832,1441,1681,1908,1760,2210,2585
552413,213408,203488,226096,226096,184,351,-158,50,59,826,-402,-4588,93,97,916,1752,1832,1441,1681,1908,1760,2210,2585
553414,213920,204024,226564,226564,33,125,-166,119,71,147,-162,-4025,92,91,917,1752,1832,1441,1681,1908,1760,2210,2585
554415,214400,204608,227032,227032,233,-178,-137,190,17,-84,-621,-4304,85,98,920,1714,1795,1418,1641,1907,1756,2188,2566
555416,214860,205200,227500,227500,358,-231,-62,257,6,413,-161,-4252,87,96,918,1714,1795,1418,1641,1907,1756,2188,2566
556417,215288,205792,227968,227968,559,-234,-11,315,11,531,-41,-4120,97,105,917,1714,1795,1418,1641,1907,1756,2188,2566
557418,215784,206328,228436,228436,133,114,-18,292,25,171,72,-3861,90,96,915,1714,1795,1418,1641,1907,1756,2188,2566
558419,216220,206800,228904,228904,509,514,-47,283,30,362,155,-4012,94,84,919,1714,1795,1418,1641,1907,1756,2188,2566
559420,216656,207252,229376,229376,510,640,-78,219,29,191,-199,-4327,102,86,914,1714,1795,1418,1641,1907,1756,2188,2566
560421,217144,207804,229844,229844,185,13,-55,229,-19,-323,-120,-3904,86,105,912,1662,1736,1388,1610,1892,1744,2154,2509
561422,217604,208420,230312,230312,360,-391,-23,278,-81,-469,-295,-4101,114,95,920,1662,1736,1388,1610,1892,1744,2154,2509
562423,218064,208920,230780,230780,360,333,13,418,-118,-397,-381,-3449,98,100,914,1662,1736,1388,1610,1892,1744,2154,2509
563424,218560,209404,231248,231248,134,433,25,481,-124,-242,-182,-3691,93,97,916,1662,1736,1388,1610,1892,1744,2154,2509
564425,219008,209896,231716,231716,435,382,57,506,-124,-625,-24,-3729,95,89,915,1662,1736,1388,1610,1892,1744,2154,2509
565426,219524,210424,232184,232184,9,156,59,411,-131,-798,154,-4108,112,87,915,1625,1696,1368,1601,1875,1737,2135,2458
566427,220060,210936,232652,232652,-118,255,71,310,-164,-757,801,-3353,112,92,919,1625,1696,1368,1601,1875,1737,2135,2458
567428,220520,211432,233120,233120,357,354,81,183,-173,-580,-70,-3992,106,100,918,1625,1696,1368,1601,1875,1737,2135,2458
568429,221028,211904,233588,233588,56,504,81,79,-111,-440,330,-4090,108,96,917,1625,1696,1368,1601,1875,1737,2135,2458
569430,221556,212340,234056,234056,-70,730,78,42,-26,-577,174,-3699,102,95,917,1625,1696,1368,1601,1875,1737,2135,2458
570431,222048,212904,234524,234524,154,-73,61,80,-8,-1068,167,-3641,110,92,913,1625,1696,1368,1601,1875,1737,2135,2458
571432,222540,213416,234992,234992,154,251,23,89,-38,-1150,369,-3558,106,84,918,1629,1693,1373,1625,1858,1742,2141,2447
572433,223092,213940,235460,235460,-224,175,52,113,-45,-669,235,-4019,98,101,918,1629,1693,1373,1625,1858,1742,2141,2447
573434,223604,214448,235928,235928,25,274,83,106,-20,-402,443,-3878,99,95,918,1629,1693,1373,1625,1858,1742,2141,2447
574435,224116,214908,236396,236396,24,574,43,55,11,104,959,-3888,98,86,919,1629,1693,1373,1625,1858,1742,2141,2447
575436,224580,215488,236864,236864,324,-179,-10,-33,63,211,657,-4473,104,99,917,1629,1693,1373,1625,1858,1742,2141,2447
576437,225116,215924,237332,237332,-127,722,-70,-109,89,-199,724,-4227,98,97,918,1675,1733,1402,1672,1876,1778,2187,2505
577438,225648,216436,237800,237800,-104,246,-106,-96,77,418,495,-4055,102,92,914,1675,1733,1402,1672,1876,1778,2187,2505
578439,226172,216924,238268,238268,-55,396,-98,-91,75,5,157,-4585,109,85,919,1675,1733,1402,1672,1876,1778,2187,2505
579440,226616,217488,238736,238736,445,-82,-85,17,80,-147,-30,-3711,95,90,918,1675,1733,1402,1672,1876,1778,2187,2505
580441,227012,217936,239204,239204,747,644,-12,52,100,483,77,-4293,106,100,917,1675,1733,1402,1672,1876,1778,2187,2505
581442,227468,218504,239672,239672,372,-109,24,69,89,1167,960,-3882,98,89,909,1675,1733,1402,1672,1876,1778,2187,2505
582443,228032,218904,240140,240140,-305,943,40,18,3,854,548,-4226,104,92,917,1727,1780,1437,1712,1936,1840,2255,2601
583444,228596,219460,240608,240608,-307,-34,117,-105,-27,902,235,-5091,91,84,910,1727,1780,1437,1712,1936,1840,2255,2601
584445,229036,219948,241076,241076,468,390,189,18,16,1084,-887,-4176,101,81,918,1727,1780,1437,1712,1936,1840,2255,2601
585448,229440,220468,241544,241544,695,189,125,147,116,900,-1450,-4265,96,99,916,1727,1780,1437,1712,1936,1840,2255,2601
586447,229964,220944,242012,242012,-56,464,89,214,111,977,584,-4586,95,99,915,1727,1780,1437,1712,1936,1840,2255,2601
587448,230464,221452,242480,242480,93,263,145,377,22,717,-204,-3966,104,84,917,1791,1840,1491,1771,1962,1868,2280,2620
588449,230936,222024,242948,242948,268,-140,184,411,3,356,-1330,-4810,102,80,919,1791,1840,1491,1771,1962,1868,2280,2620
589450,231408,222512,243416,243416,268,385,187,411,47,-127,592,-4191,84,92,919,1791,1840,1491,1771,1962,1868,2280,2620
590451,231868,222984,243884,243884,343,485,212,455,11,429,-294,-4542,104,94,918,1791,1840,1491,1771,1962,1868,2280,2620
591452,232328,223480,244352,244352,343,334,193,458,7,468,287,-4192,99,85,916,1791,1840,1491,1771,1962,1868,2280,2620
592453,232852,223880,244820,244820,-58,936,224,438,31,403,520,-5247,84,89,917,1791,1840,1491,1771,1962,1868,2280,2620
593454,233248,224508,245288,245288,743,-493,174,356,-11,-17,434,-4533,96,82,912,1870,1896,1538,1856,1952,1872,2279,2567
594455,233632,225004,245760,245760,821,331,169,279,-45,-910,46,-5330,87,84,911,1870,1896,1538,1856,1952,1872,2279,2567
595456,234080,225512,246228,246228,421,255,138,248,-13,-1183,-534,-5237,96,94,912,1870,1896,1538,1856,1952,1872,2279,2567
596457,234484,225920,246696,246696,698,882,175,164,24,-1184,-640,-4673,96,81,917,1870,1896,1538,1856,1952,1872,2279,2567
598459,235420,226928,247632,247632,423,305,54,151,-46,811,995,-4857,96,83,917,1941,1936,1571,1915,1915,1845,2237,2495
599460,235864,227396,248100,248100,448,505,32,111,-9,-907,402,-5277,98,87,916,1941,1936,1571,1915,1915,1845,2237,2495
600461,236296,227848,248568,248568,524,605,13,63,-17,-1185,442,-4282,104,84,915,1941,1936,1571,1915,1915,1845,2237,2495
601462,236740,228256,249036,249036,450,882,-55,-57,-74,-216,608,-5300,87,92,913,1941,1936,1571,1915,1915,1845,2237,2495
602463,237208,228724,249504,249504,300,507,-18,-153,-65,-35,692,-5193,98,81,910,1941,1936,1571,1915,1915,1845,2237,2495
603464,237692,229180,249972,249972,199,582,-35,-121,-15,-536,477,-4378,92,80,916,1941,1936,1571,1915,1915,1845,2237,2495
604465,238136,229624,250440,250440,450,658,-87,-127,-19,-281,-314,-4553,108,85,916,1941,1923,1559,1899,1871,1807,2182,2444
605466,238592,230076,250908,250908,375,608,-101,-102,18,-914,-439,-4020,98,86,913,1941,1923,1559,1899,1871,1807,2182,2444
606467,239020,230488,251376,251376,551,859,-16,-161,35,-1167,-310,-4588,85,100,914,1941,1923,1559,1899,1871,1807,2182,2444
607468,239484,231008,251844,251844,326,183,89,-169,0,-223,-335,-3692,84,95,911,1941,1923,1559,1899,1871,1807,2182,2444
608469,239968,231432,252312,252312,201,784,159,-165,3,282,-78,-4361,93,95,918,1941,1923,1559,1899,1871,1807,2182,2444
609470,240400,231892,252780,252780,527,559,109,-165,34,242,8,-4062,90,91,914,1875,1863,1522,1836,1822,1753,2106,2371
610471,240808,232340,253248,253248,678,635,69,-164,41,557,494,-4175,82,102,914,1875,1863,1522,1836,1822,1753,2106,2371
611472,241244,232840,253716,253716,504,309,36,-220,32,1364,-12,-4371,79,95,911,1875,1863,1522,1836,1822,1753,2106,2371
612473,241684,233304,254184,254184,480,534,-44,-181,25,1635,151,-3494,95,109,916,1875,1863,1522,1836,1822,1753,2106,2371
613474,242168,233724,254652,254652,204,810,-60,-196,61,1022,330,-4115,90,97,915,1875,1863,1522,1836,1822,1753,2106,2371
614475,242600,234208,255120,255120,530,410,-73,-49,67,1060,-438,-3234,86,106,913,1875,1863,1522,1836,1822,1753,2106,2371
615476,243016,234652,255588,255588,631,661,-7,-38,62,817,35,-3771,84,97,913,1844,1837,1498,1789,1775,1703,2051,2335
616477,243468,235140,256056,256056,407,385,2,52,83,556,-723,-3407,94,111,912,1844,1837,1498,1789,1775,1703,2051,2335
617478,243904,235600,256524,256524,508,560,76,-12,128,488,-187,-3812,87,105,916,1844,1837,1498,1789,1775,1703,2051,2335
618479,244336,236076,256992,256992,533,460,107,-17,120,460,-30,-3504,85,103,914,1844,1837,1498,1789,1775,1703,2051,2335
619480,244784,236564,257460,257460,434,385,78,-15,78,1101,-436,-3708,78,92,915,1844,1837,1498,1789,1775,1703,2051,2335
620481,245184,237060,257928,257928,736,334,52,-21,61,1044,464,-4082,78,103,916,1815,1814,1486,1777,1761,1690,2042,2321
621482,245608,237532,258396,258396,587,484,-12,-65,80,913,-298,-3675,89,106,913,1815,1814,1486,1777,1761,1690,2042,2321
622483,246008,238024,258864,258864,738,358,-45,-19,75,1259,100,-3857,95,92,914,1815,1814,1486,1777,1761,1690,2042,2321
623484,246392,238460,259332,259332,840,709,-73,-41,73,713,-214,-3936,82,101,913,1815,1814,1486,1777,1761,1690,2042,2321
624485,246872,238940,259800,259800,240,434,-83,-27,64,59,-249,-3662,92,111,908,1815,1814,1486,1777,1761,1690,2042,2321
625486,247288,239456,260268,260268,641,208,-109,12,18,-97,-289,-3951,89,104,917,1815,1814,1486,1777,1761,1690,2042,2321
626487,247680,239932,260736,260736,793,457,-125,18,7,-367,235,-4255,87,90,915,1842,1841,1504,1804,1794,1728,2098,2384
627488,248116,240452,261204,261204,519,181,-152,-15,-26,-370,140,-4617,88,102,912,1842,1841,1504,1804,1794,1728,2098,2384
628489,248504,240952,261672,261672,821,305,-197,-120,-44,-454,475,-4647,84,100,917,1842,1841,1504,1804,1794,1728,2098,2384
629490,248960,241424,262144,262144,396,480,-209,-220,-51,-408,295,-5222,79,91,913,1842,1841,1504,1804,1794,1728,2098,2384
630491,249340,241920,262612,262612,874,330,-227,-314,-30,-475,287,-4878,84,88,915,1842,1841,1504,1804,1794,1728,2098,2384
631492,249716,242400,263080,263080,901,429,-208,-345,13,-245,-31,-4894,79,108,912,1866,1867,1522,1829,1878,1800,2188,2500
632493,250136,242872,263548,263548,627,479,-186,-210,45,68,73,-4094,83,101,909,1866,1867,1522,1829,1878,1800,2188,2500
633494,250548,243436,264016,264016,678,-98,-128,-127,36,-293,566,-4551,88,94,914,1866,1867,1522,1829,1878,1800,2188,2500
634495,250932,243968,264484,264484,855,100,-87,-114,0,-483,107,-4769,87,92,915,1866,1867,1522,1829,1878,1800,2188,2500
635496,251384,244568,264952,264952,431,-328,-50,-89,3,-286,-345,-4329,83,101,914,1866,1867,1522,1829,1878,1800,2188,2500
636497,251828,245020,265420,265420,481,598,20,-121,14,-320,424,-5361,87,108,916,1866,1867,1522,1829,1878,1800,2188,2500
637498,252228,245544,265888,265888,758,146,69,-203,-31,-506,670,-4864,104,99,914,1853,1868,1520,1813,1932,1833,2223,2550
638499,252688,246084,266356,266356,383,44,89,-346,-86,-550,38,-5601,97,82,915,1853,1868,1520,1813,1932,1833,2223,2550
639500,253100,246612,266824,266824,685,118,121,-481,-113,-737,91,-5153,94,105,919,1853,1868,1520,1813,1932,1833,2223,2550
640501,253584,247096,267292,267292,234,393,131,-629,-129,-1213,586,-4984,96,105,916,1853,1868,1520,1813,1932,1833,2223,2550
641502,254024,247592,267760,267760,510,317,94,-655,-120,-427,-627,-4616,99,94,918,1853,1868,1520,1813,1932,1833,2223,2550
642503,254468,248060,268228,268228,485,492,122,-618,-110,-324,-278,-4580,99,83,917,1845,1868,1510,1790,1889,1774,2170,2498
643504,254928,248576,268696,268696,386,191,128,-510,-136,-481,-148,-4021,103,90,916,1845,1868,1510,1790,1889,1774,2170,2498
644505,255384,249132,269164,269164,411,-61,138,-463,-135,15,-311,-3993,89,96,919,1845,1868,1510,1790,1889,1774,2170,2498
645506,255900,249572,269632,269632,35,664,133,-399,-116,425,-5,-4077,102,80,919,1845,1868,1510,1790,1889,1774,2170,2498
646507,256384,250048,270100,270100,234,439,106,-372,-107,713,367,-4227,95,90,916,1845,1868,1510,1790,1889,1774,2170,2498
647508,256856,250500,270568,270568,309,589,84,-369,-91,1066,172,-4851,107,87,917,1845,1868,1510,1790,1889,1774,2170,2498
648509,257336,250948,271036,271036,259,615,54,-381,-69,839,308,-4644,90,83,915,1819,1862,1479,1740,1810,1694,2096,2425
649510,257824,251448,271504,271504,208,289,10,-331,-35,558,301,-4300,103,82,913,1819,1862,1479,1740,1810,1694,2096,2425
650511,258300,251876,271972,271972,283,740,-52,-250,18,978,-57,-3945,112,87,919,1819,1862,1479,1740,1810,1694,2096,2425
651512,258796,252332,272440,272440,158,565,-87,-93,74,1084,-8,-3661,106,91,914,1819,1862,1479,1740,1810,1694,2096,2425
652513,259272,252792,272908,272908,282,541,-94,81,116,621,-65,-3791,98,85,916,1819,1862,1479,1740,1810,1694,2096,2425
653514,259736,253288,273376,273376,358,315,-108,143,151,222,-228,-3936,101,81,916,1779,1833,1442,1684,1770,1648,2053,2389
654515,260220,253744,273844,273844,232,565,-126,131,168,54,326,-4099,103,91,918,1779,1833,1442,1684,1770,1648,2053,2389
655516,260696,254132,274312,274312,282,992,-126,-7,170,46,221,-4468,97,77,916,1779,1833,1442,1684,1770,1648,2053,2389
656517,261212,254548,274780,274780,31,818,-123,-169,182,154,624,-4377,92,74,909,1779,1833,1442,1684,1770,1648,2053,2389
657518,261680,254956,275248,275248,331,870,-121,-233,187,532,-184,-4420,99,84,914,1779,1833,1442,1684,1770,1648,2053,2389
658519,262164,255408,275716,275716,230,595,-142,-224,172,-135,326,-3734,91,81,912,1779,1833,1442,1684,1770,1648,2053,2389
659520,262616,255852,276184,276184,431,646,-182,-177,160,-315,-266,-3589,97,93,915,1718,1774,1406,1638,1782,1643,2039,2391
660521,263096,256260,276652,276652,255,872,-168,-158,142,-235,137,-3988,90,76,914,1718,1774,1406,1638,1782,1643,2039,2391
661522,263596,256696,277120,277120,130,698,-181,-108,123,-323,-456,-3522,100,88,912,1718,1774,1406,1638,1782,1643,2039,2391
662523,264080,257100,277588,277588,229,900,-113,-58,88,-874,142,-3893,102,86,915,1718,1774,1406,1638,1782,1643,2039,2391
663524,264540,257540,278056,278056,379,675,-94,-62,35,-808,141,-3729,101,77,912,1718,1774,1406,1638,1782,1643,2039,2391
664525,264956,257932,278528,278528,656,977,-42,-125,-21,-541,373,-3991,97,86,914,1656,1724,1376,1592,1822,1658,2058,2425
665526,265392,258316,278996,278996,532,1029,-56,-137,-55,-379,-235,-4013,100,90,907,1656,1724,1376,1592,1822,1658,2058,2425
666527,265844,258716,279464,279464,432,931,-60,-223,-84,-654,338,-4314,84,76,905,1656,1724,1376,1592,1822,1658,2058,2425
667528,266312,259148,279932,279932,332,732,-59,-213,-118,-930,-394,-4085,103,97,910,1656,1724,1376,1592,1822,1658,2058,2425
668529,266772,259544,280400,280400,382,959,-88,-170,-173,-779,-272,-3714,108,89,913,1656,1724,1376,1592,1822,1658,2058,2425
669530,267200,259928,280868,280868,583,1036,-32,-115,-198,-559,-377,-4275,103,82,910,1635,1717,1376,1592,1822,1658,2058,2425
670531,267616,260352,281336,281336,659,787,-46,-145,-190,-342,-299,-3912,91,94,907,1635,1717,1373,1583,1849,1678,2089,2473
671532,268036,260740,281804,281804,636,1014,-2,-96,-183,-214,-593,-3580,83,94,910,1635,1717,1373,1583,1849,1678,2089,2473
672533,268512,261204,282272,282272,285,539,33,-151,-180,-372,195,-4569,105,97,907,1635,1717,1373,1583,1849,1678,2089,2473
673534,268944,261588,282740,282740,561,1041,45,-160,-184,81,241,-3399,86,83,915,1635,1717,1373,1583,1849,1678,2089,2473
674535,269368,261996,283208,283208,612,892,58,-129,-178,-150,-17,-4753,96,93,907,1635,1717,1373,1583,1849,1678,2089,2473
675536,269788,262420,283676,283676,639,793,38,-156,-174,-177,299,-3982,92,99,909,1641,1734,1382,1598,1860,1699,2132,2512
676537,270176,262884,284144,284144,841,544,-23,-147,-145,22,-348,-4438,99,99,910,1641,1734,1382,1598,1860,1699,2132,2512
677538,270624,263332,284612,284612,466,644,-56,-109,-91,256,72,-4427,85,90,910,1641,1734,1382,1598,1860,1699,2132,2512
678539,271032,263756,285080,285080,717,795,-36,-46,-33,216,383,-4680,94,89,913,1641,1734,1382,1598,1860,1699,2132,2512
679540,271424,264208,285548,285548,819,620,-39,35,2,481,93,-4158,80,96,908,1641,1734,1382,1598,1860,1699,2132,2512
680541,271836,264620,286016,286016,696,872,-68,80,46,473,255,-4616,92,105,910,1676,1769,1396,1621,1880,1733,2185,2561
681542,272248,265144,286484,286484,697,170,-69,80,87,580,670,-4240,97,103,908,1676,1769,1396,1621,1880,1733,2185,2561
682543,272688,265620,286952,286952,523,470,9,127,124,837,483,-4975,95,101,914,1676,1769,1396,1621,1880,1733,2185,2561
683544,273148,266064,287420,287420,398,671,8,65,162,674,649,-4140,98,91,911,1676,1769,1396,1621,1880,1733,2185,2561
684545,273528,266572,287888,287888,900,270,2,41,185,186,534,-4740,81,97,913,1676,1769,1396,1621,1880,1733,2185,2561
685546,273956,267088,288356,288356,601,219,-27,85,173,164,140,-4569,94,93,912,1676,1769,1396,1621,1880,1733,2185,2561
686547,274356,267612,288824,288824,778,167,-37,89,156,1,611,-4635,83,102,915,1696,1784,1407,1641,1907,1756,2207,2574
687548,274788,268140,289292,289292,579,141,-20,166,174,197,368,-4395,87,92,914,1696,1784,1407,1641,1907,1756,2207,2574
688549,275264,268660,289760,289760,303,190,-53,214,160,455,32,-4489,84,96,916,1696,1784,1407,1641,1907,1756,2207,2574
689550,275724,269160,290228,290228,404,314,-79,213,125,-611,436,-4254,88,107,918,1696,1784,1407,1641,1907,1756,2207,2574
690551,276164,269772,290696,290696,529,-390,-63,206,94,-760,28,-4403,84,98,917,1696,1784,1407,1641,1907,1756,2207,2574
691552,276588,270328,291164,291164,630,-42,-5,174,45,-330,279,-4875,101,90,914,1701,1779,1410,1648,1925,1767,2204,2557
692553,277004,270920,291632,291632,682,-270,-18,202,31,125,454,-4112,83,92,916,1701,1779,1410,1648,1925,1767,2204,2557
693554,277472,271476,292100,292100,357,-47,-27,87,-20,-469,591,-4741,81,93,914,1701,1779,1410,1648,1925,1767,2204,2557
694555,277928,271956,292568,292568,432,428,-100,68,-90,-994,139,-4197,79,82,919,1701,1779,1410,1648,1925,1767,2204,2557
695556,278384,272476,293036,293036,432,176,-92,48,-135,-391,29,-4750,86,84,916,1701,1779,1410,1648,1925,1767,2204,2557
696557,278848,272992,293504,293504,382,200,-111,53,-107,67,-504,-4657,97,88,918,1701,1779,1410,1648,1925,1767,2204,2557
697558,279344,273548,293972,293972,182,-52,-102,40,-140,-838,-155,-3945,93,92,918,1686,1758,1406,1642,1924,1770,2192,2545
698559,279836,274068,294440,294440,206,172,-83,93,-227,-1059,-292,-4263,94,98,920,1686,1758,1406,1642,1924,1770,2192,2545
699560,280356,274580,294912,294912,30,221,-16,148,-272,-49,-527,-4296,85,84,919,1686,1758,1406,1642,1924,1770,2192,2545
700561,280816,275124,295380,295380,405,19,24,183,-240,-112,-307,-4350,103,84,918,1686,1758,1406,1642,1924,1770,2192,2545
701562,281304,275640,295848,295848,230,193,23,148,-219,-267,285,-3747,109,88,919,1686,1758,1406,1642,1924,1770,2192,2545
702563,281736,276116,296316,296316,580,443,33,85,-195,42,63,-3991,91,90,919,1655,1725,1388,1623,1897,1764,2167,2507
703564,282168,276596,296784,296784,581,417,1,38,-147,74,136,-3981,88,85,914,1655,1725,1388,1623,1897,1764,2167,2507
704565,282664,277152,297252,297252,181,-60,11,4,-125,-211,-157,-3867,93,84,915,1655,1725,1388,1623,1897,1764,2167,2507
705566,283108,277640,297720,297720,506,365,81,49,-126,-34,-48,-4273,95,97,920,1655,1725,1388,1623,1897,1764,2167,2507
706567,283592,278140,298188,298188,256,289,134,152,-108,389,-177,-3178,96,92,916,1655,1725,1388,1623,1897,1764,2167,2507
707568,284076,278612,298656,298656,255,464,158,255,-69,290,-153,-3475,98,95,918,1655,1725,1388,1623,1897,1764,2167,2507
708569,284536,279076,299124,299124,406,514,169,287,-26,81,-3,-3763,103,89,917,1649,1716,1381,1625,1867,1752,2153,2474
709570,285064,279600,299592,299592,-21,138,175,278,19,380,266,-3792,118,85,916,1649,1716,1381,1625,1867,1752,2153,2474
710571,285596,280076,300060,300060,-47,437,184,237,30,695,865,-3878,110,89,921,1649,1716,1381,1625,1867,1752,2153,2474
711572,286084,280512,300528,300528,227,688,170,204,29,614,646,-3662,111,95,918,1649,1716,1381,1625,1867,1752,2153,2474
712573,286552,280976,300996,300996,352,513,99,158,77,685,588,-3955,105,89,915,1649,1716,1381,1625,1867,1752,2153,2474
713574,287076,281504,301464,301464,1,112,35,104,184,631,349,-4296,106,88,916,1688,1746,1405,1678,1855,1758,2164,2471
714575,287576,282048,301932,301932,150,10,-22,195,205,226,329,-3442,103,105,921,1688,1746,1405,1678,1855,1758,2164,2471
715576,288116,282564,302400,302400,-102,184,-60,237,176,-373,246,-3992,115,89,921,1688,1746,1405,1678,1855,1758,2164,2471
716577,288664,283080,302868,302868,-154,183,-57,302,139,-246,686,-3946,114,97,920,1688,1746,1405,1678,1855,1758,2164,2471
717578,289192,283480,303336,303336,-30,909,-63,277,124,-255,417,-3971,116,96,917,1688,1746,1405,1678,1855,1758,2164,2471
718579,289720,284040,303804,303804,-32,-93,-65,196,122,-8,578,-4482,113,95,913,1688,1746,1405,1678,1855,1758,2164,2471
719580,290220,284468,304272,304272,143,733,-74,75,102,-297,461,-4476,97,102,920,1745,1791,1443,1735,1916,1821,2232,2552
720581,290740,285004,304740,304740,16,56,-85,51,67,-345,215,-4480,106,98,915,1745,1791,1443,1735,1916,1821,2232,2552
721582,291276,285496,305208,305208,-85,331,-68,38,29,-298,-18,-4699,100,85,921,1745,1791,1443,1735,1916,1821,2232,2552
722583,291816,286008,305676,305676,-112,205,-44,66,-31,-948,-204,-4405,103,91,919,1745,1791,1443,1735,1916,1821,2232,2552
723584,292280,286536,306144,306144,363,103,-22,104,-106,-847,-170,-4458,97,98,920,1745,1791,1443,1735,1916,1821,2232,2552
724585,292704,286992,306612,306612,614,554,58,49,-138,-504,-377,-4987,101,96,919,1797,1835,1496,1788,1984,1884,2294,2633
725586,293160,287484,307080,307080,414,328,87,25,-158,387,745,-4357,104,87,914,1797,1835,1496,1788,1984,1884,2294,2633
726587,293636,287980,307548,307548,289,302,141,-93,-231,-25,105,-4511,98,88,917,1797,1835,1496,1788,1984,1884,2294,2633
727588,294164,288440,308016,308016,-37,527,191,-255,-276,-527,184,-5478,95,88,918,1797,1835,1496,1788,1984,1884,2294,2633
728589,294656,288976,308484,308484,187,51,230,-219,-230,-337,-1264,-4293,107,84,918,1797,1835,1496,1788,1984,1884,2294,2633
729590,295144,289448,308952,308952,212,451,285,-208,-82,-595,-2320,-4493,104,79,921,1797,1835,1496,1788,1984,1884,2294,2633
730591,295652,289936,309420,309420,86,350,192,-91,-25,-30,-99,-4608,105,91,917,1854,1889,1540,1836,1968,1876,2287,2618
731592,296192,290444,309888,309888,-116,224,250,102,-103,1264,185,-4590,100,89,919,1854,1889,1540,1836,1968,1876,2287,2618
732593,296652,290968,310356,310356,384,123,237,212,-28,-124,-1152,-4634,99,81,920,1854,1889,1540,1836,1968,1876,2287,2618
733594,297100,291396,310824,310824,460,724,198,329,60,-127,496,-4106,100,76,919,1854,1889,1540,1836,1968,1876,2287,2618
734595,297552,291864,311296,311296,435,474,114,317,106,679,32,-4768,101,89,910,1854,1889,1540,1836,1968,1876,2287,2618
735596,298080,292284,311764,311764,-41,775,115,271,156,891,758,-5445,90,81,915,1923,1948,1565,1884,1912,1836,2245,2536
736597,298548,292760,312232,312232,334,425,93,358,118,1074,974,-3872,100,84,915,1923,1948,1565,1884,1912,1836,2245,2536
737598,298956,293268,312700,312700,710,224,69,191,108,216,234,-5994,87,92,916,1923,1948,1565,1884,1912,1836,2245,2536
738599,299368,293692,313168,313168,686,750,73,204,130,-194,71,-4305,95,91,915,1923,1948,1565,1884,1912,1836,2245,2536
739600,299824,294116,313636,313636,412,751,8,147,163,-490,-589,-4984,99,82,910,1923,1948,1565,1884,1912,1836,2245,2536
740601,300256,294580,314104,314104,563,501,-42,142,173,-83,729,-4700,87,95,912,1923,1948,1565,1884,1912,1836,2245,2536
741602,300760,295008,314572,314572,112,727,-83,132,153,391,106,-4655,89,94,914,1943,1940,1560,1894,1869,1799,2187,2455
742603,301204,295500,315040,315040,487,327,-69,96,153,-445,409,-4205,108,90,914,1943,1940,1560,1894,1869,1799,2187,2455
743604,301668,295924,315508,315508,362,753,-54,61,137,-1172,575,-4407,95,89,916,1943,1940,1560,1894,1869,1799,2187,2455
744605,302084,296368,315976,315976,664,628,5,-9,114,-978,374,-4595,91,81,913,1943,1940,1560,1894,1869,1799,2187,2455
745606,302536,296816,316444,316444,439,604,15,-77,102,-338,128,-4641,89,107,912,1943,1940,1560,1894,1869,1799,2187,2455
746607,302996,297320,316912,316912,389,253,-4,-139,124,-493,232,-4158,101,108,914,1893,1882,1520,1840,1833,1759,2129,2393
747608,303520,297760,317380,317380,-12,654,-64,-148,85,221,-226,-4289,93,94,918,1893,1882,1520,1840,1833,1759,2129,2393
748609,303968,298184,317848,317848,463,755,-54,-105,50,-8,44,-4140,105,96,916,1893,1882,1520,1840,1833,1759,2129,2393
749610,304432,298644,318316,318316,363,530,-47,-144,35,-216,446,-3881,101,112,913,1893,1882,1520,1840,1833,1759,2129,2393
750611,304896,299076,318784,318784,364,706,-14,-117,26,360,20,-3633,89,112,915,1893,1882,1520,1840,1833,1759,2129,2393
751612,305340,299592,319252,319252,489,179,-35,-104,20,828,76,-3883,93,98,911,1893,1882,1520,1840,1833,1759,2129,2393
752613,305812,300072,319720,319720,314,404,-24,-123,-2,92,196,-3881,93,91,917,1835,1830,1487,1783,1798,1721,2078,2354
753614,306244,300536,320188,320188,565,504,18,-135,-41,12,440,-3694,94,110,917,1835,1830,1487,1783,1798,1721,2078,2354
754615,306724,301044,320656,320656,265,228,-12,-170,-85,747,-356,-3939,91,108,914,1835,1830,1487,1783,1798,1721,2078,2354
755616,307144,301568,321124,321124,641,127,19,-202,-93,812,340,-3803,92,98,919,1835,1830,1487,1783,1798,1721,2078,2354
756617,307592,302000,321592,321592,466,703,-58,-142,-113,1115,-321,-3550,100,98,916,1835,1830,1487,1783,1798,1721,2078,2354
757618,308068,302480,322060,322060,291,403,-36,-153,-154,545,117,-3549,89,108,913,1801,1806,1475,1755,1783,1706,2060,2360
758619,308516,302896,322528,322528,467,804,-68,-83,-167,1003,-246,-3477,79,97,917,1801,1806,1475,1755,1783,1706,2060,2360
759620,308944,303376,322996,322996,593,404,-26,-53,-174,2085,-605,-3784,93,102,912,1801,1806,1475,1755,1783,1706,2060,2360
760621,309376,303872,323464,323464,568,303,9,-17,-142,1558,10,-3920,90,92,914,1801,1806,1475,1755,1783,1706,2060,2360
761622,309792,304360,323932,323932,670,352,43,44,-94,528,-721,-3299,82,105,916,1801,1806,1475,1755,1783,1706,2060,2360
762625,310224,304788,324400,324400,571,728,81,108,-108,498,-46,-3930,92,93,914,1801,1806,1475,1755,1783,1706,2060,2360
763624,310680,305256,324868,324868,421,478,27,43,-120,978,216,-4133,82,94,911,1802,1814,1484,1765,1798,1722,2087,2389
764625,311124,305768,325336,325336,496,202,-17,10,-75,723,-77,-4615,90,93,915,1802,1814,1484,1765,1798,1722,2087,2389
765626,311516,306356,325804,325804,823,-276,-101,41,-7,447,-310,-3981,91,99,917,1802,1814,1484,1765,1798,1722,2087,2389
767628,312356,307268,326740,326740,526,475,-138,65,131,-769,-494,-4155,82,101,910,1802,1814,1484,1765,1798,1722,2087,2389
768629,312792,307740,327208,327208,551,450,-140,88,188,-692,-58,-4251,74,102,913,1837,1846,1506,1806,1848,1774,2157,2464
769630,313224,308236,327680,327680,577,299,-146,41,216,-303,-31,-4822,90,104,914,1837,1846,1506,1806,1848,1774,2157,2464
770631,313632,308792,328148,328148,729,-78,-117,23,247,-677,66,-4758,95,92,915,1837,1846,1506,1806,1848,1774,2157,2464
771632,314052,309344,328616,328616,655,-55,-120,-86,248,-1051,166,-5038,97,94,915,1837,1846,1506,1806,1848,1774,2157,2464
772633,314456,309772,329084,329084,757,721,-98,-231,236,-1158,246,-5295,89,92,916,1837,1846,1506,1806,1848,1774,2157,2464
773634,314868,310296,329552,329552,708,120,-99,-361,226,-1097,314,-4894,79,100,910,1837,1846,1506,1806,1848,1774,2157,2464
774635,315252,310820,330020,330020,885,118,-85,-452,237,-806,-436,-5657,91,89,915,1852,1864,1524,1824,1926,1827,2218,2536
775636,315660,311400,330488,330488,737,-234,-59,-397,245,-1072,84,-4140,98,89,914,1852,1864,1524,1824,1926,1827,2218,2536
776637,316076,311884,330956,330956,688,365,2,-389,176,-1485,355,-4853,100,89,914,1852,1864,1524,1824,1926,1827,2218,2536
777638,316476,312352,331424,331424,789,465,36,-427,79,-1080,-107,-4137,83,105,914,1852,1864,1524,1824,1926,1827,2218,2536
778639,316904,312864,331892,331892,615,189,51,-422,19,-840,-281,-4141,85,93,911,1852,1864,1524,1824,1926,1827,2218,2536
779640,317376,313364,332360,332360,340,263,95,-434,-10,-285,-69,-4914,98,81,916,1843,1865,1511,1793,1927,1810,2214,2540
780641,317796,313852,332828,332828,666,338,176,-561,-100,-124,958,-4803,102,81,918,1843,1865,1511,1793,1927,1810,2214,2540
781642,318256,314356,333296,333296,417,237,172,-644,-210,7,371,-4943,93,97,915,1843,1865,1511,1793,1927,1810,2214,2540
782643,318668,314800,333764,333764,718,612,155,-735,-294,717,589,-4897,96,85,917,1843,1865,1511,1793,1927,1810,2214,2540
783644,319112,315272,334232,334232,519,437,183,-751,-332,640,870,-5235,84,90,911,1843,1865,1511,1793,1927,1810,2214,2540
784645,319576,315760,334700,334700,394,337,116,-605,-356,800,268,-3834,91,86,915,1843,1865,1511,1793,1927,1810,2214,2540
785646,320060,316200,335168,335168,268,638,79,-378,-359,828,390,-4572,96,78,914,1843,1883,1491,1759,1846,1724,2142,2474
786647,320516,316668,335636,335636,444,463,30,-190,-372,887,526,-3659,105,93,914,1843,1883,1491,1759,1846,1724,2142,2474
787648,320984,317112,336104,336104,369,613,30,-25,-338,846,598,-4324,88,93,915,1843,1883,1491,1759,1846,1724,2142,2474
788649,321488,317584,336572,336572,143,438,-7,92,-280,1355,74,-3833,97,80,914,1843,1883,1491,1759,1846,1724,2142,2474
789650,321964,318044,337040,337040,318,513,-28,137,-217,1577,641,-4676,103,76,918,1843,1883,1491,1759,1846,1724,2142,2474
790651,322512,318500,337508,337508,-134,539,-58,106,-135,1124,614,-4641,105,76,916,1812,1866,1461,1715,1789,1674,2082,2414
791652,322984,318952,337976,337976,341,564,-87,-25,-60,707,412,-4702,87,92,917,1812,1866,1461,1715,1789,1674,2082,2414
792653,323460,319356,338444,338444,315,866,-100,-92,34,284,266,-4427,98,91,915,1812,1866,1461,1715,1789,1674,2082,2414
793654,323928,319804,338912,338912,365,591,-102,-41,120,258,-291,-3738,104,74,912,1812,1866,1461,1715,1789,1674,2082,2414
794655,324380,320224,339380,339380,466,767,-120,54,200,318,-260,-3681,96,87,914,1812,1866,1461,1715,1789,1674,2082,2414
795656,324876,320640,339848,339848,190,793,-126,137,264,226,-687,-3953,92,74,912,1812,1866,1461,1715,1789,1674,2082,2414
796657,325420,321052,340316,340316,-112,820,-95,135,309,-230,15,-3990,87,82,913,1744,1796,1424,1659,1772,1651,2042,2384
797658,325892,321520,340784,340784,338,470,-88,86,342,-130,-787,-4158,89,91,913,1744,1796,1424,1659,1772,1651,2042,2384
798659,326372,321940,341252,341252,288,771,-84,-71,370,-285,150,-4288,107,81,916,1744,1796,1424,1659,1772,1651,2042,2384
799660,326812,322384,341720,341720,538,622,-46,-140,375,-608,-155,-4267,94,73,913,1744,1796,1424,1659,1772,1651,2042,2384
800661,327328,322760,342188,342188,62,1049,-41,-198,354,-664,-274,-3904,105,77,913,1744,1796,1424,1659,1772,1651,2042,2384
801662,327780,323164,342656,342656,463,875,1,-179,358,-1036,-303,-3519,90,88,911,1676,1735,1395,1615,1794,1642,2020,2369
802663,328256,323600,343124,343124,312,676,5,-133,321,-752,-702,-3901,97,73,908,1676,1735,1395,1615,1794,1642,2020,2369
803664,328736,323992,343592,343592,287,953,-8,-41,244,-956,-338,-3196,93,79,914,1676,1735,1395,1615,1794,1642,2020,2369
804665,329216,324372,344064,344064,287,1030,17,-112,174,-1200,-54,-4194,92,75,911,1676,1735,1395,1615,1794,1642,2020,2369
805666,329668,324764,344532,344532,462,957,15,-48,91,-671,-416,-3752,94,93,910,1676,1735,1395,1615,1794,1642,2020,2369
806667,330200,325156,345000,345000,-39,959,-7,-85,-13,-750,279,-3869,112,87,909,1676,1735,1395,1615,1794,1642,2020,2369
807668,330624,325600,345468,345468,637,635,1,-60,-121,-702,295,-4086,95,84,911,1647,1713,1378,1599,1802,1634,2016,2366
808669,331060,326020,345936,345936,563,786,29,-177,-187,-363,7,-4369,103,82,911,1647,1713,1378,1599,1802,1634,2016,2366
809670,331532,326408,346404,346404,338,988,-41,-169,-251,-400,-3,-3380,90,86,911,1647,1713,1378,1599,1802,1634,2016,2366
810672,331984,326812,346872,346872,463,889,-63,-291,-306,-932,280,-4718,108,95,910,1647,1713,1378,1599,1802,1634,2016,2366
811672,332452,327268,347340,347340,363,565,-30,-306,-380,-566,-93,-3860,111,93,910,1647,1713,1378,1599,1802,1634,2016,2366
812673,332904,327640,347808,347808,463,1092,-14,-315,-407,-308,-656,-4232,88,96,914,1653,1723,1380,1603,1807,1648,2054,2417
813674,333320,328068,348276,348276,690,743,-81,-240,-378,-163,46,-3394,86,91,908,1653,1723,1380,1603,1807,1648,2054,2417
814675,333748,328472,348744,348744,616,894,-72,-153,-337,165,-473,-4306,82,91,910,1653,1723,1380,1603,1807,1648,2054,2417
815676,334164,328892,349212,349212,692,796,-87,-94,-297,388,507,-3917,96,104,909,1653,1723,1380,1603,1807,1648,2054,2417
816677,334668,329368,349680,349680,141,445,-58,-11,-300,602,401,-3983,95,99,908,1653,1723,1380,1603,1807,1648,2054,2417
817678,335076,329796,350148,350148,742,746,-96,-6,-249,671,274,-4447,95,99,916,1653,1723,1380,1603,1807,1648,2054,2417
818679,335484,330232,350616,350616,744,697,-154,3,-167,504,268,-4373,84,105,910,1670,1752,1392,1617,1827,1691,2121,2490
819680,335904,330660,351084,351084,670,748,-185,-33,-64,455,63,-4345,101,107,908,1670,1752,1392,1617,1827,1691,2121,2490
820681,336324,331144,351552,351552,671,398,-138,42,13,592,-88,-4621,102,93,909,1670,1752,1392,1617,1827,1691,2121,2490
821682,336724,331696,352020,352020,798,-29,-91,23,71,430,328,-4533,87,97,912,1670,1752,1392,1617,1827,1691,2121,2490
822683,337172,332160,352488,352488,498,521,-56,97,151,676,-128,-4095,87,112,914,1670,1752,1392,1617,1827,1691,2121,2490
823684,337596,332656,352956,352956,650,320,-10,120,225,765,113,-4714,91,106,914,1680,1764,1400,1631,1873,1742,2184,2552
824685,338008,333188,353424,353424,726,94,15,199,264,427,613,-4293,88,97,914,1680,1764,1400,1631,1873,1742,2184,2552
825686,338452,333736,353892,353892,526,-8,41,156,263,552,387,-4542,91,102,915,1680,1764,1400,1631,1873,1742,2184,2552
826687,338864,334268,354360,354360,728,90,50,150,277,60,514,-4556,91,108,917,1680,1764,1400,1631,1873,1742,2184,2552
827688,339324,334880,354828,354828,428,-413,37,169,267,-298,438,-4303,86,100,914,1680,1764,1400,1631,1873,1742,2184,2552
828689,339740,335360,355296,355296,704,411,-18,203,225,-218,155,-4559,79,87,914,1680,1764,1400,1631,1873,1742,2184,2552
829690,340148,335888,355764,355764,756,110,1,211,201,-402,552,-4561,82,93,913,1703,1782,1416,1662,1905,1764,2201,2547
830691,340596,336476,356232,356232,506,-268,-41,267,194,-14,53,-4460,91,103,914,1703,1782,1416,1662,1905,1764,2201,2547
831692,341024,336964,356700,356700,632,356,-69,224,138,-454,75,-4451,92,104,915,1703,1782,1416,1662,1905,1764,2201,2547
832693,341520,337476,357168,357168,207,205,-106,197,76,-1035,260,-4521,78,93,914,1703,1782,1416,1662,1905,1764,2201,2547
833694,341960,338008,357636,357636,557,79,-86,112,19,-809,177,-4649,85,88,919,1703,1782,1416,1662,1905,1764,2201,2547
834695,342396,338612,358104,358104,583,-375,-101,117,-9,-364,251,-4453,90,95,917,1723,1787,1425,1679,1936,1787,2218,2558
835696,342832,339160,358572,358572,584,-27,-115,87,-54,-317,508,-4509,86,100,913,1723,1787,1425,1679,1936,1787,2218,2558
836697,343288,339628,359040,359040,459,473,-159,37,-129,-912,352,-4676,80,96,913,1723,1787,1425,1679,1936,1787,2218,2558
837698,343760,340120,359508,359508,359,323,-153,22,-196,-468,55,-4742,87,85,914,1723,1787,1425,1679,1936,1787,2218,2558
838699,344232,340648,359976,359976,359,96,-147,29,-184,-127,-314,-5095,88,83,917,1723,1787,1425,1679,1936,1787,2218,2558
839700,344696,341232,360448,360448,409,-256,-187,21,-187,-203,-335,-3947,91,91,919,1723,1787,1425,1679,1936,1787,2218,2558
840701,345208,341688,360916,360916,108,544,-163,-31,-230,-946,-148,-4208,87,99,916,1705,1764,1416,1665,1948,1811,2230,2583
841702,345692,342184,361384,361384,283,293,-102,-3,-252,-484,-433,-4492,98,87,916,1705,1764,1416,1665,1948,1811,2230,2583
842703,346192,342696,361852,361852,182,192,-17,25,-226,44,-547,-4029,98,82,918,1705,1764,1416,1665,1948,1811,2230,2583
843704,346660,343208,362320,362320,382,191,32,71,-188,-152,-188,-4002,98,94,920,1705,1764,1416,1665,1948,1811,2230,2583
844705,347156,343720,362788,362788,206,190,79,39,-154,167,135,-3881,87,98,918,1705,1764,1416,1665,1948,1811,2230,2583
845706,347580,344176,363256,363256,657,540,78,43,-105,908,212,-3795,101,89,919,1663,1727,1389,1637,1931,1810,2218,2556
846707,348004,344644,363724,363724,658,465,78,9,-57,672,43,-4502,100,87,913,1663,1727,1389,1637,1931,1810,2218,2556
847708,348472,345112,364192,364192,383,465,74,3,-60,475,292,-3958,109,91,913,1663,1727,1389,1637,1931,1810,2218,2556
848709,348988,345640,364660,364660,82,89,109,54,-43,677,-125,-4053,114,90,916,1663,1727,1389,1637,1931,1810,2218,2556
849710,349480,346112,365128,365128,232,439,121,239,-47,1203,440,-3149,95,95,920,1663,1727,1389,1637,1931,1810,2218,2556
850711,349968,346544,365596,365596,256,690,129,279,-8,800,230,-4145,111,96,917,1663,1727,1389,1637,1931,1810,2218,2556
851712,350444,347060,366064,366064,331,163,113,383,20,784,794,-3214,105,86,914,1665,1728,1387,1645,1898,1789,2199,2514
852713,350952,347468,366532,366532,130,840,106,320,58,583,616,-4450,118,97,918,1665,1728,1387,1645,1898,1789,2199,2514
853714,351512,348028,367000,367000,-197,-112,80,280,43,794,1181,-3231,99,93,911,1665,1728,1387,1645,1898,1789,2199,2514
854715,351976,348512,367468,367468,403,362,72,208,53,461,442,-4413,98,93,918,1665,1728,1387,1645,1898,1789,2199,2514
855716,352468,349012,367936,367936,227,262,36,162,115,215,581,-4001,120,83,917,1665,1728,1387,1645,1898,1789,2199,2514
856717,353008,349512,368404,368404,-75,261,-3,186,163,313,309,-3952,104,102,919,1695,1746,1407,1687,1902,1804,2213,2517
857718,353492,349984,368872,368872,275,436,-38,279,142,-441,365,-3814,103,103,919,1695,1746,1407,1687,1902,1804,2213,2517
858719,354000,350536,369340,369340,124,-66,-44,313,102,-857,503,-4026,110,90,917,1695,1746,1407,1687,1902,1804,2213,2517
859720,354600,351040,369808,369808,-454,233,-36,312,60,-841,282,-3887,120,89,920,1695,1746,1407,1687,1902,1804,2213,2517
860721,355152,351508,370276,370276,-156,458,-16,236,18,-474,393,-4344,105,85,916,1695,1746,1407,1687,1902,1804,2213,2517
861722,355640,351976,370744,370744,243,458,8,121,-3,-464,453,-4561,94,93,917,1695,1746,1407,1687,1902,1804,2213,2517
862723,356104,352460,371212,371212,393,357,6,19,-13,-797,313,-4571,106,91,917,1732,1776,1446,1734,1957,1856,2260,2574
863724,356612,352980,371680,371680,117,131,7,-48,-18,-1130,76,-4825,114,82,917,1732,1776,1446,1734,1957,1856,2260,2574
864725,357180,353440,372148,372148,-260,506,-27,-76,-83,-1182,-208,-4132,117,83,920,1732,1776,1446,1734,1957,1856,2260,2574
865726,357612,353888,372616,372616,591,582,14,-103,-137,-1234,-416,-4918,110,95,916,1732,1776,1446,1734,1957,1856,2260,2574
866727,358020,354412,373084,373084,742,105,90,-123,-148,-1117,-529,-4631,96,89,913,1732,1776,1446,1734,1957,1856,2260,2574
867728,358600,354816,373552,373552,-335,857,170,-171,-99,-424,299,-4492,112,79,915,1774,1812,1486,1775,1983,1886,2286,2618
868729,359108,355360,374020,374020,114,-20,209,-255,-152,233,0,-3757,116,86,911,1774,1812,1486,1775,1983,1886,2286,2618
869730,359612,355900,374488,374488,138,3,265,-447,-157,-1113,-139,-5282,96,75,920,1774,1812,1486,1775,1983,1886,2286,2618
870731,360120,356384,374956,374956,112,353,310,-325,-213,1075,-135,-4194,94,92,919,1774,1812,1486,1775,1983,1886,2286,2618
871732,360556,356796,375424,375424,562,804,315,-113,-59,-346,-1895,-5198,103,86,918,1774,1812,1486,1775,1983,1886,2286,2618
872733,361068,357292,375892,375892,86,279,245,-26,22,-255,750,-3846,106,79,911,1774,1812,1486,1775,1983,1886,2286,2618
873734,361588,357704,376360,376360,35,805,187,142,40,727,-179,-4745,106,82,919,1834,1875,1523,1818,1934,1843,2247,2566
874735,362048,358204,376832,376832,410,254,207,188,52,1685,-623,-4929,105,92,915,1834,1875,1523,1818,1934,1843,2247,2566
875736,362548,358620,377300,377300,160,781,173,282,92,551,296,-3901,89,83,917,1834,1875,1523,1818,1934,1843,2247,2566
876737,362988,359124,377768,377768,535,230,160,272,108,436,-198,-4767,97,84,914,1834,1875,1523,1818,1934,1843,2247,2566
877738,363472,359516,378236,378236,260,932,134,292,136,1051,323,-4557,103,91,916,1834,1875,1523,1818,1934,1843,2247,2566
878739,363916,360016,378704,378704,511,256,54,280,145,1166,371,-4459,86,79,912,1896,1914,1542,1856,1878,1801,2195,2484
879740,364372,360420,379172,379172,436,857,21,228,138,60,596,-4784,96,83,916,1896,1914,1542,1856,1878,1801,2195,2484
880741,364820,360852,379640,379640,486,683,23,123,129,-685,-375,-4778,91,97,911,1896,1914,1542,1856,1878,1801,2195,2484
881742,365288,361324,380108,380108,361,433,27,57,121,-295,-633,-4598,105,83,912,1896,1914,1542,1856,1878,1801,2195,2484
882743,365716,361756,380576,380576,612,684,27,73,180,-365,-26,-4178,90,89,916,1896,1914,1542,1856,1878,1801,2195,2484
883744,366132,362184,381044,381044,689,710,-46,157,193,-371,-625,-4283,87,91,912,1896,1914,1542,1856,1878,1801,2195,2484
884745,366608,362632,381512,381512,313,585,-58,139,137,-595,793,-4451,91,92,911,1908,1904,1537,1856,1849,1777,2158,2434
885746,367080,363136,381980,381980,338,235,-45,107,105,153,34,-4076,103,101,914,1908,1904,1537,1856,1849,1777,2158,2434
886747,367544,363568,382448,382448,388,685,-55,20,93,353,223,-4818,88,96,918,1908,1904,1537,1856,1849,1777,2158,2434
887748,367988,364036,382916,382916,514,460,-94,-85,103,-232,435,-4170,104,106,911,1908,1904,1537,1856,1849,1777,2158,2434
888749,368480,364524,383384,383384,213,335,-126,-142,92,-386,238,-4330,102,96,915,1908,1904,1537,1856,1849,1777,2158,2434
889750,368924,364932,383852,383852,514,836,-164,-120,61,213,-4,-3793,107,101,918,1873,1867,1511,1821,1839,1768,2140,2424
890751,369380,365468,384320,384320,439,35,-141,-99,43,-153,-38,-4508,100,97,911,1873,1867,1511,1821,1839,1768,2140,2424
892753,370344,366332,385256,385256,514,587,-70,-71,1,119,-608,-3818,94,100,915,1873,1867,1511,1821,1839,1768,2140,2424
893754,370824,366844,385724,385724,288,185,-34,-17,-35,454,44,-3423,99,104,914,1873,1867,1511,1821,1839,1768,2140,2424
894755,371232,367312,386192,386192,740,460,-19,-39,-96,321,673,-3928,102,103,918,1828,1831,1491,1785,1846,1769,2139,2433
895756,371660,367888,386660,386660,616,-217,-15,-67,-186,1303,95,-3963,89,106,913,1828,1831,1491,1785,1846,1769,2139,2433
896757,372160,368320,387128,387128,165,684,10,-50,-193,1167,331,-3601,94,101,915,1828,1831,1491,1785,1846,1769,2139,2433
897758,372636,368796,387596,387596,315,408,-12,-32,-172,1045,187,-4463,89,92,915,1828,1831,1491,1785,1846,1769,2139,2433
898759,373092,369272,388064,388064,440,408,-27,-45,-193,886,437,-3814,101,93,917,1828,1831,1491,1785,1846,1769,2139,2433
899760,373512,369756,388532,388532,666,358,-39,-16,-210,919,211,-4190,89,107,916,1828,1831,1491,1785,1846,1769,2139,2433
900761,373952,370236,389000,389000,542,383,-64,-37,-199,1087,-135,-4440,96,105,914,1827,1835,1497,1792,1854,1782,2156,2458
901762,374460,370660,389468,389468,116,734,-30,22,-141,706,-106,-4024,95,103,915,1827,1835,1497,1792,1854,1782,2156,2458
902763,374868,371120,389936,389936,742,509,-24,77,-56,-135,153,-4519,89,102,915,1827,1835,1497,1792,1854,1782,2156,2458
903764,375308,371640,390404,390404,543,133,-42,102,-36,-174,293,-3914,100,87,913,1827,1835,1497,1792,1854,1782,2156,2458
904765,375732,372156,390872,390872,644,156,-65,136,-5,-39,160,-4607,95,96,914,1827,1835,1497,1792,1854,1782,2156,2458
905766,376156,372620,391340,391340,645,482,-82,118,63,279,307,-4853,87,103,916,1831,1844,1506,1808,1880,1809,2186,2489
906767,376584,373076,391808,391808,621,532,-107,123,131,90,-13,-4611,77,104,913,1831,1844,1506,1808,1880,1809,2186,2489
907768,377048,373532,392276,392276,396,532,-125,148,199,-195,36,-4566,75,92,913,1831,1844,1506,1808,1880,1809,2186,2489
908769,377448,374000,392744,392744,798,457,-150,104,246,-171,-236,-4774,91,97,915,1831,1844,1506,1808,1880,1809,2186,2489
909770,377892,374628,393216,393216,524,-547,-136,31,267,-520,-318,-5008,82,106,912,1831,1844,1506,1808,1880,1809,2186,2489
910771,378296,375116,393684,393684,775,328,-109,-28,286,-847,-352,-4807,84,91,911,1831,1844,1506,1808,1880,1809,2186,2489
911772,378716,375632,394152,394152,676,152,-61,-93,296,-894,-99,-4794,82,97,913,1829,1836,1511,1808,1925,1838,2210,2522
912773,379148,376104,394620,394620,602,427,-25,-71,289,-939,-344,-4260,87,94,915,1829,1836,1511,1808,1925,1838,2210,2522
913774,379576,376640,395088,395088,628,25,10,-121,262,-1299,-100,-4628,82,89,914,1829,1836,1511,1808,1925,1838,2210,2522
914775,380016,377164,395556,395556,554,99,53,-208,226,-960,-29,-5047,83,93,916,1829,1836,1511,1808,1925,1838,2210,2522
915776,380392,377636,396024,396024,956,423,100,-291,161,-857,-434,-4792,81,96,917,1829,1836,1511,1808,1925,1838,2210,2522
916777,380768,378108,396492,396492,958,423,84,-447,111,-1285,73,-5081,79,99,910,1806,1816,1494,1785,1918,1807,2176,2476
917778,381224,378604,396960,396960,459,273,83,-475,64,-450,-454,-4121,88,82,910,1806,1816,1494,1785,1918,1807,2176,2476
918779,381648,379112,397428,397428,660,197,107,-440,11,31,-33,-4525,96,84,916,1806,1816,1494,1785,1918,1807,2176,2476
919780,382036,379588,397896,397896,887,396,99,-402,-124,-243,432,-3750,84,88,916,1806,1816,1494,1785,1918,1807,2176,2476
920781,382472,380092,398364,398364,587,221,121,-333,-218,-28,-393,-4041,97,90,911,1806,1816,1494,1785,1918,1807,2176,2476
921782,382920,380540,398832,398832,513,571,111,-297,-257,741,502,-4172,90,91,914,1806,1816,1494,1785,1918,1807,2176,2476
922783,383344,380984,399300,399300,664,597,100,-267,-323,790,943,-3750,91,76,913,1792,1811,1467,1745,1844,1739,2119,2412
923784,383824,381484,399768,399768,314,246,70,-217,-378,898,673,-4798,99,76,911,1792,1811,1467,1745,1844,1739,2119,2412
924785,384264,381916,400236,400236,564,672,42,-296,-405,954,719,-4743,102,85,918,1792,1811,1467,1745,1844,1739,2119,2412
925786,384716,382392,400704,400704,490,397,3,-210,-391,624,619,-4414,86,93,912,1792,1811,1467,1745,1844,1739,2119,2412
926787,385148,382812,401172,401172,616,748,-70,-170,-337,622,535,-4616,84,90,915,1792,1811,1467,1745,1844,1739,2119,2412
927788,385612,383320,401640,401640,416,197,-102,-21,-291,796,238,-4021,92,83,911,1775,1801,1441,1711,1786,1692,2071,2373
928789,386112,383768,402108,402108,190,572,-156,92,-214,585,61,-4023,96,86,917,1775,1801,1441,1711,1786,1692,2071,2373
929790,386592,384240,402576,402576,315,422,-164,193,-132,330,40,-3761,105,74,916,1775,1801,1441,1711,1786,1692,2071,2373
930791,387080,384664,403044,403044,264,723,-182,235,-54,444,82,-3779,91,80,917,1775,1801,1441,1711,1786,1692,2071,2373
931792,387584,385076,403512,403512,163,800,-191,196,39,373,183,-4338,98,81,914,1775,1801,1441,1711,1786,1692,2071,2373
932793,388076,385540,403980,403980,238,475,-212,154,115,428,-31,-4290,103,74,913,1775,1801,1441,1711,1786,1692,2071,2373
933794,388640,385960,404448,404448,-215,751,-201,10,172,337,-41,-5111,94,83,917,1709,1742,1405,1662,1789,1700,2064,2376
934795,389104,386396,404916,404916,411,652,-189,-92,211,-130,-98,-4325,93,81,914,1709,1742,1405,1662,1789,1700,2064,2376
935796,389560,386824,405384,405384,461,703,-188,-97,265,103,-707,-3657,105,83,914,1709,1742,1405,1662,1789,1700,2064,2376
936797,390048,387236,405852,405852,260,804,-175,41,315,378,-848,-3080,111,84,913,1709,1742,1405,1662,1789,1700,2064,2376
937800,390488,387696,406320,406320,561,504,-168,137,371,-126,-702,-3169,93,85,912,1709,1742,1405,1662,1789,1700,2064,2376
938799,390956,388108,406788,406788,386,806,-135,154,405,-534,-641,-3882,103,73,911,1639,1677,1372,1615,1828,1718,2079,2401
939800,391476,388512,407256,407256,60,857,-72,92,372,-483,-72,-4214,107,87,912,1639,1677,1372,1615,1828,1718,2079,2401
940801,392024,388904,407724,407724,-117,934,15,5,331,-258,-173,-4021,110,79,913,1639,1677,1372,1615,1828,1718,2079,2401
941802,392508,389332,408192,408192,282,710,29,-34,304,89,-219,-4056,99,74,911,1639,1677,1372,1615,1828,1718,2079,2401
942803,392956,389728,408660,408660,508,912,14,-114,282,-547,182,-4067,102,80,913,1639,1677,1372,1615,1828,1718,2079,2401
943804,393396,390116,409128,409128,559,964,-15,-121,241,-599,75,-3787,91,91,909,1639,1677,1372,1615,1828,1718,2079,2401
944805,393952,390492,409600,409600,-168,1041,-8,-76,170,-168,-423,-4453,109,92,908,1618,1661,1362,1609,1861,1726,2093,2411
945806,394436,390888,410068,410068,281,918,2,-3,78,-491,178,-3703,109,85,909,1618,1661,1362,1609,1861,1726,2093,2411
946807,394892,391304,410536,410536,456,794,38,-23,-2,-786,374,-4259,108,79,911,1618,1661,1362,1609,1861,1726,2093,2411
947808,395380,391712,411004,411004,256,845,44,-21,-105,-204,357,-3471,92,89,911,1618,1661,1362,1609,1861,1726,2093,2411
948809,395800,392104,411472,411472,682,947,41,-19,-210,-171,387,-4027,95,93,912,1618,1661,1362,1609,1861,1726,2093,2411
949810,396308,392492,411940,411940,131,974,50,-105,-274,-506,1466,-4368,106,82,908,1632,1676,1366,1625,1879,1744,2130,2438
950811,396776,392912,412408,412408,381,775,40,-134,-307,-83,365,-4197,103,82,911,1632,1676,1366,1625,1879,1744,2130,2438
951812,397200,393336,412876,412876,657,752,28,-232,-347,-279,605,-4978,91,84,912,1632,1676,1366,1625,1879,1744,2130,2438
952813,397632,393756,413344,413344,608,778,-31,-161,-396,-210,626,-3474,107,99,911,1632,1676,1366,1625,1879,1744,2130,2438
953814,398088,394168,413812,413812,458,829,-35,-172,-391,-194,-31,-5425,111,104,910,1632,1676,1366,1625,1879,1744,2130,2438
954815,398544,394596,414280,414280,459,730,-67,-116,-386,-80,835,-3484,102,99,911,1632,1676,1366,1625,1879,1744,2130,2438
955816,399000,395056,414748,414748,459,530,-59,-48,-343,175,-190,-4856,86,84,909,1663,1710,1388,1652,1888,1776,2177,2497
956817,399460,395456,415216,415216,434,907,-135,3,-263,714,454,-3697,93,89,914,1663,1710,1388,1652,1888,1776,2177,2497
957818,399868,395864,415684,415684,761,858,-132,-14,-177,296,448,-5032,98,107,911,1663,1710,1388,1652,1888,1776,2177,2497
958819,400304,396336,416152,416152,586,458,-122,-22,-116,306,368,-4490,99,91,907,1663,1710,1388,1652,1888,1776,2177,2497
959820,400748,396812,416620,416620,537,433,-184,-86,-83,341,4,-4448,90,93,913,1663,1710,1388,1652,1888,1776,2177,2497
960821,401196,397324,417088,417088,512,207,-181,-111,-31,259,124,-4672,84,85,914,1673,1725,1399,1660,1931,1827,2227,2572
961822,401596,397824,417556,417556,814,281,-173,-111,72,546,-551,-4520,89,103,916,1673,1725,1399,1660,1931,1827,2227,2572
962823,402028,398296,418024,418024,615,456,-136,-79,165,193,-312,-4525,99,97,913,1673,1725,1399,1660,1931,1827,2227,2572
963824,402456,398808,418492,418492,641,205,-80,-48,188,99,-158,-4159,86,93,913,1673,1725,1399,1660,1931,1827,2227,2572
964825,402852,399428,418960,418960,843,-474,-3,-37,213,370,-850,-4612,89,90,915,1673,1725,1399,1660,1931,1827,2227,2572
965826,403316,399952,419428,419428,418,125,59,-34,253,594,-215,-4082,79,107,910,1673,1725,1399,1660,1931,1827,2227,2572
966827,403764,400484,419896,419896,518,73,118,-62,298,316,-35,-4626,97,96,916,1662,1717,1401,1655,1970,1854,2251,2589
967828,404188,401000,420364,420364,669,172,167,15,276,310,222,-4143,85,83,917,1662,1717,1401,1655,1970,1854,2251,2589
968829,404576,401536,420832,420832,896,46,173,18,210,-295,-128,-4671,91,92,915,1662,1717,1401,1655,1970,1854,2251,2589
969830,405008,402064,421300,421300,622,94,170,19,153,-350,265,-4518,83,96,913,1662,1717,1401,1655,1970,1854,2251,2589
970831,405428,402612,421768,421768,698,-33,156,-55,138,82,-254,-4842,98,104,916,1662,1717,1401,1655,1970,1854,2251,2589
971832,405924,403076,422236,422236,223,492,170,3,121,-118,222,-4331,99,100,916,1682,1731,1406,1674,1941,1816,2212,2520
972833,406348,403580,422704,422704,674,241,136,-46,59,-490,172,-4338,99,90,914,1682,1731,1406,1674,1941,1816,2212,2520
973834,406804,404120,423172,423172,474,15,106,-80,-23,-469,105,-4137,83,97,914,1682,1731,1406,1674,1941,1816,2212,2520
974835,407228,404740,423640,423640,675,-489,66,-39,-69,-511,143,-4629,88,104,917,1682,1731,1406,1674,1941,1816,2212,2520
975836,407688,405200,424108,424108,450,511,94,-22,-90,-249,684,-4205,103,99,912,1682,1731,1406,1674,1941,1816,2212,2520
976837,408144,405716,424576,424576,476,160,51,-7,-110,172,556,-4557,91,83,914,1682,1731,1406,1674,1941,1816,2212,2520
977838,408588,406252,425044,425044,551,33,-26,-37,-172,-56,903,-4313,87,89,917,1700,1741,1402,1680,1896,1778,2179,2471
978839,409072,406752,425512,425512,301,258,-102,-127,-238,-485,569,-4693,93,90,917,1700,1741,1402,1680,1896,1778,2179,2471
979840,409516,407264,425984,425984,552,182,-103,-166,-270,15,501,-4433,89,94,918,1700,1741,1402,1680,1896,1778,2179,2471
980841,409976,407760,426452,426452,452,281,-120,-132,-218,287,7,-4416,104,86,917,1700,1741,1402,1680,1896,1778,2179,2471
981842,410460,408248,426920,426920,301,330,-160,-130,-163,105,85,-3535,89,75,917,1700,1741,1402,1680,1896,1778,2179,2471
982843,410996,408744,427388,427388,-25,280,-171,-93,-186,-586,327,-3954,89,100,918,1680,1722,1387,1651,1882,1780,2175,2488
983844,411464,409260,427856,427856,400,154,-78,-57,-208,-277,-403,-4257,99,102,919,1680,1722,1387,1651,1882,1780,2175,2488
984845,411964,409700,428324,428324,199,629,-22,-26,-174,410,-7,-3652,95,97,919,1680,1722,1387,1651,1882,1780,2175,2488
985846,412408,410152,428792,428792,550,555,18,-64,-123,229,32,-3947,108,94,915,1680,1722,1387,1651,1882,1780,2175,2488
986847,412872,410676,429260,429260,425,103,18,-133,-49,465,-22,-3938,103,95,914,1680,1722,1387,1651,1882,1780,2175,2488
987849,413364,411152,429728,429728,249,403,22,-122,-1,850,173,-3792,99,88,918,1680,1722,1387,1651,1882,1780,2175,2488
988849,413796,411656,430196,430196,625,227,13,-136,32,860,-53,-4168,106,97,917,1646,1697,1377,1634,1886,1781,2170,2491
989850,414288,412188,430664,430664,249,51,23,-87,30,342,278,-4003,111,98,913,1646,1697,1377,1634,1886,1781,2170,2491
990851,414752,412680,431132,431132,424,300,0,18,15,420,7,-3603,96,93,919,1646,1697,1377,1634,1886,1781,2170,2491
991852,415256,413144,431600,431600,174,475,27,80,30,813,-97,-3680,112,91,917,1646,1697,1377,1634,1886,1781,2170,2491
992853,415764,413720,432068,432068,148,-228,55,135,45,558,-25,-3696,112,90,917,1646,1697,1377,1634,1886,1781,2170,2491
993854,416276,414196,432536,432536,121,397,72,87,66,20,127,-3977,104,81,918,1655,1710,1387,1646,1902,1798,2197,2524
994855,416772,414600,433004,433004,221,849,109,108,54,85,485,-3369,102,81,919,1655,1710,1387,1646,1902,1798,2197,2524
995856,417296,415068,433472,433472,44,449,127,54,19,557,163,-4042,106,95,914,1655,1710,1387,1646,1902,1798,2197,2524
996857,417764,415532,433940,433940,394,474,107,-3,13,96,536,-3914,101,81,917,1655,1710,1387,1646,1902,1798,2197,2524
997858,418276,416076,434408,434408,118,-28,87,-39,70,-48,-296,-4197,113,97,916,1655,1710,1387,1646,1902,1798,2197,2524
998859,418804,416596,434876,434876,17,121,94,-26,83,-257,-52,-4004,106,85,920,1655,1710,1387,1646,1902,1798,2197,2524
999860,419328,417056,435344,435344,41,496,62,50,27,-1122,34,-3881,113,87,921,1700,1755,1427,1699,1937,1826,2238,2567
1000861,419872,417596,435812,435812,-86,-6,62,97,-63,-806,297,-4356,115,94,918,1700,1755,1427,1699,1937,1826,2238,2567
1001862,420424,418040,436280,436280,-138,595,76,39,-93,-543,327,-4398,113,94,920,1700,1755,1427,1699,1937,1826,2238,2567
1002863,420928,418536,436748,436748,161,269,60,-6,-92,-296,651,-4387,112,93,916,1700,1755,1427,1699,1937,1826,2238,2567
1003864,421456,418984,437216,437216,9,570,44,-169,-100,-535,306,-4881,112,77,919,1700,1755,1427,1699,1937,1826,2238,2567
1004865,421948,419412,437684,437684,234,696,103,-346,-129,-1281,-261,-4297,99,85,917,1768,1819,1479,1767,1983,1869,2296,2640
1005866,422464,419896,438152,438152,83,345,64,-373,-110,-1948,-919,-4549,99,93,915,1768,1819,1479,1767,1983,1869,2296,2640
1006867,422960,420348,438620,438620,207,546,123,-267,-189,166,673,-4718,109,77,916,1768,1819,1479,1767,1983,1869,2296,2640
1007868,423420,420884,439088,439088,432,19,139,-146,-153,-1218,-189,-4862,98,79,916,1768,1819,1479,1767,1983,1869,2296,2640
1008869,423940,421404,439556,439556,56,118,126,-78,-135,-378,668,-4010,97,82,919,1768,1819,1479,1767,1983,1869,2296,2640
1009870,424412,421828,440024,440024,356,719,80,-163,-105,550,1042,-4894,109,82,921,1768,1819,1479,1767,1983,1869,2296,2640
1010871,424956,422284,440492,440492,-96,519,105,-270,-180,575,150,-5308,109,96,914,1839,1898,1528,1814,1990,1879,2321,2673
1011872,425452,422796,440960,440960,203,168,157,-304,-164,-734,567,-5409,94,76,916,1839,1898,1528,1814,1990,1879,2321,2673
1012873,425932,423208,441428,441428,303,794,141,-248,-65,266,-1156,-4651,110,92,919,1839,1898,1528,1814,1990,1879,2321,2673
1013874,426428,423664,441896,441896,202,520,51,-168,74,442,-719,-4601,102,85,913,1839,1898,1528,1814,1990,1879,2321,2673
1014875,427008,424124,442368,442368,-325,495,24,-71,129,-111,469,-4840,102,96,916,1839,1898,1528,1814,1990,1879,2321,2673
1015876,427460,424576,442836,442836,475,545,61,61,47,771,-723,-4227,89,94,916,1889,1946,1552,1831,1956,1847,2283,2640
1016877,427940,425016,443304,443304,300,621,151,161,113,-148,-1016,-4688,91,89,914,1889,1946,1552,1831,1956,1847,2283,2640
1017878,428420,425420,443772,443772,299,848,160,105,216,-330,241,-4308,104,93,915,1889,1946,1552,1831,1956,1847,2283,2640
1018879,428864,425860,444240,444240,525,623,161,146,269,-442,-505,-4141,107,88,913,1889,1946,1552,1831,1956,1847,2283,2640
1019880,429364,426332,444708,444708,174,423,127,142,295,51,261,-4849,100,83,913,1889,1946,1552,1831,1956,1847,2283,2640
1020881,429788,426780,445176,445176,650,574,128,112,273,333,953,-4757,96,98,917,1889,1946,1552,1831,1956,1847,2283,2640
1021882,430220,427232,445644,445644,601,549,115,7,218,-197,-596,-4672,91,87,913,1900,1941,1545,1835,1906,1799,2220,2545
