time,Right Leg Pos,Left Leg Pos,Commanded Right Leg Pos,Commanded Left Leg Pos,DCR,DCL,GyroX,GyroY,GyroZ,AX,AY,AZ,RBEMF,LBEMF,VBatt,S1,S2,S3,S4,S5,S6,S7,S8
296,33432,-17188,0,0,-792,444,-95,-58,35,312,-154,3908,-8,0,919,1153,1239,800,1217,1498,1491,2205,1943
1297,33440,-17180,0,0,-867,369,-96,-56,32,320,-171,3902,-9,4,919,1153,1239,800,1217,1498,1491,2205,1943
2298,33436,-17168,0,0,-792,344,-94,-56,32,300,-170,3897,-8,5,919,1153,1239,800,1217,1498,1491,2205,1943
3299,33424,-17176,0,0,-742,469,-95,-56,34,306,-178,3861,-6,5,918,1153,1239,800,1217,1498,1491,2205,1943
4300,33424,-17180,0,0,-817,444,-96,-56,33,324,-170,3902,-2,4,919,1153,1239,800,1217,1498,1491,2205,1943
5301,33428,-17180,0,0,-842,419,-95,-55,31,305,-158,3895,5,2,919,1155,1241,803,1220,1499,1492,2205,1945
6302,33440,-17180,0,0,-892,419,-93,-54,31,287,-117,3895,6,0,919,1155,1241,803,1220,1499,1492,2205,1945
7304,33440,-17176,0,0,-817,394,-95,-56,31,323,-154,3931,6,-6,919,1155,1241,803,1220,1499,1492,2205,1945
8304,33432,-17176,0,0,-767,419,-95,-56,30,326,-164,3909,-1,-4,919,1155,1241,803,1220,1499,1492,2205,1945
9305,33444,-17172,0,0,-892,394,-96,-56,32,289,-143,3924,-2,2,919,1155,1241,803,1220,1499,1492,2205,1945
10306,33444,-17164,0,0,-817,369,-96,-56,32,272,-150,3926,-4,5,919,1155,1241,803,1220,1499,1492,2205,1945
11307,33444,-17176,0,0,-817,494,-96,-55,33,274,-152,3908,-8,4,919,1155,1241,803,1219,1498,1492,2205,1946
12308,33428,-17168,0,0,-717,369,-95,-55,33,274,-144,3892,-8,1,919,1155,1241,803,1219,1498,1492,2205,1946
13309,33440,-17184,0,0,-892,519,-94,-55,32,284,-151,3869,-8,-1,918,1155,1241,803,1219,1498,1492,2205,1946
14310,33432,-17176,0,0,-767,369,-95,-55,35,281,-132,3879,-8,-1,918,1155,1241,803,1219,1498,1492,2205,1946
15311,33440,-17176,0,0,-867,419,-94,-55,33,283,-139,3866,-9,2,919,1155,1241,803,1219,1498,1492,2205,1946
16312,33436,-17172,0,0,-792,394,-94,-55,34,306,-145,3875,-6,4,919,1154,1241,802,1219,1498,1490,2206,1947
17313,33444,-17180,0,0,-867,469,-92,-56,32,315,-127,3854,3,-6,919,1154,1241,802,1219,1498,1490,2206,1947
18314,33428,-17172,0,0,-717,369,-94,-58,31,277,-158,3926,4,2,917,1154,1241,802,1219,1498,1490,2206,1947
19315,33436,-17176,0,0,-867,444,-95,-56,32,284,-146,3890,5,-8,916,1154,1241,802,1219,1498,1490,2206,1947
20316,33436,-17176,0,0,-817,419,-96,-56,32,288,-156,3869,6,-8,918,1154,1241,802,1219,1498,1490,2206,1947
21317,33440,-17172,0,0,-842,394,-94,-55,32,306,-142,3892,6,-2,918,1154,1241,802,1219,1498,1490,2206,1947
22318,33436,-17172,0,0,-792,419,-94,-55,34,301,-136,3880,4,-5,919,1155,1241,803,1220,1498,1492,2205,1946
23319,33440,-17176,0,0,-842,444,-94,-57,35,269,-126,3892,-7,-8,918,1155,1241,803,1220,1498,1492,2205,1946
24320,33440,-17176,0,0,-817,419,-95,-58,34,296,-122,3888,-8,-5,919,1155,1241,803,1220,1498,1492,2205,1946
25321,33440,-17180,0,0,-817,444,-96,-56,33,281,-132,3868,-9,-2,919,1155,1241,803,1220,1498,1492,2205,1946
26322,33436,-17180,0,0,-792,419,-96,-56,35,289,-168,3886,-8,-7,919,1155,1241,803,1220,1498,1492,2205,1946
27323,33444,-17180,0,0,-867,419,-98,-56,35,297,-171,3904,-8,-5,919,1155,1241,803,1219,1498,1492,2205,1946
28324,33428,-17184,0,0,-717,444,-98,-57,37,261,-147,3879,-7,-8,919,1155,1241,803,1219,1498,1492,2205,1946
29325,33440,-17180,0,0,-892,394,-98,-57,37,280,-150,3882,-8,0,919,1155,1241,803,1219,1498,1492,2205,1946
30326,33432,-17168,0,0,-767,344,-96,-56,34,297,-147,3902,-8,-3,919,1155,1241,803,1219,1498,1492,2205,1946
31327,33432,-17176,0,0,-817,469,-95,-57,31,294,-126,3900,-5,-4,919,1155,1241,803,1219,1498,1492,2205,1946
32328,33428,-17176,0,0,-792,419,-94,-58,33,304,-142,3871,-9,-5,919,1155,1241,803,1219,1498,1492,2205,1946
33329,33440,-17176,0,0,-892,419,-94,-57,36,284,-140,3876,-6,-1,918,1151,1239,800,1217,1495,1490,2203,1943
34330,33448,-17176,0,0,-867,419,-96,-56,39,283,-158,3897,-2,5,918,1151,1239,800,1217,1495,1490,2203,1943
35331,33432,-17180,0,0,-717,444,-95,-56,36,286,-152,3906,-7,4,917,1151,1239,800,1217,1495,1490,2203,1943
36332,33432,-17180,0,0,-817,419,-94,-58,34,283,-184,3898,-6,3,916,1151,1239,800,1217,1495,1490,2203,1943
37333,33436,-17176,0,0,-842,394,-95,-59,35,287,-121,3909,-5,-8,919,1151,1239,800,1217,1495,1490,2203,1943
38334,33432,-17172,0,0,-792,394,-94,-59,34,290,-138,3893,-8,5,919,1155,1241,803,1219,1499,1491,2206,1946
39335,33432,-17176,0,0,-817,444,-95,-58,33,295,-150,3888,-7,4,919,1155,1241,803,1219,1499,1491,2206,1946
40336,33436,-17184,0,0,-842,469,-96,-58,34,286,-150,3902,-3,3,918,1155,1241,803,1219,1499,1491,2206,1946
41337,33444,-17176,0,0,-867,369,-95,-58,33,291,-159,3905,-7,-8,919,1155,1241,803,1219,1499,1491,2206,1946
42338,33432,-17180,0,0,-742,444,-95,-57,33,323,-158,3882,-4,-6,919,1155,1241,803,1219,1499,1491,2206,1946
43343,33444,-17180,0,0,-892,419,-94,-57,32,325,-158,3884,-1,-8,918,1155,1241,803,1219,1499,1491,2206,1946
44340,33436,-17164,0,0,-767,319,-95,-58,31,298,-157,3897,-5,-8,919,1155,1241,803,1219,1498,1491,2205,1946
45341,33436,-17172,0,0,-817,469,-95,-59,32,285,-164,3915,0,-7,918,1155,1241,803,1219,1498,1491,2205,1946
46342,33436,-17180,0,0,-817,469,-96,-58,32,292,-162,3905,5,5,918,1155,1241,803,1219,1498,1491,2205,1946
47343,33436,-17172,0,0,-817,369,-96,-59,32,315,-156,3909,5,5,918,1155,1241,803,1219,1498,1491,2205,1946
48344,33424,-17184,0,0,-742,494,-98,-58,31,300,-164,3896,6,5,919,1155,1241,803,1219,1498,1491,2205,1946
49345,33440,-17172,0,0,-917,344,-96,-58,31,299,-171,3899,4,5,918,1156,1242,803,1220,1500,1494,2207,1948
50346,33440,-17176,0,0,-817,444,-95,-58,31,309,-174,3889,3,2,918,1156,1242,803,1220,1500,1494,2207,1948
51347,33444,-17188,0,0,-842,494,-96,-60,32,314,-155,3876,-2,-7,918,1156,1242,803,1220,1500,1494,2207,1948
52348,33432,-17168,0,0,-742,294,-96,-59,31,313,-132,3889,-7,0,917,1156,1242,803,1220,1500,1494,2207,1948
53349,33440,-17180,0,0,-867,494,-94,-58,31,285,-140,3867,-7,5,917,1156,1242,803,1220,1500,1494,2207,1948
54350,33432,-17172,0,0,-767,369,-93,-60,29,283,-146,3846,-8,5,918,1155,1241,804,1220,1499,1492,2205,1945
55351,33436,-17172,0,0,-842,419,-94,-61,32,299,-152,3883,-4,-6,918,1155,1241,804,1220,1499,1492,2205,1945
56352,33432,-17184,0,0,-792,494,-96,-61,33,300,-120,3866,-8,-7,918,1155,1241,804,1220,1499,1492,2205,1945
57353,33444,-17184,0,0,-892,419,-97,-60,34,289,-120,3870,-4,-6,918,1155,1241,804,1220,1499,1492,2205,1945
58354,33440,-17180,0,0,-792,394,-96,-57,33,293,-151,3914,-3,2,919,1155,1241,804,1220,1499,1492,2205,1945
59355,33432,-17184,0,0,-767,444,-94,-57,33,307,-158,3933,-5,3,918,1155,1241,804,1220,1499,1492,2205,1945
60356,33444,-17172,0,0,-892,344,-95,-58,31,289,-155,3876,-2,-1,918,1155,1241,803,1219,1498,1492,2205,1946
61357,33440,-17180,0,0,-792,469,-97,-58,30,295,-162,3856,1,-8,918,1155,1241,803,1219,1498,1492,2205,1946
62358,33440,-17184,0,0,-817,444,-98,-58,31,306,-168,3860,-5,0,918,1155,1241,803,1219,1498,1492,2205,1946
63359,33440,-17172,0,0,-817,344,-97,-59,31,289,-162,3881,-1,5,918,1155,1241,803,1219,1498,1492,2205,1946
64360,33440,-17172,0,0,-817,419,-94,-58,32,311,-131,3902,4,0,918,1155,1241,803,1219,1498,1492,2205,1946
65361,33436,-17180,0,0,-792,469,-94,-56,33,321,-138,3895,6,-8,919,1156,1241,804,1219,1498,1492,2208,1945
66362,33432,-17180,0,0,-792,419,-95,-54,36,304,-133,3904,4,-3,918,1156,1241,804,1219,1498,1492,2208,1945
67363,33436,-17168,0,0,-842,344,-96,-56,35,297,-147,3908,-2,6,918,1156,1241,804,1219,1498,1492,2208,1945
68364,33440,-17176,0,0,-842,469,-97,-58,33,309,-158,3884,-2,-4,918,1156,1241,804,1219,1498,1492,2208,1945
69365,33432,-17180,0,0,-767,444,-95,-57,34,298,-146,3855,-3,-7,917,1156,1241,804,1219,1498,1492,2208,1945
70366,33428,-17176,0,0,-792,394,-94,-55,36,308,-162,3887,-7,6,917,1156,1241,804,1219,1498,1492,2208,1945
71367,33428,-17184,0,0,-817,469,-94,-54,34,310,-145,3868,-9,-5,918,1155,1240,803,1219,1498,1491,2205,1944
72368,33436,-17164,0,0,-867,294,-94,-56,33,314,-158,3874,-8,-8,918,1155,1240,803,1219,1498,1491,2205,1944
73369,33428,-17176,0,0,-767,494,-95,-56,35,298,-147,3909,-7,4,918,1155,1240,803,1219,1498,1491,2205,1944
74370,33420,-17180,0,0,-766,444,-97,-56,34,291,-158,3877,-7,-5,918,1155,1240,803,1219,1498,1491,2205,1944
75371,33436,-17180,0,0,-917,419,-97,-57,31,296,-150,3842,1,-8,918,1155,1240,803,1219,1498,1491,2205,1944
76372,33428,-17184,0,0,-767,444,-94,-55,33,299,-120,3875,6,4,919,1156,1243,804,1220,1500,1493,2206,1946
77373,33440,-17164,0,0,-892,294,-93,-56,34,281,-108,3880,4,3,918,1156,1243,804,1220,1500,1493,2206,1946
78374,33428,-17180,0,0,-742,519,-95,-58,34,274,-137,3907,-7,-6,918,1156,1243,804,1220,1500,1493,2206,1946
79375,33448,-17172,0,0,-942,369,-99,-59,33,279,-154,3937,-8,0,918,1156,1243,804,1220,1500,1493,2206,1946
80376,33436,-17180,0,0,-742,469,-99,-57,31,273,-150,3918,-7,4,918,1156,1243,804,1220,1500,1493,2206,1946
81377,33444,-17180,0,0,-867,419,-96,-54,32,296,-144,3898,1,2,918,1156,1243,804,1220,1500,1493,2206,1946
82378,33432,-17176,0,0,-742,394,-94,-54,35,308,-147,3910,6,-8,918,1155,1241,803,1220,1498,1492,2206,1945
83379,33436,-17184,0,0,-842,469,-96,-55,34,304,-131,3864,6,3,918,1155,1241,803,1220,1498,1492,2206,1945
84380,33428,-17176,0,0,-767,369,-96,-57,32,280,-133,3866,6,3,918,1155,1241,803,1220,1498,1492,2206,1945
85381,33440,-17184,0,0,-892,469,-97,-56,32,280,-142,3874,5,-8,918,1155,1241,803,1220,1498,1492,2206,1945
86382,33428,-17188,0,0,-742,444,-95,-53,35,290,-142,3847,6,6,917,1155,1241,803,1220,1498,1492,2206,1945
87383,33436,-17176,0,0,-867,344,-94,-51,33,314,-148,3861,4,2,917,1154,1241,803,1219,1498,1492,2205,1945
88384,33424,-17172,0,0,-742,394,-94,-53,32,280,-155,3877,-2,-8,918,1154,1241,803,1219,1498,1492,2205,1945
89385,33436,-17180,0,0,-892,469,-96,-56,33,294,-155,3899,5,4,918,1154,1241,803,1219,1498,1492,2205,1945
90386,33440,-17172,0,0,-842,369,-98,-58,32,301,-146,3890,5,6,918,1154,1241,803,1219,1498,1492,2205,1945
91388,33440,-17172,0,0,-817,419,-98,-56,31,278,-126,3904,4,0,918,1154,1241,803,1219,1498,1492,2205,1945
92388,33432,-17172,0,0,-767,419,-97,-55,35,307,-157,3909,6,-7,918,1154,1241,803,1219,1498,1492,2205,1945
93389,33432,-17180,0,0,-817,469,-96,-57,32,304,-160,3861,4,-1,918,1155,1241,803,1219,1498,1491,2204,1945
94390,33440,-17176,0,0,-867,394,-94,-57,31,283,-156,3866,-4,5,918,1155,1241,803,1219,1498,1491,2204,1945
95391,33436,-17176,0,0,-792,419,-95,-57,32,278,-144,3895,-9,-8,918,1155,1241,803,1219,1498,1491,2204,1945
96392,33436,-17172,0,0,-817,394,-97,-58,33,283,-150,3867,-5,-6,918,1155,1241,803,1219,1498,1491,2204,1945
97393,33436,-17176,0,0,-817,444,-95,-56,31,289,-167,3852,0,4,918,1155,1241,803,1219,1498,1491,2204,1945
98394,33440,-17172,0,0,-842,394,-95,-57,31,292,-155,3871,-2,-5,918,1155,1241,803,1219,1498,1491,2205,1945
99395,33436,-17176,0,0,-792,444,-96,-57,31,306,-155,3862,2,-8,918,1155,1241,803,1219,1498,1491,2205,1945
100396,33444,-17168,0,0,-867,369,-94,-55,30,292,-153,3877,5,3,918,1155,1241,803,1219,1498,1491,2205,1945
101397,33444,-17180,0,0,-817,494,-95,-55,30,295,-147,3893,4,6,918,1155,1241,803,1219,1498,1491,2205,1945
102398,33452,-17176,0,0,-867,394,-96,-53,34,275,-153,3901,6,1,918,1155,1241,803,1219,1498,1491,2205,1945
103399,33424,-17176,0,0,-642,419,-97,-54,35,276,-169,3908,6,-8,918,1155,1241,803,1219,1498,1491,2205,1945
104400,33444,-17184,0,0,-942,469,-97,-56,32,295,-158,3898,6,5,917,1153,1239,803,1220,1499,1491,2206,1946
105401,33436,-17180,16384,16384,2558,3719,-95,-55,31,278,-134,3872,5,-6,918,1153,1239,803,1220,1499,1491,2206,1946
106402,33444,-17168,16852,16852,2469,3680,-96,-56,32,298,-161,3895,5,-4,813,1153,1239,803,1220,1499,1491,2206,1946
107403,33556,-17128,17320,17320,1828,3516,-76,-36,30,369,-330,4148,-22,6,819,1153,1239,803,1220,1499,1491,2206,1946
108404,33748,-16728,17788,17788,1335,1267,-46,-8,36,535,-524,4257,12,-77,839,1153,1239,803,1220,1499,1491,2206,1946
109405,33980,-16332,18256,18256,1091,1294,5,-45,36,262,-63,4799,38,-201,887,1155,1242,803,1224,1502,1494,2206,1944
110406,34240,-15804,18724,18724,921,467,-39,-10,42,466,5,5259,52,74,893,1155,1242,803,1224,1502,1494,2206,1944
111407,34504,-15276,19192,19192,901,466,-73,18,66,557,-92,4532,45,73,905,1155,1242,803,1224,1502,1494,2206,1944
112408,34808,-14808,19660,19660,655,841,-127,56,93,161,-414,4995,54,97,906,1155,1242,803,1224,1502,1494,2206,1944
113409,35100,-14308,20128,20128,734,640,-150,28,101,266,-454,3571,63,89,906,1155,1242,803,1224,1502,1494,2206,1944
114410,35412,-13788,20596,20596,613,514,-155,61,124,388,-283,4520,65,85,906,1155,1242,803,1224,1502,1494,2206,1944
115411,35716,-13332,21064,21064,667,914,-207,75,168,153,-721,3522,66,82,909,1165,1253,809,1235,1513,1513,2255,1979
116412,36024,-12852,21532,21532,646,764,-245,126,186,349,-563,3988,67,92,905,1165,1253,809,1235,1513,1513,2255,1979
117413,36304,-12344,22000,22000,825,588,-266,210,245,661,-862,3403,50,91,907,1165,1253,809,1235,1513,1513,2255,1979
118414,36548,-11880,22468,22468,1056,863,-253,226,294,569,-852,3744,51,81,907,1165,1253,809,1235,1513,1513,2255,1979
119415,36820,-11452,22936,22936,886,1089,-210,323,275,426,-583,3756,55,82,902,1165,1253,809,1235,1513,1513,2255,1979
120416,37128,-11008,23404,23404,664,990,-136,323,252,380,-1107,4167,54,77,901,1171,1258,813,1235,1542,1533,2275,1978
121417,37432,-10592,23872,23872,693,1166,-60,287,233,-78,-1109,4775,70,80,901,1171,1258,813,1235,1542,1533,2275,1978
122418,37716,-10120,24340,24340,823,816,-14,258,240,249,-839,5086,54,90,901,1171,1258,813,1235,1542,1533,2275,1978
123419,38004,-9708,24808,24808,802,1192,49,125,281,68,-739,5656,59,83,903,1171,1258,813,1235,1542,1533,2275,1978
124420,38284,-9328,25276,25276,857,1394,100,50,270,-125,-49,6016,60,82,900,1171,1258,813,1235,1542,1533,2275,1978
125421,38552,-8956,25744,25744,937,1447,96,-23,258,-230,-166,5823,55,79,897,1171,1258,813,1235,1542,1533,2275,1978
126422,38828,-8524,26212,26212,891,1073,73,-104,307,-62,-594,5865,66,80,895,1151,1238,801,1224,1497,1490,2213,1934
127423,39096,-8208,26680,26680,946,1801,60,-217,370,-72,-470,5531,50,68,900,1151,1238,801,1224,1497,1490,2213,1934
128424,39356,-7880,27148,27148,1001,1730,52,-230,400,4,-5,6130,60,73,888,1151,1238,801,1224,1497,1490,2213,1934
129425,39636,-7576,27616,27616,881,1884,77,-179,394,790,-722,5319,55,64,886,1151,1238,801,1224,1497,1490,2213,1934
130426,39904,-7224,28084,28084,961,1587,133,-130,427,795,-732,5626,51,66,886,1151,1238,801,1224,1497,1490,2213,1934
131427,40160,-6916,28552,28552,1041,1865,171,-74,457,1094,-744,5674,60,62,891,1196,1300,826,1268,1498,1496,2276,2016
132428,40420,-6628,29020,29020,1021,1995,248,-8,498,1180,-603,5337,43,57,886,1196,1300,826,1268,1498,1496,2276,2016
133429,40652,-6348,29488,29488,1202,2049,365,41,516,982,-590,5203,59,51,883,1196,1300,826,1268,1498,1496,2276,2016
134430,40916,-6076,29956,29956,1007,2104,505,90,483,511,-728,5289,58,34,880,1196,1300,826,1268,1498,1496,2276,2016
135431,41180,-5824,30424,30424,1012,2234,601,60,454,118,-683,5188,51,33,879,1196,1300,826,1268,1498,1496,2276,2016
136432,41416,-5596,30892,30892,1193,2390,713,24,464,287,-88,5084,58,34,877,1196,1300,826,1268,1498,1496,2276,2016
137433,41656,-5352,31360,31360,1173,2296,806,2,450,701,-366,5014,56,31,873,1257,1376,857,1308,1523,1510,2328,2034
138434,41900,-5148,31828,31828,1154,2552,902,-36,410,-193,-185,5194,50,11,873,1257,1376,857,1308,1523,1510,2328,2034
139435,42152,-4920,32768,32768,1120,2420,991,-182,349,-332,465,5258,43,26,866,1257,1376,857,1308,1523,1510,2328,2034
140436,42404,-4716,33236,33236,1126,2576,1068,-325,335,178,239,5369,43,0,871,1257,1376,857,1308,1523,1510,2328,2034
141437,42616,-4520,33704,33704,1382,2633,1143,-511,356,670,-30,5259,42,12,868,1257,1376,857,1308,1523,1510,2328,2034
142438,42832,-4332,34172,34172,1363,2690,1179,-660,322,740,556,5857,47,-5,864,1263,1381,845,1295,1460,1446,2215,1956
143439,43036,-4140,34640,34640,1445,2671,1217,-823,329,421,674,5556,34,-11,860,1263,1381,845,1295,1460,1446,2215,1956
144440,43260,-3952,35108,35108,1325,2703,1259,-900,324,793,263,5875,38,-6,861,1263,1381,845,1295,1460,1446,2215,1956
145441,43484,-3756,35576,35576,1331,2660,1321,-827,259,1024,684,5877,47,-7,863,1263,1381,845,1295,1460,1446,2215,1956
146442,43696,-3576,36044,36044,1413,2767,1450,-721,178,821,711,5431,48,-23,859,1263,1381,845,1295,1460,1446,2215,1956
147443,43880,-3404,36512,36512,1595,2824,1556,-696,179,1203,382,6206,40,-20,860,1263,1381,845,1295,1460,1446,2215,1956
148444,44104,-3228,36980,36980,1351,2806,1644,-862,286,1300,336,5822,34,-20,854,1220,1336,821,1238,1443,1433,2184,1970
149445,44352,-3040,37448,37448,1206,2738,1734,-944,303,1160,282,5791,43,-26,857,1220,1336,821,1238,1443,1433,2184,1970
150446,44552,-2852,37916,37916,1512,2745,1937,-1096,271,512,409,4913,48,-37,860,1220,1336,821,1238,1443,1433,2184,1970
151447,44760,-2688,38384,38384,1469,2902,2093,-1294,288,124,187,5294,36,-26,857,1220,1336,821,1238,1443,1433,2184,1970
152448,44960,-2528,38852,38852,1525,2935,2206,-1496,391,-236,1050,5306,33,-33,854,1220,1336,821,1238,1443,1433,2184,1970
153449,45156,-2356,39320,39320,1557,2867,2274,-1389,382,207,922,5346,39,-45,853,1187,1305,820,1231,1484,1460,2225,1993
154450,45352,-2196,39788,39788,1564,2950,2321,-1140,260,-195,960,4199,39,-58,855,1187,1305,820,1231,1484,1460,2225,1993
155451,45548,-2028,40256,40256,1570,2907,2338,-864,106,70,1357,4098,31,-42,850,1187,1305,820,1231,1484,1460,2225,1993
156452,45716,-1872,40724,40724,1753,2989,2284,-821,27,778,1220,3539,40,-57,853,1187,1305,820,1231,1484,1460,2225,1993
157453,45896,-1680,41192,41192,1685,2771,2192,-976,53,711,1093,3491,34,-53,847,1187,1305,820,1231,1484,1460,2225,1993
158454,46076,-1520,41660,41660,1692,2979,2125,-1188,128,-450,1755,3617,30,-68,852,1187,1305,820,1231,1484,1460,2225,1993
159455,46260,-1372,42128,42128,1674,3062,2113,-1317,150,-6,1145,4077,35,-25,846,1217,1328,837,1265,1501,1493,2246,1984
160456,46432,-1224,42596,42596,1756,3069,2098,-1239,157,423,1259,4364,31,-47,845,1217,1328,837,1265,1501,1493,2246,1984
161457,46604,-1056,43064,43064,1763,2952,2136,-1141,178,-263,1205,4245,36,-66,843,1217,1328,837,1265,1501,1493,2246,1984
162458,46780,-896,43532,43532,1745,3009,2151,-1140,172,8,1039,4226,20,-68,842,1217,1328,837,1265,1501,1493,2246,1984
163459,46960,-720,44000,44000,1727,2916,2156,-1240,221,95,1220,4059,38,-57,847,1217,1328,837,1265,1501,1493,2246,1984
164460,47156,-552,44468,44468,1634,2974,2180,-1328,260,101,1647,4254,39,-49,850,1158,1244,806,1199,1533,1515,2234,1986
165461,47320,-368,44936,44936,1841,2881,2229,-1245,290,-170,1404,4345,25,-46,850,1158,1244,806,1199,1533,1515,2234,1986
166462,47488,-188,45404,45404,1824,2913,2293,-1114,309,449,2002,4167,22,-58,844,1158,1244,806,1199,1533,1515,2234,1986
167463,47652,-12,45872,45872,1856,2945,2323,-941,337,556,1079,4128,25,-38,848,1158,1244,806,1199,1533,1515,2234,1986
168464,47812,172,46340,46340,1889,2902,2305,-782,375,-269,2109,4109,20,-44,845,1158,1244,806,1199,1533,1515,2234,1986
169465,47980,344,46808,46808,1846,2984,2257,-665,398,158,1598,3888,20,-52,845,1158,1244,806,1199,1533,1515,2234,1986
170466,48140,540,47276,47276,1903,2841,2168,-637,426,673,2094,3759,33,-45,844,1089,1183,776,1141,1502,1467,2155,1931
171467,48312,732,47744,47744,1836,2872,1987,-482,427,33,1954,4150,20,-53,846,1089,1183,776,1141,1502,1467,2155,1931
172468,48496,892,48212,48212,1768,3080,1822,-348,405,84,2796,3816,19,-34,844,1089,1183,776,1141,1502,1467,2155,1931
173469,48652,1064,48680,48680,1950,3012,1682,-158,434,379,1113,3082,32,-52,842,1089,1183,776,1141,1502,1467,2155,1931
174470,48804,1232,49152,49152,1983,3044,1554,-36,448,-205,2096,3141,29,-84,839,1089,1183,776,1141,1502,1467,2155,1931
175471,48952,1368,49620,49620,2016,3253,1418,-15,432,-160,1736,2633,27,-70,841,1100,1195,786,1161,1521,1496,2210,1986
176472,49120,1516,50088,50088,1898,3185,1302,-32,444,77,1217,2243,29,-79,836,1100,1195,786,1161,1521,1496,2210,1986
177473,49296,1704,50556,50556,1855,2942,1201,-3,483,-246,1617,2149,23,-139,839,1100,1195,786,1161,1521,1496,2210,1986
178474,49472,1880,51024,51024,1862,3024,1131,97,504,-346,1579,2294,21,-114,847,1100,1195,786,1161,1521,1496,2210,1986
179475,49656,2052,51492,51492,1819,3057,1105,166,519,-288,1469,2284,26,-55,842,1100,1195,786,1161,1521,1496,2210,1986
180476,49832,2236,51960,51960,1876,2988,1092,237,569,-168,1600,2559,21,-61,842,1100,1195,786,1161,1521,1496,2210,1986
181477,50000,2428,52428,52428,1934,2945,1118,257,635,66,1585,2478,22,-74,842,1097,1184,790,1154,1602,1565,2285,2043
182478,50176,2592,52896,52896,1891,3128,1073,380,666,270,1566,3131,30,-67,842,1097,1184,790,1154,1602,1565,2285,2043
183479,50324,2748,53364,53364,2074,3185,988,410,693,-35,2460,2680,20,-58,837,1097,1184,790,1154,1602,1565,2285,2043
184480,50476,2896,53832,53832,2056,3243,853,526,713,119,2170,2999,29,-83,826,1097,1184,790,1154,1602,1565,2285,2043
185481,50620,3060,54300,54300,2114,3150,735,563,739,-51,2915,2589,22,-103,833,1097,1184,790,1154,1602,1565,2285,2043
186482,50800,3244,54768,54768,1896,3032,564,682,740,422,2676,3185,15,-115,834,1065,1156,772,1128,1532,1492,2168,1948
187483,50964,3420,55236,55236,2004,3090,423,778,722,341,3682,2920,12,-109,841,1065,1156,772,1128,1532,1492,2168,1948
188484,51112,3604,55704,55704,2112,3046,298,837,696,741,3414,3036,15,-77,838,1065,1156,772,1128,1532,1492,2168,1948
189485,51244,3752,56172,56172,2220,3279,183,888,637,1024,2618,2949,24,-97,832,1065,1156,772,1128,1532,1492,2168,1948
190486,51416,3916,56640,56640,1977,3187,64,869,655,-47,3107,2935,18,-79,830,1065,1156,772,1128,1532,1492,2168,1948
191487,51604,4084,57108,57108,1884,3169,-40,874,631,387,3065,3229,20,-150,835,1065,1156,772,1128,1532,1492,2168,1948
192488,51780,4248,57576,57576,1966,3201,-148,948,580,2194,1461,3242,29,-103,837,1063,1155,769,1124,1500,1468,2141,1948
193489,51956,4388,58044,58044,1973,3359,-267,1042,741,411,1850,2905,35,-96,832,1063,1155,769,1124,1500,1468,2141,1948
194490,52148,4564,58512,58512,1880,3142,-334,1147,798,-1280,1846,3007,32,-97,829,1063,1155,769,1124,1500,1468,2141,1948
195491,52308,4752,58980,58980,2087,3073,-381,1032,855,-1046,503,2219,37,-183,837,1063,1155,769,1124,1500,1468,2141,1948
196492,52544,4960,59448,59448,1618,2955,-382,755,950,394,1992,2073,36,-97,834,1063,1155,769,1124,1500,1468,2141,1948
197493,52740,5092,59916,59916,1875,3438,-329,804,896,399,3001,2543,38,-86,845,1084,1177,785,1145,1562,1523,2246,2029
198494,52936,5236,60384,60384,1881,3371,-307,928,778,684,1369,1948,39,-65,830,1084,1177,785,1145,1562,1523,2246,2029
199495,53132,5408,60852,60852,1888,3203,-283,741,854,370,2173,1372,41,-243,824,1084,1177,785,1145,1562,1523,2246,2029
200496,53296,5600,61320,61320,2095,3085,-365,770,865,837,3427,3542,34,-233,837,1084,1177,785,1145,1562,1523,2246,2029
201497,53492,5784,61788,61788,1902,3142,-370,797,815,357,2112,2140,23,-122,837,1084,1177,785,1145,1562,1523,2246,2029
202498,53672,5984,62256,62256,2009,3048,-318,791,782,999,2960,2618,28,-77,838,1084,1177,785,1145,1562,1523,2246,2029
203499,53860,6164,62724,62724,1966,3180,-347,797,757,1315,3450,3454,30,-97,839,1110,1213,797,1165,1530,1485,2194,1969
204500,54040,6352,63192,63192,2023,3137,-404,751,737,1266,3815,3314,24,-75,834,1110,1213,797,1165,1530,1485,2194,1969
205501,54212,6556,63660,63660,2080,3044,-494,822,706,1313,3926,3732,25,-90,835,1110,1213,797,1165,1530,1485,2194,1969
206502,54400,6728,64128,64128,1987,3251,-557,842,684,1034,4185,3429,33,-80,834,1110,1213,797,1165,1530,1485,2194,1969
207503,54548,6920,64596,64596,2245,3133,-609,897,695,945,3317,3656,15,-79,832,1110,1213,797,1165,1530,1485,2194,1969
208504,54712,7124,65064,65064,2152,3064,-643,912,730,1144,3429,3773,21,-129,831,1124,1227,791,1171,1445,1419,2103,1913
209505,54884,7312,65536,65536,2110,3171,-644,893,769,873,3466,4019,26,-78,833,1124,1227,791,1171,1445,1419,2103,1913
210506,55068,7504,66004,66004,2041,3153,-610,893,744,530,3163,3864,17,-77,833,1124,1227,791,1171,1445,1419,2103,1913
211507,55216,7712,66472,66472,2274,3059,-528,810,717,245,3152,3631,16,-81,835,1124,1227,791,1171,1445,1419,2103,1913
212508,55408,7984,66940,66940,2006,2664,-456,813,697,606,2324,3940,18,-90,836,1124,1227,791,1171,1445,1419,2103,1913
213509,55576,8236,67408,67408,2163,2794,-369,804,689,753,3557,3929,23,-75,849,1124,1227,791,1171,1445,1419,2103,1913
214510,55760,8484,67876,67876,2070,2825,-268,817,691,457,2063,3443,32,-25,841,1126,1227,802,1182,1492,1467,2168,1968
215511,55972,8716,68344,68344,1902,2930,-197,768,635,619,3015,3480,33,-43,843,1126,1227,802,1182,1492,1467,2168,1968
216512,56168,8932,68812,68812,2008,3036,-158,728,580,375,2972,3359,31,-47,843,1126,1227,802,1182,1492,1467,2168,1968
217513,56376,9152,69280,69280,1940,3017,-125,663,519,636,2958,2934,27,-44,839,1126,1227,802,1182,1492,1467,2168,1968
218516,56588,9396,69748,69748,1921,2873,-161,674,472,596,2782,3168,36,-67,840,1126,1227,802,1182,1492,1467,2168,1968
219515,56808,9700,70216,70216,1877,2502,-158,677,376,1255,3439,3049,43,-53,844,1152,1250,821,1215,1517,1489,2199,1971
220516,57036,10032,70684,70684,1833,2330,-181,724,356,956,3623,2236,42,-42,854,1152,1250,821,1215,1517,1489,2199,1971
221517,57252,10288,71152,71152,1914,2810,-223,797,334,1255,3329,3516,32,-9,859,1152,1250,821,1215,1517,1489,2199,1971
222518,57464,10540,71620,71620,1945,2841,-330,890,261,1705,3807,3529,46,0,844,1152,1250,821,1215,1517,1489,2199,1971
223519,57708,10788,72088,72088,1751,2871,-409,947,211,1156,3815,3061,46,-31,846,1152,1250,821,1215,1517,1489,2199,1971
224520,57968,11088,72556,72556,1656,2550,-433,937,146,1078,4037,3816,34,-28,849,1152,1250,821,1215,1517,1489,2199,1971
225521,58196,11420,73024,73024,1862,2354,-496,942,103,1185,3572,3686,50,-29,859,1147,1236,806,1191,1510,1493,2197,1971
226522,58448,11768,73492,73492,1717,2256,-551,1040,92,1064,3596,3791,44,0,859,1147,1236,806,1191,1510,1493,2197,1971
227523,58688,12108,73960,73960,1797,2310,-560,1164,112,837,3482,3395,48,22,863,1147,1236,806,1191,1510,1493,2197,1971
228524,58944,12460,74428,74428,1703,2237,-576,1295,75,1123,3268,3521,47,29,862,1147,1236,806,1191,1510,1493,2197,1971
229525,59240,12804,74896,74896,1457,2290,-587,1380,42,568,2832,3064,47,16,862,1147,1236,806,1191,1510,1493,2197,1971
230526,59520,13156,75364,75364,1561,2243,-611,1369,14,512,3135,3097,45,22,868,1081,1168,777,1138,1549,1521,2218,1992
231527,59804,13548,75832,75832,1541,1995,-620,1311,-28,642,2766,2978,56,28,869,1081,1168,777,1138,1549,1521,2218,1992
232528,60112,13980,76300,76300,1395,1746,-614,1330,-61,517,2831,2028,47,27,873,1081,1168,777,1138,1549,1521,2218,1992
233529,60412,14336,76768,76768,1449,2224,-581,1447,-110,601,2543,2458,60,46,879,1081,1168,777,1138,1549,1521,2218,1992
234530,60736,14760,77236,77236,1302,1800,-628,1527,-172,249,2559,1725,54,46,870,1081,1168,777,1138,1549,1521,2218,1992
235531,61044,15188,77704,77704,1406,1776,-736,1585,-223,918,2158,1898,53,46,880,1081,1168,777,1138,1549,1521,2218,1992
236532,61360,15648,78172,78172,1360,1576,-856,1547,-243,1211,2903,1240,71,54,880,1064,1153,780,1145,1547,1513,2179,1948
237533,61668,16048,78640,78640,1414,1953,-947,1563,-332,751,2366,922,63,65,885,1064,1153,780,1145,1547,1513,2179,1948
238534,62020,16532,79108,79108,1142,1427,-1027,1712,-464,668,2110,853,59,66,879,1064,1153,780,1145,1547,1513,2179,1948
239535,62404,16976,79576,79576,944,1678,-1128,1779,-533,1216,2411,527,60,52,889,1064,1153,780,1145,1547,1513,2179,1948
240536,62776,17436,80044,80044,1021,1578,-1183,1836,-588,1758,2414,317,74,70,887,1064,1153,780,1145,1547,1513,2179,1948
241537,63120,17924,80512,80512,1199,1403,-1266,1927,-668,1458,2083,105,62,77,890,1084,1163,782,1152,1491,1471,2104,1884
242538,63496,18420,80980,80980,1001,1352,-1354,2065,-729,1226,2068,402,78,77,892,1084,1163,782,1152,1491,1471,2104,1884
243539,63888,18888,81448,81448,903,1527,-1456,2141,-782,1643,2320,-71,66,95,894,1084,1163,782,1152,1491,1471,2104,1884
244540,64260,19444,81920,81920,1031,975,-1539,2241,-840,1779,2066,203,80,96,893,1084,1163,782,1152,1491,1471,2104,1884
245541,64612,20012,82388,82388,1158,897,-1646,2381,-910,1397,1916,-78,69,92,899,1084,1163,782,1152,1491,1471,2104,1884
246542,64992,20492,82856,82856,986,1447,-1724,2499,-972,1539,1802,-515,81,95,898,1084,1163,782,1152,1491,1471,2104,1884
247543,65388,21012,83324,83324,887,1196,-1777,2491,-1027,1256,1146,-303,68,106,895,1047,1117,750,1108,1448,1436,2044,1837
248544,65800,21612,83792,83792,789,693,-1828,2470,-1122,436,1094,-494,82,100,899,1047,1117,750,1108,1448,1436,2044,1837
249545,66200,22144,84260,84260,865,1116,-1825,2368,-1248,162,181,-871,94,104,904,1047,1117,750,1108,1448,1436,2044,1837
250546,66600,22672,84728,84728,867,1140,-1831,2209,-1415,148,230,-374,88,109,901,1047,1117,750,1108,1448,1436,2044,1837
251547,66996,23216,85196,85196,894,1038,-1853,2099,-1545,166,-188,-286,84,112,900,1047,1117,750,1108,1448,1436,2044,1837
252548,67444,23856,85664,85664,569,433,-1916,1933,-1621,222,58,-124,84,102,901,990,1062,720,1071,1442,1431,2040,1839
253549,67872,24460,86132,86132,695,655,-2020,1737,-1658,-45,-341,-735,84,103,910,990,1062,720,1071,1442,1431,2040,1839
254550,68260,25032,86600,86600,947,853,-2081,1588,-1773,294,163,-445,98,114,907,990,1062,720,1071,1442,1431,2040,1839
255551,68676,25588,87068,87068,774,950,-2245,1655,-1894,1210,-180,-751,87,113,903,990,1062,720,1071,1442,1431,2040,1839
256552,69092,26200,87536,87536,775,597,-2403,1578,-1950,2228,-407,-1058,80,95,903,990,1062,720,1071,1442,1431,2040,1839
257553,69532,26696,88004,88004,625,1321,-2611,1542,-2042,2321,-709,-586,83,115,905,990,1062,720,1071,1442,1431,2040,1839
258554,69932,27192,88472,88472,877,1321,-2739,1276,-2141,661,-683,261,92,102,900,1009,1099,731,1091,1455,1450,2119,1939
259555,70380,27712,88940,88940,578,1169,-2929,1107,-2240,1520,-1773,694,86,102,898,1009,1099,731,1091,1455,1450,2119,1939
260556,70800,28192,89408,89408,754,1419,-3087,903,-2287,1801,-2256,1325,96,91,902,1009,1099,731,1091,1455,1450,2119,1939
261557,71180,28676,89876,89876,1006,1394,-3196,1193,-2285,984,-2143,2363,91,94,898,1009,1099,731,1091,1455,1450,2119,1939
262558,71672,29132,90344,90344,305,1569,-3121,1086,-2312,1004,-1426,1652,89,88,896,1009,1099,731,1091,1455,1450,2119,1939
263559,72080,29604,90812,90812,832,1469,-3092,896,-2324,-773,-2175,3227,98,98,898,1055,1168,754,1110,1541,1512,2292,2100
264560,72512,30068,91280,91280,683,1519,-3057,595,-2403,-767,-1644,2568,90,84,896,1055,1168,754,1110,1541,1512,2292,2100
265561,72928,30504,91748,91748,784,1695,-3087,304,-2437,-1526,-3147,3458,91,97,896,1055,1168,754,1110,1541,1512,2292,2100
266562,73356,30908,92216,92216,710,1896,-3066,76,-2442,-574,-3545,4441,85,87,893,1055,1168,754,1110,1541,1512,2292,2100
267563,73784,31300,92684,92684,711,1973,-3010,-224,-2256,-437,-2800,5097,88,78,891,1055,1168,754,1110,1541,1512,2292,2100
268568,74172,31708,93152,93152,963,1875,-3017,-627,-2130,-1358,-3426,6188,96,57,889,1055,1168,754,1110,1541,1512,2292,2100
269565,74580,32060,93620,93620,839,2227,-3169,-793,-2170,-2660,-3543,7908,89,65,889,1114,1253,784,1184,1577,1539,2408,2156
270566,74924,32392,94088,94088,1242,2356,-3122,-1010,-2186,-2101,-2960,7032,75,52,883,1114,1253,784,1184,1577,1539,2408,2156
271567,75328,32724,94556,94556,869,2359,-3056,-1297,-2216,-1148,-3006,8837,81,46,876,1114,1253,784,1184,1577,1539,2408,2156
272568,75736,33024,95024,95024,845,2563,-3011,-1542,-2214,-1723,-3449,8680,80,42,879,1114,1253,784,1184,1577,1539,2408,2156
273569,76088,33308,95492,95492,1198,2668,-3006,-1660,-2135,-702,-4038,10389,77,25,874,1114,1253,784,1184,1577,1539,2408,2156
274570,76448,33588,95960,95960,1151,2697,-2977,-1778,-2019,-1180,-4253,9260,68,17,866,1262,1430,846,1320,1589,1571,2557,2281
275571,76776,33868,96428,96428,1354,2702,-2907,-1705,-1986,-2217,-4072,10753,74,3,868,1262,1430,846,1320,1589,1571,2557,2281
276572,77112,34100,96896,96896,1308,3008,-2806,-1595,-1889,-1553,-5168,10489,57,-7,861,1262,1430,846,1320,1589,1571,2557,2281
277573,77400,34316,97364,97364,1612,3114,-2723,-1508,-1722,-898,-5183,10748,62,-15,859,1262,1430,846,1320,1589,1571,2557,2281
278574,77700,34528,97832,97832,1541,3145,-2629,-1391,-1548,-1375,-5121,10524,57,-44,850,1262,1430,846,1320,1589,1571,2557,2281
279575,78004,34728,98304,98304,1520,3227,-2600,-1416,-1381,-2347,-6082,10849,61,-76,844,1470,1669,846,1320,1589,1571,2557,2281
280576,78296,34908,98772,98772,1599,3359,-2585,-1484,-1147,-3521,-6028,10417,62,-74,847,1470,1669,931,1492,1647,1647,2767,2389
281577,78576,35072,99240,99240,1679,3466,-2658,-1304,-1013,-2853,-5676,10071,43,-111,841,1470,1669,931,1492,1647,1647,2767,2389
282578,78816,35220,99708,99708,1935,3574,-2716,-1077,-930,-1850,-5274,8979,54,-173,837,1470,1669,931,1492,1647,1647,2767,2389
283579,79072,35376,100176,100176,1840,3532,-2695,-1142,-752,-3219,-5651,8918,37,-248,830,1470,1669,931,1492,1647,1647,2767,2389
284580,79268,35504,100644,100644,2221,3715,-2682,-1417,-551,-3937,-6897,8715,43,-259,831,1470,1669,931,1492,1647,1647,2767,2389
285581,79476,35644,101112,101112,2153,3648,-2746,-1618,-371,-4387,-6418,10355,44,-299,820,1554,1708,944,1528,1696,1702,2804,2326
286582,79704,35764,101580,101580,2034,3781,-2763,-1660,-229,-4456,-7419,9213,24,-8,822,1554,1708,944,1528,1696,1702,2804,2326
287583,79876,35924,102048,102048,2391,3539,-2793,-1492,-154,-3809,-7148,9401,29,-156,815,1554,1708,944,1528,1696,1702,2804,2326
288584,80048,36040,102516,102516,2398,3800,-2814,-1276,-52,-3460,-7419,9006,25,210,821,1554,1708,944,1528,1696,1702,2804,2326
289585,80228,36152,102984,102984,2355,3800,-2873,-1187,52,-2453,-7827,8007,13,-300,812,1554,1708,944,1528,1696,1702,2804,2326
290586,80412,36280,103452,103452,2337,3764,-2970,-1180,172,-2308,-7489,8700,21,264,809,1317,1422,833,1305,1676,1666,2591,2189
291587,80564,36424,103920,103920,2545,3672,-3099,-1132,238,-1872,-8192,7986,18,255,810,1317,1422,833,1305,1676,1666,2591,2189
292588,80704,36552,104388,104388,2628,3781,-3249,-1035,294,-1803,-8113,7777,8,152,810,1317,1422,833,1305,1676,1666,2591,2189
293589,80848,36656,104856,104856,2611,3800,-3396,-794,318,-1556,-7655,7521,5,-121,803,1317,1422,833,1305,1676,1666,2591,2189
294590,80988,36748,105324,105324,2644,3800,-3515,-557,337,-996,-7985,7095,2,213,804,1317,1422,833,1305,1676,1666,2591,2189
295591,81144,36836,105792,105792,2551,3800,-3604,-364,429,-1107,-7755,6491,-9,248,802,1317,1422,833,1305,1676,1666,2591,2189
296592,81276,36928,106260,106260,2709,3800,-3712,-262,494,-1198,-7978,6451,-8,257,804,1106,1196,748,1150,1640,1634,2446,2104
297593,81404,37004,106728,106728,2743,3800,-3810,-233,549,-1655,-7845,5548,7,232,791,1106,1196,748,1150,1640,1634,2446,2104
298594,81532,37108,107196,107196,2751,3800,-3934,-251,617,-1154,-7710,4777,-6,266,800,1106,1196,748,1150,1640,1634,2446,2104
299595,81684,37200,107664,107664,2609,3800,-4112,-318,705,-1426,-7908,4014,-20,266,801,1106,1196,748,1150,1640,1634,2446,2104
300596,81820,37312,108132,108132,2717,3800,-4340,-321,708,-1307,-7295,3174,-10,235,800,1106,1196,748,1150,1640,1634,2446,2104
301597,81968,37428,108600,108600,2650,3800,-4546,-287,686,-1219,-7408,2589,-10,272,801,1066,1160,746,1170,1598,1598,2398,2060
302598,82100,37560,109068,109068,2758,3800,-4760,-174,678,-660,-6890,2826,-12,261,801,1066,1160,746,1170,1598,1598,2398,2060
303599,82228,37664,109536,109536,2791,3800,-4929,-117,663,-201,-6649,2584,-18,260,792,1066,1160,746,1170,1598,1598,2398,2060
304600,82360,37820,110004,110004,2774,3712,-5074,-48,648,-111,-6304,3182,-18,245,799,1066,1160,746,1170,1598,1598,2398,2060
305601,82468,37964,110472,110472,2933,3795,-5171,123,598,821,-6766,3039,-20,273,801,1066,1160,746,1170,1598,1598,2398,2060
306602,82592,38124,110940,110940,2842,3702,-5245,407,524,732,-6355,3796,-34,-36,793,1066,1160,746,1170,1598,1598,2398,2060
307603,82712,38252,111408,111408,2875,3800,-5297,817,408,662,-6111,3791,-47,253,801,1119,1221,765,1202,1532,1524,2309,2005
308604,82840,38412,111876,111876,2833,3718,-5308,1212,289,1070,-6538,3775,-38,-41,786,1119,1221,765,1202,1532,1524,2309,2005
309605,82968,38556,112344,112344,2842,3800,-5265,1441,231,637,-6328,4301,-28,239,801,1119,1221,765,1202,1532,1524,2309,2005
310606,83132,38728,112812,112812,2624,3658,-5239,1501,166,1434,-6056,4659,-20,30,800,1119,1221,765,1202,1532,1524,2309,2005
311607,83280,38912,113280,113280,2732,3590,-5251,1513,160,533,-6863,4199,-21,253,807,1119,1221,765,1202,1532,1524,2309,2005
312608,83440,39124,113748,113748,2664,3421,-5215,1477,121,-228,-6374,4450,5,-134,810,1134,1217,759,1231,1432,1452,2159,1875
313609,83600,39352,114216,114216,2672,3327,-5140,1428,52,79,-6349,4602,-8,-244,817,1134,1217,759,1231,1432,1452,2159,1875
314610,83800,39584,114688,114688,2429,3308,-5093,1500,-42,381,-6178,5145,-1,-235,821,1134,1217,759,1231,1432,1452,2159,1875
315611,83968,39824,115156,115156,2636,3264,-5067,1606,-109,-477,-5950,4946,2,-150,826,1134,1217,759,1231,1432,1452,2159,1875
316612,84140,40056,115624,115624,2618,3319,-5034,1686,-193,152,-5926,5188,15,-150,821,1134,1217,759,1231,1432,1452,2159,1875
317613,84308,40316,116092,116092,2650,3150,-4977,1594,-273,-180,-5330,5451,8,-84,821,1134,1217,759,1231,1432,1452,2159,1875
318614,84516,40596,116560,116560,2407,3029,-4908,1484,-340,29,-5530,5753,1,-113,825,1201,1277,790,1314,1376,1440,2159,1845
319615,84716,40860,117028,117028,2463,3134,-4853,1442,-439,491,-5979,5068,-9,-49,831,1201,1277,790,1314,1376,1440,2159,1845
320616,84892,41144,117496,117496,2620,3014,-4770,1455,-579,46,-4864,5516,18,-43,829,1201,1277,790,1314,1376,1440,2159,1845
321617,85064,41428,117964,117964,2653,3018,-4611,1484,-704,595,-5167,4426,2,-54,831,1201,1277,790,1314,1376,1440,2159,1845
322618,85252,41768,118432,118432,2560,2671,-4468,1508,-782,2254,-5132,4755,-2,-29,826,1201,1277,790,1314,1376,1440,2159,1845
323619,85460,42092,118900,118900,2441,2775,-4379,1581,-864,1261,-6051,4448,-3,-29,841,1271,1361,821,1361,1430,1474,2268,1968
324620,85668,42416,119368,119368,2447,2778,-4291,1672,-993,661,-4615,4545,18,3,840,1271,1361,821,1361,1430,1474,2268,1968
325621,85872,42728,119836,119836,2479,2857,-4142,1789,-1057,1503,-5904,3411,24,-7,839,1271,1361,821,1361,1430,1474,2268,1968
326622,86116,43132,120304,120304,2234,2284,-4026,1921,-1090,1617,-4717,3932,36,8,838,1271,1361,821,1361,1430,1474,2268,1968
327623,86368,43512,120772,120772,2189,2436,-3983,1935,-1161,273,-5860,3623,26,-7,852,1271,1361,821,1361,1430,1474,2268,1968
328624,86620,43896,121240,121240,2195,2413,-3958,1992,-1220,-66,-4934,3473,36,45,853,1271,1361,821,1361,1430,1474,2268,1968
329625,86852,44284,121708,121708,2325,2390,-3847,1967,-1232,326,-4949,2902,37,31,854,1288,1404,822,1306,1426,1421,2208,1963
330626,87104,44684,122176,122176,2206,2316,-3802,2019,-1259,317,-4037,3512,37,28,851,1288,1404,822,1306,1426,1421,2208,1963
331627,87352,45084,122644,122644,2236,2318,-3722,1937,-1274,401,-4514,3196,27,37,856,1288,1404,822,1306,1426,1421,2208,1963
332628,87604,45520,123112,123112,2216,2094,-3691,1863,-1254,-158,-4745,2795,31,52,853,1288,1404,822,1306,1426,1421,2208,1963
333629,87880,45944,123580,123580,2071,2170,-3636,1682,-1277,-215,-4239,3417,46,57,863,1288,1404,822,1306,1426,1421,2208,1963
334630,88156,46508,124048,124048,2076,1293,-3571,1564,-1319,-225,-4180,3183,38,58,863,1182,1299,769,1174,1377,1347,2059,1885
335631,88412,47016,124516,124516,2206,1642,-3507,1492,-1372,174,-3945,3644,47,68,874,1182,1299,769,1174,1377,1347,2059,1885
336632,88736,47504,124984,124984,1784,1766,-3412,1419,-1412,-30,-3640,3473,47,76,869,1182,1299,769,1174,1377,1347,2059,1885
337633,89096,48052,125452,125452,1562,1389,-3382,1119,-1402,383,-3788,1772,39,78,875,1182,1299,769,1174,1377,1347,2059,1885
338634,89428,48616,125920,125920,1740,1287,-3368,379,-1528,240,-391,-288,70,82,884,1182,1299,769,1174,1377,1347,2059,1885
339635,89812,49116,126388,126388,1417,1686,-3453,642,-1826,-280,-348,3818,79,91,883,1182,1299,769,1174,1377,1347,2059,1885
340636,90220,49688,126856,126856,1269,1233,-3387,1318,-1904,2084,-2951,2471,74,81,883,1085,1200,734,1105,1369,1337,2019,1875
341637,90668,50216,127324,127324,1019,1507,-3101,1734,-1634,1150,-3845,2923,76,81,890,1085,1200,734,1105,1369,1337,2019,1875
342638,91196,50800,127792,127792,518,1154,-2765,1570,-1581,-149,-882,3166,93,95,889,1085,1200,734,1105,1369,1337,2019,1875
343639,91672,51356,128260,128260,843,1327,-2674,1511,-1656,-833,-1461,3428,93,103,900,1085,1200,734,1105,1369,1337,2019,1875
344640,92176,51924,128728,128728,667,1250,-2637,1531,-1604,-146,-974,1191,102,109,896,1085,1200,734,1105,1369,1337,2019,1875
345641,92696,52504,129196,129196,566,1172,-2553,1560,-1556,234,-894,1265,94,95,898,1093,1200,760,1158,1372,1371,2015,1801
346642,93176,53152,129664,129664,815,742,-2339,1459,-1585,841,-1037,1514,105,115,901,1093,1200,760,1158,1372,1371,2015,1801
347643,93696,53672,130132,130132,564,1541,-2142,1205,-1575,-914,-115,1672,101,106,903,1093,1200,760,1158,1372,1371,2015,1801
348644,94200,54248,130600,130600,663,1189,-1935,856,-1687,-1403,57,1135,110,118,896,1093,1200,760,1158,1372,1371,2015,1801
349645,94732,54856,131072,131072,487,985,-1802,463,-1843,-1196,-273,818,113,104,900,1093,1200,760,1158,1372,1371,2015,1801
350646,95328,55420,131540,131540,84,1258,-1776,167,-1886,258,270,1908,106,110,903,1093,1200,760,1158,1372,1371,2015,1801
351647,95784,55968,132008,132008,959,1356,-1768,-158,-1867,422,690,785,96,119,903,1207,1284,817,1288,1313,1326,1936,1715
352648,96392,56536,132476,132476,5,1229,-1685,-546,-2037,420,1870,795,109,104,896,1207,1284,817,1288,1313,1326,1936,1715
353649,96908,57188,132944,132944,579,699,-1521,-954,-2093,-1798,323,1425,119,122,904,1207,1284,817,1288,1313,1326,1936,1715
354650,97448,57648,133412,133412,428,1899,-1607,-1052,-2106,-2479,962,17,117,105,906,1207,1284,817,1288,1313,1326,1936,1715
355651,97976,58140,133880,133880,501,1699,-1633,-1130,-2095,367,-478,1232,95,117,891,1207,1284,817,1288,1313,1326,1936,1715
356652,98516,58660,134348,134348,424,1522,-1503,-1386,-1931,931,-975,-106,118,89,896,1250,1333,818,1240,1297,1284,1928,1808
357653,99068,59196,134816,134816,347,1421,-1379,-1582,-1913,537,89,2128,116,105,898,1250,1333,818,1240,1297,1284,1928,1808
358654,99604,59704,135284,135284,446,1595,-1133,-1635,-1994,256,-282,2535,114,111,900,1250,1333,818,1240,1297,1284,1928,1808
359655,100148,60196,135752,135752,394,1694,-885,-1679,-2003,228,-670,1714,96,104,894,1250,1333,818,1240,1297,1284,1928,1808
360656,100624,60652,136220,136220,819,1919,-611,-1747,-2089,663,2147,2221,106,111,896,1250,1333,818,1240,1297,1284,1928,1808
361657,101236,61152,136688,136688,-35,1644,-270,-2048,-2183,1263,241,837,108,92,889,1250,1333,818,1240,1297,1284,1928,1808
362658,101796,61584,137156,137156,288,2070,61,-2337,-2127,157,283,518,102,88,895,1105,1230,752,1079,1372,1315,2001,1917
363659,102312,62024,137624,137624,562,2020,341,-2642,-1999,375,242,119,116,105,892,1105,1230,752,1079,1372,1315,2001,1917
364660,102800,62432,138092,138092,736,2222,607,-2857,-2025,520,1004,1475,122,96,889,1105,1230,752,1079,1372,1315,2001,1917
365661,103288,62888,138560,138560,736,1922,912,-2955,-2124,1125,999,1370,113,88,885,1105,1230,752,1079,1372,1315,2001,1917
366662,103876,63284,139028,139028,108,2299,1193,-2907,-2219,2316,512,2335,110,73,889,1105,1230,752,1079,1372,1315,2001,1917
367663,104440,63680,139496,139496,255,2300,1481,-2855,-2209,633,2083,2436,118,82,887,1075,1234,748,1086,1279,1218,1851,1767
368664,104936,64080,139964,139964,680,2277,1684,-2871,-2253,1177,1926,2284,124,85,885,1075,1234,748,1086,1279,1218,1851,1767
369665,105428,64488,140432,140432,704,2229,1815,-3114,-2298,1593,1697,408,112,64,883,1075,1234,748,1086,1279,1218,1851,1767
370666,106028,64860,140900,140900,26,2456,1912,-3421,-2302,2242,2755,821,117,71,883,1075,1234,748,1086,1279,1218,1851,1767
371667,106588,65224,141368,141368,274,2508,1929,-3450,-2229,77,269,677,114,70,883,1075,1234,748,1086,1279,1218,1851,1767
372668,107084,65600,141836,141836,673,2436,2011,-3616,-2315,-770,2927,684,113,58,882,1075,1234,748,1086,1279,1218,1851,1767
373669,107616,66004,142304,142304,446,2262,2226,-4008,-2322,340,1541,264,118,41,879,1245,1397,824,1254,1183,1177,1786,1664
374670,108136,66368,142772,142772,520,2515,2413,-4318,-2285,958,303,1558,97,42,882,1245,1397,824,1254,1183,1177,1786,1664
375671,108700,66688,143240,143240,243,2793,2647,-4759,-2189,-1876,1837,929,104,54,878,1245,1397,824,1254,1183,1177,1786,1664
376672,109200,67008,143708,143708,642,2797,2989,-5124,-2197,-126,1351,791,116,24,871,1245,1397,824,1254,1183,1177,1786,1664
377673,109664,67352,144176,144176,867,2650,3299,-5292,-2133,537,-500,833,100,-2,871,1245,1397,824,1254,1183,1177,1786,1664
378674,110164,67684,144644,144644,641,2728,3700,-5571,-2024,-1018,853,308,94,5,870,1295,1388,844,1266,1282,1278,1913,1769
379675,110660,68024,145112,145112,666,2682,4061,-5373,-1972,-407,1089,2586,95,20,870,1295,1388,844,1266,1282,1278,1913,1769
380676,111180,68340,145580,145580,514,2835,4564,-5351,-1943,727,781,661,96,1,870,1295,1388,844,1266,1282,1278,1913,1769
381677,111596,68676,146048,146048,1166,2713,4934,-5274,-1962,1533,761,2036,87,5,868,1295,1388,844,1266,1282,1278,1913,1769
382678,112060,69028,146516,146516,866,2616,5296,-5351,-1963,1306,1488,2380,95,-9,866,1295,1388,844,1266,1282,1278,1913,1769
383679,112484,69348,146984,146984,1117,2820,5525,-5379,-1904,443,3631,2135,74,-5,871,1295,1388,844,1266,1282,1278,1913,1769
384680,112924,69696,147456,147456,1018,2648,5795,-5207,-1872,1780,2845,2047,94,5,864,1161,1252,786,1159,1313,1295,1899,1721
385681,113312,70016,147924,147924,1345,2827,5976,-4797,-1770,448,3093,2472,78,-6,865,1161,1252,786,1159,1313,1295,1899,1721
386682,113692,70344,148392,148392,1397,2780,6147,-4757,-1726,-39,4114,426,76,10,860,1161,1252,786,1159,1313,1295,1899,1721
387683,114060,70672,148860,148860,1474,2783,6270,-4810,-1631,-609,3347,925,77,-19,860,1161,1252,786,1159,1313,1295,1899,1721
388684,114460,71012,149328,149328,1276,2712,6368,-4950,-1463,-784,4343,274,77,-1,855,1161,1252,786,1159,1313,1295,1899,1721
389685,114832,71332,149796,149796,1453,2840,6460,-5005,-1453,1355,3134,-104,80,-14,864,1110,1184,763,1175,1274,1291,1843,1623
390686,115208,71688,150264,150264,1430,2618,6608,-4917,-1283,-382,2902,895,69,-11,860,1110,1184,763,1175,1274,1291,1843,1623
391687,115584,72008,150732,150732,1433,2846,6728,-4612,-1188,-1553,3085,670,61,-21,862,1110,1184,763,1175,1274,1291,1843,1623
392688,115928,72348,151200,151200,1636,2725,6957,-4459,-1153,-2018,3050,-590,58,15,858,1110,1184,763,1175,1274,1291,1843,1623
393692,116240,72748,151668,151668,1839,2351,7205,-4352,-1030,-230,1588,-294,65,-10,856,1110,1184,763,1175,1274,1291,1843,1623
394690,116608,73108,152136,152136,1492,2604,7432,-4246,-815,-836,1940,-95,60,3,859,1110,1184,763,1175,1274,1291,1843,1623
395691,116932,73440,152604,152604,1770,2782,7738,-4184,-817,474,1606,1178,66,18,863,1110,1151,781,1205,1323,1360,1866,1624
396692,117208,73868,153072,153072,2075,2183,7989,-4202,-522,-2728,1467,542,68,7,858,1110,1151,781,1205,1323,1360,1866,1624
397693,117492,74300,153540,153540,2030,2159,8103,-3944,-711,1138,791,-1191,60,-10,863,1110,1151,781,1205,1323,1360,1866,1624
398694,117812,74664,154008,154008,1808,2587,8238,-3460,-735,325,3675,552,54,41,863,1110,1151,781,1205,1323,1360,1866,1624
399695,118108,75016,154476,154476,1962,2664,8386,-2770,-461,396,790,549,57,29,855,1110,1151,781,1205,1323,1360,1866,1624
400696,118404,75484,154944,154944,1967,1939,8396,-2187,-351,-1293,4551,-2207,52,13,855,1119,1140,794,1226,1351,1400,1887,1612
401697,118716,75884,155412,155412,1870,2366,8247,-1511,-438,-325,3927,-1579,46,12,868,1119,1140,794,1226,1351,1400,1887,1612
402698,119088,76244,155880,155880,1498,2619,8266,-1675,-243,663,3683,-5184,61,45,864,1119,1140,794,1226,1351,1400,1887,1612
403699,119484,76568,156348,156348,1350,2847,8103,-1776,-68,1901,3908,-1609,58,25,864,1119,1140,794,1226,1351,1400,1887,1612
404700,119868,77000,156816,156816,1427,2173,7858,-1999,108,-79,3350,-4099,65,4,862,1119,1140,794,1226,1351,1400,1887,1612
405701,120284,77420,157284,157284,1228,2249,7549,-1529,219,-1293,4358,-2116,83,-17,872,1119,1140,794,1226,1351,1400,1887,1612
406702,120724,77820,157752,157752,1079,2376,7522,-1083,320,-1463,3238,-3548,73,46,874,1071,1065,754,1163,1403,1459,1939,1663
407703,121184,78200,158220,158220,954,2503,7534,-979,522,-1231,2850,-2439,98,46,873,1071,1065,754,1163,1403,1459,1939,1663
408704,121712,78668,158688,158688,527,1953,7484,-892,675,-1183,1991,-1071,92,43,873,1071,1065,754,1163,1403,1459,1939,1663
409705,122192,79132,159156,159156,827,1978,7450,-434,747,-631,2322,-2276,103,38,887,1071,1065,754,1163,1403,1459,1939,1663
410706,122684,79564,159624,159624,751,2179,7658,73,838,118,996,-2183,106,55,884,1071,1065,754,1163,1403,1459,1939,1663
411707,123148,79976,160092,160092,926,2305,7930,459,944,698,397,-945,104,51,882,909,929,680,994,1519,1513,1980,1741
412708,123608,80496,160560,160560,952,1629,8105,913,996,356,693,424,108,51,879,909,929,680,994,1519,1513,1980,1741
413709,124208,80952,161028,161028,73,2029,8259,1397,977,505,1182,-826,104,43,889,909,929,680,994,1519,1513,1980,1741
414710,124760,81376,161496,161496,371,2231,8444,1646,992,862,1937,-1571,102,72,889,909,929,680,994,1519,1513,1980,1741
415711,125332,81844,161964,161964,244,1956,8433,1818,1042,737,2200,-994,119,55,885,909,929,680,994,1519,1513,1980,1741
416712,125828,82364,162432,162432,718,1629,8242,1867,1140,-301,3037,-2584,123,49,890,909,929,680,994,1519,1513,1980,1741
417713,126432,82828,162900,162900,40,1979,7927,2112,1224,81,3407,-3506,114,73,892,888,937,690,1035,1390,1389,1845,1611
418714,126980,83268,163368,163368,388,2130,7606,2128,1350,579,2434,-5065,108,79,888,888,937,690,1035,1390,1389,1845,1611
419715,127492,83772,163840,163840,612,1729,7251,2294,1447,393,2822,-3861,120,65,889,888,937,690,1035,1390,1389,1845,1611
420716,128072,84320,164308,164308,184,1452,6913,2525,1528,292,2630,-4598,104,66,893,888,937,690,1035,1390,1389,1845,1611
421717,128624,84804,164776,164776,357,1852,6639,2734,1655,1038,2101,-4310,108,81,898,888,937,690,1035,1390,1389,1845,1611
422718,129280,85412,165244,165244,-297,1074,6418,2967,1815,1244,1645,-4218,102,81,893,1067,1104,770,1188,1336,1381,1898,1687
423719,129892,85884,165712,165712,-26,1923,6132,3229,2051,1724,1836,-3322,110,85,902,1067,1104,770,1188,1336,1381,1898,1687
424720,130484,86452,166180,166180,96,1321,5734,3771,2355,4193,2621,-1413,106,105,895,1067,1104,770,1188,1336,1381,1898,1687
425721,131020,87060,166648,166648,444,1068,5006,4665,2629,6085,3671,2994,100,83,902,1067,1104,770,1188,1336,1381,1898,1687
426722,131568,87636,167116,167116,367,1265,4246,5731,2853,6402,2182,4047,110,102,903,1067,1104,770,1188,1336,1381,1898,1687
427723,132152,88252,167584,167584,140,1011,3838,7094,2916,6603,1943,7122,114,112,901,1067,1104,770,1188,1336,1381,1898,1687
428724,132724,89124,168052,168052,212,-599,3669,8324,2978,5994,414,8729,111,117,906,1017,1048,733,1045,1631,1641,2307,2097
429725,133324,89776,168520,168520,34,772,3747,9073,3040,4175,-619,7812,118,125,907,1017,1048,733,1045,1631,1641,2307,2097
430726,133904,90368,168988,168988,156,1144,3864,9507,3023,1654,-1106,5382,124,121,909,1017,1048,733,1045,1631,1641,2307,2097
431727,134488,90968,169456,169456,128,1091,3907,9570,3261,-2228,928,4183,124,134,906,1017,1048,733,1045,1631,1641,2307,2097
432728,135076,91644,169924,169924,100,611,3560,9654,3461,632,1077,5340,121,124,906,1017,1048,733,1045,1631,1641,2307,2097
433729,135640,92268,170392,170392,248,932,2997,9669,3546,1268,2184,5732,121,126,911,860,913,713,1060,2343,2349,3051,2428
434730,136236,92896,170860,170860,45,903,2530,9815,3671,196,1747,6016,144,137,908,860,913,713,1060,2343,2349,3051,2428
435731,136792,93396,171328,171328,293,1702,1956,9775,3856,-1341,2972,7342,119,135,909,860,913,713,1060,2343,2349,3051,2428
436732,137456,94144,171796,171796,-387,145,1218,9051,3878,-2756,3960,8512,124,150,900,860,913,713,1060,2343,2349,3051,2428
437733,138052,94760,172264,172264,35,967,207,7738,3750,-5526,7253,12663,141,141,910,860,913,713,1060,2343,2349,3051,2428
438734,138596,95304,172732,172732,358,1415,-1380,6972,3352,-3200,3765,16728,123,141,908,860,913,713,1060,2343,2349,3051,2428
439735,139104,95952,173200,173200,582,760,-2605,6360,2923,695,792,15733,116,140,901,1005,1053,824,1300,2453,2512,3451,2887
440736,139584,96572,173668,173668,757,932,-3138,6093,2568,6378,-1924,15944,126,129,906,1005,1053,824,1300,2453,2512,3451,2887
441737,140112,97112,174136,174136,455,1430,-3347,6440,2515,9206,1502,17406,117,123,904,1005,1053,824,1300,2453,2512,3451,2887
442738,140692,97596,174604,174604,127,1780,-3768,6882,2613,11873,-698,20536,117,114,900,1005,1053,824,1300,2453,2512,3451,2887
443740,141260,98112,175072,175072,200,1578,-4196,6847,2703,7935,-3864,19852,110,105,896,1005,1053,824,1300,2453,2512,3451,2887
444740,141800,98516,175540,175540,373,2280,-4293,7166,2380,7038,-1603,23691,121,78,895,1176,1333,943,1277,2966,2754,4026,4029
445741,142372,98864,176008,176008,171,2633,-4049,7177,1997,6271,-2560,17238,108,75,884,1176,1333,943,1277,2966,2754,4026,4029
446742,142812,99184,176476,176476,996,2812,-3865,7290,1530,6861,5,21482,101,41,878,1176,1333,943,1277,2966,2754,4026,4029
447743,143244,99524,176944,176944,1047,2690,-3933,7210,1245,5430,434,19880,96,18,868,1176,1333,943,1277,2966,2754,4026,4029
448744,143652,99808,177412,177412,1199,3044,-4178,6770,1144,3195,997,18961,97,-3,866,1176,1333,943,1277,2966,2754,4026,4029
449745,144012,100080,177880,177880,1501,3124,-4322,5992,1019,91,1968,16084,80,13,851,1176,1333,943,1277,2966,2754,4026,4029
450746,144376,100340,178348,178348,1479,3204,-4462,4594,787,-3201,4402,15611,80,-45,850,1421,1866,1047,1433,2311,1991,3800,3754
451747,144728,100612,178816,178816,1557,3134,-4658,2828,459,-4258,4778,15200,64,-61,847,1421,1866,1047,1433,2311,1991,3800,3754
452748,145016,100844,179284,179284,1961,3390,-4908,1297,168,-4370,5626,15077,50,-82,843,1421,1866,1047,1433,2311,1991,3800,3754
453749,145292,101088,179752,179752,2041,3320,-5150,374,13,-2060,4916,16115,50,-76,838,1421,1866,1047,1433,2311,1991,3800,3754
454750,145520,101356,180224,180224,2347,3175,-5184,-254,-13,-456,4964,15477,44,-194,838,1421,1866,1047,1433,2311,1991,3800,3754
455751,145780,101632,180692,180692,2152,3130,-5090,-694,-85,1419,4740,16181,44,-145,834,1920,2580,1092,1616,1532,1366,2619,2779
456752,146008,101928,181160,181160,2358,3009,-4973,-962,-144,3403,4009,15757,25,-58,837,1920,2580,1092,1616,1532,1366,2619,2779
457753,146252,102212,181628,181628,2263,3088,-4838,-1078,-114,4409,3157,15784,27,-53,838,1920,2580,1092,1616,1532,1366,2619,2779
458754,146484,102488,182096,182096,2344,3143,-4629,-1094,-110,4575,2279,15326,24,-33,837,1920,2580,1092,1616,1532,1366,2619,2779
459755,146732,102820,182564,182564,2249,2796,-4313,-939,-180,5195,2510,14535,29,-36,837,1920,2580,1092,1616,1532,1366,2619,2779
460756,146952,103172,183032,183032,2430,2674,-3891,-899,-278,5643,41,12848,19,-37,843,1920,2580,1092,1616,1532,1366,2619,2779
461757,147172,103552,183500,183500,2436,2501,-3408,-1204,-347,3333,-41,12701,24,14,845,1858,2376,1024,1460,1398,1315,2304,2284
462758,147436,103920,183968,183968,2166,2579,-2929,-1979,-457,1304,-1091,11527,23,17,846,1858,2376,1024,1460,1398,1315,2304,2284
463759,147720,104284,184436,184436,2046,2606,-2487,-2965,-596,-735,-3010,10034,25,28,851,1858,2376,1024,1460,1398,1315,2304,2284
464760,148048,104612,184904,184904,1774,2835,-2012,-4023,-700,-1466,-2920,8199,46,24,852,1858,2376,1024,1460,1398,1315,2304,2284
465761,148336,104936,185372,185372,2029,2863,-1590,-4858,-803,-2751,-3105,6502,45,14,853,1858,2376,1024,1460,1398,1315,2304,2284
466762,148616,105260,185840,185840,2083,2867,-1135,-5453,-1058,-3943,-2028,6063,45,-5,849,1540,1692,955,1420,1470,1440,2139,1864
467763,148952,105644,186308,186308,1737,2494,-662,-6219,-1369,-7359,-108,5557,43,-1,844,1540,1692,955,1420,1470,1440,2139,1864
468764,149280,106012,186776,186776,1790,2596,-453,-6944,-1733,-4322,966,5547,48,-5,860,1540,1692,955,1420,1470,1440,2139,1864
469765,149660,106404,187244,187244,1467,2448,-524,-7063,-1763,-2464,2472,7212,57,29,860,1540,1692,955,1420,1470,1440,2139,1864
470766,150040,106824,187712,187712,1469,2274,-585,-6831,-1611,-3246,1769,6080,73,20,866,1540,1692,955,1420,1470,1440,2139,1864
471767,150420,107296,188180,188180,1471,1949,-426,-6485,-1477,-5154,3607,6554,72,46,871,1540,1692,955,1420,1470,1440,2139,1864
472768,150776,107728,188648,188648,1624,2200,-155,-6066,-1379,-1662,2189,5240,79,47,877,1278,1309,826,1269,1347,1368,1960,1747
473769,151116,108140,189116,189116,1727,2326,96,-5553,-1231,-576,3422,6636,67,74,872,1278,1309,826,1269,1347,1368,1960,1747
474770,151520,108612,189584,189584,1329,1951,507,-5235,-1048,-2888,3259,6776,87,54,870,1278,1309,826,1269,1347,1368,1960,1747
475771,151936,109164,190052,190052,1255,1449,807,-4825,-833,-1823,2376,6551,92,53,878,1278,1309,826,1269,1347,1368,1960,1747
476772,152336,109720,190520,190520,1357,1422,963,-4055,-626,-2333,2608,5102,89,84,889,1278,1309,826,1269,1347,1368,1960,1747
477773,152748,110248,190988,190988,1283,1596,1155,-3112,-536,-1936,2884,3111,89,91,888,1095,1167,753,1167,1338,1354,1970,1762
478774,153196,110788,191456,191456,1059,1519,1380,-2576,-682,-1690,3502,1243,92,82,886,1095,1167,753,1167,1338,1354,1970,1762
479775,153624,111400,191924,191924,1185,1065,1409,-2565,-855,-1271,2437,789,86,88,891,1095,1167,753,1167,1338,1354,1970,1762
480776,154072,111988,192392,192392,1060,1212,1284,-2921,-847,-2534,-465,-2344,94,102,895,1095,1167,753,1167,1338,1354,1970,1762
481777,154524,112620,192860,192860,1035,933,1249,-3402,-1128,-1747,2755,-660,84,107,895,1095,1167,753,1167,1338,1354,1970,1762
482778,154980,113276,193328,193328,1011,779,1253,-4235,-1368,-2699,-1173,-3959,93,93,899,1095,1167,753,1167,1338,1354,1970,1762
483779,155532,113972,193796,193796,409,523,1053,-5148,-1386,-2494,-580,-1300,97,91,901,1178,1238,815,1291,1396,1431,2036,1780
484780,156084,114616,194264,194264,407,844,688,-6006,-1273,2063,-1932,403,110,123,908,1178,1238,815,1291,1396,1431,2036,1780
485781,156716,115184,194732,194732,-97,1317,479,-6371,-949,4504,-2845,-887,108,114,906,1178,1238,815,1291,1396,1431,2036,1780
486782,157232,115856,195200,195200,626,662,493,-6333,-758,1796,-2087,-1580,104,108,901,1178,1238,815,1291,1396,1431,2036,1780
487783,157784,116504,195668,195668,399,807,785,-6382,-895,-3167,-2142,-820,104,116,906,1178,1238,815,1291,1396,1431,2036,1780
488784,158356,117152,196136,196136,272,803,962,-6161,-1285,-1818,-304,642,107,128,906,1137,1195,783,1116,1465,1411,2056,1941
489785,158860,117796,196608,196608,696,824,1078,-5298,-1561,3045,325,2078,111,112,907,1137,1195,783,1116,1465,1411,2056,1941
490786,159408,118436,197076,197076,419,844,1239,-3937,-1546,6434,773,4101,107,118,905,1137,1195,783,1116,1465,1411,2056,1941
491787,159948,119100,197544,197544,467,690,1414,-2630,-1325,6634,-110,4246,119,131,906,1137,1195,783,1116,1465,1411,2056,1941
492788,160532,119736,198012,198012,190,861,1536,-2060,-1035,3367,245,3108,131,117,907,1137,1195,783,1116,1465,1411,2056,1941
493792,161104,120340,198480,198480,262,1057,1628,-2035,-983,2416,2750,3074,106,125,908,1137,1195,783,1116,1465,1411,2056,1941
494790,161640,120968,198948,198948,485,903,1803,-2219,-1153,304,2878,2791,114,135,906,982,1092,703,1008,1400,1354,1970,1787
495791,162180,121656,199416,199416,459,523,1969,-2521,-1215,-2376,3634,858,118,123,904,982,1092,703,1008,1400,1354,1970,1787
496792,162748,122308,199884,199884,281,743,1870,-3119,-1118,-4344,2982,760,108,132,909,982,1092,703,1008,1400,1354,1970,1787
497793,163352,122948,200352,200352,53,814,1496,-3891,-920,-4992,2074,-1333,110,142,909,982,1092,703,1008,1400,1354,1970,1787
498794,163916,123548,200820,200820,300,1061,1193,-4355,-758,-3905,596,-1369,120,134,909,982,1092,703,1008,1400,1354,1970,1787
499795,164484,124208,201288,201288,273,681,989,-4703,-632,-4152,1015,-3149,115,129,906,1069,1156,756,1215,1322,1344,1970,1728
500796,165028,124836,201756,201756,421,877,902,-4636,-782,-3262,1799,245,123,130,909,1069,1156,756,1215,1322,1344,1970,1728
501797,165572,125480,202224,202224,419,773,877,-4586,-946,-1820,4,-2228,104,127,907,1069,1156,756,1215,1322,1344,1970,1728
502798,166160,126144,202692,202692,141,643,967,-4485,-1016,297,158,-830,121,142,908,1069,1156,756,1215,1322,1344,1970,1728
503799,166708,126760,203160,203160,389,940,1053,-4493,-930,1333,-541,-2496,124,150,910,1069,1156,756,1215,1322,1344,1970,1728
504800,167268,127340,203628,203628,312,1162,1188,-4539,-944,1935,-694,-1080,107,138,907,1189,1235,828,1262,1486,1514,2122,1890
505801,167764,127936,204096,204096,712,1059,1311,-4271,-1051,2221,-1610,-1259,104,128,905,1189,1235,828,1262,1486,1514,2122,1890
506802,168236,128556,204564,204564,861,905,1499,-3908,-1112,1758,-3215,-2142,110,137,903,1189,1235,828,1262,1486,1514,2122,1890
507803,168820,129140,205032,205032,159,1127,1722,-3512,-1170,1935,-2229,-768,110,128,903,1189,1235,828,1262,1486,1514,2122,1890
508804,169296,129712,205500,205500,833,1200,1868,-3236,-1250,2352,-2087,830,109,139,905,1189,1235,828,1262,1486,1514,2122,1890
509805,169860,130296,205968,205968,281,1122,1972,-3112,-1308,1034,-943,516,112,142,901,1189,1235,828,1262,1486,1514,2122,1890
510806,170336,130924,206436,206436,831,843,2036,-3175,-1364,1116,201,983,124,129,903,1083,1130,762,1098,1417,1392,1910,1720
511807,170940,131524,206904,206904,28,1015,2022,-3480,-1305,407,56,-89,121,123,904,1083,1130,762,1098,1417,1392,1910,1720
512808,171500,132136,207372,207372,300,936,1949,-3844,-1241,-418,2056,1849,117,143,905,1083,1130,762,1098,1417,1392,1910,1720
513809,171976,132768,207840,207840,825,807,1718,-3847,-1152,-364,1712,1540,117,139,906,1083,1130,762,1098,1417,1392,1910,1720
514810,172524,133496,208308,208308,373,201,1697,-3709,-1054,-838,1732,532,120,137,905,1083,1130,762,1098,1417,1392,1910,1720
515811,173064,134164,208776,208776,421,571,1690,-3450,-1071,108,2151,1909,121,140,911,980,1053,690,1031,1285,1264,1849,1701
516812,173660,134888,209244,209244,68,215,1665,-3598,-1051,-896,2152,701,113,134,910,980,1053,690,1031,1285,1264,1849,1701
517813,174232,135640,209712,209712,216,33,1504,-3538,-1030,-219,2662,1530,120,143,913,980,1053,690,1031,1285,1264,1849,1701
518814,174752,136524,210180,210180,539,-802,1439,-3644,-977,-146,2193,-552,129,135,914,980,1053,690,1031,1285,1264,1849,1701
519815,175260,137304,210648,210648,613,-160,1331,-3564,-986,-630,1734,-1081,109,129,904,980,1053,690,1031,1285,1264,1849,1701
520816,175860,138044,211116,211116,35,83,1309,-3544,-1034,-519,950,-1482,114,146,909,980,1053,690,1031,1285,1264,1849,1701
521817,176404,138796,211584,211584,383,2,1279,-3532,-1051,-15,-630,-2016,106,122,914,1040,1147,743,1136,1427,1429,2144,1925
522818,176892,139564,212052,212052,733,-106,1322,-3440,-1069,34,-904,-2616,123,130,914,1040,1147,743,1136,1427,1429,2144,1925
523819,177400,140340,212520,212520,607,-163,1416,-3326,-1095,70,-1794,-2135,106,139,910,1040,1147,743,1136,1427,1429,2144,1925
524820,177904,141032,212992,212992,631,356,1560,-3212,-1149,193,-2159,-2096,106,125,910,1040,1147,743,1136,1427,1429,2144,1925
525821,178460,141764,213460,213460,304,100,1662,-3183,-1208,559,-1672,-1911,102,119,910,1040,1147,743,1136,1427,1429,2144,1925
526822,178940,142532,213928,213928,779,-132,1752,-3178,-1212,747,-1766,-1581,96,137,913,1142,1219,814,1217,1530,1525,2153,1901
527823,179416,143328,214396,214396,804,-315,1753,-3205,-1210,616,-1595,-1181,100,127,910,1142,1219,814,1217,1530,1525,2153,1901
528824,179892,144112,214864,214864,803,-248,1769,-3187,-1225,611,-1586,-1545,103,130,907,1142,1219,814,1217,1530,1525,2153,1901
529825,180352,144740,215332,215332,904,723,1756,-3189,-1224,960,-1423,-918,101,116,906,1142,1219,814,1217,1530,1525,2153,1901
530826,180836,145436,215800,215800,753,292,1746,-3339,-1234,-176,-723,-238,93,134,905,1142,1219,814,1217,1530,1525,2153,1901
531827,181332,146204,216268,216268,677,-165,1641,-3408,-1303,-420,-294,804,97,107,908,1142,1219,814,1217,1530,1525,2153,1901
532828,181800,146880,216736,216736,852,405,1598,-3471,-1370,98,2,1021,99,113,910,1087,1132,757,1126,1343,1339,1855,1674
533829,182260,147528,217204,217204,903,576,1510,-3638,-1347,230,191,1011,86,113,907,1087,1132,757,1126,1343,1339,1855,1674
534830,182764,148356,217672,217672,627,-558,1501,-3731,-1194,1122,-483,1203,99,123,906,1087,1132,757,1126,1343,1339,1855,1674
535831,183220,149032,218140,218140,927,387,1211,-3485,-1117,467,1359,2875,100,115,906,1087,1132,757,1126,1343,1339,1855,1674
536832,183668,149572,218608,218608,978,1235,672,-3100,-1233,1422,2149,3773,92,121,906,1087,1132,757,1126,1343,1339,1855,1674
537833,184088,150220,219076,219076,1154,556,210,-2977,-1303,2539,1052,1437,90,109,899,989,1062,694,1026,1329,1311,1946,1819
538834,184528,150936,219544,219544,1029,125,-36,-2673,-1253,1514,-370,2558,100,116,902,989,1062,694,1026,1329,1311,1946,1819
539835,185012,151520,220012,220012,754,947,-149,-2144,-1246,440,957,2441,97,109,907,989,1062,694,1026,1329,1311,1946,1819
540836,185432,152168,220480,220480,1155,542,-208,-1865,-1294,858,-584,2634,93,122,904,989,1062,694,1026,1329,1311,1946,1819
541837,185888,152768,220948,220948,930,839,-392,-1429,-1219,526,-2371,3273,90,115,903,989,1062,694,1026,1329,1311,1946,1819
542838,186312,153456,221416,221416,1132,284,-428,-1089,-1055,106,-1335,2537,93,115,903,989,1062,694,1026,1329,1311,1946,1819
543839,186728,154020,221884,221884,1183,1056,-419,-722,-891,807,-3195,2120,98,115,905,980,1091,731,1067,1749,1699,2596,2304
544840,187248,154668,222352,222352,532,527,-415,-466,-770,-84,-2168,1045,107,127,899,980,1091,731,1067,1749,1699,2596,2304
545841,187644,155304,222820,222820,1308,598,-433,-339,-716,247,-2716,418,98,115,907,980,1091,731,1067,1749,1699,2596,2304
546842,188052,156024,223288,223288,1235,67,-523,-28,-626,443,-3341,802,94,134,899,980,1091,731,1067,1749,1699,2596,2304
547843,188460,156548,223756,223756,1236,1290,-571,414,-519,171,-2123,1970,91,109,903,980,1091,731,1067,1749,1699,2596,2304
548844,188884,157120,224224,224224,1137,988,-561,1075,-458,609,-1821,2776,85,127,896,1085,1185,817,1242,1852,1810,2598,2092
549845,189260,157704,224692,224692,1440,910,-688,1811,-383,1549,-1606,5172,73,114,897,1085,1185,817,1242,1852,1810,2598,2092
550846,189604,158284,225160,225160,1643,932,-884,2422,-269,1186,-521,5633,82,130,894,1085,1185,817,1242,1852,1810,2598,2092
551847,189944,158916,225628,225628,1671,603,-1164,2826,-183,1825,-258,6479,68,123,890,1085,1185,817,1242,1852,1810,2598,2092
552848,190300,159508,226096,226096,1573,850,-1522,3151,-117,1717,637,6936,60,111,893,1085,1185,817,1242,1852,1810,2598,2092
553849,190668,160052,226564,226564,1501,1148,-1860,3466,-84,1475,1450,6691,75,129,893,1085,1185,817,1242,1852,1810,2598,2092
554850,191020,160644,227032,227032,1604,845,-2124,3790,-94,1265,1067,6614,66,107,890,1167,1194,814,1332,1495,1543,2149,1721
555851,191320,161232,227500,227500,1933,867,-2363,4044,-99,658,1373,6923,72,114,891,1167,1194,814,1332,1495,1543,2149,1721
556852,191624,161796,227968,227968,1912,1015,-2522,4431,-166,1492,415,7562,67,116,886,1167,1194,814,1332,1495,1543,2149,1721
557853,191936,162384,228436,228436,1866,862,-2600,4928,-228,1013,493,7705,62,120,884,1167,1194,814,1332,1495,1543,2149,1721
558854,192284,162944,228904,228904,1644,1035,-2514,5417,-299,418,-298,7862,63,117,886,1167,1194,814,1332,1495,1543,2149,1721
559855,192584,163516,229376,229376,1948,957,-2331,5853,-329,1198,-999,8099,67,133,889,1142,1153,793,1288,1525,1580,2256,1872
560856,192892,164060,229844,229844,1902,1131,-2078,6196,-318,1919,-1267,7939,59,126,886,1142,1153,793,1288,1525,1580,2256,1872
561857,193212,164708,230312,230312,1830,476,-1736,6600,-300,1792,-603,7963,53,126,884,1142,1153,793,1288,1525,1580,2256,1872
562858,193556,165296,230780,230780,1683,848,-1349,7043,-302,1611,-1076,7175,57,128,888,1142,1153,793,1288,1525,1580,2256,1872
563859,193932,165900,231248,231248,1486,745,-1016,7505,-295,1795,-1172,6911,68,130,887,1142,1153,793,1288,1525,1580,2256,1872
564860,194280,166504,231716,231716,1663,742,-766,7861,-263,1865,409,5996,57,114,892,1142,1153,793,1288,1525,1580,2256,1872
565861,194616,167168,232184,232184,1742,362,-634,8226,-182,1629,453,5241,77,144,892,1164,1231,839,1351,1582,1596,2351,1951
566862,194956,167872,232652,232652,1720,106,-612,8389,-142,1767,2251,4145,70,140,893,1164,1231,839,1351,1582,1596,2351,1951
567863,195324,168480,233120,233120,1547,703,-705,8640,-92,2409,1706,4168,73,142,894,1164,1231,839,1351,1582,1596,2351,1951
569865,196112,169892,234056,234056,1401,16,-1189,9023,-11,2800,4189,2986,84,125,899,1164,1231,839,1351,1582,1596,2351,1951
570866,196516,170636,234524,234524,1327,-166,-1521,9303,147,1878,1975,1684,74,131,901,1342,1425,884,1423,1389,1406,2118,1831
571867,196928,171316,234992,234992,1279,229,-1736,9576,267,1427,1641,3039,82,137,902,1342,1425,884,1423,1389,1406,2118,1831
572868,197384,172072,235460,235460,1004,-253,-1688,9459,169,2700,1661,1621,101,119,902,1342,1425,884,1423,1389,1406,2118,1831
573869,197836,172812,235928,235928,1029,-160,-1490,9198,70,3224,2117,2698,83,135,904,1342,1425,884,1423,1389,1406,2118,1831
574870,198292,173564,236396,236396,1005,-242,-1288,9100,-74,3000,2006,3341,94,129,905,1342,1425,884,1423,1389,1406,2118,1831
575871,198744,174252,236864,236864,1030,153,-1079,9181,-249,3133,646,4522,83,113,905,1342,1425,884,1423,1389,1406,2118,1831
576872,199172,174960,237332,237332,1181,22,-773,9120,-375,2856,1011,3740,104,126,906,1165,1224,770,1133,1414,1389,2006,1830
577873,199640,175744,237800,237800,931,-460,-414,9028,-443,3200,429,4205,93,120,905,1165,1224,770,1133,1414,1389,2006,1830
578874,200088,176548,238268,238268,1057,-594,-38,8822,-494,2812,-702,3272,79,114,904,1165,1224,770,1133,1414,1389,2006,1830
579875,200540,177252,238736,238736,1032,26,144,8711,-480,1836,-695,3248,87,114,901,1165,1224,770,1133,1414,1389,2006,1830
580876,201000,177888,239204,239204,982,446,267,8644,-508,2678,1166,2568,94,124,904,1165,1224,770,1133,1414,1389,2006,1830
581877,201512,178588,239672,239672,656,41,283,8628,-456,2313,483,1944,105,116,905,976,1062,706,1027,1349,1308,1873,1737
582878,201988,179216,240140,240140,881,487,319,8468,-349,1192,57,-1064,96,117,909,976,1062,706,1027,1349,1308,1873,1737
583879,202448,179848,240608,240608,981,458,263,8349,-280,12,1659,394,109,110,907,976,1062,706,1027,1349,1308,1873,1737
584880,202932,180460,241076,241076,831,579,151,8138,-251,90,2048,-691,112,124,906,976,1062,706,1027,1349,1308,1873,1737
585881,203424,181168,241544,241544,780,-26,139,7829,-203,1403,1869,-2341,106,106,906,976,1062,706,1027,1349,1308,1873,1737
586882,203956,181732,242012,242012,529,871,-10,7689,-74,1755,1219,-2365,114,104,909,976,1062,706,1027,1349,1308,1873,1737
587883,204456,182352,242480,242480,728,517,-194,7448,28,918,870,-2594,96,116,907,1069,1166,757,1161,1319,1329,1948,1763
588884,204916,182948,242948,242948,978,664,-427,7359,47,1054,355,-2817,111,122,908,1069,1166,757,1161,1319,1329,1948,1763
589885,205392,183528,243416,243416,878,762,-484,7385,138,883,22,-1782,109,119,905,1069,1166,757,1161,1319,1329,1948,1763
590886,205880,184096,243884,243884,802,834,-442,7478,238,755,-405,-916,108,118,904,1069,1166,757,1161,1319,1329,1948,1763
591887,206420,184680,244352,244352,476,731,-139,7549,213,1610,-565,315,105,130,904,1069,1166,757,1161,1319,1329,1948,1763
592888,206948,185316,244820,244820,549,402,146,7303,184,1023,-737,1914,107,115,907,1121,1193,767,1152,1431,1434,2082,1849
593889,207444,185928,245288,245288,748,549,366,7172,97,-1147,-1153,3041,109,116,910,1121,1193,767,1152,1431,1434,2082,1849
594890,207916,186520,245760,245760,898,671,441,7001,-88,-1184,121,3628,106,136,908,1121,1193,767,1152,1431,1434,2082,1849
595891,208464,187096,246228,246228,421,768,471,6734,-73,-53,1687,3418,105,109,905,1121,1193,767,1152,1431,1434,2082,1849
596892,208960,187672,246696,246696,746,766,177,6239,59,-700,810,3696,103,117,908,1121,1193,767,1152,1431,1434,2082,1849
597893,209432,188264,247164,247164,896,662,-273,5870,-98,-2761,713,4162,119,121,905,1121,1193,767,1152,1431,1434,2082,1849
598894,209952,188748,247632,247632,594,1337,-620,5175,-346,-4945,987,3088,108,119,905,1063,1135,750,1139,1485,1503,2207,1974
599895,210432,189208,248100,248100,844,1487,-978,4299,-439,-3876,-178,5018,91,114,902,1063,1135,750,1139,1485,1503,2207,1974
600896,210980,189636,248568,248568,417,1688,-1503,3299,-354,-3356,71,7282,89,105,898,1063,1135,750,1139,1485,1503,2207,1974
601897,211420,190084,249036,249036,1093,1564,-1955,2507,-358,-1144,908,7172,95,106,897,1063,1135,750,1139,1485,1503,2207,1974
602898,211900,190468,249504,249504,843,1966,-2018,1353,-212,-2360,-2930,7663,106,89,893,1063,1135,750,1139,1485,1503,2207,1974
603899,212368,190788,249972,249972,918,2369,-1898,709,-231,-2944,-2798,9166,101,81,889,1072,1171,788,1141,1922,1909,2978,2860
604900,212792,191104,250440,250440,1194,2398,-1616,209,-323,-3431,-3894,9435,94,63,883,1072,1171,788,1141,1922,1909,2978,2860
605901,213292,191368,250908,250908,718,2728,-1266,-119,-404,-1379,-3909,10400,99,49,878,1072,1171,788,1141,1922,1909,2978,2860
606902,213732,191596,251376,251376,1094,2959,-1035,-155,-515,-2115,-2474,11952,95,41,873,1072,1171,788,1141,1922,1909,2978,2860
607903,214136,191796,251844,251844,1320,3141,-999,-289,-572,-2049,-1500,11847,90,9,865,1072,1171,788,1141,1922,1909,2978,2860
608904,214560,191984,252312,252312,1196,3222,-1134,-216,-548,125,-790,11502,85,-56,858,1072,1171,788,1141,1922,1909,2978,2860
609905,215004,192156,252780,252780,1072,3330,-1487,-200,-555,664,1145,10927,83,-83,852,1204,1488,899,1256,2037,1896,3265,3188
610906,215388,192320,253248,253248,1449,3387,-1930,-355,-642,-379,1566,9980,77,-177,853,1204,1488,899,1256,2037,1896,3265,3188
611907,215808,192472,253716,253716,1225,3470,-2437,-583,-778,-1575,2455,9920,70,-219,849,1204,1488,899,1256,2037,1896,3265,3188
612908,216192,192612,254184,254184,1452,3553,-2905,-857,-927,-2783,3310,10178,70,-269,846,1204,1488,899,1256,2037,1896,3265,3188
613909,216556,192768,254652,254652,1580,3460,-3212,-1140,-1041,-4086,1636,9267,73,-281,844,1204,1488,899,1256,2037,1896,3265,3188
614910,216956,192896,255120,255120,1356,3644,-3331,-1634,-1183,-4962,2761,9752,88,-250,840,1586,1967,1011,1502,1803,1751,3059,2744
615911,217372,193020,255588,255588,1258,3677,-3324,-2112,-1326,-5964,988,9991,89,-168,839,1586,1967,1011,1502,1803,1751,3059,2744
616912,217784,193132,256056,256056,1284,3761,-3193,-2664,-1437,-6955,-390,9870,84,-111,837,1586,1967,1011,1502,1803,1751,3059,2744
617913,218188,193248,256524,256524,1335,3744,-2984,-3141,-1578,-7757,-927,10519,91,130,834,1586,1967,1011,1502,1803,1751,3059,2744
618916,218648,193340,256992,256992,986,3800,-2641,-3380,-1758,-7290,-439,10845,89,96,832,1586,1967,1011,1502,1803,1751,3059,2744
619915,219140,193440,257460,257460,785,3800,-2199,-3497,-1897,-6154,-1151,10140,93,274,834,1586,1967,1011,1502,1803,1751,3059,2744
620916,219552,193548,257928,257928,1286,3800,-1871,-3599,-1954,-3927,-1368,11235,97,266,835,1475,1642,932,1418,1614,1614,2430,2092
621917,220028,193652,258396,258396,886,3800,-1663,-3822,-1929,-4361,-1379,10789,96,254,833,1475,1642,932,1418,1614,1614,2430,2092
622918,220476,193760,258864,258864,1062,3800,-1496,-3937,-1997,-4466,-682,10717,106,252,835,1475,1642,932,1418,1614,1614,2430,2092
623919,220928,193884,259332,259332,1037,3747,-1235,-3929,-2089,-4777,-1683,9184,109,282,834,1475,1642,932,1418,1614,1614,2430,2092
624920,221456,194048,259800,259800,561,3505,-946,-4110,-2128,-4740,-634,9115,105,87,838,1475,1642,932,1418,1614,1614,2430,2092
625921,221952,194236,260268,260268,760,3362,-672,-4280,-2130,-4312,-650,9561,109,-291,847,1292,1336,857,1380,1339,1422,1958,1670
626922,222500,194428,260736,260736,433,3343,-564,-4613,-2099,-5079,268,9038,93,-209,853,1292,1336,857,1380,1339,1422,1958,1670
627923,223004,194592,261204,261204,707,3526,-451,-5166,-2114,-5942,182,6542,112,-149,854,1292,1336,857,1380,1339,1422,1958,1670
628924,223576,194796,261672,261672,280,3282,-292,-5942,-2002,-5212,231,4251,114,-261,851,1292,1336,857,1380,1339,1422,1958,1670
629925,224164,195024,262144,262144,177,3138,-65,-6369,-1922,-880,-206,5966,103,-121,854,1292,1336,857,1380,1339,1422,1958,1670
630926,224760,195240,262612,262612,124,3219,-116,-6493,-1740,1371,1479,5368,98,-61,860,1292,1336,857,1380,1339,1422,1958,1670
631927,225356,195452,263080,263080,120,3251,-121,-6926,-1475,-2497,1308,577,113,-75,852,1330,1347,876,1444,1339,1420,2085,1809
632928,225876,195708,263548,263548,594,2981,204,-7423,-1614,-4858,1994,-302,113,-112,860,1330,1347,876,1444,1339,1420,2085,1809
633929,226300,195932,264016,264016,1195,3187,692,-7148,-1858,-2466,426,2025,97,-39,864,1330,1347,876,1444,1339,1420,2085,1809
634930,226820,196176,264484,264484,594,3067,1037,-6206,-1673,248,1123,3086,112,-91,854,1330,1347,876,1444,1339,1420,2085,1809
635931,227404,196412,264952,264952,191,3123,1410,-5190,-1451,1560,992,4737,107,-48,862,1330,1347,876,1444,1339,1420,2085,1809
636932,227924,196664,265420,265420,590,3028,1742,-4518,-1292,-571,-214,2534,116,-56,864,1320,1440,852,1271,1431,1365,2153,1927
637933,228476,196940,265888,265888,388,2883,2142,-4356,-1281,-3720,2944,2455,102,-47,864,1320,1440,852,1271,1431,1365,2153,1927
638934,229100,197196,266356,266356,-66,3013,2458,-4250,-1316,-2606,2014,2640,115,-20,866,1320,1440,852,1271,1431,1365,2153,1927
639935,229628,197432,266824,266824,533,3144,2762,-3966,-1240,-930,2605,1838,113,-40,867,1320,1440,852,1271,1431,1365,2153,1927
640936,230224,197668,267292,267292,104,3149,2993,-3499,-1003,-814,1587,3183,115,-83,864,1320,1440,852,1271,1431,1365,2153,1927
641937,230744,197904,267760,267760,578,3155,3132,-3269,-766,-2229,3510,4131,105,-69,864,1320,1440,852,1271,1431,1365,2153,1927
642938,231280,198152,268228,268228,477,3085,3255,-3094,-534,-4129,2339,4601,105,-77,864,1195,1310,787,1187,1312,1287,1892,1661
643939,231888,198432,268696,268696,23,2890,3476,-3138,-397,-4099,2337,2915,110,-42,863,1195,1310,787,1187,1312,1287,1892,1661
644940,232460,198728,269164,269164,246,2794,3691,-3203,-238,-4209,2280,3046,118,-25,868,1195,1310,787,1187,1312,1287,1892,1661
645941,233004,198976,269632,269632,419,3100,3850,-3343,62,-3585,1716,2714,112,-19,871,1195,1310,787,1187,1312,1287,1892,1661
646942,233472,199212,270100,270100,894,3180,3942,-3321,366,-2931,1546,2382,120,-45,860,1195,1310,787,1187,1312,1287,1892,1661
647943,234044,199508,270568,270568,241,2809,4077,-3448,501,-2970,1620,1060,107,-83,861,1141,1170,779,1254,1279,1363,1847,1595
648944,234624,199836,271036,271036,188,2613,4202,-3490,619,-3245,650,1900,116,-11,865,1141,1170,779,1254,1279,1363,1847,1595
649945,235088,200112,271504,271504,914,2942,4337,-3643,841,-2621,1508,1785,105,-1,872,1141,1170,779,1254,1279,1363,1847,1595
650946,235616,200380,271972,271972,512,2997,4433,-3740,1119,-2653,-72,1466,110,-29,869,1141,1170,779,1254,1279,1363,1847,1595
651947,236156,200628,272440,272440,435,3128,4514,-3816,1216,-3049,1505,899,121,-45,866,1141,1170,779,1254,1279,1363,1847,1595
652948,236760,200952,272908,272908,32,2656,4610,-4262,1067,-295,1289,-542,117,-50,865,1141,1170,779,1254,1279,1363,1847,1595
653949,237304,201268,273376,273376,405,2710,4633,-4609,777,1998,1802,634,105,11,868,1176,1177,821,1287,1442,1518,2077,1806
654950,237876,201576,273844,273844,228,2764,4567,-4229,594,479,1761,1693,128,-3,875,1176,1177,821,1287,1442,1518,2077,1806
655951,238424,201888,274312,274312,376,2743,4608,-3322,420,-464,1476,1338,110,-7,874,1176,1177,821,1287,1442,1518,2077,1806
656952,238988,202196,274780,274780,273,2772,4773,-2597,224,-777,1449,809,107,-15,874,1176,1177,821,1287,1442,1518,2077,1806
657953,239576,202532,275248,275248,120,2600,4831,-2432,178,-1726,2275,1991,110,-6,873,1176,1177,821,1287,1442,1518,2077,1806
658954,240124,202876,275716,275716,368,2553,4654,-2397,306,-2405,2241,2253,121,16,874,1129,1195,792,1156,1558,1524,2242,2015
659955,240628,203252,276184,276184,643,2355,4392,-2117,447,-2717,3437,1805,97,7,876,1129,1195,792,1156,1558,1524,2242,2015
660956,241140,203552,276652,276652,591,2834,4163,-1930,558,-2221,3096,-130,111,25,877,1129,1195,792,1156,1558,1524,2242,2015
661957,241740,203856,277120,277120,38,2813,3915,-1689,718,-2952,2896,1376,106,-16,874,1129,1195,792,1156,1558,1524,2242,2015
662958,242288,204200,277588,277588,361,2566,3664,-1325,911,-3170,2183,1381,106,-14,870,1129,1195,792,1156,1558,1524,2242,2015
663959,242812,204620,278056,278056,510,2092,3353,-939,1187,-2399,1850,2603,94,14,876,1129,1195,792,1156,1558,1524,2242,2015
664960,243360,205000,278528,278528,358,2345,3035,-563,1551,-2538,2609,3787,96,41,881,1020,1120,734,1059,1610,1564,2320,2096
665961,243828,205288,278996,278996,858,2924,2605,-305,1960,-3897,1630,4165,96,16,881,1020,1120,734,1059,1610,1564,2320,2096
666962,244388,205540,279464,279464,281,3154,2258,-323,2457,-3581,2765,5141,105,-31,874,1020,1120,734,1059,1610,1564,2320,2096
667963,244848,206016,279932,279932,906,1754,1984,-937,2748,-1248,-588,4873,95,-52,866,1020,1120,734,1059,1610,1564,2320,2096
668965,245312,206480,280400,280400,881,1829,1739,-1720,2682,-1404,-515,8723,88,62,875,1020,1120,734,1059,1610,1564,2320,2096
669965,245772,206876,280868,280868,906,2256,1393,-1905,2620,-2501,19,7192,97,63,887,947,1025,725,1044,1845,1804,2578,2312
670966,246200,207280,281336,281336,1107,2208,982,-1697,2185,1154,1319,6333,86,38,885,947,1025,725,1044,1845,1804,2578,2312
671967,246636,207844,281804,281804,1058,1205,669,-1201,1736,2632,-41,4956,85,49,878,947,1025,725,1044,1845,1804,2578,2312
672968,247080,208332,282272,282272,1009,1680,401,-1040,1584,2104,-2091,5138,93,65,886,947,1025,725,1044,1845,1804,2578,2312
673969,247492,208792,282740,282740,1210,1855,-5,-1300,1555,2135,180,4886,88,62,889,947,1025,725,1044,1845,1804,2578,2312
674970,247892,209272,283208,283208,1287,1730,-400,-1639,1543,1643,-409,2869,92,52,884,947,1025,725,1044,1845,1804,2578,2312
675971,248312,209820,283676,283676,1163,1303,-711,-1761,1618,1542,-1079,2692,76,58,883,1046,1156,816,1177,2120,2068,2992,2576
676972,248708,210288,284144,284144,1315,1803,-995,-1904,1851,220,-795,1694,70,75,886,1046,1156,816,1177,2120,2068,2992,2576
677973,249080,210764,284612,284612,1467,1752,-1323,-1774,1992,-187,241,3023,74,52,886,1046,1156,816,1177,2120,2068,2992,2576
678974,249428,211276,285080,285080,1620,1526,-1691,-1439,2109,-132,336,2651,73,68,880,1046,1156,816,1177,2120,2068,2992,2576
679975,249800,211816,285548,285548,1472,1350,-2021,-1040,2351,-158,524,2995,84,68,880,1046,1156,816,1177,2120,2068,2992,2576
680976,250224,212284,286016,286016,1148,1800,-2300,-743,2589,-634,2222,3202,89,80,883,1157,1265,840,1216,1878,1760,2650,2283
681977,250612,212820,286484,286484,1375,1373,-2533,-606,2719,-1496,2012,2660,90,63,885,1157,1265,840,1216,1878,1760,2650,2283
682978,250988,213332,286952,286952,1453,1522,-2829,-391,2914,-1557,1088,3522,84,66,882,1157,1265,840,1216,1878,1760,2650,2283
683979,251392,213824,287420,287420,1279,1646,-3151,-224,3229,-1207,1320,3393,79,80,885,1157,1265,840,1216,1878,1760,2650,2283
684980,251816,214304,287888,287888,1155,1721,-3362,-68,3412,-957,2387,3067,97,80,883,1157,1265,840,1216,1878,1760,2650,2283
685981,252256,214856,288356,288356,1056,1269,-3471,290,3410,-1379,2069,4054,86,85,886,1157,1265,840,1216,1878,1760,2650,2283
686982,252668,215336,288824,288824,1232,1719,-3511,609,3399,-927,1375,4323,93,88,890,1050,1157,736,1066,1494,1397,2055,1840
687983,253040,215928,289292,289292,1485,1016,-3484,931,3393,1250,1031,4745,84,92,889,1050,1157,736,1066,1494,1397,2055,1840
688984,253440,216504,289760,289760,1311,1113,-3313,1070,3467,1999,683,4961,72,93,888,1050,1157,736,1066,1494,1397,2055,1840
689985,253820,216984,290228,290228,1438,1713,-3020,1319,3623,1322,-44,4990,81,109,892,1050,1157,736,1066,1494,1397,2055,1840
690986,254220,217568,290696,290696,1315,1060,-2697,1599,3452,2166,466,4701,85,97,889,1050,1157,736,1066,1494,1397,2055,1840
691987,254584,218172,291164,291164,1543,932,-2341,1778,3193,2451,-1306,3607,75,109,888,981,1062,713,1073,1325,1306,1829,1618
692988,254960,218724,291632,291632,1470,1254,-2067,1951,3054,1829,916,2118,72,109,890,981,1062,713,1073,1325,1306,1829,1618
693989,255296,219288,292100,292100,1723,1177,-1957,2095,2897,552,768,2289,79,111,890,981,1062,713,1073,1325,1306,1829,1618
694990,255684,219944,292568,292568,1400,598,-2062,2051,2721,-157,2015,491,63,111,887,981,1062,713,1073,1325,1306,1829,1618
695991,256056,220640,293036,293036,1502,342,-2152,1710,2689,-432,1724,91,70,116,891,981,1062,713,1073,1325,1306,1829,1618
696992,256420,221228,293504,293504,1555,1014,-2301,1313,2601,63,2388,-472,80,113,897,981,1062,713,1073,1325,1306,1829,1618
697993,256756,221780,293972,293972,1733,1237,-2375,884,2469,-89,1718,-1242,66,106,896,1217,1259,840,1399,1255,1344,1917,1656
698994,257108,222368,294440,294440,1636,1009,-2375,575,2371,1509,515,-1195,67,112,890,1217,1259,840,1399,1255,1344,1917,1656
699995,257520,222908,294912,294912,1262,1307,-2376,323,2312,2275,-15,-109,68,111,885,1217,1259,840,1399,1255,1344,1917,1656
700996,257884,223472,295380,295380,1565,1155,-2291,106,2212,2014,652,-615,83,116,889,1217,1259,840,1399,1255,1344,1917,1656
701997,258208,223940,295848,295848,1818,1755,-2080,90,2107,3402,692,1344,66,118,890,1217,1259,840,1399,1255,1344,1917,1656
702998,258568,224484,296316,296316,1596,1278,-1778,212,2075,4348,-173,1436,64,110,889,1326,1365,865,1351,1444,1477,2222,2018
703999,258924,225100,296784,296784,1624,825,-1474,418,2065,3260,911,3736,75,122,879,1326,1365,865,1351,1444,1477,2222,2018
705000,259324,225664,297252,297252,1350,1147,-1117,776,1917,2239,434,3969,72,105,886,1326,1365,865,1351,1444,1477,2222,2018
706001,259680,226212,297720,297720,1628,1245,-708,1101,1711,2976,921,4641,64,98,890,1326,1365,865,1351,1444,1477,2222,2018
707002,260052,226732,298188,298188,1531,1419,-296,1420,1657,3458,964,4200,77,112,892,1326,1365,865,1351,1444,1477,2222,2018
708003,260392,227332,298656,298656,1734,916,40,1649,1641,3055,1404,3680,74,110,888,1326,1365,865,1351,1444,1477,2222,2018
709004,260788,227860,299124,299124,1385,1364,298,1790,1495,1235,2718,3656,78,124,886,1096,1229,750,1093,1432,1346,2084,1916
710005,261180,228412,299592,299592,1412,1212,418,1802,1341,1489,2948,2923,78,125,888,1096,1229,750,1093,1432,1346,2084,1916
711006,261568,229060,300060,300060,1439,608,480,1551,1282,2385,4332,2534,82,118,890,1096,1229,750,1093,1432,1346,2084,1916
712007,261964,229820,300528,300528,1391,-99,391,1143,1233,1547,4209,3007,83,136,890,1096,1229,750,1093,1432,1346,2084,1916
713008,262368,230428,300996,300996,1343,847,272,761,1130,910,2714,2208,87,144,897,1096,1229,750,1093,1432,1346,2084,1916
714009,262828,231068,301464,301464,993,643,173,468,1002,731,2570,1727,92,126,900,1093,1224,752,1163,1282,1270,1909,1717
715010,263260,231764,301932,301932,1169,288,120,132,933,1337,2121,1464,95,131,896,1093,1224,752,1163,1282,1270,1909,1717
716011,263724,232432,302400,302400,969,458,91,-277,886,2279,1829,2288,94,149,902,1093,1224,752,1163,1282,1270,1909,1717
717012,264168,233116,302868,302868,1094,352,16,-548,752,2467,492,1644,97,131,899,1093,1224,752,1163,1282,1270,1909,1717
718013,264584,233788,303336,303336,1271,422,75,-865,680,3216,180,907,103,135,903,1093,1224,752,1163,1282,1270,1909,1717
719016,265044,234452,303804,303804,996,468,132,-1055,648,3745,-1156,1384,104,134,903,1093,1224,752,1163,1282,1270,1909,1717
720015,265512,235188,304272,304272,946,11,273,-1150,614,3747,-1049,755,104,127,900,1201,1271,827,1267,1435,1471,2135,1925
721016,265984,235852,304740,304740,921,456,391,-1111,558,4077,-1989,1612,97,141,903,1201,1271,827,1267,1435,1471,2135,1925
722017,266436,236504,305208,305208,1046,527,500,-1202,562,3637,-2240,1297,104,141,907,1201,1271,827,1267,1435,1471,2135,1925
723018,266928,237204,305676,305676,795,221,581,-1032,564,3582,-1727,2962,105,132,904,1201,1271,827,1267,1435,1471,2135,1925
724019,267440,238072,306144,306144,669,-839,601,-1069,588,3562,-1416,1598,108,129,902,1201,1271,827,1267,1435,1471,2135,1925
725020,267904,238728,306612,306612,970,482,620,-1028,573,2998,-1022,3445,99,147,908,1162,1229,811,1188,1593,1560,2309,2051
726021,268392,239412,307080,307080,819,302,533,-1029,587,1637,-7,2969,105,134,899,1162,1229,811,1188,1593,1560,2309,2051
727022,268868,240160,307548,307548,894,-105,301,-1000,665,2031,1362,3415,117,124,904,1162,1229,811,1188,1593,1560,2309,2051
728023,269428,241020,308016,308016,367,-815,48,-982,839,2088,1436,3938,102,140,906,1162,1229,811,1188,1593,1560,2309,2051
729024,269900,241680,308484,308484,916,430,-371,-864,1001,882,1458,3576,98,118,906,1162,1229,811,1188,1593,1560,2309,2051
730025,270376,242368,308952,308952,891,250,-754,-764,1143,116,1173,3732,99,112,901,1042,1150,731,1082,1605,1523,2376,2114
731026,270824,243060,309420,309420,1067,220,-1077,-361,1283,491,1444,4709,96,133,905,1042,1150,731,1082,1605,1523,2376,2114
732027,271316,243792,309888,309888,791,-37,-1272,-48,1462,759,1577,4179,101,109,906,1042,1150,731,1082,1605,1523,2376,2114
733028,271792,244412,310356,310356,891,659,-1369,162,1659,481,26,4381,93,112,904,1042,1150,731,1082,1605,1523,2376,2114
734029,272260,245116,310824,310824,941,129,-1485,272,1789,-146,-663,5021,100,122,906,1042,1150,731,1082,1605,1523,2376,2114
735030,272696,245764,311296,311296,1142,474,-1658,405,1788,314,-2161,2849,89,114,902,1042,1150,731,1082,1605,1523,2376,2114
736031,273140,246428,311764,311764,1092,370,-1614,570,1761,1657,-2204,3810,91,111,906,994,1114,729,1084,1759,1671,2535,2176
737032,273512,246988,312232,312232,1545,1017,-1628,463,1825,2250,-2189,2685,86,114,901,994,1114,729,1084,1759,1671,2535,2176
738033,273932,247596,312700,312700,1246,714,-1640,561,1983,2705,-3628,4482,74,116,903,994,1114,729,1084,1759,1671,2535,2176
739034,274312,248296,313168,313168,1498,133,-1832,804,2128,2591,-3092,3089,83,108,891,994,1114,729,1084,1759,1671,2535,2176
740035,274692,248916,313636,313636,1500,630,-1893,1158,2115,2357,-2637,3116,79,115,898,994,1114,729,1084,1759,1671,2535,2176
741036,275080,249532,314104,314104,1452,651,-1828,1419,1892,2796,-1144,1702,74,117,898,1098,1186,808,1234,1630,1609,2280,1931
742037,275456,250108,314572,314572,1529,898,-1875,2060,1737,2434,-328,3797,78,120,895,1098,1186,808,1234,1630,1609,2280,1931
743038,275828,250800,315040,315040,1557,168,-1993,3114,1744,3902,-3345,6983,62,115,895,1098,1186,808,1234,1630,1609,2280,1931
744039,276192,251368,315508,315508,1609,940,-1983,3334,1929,5233,-4059,4066,66,130,892,1098,1186,808,1234,1630,1609,2280,1931
745040,276520,251944,315976,315976,1838,888,-1910,2797,2106,2560,-67,4829,65,113,897,1098,1186,808,1234,1630,1609,2280,1931
746041,276856,252524,316444,316444,1791,860,-2054,2563,2146,211,-37,4342,57,109,891,1098,1186,808,1234,1630,1609,2280,1931
747042,277232,253196,316912,316912,1543,280,-2322,2762,2059,237,495,4352,62,127,887,1219,1250,836,1344,1394,1429,2040,1732
748043,277536,253772,317380,317380,1997,877,-2578,3028,2057,1210,6,2834,57,122,888,1219,1250,836,1344,1394,1429,2040,1732
749044,277840,254328,317848,317848,2001,1000,-2744,3039,2221,967,-510,2712,56,111,895,1219,1250,836,1344,1394,1429,2040,1732
750045,278120,254860,318316,318316,2156,1149,-2801,3140,2389,-604,-213,3395,55,105,884,1219,1250,836,1344,1394,1429,2040,1732
751046,278400,255464,318784,318784,2160,695,-2672,3080,2363,-325,-662,2958,41,124,883,1219,1250,836,1344,1394,1429,2040,1732
752047,278728,256048,319252,319252,1864,818,-2531,3023,2247,334,-645,3986,51,115,878,1198,1246,797,1257,1443,1448,2183,1922
753048,279040,256576,319720,319720,1968,1166,-2398,3301,2229,1908,-935,5660,64,115,882,1198,1246,797,1257,1443,1448,2183,1922
754049,279352,257104,320188,320188,1971,1165,-2245,3878,2304,2891,-1764,6084,47,133,887,1198,1246,797,1257,1443,1448,2183,1922
755050,279636,257668,320656,320656,2151,937,-1980,4563,2216,3207,-270,5875,60,121,882,1198,1246,797,1257,1443,1448,2183,1922
756051,279984,258200,321124,321124,1754,1136,-1616,5203,2017,1830,-120,6503,50,122,882,1198,1246,797,1257,1443,1448,2183,1922
757052,280304,258688,321592,321592,1933,1410,-1326,5881,1847,1877,-2313,7526,61,111,882,1198,1246,797,1257,1443,1448,2183,1922
758053,280604,259152,322060,322060,2062,1560,-992,6040,1844,2356,-2903,6031,56,103,887,1096,1205,768,1170,1528,1496,2272,1968
759054,280916,259608,322528,322528,1990,1611,-665,5807,1723,4993,-2318,4965,49,93,881,1096,1205,768,1170,1528,1496,2272,1968
760055,281268,260000,322996,322996,1743,2012,-321,5294,1735,1325,-3323,4675,66,112,876,1096,1205,768,1170,1528,1496,2272,1968
761056,281632,260376,323464,323464,1671,2115,-187,4563,1585,-2150,577,5650,69,91,877,1096,1205,768,1170,1528,1496,2272,1968
762057,281972,260744,323932,323932,1824,2167,-200,4050,1244,-1689,-1095,3791,64,81,874,1096,1205,768,1170,1528,1496,2272,1968
763058,282312,261124,324400,324400,1827,2094,-222,3608,1021,-1004,2206,4200,66,85,874,1229,1342,844,1372,1357,1376,2078,1833
764059,282684,261488,324868,324868,1629,2197,-258,2690,1085,-2473,1566,2711,73,81,872,1229,1342,844,1372,1357,1376,2078,1833
765060,283092,261816,325336,325336,1406,2425,-447,1771,1058,-3613,2672,4917,81,66,872,1229,1342,844,1372,1357,1376,2078,1833
766061,283584,262132,325804,325804,880,2504,-647,1615,1021,-4328,1213,8212,82,46,872,1229,1342,844,1372,1357,1376,2078,1833
767062,284044,262468,326272,326272,1080,2382,-563,1691,943,1502,-2506,7105,101,39,870,1229,1342,844,1372,1357,1376,2078,1833
768063,284500,262744,326740,326740,1106,2762,-380,1275,1012,1591,-474,5328,95,29,872,1229,1342,844,1372,1357,1376,2078,1833
769064,285004,262964,327208,327208,805,3118,-361,736,1196,1256,814,4958,102,1,874,1435,1587,907,1373,1387,1372,2214,2221
770065,285580,263184,327680,327680,352,3124,-399,983,1270,3716,-663,5288,92,-56,867,1435,1587,907,1373,1387,1372,2214,2221
771066,286084,263440,328148,328148,801,2904,-116,1262,1180,4887,-261,4855,99,-67,861,1435,1587,907,1373,1387,1372,2214,2221
772067,286636,263684,328616,328616,499,2985,424,1061,1109,3317,-1551,5521,118,-15,862,1435,1587,907,1373,1387,1372,2214,2221
773068,287148,263932,329084,329084,748,2965,1025,917,1024,865,-1255,7993,106,-33,864,1435,1587,907,1373,1387,1372,2214,2221
774069,287652,264176,329552,329552,797,2996,1606,827,812,-49,-20,8688,110,-42,865,1289,1544,851,1136,1561,1417,2356,2365
775070,288244,264428,330020,330020,244,2951,2155,904,449,933,709,9868,109,-45,863,1289,1544,851,1136,1561,1417,2356,2365
776071,288776,264684,330488,330488,618,2931,2596,590,306,-289,796,8312,125,-44,860,1289,1544,851,1136,1561,1417,2356,2365
777072,289428,264956,330956,330956,-137,2836,2667,-77,379,-2653,800,7447,107,-37,868,1289,1544,851,1136,1561,1417,2356,2365
778073,290024,265216,331424,331424,210,2916,2545,-1102,484,-5187,3846,6338,119,-28,864,1289,1544,851,1136,1561,1417,2356,2365
779074,290512,265496,331892,331892,885,2795,2290,-2211,325,-4081,4324,4900,110,-37,870,1289,1544,851,1136,1561,1417,2356,2365
780075,291080,265748,332360,332360,382,2976,2047,-3208,100,-3685,4478,3565,113,-16,868,1237,1484,824,1211,1395,1331,2166,2053
781076,291712,266056,332828,332828,-22,2630,1776,-4228,102,-4976,2966,2728,111,-41,866,1237,1484,824,1211,1395,1331,2166,2053
782077,292300,266368,333296,333296,250,2608,1338,-4731,128,-3078,2863,5347,113,0,866,1237,1484,824,1211,1395,1331,2166,2053
783078,292852,266692,333764,333764,473,2537,904,-5343,222,-2897,2274,2604,123,14,875,1237,1484,824,1211,1395,1331,2166,2053
784079,293520,267028,334232,334232,-257,2465,806,-5851,258,-1518,2666,4182,120,22,875,1237,1484,824,1211,1395,1331,2166,2053
785080,294060,267400,334700,334700,542,2243,940,-6255,348,-888,206,2794,109,23,875,1285,1451,845,1234,1541,1536,2393,2301
786081,294628,267796,335168,335168,364,2094,1182,-6580,566,-529,154,3378,111,32,877,1285,1451,845,1234,1541,1536,2393,2301
787082,295144,268256,335636,335636,688,1695,1306,-6628,649,1449,-150,4879,116,51,881,1285,1451,845,1234,1541,1536,2393,2301
788083,295704,268668,336104,336104,411,1996,1624,-6414,652,1774,-1346,3599,110,61,885,1285,1451,845,1234,1541,1536,2393,2301
789084,296280,269068,336572,336572,308,2073,2037,-6027,571,1543,-1774,2785,117,42,890,1285,1451,845,1234,1541,1536,2393,2301
790085,296864,269520,337040,337040,255,1748,2432,-5832,473,953,-1758,3190,99,50,887,1285,1451,845,1234,1541,1536,2393,2301
791086,297428,270068,337508,337508,378,1146,2622,-5918,358,911,-96,3381,123,65,887,1109,1240,799,1100,1659,1583,2251,2030
792087,297956,270564,337976,337976,602,1470,2598,-6268,340,-165,927,1766,118,76,893,1109,1240,799,1100,1659,1583,2251,2030
793088,298484,271036,338444,338444,600,1620,2506,-6529,306,-1624,2017,1862,108,70,900,1109,1240,799,1100,1659,1583,2251,2030
794092,299060,271648,338912,338912,297,742,2240,-6664,174,-3046,2559,433,111,69,895,1109,1240,799,1100,1659,1583,2251,2030
795090,299568,272192,339380,339380,721,1165,1900,-6841,-20,-3092,3104,-489,117,78,893,1109,1240,799,1100,1659,1583,2251,2030
796091,300080,272680,339848,339848,695,1514,1544,-7173,-193,-1300,3136,-51,95,77,906,1064,1132,749,1114,1340,1314,1840,1634
797092,300640,273212,340316,340316,393,1238,1131,-7498,-243,-2522,1876,2211,119,82,899,1064,1132,749,1114,1340,1314,1840,1634
798093,301184,273820,340784,340784,491,759,783,-7593,-372,-4381,2020,2376,120,85,894,1064,1132,749,1114,1340,1314,1840,1634
799094,301764,274340,341252,341252,264,1308,717,-7832,-585,-2692,2279,911,107,88,900,1064,1132,749,1114,1340,1314,1840,1634
800095,302316,274948,341720,341720,437,755,823,-8251,-580,-2093,413,518,113,97,905,1064,1132,749,1114,1340,1314,1840,1634
801096,302832,275556,342188,342188,660,751,922,-8412,-529,-1188,-443,1749,107,98,901,1064,1132,749,1114,1340,1314,1840,1634
802097,303420,276268,342656,342656,207,95,1106,-8434,-535,-27,-1286,-278,113,103,905,999,1057,709,1059,1392,1392,2002,1842
803098,304004,276940,343124,343124,230,340,1468,-8258,-416,799,-2666,295,112,100,903,999,1057,709,1059,1392,1392,2002,1842
804099,304576,277516,343592,343592,302,938,1745,-8105,-140,1263,-2144,111,109,105,913,999,1057,709,1059,1392,1392,2002,1842
805100,305140,278144,344064,344064,350,609,1989,-7918,243,2944,-1425,1137,114,108,911,999,1057,709,1059,1392,1392,2002,1842
806101,305644,278728,344532,344532,724,881,1915,-7577,641,4936,-1120,1117,110,109,905,999,1057,709,1059,1392,1392,2002,1842
807102,306140,279304,345000,345000,773,928,1495,-7042,967,5825,-1511,1947,100,99,908,1017,1117,743,1119,1457,1446,2135,1935
808103,306724,279900,345468,345468,220,800,771,-6040,1164,6249,-1106,3108,109,107,902,1017,1117,743,1119,1457,1446,2135,1935
809104,307208,280532,345936,345936,845,571,-92,-5422,1322,4354,763,431,100,114,901,1017,1117,743,1119,1457,1446,2135,1935
810105,307680,281208,346404,346404,920,291,-738,-4230,1242,3487,343,4726,96,100,906,1017,1117,743,1119,1457,1446,2135,1935
811106,308112,281836,346872,346872,1171,587,-1080,-3007,1213,2024,-918,5148,97,106,904,1017,1117,743,1119,1457,1446,2135,1935
812107,308512,282404,347340,347340,1372,960,-1236,-2271,1290,831,-2398,6581,80,107,904,1017,1117,743,1119,1457,1446,2135,1935
813108,308952,283008,347808,347808,1123,732,-1369,-1940,1378,-2032,-3316,8042,73,105,899,1111,1204,779,1180,1721,1728,2613,2183
814109,309292,283652,348276,348276,1751,477,-1354,-1569,1380,-2901,-3343,7673,80,114,893,1111,1204,779,1180,1721,1728,2613,2183
815110,309628,284216,348744,348744,1779,975,-1146,-1310,1413,-2057,-5285,5863,65,102,898,1111,1204,779,1180,1721,1728,2613,2183
816111,309940,284788,349212,349212,1933,922,-886,-1347,1535,-3166,-4644,5488,65,107,891,1111,1204,779,1180,1721,1728,2613,2183
817112,310264,285360,349680,349680,1862,920,-815,-1439,1546,-3963,-4056,5149,50,114,885,1111,1204,779,1180,1721,1728,2613,2183
818113,310544,286020,350148,350148,2141,365,-832,-1317,1553,-3299,-4288,4638,43,104,883,1060,1099,804,1307,2050,2117,2859,2126
819114,310812,286592,350616,350616,2221,913,-860,-1015,1598,-943,-4081,5038,47,126,881,1060,1099,804,1307,2050,2117,2859,2126
820115,311052,287112,351084,351084,2402,1236,-1009,-705,1772,-1026,-2816,5902,43,111,880,1060,1099,804,1307,2050,2117,2859,2126
821116,311284,287672,351552,351552,2458,984,-1259,-177,1910,-164,-2949,7225,25,115,877,1060,1099,804,1307,2050,2117,2859,2126
822117,311544,288292,352020,352020,2288,605,-1579,498,2117,825,-3222,7081,31,110,870,1060,1099,804,1307,2050,2117,2859,2126
823118,311780,288840,352488,352488,2443,1053,-1924,1258,2363,2484,-2741,7514,38,128,872,1060,1099,804,1307,2050,2117,2859,2126
824119,312032,289352,352956,352956,2349,1277,-2171,2249,2559,2996,-1970,8920,14,109,877,1176,1184,840,1425,1624,1696,2351,1832
825120,312232,289964,353424,353424,2680,649,-2477,3259,2708,3038,-2218,8701,24,119,869,1176,1184,840,1425,1624,1696,2351,1832
826121,312420,290528,353892,353892,2762,946,-2711,4190,2883,3684,-2647,8951,-11,133,869,1176,1184,840,1425,1624,1696,2351,1832
827122,312624,291080,354360,354360,2668,1019,-2969,5060,3039,4923,-2419,8787,-17,119,866,1176,1184,840,1425,1624,1696,2351,1832
828123,312828,291632,354828,354828,2675,1017,-2986,5718,3164,3358,-2057,7283,-7,105,862,1176,1184,840,1425,1624,1696,2351,1832
829124,313020,292196,355296,355296,2757,940,-2910,6475,3182,2126,-1852,7970,7,125,864,1226,1252,829,1349,1478,1519,2235,1869
830125,313216,292800,355764,355764,2738,687,-2635,7138,3133,1313,-2384,7231,-12,126,861,1226,1252,829,1349,1478,1519,2235,1869
831126,313396,293408,356232,356232,2845,658,-2347,7644,3047,1105,-1623,7121,-15,123,864,1226,1252,829,1349,1478,1519,2235,1869
832127,313604,293928,356700,356700,2677,1207,-1979,8027,2943,350,-1985,6807,-22,138,865,1226,1252,829,1349,1478,1519,2235,1869
833128,313784,294532,357168,357168,2859,679,-1617,8184,2856,-225,-2165,6061,3,121,865,1226,1252,829,1349,1478,1519,2235,1869
834129,313984,295108,357636,357636,2740,851,-1262,8202,2785,-154,-1339,5178,-35,125,864,1226,1252,829,1349,1478,1519,2235,1869
835130,314200,295704,358104,358104,2646,723,-951,8222,2713,-132,-1207,4850,4,133,863,1198,1276,827,1323,1484,1462,2199,1852
836131,314420,296296,358572,358572,2627,745,-661,8227,2610,-298,-200,3360,14,137,864,1198,1276,827,1323,1484,1462,2199,1852
837132,314648,296932,359040,359040,2583,466,-474,8324,2476,337,519,4329,6,130,866,1198,1276,827,1323,1484,1462,2199,1852
838133,314888,297600,359508,359508,2514,261,-372,8452,2342,1018,921,3580,23,132,867,1198,1276,827,1323,1484,1462,2199,1852
839134,315120,298268,359976,359976,2570,256,-280,8663,2249,2203,1271,4142,25,127,872,1198,1276,827,1323,1484,1462,2199,1852
840135,315380,298932,360448,360448,2400,276,-162,8896,2215,3468,1651,4506,19,127,877,1295,1392,847,1363,1263,1280,1902,1694
841136,315700,299592,360916,360916,2028,297,-52,9002,2181,3919,1606,4324,35,140,878,1295,1392,847,1363,1263,1280,1902,1694
842137,316000,300308,361384,361384,2158,-59,100,9122,2063,3865,2776,3991,50,125,881,1295,1392,847,1363,1263,1280,1902,1694
843138,316276,301020,361852,361852,2312,-40,291,9314,2034,4268,1090,4669,47,133,887,1295,1392,847,1363,1263,1280,1902,1694
844140,316576,301712,362320,362320,2166,79,385,9421,2115,5580,849,4886,38,124,886,1295,1392,847,1363,1263,1280,1902,1694
845140,316876,302376,362788,362788,2170,249,531,9511,2128,5603,1397,4586,44,118,882,1295,1392,847,1363,1263,1280,1902,1694
846141,317216,303172,363256,363256,1924,-584,810,9635,2041,3473,502,3511,48,133,885,1281,1357,823,1284,1236,1270,1860,1715
847142,317552,303856,363724,363724,1952,111,1214,9772,1869,3234,337,3701,61,121,887,1281,1357,823,1284,1236,1270,1860,1715
848143,317868,304576,364192,364192,2080,-120,1601,9616,1672,3185,740,2316,63,115,886,1281,1357,823,1284,1236,1270,1860,1715
849144,318212,305308,364660,364660,1908,-201,1843,9614,1459,2090,448,4057,72,107,890,1281,1357,823,1284,1236,1270,1860,1715
850145,318600,306132,365128,365128,1635,-785,2108,9346,1289,1454,618,1482,70,124,888,1281,1357,823,1284,1236,1270,1860,1715
851146,318972,306832,365596,365596,1738,-16,2336,9070,1139,1123,1298,2486,73,121,890,1167,1246,797,1211,1362,1368,2018,1816
852147,319336,307532,366064,366064,1790,-21,2588,8691,988,-32,680,840,72,105,888,1167,1246,797,1211,1362,1368,2018,1816
853148,319728,308172,366532,366532,1617,349,2777,8486,801,110,1306,1011,88,113,894,1167,1246,797,1211,1362,1368,2018,1816
854149,320120,308784,367000,367000,1619,521,3046,8198,697,308,190,182,76,117,892,1167,1246,797,1211,1362,1368,2018,1816
855150,320580,309460,367468,367468,1194,116,3162,8004,608,-216,2081,161,74,113,895,1167,1246,797,1211,1362,1368,2018,1816
856151,320980,310064,367936,367936,1571,562,3338,7635,466,-510,1559,232,83,107,894,1167,1246,797,1211,1362,1368,2018,1816
857152,321392,310764,368404,368404,1497,-43,3485,7458,345,-6,1491,-345,94,112,902,1126,1226,783,1181,1386,1353,2022,1833
858153,321832,311284,368872,368872,1323,1080,3682,7346,208,1854,1265,-1179,87,104,897,1126,1226,783,1181,1386,1353,2022,1833
859154,322276,311916,369340,369340,1299,376,3808,7146,44,1419,2027,130,83,113,900,1126,1226,783,1181,1386,1353,2022,1833
860155,322708,312500,369808,369808,1374,674,3847,6936,-131,2122,1581,-773,87,110,894,1126,1226,783,1181,1386,1353,2022,1833
861156,323160,313176,370276,370276,1250,94,3988,6662,-236,2468,1638,-170,87,118,900,1126,1226,783,1181,1386,1353,2022,1833
862157,323612,313828,370744,370744,1250,239,4056,6464,-293,2397,1772,341,88,115,898,1102,1215,756,1111,1279,1242,1826,1759
863158,324044,314344,371212,371212,1376,1088,4115,6397,-482,2685,1737,378,103,122,903,1102,1215,756,1111,1279,1242,1826,1759
864159,324540,314888,371680,371680,975,911,4159,6320,-705,2931,1249,-10,83,116,902,1102,1215,756,1111,1279,1242,1826,1759
865160,325024,315520,372148,372148,1050,357,4142,6180,-849,3525,996,5,93,112,894,1102,1215,756,1111,1279,1242,1826,1759
866161,325492,316128,372616,372616,1150,504,4189,5819,-980,3173,1502,-6,102,114,900,1102,1215,756,1111,1279,1242,1826,1759
867162,325960,316692,373084,373084,1150,776,4193,5379,-1154,1970,1285,369,96,126,904,1102,1215,756,1111,1279,1242,1826,1759
868163,326396,317268,373552,373552,1351,699,4136,4786,-1381,1698,773,-177,89,126,902,1057,1179,732,1040,1267,1217,1824,1832
869164,326912,317872,374020,374020,850,520,3932,4315,-1654,575,796,-928,90,123,899,1057,1179,732,1040,1267,1217,1824,1832
870165,327376,318428,374488,374488,1175,818,3609,3596,-1962,-571,182,-1411,93,107,895,1057,1179,732,1040,1267,1217,1824,1832
871166,327860,318980,374956,374956,1049,841,3195,2854,-2288,-2004,59,-66,92,118,903,1057,1179,732,1040,1267,1217,1824,1832
872167,328324,319444,375424,375424,1174,1391,2743,1933,-2480,-1532,-256,84,98,111,899,1057,1179,732,1040,1267,1217,1824,1832
873168,328804,319960,375892,375892,1074,1065,2326,980,-2591,-1348,-994,1536,98,87,900,1016,1158,732,994,1559,1478,2354,2468
874169,329344,320412,376360,376360,697,1465,2095,134,-2766,-948,-1991,901,89,111,892,1016,1158,732,994,1559,1478,2354,2468
875170,329808,320832,376832,376832,1173,1667,1995,-536,-3039,-695,-1273,1908,112,90,897,1016,1158,732,994,1559,1478,2354,2468
876171,330280,321220,377300,377300,1122,1869,2053,-1096,-3278,-240,-2348,37,108,78,895,1016,1158,732,994,1559,1478,2354,2468
877172,330748,321660,377768,377768,1147,1544,1948,-1683,-3545,763,-1575,559,100,79,888,1016,1158,732,994,1559,1478,2354,2468
878173,331284,322012,378236,378236,721,2097,1769,-2173,-3873,750,-945,810,98,89,886,1016,1158,732,994,1559,1478,2354,2468
879174,331768,322376,378704,378704,1045,2025,1325,-2737,-4185,439,483,200,112,62,890,943,1145,727,929,2011,1791,2951,3083
880175,332240,322684,379172,379172,1120,2379,850,-3048,-4510,1064,146,1893,101,68,885,943,1145,727,929,2011,1791,2951,3083
881176,332732,322980,379640,379640,995,2458,214,-3272,-4772,-250,364,2720,95,52,883,943,1145,727,929,2011,1791,2951,3083
882177,333196,323256,380108,380108,1170,2587,-426,-3637,-4954,-835,1533,2512,96,36,875,943,1145,727,929,2011,1791,2951,3083
883178,333744,323524,380576,380576,643,2642,-1092,-4036,-5144,62,77,3216,113,34,875,943,1145,727,929,2011,1791,2951,3083
884179,334256,323792,381044,381044,867,2647,-1664,-4561,-5349,-1708,891,2548,113,22,872,976,1205,736,979,1895,1726,2765,2753
885180,334752,324056,381512,381512,966,2677,-2133,-5284,-5632,-1290,1021,2745,111,13,875,976,1205,736,979,1895,1726,2765,2753
886181,335296,324304,381980,381980,664,2783,-2582,-5806,-5679,-2630,-596,3271,102,14,871,976,1205,736,979,1895,1726,2765,2753
887182,335772,324560,382448,382448,1089,2738,-3064,-6327,-5639,-3458,-726,2994,106,-2,868,976,1205,736,979,1895,1726,2765,2753
888183,336308,324772,382916,382916,712,3019,-3433,-6849,-5633,-2678,-2395,3236,103,-1,867,976,1205,736,979,1895,1726,2765,2753
889184,336828,325012,383384,383384,811,2850,-3617,-7595,-5644,-2272,-2538,3376,98,-39,866,976,1205,736,979,1895,1726,2765,2753
890185,337284,325196,383852,383852,1211,3207,-3603,-8273,-5695,-2241,-3509,4853,96,-28,864,1014,1179,756,1053,1733,1651,2446,2248
891186,337816,325384,384320,384320,735,3188,-3605,-8540,-5632,-2738,-3444,6194,100,-90,867,1014,1179,756,1053,1733,1651,2446,2248
892187,338364,325552,384788,384788,633,3321,-3675,-8536,-5570,-1392,-1910,7491,110,-96,856,1014,1179,756,1053,1733,1651,2446,2248
893188,338860,325744,385256,385256,957,3177,-3741,-8049,-5604,-663,-2662,6750,92,-136,858,1014,1179,756,1053,1733,1651,2446,2248
894189,339292,325892,385724,385724,1358,3460,-3786,-7551,-5623,-747,-1056,6445,92,-76,854,1014,1179,756,1053,1733,1651,2446,2248
895190,339740,326044,386192,386192,1259,3443,-3761,-6853,-5688,-464,-1344,8676,102,-231,856,1098,1218,802,1200,1494,1496,2141,1820
896191,340236,326204,386660,386660,958,3400,-3773,-6696,-5681,-2669,-1205,7854,91,-211,845,1098,1218,802,1200,1494,1496,2141,1820
897192,340712,326392,387128,387128,1083,3232,-3809,-6518,-5682,-4896,-869,8908,95,-202,843,1098,1218,802,1200,1494,1496,2141,1820
898193,341148,326568,387596,387596,1333,3314,-3792,-6279,-5737,-5531,-464,9055,84,-117,849,1098,1218,802,1200,1494,1496,2141,1820
899194,341580,326732,388064,388064,1359,3397,-3748,-6116,-5741,-5213,-918,8164,76,-180,853,1098,1218,802,1200,1494,1496,2141,1820
900195,341956,326900,388532,388532,1712,3379,-3665,-5940,-5604,-5209,247,7999,87,-231,848,1098,1218,802,1200,1494,1496,2141,1820
901196,342320,327044,389000,389000,1789,3537,-3563,-6024,-5150,-4988,-572,6379,67,-210,845,1324,1333,890,1562,1442,1591,2263,1720
902197,342728,327168,389468,389468,1516,3670,-3516,-5968,-4574,-4761,97,8461,66,-270,841,1324,1333,890,1562,1442,1591,2263,1720
903198,343056,327296,389936,389936,2019,3654,-3443,-5722,-4104,-5300,367,9616,60,-134,835,1324,1333,890,1562,1442,1591,2263,1720
904199,343380,327440,390404,390404,2048,3562,-3139,-5373,-3824,-5591,-2582,7939,60,-137,831,1324,1333,890,1562,1442,1591,2263,1720
905200,343684,327592,390872,390872,2177,3519,-2554,-4650,-3693,-6809,-1226,9003,68,-263,824,1324,1333,890,1562,1442,1591,2263,1720
906201,343984,327732,391340,391340,2206,3602,-1932,-3693,-3657,-6075,-1679,9909,61,-276,830,1496,1424,955,1771,1605,1809,2567,1855
907202,344328,327864,391808,391808,1934,3661,-1472,-2812,-3436,-4541,-1428,10598,47,-229,828,1496,1424,955,1771,1605,1809,2567,1855
908203,344616,327992,392276,392276,2288,3694,-1160,-2352,-2963,-3272,-2701,9392,54,-140,824,1496,1424,955,1771,1605,1809,2567,1855
909204,344844,328104,392744,392744,2669,3800,-988,-2058,-2482,-4926,-2085,9933,42,-82,825,1496,1424,955,1771,1605,1809,2567,1855
910205,345088,328252,393216,393216,2575,3586,-798,-1679,-2208,-5015,-1902,9356,26,256,819,1496,1424,955,1771,1605,1809,2567,1855
911206,345328,328396,393684,393684,2605,3618,-478,-1158,-1985,-4201,-1903,8731,8,-231,810,1496,1424,955,1771,1605,1809,2567,1855
912207,345552,328592,394152,394152,2711,3300,-176,-559,-1737,-3108,-2354,9553,14,-213,818,1555,1472,973,1792,1580,1738,2464,1820
913208,345804,328788,394620,394620,2541,3307,47,-158,-1298,-2937,-2956,8685,8,-123,819,1555,1472,973,1792,1580,1738,2464,1820
914209,346092,328984,395088,395088,2321,3313,264,236,-962,-776,-3984,8969,15,-139,824,1555,1472,973,1792,1580,1738,2464,1820
915210,346388,329128,395556,395556,2275,3646,639,-461,-668,-4125,1231,2117,43,-135,828,1555,1472,973,1792,1580,1738,2464,1820
916211,346792,329296,396024,396024,1601,3504,1118,124,-1446,-163,7718,12355,60,-169,830,1555,1472,973,1792,1580,1738,2464,1820
917212,347176,329468,396492,396492,1729,3486,1529,2628,-1726,-95,-5650,13331,57,-258,822,1475,1446,910,1529,1437,1474,2156,1754
918213,347552,329624,396960,396960,1781,3593,2188,2929,-1242,1719,696,4345,73,-246,835,1475,1446,910,1529,1437,1474,2156,1754
919214,347940,329816,397428,397428,1708,3375,2779,2792,-888,-2958,4178,13896,90,-233,833,1475,1446,910,1529,1437,1474,2156,1754
920215,348380,330068,397896,397896,1383,3005,2962,3017,-1011,-1553,-170,11967,92,-197,835,1475,1446,910,1529,1437,1474,2156,1754
921216,348936,330284,398364,398364,656,3237,3237,2752,-548,-3943,523,4371,105,-53,840,1475,1446,910,1529,1437,1474,2156,1754
922217,349440,330480,398832,398832,980,3368,3392,3161,-237,-2537,3425,10059,108,-138,853,1475,1446,910,1529,1437,1474,2156,1754
923218,349916,330688,399300,399300,1155,3300,3578,2981,-49,-3843,1767,4971,109,-207,856,1336,1382,866,1418,1321,1378,2029,1756
924219,350444,330924,399768,399768,829,3130,3780,3118,105,-1252,1660,7669,123,-112,850,1336,1382,866,1418,1321,1378,2029,1756
925220,351088,331160,400236,400236,99,3136,4171,3061,352,-2803,1082,4393,106,-66,851,1336,1382,866,1418,1321,1378,2029,1756
926221,351620,331428,400704,400704,798,2941,4438,2573,658,-2613,-226,3365,117,-58,857,1336,1382,866,1418,1321,1378,2029,1756
927222,352148,331736,401172,401172,821,2695,4458,1957,1106,-1842,124,2271,131,-35,862,1336,1382,866,1418,1321,1378,2029,1756
928223,352704,332072,401640,401640,644,2523,4202,1549,1589,-1581,1132,2458,122,1,863,1383,1443,908,1450,1429,1493,2236,1969
929224,353268,332340,402108,402108,592,2953,4274,1211,1847,-2124,1646,-19,121,14,865,1383,1443,908,1450,1429,1493,2236,1969
930225,353960,332620,402576,402576,-214,2882,4427,1200,1786,-1140,-267,2294,121,-42,874,1383,1443,908,1450,1429,1493,2236,1969
931226,354528,332964,403044,403044,559,2485,4627,1067,1743,-1291,621,2232,124,-23,867,1383,1443,908,1450,1429,1493,2236,1969
932227,355144,333348,403512,403512,255,2237,4715,1096,1766,-4,640,3483,113,25,865,1383,1443,908,1450,1429,1493,2236,1969
933228,355724,333708,403980,403980,478,2390,4752,1138,1740,574,2181,3160,117,36,875,1383,1443,908,1450,1429,1493,2236,1969
934229,356392,334056,404448,404448,-77,2468,4725,1188,1609,1664,1903,3059,121,26,882,1245,1336,830,1197,1625,1592,2386,2143
935230,357104,334408,404916,404916,-358,2446,4726,1255,1426,2349,1980,3261,116,19,876,1245,1336,830,1197,1625,1592,2386,2143
936231,357728,334832,405384,405384,188,1997,4707,1207,1286,1025,2194,3319,124,27,879,1245,1336,830,1197,1625,1592,2386,2143
937232,358324,335256,405852,405852,360,1998,4670,1324,892,492,3513,6176,106,47,878,1245,1336,830,1197,1625,1592,2386,2143
938233,358748,335676,406320,406320,1436,2024,4634,1307,580,-24,4202,4765,114,42,886,1245,1336,830,1197,1625,1592,2386,2143
939234,359324,336088,406788,406788,483,2076,4492,1041,681,-1324,2164,4272,110,37,885,1006,1105,724,1026,1653,1609,2317,2069
940235,360004,336564,407256,407256,-172,1675,4246,753,904,-2243,1123,3583,117,46,878,1006,1105,724,1026,1653,1609,2317,2069
941236,360592,337044,407724,407724,400,1650,4162,-143,1282,-5225,664,1276,123,60,885,1006,1105,724,1026,1653,1609,2317,2069
942237,361168,337504,408192,408192,473,1775,3984,-911,1412,-6010,1338,2034,131,63,893,1006,1105,724,1026,1653,1609,2317,2069
943238,361828,337964,408660,408660,-57,1775,3885,-1486,1407,-3933,444,2022,116,56,894,1006,1105,724,1026,1653,1609,2317,2069
944240,362412,338492,409128,409128,415,1349,3742,-2038,1531,-4067,-512,2137,121,71,891,1006,1105,724,1026,1653,1609,2317,2069
945240,362972,339024,409600,409600,563,1323,3429,-2570,1630,-4089,798,3012,126,74,892,982,1069,743,1095,1623,1608,2305,2093
946241,363564,339532,410068,410068,360,1472,3151,-2898,1672,-1106,1170,2495,124,66,898,982,1069,743,1095,1623,1608,2305,2093
947242,364116,340060,410536,410536,608,1345,2922,-3109,1825,-300,851,154,119,68,898,982,1069,743,1095,1623,1608,2305,2093
948243,364676,340704,411004,411004,556,616,2820,-3139,1820,53,1204,1616,114,89,897,982,1069,743,1095,1623,1608,2305,2093
949244,365268,341236,411472,411472,353,1314,2803,-3358,1800,-712,-348,-988,116,95,898,982,1069,743,1095,1623,1608,2305,2093
950245,365836,341776,411940,411940,500,1262,2745,-3561,1806,743,285,957,120,83,906,1114,1222,819,1190,1654,1628,2399,2174
951246,366412,342340,412408,412408,447,1110,2576,-3710,1877,1723,-426,933,108,75,899,1114,1222,819,1190,1654,1628,2399,2174
952247,366928,342916,412876,412876,821,1033,2411,-3681,1852,1363,1414,862,122,91,900,1114,1222,819,1190,1654,1628,2399,2174
953248,367484,343460,413344,413344,569,1231,2311,-3619,1720,1149,2350,78,113,87,901,1114,1222,819,1190,1654,1628,2399,2174
954249,368160,344044,413812,413812,-186,978,2214,-3686,1527,1225,2383,-476,124,84,900,1114,1222,819,1190,1654,1628,2399,2174
955250,368724,344556,414280,414280,512,1427,2032,-3695,1341,638,3225,121,124,95,898,1156,1269,803,1167,1558,1514,2236,1975
956251,369260,345092,414748,414748,685,1275,1815,-3627,1246,799,2481,51,122,89,902,1156,1269,803,1167,1558,1514,2236,1975
957252,369848,345668,415216,415216,357,1022,1659,-3636,1124,926,2215,420,120,105,898,1156,1269,803,1167,1558,1514,2236,1975
958253,370488,346240,415684,415684,28,1045,1529,-3614,990,170,2355,1862,125,113,899,1156,1269,803,1167,1558,1514,2236,1975
959254,371076,346724,416152,416152,350,1595,1439,-3599,876,204,2558,1859,119,97,904,1156,1269,803,1167,1558,1514,2236,1975
960255,371648,347396,416620,416620,447,415,1363,-3659,833,-676,2213,1356,125,93,905,1156,1269,803,1167,1558,1514,2236,1975
961256,372176,347968,417088,417088,721,1037,1340,-3790,825,-1370,1134,1308,109,113,898,1032,1104,719,1062,1446,1430,2030,1797
962257,372744,348576,417556,417556,469,809,1333,-3882,888,-1421,794,379,112,105,909,1032,1104,719,1062,1446,1430,2030,1797
963258,373352,349188,418024,418024,215,780,1451,-4212,1042,-1704,-751,1113,117,109,902,1032,1104,719,1062,1446,1430,2030,1797
964259,373908,349840,418492,418492,538,526,1547,-4545,1215,-3248,-1304,937,111,119,905,1032,1104,719,1062,1446,1430,2030,1797
965260,374480,350432,418960,418960,435,898,1709,-4902,1334,-2822,-1332,1643,102,128,908,1032,1104,719,1062,1446,1430,2030,1797
966261,375000,351044,419428,419428,759,769,1942,-4764,1375,-697,-1947,3073,116,119,908,966,1026,714,1083,1431,1440,1996,1779
967262,375552,351676,419896,419896,557,640,1956,-4793,1495,-62,-1114,162,106,122,905,966,1026,714,1083,1431,1440,1996,1779
968263,376100,352288,420364,420364,580,762,1808,-5472,1738,-1838,-1987,-2678,94,125,904,966,1026,714,1083,1431,1440,1996,1779
969264,376612,352820,420832,420832,804,1260,1666,-5741,1801,-196,-1309,-1318,104,106,907,966,1026,714,1083,1431,1440,1996,1779
970265,377108,353392,421300,421300,903,1007,1336,-5412,1738,2543,-788,709,98,110,905,966,1026,714,1083,1431,1440,1996,1779
971268,377588,353968,421768,421768,1003,980,994,-5120,1728,3233,-945,-1411,109,111,898,966,1026,714,1083,1431,1440,1996,1779
972267,378108,354520,422236,422236,752,1128,714,-4812,1592,1835,-116,-419,94,124,898,1083,1162,777,1183,1438,1444,2133,1908
973268,378564,355016,422704,422704,1152,1477,684,-4418,1315,681,153,-63,100,102,897,1083,1162,777,1183,1438,1444,2133,1908
974269,379040,355580,423172,423172,1027,1050,721,-4307,1110,507,-297,-2076,88,113,899,1083,1162,777,1183,1438,1444,2133,1908
975270,379472,356192,423640,423640,1303,746,710,-4343,1047,1328,-1023,-451,98,113,892,1083,1162,777,1183,1438,1444,2133,1908
976271,379944,356728,424108,424108,1053,1220,476,-4208,1098,802,-603,-779,86,113,897,1083,1162,777,1183,1438,1444,2133,1908
977272,380408,357240,424576,424576,1103,1368,171,-4114,1146,880,35,51,85,102,896,1126,1209,780,1170,1561,1536,2313,2036
978273,380824,357772,425044,425044,1404,1242,-112,-3815,1255,985,-434,499,100,120,895,1126,1209,780,1170,1561,1536,2313,2036
979274,381276,358380,425512,425512,1179,763,-355,-3418,1416,967,-872,1858,105,112,892,1126,1209,780,1170,1561,1536,2313,2036
980275,381692,358896,425984,425984,1406,1337,-619,-2953,1514,1113,335,3328,104,122,891,1126,1209,780,1170,1561,1536,2313,2036
981276,382116,359492,426452,426452,1357,834,-760,-2485,1564,1580,-384,3684,85,117,898,1126,1209,780,1170,1561,1536,2313,2036
982277,382596,360096,426920,426920,1007,781,-977,-2032,1778,1541,-1605,5482,86,129,890,1126,1209,780,1170,1561,1536,2313,2036
983278,383048,360724,427388,427388,1182,627,-1236,-1701,2004,873,-199,6132,107,132,895,994,1080,714,1043,1675,1613,2391,2104
984279,383500,361308,427856,427856,1182,899,-1406,-1497,2115,962,-1044,5432,109,146,900,994,1080,714,1043,1675,1613,2391,2104
985280,383948,361864,428324,428324,1208,1072,-1518,-1308,2217,420,-1488,5026,95,144,900,994,1080,714,1043,1675,1613,2391,2104
986281,384396,362460,428792,428792,1208,819,-1679,-1311,2370,-720,-1814,4256,97,129,896,994,1080,714,1043,1675,1613,2391,2104
987282,384836,363108,429260,429260,1259,490,-1861,-1282,2585,-1026,-2653,4158,86,143,895,994,1080,714,1043,1675,1613,2391,2104
