time,Right Leg Pos,Left Leg Pos,Commanded Right Leg Pos,Commanded Left Leg Pos,DCR,DCL,GyroX,GyroY,GyroZ,AX,AY,AZ,RBEMF,LBEMF,VBatt,S1,S2,S3,S4,S5,S6,S7,S8
764,32176,-18272,0,0,-836,471,-64,-12,-74,368,-257,3901,-9,-5,845,1159,1225,999,1158,1371,1258,1490,1729
1765,32168,-18272,0,0,-736,446,-63,-11,-75,371,-238,3900,-8,6,844,1159,1225,999,1158,1371,1258,1490,1729
2766,32164,-18276,0,0,-761,471,-65,-14,-74,370,-242,3910,-9,-8,844,1159,1225,999,1158,1371,1258,1490,1729
3767,32160,-18272,0,0,-761,421,-65,-15,-77,381,-245,3946,-9,5,844,1159,1225,999,1158,1371,1258,1490,1729
4768,32152,-18272,0,0,-735,446,-66,-15,-74,375,-267,3926,-9,-1,845,1160,1224,998,1157,1372,1259,1490,1730
5769,32160,-18280,0,0,-836,496,-65,-14,-73,350,-251,3905,-9,-5,845,1160,1224,998,1157,1372,1259,1490,1730
6770,32172,-18272,0,0,-861,396,-65,-14,-73,358,-242,3939,-8,5,845,1160,1224,998,1157,1372,1259,1490,1730
7771,32164,-18280,0,0,-736,496,-64,-13,-74,333,-236,3933,-9,0,845,1160,1224,998,1157,1372,1259,1490,1730
8772,32156,-18268,0,0,-736,370,-64,-12,-75,362,-205,3938,-8,-8,845,1160,1224,998,1157,1372,1259,1490,1730
9773,32160,-18280,0,0,-811,521,-63,-12,-73,383,-209,3922,-8,4,845,1160,1224,998,1157,1372,1259,1490,1730
10774,32164,-18272,0,0,-811,396,-64,-12,-73,346,-234,3907,-6,-9,845,1159,1224,997,1157,1370,1258,1490,1729
11775,32176,-18280,0,0,-861,496,-65,-14,-76,324,-218,3953,0,5,845,1159,1224,997,1157,1370,1258,1490,1729
12776,32168,-18276,0,0,-736,421,-64,-15,-76,348,-221,3952,2,-7,845,1159,1224,997,1157,1370,1258,1490,1729
13777,32156,-18280,0,0,-711,471,-65,-15,-75,345,-233,3935,7,5,844,1159,1224,997,1157,1370,1258,1490,1729
14778,32160,-18276,0,0,-811,421,-65,-14,-73,333,-235,3949,6,-8,845,1159,1224,997,1157,1370,1258,1490,1729
15779,32164,-18276,0,0,-811,446,-64,-13,-74,349,-204,3942,7,5,845,1159,1225,998,1158,1371,1258,1490,1728
16780,32160,-18272,0,0,-761,421,-63,-14,-74,358,-220,3912,5,-8,845,1159,1225,998,1158,1371,1258,1490,1728
17781,32168,-18268,0,0,-836,420,-65,-14,-73,369,-209,3881,-1,4,845,1159,1225,998,1158,1371,1258,1490,1728
18782,32156,-18264,0,0,-711,420,-66,-14,-73,359,-234,3899,1,1,845,1159,1225,998,1158,1371,1258,1490,1728
19783,32168,-18272,0,0,-861,496,-66,-13,-74,359,-208,3952,-2,-1,839,1159,1225,998,1158,1371,1258,1490,1728
20784,32152,-18276,0,0,-685,471,-64,-12,-76,384,-222,3931,-7,3,838,1159,1225,998,1158,1371,1258,1490,1728
21785,32168,-18280,0,0,-886,471,-62,-15,-75,374,-234,3902,-8,-6,845,1159,1224,998,1157,1371,1259,1491,1729
22786,32172,-18264,0,0,-811,345,-62,-15,-76,377,-255,3924,-8,3,845,1159,1224,998,1157,1371,1259,1491,1729
23787,32156,-18284,0,0,-686,571,-66,-14,-76,347,-251,3949,-1,-6,845,1159,1224,998,1157,1371,1259,1491,1729
24788,32164,-18268,0,0,-836,345,-65,-12,-75,350,-246,3938,-1,-2,844,1159,1224,998,1157,1371,1259,1491,1729
25789,32164,-18260,0,0,-786,395,-63,-13,-77,370,-216,3933,3,5,845,1159,1224,998,1157,1371,1259,1491,1729
26790,32160,-18264,0,0,-761,470,-62,-18,-76,351,-201,3924,6,-8,845,1159,1223,997,1158,1370,1258,1490,1729
27791,32168,-18264,0,0,-836,445,-64,-16,-74,348,-232,3935,6,4,845,1159,1223,997,1158,1370,1258,1490,1729
28792,32164,-18268,0,0,-761,470,-66,-13,-74,351,-247,3941,7,2,845,1159,1223,997,1158,1370,1258,1490,1729
29793,32160,-18272,0,0,-761,471,-67,-14,-75,369,-243,3923,6,-8,845,1159,1223,997,1158,1370,1258,1490,1729
30794,32156,-18268,0,0,-761,420,-64,-14,-74,365,-268,3924,7,6,845,1159,1223,997,1158,1370,1258,1490,1729
31795,32156,-18268,0,0,-786,445,-63,-16,-73,350,-265,3916,6,2,844,1159,1223,997,1158,1370,1258,1490,1729
32796,32156,-18276,0,0,-786,496,-65,-17,-75,354,-242,3927,5,2,845,1159,1224,998,1158,1372,1259,1490,1728
33797,32156,-18268,0,0,-786,395,-65,-17,-75,342,-237,3943,7,-2,844,1159,1224,998,1158,1372,1259,1490,1728
34798,32168,-18276,0,0,-861,496,-66,-14,-73,344,-221,3917,6,0,844,1159,1224,998,1158,1372,1259,1490,1728
35799,32164,-18272,0,0,-761,421,-67,-13,-73,341,-226,3885,5,-6,845,1159,1224,998,1158,1372,1259,1490,1728
36800,32164,-18280,0,0,-786,496,-67,-14,-75,347,-262,3884,6,1,839,1159,1224,998,1158,1372,1259,1490,1728
37801,32156,-18284,0,0,-736,471,-67,-14,-74,334,-241,3861,1,2,839,1159,1223,993,1158,1372,1260,1492,1732
38802,32156,-18272,0,0,-786,371,-69,-16,-75,346,-217,3892,-4,-5,845,1159,1223,993,1158,1372,1260,1492,1732
39803,32164,-18284,0,0,-836,521,-68,-14,-76,362,-220,3933,-8,6,845,1159,1223,993,1158,1372,1260,1492,1732
40804,32168,-18280,0,0,-811,421,-68,-14,-76,351,-220,3916,-7,4,845,1159,1223,993,1158,1372,1260,1492,1732
41805,32160,-18272,0,0,-736,396,-68,-15,-76,343,-215,3904,2,0,845,1159,1223,993,1158,1372,1260,1492,1732
42806,32164,-18272,0,0,-811,446,-66,-14,-76,360,-207,3892,5,5,845,1159,1223,993,1158,1372,1260,1492,1732
43807,32168,-18276,0,0,-811,471,-65,-13,-76,375,-225,3931,6,-8,845,1159,1224,997,1157,1370,1259,1490,1730
44808,32168,-18280,0,0,-786,471,-65,-13,-75,361,-221,3935,-5,0,844,1159,1224,997,1157,1370,1259,1490,1730
45809,32152,-18264,0,0,-685,345,-66,-12,-72,370,-211,3949,-4,4,845,1159,1224,997,1157,1370,1259,1490,1730
46810,32176,-18272,0,0,-936,496,-67,-14,-73,353,-230,3936,-6,-8,844,1159,1224,997,1157,1370,1259,1490,1730
47811,32160,-18280,0,0,-686,496,-69,-16,-74,369,-231,3924,-7,5,845,1159,1224,997,1157,1370,1259,1490,1730
48812,32160,-18284,0,0,-786,471,-69,-13,-76,368,-234,3928,-5,-7,845,1159,1225,998,1158,1371,1259,1491,1729
49813,32160,-18276,0,0,-786,396,-66,-12,-78,352,-226,3934,-9,4,844,1159,1225,998,1158,1371,1259,1491,1729
50814,32160,-18272,0,0,-786,421,-64,-14,-74,383,-234,3944,-9,-6,845,1159,1225,998,1158,1371,1259,1491,1729
51815,32164,-18276,0,0,-811,471,-64,-14,-72,394,-239,3939,-7,2,844,1159,1225,998,1158,1371,1259,1491,1729
52816,32156,-18280,0,0,-736,471,-66,-13,-73,363,-242,3943,-8,-8,844,1159,1225,998,1158,1371,1259,1491,1729
53817,32168,-18264,0,0,-861,345,-67,-12,-75,362,-227,3907,-9,1,839,1159,1225,998,1158,1371,1259,1491,1729
54818,32156,-18264,0,0,-711,445,-67,-13,-74,365,-234,3887,-5,3,839,1159,1223,996,1157,1371,1255,1492,1732
55819,32164,-18264,0,0,-836,445,-68,-14,-72,353,-231,3888,2,-8,844,1159,1223,996,1157,1371,1255,1492,1732
56820,32176,-18268,0,0,-861,470,-66,-14,-71,360,-230,3923,7,-1,845,1159,1223,996,1157,1371,1255,1492,1732
57821,32172,-18276,0,0,-761,496,-65,-13,-72,358,-247,3931,6,-6,844,1159,1223,996,1157,1371,1255,1492,1732
58822,32160,-18268,0,0,-711,395,-67,-13,-73,373,-251,3944,6,-5,844,1159,1223,996,1157,1371,1255,1492,1732
59823,32160,-18268,0,0,-786,445,-67,-15,-74,374,-233,3919,5,-3,845,1159,1224,997,1157,1370,1258,1489,1729
60824,32164,-18280,0,0,-811,521,-68,-17,-76,361,-222,3907,6,6,844,1159,1224,997,1157,1370,1258,1489,1729
61825,32168,-18276,0,0,-811,421,-67,-16,-76,365,-218,3900,2,-8,844,1159,1224,997,1157,1370,1258,1489,1729
62826,32160,-18288,0,0,-736,521,-65,-14,-76,375,-216,3935,-5,5,844,1159,1224,997,1157,1370,1258,1489,1729
63827,32176,-18280,0,0,-886,396,-66,-13,-74,401,-230,3917,-6,0,845,1159,1224,997,1157,1370,1258,1489,1729
64828,32156,-18272,0,0,-661,396,-68,-14,-74,396,-230,3910,-9,-4,845,1159,1224,997,1157,1370,1258,1489,1729
65829,32168,-18276,0,0,-861,471,-68,-13,-75,370,-245,3917,-8,1,844,1160,1225,999,1157,1371,1258,1490,1729
66830,32164,-18272,0,0,-761,421,-69,-13,-77,371,-264,3957,-8,-8,844,1160,1225,999,1157,1371,1258,1490,1729
67831,32164,-18284,0,0,-786,521,-67,-14,-74,395,-245,3916,-5,5,845,1160,1225,999,1157,1371,1258,1490,1729
68832,32172,-18268,0,0,-836,345,-67,-15,-74,362,-218,3934,-2,-8,845,1160,1225,999,1157,1371,1258,1490,1729
69833,32160,-18280,0,0,-711,521,-66,-15,-76,362,-217,3903,0,-1,844,1160,1225,999,1157,1371,1258,1490,1729
70834,32168,-18268,0,0,-836,370,-65,-15,-77,348,-229,3909,6,-4,839,1159,1223,997,1157,1370,1258,1491,1727
71835,32160,-18272,0,0,-736,471,-65,-16,-75,337,-218,3932,6,-7,838,1159,1223,997,1157,1370,1258,1491,1727
72836,32164,-18280,0,0,-811,496,-65,-17,-75,366,-239,3909,2,5,845,1159,1223,997,1157,1370,1258,1491,1727
73837,32156,-18268,0,0,-736,370,-64,-16,-74,365,-233,3914,-8,-2,845,1159,1223,997,1157,1370,1258,1491,1727
74838,32172,-18284,0,0,-886,546,-64,-13,-74,366,-230,3921,-9,-1,845,1159,1223,997,1157,1370,1258,1491,1727
75839,32168,-18284,0,0,-761,446,-64,-15,-75,367,-215,3916,-9,-1,845,1159,1223,997,1157,1370,1258,1491,1727
76840,32164,-18284,0,0,-761,446,-67,-14,-77,360,-235,3954,-5,-8,845,1159,1224,997,1158,1371,1258,1490,1729
77841,32168,-18276,0,0,-811,396,-68,-14,-76,336,-228,3959,3,4,845,1159,1224,997,1158,1371,1258,1490,1729
78842,32168,-18280,0,0,-786,471,-66,-15,-74,356,-233,3916,3,-8,845,1159,1224,997,1158,1371,1258,1490,1729
79843,32168,-18268,0,0,-786,370,-63,-15,-75,380,-237,3870,5,1,844,1159,1224,997,1158,1371,1258,1490,1729
80844,32164,-18272,0,0,-761,471,-61,-14,-77,399,-234,3898,6,-7,845,1159,1224,997,1158,1371,1258,1490,1729
81845,32164,-18276,0,0,-786,471,-63,-13,-76,367,-237,3914,6,0,845,1158,1223,999,1159,1372,1260,1490,1728
82846,32160,-18268,0,0,-761,395,-67,-14,-76,342,-235,3905,-2,-8,845,1158,1223,999,1159,1372,1260,1490,1728
83847,32176,-18268,0,0,-886,445,-66,-16,-75,381,-234,3948,-9,-4,844,1158,1223,999,1159,1372,1260,1490,1728
84848,32156,-18264,0,0,-661,420,-62,-14,-75,370,-250,3931,-7,-1,845,1158,1223,999,1159,1372,1260,1490,1728
85849,32148,-18276,0,0,-735,521,-60,-14,-74,365,-246,3921,4,-6,845,1158,1223,999,1159,1372,1260,1490,1728
86852,32160,-18276,0,0,-861,446,-62,-15,-74,339,-231,3920,1,-2,844,1158,1223,999,1159,1372,1260,1490,1728
87851,32160,-18264,0,0,-786,370,-64,-15,-75,357,-227,3935,-6,3,839,1158,1224,996,1157,1371,1258,1490,1730
88852,32156,-18284,0,0,-761,571,-65,-14,-75,370,-248,3918,-5,-6,844,1158,1224,996,1157,1371,1258,1490,1730
89853,32168,-18268,0,0,-861,345,-65,-14,-74,375,-231,3919,7,5,845,1158,1224,996,1157,1371,1258,1490,1730
90854,32168,-18268,0,0,-786,445,-66,-13,-73,365,-222,3934,5,-8,844,1158,1224,996,1157,1371,1258,1490,1730
91855,32164,-18276,0,0,-761,496,-64,-15,-74,354,-249,3924,-6,4,845,1158,1224,996,1157,1371,1258,1490,1730
92856,32168,-18276,0,0,-811,446,-64,-16,-76,360,-211,3946,-7,-8,845,1159,1224,997,1157,1371,1259,1490,1729
93857,32152,-18280,0,0,-685,471,-65,-15,-79,379,-222,3959,-4,1,844,1159,1224,997,1157,1371,1259,1490,1729
94858,32160,-18280,0,0,-836,446,-65,-16,-76,356,-240,3954,5,-8,845,1159,1224,997,1157,1371,1259,1490,1729
95859,32168,-18280,0,0,-836,446,-63,-17,-76,347,-234,3917,5,-2,844,1159,1224,997,1157,1371,1259,1490,1729
96860,32156,-18280,0,0,-711,446,-63,-16,-76,365,-232,3934,3,-7,845,1159,1224,997,1157,1371,1259,1490,1729
97861,32176,-18280,0,0,-911,446,-67,-14,-76,386,-222,3969,-5,2,845,1159,1224,997,1157,1371,1259,1490,1729
98862,32160,-18272,0,0,-686,396,-67,-11,-73,372,-238,3957,-9,-9,844,1159,1224,999,1155,1370,1258,1491,1732
99863,32172,-18276,0,0,-861,471,-65,-12,-73,356,-253,3950,-9,5,844,1159,1224,999,1155,1370,1258,1491,1732
100864,32152,-18268,0,0,-660,395,-64,-16,-74,349,-214,3936,-3,4,844,1159,1224,999,1155,1370,1258,1491,1732
101865,32156,-18268,0,0,-811,445,-64,-17,-74,345,-203,3917,6,0,844,1159,1224,999,1155,1370,1258,1491,1732
102866,32160,-18276,0,0,-811,496,-65,-16,-74,342,-228,3907,6,0,845,1159,1224,999,1155,1370,1258,1491,1732
103867,32168,-18280,16384,16384,1214,2521,-64,-15,-73,359,-236,3922,1,-7,839,1159,1224,997,1156,1370,1258,1490,1730
104868,32156,-18268,16648,16648,1346,2427,-64,-14,-75,368,-223,3919,-7,-44,767,1159,1224,997,1156,1370,1258,1490,1730
105869,32184,-18200,16912,16912,1102,2082,-66,-13,-75,355,-231,3949,24,-12,769,1159,1224,997,1156,1370,1258,1490,1730
106870,32172,-18060,17176,17176,1358,1635,-59,-13,-72,412,-396,4009,15,17,788,1159,1224,997,1156,1370,1258,1490,1730
107871,32232,-17816,17440,17440,913,985,-44,-46,-73,411,-284,3960,22,39,796,1159,1224,997,1156,1370,1258,1490,1730
108872,32352,-17548,17704,17704,542,835,-31,-26,-86,323,-112,4180,36,56,825,1159,1224,997,1156,1370,1258,1490,1730
109873,32504,-17284,17968,17968,345,860,-59,9,-99,456,-654,4290,22,51,837,1152,1216,999,1171,1356,1240,1527,1759
110874,32632,-17012,18232,18232,498,810,-78,40,-81,568,-271,4085,28,59,840,1152,1216,999,1171,1356,1240,1527,1759
111875,32768,-16692,18496,18496,451,509,-139,95,-59,733,15,4150,24,56,838,1152,1216,999,1171,1356,1240,1527,1759
112876,32912,-16384,18760,18760,404,583,-133,86,-37,403,-88,3502,23,53,845,1152,1216,999,1171,1356,1240,1527,1759
113877,33056,-16036,19024,19024,407,330,-140,39,-25,31,-134,3971,32,48,845,1152,1216,999,1171,1356,1240,1527,1759
114878,33192,-15692,19288,19288,460,354,-167,60,-17,109,-718,3998,23,59,848,1160,1226,999,1160,1378,1267,1500,1738
115879,33324,-15360,19552,19552,488,427,-181,65,-16,243,-246,3914,20,60,847,1160,1226,999,1160,1378,1267,1500,1738
116880,33440,-15080,19816,19816,592,751,-165,13,-14,406,-549,3920,27,55,846,1160,1226,999,1160,1378,1267,1500,1738
117881,33576,-14788,20080,20080,470,676,-156,22,1,228,-435,4010,24,50,838,1160,1226,999,1160,1378,1267,1500,1738
118882,33700,-14448,20344,20344,548,374,-117,14,4,223,-484,4077,25,52,842,1160,1226,999,1160,1378,1267,1500,1738
119883,33812,-14132,20608,20608,627,523,-65,54,-15,425,-567,3967,25,59,845,1160,1226,999,1160,1378,1267,1500,1738
120884,33928,-13828,20872,20872,606,597,-36,35,-43,444,-316,4410,26,56,838,1153,1218,995,1155,1382,1269,1497,1734
121885,34036,-13536,21136,21136,660,671,-40,24,-58,290,-443,4657,14,54,836,1153,1218,995,1155,1382,1269,1497,1734
122886,34132,-13220,21400,21400,739,520,-53,34,-62,373,-65,4400,16,45,838,1153,1218,995,1155,1382,1269,1497,1734
123887,34252,-12924,21664,21664,592,644,-70,39,-67,366,-294,4670,14,51,839,1153,1218,995,1155,1382,1269,1497,1734
124888,34360,-12668,21928,21928,671,894,-89,23,-70,84,-164,4511,22,42,840,1153,1218,995,1155,1382,1269,1497,1734
125889,34468,-12392,22192,22192,675,769,-98,-19,-68,110,-539,4436,14,41,832,1163,1229,1003,1166,1365,1259,1494,1732
126890,34596,-12124,22456,22456,553,819,-113,-51,-65,177,-60,4825,16,50,836,1163,1229,1003,1166,1365,1259,1494,1732
127891,34692,-11872,22720,22720,757,919,-123,-65,-48,363,-440,4528,27,45,837,1163,1229,1003,1166,1365,1259,1494,1732
128892,34808,-11652,22984,22984,636,1120,-113,-69,-20,270,-786,4329,16,47,831,1163,1229,1003,1166,1365,1259,1494,1732
129893,34912,-11404,23248,23248,715,945,-82,-69,-19,224,-413,4370,30,35,828,1163,1229,1003,1166,1365,1259,1494,1732
130894,35016,-11140,23512,23512,719,845,-60,-46,-29,446,-659,4443,27,37,831,1163,1229,1003,1166,1365,1259,1494,1732
131895,35132,-10892,23776,23776,647,946,-47,-82,-18,237,-593,4426,18,44,833,1183,1252,1017,1180,1376,1265,1507,1754
132896,35252,-10664,24040,24040,626,1072,-30,-131,-1,326,-196,4398,29,45,830,1183,1252,1017,1180,1376,1265,1507,1754
133897,35368,-10432,24304,24304,654,1048,8,-125,-1,580,-781,4395,25,39,830,1183,1252,1017,1180,1376,1265,1507,1754
134900,35468,-10204,24568,24568,758,1073,48,-157,-39,167,-378,4353,24,34,829,1183,1252,1017,1180,1376,1265,1507,1754
135899,35576,-9996,24832,24832,712,1200,76,-217,-53,124,-516,4602,15,38,826,1183,1252,1017,1180,1376,1265,1507,1754
136900,35700,-9768,25096,25096,616,1076,102,-212,-51,561,-451,4674,26,28,824,1189,1261,1013,1175,1377,1260,1506,1743
137901,35776,-9568,25360,25360,920,1252,132,-227,-51,418,-544,4577,12,42,825,1189,1261,1013,1175,1377,1260,1506,1743
138902,35872,-9380,25624,25624,799,1329,179,-265,-67,94,-260,4763,13,29,815,1189,1261,1013,1175,1377,1260,1506,1743
139903,35980,-9168,25888,25888,728,1180,215,-304,-74,273,-489,4442,16,40,817,1189,1261,1013,1175,1377,1260,1506,1743
140904,36064,-8960,26152,26152,883,1207,246,-343,-81,175,-403,4660,27,41,824,1189,1261,1013,1175,1377,1260,1506,1743
141905,36164,-8780,26416,26416,787,1384,260,-373,-82,263,-264,4589,12,26,820,1189,1261,1013,1175,1377,1260,1506,1743
142906,36284,-8600,26680,26680,665,1386,279,-371,-68,349,-471,4597,21,27,817,1186,1259,997,1156,1348,1219,1477,1715
143907,36376,-8436,26944,26944,844,1488,293,-343,-70,215,-572,4642,28,33,820,1186,1259,997,1156,1348,1219,1477,1715
144908,36472,-8260,27208,27208,823,1415,333,-364,-72,97,-228,4617,12,28,812,1186,1259,997,1156,1348,1219,1477,1715
145909,36560,-8108,27472,27472,878,1568,376,-412,-41,527,-476,4468,15,28,815,1186,1259,997,1156,1348,1219,1477,1715
146910,36664,-7948,27736,27736,782,1521,410,-509,-13,116,-777,4467,18,27,810,1186,1259,997,1156,1348,1219,1477,1715
147911,36768,-7788,28000,28000,785,1523,442,-612,-19,-103,-35,4533,20,27,812,1156,1231,992,1152,1344,1216,1456,1716
148912,36880,-7620,28264,28264,739,1476,479,-675,3,382,-611,4402,20,20,812,1156,1231,992,1152,1344,1216,1456,1716
149913,36988,-7464,28528,28528,768,1553,512,-695,23,492,-197,4482,29,32,815,1156,1231,992,1152,1344,1216,1456,1716
150914,37104,-7312,28792,28792,722,1581,567,-725,16,472,-375,4373,31,21,812,1156,1231,992,1152,1344,1216,1456,1716
151915,37188,-7160,29056,29056,926,1584,596,-731,35,534,-461,4195,27,17,813,1156,1231,992,1152,1344,1216,1456,1716
152916,37316,-7012,29320,29320,654,1612,644,-750,65,550,-433,4247,14,18,808,1156,1231,992,1152,1344,1216,1456,1716
153917,37412,-6844,29584,29584,858,1489,676,-725,46,492,-281,4102,21,24,809,1190,1265,1014,1172,1366,1260,1496,1740
154918,37508,-6700,29848,29848,862,1642,699,-672,40,266,-547,4003,25,19,810,1190,1265,1014,1172,1366,1260,1496,1740
155919,37624,-6572,30112,30112,741,1745,731,-618,47,346,-91,4058,16,19,801,1190,1265,1014,1172,1366,1260,1496,1740
156920,37724,-6444,30376,30376,845,1748,748,-555,55,372,-625,3893,23,14,805,1190,1265,1014,1172,1366,1260,1496,1740
157921,37836,-6288,30640,30640,774,1576,779,-547,49,100,7,4108,28,21,802,1190,1265,1014,1172,1366,1260,1496,1740
158922,37944,-6144,30904,30904,803,1654,788,-586,51,76,-417,4014,16,27,809,1179,1247,1007,1163,1351,1247,1481,1703
159923,38048,-6036,31168,31168,832,1883,819,-656,76,-144,-242,4089,29,16,806,1179,1247,1007,1163,1351,1247,1481,1703
160924,38144,-5928,31432,31432,886,1887,817,-696,98,-366,-371,4202,23,14,798,1179,1247,1007,1163,1351,1247,1481,1703
161925,38252,-5804,31696,31696,814,1790,831,-695,103,-164,270,4379,15,18,796,1179,1247,1007,1163,1351,1247,1481,1703
162926,38368,-5708,31960,31960,768,1969,831,-663,116,164,-445,3944,27,19,801,1179,1247,1007,1163,1351,1247,1481,1703
163927,38476,-5608,32224,32224,822,1948,831,-616,147,-48,-193,4199,27,10,796,1179,1247,1007,1163,1351,1247,1481,1703
164928,38580,-5496,32768,32768,858,1884,824,-591,165,384,-118,3832,16,9,796,1149,1213,984,1139,1344,1234,1455,1692
165929,38672,-5396,33032,33032,937,1963,826,-589,188,476,-315,3980,25,16,799,1149,1213,984,1139,1344,1234,1455,1692
166930,38764,-5300,33296,33296,941,1992,822,-623,214,276,155,3952,16,0,794,1149,1213,984,1139,1344,1234,1455,1692
167931,38888,-5196,33560,33560,744,1946,812,-596,239,451,-322,4037,31,5,793,1149,1213,984,1139,1344,1234,1455,1692
168932,38992,-5096,33824,33824,873,1975,810,-514,249,495,-127,3848,32,4,798,1149,1213,984,1139,1344,1234,1455,1692
169933,39116,-5020,34088,34088,752,2129,830,-452,243,513,86,4001,33,10,795,1123,1187,978,1127,1352,1241,1459,1708
170934,39232,-4900,34352,34352,805,1858,830,-374,244,578,-93,3796,22,4,793,1123,1187,978,1127,1352,1241,1459,1708
171935,39320,-4800,34616,34616,985,1987,828,-320,239,453,-73,3721,32,2,798,1123,1187,978,1127,1352,1241,1459,1708
172936,39424,-4712,34880,34880,889,2066,830,-327,240,419,304,3686,32,2,786,1123,1187,978,1127,1352,1241,1459,1708
173937,39568,-4636,35144,35144,641,2146,807,-319,246,611,-142,3562,23,-1,789,1123,1187,978,1127,1352,1241,1459,1708
174938,39660,-4556,35408,35408,971,2125,770,-300,241,385,-241,3405,26,-7,790,1123,1187,978,1127,1352,1241,1459,1708
175939,39788,-4464,35672,35672,749,2054,750,-320,226,341,271,3475,25,6,785,1132,1193,980,1120,1336,1230,1456,1691
176940,39884,-4388,35936,35936,953,2159,736,-329,220,258,106,3424,35,12,792,1132,1193,980,1120,1336,1230,1456,1691
177941,39988,-4304,36200,36200,907,2113,708,-284,221,263,29,3459,24,9,784,1132,1193,980,1120,1336,1230,1456,1691
178942,40124,-4232,36464,36464,710,2193,688,-252,231,305,85,3452,19,4,786,1132,1193,980,1120,1336,1230,1456,1691
179943,40240,-4148,36728,36728,839,2122,663,-243,244,468,187,3465,20,9,788,1132,1193,980,1120,1336,1230,1456,1691
180944,40348,-4068,36992,36992,893,2152,631,-242,256,401,266,3696,33,-8,787,1088,1156,944,1088,1320,1200,1411,1696
181945,40456,-3984,37256,37256,896,2131,595,-207,271,426,269,3571,20,10,779,1088,1156,944,1088,1320,1200,1411,1696
182946,40552,-3900,37520,37520,975,2136,582,-196,293,505,480,3498,34,-4,786,1088,1156,944,1088,1320,1200,1411,1696
183947,40652,-3836,37784,37784,954,2266,560,-168,309,614,280,3756,25,4,784,1088,1156,944,1088,1320,1200,1411,1696
184949,40788,-3744,38048,38048,733,2095,535,-92,313,662,433,3720,23,-3,780,1088,1156,944,1088,1320,1200,1411,1696
185949,40876,-3692,38312,38312,1037,2350,528,-62,308,782,691,3583,22,-14,790,1088,1156,944,1088,1320,1200,1411,1696
186950,40968,-3632,38576,38576,1016,2305,511,-61,309,965,238,3490,29,-9,777,1107,1175,960,1106,1361,1235,1467,1716
187951,41108,-3576,38840,38840,719,2335,480,-70,327,773,491,3494,31,-17,779,1107,1175,960,1106,1361,1235,1467,1716
188952,41184,-3512,39104,39104,1124,2290,449,-64,319,681,613,3532,21,-15,782,1107,1175,960,1106,1361,1235,1467,1716
189953,41308,-3428,39368,39368,827,2169,453,-62,282,750,736,3408,24,-7,774,1107,1175,960,1106,1361,1235,1467,1716
190954,41396,-3372,39632,39632,1056,2349,447,-46,274,629,378,3375,27,-5,781,1107,1175,960,1106,1361,1235,1467,1716
191955,41484,-3304,39896,39896,1061,2279,433,-42,262,544,532,3538,20,-6,776,1116,1185,980,1119,1371,1256,1484,1719
192956,41600,-3224,40160,40160,889,2209,417,-82,238,504,339,3287,20,-15,778,1116,1185,980,1119,1371,1256,1484,1719
193957,41708,-3184,40424,40424,943,2464,405,-125,209,476,533,3468,19,-15,784,1116,1185,980,1119,1371,1256,1484,1719
194958,41804,-3108,40688,40688,1022,2244,377,-137,191,508,475,3543,28,-8,774,1116,1185,980,1119,1371,1256,1484,1719
195959,41916,-3068,40952,40952,926,2474,341,-131,166,599,650,3532,32,-23,778,1116,1185,980,1119,1371,1256,1484,1719
196960,42032,-3020,41216,41216,905,2429,304,-138,143,735,656,3626,19,-3,773,1116,1185,980,1119,1371,1256,1484,1719
197961,42108,-2968,41480,41480,1159,2410,269,-137,160,641,564,3716,20,-21,773,1151,1215,1003,1151,1383,1265,1495,1751
198962,42220,-2948,41744,41744,938,2616,217,-133,177,736,523,3563,31,-21,769,1151,1215,1003,1151,1383,1265,1495,1751
199963,42312,-2884,42008,42008,1067,2345,194,-143,196,477,626,3620,33,-7,765,1151,1215,1003,1151,1383,1265,1495,1751
200964,42388,-2848,42272,42272,1172,2526,174,-104,198,706,494,3693,29,-24,772,1151,1215,1003,1151,1383,1265,1495,1751
201965,42528,-2804,42536,42536,775,2481,157,-61,196,712,614,3734,21,-5,758,1151,1215,1003,1151,1383,1265,1495,1751
202966,42596,-2752,42800,42800,1229,2437,156,-57,197,730,720,3732,38,-10,774,1105,1176,960,1096,1338,1227,1451,1690
203967,42672,-2708,43064,43064,1184,2492,142,-34,196,834,472,3755,16,-20,768,1105,1176,960,1096,1338,1227,1451,1690
204968,42760,-2656,43328,43328,1113,2447,143,-48,206,612,770,3652,24,-22,767,1105,1176,960,1096,1338,1227,1451,1690
205969,42880,-2652,43592,43592,917,2754,145,-45,202,698,654,3669,28,-24,770,1105,1176,960,1096,1338,1227,1451,1690
206970,42936,-2608,43856,43856,1322,2509,136,-7,170,796,544,3783,36,-20,759,1105,1176,960,1096,1338,1227,1451,1690
207971,43056,-2568,44120,44120,925,2539,121,-5,142,708,696,3689,23,-50,763,1105,1176,960,1096,1338,1227,1451,1690
208972,43144,-2536,44384,44384,1130,2595,88,16,131,752,680,3881,30,-15,771,1093,1166,953,1085,1342,1219,1423,1667
209973,43220,-2496,44648,44648,1209,2550,73,26,112,677,801,3758,30,-23,764,1093,1166,953,1085,1342,1219,1423,1667
210974,43308,-2476,44912,44912,1139,2681,45,55,80,666,527,3843,36,-20,764,1093,1166,953,1085,1342,1219,1423,1667
211975,43436,-2436,45176,45176,892,2562,25,56,51,571,643,3801,29,-25,759,1093,1166,953,1085,1342,1219,1423,1667
212976,43496,-2392,45440,45440,1322,2542,-8,52,33,701,535,3842,35,-32,769,1093,1166,953,1085,1342,1219,1423,1667
213977,43600,-2392,45704,45704,1051,2824,-37,32,29,602,294,3845,33,-29,754,1088,1137,931,1070,1312,1179,1388,1664
214978,43708,-2328,45968,45968,1030,2429,-70,11,20,442,371,3853,26,-17,759,1088,1137,931,1070,1312,1179,1388,1664
215979,43784,-2280,46232,46232,1234,2534,-85,7,-6,574,219,3990,36,-41,770,1088,1137,931,1070,1312,1179,1388,1664
216980,43848,-2272,46496,46496,1314,2790,-90,-27,9,607,314,3905,19,-25,764,1088,1137,931,1070,1312,1179,1388,1664
217981,43960,-2204,46760,46760,1018,2420,-91,-28,48,614,393,4284,23,-14,755,1088,1137,931,1070,1312,1179,1388,1664
218982,44040,-2172,47024,47024,1222,2651,-98,3,60,639,184,4139,24,-38,773,1101,1170,928,1072,1312,1179,1388,1664
219983,44108,-2120,47288,47288,1302,2531,-76,22,66,648,233,4056,20,-23,759,1101,1170,928,1072,1328,1216,1442,1683
220984,44252,-2100,47552,47552,830,2737,-59,47,73,599,344,4126,30,-22,756,1101,1170,928,1072,1328,1216,1442,1683
221985,44316,-2064,47816,47816,1335,2642,-54,94,67,592,138,4104,24,-28,762,1101,1170,928,1072,1328,1216,1442,1683
222986,44388,-2024,48080,48080,1290,2623,-62,88,62,554,281,4018,23,-44,758,1101,1170,928,1072,1328,1216,1442,1683
223987,44476,-1992,48344,48344,1194,2678,-72,93,69,604,457,4239,23,-33,757,1101,1170,928,1072,1328,1216,1442,1683
224988,44592,-1944,48608,48608,1023,2584,-69,118,76,531,407,4131,22,-34,760,1105,1175,943,1109,1355,1209,1451,1696
225989,44628,-1876,48872,48872,1528,2463,-68,155,62,667,280,4322,31,-27,768,1105,1175,943,1109,1355,1209,1451,1696
226990,44740,-1856,49152,49152,1057,2770,-58,145,58,614,309,4021,17,-21,764,1105,1175,943,1109,1355,1209,1451,1696
227991,44804,-1804,49416,49416,1362,2575,-48,94,72,519,365,4128,29,-22,762,1105,1175,943,1109,1355,1209,1451,1696
228992,44844,-1740,49680,49680,1518,2505,-40,66,79,497,371,4185,19,-38,762,1105,1175,943,1109,1355,1209,1451,1696
229993,44924,-1704,49944,49944,1272,2685,-31,59,69,550,295,4051,19,-29,762,1128,1211,1007,1147,1333,1220,1472,1736
230994,45036,-1644,50208,50208,1076,2540,-14,49,54,490,274,4261,17,-25,758,1128,1211,1007,1147,1333,1220,1472,1736
231995,45056,-1592,50472,50472,1657,2596,7,40,50,643,315,4362,19,-42,769,1128,1211,1007,1147,1333,1220,1472,1736
232996,45136,-1576,50736,50736,1286,2827,24,36,70,705,190,4481,28,-37,754,1128,1211,1007,1147,1333,1220,1472,1736
233997,45236,-1544,51000,51000,1165,2732,47,37,89,629,189,4470,30,-23,756,1128,1211,1007,1147,1333,1220,1472,1736
234998,45288,-1516,51264,51264,1470,2763,52,63,84,756,-246,4325,30,-57,760,1128,1211,1007,1147,1333,1220,1472,1736
235999,45340,-1480,51528,51528,1476,2719,56,69,87,673,-94,4353,31,-39,754,1167,1255,1015,1167,1368,1235,1487,1743
237000,45468,-1436,51792,51792,1004,2674,61,58,113,569,19,4347,18,-36,745,1167,1255,1015,1167,1368,1235,1487,1743
238001,45508,-1416,52056,52056,1559,2830,65,89,137,571,-269,4346,23,-22,762,1167,1255,1015,1167,1368,1235,1487,1743
239002,45548,-1368,52320,52320,1565,2660,92,118,143,481,69,4326,31,-22,749,1167,1255,1015,1167,1368,1235,1487,1743
240003,45644,-1312,52584,52584,1219,2615,126,96,157,342,-214,4211,24,-36,754,1167,1255,1015,1167,1368,1235,1487,1743
241004,45720,-1268,52848,52848,1349,2696,154,62,184,300,-256,4302,25,-14,758,1119,1191,963,1119,1339,1203,1429,1663
242005,45772,-1196,53112,53112,1504,2525,181,7,196,256,-54,4203,29,-17,756,1119,1191,963,1119,1339,1203,1429,1663
243006,45820,-1184,53376,53376,1534,2907,205,-41,196,150,-25,4253,26,-31,759,1119,1191,963,1119,1339,1203,1429,1663
244007,45952,-1140,53640,53640,1012,2712,225,-75,196,153,-89,4238,33,-10,745,1119,1191,963,1119,1339,1203,1429,1663
245008,46000,-1080,53904,53904,1542,2617,237,-101,202,173,-43,4296,30,-46,762,1119,1191,963,1119,1339,1203,1429,1663
246009,46036,-1044,54168,54168,1623,2772,236,-115,205,293,60,4223,26,-27,755,1119,1191,963,1119,1339,1203,1429,1663
247010,46104,-992,54432,54432,1428,2678,230,-119,208,226,182,4149,25,-23,749,1091,1184,954,1093,1292,1177,1447,1684
248011,46188,-968,54696,54696,1332,2858,224,-108,218,366,-220,4000,20,-29,755,1091,1184,954,1093,1292,1177,1447,1684
249012,46204,-940,54960,54960,1763,2839,208,-89,204,607,154,4271,31,-30,752,1091,1184,954,1093,1292,1177,1447,1684
251014,46364,-840,55488,55488,1497,2825,186,-91,201,384,-111,4229,28,-40,763,1091,1184,954,1093,1292,1177,1447,1684
252015,46388,-780,55752,55752,1728,2655,186,-56,216,418,-140,4305,31,-19,751,1065,1147,944,1056,1281,1129,1363,1659
253016,46460,-732,56016,56016,1433,2735,196,-48,222,414,-18,4162,32,-31,744,1065,1147,944,1056,1281,1129,1363,1659
254017,46580,-696,56280,56280,1136,2816,208,-55,225,249,-382,4117,37,-24,748,1065,1147,944,1056,1281,1129,1363,1659
255018,46632,-620,56544,56544,1566,2570,231,-76,229,245,-248,4046,30,-34,759,1065,1147,944,1056,1281,1129,1363,1659
256019,46668,-556,56808,56808,1672,2650,256,-113,254,364,-513,3916,16,-46,758,1065,1147,944,1056,1281,1129,1363,1659
257020,46784,-516,57072,57072,1176,2805,283,-147,295,209,-313,4184,17,-7,753,1065,1147,944,1056,1281,1129,1363,1659
258021,46864,-448,57336,57336,1405,2635,292,-148,327,357,-601,4145,31,-14,758,1032,1096,912,1056,1332,1204,1363,1624
259022,46900,-388,57600,57600,1686,2690,312,-171,340,329,-128,4091,19,-46,754,1032,1096,912,1056,1332,1204,1363,1624
260023,46980,-364,57864,57864,1415,2921,313,-227,346,392,-77,4040,23,-36,753,1032,1096,912,1056,1332,1204,1363,1624
261024,47084,-296,58128,58128,1269,2651,295,-244,364,391,-229,4185,32,-24,751,1032,1096,912,1056,1332,1204,1363,1624
262025,47148,-260,58392,58392,1524,2856,261,-260,372,454,62,4077,30,-60,764,1032,1096,912,1056,1332,1204,1363,1624
263026,47204,-208,58656,58656,1579,2762,239,-254,354,246,234,4067,16,-23,754,1104,1166,940,1064,1298,1182,1422,1698
264027,47292,-128,58920,58920,1383,2591,224,-234,340,280,116,3912,21,-42,755,1104,1166,940,1064,1298,1182,1422,1698
265028,47324,-68,59184,59184,1739,2721,204,-191,344,398,21,3900,21,-31,764,1104,1166,940,1064,1298,1182,1422,1698
266029,47336,-12,59448,59448,1870,2751,187,-154,359,300,128,4164,29,-24,746,1104,1166,940,1064,1298,1182,1422,1698
267030,47432,60,59712,59712,1349,2656,182,-186,355,186,-51,3708,21,-19,750,1104,1166,940,1064,1298,1182,1422,1698
268031,47508,116,59976,59976,1479,2761,201,-251,355,26,61,3784,27,-32,762,1104,1166,940,1064,1298,1182,1422,1698
269032,47492,200,60240,60240,2061,2590,260,-346,392,125,-21,3738,19,-34,757,1120,1216,944,1088,1367,1239,1495,1759
270033,47580,272,60504,60504,1415,2670,292,-361,454,489,-74,4048,11,-32,746,1120,1216,944,1088,1367,1239,1495,1759
271034,47660,312,60768,60768,1470,2875,307,-368,497,342,-177,3694,12,-10,758,1120,1216,944,1088,1367,1239,1495,1759
272035,47664,392,61032,61032,1951,2630,325,-355,516,232,134,3891,28,-24,752,1120,1216,944,1088,1367,1239,1495,1759
273036,47684,440,61296,61296,1857,2835,343,-348,519,481,147,3751,29,-40,749,1120,1216,944,1088,1367,1239,1495,1759
274037,47780,484,61560,61560,1386,2866,356,-329,528,403,129,3924,25,-19,746,1151,1211,983,1143,1371,1239,1487,1727
275038,47832,564,61824,61824,1666,2645,355,-328,541,380,197,3951,19,-34,751,1151,1211,983,1143,1371,1239,1487,1727
276039,47876,620,62088,62088,1721,2800,343,-294,538,578,382,4065,35,-37,748,1151,1211,983,1143,1371,1239,1487,1727
277040,47968,700,62352,62352,1426,2655,333,-290,539,544,399,3770,30,-23,746,1151,1211,983,1143,1371,1239,1487,1727
278041,48048,764,62616,62616,1505,2760,313,-247,561,418,281,3997,19,-39,759,1151,1211,983,1143,1371,1239,1487,1727
279042,48080,768,62880,62880,1811,3141,285,-194,572,475,326,4089,27,-29,754,1151,1211,983,1143,1371,1239,1487,1727
280043,48108,844,63144,63144,1842,2695,256,-178,545,503,247,3845,30,-36,737,1131,1207,975,1119,1335,1215,1459,1707
281044,48204,912,63408,63408,1421,2750,253,-213,521,102,195,3629,19,-82,749,1131,1207,975,1119,1335,1215,1459,1707
282045,48276,944,63672,63672,1575,2981,251,-226,514,181,260,3950,32,-21,756,1131,1207,975,1119,1335,1215,1459,1707
283046,48276,1020,63936,63936,2032,2711,269,-196,531,226,205,4079,29,-41,743,1131,1207,975,1119,1335,1215,1459,1707
284047,48360,1084,64200,64200,1511,2790,299,-222,560,152,113,3542,26,-47,744,1131,1207,975,1119,1335,1215,1459,1707
285048,48420,1108,64464,64464,1666,3046,317,-271,595,-8,-2,3786,15,-25,750,1071,1156,944,1083,1315,1190,1408,1624
286049,48428,1172,64728,64728,1997,2801,314,-283,612,243,149,3877,28,-42,741,1071,1156,944,1083,1315,1190,1408,1624
287050,48424,1240,64992,64992,2079,2781,312,-286,609,293,410,3703,29,-64,743,1071,1156,944,1083,1315,1190,1408,1624
288051,48508,1300,65256,65256,1533,2836,319,-287,626,106,346,3675,13,-27,742,1071,1156,944,1083,1315,1190,1408,1624
289052,48560,1392,65536,65536,1739,2641,326,-248,633,349,588,3827,14,-17,746,1071,1156,944,1083,1315,1190,1408,1624
290053,48568,1452,65800,65800,2020,2845,333,-207,623,474,618,3812,24,-41,754,1071,1156,944,1083,1315,1190,1408,1624
291054,48616,1508,66064,66064,1775,2876,320,-181,602,440,557,3864,15,-13,743,1041,1113,912,1040,1272,1168,1392,1616
292055,48708,1608,66328,66328,1505,2605,301,-181,613,262,533,3891,21,-30,744,1041,1113,912,1040,1272,1168,1392,1616
293056,48720,1692,66592,66592,2011,2709,269,-149,603,420,518,4044,17,-45,761,1041,1113,912,1040,1272,1168,1392,1616
294057,48724,1760,66856,66856,2067,2814,254,-118,581,368,843,3952,26,-23,747,1041,1113,912,1040,1272,1168,1392,1616
295058,48824,1876,67120,67120,1471,2517,238,-88,561,289,520,3991,19,-17,744,1041,1113,912,1040,1272,1168,1392,1616
296059,48864,1944,67384,67384,1852,2822,219,-52,555,281,388,4038,20,-28,768,1024,1104,896,1056,1282,1108,1320,1568
297060,48868,2028,67648,67648,2083,2727,213,-61,532,511,791,3923,16,-13,750,1024,1104,896,1056,1282,1108,1320,1568
298061,48944,2140,67912,67912,1638,2555,214,-106,541,261,276,3865,14,-24,746,1024,1104,896,1056,1282,1108,1320,1568
299062,49044,2216,68176,68176,1492,2785,202,-81,540,408,427,4123,20,-7,761,1024,1104,896,1056,1282,1108,1320,1568
300063,49096,2300,68440,68440,1797,2739,209,-48,549,476,630,4370,21,-5,757,1024,1104,896,1056,1282,1108,1320,1568
301064,49116,2400,68704,68704,2003,2643,217,-16,544,375,333,4043,31,-28,752,1024,1104,896,1056,1282,1108,1320,1568
302065,49256,2472,68968,68968,1256,2823,237,-50,528,71,511,3938,22,-18,749,1063,1129,905,1040,1317,1188,1431,1691
303066,49300,2564,69232,69232,1861,2702,237,-62,526,247,406,4202,33,-15,760,1063,1129,905,1040,1317,1188,1431,1691
304067,49324,2612,69496,69496,1992,2982,237,-36,519,523,768,4242,16,-49,751,1063,1129,905,1040,1317,1188,1431,1691
305068,49416,2676,69760,69760,1571,2887,254,-24,516,563,552,3949,31,-14,738,1063,1129,905,1040,1317,1188,1431,1691
306069,49524,2776,70024,70024,1475,2666,273,-37,531,249,561,3916,28,-40,751,1063,1129,905,1040,1317,1188,1431,1691
307070,49572,2852,70288,70288,1855,2821,257,-9,518,603,1017,4515,20,-46,760,1127,1181,952,1104,1368,1238,1479,1696
308071,49628,2944,70552,70552,1810,2725,234,49,506,753,1021,4217,33,-19,741,1127,1181,952,1104,1368,1238,1479,1696
309072,49732,3048,70816,70816,1514,2654,240,93,510,333,816,3971,35,-19,748,1127,1181,952,1104,1368,1238,1479,1696
310073,49772,3104,71080,71080,1920,2959,232,142,469,545,972,4225,16,-7,758,1127,1181,952,1104,1368,1238,1479,1696
311074,49776,3224,71344,71344,2151,2563,216,130,461,396,940,4206,16,-22,739,1127,1181,952,1104,1368,1238,1479,1696
312077,49848,3332,71608,71608,1731,2641,177,132,449,391,822,4251,31,-47,748,1127,1181,952,1104,1368,1238,1479,1696
313076,49944,3384,71872,71872,1585,2997,158,152,434,180,995,4246,25,-4,755,1119,1200,984,1120,1383,1271,1487,1743
314077,49992,3476,72136,72136,1890,2751,172,152,414,444,1096,4128,18,-19,746,1119,1200,984,1120,1383,1271,1487,1743
315078,50032,3564,72400,72400,1946,2780,171,148,399,547,760,4059,21,-64,749,1119,1200,984,1120,1383,1271,1487,1743
316079,50120,3624,72664,72664,1650,2960,174,103,404,174,870,4277,22,-22,744,1119,1200,984,1120,1383,1271,1487,1743
317080,50144,3724,72928,72928,2056,2714,165,128,413,481,679,4554,12,-27,738,1119,1200,984,1120,1383,1271,1487,1743
318081,50116,3836,73192,73192,2388,2643,158,166,406,666,594,4196,31,-56,746,1135,1215,991,1131,1382,1256,1480,1725
319082,50192,3936,73456,73456,1742,2722,162,200,401,160,826,4316,24,-12,741,1135,1215,991,1131,1382,1256,1480,1725
320083,50268,4064,73720,73720,1747,2550,177,223,395,313,619,4148,6,1,753,1135,1215,991,1131,1382,1256,1480,1725
321084,50300,4156,73984,73984,2028,2779,185,250,391,711,775,4408,29,-11,758,1135,1215,991,1131,1382,1256,1480,1725
322085,50352,4228,74248,74248,1908,2909,179,259,361,580,808,4192,26,-11,745,1135,1215,991,1131,1382,1256,1480,1725
323086,50464,4340,74512,74512,1537,2663,167,251,339,366,818,4193,26,-12,743,1135,1215,991,1131,1382,1256,1480,1725
324087,50528,4436,74776,74776,1841,2767,147,286,342,706,727,4285,28,-27,757,1067,1147,957,1083,1326,1211,1401,1639
325088,50540,4544,75040,75040,2173,2696,121,377,332,724,1028,4412,32,-9,749,1067,1147,957,1083,1326,1211,1401,1639
326089,50592,4672,75304,75304,1928,2574,109,424,325,632,1033,4055,32,-14,741,1067,1147,957,1083,1326,1211,1401,1639
327090,50736,4760,75568,75568,1356,2828,95,460,315,764,830,4122,22,-16,752,1067,1147,957,1083,1326,1211,1401,1639
328091,50812,4840,75832,75832,1785,2883,79,508,284,670,1436,4271,36,-8,758,1067,1147,957,1083,1326,1211,1401,1639
329092,50856,4948,76096,76096,1991,2712,67,531,257,768,1272,3940,20,-45,746,1074,1148,935,1052,1279,1193,1414,1688
330093,50952,5004,76360,76360,1670,3042,41,542,237,840,982,3937,33,-36,742,1074,1148,935,1052,1279,1193,1414,1688
331094,51040,5108,76624,76624,1724,2745,34,519,239,578,1333,4065,19,-24,744,1074,1148,935,1052,1279,1193,1414,1688
332095,51060,5248,76888,76888,2155,2524,4,558,238,786,791,4094,31,-55,753,1074,1148,935,1052,1279,1193,1414,1688
333096,51080,5340,77152,77152,2161,2828,-15,564,235,749,1298,3846,16,-13,751,1074,1148,935,1052,1279,1193,1414,1688
334097,51196,5452,77416,77416,1565,2706,-16,551,252,356,826,3772,15,6,743,1074,1148,935,1052,1279,1193,1414,1688
335098,51228,5592,77680,77680,2095,2534,-15,579,251,757,1150,3991,15,-20,759,1009,1105,899,1036,1291,1174,1383,1595
336099,51276,5684,77944,77944,2001,2839,-15,608,217,867,1079,3980,15,-19,751,1009,1105,899,1036,1291,1174,1383,1595
337100,51368,5828,78208,78208,1730,2517,-9,576,191,540,1273,3892,26,-7,748,1009,1105,899,1036,1291,1174,1383,1595
338101,51472,5956,78472,78472,1659,2620,-8,603,181,820,926,4230,19,-34,764,1009,1105,899,1036,1291,1174,1383,1595
339102,51500,6080,78736,78736,2139,2648,-17,653,166,999,1040,4086,21,-10,761,1009,1105,899,1036,1291,1174,1383,1595
340103,51536,6228,79000,79000,2095,2501,-12,671,158,694,1207,4178,15,-8,750,1080,1088,880,1044,1287,1168,1392,1664
341104,51688,6348,79264,79264,1373,2680,-18,699,157,1127,1010,4044,16,-9,754,1080,1088,880,1044,1287,1168,1392,1664
342105,51744,6460,79528,79528,1978,2733,-7,739,143,1168,1224,4083,26,-3,762,1080,1088,880,1044,1287,1168,1392,1664
343106,51796,6628,79792,79792,2008,2386,-2,758,110,1227,1336,3995,34,-16,745,1080,1088,880,1044,1287,1168,1392,1664
344107,51932,6744,80056,80056,1486,2714,-13,745,90,978,1226,3629,35,-8,757,1080,1088,880,1044,1287,1168,1392,1664
345108,52012,6880,80320,80320,1841,2592,-22,797,97,760,1099,4017,21,10,760,1080,1088,880,1044,1287,1168,1392,1664
346109,52064,7044,80584,80584,2021,2420,-35,904,86,1223,1296,3920,27,-16,756,1098,1176,946,1076,1304,1176,1440,1696
347110,52216,7164,80848,80848,1399,2698,-28,959,67,1212,1446,3785,33,5,757,1098,1176,946,1076,1304,1176,1440,1696
348111,52324,7328,81112,81112,1677,2426,-25,958,53,967,1336,3813,37,16,755,1098,1176,946,1076,1304,1176,1440,1696
349112,52412,7476,81376,81376,1807,2529,-31,969,31,1007,1413,3968,31,-12,766,1098,1176,946,1076,1304,1176,1440,1696
350113,52516,7620,81640,81640,1711,2557,-20,995,5,1029,1674,3845,39,7,760,1098,1176,946,1076,1304,1176,1440,1696
351114,52668,7828,81920,81920,1414,2158,-6,1068,-15,1006,1243,3789,30,11,763,1135,1207,986,1092,1330,1259,1489,1743
352115,52780,7996,82184,82184,1667,2411,37,1111,-34,920,1522,3800,42,6,781,1135,1207,986,1092,1330,1259,1489,1743
353116,52880,8172,82448,82448,1746,2363,88,1161,-56,913,1721,4126,23,8,768,1135,1207,986,1092,1330,1259,1489,1743
354117,53024,8368,82712,82712,1474,2240,111,1159,-89,1416,1618,3886,34,13,768,1135,1207,986,1092,1330,1259,1489,1743
355118,53104,8540,82976,82976,1879,2392,147,1142,-76,726,1282,3835,23,11,778,1135,1207,986,1092,1330,1259,1489,1743
356119,53176,8724,83240,83240,1933,2319,153,1204,-84,726,1578,4025,34,5,761,1135,1207,986,1092,1330,1259,1489,1743
357120,53320,8868,83504,83504,1486,2572,150,1284,-102,1093,1357,3991,32,19,764,1155,1239,999,1151,1375,1247,1503,1739
358121,53448,9040,83768,83768,1590,2399,152,1347,-113,982,1634,3867,36,12,767,1155,1239,999,1151,1375,1247,1503,1739
359122,53524,9228,84032,84032,1919,2301,130,1400,-139,1091,1491,3815,37,-7,769,1155,1239,999,1151,1375,1247,1503,1739
360124,53680,9428,84296,84296,1422,2227,125,1417,-160,1086,1712,3885,27,11,764,1155,1239,999,1151,1375,1247,1503,1739
361124,53812,9656,84560,84560,1575,2053,112,1508,-189,1285,1283,3811,42,23,778,1155,1239,999,1151,1375,1247,1503,1739
362125,53912,9856,84824,84824,1779,2230,138,1547,-211,1241,2189,3701,32,9,780,1111,1195,983,1127,1339,1215,1435,1695
363126,54048,10016,85088,85088,1557,2482,158,1603,-247,1380,1527,3678,39,22,771,1111,1195,983,1127,1339,1215,1435,1695
364127,54224,10232,85352,85352,1309,2133,170,1675,-277,1028,1566,3741,35,16,768,1111,1195,983,1127,1339,1215,1435,1695
365128,54344,10432,85616,85616,1663,2235,175,1699,-330,1360,1843,3794,35,7,786,1111,1195,983,1127,1339,1215,1435,1695
366129,54488,10640,85880,85880,1516,2186,174,1745,-368,1263,1582,3724,40,14,776,1111,1195,983,1127,1339,1215,1435,1695
367130,54636,10844,86144,86144,1494,2213,201,1763,-386,1018,1559,3409,39,14,780,1111,1195,983,1127,1339,1215,1435,1695
368131,54776,11056,86408,86408,1547,2164,204,1829,-410,982,1096,3371,31,28,781,1094,1159,951,1093,1346,1235,1436,1671
369132,54916,11332,86672,86672,1550,1764,237,1894,-456,909,1938,3534,29,28,776,1094,1159,951,1093,1346,1235,1436,1671
370133,55108,11596,86936,86936,1227,1839,255,1970,-522,1408,1629,3217,32,35,792,1094,1159,951,1093,1346,1235,1436,1671
371134,55280,11836,87200,87200,1354,1989,296,2031,-543,1357,2138,3364,36,39,797,1094,1159,951,1093,1346,1235,1436,1671
372135,55448,12112,87464,87464,1381,1764,312,2074,-572,1405,1778,3124,47,29,791,1094,1159,951,1093,1346,1235,1436,1671
373136,55628,12340,87728,87728,1308,2065,314,2127,-607,1014,1732,3577,37,34,797,1088,1149,952,1104,1334,1232,1443,1676
374137,55804,12568,87992,87992,1335,2066,275,2168,-664,1381,2223,3389,45,40,789,1088,1149,952,1104,1334,1232,1443,1676
375138,55956,12876,88256,88256,1488,1565,243,2194,-696,1415,1924,3168,48,36,788,1088,1149,952,1104,1334,1232,1443,1676
376139,56144,13212,88520,88520,1265,1388,205,2244,-713,1214,1779,3063,48,29,799,1088,1149,952,1104,1334,1232,1443,1676
377140,56328,13496,88784,88784,1292,1713,164,2382,-752,1086,1998,3366,42,38,804,1088,1149,952,1104,1334,1232,1443,1676
378141,56516,13776,89048,89048,1269,1737,145,2456,-814,1437,2303,2732,41,52,802,1088,1149,952,1104,1334,1232,1443,1676
379142,56708,14080,89312,89312,1245,1586,108,2514,-855,1331,1304,2909,34,48,801,1089,1158,960,1102,1327,1216,1436,1681
380143,56900,14436,89576,89576,1247,1259,83,2532,-898,1075,2183,2858,50,41,805,1089,1158,960,1102,1327,1216,1436,1681
381144,57104,14748,89840,89840,1174,1533,55,2610,-968,1514,1802,3162,37,45,814,1089,1158,960,1102,1327,1216,1436,1681
382145,57312,15072,90104,90104,1150,1456,56,2623,-1024,1241,1737,2516,35,37,810,1089,1158,960,1102,1327,1216,1436,1681
383146,57504,15388,90368,90368,1252,1505,43,2720,-1059,1016,1252,2854,41,50,810,1089,1158,960,1102,1327,1216,1436,1681
384147,57716,15720,90632,90632,1128,1403,51,2785,-1142,1296,1824,2698,50,58,811,1081,1148,947,1105,1356,1241,1452,1701
385148,57924,16148,90896,90896,1154,799,50,2811,-1226,1330,1831,2520,44,59,815,1081,1148,947,1105,1356,1241,1452,1701
386149,58144,16488,91160,91160,1081,1348,22,2837,-1275,1106,1316,2476,42,62,826,1081,1148,947,1105,1356,1241,1452,1701
387150,58368,16820,91424,91424,1057,1396,3,2936,-1345,1363,1894,2305,48,52,817,1081,1148,947,1105,1356,1241,1452,1701
388151,58592,17180,91688,91688,1058,1219,10,3011,-1441,1522,1690,2091,52,52,816,1081,1148,947,1105,1356,1241,1452,1701
389152,58804,17588,91952,91952,1134,915,-18,3040,-1517,1012,1334,1961,50,60,820,1081,1148,947,1105,1356,1241,1452,1701
390153,59020,17992,92216,92216,1110,937,-84,3046,-1577,1101,1744,2312,52,70,826,1078,1127,966,1113,1352,1236,1439,1671
391154,59252,18380,92480,92480,1011,1034,-156,3054,-1637,1124,1391,2008,41,69,827,1078,1127,966,1113,1352,1236,1439,1671
392155,59516,18740,92744,92744,811,1206,-199,3112,-1731,1242,1622,2080,41,72,827,1078,1127,966,1113,1352,1236,1439,1671
393156,59752,19172,93008,93008,986,752,-226,3048,-1843,873,1370,1652,53,73,827,1078,1127,966,1113,1352,1236,1439,1671
394157,59992,19632,93272,93272,962,572,-296,3008,-1940,577,1321,2092,48,73,828,1078,1127,966,1113,1352,1236,1439,1671
395158,60232,20056,93536,93536,963,793,-381,2946,-2040,1106,1306,1965,56,79,835,1059,1123,929,1071,1323,1216,1424,1691
396159,60460,20436,93800,93800,1038,1066,-504,2990,-2188,1073,779,1709,55,78,833,1059,1123,929,1071,1323,1216,1424,1691
397160,60728,20884,94064,94064,788,636,-542,2947,-2302,895,605,2064,55,73,826,1059,1123,929,1071,1323,1216,1424,1691
398161,60992,21376,94328,94328,813,356,-587,2863,-2426,1330,619,1589,56,83,838,1059,1123,929,1071,1323,1216,1424,1691
399162,61252,21740,94592,94592,838,1153,-580,2726,-2517,1359,-28,1742,58,75,842,1059,1123,929,1071,1323,1216,1424,1691
400163,61516,22200,94856,94856,813,548,-651,2636,-2621,1225,158,2083,60,85,831,1059,1123,929,1071,1323,1216,1424,1691
401164,61752,22640,95120,95120,989,669,-695,2689,-2727,1266,-225,2356,48,75,840,1087,1164,959,1101,1362,1236,1463,1734
402165,62024,23084,95384,95384,764,640,-714,2701,-2826,1443,-231,1914,62,85,835,1087,1164,959,1101,1362,1236,1463,1734
403166,62288,23528,95648,95648,814,635,-724,2609,-2925,1285,92,1967,52,75,839,1087,1164,959,1101,1362,1236,1463,1734
404167,62568,23988,95912,95912,714,530,-765,2580,-3040,1296,-3,2024,61,76,839,1087,1164,959,1101,1362,1236,1463,1734
405168,62836,24448,96176,96176,788,526,-802,2383,-3115,829,-140,1894,59,78,842,1087,1164,959,1101,1362,1236,1463,1734
406169,63104,24848,96440,96440,788,897,-830,2248,-3174,574,45,1781,47,82,841,1080,1166,948,1087,1359,1224,1473,1740
407170,63420,25276,96704,96704,487,718,-839,2075,-3254,176,-705,2082,61,81,835,1080,1166,948,1087,1359,1224,1473,1740
408171,63688,25660,96968,96968,787,990,-855,1806,-3320,-37,134,1773,63,79,843,1080,1166,948,1087,1359,1224,1473,1740
409172,63980,26068,97232,97232,636,837,-858,1593,-3377,625,-1068,2261,52,68,834,1080,1166,948,1087,1359,1224,1473,1740
410173,64228,26420,97496,97496,912,1185,-914,1336,-3495,-386,-530,2187,47,69,839,1080,1166,948,1087,1359,1224,1473,1740
411174,64508,26804,97760,97760,711,982,-914,1069,-3575,-225,-14,2688,64,67,824,1080,1166,948,1087,1359,1224,1473,1740
412175,64816,27140,98024,98024,535,1280,-930,900,-3592,503,-1799,2480,62,65,833,1113,1201,962,1108,1334,1199,1463,1725
413176,65136,27424,98304,98304,459,1605,-884,745,-3645,-349,-869,2855,52,71,830,1113,1201,962,1108,1334,1199,1463,1725
414177,65408,27784,98568,98568,759,1128,-848,505,-3735,-570,-1254,3357,50,54,824,1113,1201,962,1108,1334,1199,1463,1725
415178,65708,28140,98832,98832,583,1150,-864,306,-3858,-435,-1754,3821,60,51,830,1113,1201,962,1108,1334,1199,1463,1725
416179,65984,28456,99096,99096,733,1399,-854,18,-3911,-615,-1446,3743,54,66,833,1113,1201,962,1108,1334,1199,1463,1725
417180,66292,28740,99360,99360,532,1599,-820,-158,-3921,148,-1189,4923,60,56,825,1149,1243,980,1125,1324,1186,1466,1750
418181,66628,29008,99624,99624,355,1699,-797,-273,-3888,-309,-2310,4167,68,58,821,1149,1243,980,1125,1324,1186,1466,1750
419182,66896,29284,99888,99888,780,1648,-691,-399,-3837,-551,-821,4901,54,41,821,1149,1243,980,1125,1324,1186,1466,1750
420183,67224,29564,100152,100152,403,1623,-656,-459,-3846,389,-1606,4318,59,52,816,1149,1243,980,1125,1324,1186,1466,1750
421184,67524,29832,100416,100416,578,1698,-595,-687,-3853,-582,-1197,3652,53,52,818,1149,1243,980,1125,1324,1186,1466,1750
422185,67832,30096,100680,100680,526,1723,-584,-921,-3810,-1535,-2748,4786,67,47,818,1149,1243,980,1125,1324,1186,1466,1750
423186,68112,30340,100944,100944,701,1848,-590,-1249,-3801,-1961,-663,4268,70,50,819,1195,1299,1007,1158,1350,1210,1514,1796
424187,68408,30596,101208,101208,600,1773,-601,-1439,-3789,-2474,-1976,5816,62,36,808,1195,1299,1007,1158,1350,1210,1514,1796
425188,68676,30828,101472,101472,775,1924,-604,-1510,-3781,-2096,-2084,5097,64,40,816,1195,1299,1007,1158,1350,1210,1514,1796
426189,68988,31040,101736,101736,499,2050,-482,-1663,-3717,-1999,-1826,5356,64,29,807,1195,1299,1007,1158,1350,1210,1514,1796
427190,69264,31228,102000,102000,724,2202,-410,-1791,-3679,-2025,-2601,4750,57,26,801,1195,1299,1007,1158,1350,1210,1514,1796
428191,69588,31420,102264,102264,422,2179,-279,-2126,-3617,-2206,-2431,4944,60,24,795,1237,1295,1007,1179,1364,1216,1512,1824
429192,69892,31644,102528,102528,546,1980,-189,-2393,-3538,-2845,-2676,5035,62,13,803,1237,1295,1007,1179,1364,1216,1512,1824
431194,70528,32008,103056,103056,369,2334,-139,-2694,-3479,-2944,-2927,5097,65,14,801,1237,1295,1007,1179,1364,1216,1512,1824
432195,70804,32156,103320,103320,718,2462,-121,-2621,-3429,-1626,-2588,5152,62,13,798,1237,1295,1007,1179,1364,1216,1512,1824
433196,71096,32304,103584,103584,618,2465,-187,-2546,-3348,-1563,-3316,5451,59,-5,789,1237,1295,1007,1179,1364,1216,1512,1824
434197,71380,32424,103848,103848,667,2643,-282,-2461,-3221,-2812,-3119,5517,61,-10,789,1251,1333,1032,1199,1381,1249,1529,1769
435198,71660,32556,104112,104112,692,2571,-382,-2397,-3145,-2276,-3485,5312,71,-15,783,1251,1333,1032,1199,1381,1249,1529,1769
436199,71920,32680,104376,104376,817,2625,-426,-2256,-3063,-2002,-3224,5519,72,-28,785,1251,1333,1032,1199,1381,1249,1529,1769
437200,72200,32808,104640,104640,691,2603,-469,-2139,-3066,-1054,-3378,5488,65,-18,772,1251,1333,1032,1199,1381,1249,1529,1769
438201,72484,32940,104904,104904,666,2581,-492,-2046,-2948,-2721,-3674,6240,64,-8,780,1251,1333,1032,1199,1381,1249,1529,1769
439202,72780,33048,105168,105168,590,2735,-519,-1948,-2860,-2443,-3672,5781,61,-20,781,1202,1260,987,1156,1366,1274,1516,1726
440203,73032,33148,105432,105432,866,2789,-562,-1848,-2746,-3021,-3962,6436,55,-13,776,1202,1260,987,1156,1366,1274,1516,1726
441204,73276,33244,105696,105696,916,2818,-604,-1793,-2629,-3221,-3906,6414,55,-23,771,1202,1260,987,1156,1366,1274,1516,1726
442205,73500,33320,105960,105960,1042,2948,-614,-1694,-2561,-3356,-4173,6572,63,-31,770,1202,1260,987,1156,1366,1274,1516,1726
443206,73764,33412,106224,106224,792,2852,-568,-1565,-2572,-2889,-3289,6504,58,-42,762,1202,1260,987,1156,1366,1274,1516,1726
444207,74024,33480,106488,106488,817,3007,-514,-1392,-2546,-3233,-3841,5918,57,-48,770,1131,1183,959,1141,1411,1325,1547,1727
445208,74296,33580,106752,106752,742,2811,-558,-1293,-2457,-3714,-4468,6084,52,-44,758,1131,1183,959,1141,1411,1325,1547,1727
446209,74548,33668,107016,107016,867,2890,-692,-1057,-2391,-4137,-3237,5293,65,-57,764,1131,1183,959,1141,1411,1325,1547,1727
447210,74780,33752,107280,107280,993,2920,-904,-797,-2515,90,-1039,3805,53,-34,767,1131,1183,959,1141,1411,1325,1547,1727
448211,75016,33856,107544,107544,969,2799,-868,-982,-2352,-417,-4176,3771,64,-54,763,1131,1183,959,1141,1411,1325,1547,1727
449212,75296,33940,107808,107808,693,2928,-1003,-1015,-2248,-3367,-2935,6036,60,-42,770,1131,1183,959,1141,1411,1325,1547,1727
450213,75564,34024,108072,108072,768,2932,-1124,-640,-2334,-3622,-3204,5256,67,-45,767,1139,1171,980,1191,1414,1342,1544,1721
451214,75828,34116,108336,108336,793,2887,-1171,-251,-2356,-1760,-3746,3539,65,-62,767,1139,1171,980,1191,1414,1342,1544,1721
452215,76096,34224,108600,108600,768,2790,-1219,-63,-2244,-2186,-3368,4468,57,-61,771,1139,1171,980,1191,1414,1342,1544,1721
453216,76360,34320,108864,108864,793,2869,-1346,157,-2264,-1659,-2914,5078,50,-61,773,1139,1171,980,1191,1414,1342,1544,1721
454217,76612,34384,109128,109128,868,3074,-1468,267,-2211,-2032,-4155,4713,58,-43,765,1139,1171,980,1191,1414,1342,1544,1721
455218,76848,34484,109392,109392,969,2853,-1492,521,-2134,-1538,-3712,4984,52,-63,760,1159,1195,992,1179,1378,1296,1483,1644
456219,77092,34576,109656,109656,920,2908,-1515,736,-2084,-1972,-4213,5721,58,-79,768,1159,1195,992,1179,1378,1296,1483,1644
457220,77352,34656,109920,109920,820,2987,-1529,796,-2026,-2495,-4193,5179,60,-47,767,1159,1195,992,1179,1378,1296,1483,1644
458221,77572,34732,110184,110184,1071,3017,-1563,785,-1963,-2263,-3593,5709,69,-65,763,1159,1195,992,1179,1378,1296,1483,1644
459222,77828,34788,110448,110448,846,3147,-1600,847,-1907,-1673,-3772,5508,66,-54,757,1159,1195,992,1179,1378,1296,1483,1644
460223,78140,34860,110712,110712,495,3051,-1603,897,-1855,-1570,-3719,5511,66,-66,758,1159,1195,992,1179,1378,1296,1483,1644
461224,78380,34920,110976,110976,945,3131,-1605,896,-1837,-1755,-3141,5257,62,-89,762,1132,1175,957,1145,1341,1247,1470,1667
462225,78624,34988,111240,111240,921,3086,-1591,972,-1870,-1298,-2486,5472,55,-83,755,1132,1175,957,1145,1341,1247,1470,1667
463226,78876,35056,111504,111504,871,3091,-1623,1024,-1901,-619,-2209,5139,65,-90,757,1132,1175,957,1145,1341,1247,1470,1667
464227,79120,35120,111768,111768,922,3121,-1621,1121,-1947,-387,-1662,5005,66,-77,752,1132,1175,957,1145,1341,1247,1470,1667
465228,79388,35196,112032,112032,771,3050,-1653,1184,-1980,86,-2000,4718,67,-80,758,1132,1175,957,1145,1341,1247,1470,1667
466229,79696,35260,112296,112296,520,3130,-1681,1255,-1991,-326,-1694,4504,69,-77,760,1123,1177,941,1120,1333,1218,1494,1699
467230,79944,35336,112560,112560,896,3060,-1743,1303,-2048,-1029,-1117,4499,58,-71,764,1123,1177,941,1120,1333,1218,1494,1699
468231,80212,35436,112824,112824,771,2914,-1674,1330,-2166,-590,-1283,3816,55,-81,758,1123,1177,941,1120,1333,1218,1494,1699
469232,80496,35504,113088,113088,670,3119,-1586,1224,-2202,-255,-1718,3383,54,-72,766,1123,1177,941,1120,1333,1218,1494,1699
470233,80748,35572,113352,113352,870,3123,-1522,1122,-2163,-213,-1580,3811,57,-59,756,1123,1177,941,1120,1333,1218,1494,1699
471234,81016,35644,113616,113616,770,3103,-1501,999,-2117,-591,-1784,3185,55,-82,758,1123,1177,941,1120,1333,1218,1494,1699
472235,81368,35724,113880,113880,243,3058,-1490,779,-2074,-948,-2503,2704,58,-90,761,1183,1246,975,1153,1340,1219,1475,1699
473236,81648,35788,114144,114144,693,3162,-1494,528,-2048,-1360,-2754,2517,73,-78,768,1183,1246,975,1153,1340,1219,1475,1699
474237,81928,35860,114408,114408,692,3117,-1481,348,-2007,-1623,-2869,2328,70,-74,759,1183,1246,975,1153,1340,1219,1475,1699
475238,82264,35952,114688,114688,341,2997,-1482,204,-1955,-1030,-2837,2222,67,-99,762,1183,1246,975,1153,1340,1219,1475,1699
476239,82552,36032,114952,114952,641,3076,-1468,73,-1879,-745,-3255,1983,70,-91,768,1183,1246,975,1153,1340,1219,1475,1699
477240,82924,36140,115216,115216,113,2905,-1485,-71,-1806,-634,-3065,2412,68,-69,764,1194,1275,995,1127,1269,1154,1403,1663
478241,83260,36228,115480,115480,336,3034,-1512,-267,-1753,-841,-2844,2319,75,-85,776,1194,1275,995,1127,1269,1154,1403,1663
479242,83600,36316,115744,115744,309,3039,-1505,-376,-1751,-144,-2080,2713,60,-58,765,1194,1275,995,1127,1269,1154,1403,1663
480243,84000,36436,116008,116008,-69,2842,-1532,-487,-1760,-3,-2197,2410,70,-70,768,1194,1275,995,1127,1269,1154,1403,1663
481244,84360,36536,116272,116272,179,2971,-1567,-614,-1761,-386,-2131,2008,65,-82,780,1194,1275,995,1127,1269,1154,1403,1663
482245,84668,36660,116536,116536,503,2825,-1582,-683,-1833,-234,-1026,2218,68,-49,767,1194,1275,995,1127,1269,1154,1403,1663
483246,85036,36768,116800,116800,125,2928,-1520,-764,-1966,43,-1121,1701,67,-49,776,1113,1191,930,1054,1285,1156,1414,1661
484247,85348,36904,117064,117064,474,2757,-1490,-875,-2083,503,-1516,1791,68,-27,775,1113,1191,930,1054,1285,1156,1414,1661
485248,85660,37032,117328,117328,473,2810,-1495,-1029,-2166,413,-1262,2031,66,-42,778,1113,1191,930,1054,1285,1156,1414,1661
486249,85996,37152,117592,117592,321,2863,-1514,-1175,-2219,-11,-1908,1247,62,-21,777,1113,1191,930,1054,1285,1156,1414,1661
487250,86320,37276,117856,117856,394,2842,-1433,-1418,-2272,-189,-1476,1699,72,-33,777,1113,1191,930,1054,1285,1156,1414,1661
488251,86700,37372,118120,118120,42,3021,-1321,-1660,-2279,-671,-1224,2128,88,-44,777,1034,1117,884,1016,1309,1180,1420,1648
489252,87068,37492,118384,118384,114,2874,-1256,-1822,-2249,-774,-1689,2532,71,-38,768,1034,1117,884,1016,1309,1180,1420,1648
490253,87440,37580,118648,118648,86,3079,-1198,-1874,-2172,-949,-1852,2198,77,-59,775,1034,1117,884,1016,1309,1180,1420,1648
491254,87784,37676,118912,118912,259,3033,-1154,-2013,-2105,-765,-1490,1688,73,-36,770,1034,1117,884,1016,1309,1180,1420,1648
492255,88136,37784,119176,119176,207,2962,-1181,-2106,-2088,-161,-1295,1952,91,-54,768,1034,1117,884,1016,1309,1180,1420,1648
493256,88564,37940,119440,119440,-272,2664,-1310,-1971,-2067,-241,-1875,831,85,-52,774,1034,1117,884,1016,1309,1180,1420,1648
494257,88928,38088,119704,119704,126,2717,-1502,-1859,-2022,-813,-2210,56,81,-56,784,1037,1119,923,1073,1261,1147,1388,1595
495258,89308,38236,119968,119968,23,2720,-1666,-1676,-2047,-828,-2196,248,76,-13,779,1037,1119,923,1073,1261,1147,1388,1595
496259,89664,38408,120232,120232,171,2572,-1850,-1390,-2144,-857,-2619,537,71,-12,782,1037,1119,923,1073,1261,1147,1388,1595
497260,90036,38584,120496,120496,68,2549,-1938,-1206,-2188,-1041,-3661,-153,79,-24,789,1037,1119,923,1073,1261,1147,1388,1595
498261,90460,38756,120760,120760,-261,2577,-1939,-1232,-2171,-1619,-3050,364,90,1,791,1037,1119,923,1073,1261,1147,1388,1595
499262,90816,38936,121024,121024,162,2529,-1906,-1489,-2148,-2438,-4207,674,72,6,783,1132,1198,960,1132,1249,1199,1411,1612
500263,91188,39096,121288,121288,59,2656,-1799,-1787,-2197,-3472,-3350,1512,75,3,792,1132,1198,960,1132,1249,1199,1411,1612
501264,91552,39284,121552,121552,107,2483,-1638,-2138,-2238,-3480,-3664,1629,83,6,787,1132,1198,960,1132,1249,1199,1411,1612
502265,91980,39480,121816,121816,-297,2435,-1474,-2398,-2230,-2896,-2831,2822,71,0,794,1132,1198,960,1132,1249,1199,1411,1612
503266,92388,39692,122080,122080,-176,2336,-1338,-2612,-2211,-2313,-2859,2650,74,2,793,1132,1198,960,1132,1249,1199,1411,1612
504267,92756,39888,122344,122344,72,2438,-1213,-2747,-2178,-2061,-2086,2406,73,2,799,1132,1198,960,1132,1249,1199,1411,1612
505268,93140,40064,122608,122608,-31,2565,-1145,-2793,-2183,-1658,-1985,2760,70,5,797,1088,1132,929,1102,1312,1216,1408,1600
506269,93504,40272,122872,122872,91,2366,-1109,-2773,-2168,-1356,-895,2063,67,8,794,1088,1132,929,1102,1312,1216,1408,1600
507270,93880,40476,123136,123136,14,2393,-1124,-2647,-2184,232,-1240,2474,80,-8,793,1088,1132,929,1102,1312,1216,1408,1600
508271,94232,40696,123400,123400,162,2294,-1185,-2504,-2167,-74,-857,2402,77,18,798,1088,1132,929,1102,1312,1216,1408,1600
509272,94660,40872,123664,123664,-317,2571,-1266,-2340,-2172,80,-665,2469,81,17,800,1088,1132,929,1102,1312,1216,1408,1600
510273,95012,41076,123928,123928,155,2397,-1303,-2095,-2204,677,-992,2715,67,19,789,1110,1183,930,1093,1261,1143,1403,1613
511274,95372,41312,124192,124192,103,2198,-1321,-1927,-2247,5,-695,2009,65,1,796,1110,1183,930,1093,1261,1143,1403,1613
512275,95732,41512,124456,124456,101,2425,-1313,-1867,-2298,-592,-818,2900,76,4,804,1110,1183,930,1093,1261,1143,1403,1613
513276,96100,41736,124720,124720,48,2275,-1323,-1942,-2321,-866,-1200,2040,64,18,792,1110,1183,930,1093,1261,1143,1403,1613
514277,96476,41960,124984,124984,-5,2276,-1289,-2018,-2281,-989,-2742,1928,74,22,804,1110,1183,930,1093,1261,1143,1403,1613
515278,96780,42220,125248,125248,445,2052,-1240,-2076,-2221,-1592,-3630,1541,83,26,799,1110,1183,930,1093,1261,1143,1403,1613
516279,97092,42464,125512,125512,393,2152,-1118,-2136,-2185,-2975,-3549,1553,79,22,808,1169,1249,973,1133,1267,1150,1411,1658
517280,97424,42716,125776,125776,267,2102,-943,-2191,-2193,-2302,-3866,1800,66,31,804,1169,1249,973,1133,1267,1150,1411,1658
518281,97752,42952,126040,126040,290,2203,-742,-2351,-2131,-1773,-4182,940,62,31,802,1169,1249,973,1133,1267,1150,1411,1658
519282,98132,43216,126304,126304,-38,2028,-612,-2460,-2055,-2290,-3608,2262,62,25,805,1169,1249,973,1133,1267,1150,1411,1658
520283,98488,43524,126568,126568,110,1752,-489,-2598,-2028,-2795,-3968,1815,71,34,811,1169,1249,973,1133,1267,1150,1411,1658
521284,98856,43804,126832,126832,33,1927,-373,-2618,-2026,-2019,-3411,2534,73,40,819,1173,1251,989,1145,1294,1177,1422,1647
522285,99192,44084,127096,127096,231,1926,-216,-2622,-2004,-1003,-2332,1911,65,49,817,1173,1251,989,1145,1294,1177,1422,1647
523286,99528,44364,127360,127360,229,1926,-91,-2715,-2004,-1115,-1917,2620,65,43,815,1173,1251,989,1145,1294,1177,1422,1647
524287,99876,44644,127624,127624,152,1925,-45,-2765,-2015,-1507,-844,2484,71,32,815,1173,1251,989,1145,1294,1177,1422,1647
525288,100204,44940,127888,127888,275,1825,-14,-2847,-2002,-268,-1384,1999,68,43,814,1173,1251,989,1145,1294,1177,1422,1647
526289,100508,45228,128152,128152,424,1874,-24,-2936,-1932,-620,-826,1683,63,48,817,1173,1251,989,1145,1294,1177,1422,1647
527290,100828,45564,128416,128416,323,1572,-24,-3024,-1921,-805,-120,1946,72,48,815,1168,1232,968,1148,1256,1160,1406,1584
528291,101180,45888,128680,128680,121,1646,-21,-3075,-1963,-829,-665,1946,71,54,823,1168,1232,968,1148,1256,1160,1406,1584
529292,101516,46264,128944,128944,219,1318,-14,-3146,-1999,-1148,276,1688,62,51,825,1168,1232,968,1148,1256,1160,1406,1584
530293,101820,46652,129208,129208,418,1240,56,-3326,-2040,119,-1003,1739,58,64,828,1168,1232,968,1148,1256,1160,1406,1584
531294,102120,47032,129472,129472,442,1287,160,-3354,-1974,-898,-1189,2337,67,62,831,1168,1232,968,1148,1256,1160,1406,1584
532295,102388,47412,129736,129736,642,1284,324,-3456,-1996,-523,-1096,1970,72,64,830,1149,1206,946,1117,1247,1143,1380,1583
533296,102712,47840,130000,130000,291,980,567,-3415,-1996,-316,-1170,3092,63,71,828,1149,1206,946,1117,1247,1143,1380,1583
534297,103016,48296,130264,130264,415,801,807,-3480,-1956,-198,-2277,2116,74,75,838,1149,1206,946,1117,1247,1143,1380,1583
535298,103320,48664,130528,130528,414,1348,1073,-3581,-1989,-635,-1445,2898,67,74,841,1149,1206,946,1117,1247,1143,1380,1583
536299,103612,49056,130792,130792,488,1195,1294,-3493,-2050,-291,-1323,2966,71,84,830,1149,1206,946,1117,1247,1143,1380,1583
537301,103920,49548,131072,131072,387,565,1519,-3375,-2102,646,-1439,1965,68,80,832,1149,1206,946,1117,1247,1143,1380,1583
538301,104212,49988,131336,131336,487,886,1658,-3315,-2127,0,-600,2176,56,81,844,1124,1202,954,1109,1228,1107,1342,1566
539302,104496,50408,131600,131600,536,1007,1782,-3454,-2119,-573,-163,1867,62,89,840,1124,1202,954,1109,1228,1107,1342,1566
540303,104788,50856,131864,131864,486,827,1797,-3586,-2125,-175,-358,1412,57,85,837,1124,1202,954,1109,1228,1107,1342,1566
541304,105064,51292,132128,132128,585,898,1865,-3633,-2137,-169,-127,909,66,78,840,1124,1202,954,1109,1228,1107,1342,1566
542305,105336,51768,132392,132392,610,643,1898,-3615,-2197,220,296,716,55,89,838,1124,1202,954,1109,1228,1107,1342,1566
543306,105612,52232,132656,132656,585,713,1988,-3680,-2250,542,-131,575,53,83,842,1199,1270,1003,1180,1210,1110,1352,1560
544307,105912,52712,132920,132920,434,608,2041,-3600,-2265,1282,413,3099,50,88,841,1199,1270,1003,1180,1210,1110,1352,1560
545308,106180,53128,133184,133184,634,1004,2005,-3171,-2210,3203,1019,4284,49,77,846,1199,1270,1003,1180,1210,1110,1352,1560
546309,106404,53572,133448,133448,910,825,1981,-2675,-2184,6324,1069,5220,54,83,836,1199,1270,1003,1180,1210,1110,1352,1560
547310,106628,54004,133712,133712,911,895,1785,-1895,-1937,5649,189,6439,58,76,830,1199,1270,1003,1180,1210,1110,1352,1560
548311,106808,54452,133976,133976,1188,791,1463,-1208,-1701,4775,1115,6638,51,85,832,1199,1270,1003,1180,1210,1110,1352,1560
549312,107000,54876,134240,134240,1115,937,1149,-730,-1653,5778,1849,7571,41,95,827,1189,1236,990,1173,1304,1241,1474,1678
550313,107156,55348,134504,134504,1342,632,973,-424,-1564,4966,1030,9130,29,80,826,1189,1236,990,1173,1304,1241,1474,1678
551314,107300,55796,134768,134768,1420,778,920,-66,-1475,4567,993,9650,37,79,824,1189,1236,990,1173,1304,1241,1474,1678
552315,107412,56188,135032,135032,1624,1124,971,120,-1379,3273,561,9837,21,75,820,1189,1236,990,1173,1304,1241,1474,1678
553316,107536,56632,135296,135296,1552,795,1062,313,-1330,2543,-999,10016,15,86,809,1189,1236,990,1173,1304,1241,1474,1678
554317,107624,57080,135560,135560,1782,766,1298,375,-1342,1917,-455,9532,22,86,815,1096,1119,979,1183,1727,1663,1791,1984
555318,107696,57444,135824,135824,1886,1288,1540,365,-1397,1899,-831,9036,9,84,807,1096,1119,979,1183,1727,1663,1791,1984
556319,107776,57820,136088,136088,1841,1210,1652,250,-1479,2914,168,9624,3,79,796,1096,1119,979,1183,1727,1663,1791,1984
557320,107828,58172,136352,136352,2021,1358,1696,54,-1467,2890,-387,9628,10,80,797,1096,1119,979,1183,1727,1663,1791,1984
558321,107868,58544,136616,136616,2101,1231,1602,42,-1502,4220,1885,10367,3,72,790,1096,1119,979,1183,1727,1663,1791,1984
559322,107924,58904,136880,136880,2006,1303,1479,307,-1508,5978,1132,11725,13,71,788,1096,1119,979,1183,1727,1663,1791,1984
560323,107960,59240,137144,137144,2137,1451,1300,756,-1480,7775,2455,12435,13,80,789,1175,1201,1167,1443,1943,1879,1935,2068
561324,108020,59560,137408,137408,1992,1550,1050,1231,-1431,9064,1884,13139,8,68,782,1175,1201,1167,1443,1943,1879,1935,2068
562325,108040,59856,137672,137672,2248,1699,767,1512,-1395,9141,3040,12903,12,63,783,1175,1201,1167,1443,1943,1879,1935,2068
563326,108044,60156,137936,137936,2354,1673,547,1458,-1233,8868,3820,12052,15,62,775,1175,1201,1167,1443,1943,1879,1935,2068
564327,108096,60424,138200,138200,2059,1873,326,1432,-1023,9790,3527,11964,-4,68,768,1175,1201,1167,1443,1943,1879,1935,2068
565328,108132,60712,138464,138464,2165,1748,161,1613,-796,8946,3918,12224,5,68,776,1431,1439,1303,1583,1695,1611,1783,1967
566329,108132,60936,138728,138728,2396,2149,23,2136,-406,6345,4034,12297,-1,59,774,1431,1439,1303,1583,1695,1611,1783,1967
567330,108200,61140,138992,138992,1976,2275,2,2391,-138,6902,3884,10582,10,50,759,1431,1439,1303,1583,1695,1611,1783,1967
568331,108232,61372,139256,139256,2207,2101,149,2202,-15,6109,3494,9572,-8,46,766,1431,1439,1303,1583,1695,1611,1783,1967
569332,108244,61592,139520,139520,2338,2177,407,1732,35,5093,4057,7856,16,41,765,1431,1439,1303,1583,1695,1611,1783,1967
570333,108328,61796,139784,139784,1892,2279,724,1468,29,4194,5363,8598,4,42,761,1431,1439,1303,1583,1695,1611,1783,1967
571334,108436,61980,140048,140048,1746,2405,1074,1483,-100,5404,6693,7984,19,35,769,1387,1438,1181,1339,1552,1392,1612,1874
572335,108504,62124,140312,140312,2001,2658,1409,1625,-282,6594,6467,8626,31,27,768,1387,1438,1181,1339,1552,1392,1612,1874
573336,108616,62288,140576,140576,1730,2536,1736,1594,-414,6149,7514,7755,23,23,755,1387,1438,1181,1339,1552,1392,1612,1874
574337,108720,62460,140840,140840,1784,2488,2055,1515,-573,7243,6672,8171,30,16,763,1387,1438,1181,1339,1552,1392,1612,1874
575338,108812,62620,141104,141104,1863,2566,2356,1459,-751,8002,7521,8126,23,13,762,1387,1438,1181,1339,1552,1392,1612,1874
576339,108888,62784,141368,141368,1967,2543,2576,1481,-935,8460,6783,8391,30,19,755,1200,1299,1019,1107,1239,1086,1316,1540
577340,109008,62920,141632,141632,1696,2721,2645,1640,-1017,8245,7005,8226,31,10,756,1200,1299,1019,1107,1239,1086,1316,1540
578341,109096,63044,141896,141896,1900,2800,2662,1671,-1033,8193,6847,7516,35,11,755,1200,1299,1019,1107,1239,1086,1316,1540
579342,109192,63196,142160,142160,1854,2627,2669,1595,-1045,7321,6093,6709,34,-9,750,1200,1299,1019,1107,1239,1086,1316,1540
580343,109332,63328,142424,142424,1582,2756,2719,1485,-1017,6133,5617,6261,30,-6,752,1200,1299,1019,1107,1239,1086,1316,1540
581344,109456,63468,142688,142688,1686,2709,2792,1367,-890,5066,4730,5828,34,-3,756,1200,1299,1019,1107,1239,1086,1316,1540
582345,109544,63620,142952,142952,1915,2636,2896,1159,-748,4732,4160,5226,29,-12,756,1103,1182,924,1048,1072,944,1169,1431
583346,109688,63732,143216,143216,1568,2890,3033,954,-533,2808,2956,4646,26,-16,754,1103,1182,924,1048,1072,944,1169,1431
584347,109896,63892,143480,143480,1169,2593,3235,633,-323,1979,2564,3719,31,0,754,1103,1182,924,1048,1072,944,1169,1431
585348,110004,64056,143744,143744,1798,2570,3377,214,-189,1918,3121,1887,47,-25,764,1103,1182,924,1048,1072,944,1169,1431
586349,110120,64212,144008,144008,1752,2623,3547,-402,-126,1685,3835,1306,31,8,759,1103,1182,924,1048,1072,944,1169,1431
587350,110320,64364,144272,144272,1228,2650,3650,-681,-168,1295,2685,1662,30,11,759,1152,1194,977,1151,1313,1238,1492,1728
588351,110472,64496,144536,144536,1531,2779,3719,-885,-225,29,4122,570,47,12,767,1152,1194,977,1151,1313,1238,1492,1728
589352,110632,64640,144800,144800,1484,2707,3765,-1080,-322,500,2878,217,40,-9,760,1152,1194,977,1151,1313,1238,1492,1728
590353,110864,64828,145064,145064,1034,2433,3799,-1235,-497,1371,3834,981,37,-6,762,1152,1194,977,1151,1313,1238,1492,1728
591354,111024,65000,145328,145328,1487,2536,3812,-1350,-575,1199,3063,1552,46,4,778,1152,1194,977,1151,1313,1238,1492,1728
592355,111152,65244,145592,145592,1690,2086,3940,-1546,-951,6083,3313,2935,35,18,770,1152,1194,977,1151,1313,1238,1492,1728
593356,111340,65456,145856,145856,1317,2287,4028,-1122,-839,2046,-214,5009,32,13,779,1148,1198,977,1114,1472,1306,1559,1827
594357,111508,65672,146120,146120,1445,2264,4067,-576,-567,-2622,807,6851,31,44,778,1148,1198,977,1114,1472,1306,1559,1827
595358,111672,65968,146384,146384,1472,1763,4035,-507,-637,-2519,692,5323,39,29,781,1148,1198,977,1114,1472,1306,1559,1827
596359,111868,66216,146648,146648,1274,2063,3729,-192,-634,-879,2261,5730,32,42,792,1148,1198,977,1114,1472,1306,1559,1827
597360,112072,66540,146912,146912,1225,1587,3310,150,-597,3278,596,4983,42,46,790,1148,1198,977,1114,1472,1306,1559,1827
598361,112224,66828,147176,147176,1553,1811,2788,486,-557,3158,2172,5010,44,53,799,1087,1142,952,1087,1409,1279,1495,1732
599362,112412,67092,147456,147456,1330,1962,2275,814,-593,3337,2063,4008,45,53,794,1087,1142,952,1087,1409,1279,1495,1732
600363,112604,67408,147720,147720,1307,1635,1954,1129,-559,3279,226,3656,44,49,795,1087,1142,952,1087,1409,1279,1495,1732
601364,112792,67652,147984,147984,1334,2086,1940,1178,-413,919,195,3384,35,45,803,1087,1142,952,1087,1409,1279,1495,1732
602365,113020,67944,148248,148248,1085,1785,2058,985,-194,-1752,-554,3519,36,55,793,1087,1142,952,1087,1409,1279,1495,1732
603366,113204,68224,148512,148512,1362,1860,2227,577,63,-3918,-1295,3146,44,37,802,1087,1142,952,1087,1409,1279,1495,1732
604367,113376,68520,148776,148776,1439,1759,2406,98,210,-3714,-189,2380,42,52,795,1039,1093,943,1079,1531,1423,1599,1855
605368,113588,68764,149040,149040,1190,2084,2529,-289,295,-3020,-1009,2188,38,41,795,1039,1093,943,1079,1531,1423,1599,1855
606369,113772,69028,149304,149304,1367,1959,2496,-383,375,-3389,106,2557,47,39,792,1039,1093,943,1079,1531,1423,1599,1855
607370,113992,69332,149568,149568,1143,1708,2403,-510,384,-1510,359,1787,39,35,793,1039,1093,943,1079,1531,1423,1599,1855
608371,114212,69660,149832,149832,1144,1557,2250,-693,359,1940,-1072,-933,37,56,800,1039,1093,943,1079,1531,1423,1599,1855
609372,114408,69972,150096,150096,1296,1656,2232,-849,577,-253,1991,913,49,44,807,1035,1106,959,1113,1442,1303,1499,1758
610373,114588,70220,150360,150360,1398,2056,1933,-527,625,437,1150,2414,46,43,803,1035,1106,959,1113,1442,1303,1499,1758
611374,114796,70516,150624,150624,1224,1755,1518,36,370,2138,1832,2208,46,47,790,1035,1106,959,1113,1442,1303,1499,1758
612375,114992,70824,150888,150888,1301,1679,1326,222,293,1297,1927,330,36,44,800,1035,1106,959,1113,1442,1303,1499,1758
613376,115196,71100,151152,151152,1252,1879,1122,343,249,1645,2230,2098,48,32,801,1035,1106,959,1113,1442,1303,1499,1758
614377,115436,71380,151416,151416,1028,1854,858,606,166,1450,2371,2579,51,34,793,1035,1106,959,1113,1442,1303,1499,1758
615378,115628,71616,151680,151680,1330,2129,610,942,83,863,2001,2435,41,34,799,1150,1234,976,1094,1306,1166,1408,1677
616379,115836,71876,151944,151944,1231,1979,544,1092,99,320,1089,1920,50,41,789,1150,1234,976,1094,1306,1166,1408,1677
617380,116056,72172,152208,152208,1157,1754,518,1094,194,375,565,2265,51,34,794,1150,1234,976,1094,1306,1166,1408,1677
618381,116252,72428,152472,152472,1309,2004,536,1146,367,-441,637,3124,41,42,799,1150,1234,976,1094,1306,1166,1408,1677
619382,116488,72696,152736,152736,1059,1929,596,1263,518,-127,301,2190,50,29,790,1150,1234,976,1094,1306,1166,1408,1677
620383,116712,72928,153000,153000,1135,2154,738,1302,622,-679,454,2539,51,39,798,1051,1124,902,1008,1329,1203,1414,1678
621384,116896,73148,153264,153264,1387,2230,864,1161,744,-1283,825,1976,39,37,790,1051,1124,902,1008,1329,1203,1414,1678
622385,117096,73392,153528,153528,1289,2081,912,1019,892,-1368,-168,2290,38,28,783,1051,1124,902,1008,1329,1203,1414,1678
623386,117304,73672,153792,153792,1240,1856,926,921,1038,-1828,784,2231,50,35,789,1051,1124,902,1008,1329,1203,1414,1678
624387,117488,73976,154056,154056,1392,1705,978,838,1144,-1793,856,2091,36,30,797,1051,1124,902,1008,1329,1203,1414,1678
625388,117708,74236,154320,154320,1168,1980,1035,669,1254,-1953,1257,1496,35,40,798,1051,1124,902,1008,1329,1203,1414,1678
626389,117880,74504,154584,154584,1471,1930,1004,609,1310,-1728,1048,1971,35,41,795,984,1042,880,1008,1332,1219,1403,1621
627390,118052,74768,154848,154848,1473,1955,920,423,1310,-1797,1985,868,36,24,789,984,1042,880,1008,1332,1219,1403,1621
628391,118256,75024,155112,155112,1274,2005,736,362,1250,-1372,1853,2000,47,28,784,984,1042,880,1008,1332,1219,1403,1621
629392,118444,75308,155376,155376,1376,1829,572,337,1140,-653,2095,976,38,30,790,984,1042,880,1008,1332,1219,1403,1621
630393,118640,75604,155640,155640,1328,1754,428,273,1078,-242,2599,874,49,39,793,984,1042,880,1008,1332,1219,1403,1621
631394,118840,75904,155904,155904,1304,1728,288,356,1060,428,1498,1398,37,45,798,1071,1104,920,1075,1248,1168,1367,1591
632395,119012,76184,156168,156168,1482,1852,135,506,1027,735,1659,923,37,36,796,1071,1104,920,1075,1248,1168,1367,1591
633396,119156,76472,156432,156432,1660,1802,8,733,988,407,925,2105,42,39,795,1071,1104,920,1075,1248,1168,1367,1591
634397,119392,76780,156696,156696,1085,1676,-65,956,908,26,1496,2399,41,41,791,1071,1104,920,1075,1248,1168,1367,1591
635398,119560,77112,156960,156960,1513,1524,-57,1183,857,-1074,1912,2800,48,48,802,1071,1104,920,1075,1248,1168,1367,1591
636399,119724,77548,157224,157224,1540,870,-10,1449,900,-258,762,2527,35,56,801,1071,1104,920,1075,1248,1168,1367,1591
637400,119928,77956,157488,157488,1291,1041,34,1778,997,2319,-692,1374,42,65,810,1133,1186,976,1104,1404,1271,1464,1746
638401,120092,78384,157752,157752,1544,912,104,1985,1073,2347,-1664,1137,40,58,814,1133,1186,976,1104,1404,1271,1464,1746
639402,120272,78860,158016,158016,1446,607,228,1956,1132,846,-1712,1322,30,70,814,1133,1186,976,1104,1404,1271,1464,1746
640403,120456,79236,158280,158280,1423,1229,222,2087,1085,856,-1893,2116,38,67,819,1133,1186,976,1104,1404,1271,1464,1746
641404,120624,79740,158544,158544,1525,423,285,2129,1075,-935,99,1750,41,83,812,1133,1186,976,1104,1404,1271,1464,1746
642405,120796,80224,158808,158808,1503,543,336,2155,1168,-1561,686,2662,30,71,821,1057,1154,948,1067,1387,1252,1463,1719
643406,120976,80656,159072,159072,1455,864,298,2452,1350,-1651,1696,2718,43,75,822,1057,1154,948,1067,1387,1252,1463,1719
644407,121168,81128,159336,159336,1381,609,273,2630,1465,-1291,2450,2081,31,79,820,1057,1154,948,1067,1387,1252,1463,1719
645408,121356,81708,159600,159600,1408,-74,160,2659,1415,-1840,1974,1666,44,88,823,1057,1154,948,1067,1387,1252,1463,1719
646409,121532,82184,159864,159864,1485,571,-28,2479,1360,-2161,2060,1967,45,74,827,1057,1154,948,1067,1387,1252,1463,1719
647410,121724,82616,160128,160128,1387,842,-199,2296,1313,-1238,1901,2054,29,77,821,1057,1154,948,1067,1387,1252,1463,1719
648411,121884,83112,160392,160392,1590,436,-343,2173,1200,-631,1734,1620,35,71,820,1053,1120,926,1095,1289,1195,1387,1569
649412,122060,83588,160656,160656,1492,556,-417,2227,1090,76,1422,2136,39,90,816,1053,1120,926,1095,1289,1195,1387,1569
650413,122268,84068,160920,160920,1293,526,-421,2344,992,902,655,1454,36,95,821,1053,1120,926,1095,1289,1195,1387,1569
651414,122456,84580,161184,161184,1420,320,-379,2422,809,882,786,2000,31,80,825,1053,1120,926,1095,1289,1195,1387,1569
652415,122628,85072,161448,161448,1522,439,-352,2477,634,965,255,1886,43,89,827,1053,1120,926,1095,1289,1195,1387,1569
653416,122776,85532,161712,161712,1675,634,-331,2819,565,2150,-409,1965,36,86,824,1111,1160,970,1147,1311,1227,1423,1651
654417,122972,86064,161976,161976,1377,178,-206,3045,492,2047,-204,1703,29,81,818,1111,1160,970,1147,1311,1227,1423,1651
655418,123168,86564,162240,162240,1378,372,-149,3403,322,1656,-106,2480,33,84,828,1111,1160,970,1147,1311,1227,1423,1651
656419,123340,86996,162504,162504,1531,793,-76,3749,241,1627,-387,2098,34,88,826,1111,1160,970,1147,1311,1227,1423,1651
657420,123528,87468,162768,162768,1433,538,10,3940,216,1525,-282,1209,44,89,817,1111,1160,970,1147,1311,1227,1423,1651
658421,123696,87980,163032,163032,1560,282,81,4076,157,546,-53,2078,35,88,821,1111,1160,970,1147,1311,1227,1423,1651
659422,123888,88412,163296,163296,1412,778,80,4212,82,-4,732,1667,31,94,822,1137,1193,996,1151,1349,1241,1445,1675
660423,124080,88912,163560,163560,1413,347,52,4234,42,-571,543,1596,42,77,819,1137,1193,996,1151,1349,1241,1445,1675
661424,124248,89388,163840,163840,1566,492,-18,4287,-4,-940,1259,1843,27,75,824,1137,1193,996,1151,1349,1241,1445,1675
662425,124448,89832,164104,164104,1368,688,-100,4236,-24,-1649,1884,1888,43,87,820,1137,1193,996,1151,1349,1241,1445,1675
663426,124652,90308,164368,164368,1344,483,-258,4220,-49,-1499,1849,1991,34,84,823,1137,1193,996,1151,1349,1241,1445,1675
664427,124848,90704,164632,164632,1396,979,-478,4226,-52,-1498,1629,2230,38,83,826,1121,1182,963,1122,1322,1211,1440,1661
665428,125064,91144,164896,164896,1272,700,-622,4042,-76,-6,1189,2133,38,71,819,1121,1182,963,1122,1322,1211,1440,1661
666429,125284,91532,165160,165160,1248,1022,-767,3918,-128,604,1669,2631,44,69,821,1121,1182,963,1122,1322,1211,1440,1661
667430,125508,91952,165424,165424,1224,818,-807,3734,-241,-501,1838,2866,50,77,820,1121,1182,963,1122,1322,1211,1440,1661
668431,125700,92312,165688,165688,1426,1191,-796,3632,-389,-513,1118,3233,46,81,823,1121,1182,963,1122,1322,1211,1440,1661
669432,125912,92648,165952,165952,1302,1339,-793,3717,-554,977,132,3952,33,66,813,1061,1182,963,1122,1322,1211,1440,1661
670433,126124,93044,166216,166216,1303,961,-746,3669,-731,1365,1090,4465,34,72,811,1061,1128,927,1070,1366,1247,1479,1746
671434,126336,93408,166480,166480,1305,1158,-740,3538,-929,1562,-360,4386,49,58,817,1061,1128,927,1070,1366,1247,1479,1746
672435,126536,93808,166744,166744,1381,930,-723,3426,-1118,670,-110,4098,33,61,815,1061,1128,927,1070,1366,1247,1479,1746
673436,126748,94128,167008,167008,1307,1429,-634,3187,-1317,1363,216,4084,33,67,818,1061,1128,927,1070,1366,1247,1479,1746
674437,126940,94456,167272,167272,1434,1377,-636,3145,-1498,1813,-596,4585,35,74,810,1061,1128,927,1070,1366,1247,1479,1746
675438,127152,94772,167536,167536,1310,1451,-645,3062,-1614,1730,878,4241,50,67,808,1024,1136,951,1071,1408,1288,1528,1807
676439,127360,95120,167800,167800,1337,1249,-719,3026,-1683,1928,-550,4508,45,71,808,1024,1136,951,1071,1408,1288,1528,1807
677440,127584,95452,168064,168064,1238,1347,-766,2910,-1754,886,521,4519,44,56,811,1024,1136,951,1071,1408,1288,1528,1807
678441,127796,95816,168328,168328,1314,1145,-796,2748,-1835,553,-28,4080,51,63,812,1024,1136,951,1071,1408,1288,1528,1807
679442,128008,96152,168592,168592,1315,1318,-793,2523,-1797,339,780,4290,41,57,814,1024,1136,951,1071,1408,1288,1528,1807
680443,128252,96460,168856,168856,1116,1492,-814,2282,-1701,176,1477,4188,35,57,811,1198,1301,1048,1188,1440,1296,1572,1896
681444,128480,96788,169120,169120,1217,1365,-902,1988,-1642,-937,1738,4588,44,68,810,1198,1301,1048,1188,1440,1296,1572,1896
682445,128680,97100,169384,169384,1393,1464,-1030,1803,-1635,-1007,1673,4965,50,59,809,1198,1301,1048,1188,1440,1296,1572,1896
683446,128908,97424,169648,169648,1219,1388,-1086,1702,-1650,-370,1430,4584,34,71,801,1198,1301,1048,1188,1440,1296,1572,1896
684447,129144,97760,169912,169912,1170,1311,-1009,1495,-1643,409,693,4667,44,71,809,1198,1301,1048,1188,1440,1296,1572,1896
685448,129348,98124,170176,170176,1371,1134,-892,1233,-1539,-387,1703,5582,43,72,815,1198,1301,1048,1188,1440,1296,1572,1896
686449,129600,98472,170440,170440,1072,1232,-765,986,-1461,-619,1368,5843,40,56,814,1263,1375,1067,1212,1431,1271,1579,1879
687450,129816,98792,170704,170704,1298,1405,-629,873,-1437,-108,2269,6315,47,58,816,1263,1375,1067,1212,1431,1271,1579,1879
688451,130060,99116,170968,170968,1123,1379,-504,856,-1383,463,2223,5868,56,56,810,1263,1375,1067,1212,1431,1271,1579,1879
689452,130300,99412,171232,171232,1149,1553,-433,871,-1406,-197,2438,6207,44,74,813,1263,1375,1067,1212,1431,1271,1579,1879
690453,130564,99716,171496,171496,999,1502,-410,840,-1474,-485,2363,6674,44,63,809,1263,1375,1067,1212,1431,1271,1579,1879
691454,130840,100016,171760,171760,924,1526,-403,638,-1552,945,1508,5949,52,65,811,1210,1318,1021,1154,1360,1227,1489,1752
692455,131096,100288,172024,172024,1049,1701,-380,231,-1670,-3,959,6101,60,48,814,1210,1318,1021,1154,1360,1227,1489,1752
693456,131364,100592,172288,172288,974,1500,-402,-340,-1782,-668,881,7073,61,41,809,1210,1318,1021,1154,1360,1227,1489,1752
694457,131620,100896,172552,172552,1049,1499,-445,-740,-1810,505,619,7103,47,52,812,1210,1318,1021,1154,1360,1227,1489,1752
695458,131888,101164,172816,172816,974,1724,-433,-1011,-1747,744,455,7151,62,60,812,1210,1318,1021,1154,1360,1227,1489,1752
696459,132196,101460,173080,173080,723,1548,-323,-1203,-1615,-271,477,6790,58,43,809,1210,1318,1021,1154,1360,1227,1489,1752
697460,132464,101752,173344,173344,973,1572,-195,-1349,-1445,2,572,6967,48,44,815,1203,1285,1021,1161,1404,1277,1543,1855
698461,132756,102020,173608,173608,822,1722,-65,-1359,-1183,-378,116,6274,55,55,812,1203,1285,1021,1161,1404,1277,1543,1855
699462,133068,102348,173872,173872,696,1346,131,-1448,-913,-697,896,5567,62,56,811,1203,1285,1021,1161,1404,1277,1543,1855
700463,133340,102644,174136,174136,945,1545,280,-1460,-661,-535,-323,5230,64,61,815,1203,1285,1021,1161,1404,1277,1543,1855
701464,133660,102900,174400,174400,644,1795,356,-1558,-417,-1472,908,5086,68,64,816,1203,1285,1021,1161,1404,1277,1543,1855
702465,133952,103196,174664,174664,818,1544,321,-1645,-220,-1580,1474,4547,71,58,814,1214,1305,1051,1190,1466,1327,1609,1891
703466,134240,103500,174928,174928,843,1493,237,-1747,-102,-1360,538,4438,69,64,815,1214,1305,1051,1190,1466,1327,1609,1891
704467,134540,103800,175192,175192,767,1517,144,-1848,-91,-2507,2066,4967,56,60,816,1214,1305,1051,1190,1466,1327,1609,1891
705468,134844,104108,175456,175456,741,1466,29,-1977,-58,-2132,735,4107,57,46,814,1214,1305,1051,1190,1466,1327,1609,1891
706469,135184,104388,175720,175720,514,1641,-82,-2116,-22,-1777,1531,4312,72,49,819,1214,1305,1051,1190,1466,1327,1609,1891
707470,135488,104708,175984,175984,738,1390,-164,-2342,-3,-1661,1438,4421,77,50,819,1214,1305,1051,1190,1466,1327,1609,1891
708471,135804,105080,176248,176248,662,1062,-209,-2657,50,-887,1175,4465,69,64,821,1234,1322,1040,1171,1440,1288,1555,1838
709472,136116,105400,176512,176512,686,1386,-206,-2755,141,-809,508,4375,70,67,828,1234,1322,1040,1171,1440,1288,1555,1838
710473,136428,105688,176776,176776,685,1585,-184,-2641,280,-1749,572,5048,66,63,825,1234,1322,1040,1171,1440,1288,1555,1838
711474,136724,106020,177040,177040,784,1308,-107,-2233,346,-994,1594,5635,72,62,818,1234,1322,1040,1171,1440,1288,1555,1838
712477,137040,106388,177304,177304,658,1081,28,-1781,389,362,-173,6149,66,65,821,1234,1322,1040,1171,1440,1288,1555,1838
713476,137344,106756,177568,177568,732,1078,132,-1704,558,477,-440,4441,65,67,827,1133,1216,971,1092,1410,1267,1488,1741
714477,137640,107120,177832,177832,781,1101,170,-1455,690,-343,918,4942,61,78,830,1133,1216,971,1092,1410,1267,1488,1741
715478,137948,107500,178096,178096,705,998,174,-1230,740,-281,1126,3766,55,79,827,1133,1216,971,1092,1410,1267,1488,1741
716479,138264,107916,178360,178360,653,769,140,-1074,762,25,-427,2888,55,63,830,1133,1216,971,1092,1410,1267,1488,1741
717480,138576,108292,178624,178624,677,1017,45,-1048,794,-647,344,2457,67,72,831,1133,1216,971,1092,1410,1267,1488,1741
718481,138848,108728,178888,178888,927,637,-35,-1083,887,-884,-123,2343,56,63,833,1133,1216,971,1092,1410,1267,1488,1741
719482,139132,109140,179152,179152,852,784,-135,-948,923,-633,-458,2103,56,74,834,1097,1154,957,1111,1348,1254,1438,1638
720483,139404,109580,179416,179416,926,604,-190,-830,877,-1016,-452,2052,68,81,834,1097,1154,957,1111,1348,1254,1438,1638
721484,139672,110036,179680,179680,951,500,-280,-567,827,-907,185,1506,55,68,835,1097,1154,957,1111,1348,1254,1438,1638
722485,139988,110472,179944,179944,650,621,-339,-371,890,-696,-915,1270,61,75,835,1097,1154,957,1111,1348,1254,1438,1638
723486,140260,110896,180224,180224,925,692,-389,-68,956,-918,63,460,65,79,839,1097,1154,957,1111,1348,1254,1438,1638
724487,140536,111348,180488,180488,900,512,-355,137,956,-1137,140,944,64,89,835,1093,1121,939,1125,1323,1236,1424,1625
725488,140828,111880,180752,180752,799,6,-349,218,941,-1436,-1,608,60,87,837,1093,1121,939,1125,1323,1236,1424,1625
726489,141092,112300,181016,181016,974,702,-364,123,1010,-1880,-88,420,55,88,843,1093,1121,939,1125,1323,1236,1424,1625
727490,141396,112728,181280,181280,723,648,-411,76,1107,-2429,61,716,60,84,836,1093,1121,939,1125,1323,1236,1424,1625
728491,141684,113176,181544,181544,823,519,-421,46,1197,-3331,899,995,59,89,837,1093,1121,939,1125,1323,1236,1424,1625
729492,141956,113768,181808,181808,922,-389,-415,93,1239,-2794,1391,1653,47,94,837,1093,1121,939,1125,1323,1236,1424,1625
730493,142216,114244,182072,182072,998,330,-506,399,1326,-1885,-490,1505,47,87,837,1082,1122,937,1111,1314,1215,1407,1599
731494,142464,114632,182336,182336,1073,877,-611,642,1416,-1519,-292,1576,50,86,837,1082,1122,937,1111,1314,1215,1407,1599
732495,142768,115048,182600,182600,722,699,-710,904,1346,-702,-388,1409,60,85,832,1082,1122,937,1111,1314,1215,1407,1599
733496,143024,115504,182864,182864,1022,444,-752,1029,1224,-55,-589,2132,60,76,832,1082,1122,937,1111,1314,1215,1407,1599
734497,143284,115980,183128,183128,997,314,-790,1172,1166,780,-524,958,53,88,833,1082,1122,937,1111,1314,1215,1407,1599
735498,143576,116416,183392,183392,797,560,-774,1720,1189,2728,-565,3559,58,90,836,1070,1122,930,1086,1311,1213,1415,1639
736499,143844,116888,183656,183656,946,330,-749,2182,1267,2225,-388,1232,51,85,838,1070,1122,930,1086,1311,1213,1415,1639
737500,144156,117312,183920,183920,670,626,-700,2675,1270,1535,392,2399,63,82,838,1070,1122,930,1086,1311,1213,1415,1639
738501,144436,117816,184184,184184,870,120,-695,3141,1183,1415,-613,2432,47,80,839,1070,1122,930,1086,1311,1213,1415,1639
739502,144720,118252,184448,184448,844,541,-636,3509,1026,1740,-295,1598,63,82,841,1070,1122,930,1086,1311,1213,1415,1639
740503,144984,118660,184712,184712,969,712,-569,3659,941,581,198,1107,50,79,840,1070,1122,930,1086,1311,1213,1415,1639
741504,145292,119044,184976,184976,693,859,-554,3754,982,-571,-235,1249,50,83,836,1082,1141,949,1115,1336,1241,1437,1633
742505,145588,119504,185240,185240,768,379,-550,3802,1031,-1285,78,796,55,89,834,1082,1141,949,1115,1336,1241,1437,1633
743506,145852,119952,185504,185504,968,450,-543,3787,1021,-1408,508,641,64,96,838,1082,1141,949,1115,1336,1241,1437,1633
744507,146136,120388,185768,185768,842,521,-566,3828,1018,-1118,760,737,60,82,839,1082,1141,949,1115,1336,1241,1437,1633
745508,146444,120808,186032,186032,691,617,-616,3845,1064,-1414,391,374,53,90,837,1082,1141,949,1115,1336,1241,1437,1633
746509,146776,121232,186296,186296,539,588,-697,3866,1100,-1630,576,458,61,89,839,1121,1161,967,1165,1306,1220,1412,1584
747510,147092,121708,186560,186560,638,258,-751,4044,1076,-825,-334,789,60,77,841,1121,1161,967,1165,1306,1220,1412,1584
748511,147372,122152,186824,186824,863,453,-813,4105,993,-794,-47,613,73,81,845,1121,1161,967,1165,1306,1220,1412,1584
749512,147684,122528,187088,187088,662,876,-922,3953,935,-1824,1310,1785,65,75,843,1121,1161,967,1165,1306,1220,1412,1584
750513,148028,122924,187352,187352,460,747,-1124,3840,921,-1374,841,2246,66,75,837,1121,1161,967,1165,1306,1220,1412,1584
751514,148352,123328,187616,187616,583,694,-1465,3818,917,-1479,-517,2060,59,70,834,1121,1161,967,1165,1306,1220,1412,1584
752515,148716,123684,187880,187880,331,992,-1770,3545,785,-2004,-66,3072,64,89,840,1111,1149,947,1117,1295,1201,1410,1656
753516,149044,124028,188144,188144,554,1065,-2053,3254,730,-1579,-236,3714,59,80,839,1111,1149,947,1117,1295,1201,1410,1656
754517,149404,124364,188408,188408,352,1113,-2244,2897,728,-745,-369,5159,64,79,837,1111,1149,947,1117,1295,1201,1410,1656
755518,149736,124692,188672,188672,525,1162,-2412,2739,608,-317,-285,5303,69,72,834,1111,1149,947,1117,1295,1201,1410,1656
756519,150088,125012,188936,188936,398,1210,-2367,2493,458,274,-2233,5083,77,52,833,1111,1149,947,1117,1295,1201,1410,1656
757520,150500,125284,189200,189200,19,1510,-2240,2136,353,36,-2652,6136,76,59,832,1024,1101,920,1022,1531,1377,1650,2095
758521,150840,125504,189464,189464,467,1836,-1991,1574,193,-409,-2953,6406,69,46,831,1024,1101,920,1022,1531,1377,1650,2095
759522,151220,125708,189728,189728,215,1937,-1775,1105,-104,-173,-3085,6090,64,43,821,1024,1101,920,1022,1531,1377,1650,2095
760523,151584,125904,189992,189992,312,1989,-1535,700,-356,-535,-2622,5929,76,41,815,1024,1101,920,1022,1531,1377,1650,2095
761524,151916,126088,190256,190256,511,2066,-1395,399,-559,651,-1784,6443,70,36,811,1024,1101,920,1022,1531,1377,1650,2095
762525,152296,126224,190520,190520,208,2369,-1441,374,-713,1309,-1194,6489,77,17,805,1024,1101,920,1022,1531,1377,1650,2095
763526,152660,126368,190784,190784,305,2322,-1623,320,-859,977,-660,6564,78,8,799,1067,1239,997,1087,1595,1355,1755,2239
764527,153008,126508,191048,191048,403,2350,-1867,98,-1091,459,-54,5689,66,15,795,1067,1239,997,1087,1595,1355,1755,2239
765528,153336,126624,191312,191312,527,2504,-2218,-301,-1318,462,65,5404,69,0,794,1067,1239,997,1087,1595,1355,1755,2239
766529,153708,126732,191576,191576,249,2558,-2562,-779,-1471,10,834,5121,80,-1,790,1067,1239,997,1087,1595,1355,1755,2239
767530,154088,126816,191840,191840,196,2712,-2896,-1104,-1590,257,1022,5417,76,-25,788,1067,1239,997,1087,1595,1355,1755,2239
768531,154532,126904,192104,192104,-208,2691,-3141,-1577,-1653,-872,-20,5426,89,-34,781,1381,1583,1132,1254,1382,1187,1621,2024
769532,154892,126984,192368,192368,314,2746,-3364,-2138,-1728,-2291,-475,5987,87,-39,779,1381,1583,1132,1254,1382,1187,1621,2024
770533,155272,127064,192632,192632,187,2750,-3466,-2768,-1797,-3253,-663,6443,88,-35,779,1381,1583,1132,1254,1382,1187,1621,2024
771534,155652,127132,192896,192896,184,2830,-3384,-3300,-1836,-2555,-1502,6824,96,-46,772,1381,1583,1132,1254,1382,1187,1621,2024
772535,156044,127212,193160,193160,106,2760,-3169,-3726,-1853,-2268,-2501,8008,92,-48,779,1381,1583,1132,1254,1382,1187,1621,2024
773536,156412,127288,193424,193424,253,2789,-2897,-4232,-1820,-2690,-3013,8235,78,-39,777,1381,1583,1132,1254,1382,1187,1621,2024
774537,156772,127336,193688,193688,301,2969,-2551,-4706,-1864,-2308,-2985,8692,78,-58,778,1337,1482,1069,1154,1336,1180,1515,1863
775538,157168,127408,193952,193952,73,2824,-2117,-5179,-1946,-2018,-2897,8153,79,-65,771,1337,1482,1069,1154,1336,1180,1515,1863
776539,157556,127488,194216,194216,120,2779,-1670,-5652,-2063,-1872,-2308,8280,82,-35,772,1337,1482,1069,1154,1336,1180,1515,1863
777540,157888,127560,194480,194480,468,2833,-1294,-6101,-2163,-1498,-1764,7721,83,-33,776,1337,1482,1069,1154,1336,1180,1515,1863
778541,158216,127640,194744,194744,491,2788,-1029,-6496,-2253,-1005,-1156,7342,92,-36,775,1337,1482,1069,1154,1336,1180,1515,1863
779542,158648,127732,195008,195008,-163,2717,-846,-6768,-2387,-1074,-150,6831,83,-41,773,1186,1285,985,1129,1263,1134,1400,1616
780543,159020,127856,195272,195272,210,2520,-738,-6889,-2560,-512,80,6178,90,-21,774,1186,1285,985,1129,1263,1134,1400,1616
781544,159424,127956,195536,195536,6,2674,-707,-6927,-2727,-261,1189,5588,82,-17,778,1186,1285,985,1129,1263,1134,1400,1616
782545,159788,128096,195800,195800,254,2427,-692,-7072,-2902,-399,1517,4746,79,-13,787,1186,1285,985,1129,1263,1134,1400,1616
783546,160176,128236,196064,196064,101,2430,-689,-7373,-3044,-1675,1563,3402,71,4,782,1186,1285,985,1129,1263,1134,1400,1616
784547,160600,128348,196328,196328,-128,2609,-715,-7694,-3136,-2613,980,3881,73,0,790,1186,1285,985,1129,1263,1134,1400,1616
785548,160984,128464,196608,196608,119,2588,-747,-8136,-3036,-3338,-613,2295,83,-17,788,1288,1347,1037,1250,1172,1088,1368,1531
786549,161396,128600,196872,196872,-59,2466,-662,-8600,-2800,-2735,-1548,2426,75,-1,777,1288,1347,1037,1250,1172,1088,1368,1531
787550,161788,128776,197136,197136,62,2218,-425,-9104,-2571,-1659,-903,1968,73,4,789,1288,1347,1037,1250,1172,1088,1368,1531
788551,162196,128952,197400,197400,-41,2221,-112,-9522,-2337,-2738,-934,2372,69,23,793,1288,1347,1037,1250,1172,1088,1368,1531
789552,162592,129148,197664,197664,31,2097,243,-9952,-2290,-1742,101,2592,79,25,803,1288,1347,1037,1250,1172,1088,1368,1531
790553,162952,129372,197928,197928,253,1923,625,-10224,-2159,-1463,-1867,3407,79,19,797,1278,1320,1016,1168,1224,1111,1373,1607
791554,163292,129584,198192,198192,377,2000,1038,-10146,-1923,-661,-949,3478,63,29,806,1278,1320,1016,1168,1224,1111,1373,1607
792555,163632,129792,198456,198456,375,2026,1433,-9947,-1760,-649,-1656,2649,78,22,808,1278,1320,1016,1168,1224,1111,1373,1607
793556,163960,130004,198720,198720,448,2002,1727,-9630,-1679,-923,-311,4668,64,26,807,1278,1320,1016,1168,1224,1111,1373,1607
794557,164352,130208,198984,198984,45,2054,1913,-9295,-1650,-101,-341,4511,65,30,801,1278,1320,1016,1168,1224,1111,1373,1607
795558,164728,130468,199248,199248,142,1704,1999,-8932,-1592,61,37,4374,73,25,806,1278,1320,1016,1168,1224,1111,1373,1607
796559,165060,130748,199512,199512,416,1578,2049,-8750,-1523,318,108,3796,62,49,811,1128,1220,944,1076,1200,1072,1312,1536
797560,165396,131008,199776,199776,389,1703,2088,-8685,-1484,340,707,3267,73,51,817,1128,1220,944,1076,1200,1072,1312,1536
798561,165772,131268,200040,200040,136,1704,2073,-8770,-1483,149,446,1623,80,36,821,1128,1220,944,1076,1200,1072,1312,1536
799562,166132,131508,200304,200304,234,1829,2020,-8724,-1447,-875,1032,2430,70,48,817,1128,1220,944,1076,1200,1072,1312,1536
800563,166472,131804,200568,200568,357,1478,1986,-8462,-1345,-1339,1111,2443,63,39,819,1128,1220,944,1076,1200,1072,1312,1536
801564,166824,132076,200832,200832,280,1628,2041,-8097,-1247,-828,88,2410,68,38,815,1163,1219,962,1143,1221,1142,1359,1523
802565,167176,132328,201096,201096,278,1753,2282,-7938,-1060,1,321,1186,67,35,819,1163,1219,962,1143,1221,1142,1359,1523
803566,167512,132572,201360,201360,376,1804,2280,-7564,-671,517,-2612,2847,65,36,815,1163,1219,962,1143,1221,1142,1359,1523
804567,167832,132812,201624,201624,475,1829,1912,-7137,-212,-114,-972,3872,66,43,818,1163,1219,962,1143,1221,1142,1359,1523
805568,168128,133092,201888,201888,624,1579,1411,-6786,173,-551,-1000,4450,64,37,816,1163,1219,962,1143,1221,1142,1359,1523
806569,168416,133364,202152,202152,673,1629,1014,-6449,528,40,-1131,5146,70,48,811,1163,1219,962,1143,1221,1142,1359,1523
807570,168672,133640,202416,202416,873,1604,751,-5956,1020,-234,-615,6495,59,49,816,1135,1139,967,1184,1387,1357,1511,1681
808571,168944,133924,202680,202680,773,1553,451,-5174,1986,-5664,-3483,7184,55,50,814,1135,1139,967,1184,1387,1357,1511,1681
809572,169208,134272,202944,202944,823,1151,240,-5175,2509,-5306,-988,3981,59,54,808,1135,1139,967,1184,1387,1357,1511,1681
810573,169444,134624,203208,203208,999,1124,270,-6048,1904,7346,-1570,3259,45,52,815,1135,1139,967,1184,1387,1357,1511,1681
811574,169676,134992,203472,203472,1025,1021,193,-6136,1815,5134,-5184,5717,53,66,825,1135,1139,967,1184,1387,1357,1511,1681
812575,169900,135376,203736,203736,1076,918,-35,-5085,2180,-1046,-5130,5356,56,60,823,1031,1031,947,1129,1850,1763,1839,2071
813576,170132,135776,204000,204000,1026,815,-214,-3966,2063,1352,-3033,4554,54,61,824,1031,1031,947,1129,1850,1763,1839,2071
814577,170356,136396,204264,204264,1077,-569,-274,-3647,2139,401,-3773,3247,52,63,825,1031,1031,947,1129,1850,1763,1839,2071
815578,170564,136848,204528,204528,1179,477,-506,-3470,2204,3533,-3029,4875,34,66,827,1031,1031,947,1129,1850,1763,1839,2071
816579,170768,137284,204792,204792,1205,573,-852,-3090,2227,3783,-2807,4512,35,78,827,1031,1031,947,1129,1850,1763,1839,2071
817580,170976,137704,205056,205056,1182,669,-1201,-2595,2414,1993,-4026,5338,38,79,830,1031,1031,947,1129,1850,1763,1839,2071
818581,171160,138204,205320,205320,1333,163,-1617,-1834,2669,1989,-4140,5675,33,70,827,1007,1057,972,1131,1889,1723,1827,2025
819582,171388,138636,205584,205584,1059,584,-2051,-1151,2943,2309,-2974,5662,46,78,823,1007,1057,972,1131,1889,1723,1827,2025
820583,171592,139080,205848,205848,1211,505,-2408,-640,3351,2265,-2474,4998,37,75,826,1007,1057,972,1131,1889,1723,1827,2025
821584,171780,139536,206112,206112,1313,425,-2814,-74,3803,1939,-2150,5580,36,86,831,1007,1057,972,1131,1889,1723,1827,2025
822585,171992,140060,206376,206376,1164,-6,-3229,484,4158,956,-1121,5770,38,86,829,1007,1057,972,1131,1889,1723,1827,2025
823586,172196,140532,206640,206640,1215,313,-3630,974,4464,740,-1265,4262,50,79,828,1071,1120,979,1167,1573,1455,1609,1752
824587,172420,140968,206904,206904,1091,534,-3916,1129,4678,754,-1289,3798,52,75,835,1071,1120,979,1167,1573,1455,1609,1752
825588,172616,141424,207168,207168,1268,405,-4135,1148,4694,1180,-969,3200,41,83,832,1071,1120,979,1167,1573,1455,1609,1752
826589,172840,141840,207432,207432,1094,651,-4332,1284,4676,248,-718,2734,37,94,832,1071,1120,979,1167,1573,1455,1609,1752
827590,173060,142288,207696,207696,1120,446,-4448,1570,4656,55,-400,2778,50,84,829,1071,1120,979,1167,1573,1455,1609,1752
828591,173288,142816,207960,207960,1071,-60,-4459,1732,4524,1334,-520,2052,48,76,829,1071,1120,979,1167,1573,1455,1609,1752
829592,173512,143320,208224,208224,1097,84,-4379,1704,4321,2487,-29,2571,51,86,831,1100,1128,965,1159,1379,1283,1443,1613
830593,173752,143848,208488,208488,998,-72,-4264,1738,4159,1695,-783,2487,37,84,837,1100,1128,965,1159,1379,1283,1443,1613
831594,173960,144344,208752,208752,1199,122,-4132,1929,3855,1612,-993,2714,41,92,837,1100,1128,965,1159,1379,1283,1443,1613
832595,174168,144844,209016,209016,1200,91,-4005,2170,3501,2408,320,2625,48,72,838,1100,1128,965,1159,1379,1283,1443,1613
833596,174380,145336,209280,209280,1177,136,-3850,2327,3233,4625,-1631,2604,53,77,834,1100,1128,965,1159,1379,1283,1443,1613
834597,174576,145760,209544,209544,1278,557,-3734,2511,3078,3798,409,2803,36,76,834,1092,1141,951,1111,1233,1120,1315,1528
835598,174816,146248,209808,209808,1004,151,-3673,2781,2873,3456,58,2916,48,73,834,1092,1141,951,1111,1233,1120,1315,1528
836599,175008,146756,210072,210072,1306,20,-3620,3141,2623,3356,-89,2604,35,73,823,1092,1141,951,1111,1233,1120,1315,1528
837600,175212,147200,210336,210336,1232,416,-3554,3340,2417,2991,860,1815,32,65,835,1092,1141,951,1111,1233,1120,1315,1528
838601,175408,147616,210600,210600,1284,587,-3498,3574,2268,2731,980,2339,40,64,831,1092,1141,951,1111,1233,1120,1315,1528
839602,175588,148024,210864,210864,1386,634,-3435,3705,2118,2857,660,1745,33,69,829,1092,1141,951,1111,1233,1120,1315,1528
840603,175784,148492,211128,211128,1287,254,-3361,3671,1951,2225,1293,1421,35,62,823,1147,1229,973,1134,1163,1051,1319,1543
841604,175964,148924,211392,211392,1389,475,-3229,3637,1772,2122,993,1707,31,69,823,1147,1229,973,1134,1163,1051,1319,1543
843606,176252,149772,211920,211920,1670,467,-2939,3645,1479,1995,957,1775,33,77,824,1147,1229,973,1134,1163,1051,1319,1543
844607,176388,150292,212184,212184,1673,-89,-2783,3678,1296,2192,1110,1882,18,65,818,1147,1229,973,1134,1163,1051,1319,1543
845608,176532,150716,212448,212448,1626,507,-2566,3590,1075,1954,430,1394,24,81,817,1196,1289,1001,1195,1221,1126,1407,1605
846609,176652,151068,212712,212712,1780,954,-2334,3550,803,2682,575,1668,23,81,818,1196,1289,1001,1195,1221,1126,1407,1605
847610,176760,151500,212992,212992,1859,451,-2045,3437,529,2646,309,1867,13,67,816,1196,1289,1001,1195,1221,1126,1407,1605
848611,176884,151936,213256,213256,1762,422,-1768,3337,234,2768,-6,2256,15,67,803,1196,1289,1001,1195,1221,1126,1407,1605
849612,176996,152380,213520,213520,1841,367,-1469,3346,-98,3231,-18,2299,9,79,807,1196,1289,1001,1195,1221,1126,1407,1605
850613,177092,152760,213784,213784,1945,764,-1153,3327,-464,3012,-720,2109,18,81,812,1196,1289,1001,1195,1221,1126,1407,1605
851614,177172,153188,214048,214048,2050,460,-810,3263,-845,2741,-814,2497,13,83,810,1211,1275,1021,1215,1228,1140,1372,1528
852615,177248,153576,214312,214312,2079,707,-477,3133,-1162,2790,-1090,2919,0,81,800,1211,1275,1021,1215,1228,1140,1372,1528
853616,177344,154036,214576,214576,1958,253,-115,2904,-1422,2637,-1311,3381,8,71,796,1211,1275,1021,1215,1228,1140,1372,1528
854617,177404,154480,214840,214840,2188,348,190,2653,-1760,2392,-1692,4246,8,70,792,1211,1275,1021,1215,1228,1140,1372,1528
855618,177476,154868,215104,215104,2118,695,466,2475,-2058,2421,-1604,4617,9,79,805,1211,1275,1021,1215,1228,1140,1372,1528
856619,177556,155252,215368,215368,2073,717,742,2307,-2213,2566,-1727,4640,7,79,796,1212,1258,1003,1208,1131,1057,1284,1436
857620,177604,155692,215632,215632,2278,363,969,2239,-2338,2552,-1476,5199,0,78,794,1212,1258,1003,1208,1131,1057,1284,1436
858621,177668,156000,215896,215896,2183,1187,1117,2269,-2498,2410,-1366,5351,-4,75,794,1212,1258,1003,1208,1131,1057,1284,1436
859622,177744,156348,216160,216160,2112,935,1279,2188,-2566,2951,-1434,4340,-3,63,792,1212,1258,1003,1208,1131,1057,1284,1436
860623,177792,156708,216424,216424,2293,857,1390,2192,-2590,3019,-1287,5110,15,75,782,1212,1258,1003,1208,1131,1057,1284,1436
861624,177864,157000,216688,216688,2147,1282,1564,2297,-2649,2225,-1634,4609,0,69,791,1212,1258,1003,1208,1131,1057,1284,1436
862625,177936,157376,216952,216952,2152,754,1804,2288,-2690,2085,-1435,4194,-5,61,787,1264,1323,1017,1222,1129,1052,1349,1538
863626,177948,157700,217216,217216,2533,1078,2077,2343,-2651,2802,-2080,4892,-7,70,784,1264,1323,1017,1222,1129,1052,1349,1538
864627,178008,157992,217480,217480,2238,1277,2257,2435,-2587,2034,-2788,4595,-11,56,793,1264,1323,1017,1222,1129,1052,1349,1538
865628,178084,158296,217744,217744,2143,1201,2468,2445,-2547,1411,-2210,4682,-4,56,775,1264,1323,1017,1222,1129,1052,1349,1538
866629,178136,158604,218008,218008,2298,1175,2623,2496,-2535,2083,-2605,5176,8,60,780,1264,1323,1017,1222,1129,1052,1349,1538
867630,178212,158960,218272,218272,2153,873,2725,2605,-2585,3068,-2612,4940,-2,54,783,1264,1383,1036,1191,1251,1167,1496,1712
868631,178268,159292,218536,218536,2283,1021,2846,2620,-2574,3041,-3429,5731,-6,53,781,1264,1383,1036,1191,1251,1167,1496,1712
869632,178296,159580,218800,218800,2463,1295,2957,2695,-2458,1842,-3148,6122,-2,65,791,1264,1383,1036,1191,1251,1167,1496,1712
870633,178360,159852,219064,219064,2243,1395,3086,2631,-2413,2030,-3646,6369,-19,67,779,1264,1383,1036,1191,1251,1167,1496,1712
871634,178408,160172,219328,219328,2349,1094,3278,2281,-2329,1345,-4142,7184,3,56,769,1264,1383,1036,1191,1251,1167,1496,1712
872635,178440,160456,219592,219592,2454,1318,3332,2151,-2143,353,-3868,8206,-2,67,777,1264,1383,1036,1191,1251,1167,1496,1712
873636,178516,160760,219856,219856,2184,1192,3384,2158,-2061,1735,-3581,7559,-14,57,777,1216,1284,976,1152,1376,1264,1503,1696
874637,178556,161068,220120,220120,2414,1166,3491,1829,-1935,1231,-5064,7635,-3,72,772,1216,1284,976,1152,1376,1264,1503,1696
875638,178588,161384,220384,220384,2470,1115,3431,1649,-1972,2392,-4268,8435,-12,60,784,1216,1284,976,1152,1376,1264,1503,1696
876639,178672,161736,220648,220648,2149,888,3325,1674,-1927,3018,-4035,8299,-4,58,776,1216,1284,976,1152,1376,1264,1503,1696
877640,178736,162000,220912,220912,2279,1438,3230,1731,-1679,3808,-4092,7556,4,54,773,1216,1284,976,1152,1376,1264,1503,1696
878641,178784,162264,221176,221176,2384,1438,3174,1528,-1435,2900,-3781,8041,-2,53,788,1170,1238,1000,1184,1476,1363,1611,1867
879642,178900,162560,221440,221440,1963,1237,3004,1375,-1286,1345,-3846,8413,-2,62,774,1170,1238,1000,1184,1476,1363,1611,1867
880643,178988,162864,221704,221704,2142,1186,2827,1435,-1159,2083,-3698,7726,28,66,771,1170,1238,1000,1184,1476,1363,1611,1867
881644,179068,163188,221968,221968,2197,1060,2784,1451,-972,2674,-3787,6931,5,70,789,1170,1238,1000,1184,1476,1363,1611,1867
882645,179180,163472,222232,222232,2001,1309,2727,1356,-731,1412,-3244,6956,15,65,784,1170,1238,1000,1184,1476,1363,1611,1867
883646,179308,163724,222496,222496,1904,1509,2559,1329,-530,1311,-3111,6859,16,64,785,1170,1238,1000,1184,1476,1363,1611,1867
884647,179392,164008,222760,222760,2183,1309,2443,1305,-303,1965,-2907,5873,22,51,787,1196,1260,1017,1178,1608,1460,1743,2034
885648,179552,164276,223024,223024,1711,1409,2422,1271,-46,1616,-2522,5481,23,69,785,1196,1260,1017,1178,1608,1460,1743,2034
886649,179656,164572,223288,223288,2065,1233,2439,1255,194,555,-2703,5517,29,68,778,1196,1260,1017,1178,1608,1460,1743,2034
887650,179764,164824,223552,223552,2044,1508,2417,1233,372,92,-2624,5545,27,73,789,1196,1260,1017,1178,1608,1460,1743,2034
888651,179948,165100,223816,223816,1570,1358,2393,1158,507,283,-2151,5337,20,67,783,1196,1260,1017,1178,1608,1460,1743,2034
889652,180064,165396,224080,224080,1999,1232,2369,1038,686,704,-1368,4674,39,62,780,1179,1279,1031,1171,1623,1419,1711,1983
890653,180156,165652,224344,224344,2153,1482,2307,912,829,1064,-1626,4828,27,53,799,1179,1279,1031,1171,1623,1419,1711,1983
891654,180324,165948,224608,224608,1681,1232,2210,762,909,705,-774,4596,22,53,790,1179,1279,1031,1171,1623,1419,1711,1983
892655,180468,166180,224872,224872,1834,1632,2126,611,978,1105,-319,4569,29,50,781,1179,1279,1031,1171,1623,1419,1711,1983
893656,180600,166452,225136,225136,1912,1382,2068,516,1060,1793,-406,4603,38,47,800,1179,1279,1031,1171,1623,1419,1711,1983
894657,180832,166740,225400,225400,1288,1282,2023,439,1099,1918,145,4548,27,64,789,1133,1239,969,1086,1351,1199,1438,1684
895658,180988,167036,225664,225664,1765,1231,1976,352,1123,1904,220,5034,46,59,790,1133,1239,969,1086,1351,1199,1438,1684
896659,181128,167312,225928,225928,1868,1356,1912,247,1182,1974,375,4428,33,57,809,1133,1239,969,1086,1351,1199,1438,1684
897660,181300,167568,226192,226192,1670,1481,1878,214,1250,2085,-22,4690,20,62,795,1133,1239,969,1086,1351,1199,1438,1684
898661,181428,167836,226456,226456,1949,1406,1875,125,1302,2417,842,4107,28,57,790,1133,1239,969,1086,1351,1199,1438,1684
899662,181588,168116,226720,226720,1751,1330,1906,3,1361,1434,214,3517,20,65,793,1133,1239,969,1086,1351,1199,1438,1684
900663,181732,168396,226984,226984,1854,1330,1957,-84,1356,1157,1455,3907,23,51,786,1119,1210,952,1064,1263,1127,1374,1637
901664,181864,168688,227248,227248,1933,1254,2049,-159,1403,1604,601,2859,20,65,794,1119,1210,952,1064,1263,1127,1374,1637
902665,182012,168948,227512,227512,1835,1454,2153,-232,1415,1448,950,2443,20,65,789,1119,1210,952,1064,1263,1127,1374,1637
903666,182176,169224,227776,227776,1738,1354,2272,-411,1361,125,1860,2361,29,58,792,1119,1210,952,1064,1263,1127,1374,1637
904667,182280,169560,228040,228040,2117,977,2390,-579,1347,635,1497,1380,36,48,786,1119,1210,952,1064,1263,1127,1374,1637
905668,182412,169844,228304,228304,1945,1302,2470,-634,1353,754,1608,1006,11,61,790,1104,1195,957,1077,1291,1168,1413,1681
906669,182532,170144,228568,228568,2023,1201,2485,-494,1282,480,1823,962,19,49,790,1104,1195,957,1077,1291,1168,1413,1681
907670,182628,170448,228832,228832,2178,1175,2482,-326,1143,1172,2322,-374,20,65,790,1104,1195,957,1077,1291,1168,1413,1681
908671,182740,170772,229096,229096,2081,1048,2480,-306,1040,769,1188,-663,13,68,791,1104,1195,957,1077,1291,1168,1413,1681
909672,182864,171176,229376,229376,2010,545,2518,-655,1009,-948,1861,-104,24,70,786,1104,1195,957,1077,1291,1168,1413,1681
910673,182972,171456,229640,229640,2114,1320,2481,-948,937,-446,2426,760,12,68,788,1104,1195,957,1077,1291,1168,1413,1681
911674,183108,171812,229904,229904,1942,843,2498,-990,867,580,1289,613,8,59,800,1112,1190,948,1072,1267,1157,1385,1640
912675,183200,172152,230168,230168,2221,941,2480,-822,758,541,1963,528,27,60,783,1112,1190,948,1072,1267,1157,1385,1640
913676,183288,172532,230432,230432,2250,688,2396,-675,625,-298,1200,940,10,72,796,1112,1190,948,1072,1267,1157,1385,1640
914677,183412,172916,230696,230696,2029,660,2278,-527,496,-3,1211,827,5,79,788,1112,1190,948,1072,1267,1157,1385,1640
915678,183528,173380,230960,230960,2083,155,2224,-412,420,1248,1218,1223,20,72,791,1112,1190,948,1072,1267,1157,1385,1640
916679,183636,173816,231224,231224,2136,326,2208,-286,433,1470,766,1862,9,69,797,1009,1072,896,1024,1276,1156,1320,1564
917680,183752,174256,231488,231488,2090,297,2207,-187,443,269,408,1890,19,81,802,1009,1072,896,1024,1276,1156,1320,1564
918681,183852,174744,231752,231752,2194,-9,2151,127,335,25,953,2405,13,72,798,1009,1072,896,1024,1276,1156,1320,1564
919682,183940,175188,232016,232016,2273,262,2168,311,240,718,1091,2252,12,88,799,1009,1072,896,1024,1276,1156,1320,1564
920683,184040,175636,232280,232280,2202,232,2166,420,250,476,783,1876,1,76,796,1009,1072,896,1024,1276,1156,1320,1564
921684,184152,176048,232544,232544,2131,454,2097,603,228,-501,1019,2252,4,82,793,1009,1072,896,1024,1276,1156,1320,1564
922685,184248,176548,232808,232808,2235,-102,2043,723,91,-1005,1867,1682,2,76,795,1005,1070,904,1051,1341,1241,1429,1659
923686,184336,176940,233072,233072,2289,570,2020,832,-12,-893,998,806,11,85,798,1005,1070,904,1051,1341,1241,1429,1659
924687,184432,177348,233336,233336,2243,466,1945,885,-72,-863,1229,1306,-2,77,797,1005,1070,904,1051,1341,1241,1429,1659
925688,184524,177728,233600,233600,2273,639,1827,1052,-148,-1169,1966,609,-3,78,792,1005,1070,904,1051,1341,1241,1429,1659
926689,184620,178084,233864,233864,2252,786,1751,1099,-214,-898,1647,-135,-2,75,796,1005,1070,904,1051,1341,1241,1429,1659
927690,184720,178644,234128,234128,2231,-496,1671,1224,-242,-1027,1525,491,0,76,792,1062,1123,956,1123,1387,1293,1486,1709
928691,184820,179108,234392,234392,2235,99,1566,1458,-304,-605,1615,425,16,76,790,1062,1123,956,1123,1387,1293,1486,1709
929692,184904,179524,234656,234656,2339,395,1435,1709,-407,224,1249,801,9,87,791,1062,1123,956,1123,1387,1293,1486,1709
930693,184996,179932,234920,234920,2293,442,1297,1894,-510,149,192,1585,3,79,797,1062,1123,956,1123,1387,1293,1486,1709
931694,185100,180376,235184,235184,2222,213,1053,2157,-662,229,671,1696,13,75,790,1062,1123,956,1123,1387,1293,1486,1709
932695,185180,180816,235448,235448,2377,233,950,2488,-687,597,173,2103,1,81,791,1062,1123,956,1123,1387,1293,1486,1709
933696,185240,181200,235712,235712,2507,580,980,2858,-653,764,387,1367,-11,74,796,1106,1159,969,1113,1385,1269,1472,1722
934697,185280,181576,235976,235976,2637,628,959,3273,-635,461,336,2320,-9,79,789,1106,1159,969,1113,1385,1269,1472,1722
935698,185332,181984,236240,236240,2567,424,888,3630,-617,734,1017,2812,-16,73,781,1106,1159,969,1113,1385,1269,1472,1722
936699,185404,182400,236504,236504,2447,370,799,3926,-593,509,352,2302,-13,69,774,1106,1159,969,1113,1385,1269,1472,1722
937701,185428,182792,236768,236768,2753,517,742,4223,-591,122,1120,2866,-14,81,780,1106,1159,969,1113,1385,1269,1472,1722
938701,185500,183212,237032,237032,2458,338,723,4458,-589,396,340,2020,-37,82,781,1038,1101,914,1035,1333,1222,1420,1659
939702,185560,183596,237296,237296,2538,561,644,4590,-585,255,1004,2212,-11,87,769,1038,1101,914,1035,1333,1222,1420,1659
940703,185616,184028,237560,237560,2568,256,564,4637,-591,-23,1151,2582,-2,75,785,1038,1101,914,1035,1333,1222,1420,1659
941704,185716,184404,237824,237824,2297,604,438,4795,-592,307,1304,1811,-2,70,781,1038,1101,914,1035,1333,1222,1420,1659
942705,185792,184768,238088,238088,2451,676,351,4977,-606,678,1293,1775,2,71,783,1038,1101,914,1035,1333,1222,1420,1659
943706,185860,185172,238352,238352,2506,423,256,5130,-646,494,1504,1038,-10,77,787,1038,1101,914,1035,1333,1222,1420,1659
944707,185940,185536,238616,238616,2436,670,174,5271,-703,608,1107,1349,-11,76,781,1009,1084,897,1038,1320,1211,1410,1625
945708,186028,185988,238880,238880,2390,116,41,5431,-774,718,1606,1564,-3,78,784,1009,1084,897,1038,1320,1211,1410,1625
946709,186112,186364,239144,239144,2419,588,-49,5528,-831,893,1305,1330,0,87,784,1009,1084,897,1038,1320,1211,1410,1625
947710,186188,186752,239408,239408,2474,510,-166,5638,-892,754,732,1044,1,71,791,1009,1084,897,1038,1320,1211,1410,1625
948711,186244,187144,239672,239672,2604,482,-259,5812,-1015,936,39,1489,-16,84,785,1009,1084,897,1038,1320,1211,1410,1625
949712,186328,187576,239936,239936,2433,228,-238,5783,-1123,275,1674,1321,-27,90,785,1032,1095,911,1070,1339,1223,1423,1654
950713,186408,187980,240200,240200,2463,399,-253,5723,-1114,404,1382,1991,3,86,781,1032,1095,911,1070,1339,1223,1423,1654
951714,186480,188276,240464,240464,2517,1074,-258,5655,-1121,655,1118,2125,-4,75,790,1032,1095,911,1070,1339,1223,1423,1654
952715,186568,188628,240728,240728,2422,721,-256,5212,-1176,-618,821,1595,-10,79,788,1032,1095,911,1070,1339,1223,1423,1654
953716,186648,188968,240992,240992,2476,795,-365,4733,-1179,-784,835,2864,-7,75,776,1032,1095,911,1070,1339,1223,1423,1654
954717,186700,189336,241256,241256,2656,617,-466,4083,-1118,-1455,1219,4845,-4,66,784,1032,1095,911,1070,1339,1223,1423,1654
955718,186812,189648,241520,241520,2285,966,-725,3784,-1027,-1764,1448,5794,-23,66,776,1056,1136,944,1080,1357,1219,1472,1792
956719,186880,189940,241784,241784,2565,1090,-925,3693,-994,-831,1219,5825,-1,72,771,1056,1136,944,1080,1357,1219,1472,1792
957720,186944,190240,242048,242048,2595,1039,-1093,3748,-968,416,1037,5686,-2,56,782,1056,1136,944,1080,1357,1219,1472,1792
958721,187020,190520,242312,242312,2524,1164,-1232,3758,-924,1599,621,5538,-15,55,770,1056,1136,944,1080,1357,1219,1472,1792
959722,187068,190796,242576,242576,2705,1189,-1319,3609,-925,1948,1015,5474,-15,49,769,1056,1136,944,1080,1357,1219,1472,1792
960723,187100,191004,242840,242840,2810,1615,-1371,3444,-915,1558,703,5973,-19,55,763,1083,1205,965,1031,1496,1301,1645,2125
961724,187176,191188,243104,243104,2540,1767,-1359,3331,-894,1384,616,7062,-34,59,761,1083,1205,965,1031,1496,1301,1645,2125
962725,187240,191380,243368,243368,2620,1719,-1264,3188,-959,567,670,7412,-3,41,752,1083,1205,965,1031,1496,1301,1645,2125
963726,187236,191536,243632,243632,3051,1946,-1087,2907,-1016,-754,832,8626,-4,39,756,1083,1205,965,1031,1496,1301,1645,2125
964727,187316,191696,243896,243896,2531,1924,-903,2616,-994,-1880,897,9477,-72,39,753,1083,1205,965,1031,1496,1301,1645,2125
965728,187356,191848,244160,244160,2786,1977,-718,2200,-1008,-1767,1545,8889,3,44,736,1083,1205,965,1031,1496,1301,1645,2125
966729,187356,191932,244424,244424,3043,2406,-551,1680,-1048,-1911,1107,8833,-30,33,750,1135,1323,1038,1095,1623,1375,1723,2183
967730,187364,192020,244688,244688,2999,2385,-436,1115,-1080,-2251,1687,8948,-56,14,741,1135,1323,1038,1095,1623,1375,1723,2183
968731,187412,192128,244952,244952,2754,2264,-452,716,-1084,-1558,1984,9220,-50,28,726,1135,1323,1038,1095,1623,1375,1723,2183
969732,187456,192204,245216,245216,2785,2469,-569,476,-1065,-1049,2343,9245,-16,22,726,1135,1323,1038,1095,1623,1375,1723,2183
970733,187464,192272,245480,245480,3016,2524,-726,304,-1023,-1143,2533,9258,-31,10,737,1135,1323,1038,1095,1623,1375,1723,2183
971734,187432,192336,245760,245760,3274,2554,-901,151,-977,-839,2153,9067,-45,2,732,1343,1495,1119,1215,1396,1223,1599,1919
972735,187480,192412,246024,246024,2779,2483,-1020,32,-914,-1061,1924,9590,-146,3,718,1343,1495,1119,1215,1396,1223,1599,1919
973736,187512,192456,246288,246288,2884,2689,-1073,-62,-853,-1298,1772,9496,-6,7,707,1343,1495,1119,1215,1396,1223,1599,1919
974737,187548,192528,246552,246552,2865,2518,-1058,-186,-797,-1698,1278,9755,-21,-16,734,1343,1495,1119,1215,1396,1223,1599,1919
975738,187540,192596,246816,246816,3147,2548,-978,-349,-712,-2226,870,9606,-31,10,726,1343,1495,1119,1215,1396,1223,1599,1919
976739,187536,192644,247080,247080,3128,2679,-832,-484,-608,-2675,316,9603,-88,0,729,1343,1495,1119,1215,1396,1223,1599,1919
977740,187560,192692,247344,247344,2959,2684,-612,-562,-529,-2867,101,9398,-70,-2,725,1295,1407,1069,1190,1303,1167,1474,1735
978741,187604,192748,247608,247608,2839,2639,-346,-657,-493,-3093,-174,8539,-24,-19,721,1295,1407,1069,1190,1303,1167,1474,1735
979742,187628,192804,247872,247872,2970,2644,-63,-824,-474,-3354,-104,8174,-25,-5,724,1295,1407,1069,1190,1303,1167,1474,1735
980743,187612,192856,248136,248136,3227,2674,178,-994,-465,-3199,-299,7668,-48,-10,729,1295,1407,1069,1190,1303,1167,1474,1735
981744,187580,192912,248400,248400,3334,2654,373,-1109,-467,-3567,31,7297,-117,1,726,1295,1407,1069,1190,1303,1167,1474,1735
982745,187680,193016,248664,248664,2513,2358,537,-1229,-505,-3476,358,6484,-188,-2,718,1118,1175,968,1087,1280,1159,1367,1535
983746,187712,193112,248928,248928,2944,2412,673,-1319,-559,-3204,1204,6379,-180,10,714,1118,1175,968,1087,1280,1159,1367,1535
984747,187716,193200,249192,249192,3125,2466,749,-1444,-597,-3008,1557,5457,7,11,741,1118,1175,968,1087,1280,1159,1367,1535
986749,187760,193424,249720,249720,2837,2374,720,-1558,-618,-2897,1809,5320,-80,17,731,1118,1175,968,1087,1280,1159,1367,1535
987750,187860,193512,249984,249984,2541,2478,695,-1545,-632,-2498,2461,4657,-79,18,729,1118,1175,968,1087,1280,1159,1367,1535
988751,187968,193652,250248,250248,2495,2156,678,-1501,-686,-1537,2091,4524,-10,19,739,1072,1112,836,1024,1184,1088,1320,1488
989752,188040,193784,250512,250512,2725,2209,630,-1427,-680,-1467,1753,4477,19,23,743,1072,1112,836,1024,1184,1088,1320,1488
990753,188160,193896,250776,250776,2428,2338,584,-1267,-633,-1325,1655,4842,12,18,753,1072,1112,836,1024,1184,1088,1320,1488
991754,188308,194056,251040,251040,2256,2041,579,-1004,-555,-1576,911,4339,6,21,748,1072,1112,836,1024,1184,1088,1320,1488
992755,188432,194184,251304,251304,2409,2244,657,-745,-528,-1142,971,3878,28,35,755,1072,1112,836,1024,1184,1088,1320,1488
993756,188536,194304,251568,251568,2538,2298,801,-568,-485,-731,805,3419,32,14,766,1024,1056,864,1048,1218,1088,1296,1524
994757,188676,194448,251832,251832,2316,2150,915,-341,-443,-827,19,3528,30,17,757,1024,1056,864,1048,1218,1088,1296,1524
995758,188864,194616,252096,252096,2018,2003,994,-88,-415,-1585,470,3042,26,23,751,1024,1056,864,1048,1218,1088,1296,1524
996759,188984,194728,252360,252360,2447,2357,1071,118,-454,-1491,699,2607,25,26,757,1024,1056,864,1048,1218,1088,1296,1524
997760,189144,194892,252624,252624,2199,2034,1159,175,-461,-1999,489,2053,25,17,773,1024,1056,864,1048,1218,1088,1296,1524
998761,189324,195028,252888,252888,2076,2212,1194,192,-465,-2085,878,2175,35,39,755,1024,1056,864,1048,1218,1088,1296,1524
999762,189488,195168,253152,253152,2179,2190,1212,162,-477,-2619,951,1959,35,26,768,1108,1136,953,1114,1288,1184,1407,1647
1000763,189632,195352,253416,253416,2307,1917,1232,103,-513,-3081,1162,1638,40,27,764,1108,1136,953,1114,1288,1184,1407,1647
1001764,189840,195488,253680,253680,1908,2220,1281,-105,-641,-1609,2289,1283,43,41,763,1108,1136,953,1114,1288,1184,1407,1647
1002765,190024,195648,253944,253944,2060,2073,1273,-321,-772,-1120,1395,1478,26,19,767,1108,1136,953,1114,1288,1184,1407,1647
1003766,190184,195816,254208,254208,2213,2025,1249,-431,-936,-920,2377,1948,47,26,771,1108,1136,953,1114,1288,1184,1407,1647
1004767,190380,195956,254472,254472,1989,2203,1200,-338,-1109,101,2222,2508,48,25,772,1107,1167,967,1112,1327,1223,1439,1695
1005768,190624,196144,254736,254736,1690,1905,1195,-136,-1099,-389,1278,3180,37,22,771,1107,1167,967,1112,1327,1223,1439,1695
1006769,190848,196284,255000,255000,1816,2208,1232,-103,-1163,-52,2560,3346,42,36,763,1107,1167,967,1112,1327,1223,1439,1695
1007770,191068,196440,255264,255264,1842,2111,1162,-136,-1213,380,1491,2508,46,28,782,1107,1167,967,1112,1327,1223,1439,1695
1008771,191300,196620,255528,255528,1768,1963,1029,-23,-1462,5686,1532,2553,43,20,775,1107,1167,967,1112,1327,1223,1439,1695
1009772,191540,196768,255792,255792,1718,2166,862,544,-1165,694,2417,5060,47,36,778,1107,1167,967,1112,1327,1223,1439,1695
