time,Right Leg Pos,Left Leg Pos,Commanded Right Leg Pos,Commanded Left Leg Pos,DCR,DCL,GyroX,GyroY,GyroZ,AX,AY,AZ,RBEMF,LBEMF,VBatt,S1,S2,S3,S4,S5,S6,S7,S8
268,33288,-16424,11700,11700,-503,661,-102,-64,39,318,-242,3858,3,5,856,1134,1243,777,1164,1329,1306,1969,1766
1269,33280,-16440,11700,11700,-477,787,-104,-64,38,322,-221,3889,-9,-2,857,1134,1243,777,1164,1329,1306,1969,1766
2270,33292,-16428,11700,11700,-603,611,-105,-64,34,307,-241,3889,-4,-3,856,1134,1243,777,1164,1329,1306,1969,1766
3274,33284,-16424,11700,11700,-477,661,-103,-63,34,306,-249,3883,2,2,856,1134,1243,777,1164,1329,1306,1969,1766
4272,33296,-16428,11700,11700,-603,711,-101,-63,36,330,-269,3914,7,-9,856,1134,1244,778,1164,1329,1306,1968,1765
5273,33284,-16432,11700,11700,-452,711,-101,-64,36,338,-267,3899,4,6,856,1134,1244,778,1164,1329,1306,1968,1765
6274,33292,-16420,11700,11700,-578,611,-105,-65,34,315,-256,3894,4,-9,856,1134,1244,778,1164,1329,1306,1968,1765
7275,33280,-16424,11700,11700,-452,711,-106,-65,31,321,-246,3917,-2,1,856,1134,1244,778,1164,1329,1306,1968,1765
8276,33284,-16432,11700,11700,-552,736,-104,-62,31,337,-248,3913,-7,-4,856,1134,1244,778,1164,1329,1306,1968,1765
9277,33284,-16432,11700,11700,-527,686,-105,-63,34,330,-271,3900,-6,0,856,1134,1244,778,1164,1329,1306,1968,1765
10278,33280,-16444,11700,11700,-502,762,-104,-66,34,341,-266,3895,-9,1,856,1131,1245,779,1165,1329,1306,1968,1766
11279,33292,-16436,11700,11700,-603,636,-103,-69,34,315,-247,3916,-9,-3,856,1131,1245,779,1165,1329,1306,1968,1766
12280,33288,-16436,11700,11700,-503,686,-105,-70,35,312,-253,3907,-7,-5,856,1131,1245,779,1165,1329,1306,1968,1766
13281,33284,-16428,11700,11700,-502,636,-105,-68,33,318,-274,3925,-1,-5,856,1131,1245,779,1165,1329,1306,1968,1766
14282,33296,-16424,11700,11700,-603,661,-104,-67,33,316,-269,3925,3,-2,856,1131,1245,779,1165,1329,1306,1968,1766
15283,33292,-16436,11700,11700,-503,761,-104,-65,33,306,-255,3911,4,3,856,1134,1243,778,1164,1328,1306,1968,1766
16284,33292,-16432,11700,11700,-528,661,-103,-64,33,292,-243,3911,7,-4,856,1134,1243,778,1164,1328,1306,1968,1766
17285,33284,-16420,11700,11700,-477,611,-105,-63,33,321,-236,3908,5,3,856,1134,1243,778,1164,1328,1306,1968,1766
18286,33292,-16436,11700,11700,-578,786,-106,-64,33,304,-263,3901,5,-9,856,1134,1243,778,1164,1328,1306,1968,1766
19287,33300,-16428,11700,11700,-578,636,-107,-64,31,295,-260,3920,-3,5,854,1134,1243,778,1164,1328,1306,1968,1766
20288,33292,-16432,11700,11700,-478,711,-107,-65,31,310,-250,3898,-7,-1,856,1134,1243,778,1164,1328,1306,1968,1766
21289,33280,-16424,11700,11700,-452,636,-105,-63,33,295,-275,3876,-2,-7,856,1134,1243,778,1164,1328,1306,1968,1765
22290,33272,-16436,11700,11700,-477,761,-103,-62,33,293,-266,3874,-4,5,856,1134,1243,778,1164,1328,1306,1968,1765
23291,33292,-16428,11700,11700,-653,636,-103,-63,33,307,-253,3916,-7,-9,856,1134,1243,778,1164,1328,1306,1968,1765
24292,33292,-16428,11700,11700,-528,686,-104,-64,32,316,-234,3914,-3,4,856,1134,1243,778,1164,1328,1306,1968,1765
25293,33288,-16436,11700,11700,-503,736,-106,-65,32,300,-249,3875,-6,-7,856,1134,1243,778,1164,1328,1306,1968,1765
26294,33280,-16428,11700,11700,-477,636,-107,-67,33,302,-261,3883,-6,0,856,1135,1245,775,1165,1330,1307,1970,1768
27295,33288,-16432,11700,11700,-578,711,-106,-64,33,311,-265,3892,3,2,856,1135,1245,775,1165,1330,1307,1970,1768
28296,33288,-16432,11700,11700,-528,686,-104,-64,32,318,-249,3906,2,-4,856,1135,1245,775,1165,1330,1307,1970,1768
29297,33284,-16428,11700,11700,-502,661,-104,-66,33,346,-237,3905,5,0,856,1135,1245,775,1165,1330,1307,1970,1768
30298,33296,-16420,11700,11700,-603,636,-107,-65,33,335,-246,3930,5,-6,856,1135,1245,775,1165,1330,1307,1970,1768
31299,33296,-16424,11700,11700,-528,711,-105,-67,34,314,-232,3932,4,-1,856,1135,1245,775,1165,1330,1307,1970,1768
32300,33296,-16436,11700,11700,-528,761,-103,-65,32,323,-241,3914,5,-4,856,1134,1243,777,1164,1328,1305,1967,1767
33301,33284,-16424,11700,11700,-452,611,-103,-65,33,309,-247,3936,-1,2,856,1134,1243,777,1164,1328,1305,1967,1767
34302,33296,-16424,11700,11700,-603,686,-104,-66,35,308,-262,3905,0,-2,856,1134,1243,777,1164,1328,1305,1967,1767
35303,33288,-16420,11700,11700,-478,661,-104,-65,35,315,-285,3901,2,-1,856,1134,1243,777,1164,1328,1305,1967,1767
36304,33288,-16432,11700,11700,-528,761,-103,-64,34,313,-279,3894,0,-5,855,1134,1243,777,1164,1328,1305,1967,1767
37305,33292,-16436,11700,11700,-553,711,-103,-64,32,330,-258,3920,4,-3,856,1134,1244,778,1164,1329,1306,1969,1766
38306,33288,-16432,11700,11700,-503,661,-104,-63,33,309,-264,3897,4,-3,856,1134,1244,778,1164,1329,1306,1969,1766
39307,33280,-16432,11700,11700,-477,686,-104,-65,33,305,-255,3895,2,4,856,1134,1244,778,1164,1329,1306,1969,1766
40308,33284,-16440,11700,11700,-552,737,-101,-66,38,323,-247,3895,7,-3,856,1134,1244,778,1164,1329,1306,1969,1766
41309,33292,-16440,11700,11700,-578,687,-99,-69,34,325,-234,3912,5,1,856,1134,1244,778,1164,1329,1306,1969,1766
42310,33284,-16432,11700,11700,-477,636,-102,-65,35,327,-232,3935,4,-8,856,1134,1244,778,1164,1329,1306,1969,1766
43311,33288,-16424,11700,11700,-553,636,-107,-64,35,323,-254,3897,-2,-1,856,1134,1244,779,1165,1325,1303,1967,1767
44312,33284,-16428,11700,11700,-502,711,-105,-64,35,329,-284,3922,-7,-3,856,1134,1244,779,1165,1325,1303,1967,1767
45313,33276,-16424,11700,11700,-477,661,-104,-65,34,324,-293,3937,-5,5,856,1134,1244,779,1165,1325,1303,1967,1767
46314,33284,-16440,11700,11700,-577,787,-104,-67,36,331,-256,3909,-7,-6,856,1134,1244,779,1165,1325,1303,1967,1767
47315,33292,-16432,11700,11700,-578,636,-105,-63,34,341,-266,3903,-8,5,856,1134,1244,779,1165,1325,1303,1967,1767
48316,33288,-16428,11700,11700,-503,661,-104,-62,34,352,-257,3882,-8,-9,856,1135,1243,778,1164,1328,1306,1968,1767
49317,33292,-16424,11700,11700,-553,661,-103,-63,33,326,-266,3888,-9,2,856,1135,1243,778,1164,1328,1306,1968,1767
50318,33284,-16428,11700,11700,-477,711,-104,-64,36,317,-270,3884,-9,-7,856,1135,1243,778,1164,1328,1306,1968,1767
51319,33288,-16420,11700,11700,-553,636,-106,-62,36,332,-247,3926,-9,6,856,1135,1243,778,1164,1328,1306,1968,1767
52320,33272,-16436,11700,11700,-427,786,-105,-61,35,326,-245,3919,-6,-8,856,1135,1243,778,1164,1328,1306,1968,1767
53322,33296,-16424,11700,11700,-678,611,-105,-62,33,330,-247,3937,-1,-6,854,1135,1243,778,1164,1328,1306,1968,1767
54322,33288,-16424,11700,11700,-478,686,-103,-62,34,343,-237,3927,2,3,855,1135,1244,778,1164,1328,1306,1968,1767
55323,33296,-16440,11700,11700,-578,787,-104,-67,35,335,-243,3909,4,-6,856,1135,1244,778,1164,1328,1306,1968,1767
56324,33284,-16424,11700,11700,-452,586,-104,-66,35,317,-259,3912,6,-5,856,1135,1244,778,1164,1328,1306,1968,1767
57325,33288,-16432,11700,11700,-553,736,-104,-64,34,318,-279,3923,7,6,856,1135,1244,778,1164,1328,1306,1968,1767
58326,33292,-16424,11700,11700,-553,636,-106,-62,36,314,-274,3910,4,-9,856,1135,1244,778,1164,1328,1306,1968,1767
59327,33284,-16432,11700,11700,-477,736,-104,-63,37,333,-225,3919,1,5,856,1134,1244,778,1165,1328,1306,1968,1766
60328,33288,-16432,11700,11700,-553,686,-104,-63,35,325,-253,3918,3,-1,856,1134,1244,778,1165,1328,1306,1968,1766
61329,33284,-16432,11700,11700,-502,686,-103,-64,32,344,-250,3911,-4,-1,856,1134,1244,778,1165,1328,1306,1968,1766
62330,33284,-16428,11700,11700,-527,661,-103,-64,32,329,-244,3924,-9,2,856,1134,1244,778,1165,1328,1306,1968,1766
63331,33304,-16436,11700,11700,-653,736,-103,-64,32,316,-251,3933,-9,-9,856,1134,1244,778,1165,1328,1306,1968,1766
64332,33284,-16428,11700,11700,-402,636,-102,-67,32,308,-250,3940,-3,4,856,1134,1244,778,1165,1328,1306,1968,1766
65333,33288,-16424,11700,11700,-553,661,-101,-67,35,340,-237,3910,5,-8,856,1134,1243,778,1164,1329,1307,1969,1767
66334,33288,-16424,11700,11700,-528,686,-101,-64,34,341,-269,3896,5,1,856,1134,1243,778,1164,1329,1307,1969,1767
67335,33292,-16428,11700,11700,-553,711,-104,-62,33,313,-249,3908,6,-4,856,1134,1243,778,1164,1329,1307,1969,1767
68336,33296,-16436,11700,11700,-553,736,-106,-63,33,290,-250,3897,-4,-3,856,1134,1243,778,1164,1329,1307,1969,1767
69337,33288,-16428,11700,11700,-478,636,-106,-64,32,305,-264,3894,-6,1,856,1134,1243,778,1164,1329,1307,1969,1767
70338,33288,-16428,11700,11700,-528,686,-105,-63,32,309,-271,3916,-9,-7,854,1131,1244,779,1166,1330,1306,1968,1766
71339,33276,-16432,11700,11700,-452,711,-103,-63,32,297,-262,3901,-4,4,855,1131,1244,779,1166,1330,1306,1968,1766
72340,33284,-16440,11700,11700,-577,737,-103,-63,31,305,-265,3908,-1,-3,856,1131,1244,779,1166,1330,1306,1968,1766
73341,33292,-16432,11700,11700,-578,636,-103,-64,32,315,-252,3901,6,0,856,1131,1244,779,1166,1330,1306,1968,1766
74342,33288,-16432,11700,11700,-503,686,-104,-65,33,339,-288,3906,6,3,856,1131,1244,779,1166,1330,1306,1968,1766
75343,33280,-16428,11700,11700,-477,661,-105,-65,32,331,-264,3907,6,-9,856,1131,1244,779,1166,1330,1306,1968,1766
76344,33284,-16420,11700,11700,-552,636,-105,-65,33,323,-267,3900,2,6,856,1134,1243,778,1165,1329,1306,1969,1766
77345,33288,-16424,11700,11700,-553,711,-105,-67,33,321,-268,3925,-4,-6,856,1134,1243,778,1165,1329,1306,1969,1766
78346,33288,-16440,11700,11700,-528,787,-104,-66,34,313,-279,3938,-5,-7,856,1134,1243,778,1165,1329,1306,1969,1766
79347,33280,-16424,11700,11700,-477,586,-103,-63,32,341,-252,3941,-8,5,856,1134,1243,778,1165,1329,1306,1969,1766
80348,33292,-16428,11700,11700,-603,711,-103,-64,29,328,-238,3932,3,-8,856,1134,1243,778,1165,1329,1306,1969,1766
81349,33288,-16428,11700,11700,-503,686,-101,-67,31,319,-255,3906,4,-2,856,1134,1243,777,1164,1328,1306,1969,1766
82350,33292,-16432,11700,11700,-553,711,-102,-68,32,343,-279,3913,6,-1,856,1134,1243,777,1164,1328,1306,1969,1766
83351,33284,-16432,11700,11700,-477,686,-105,-65,33,331,-273,3914,-4,-9,856,1134,1243,777,1164,1328,1306,1969,1766
84352,33292,-16428,11700,11700,-578,661,-104,-63,33,312,-248,3873,-4,3,856,1134,1243,777,1164,1328,1306,1969,1766
85353,33288,-16432,11700,11700,-503,711,-103,-63,33,297,-242,3860,-8,-6,856,1134,1243,777,1164,1328,1306,1969,1766
86354,33288,-16428,11700,11700,-528,661,-103,-64,35,299,-247,3894,-8,-2,856,1134,1243,777,1164,1328,1306,1969,1766
87355,33292,-16420,11700,11700,-553,636,-100,-64,32,314,-261,3906,-4,6,855,1131,1242,777,1166,1330,1306,1968,1766
88356,33296,-16436,11700,11700,-553,786,-102,-62,33,335,-273,3905,7,-9,855,1131,1242,777,1166,1330,1306,1968,1766
89357,33280,-16436,11700,11700,-427,686,-102,-65,34,338,-252,3904,7,6,856,1131,1242,777,1166,1330,1306,1968,1766
90358,33288,-16432,11700,11700,-578,661,-103,-66,34,318,-245,3888,7,-4,856,1131,1242,777,1166,1330,1306,1968,1766
91359,33296,-16436,11700,11700,-578,711,-104,-63,34,327,-257,3868,6,4,856,1131,1242,777,1166,1330,1306,1968,1766
92360,33292,-16428,11700,11700,-503,636,-103,-63,35,329,-264,3891,-1,-4,857,1134,1244,778,1164,1328,1306,1968,1767
93361,33288,-16436,11700,11700,-503,736,-102,-62,34,313,-250,3904,-7,-5,856,1134,1244,778,1164,1328,1306,1968,1767
94362,33276,-16432,11700,11700,-452,661,-105,-64,33,309,-251,3889,-9,2,856,1134,1244,778,1164,1328,1306,1968,1767
95363,33284,-16424,11700,11700,-577,636,-104,-65,32,288,-259,3880,-8,-8,856,1134,1244,778,1164,1328,1306,1968,1767
96364,33284,-16416,11700,11700,-527,636,-101,-66,33,288,-239,3902,-7,0,856,1134,1244,778,1164,1328,1306,1968,1767
97365,33296,-16432,11700,11700,-603,786,-100,-64,33,326,-231,3876,2,-4,857,1134,1244,778,1164,1328,1306,1968,1767
98366,33288,-16428,11700,11700,-478,661,-103,-65,34,353,-254,3884,7,0,856,1134,1244,778,1164,1329,1307,1969,1767
99367,33288,-16424,11700,11700,-528,661,-106,-67,35,333,-244,3890,6,-2,856,1134,1244,778,1164,1329,1307,1969,1767
100368,33292,-16436,11700,11700,-553,761,-105,-67,33,310,-233,3900,0,2,856,1134,1244,778,1164,1329,1307,1969,1767
101370,33276,-16432,11700,11700,-427,661,-103,-66,33,305,-263,3897,-8,0,856,1134,1244,778,1164,1329,1307,1969,1767
102370,33288,-16428,11700,11700,-603,661,-102,-66,33,322,-270,3900,-9,-9,856,1134,1244,778,1164,1329,1307,1969,1767
103371,33292,-16432,0,0,-553,711,-102,-66,35,323,-286,3917,-8,5,856,1131,1242,778,1166,1329,1306,1968,1767
104372,33280,-16432,468,468,-240,899,-102,-65,34,302,-272,3935,-3,-3,855,1131,1242,778,1166,1329,1306,1968,1767
105373,33284,-16432,936,936,-328,911,-103,-64,33,300,-270,3939,-10,1,854,1131,1242,778,1166,1329,1306,1968,1767
106374,33288,-16420,1404,1404,-317,847,-104,-63,34,301,-264,3903,1,7,847,1131,1242,778,1166,1329,1306,1968,1767
107375,33280,-16412,1872,1872,-230,883,-103,-67,35,308,-291,3921,4,1,845,1131,1242,778,1166,1329,1306,1968,1767
108376,33284,-16408,2340,2340,-294,919,-101,-73,32,314,-265,3903,4,7,847,1131,1242,778,1166,1329,1306,1968,1767
109377,33256,-16408,2808,2808,-82,956,-104,-73,32,356,-258,3876,5,14,847,1134,1243,778,1164,1329,1306,1968,1767
110378,33256,-16328,3276,3276,-245,465,-101,-74,33,348,-246,3806,-11,21,846,1134,1243,778,1164,1329,1306,1968,1767
111379,33252,-16212,3744,3744,-209,249,-97,-65,26,306,-258,3889,-9,11,847,1134,1243,778,1164,1329,1306,1968,1767
112380,33240,-16056,4212,4212,-147,6,-89,-107,23,199,-215,4169,5,27,851,1134,1243,778,1164,1329,1306,1968,1767
113381,33252,-15944,4680,4680,-286,290,-105,-92,37,316,-264,3965,-9,15,853,1134,1243,778,1164,1329,1306,1968,1767
114382,33248,-15820,5148,5148,-175,223,-106,-84,25,322,-246,3904,5,21,855,1135,1245,779,1164,1327,1304,1968,1768
115383,33252,-15692,5616,5616,-213,207,-114,-46,10,209,-309,3835,-1,12,853,1135,1245,779,1164,1327,1304,1968,1768
116384,33240,-15580,6084,6084,-101,315,-107,-64,8,298,-386,3751,0,14,854,1135,1245,779,1164,1327,1304,1968,1768
117385,33240,-15460,6552,6552,-165,274,-130,-73,17,269,-191,3940,-8,10,853,1135,1245,779,1164,1327,1304,1968,1768
118386,33236,-15356,7020,7020,-129,383,-138,-71,27,407,-446,3751,-12,24,854,1135,1245,779,1164,1327,1304,1968,1768
119387,33224,-15244,7488,7488,-67,341,-116,-28,29,294,-389,3627,-9,17,854,1135,1245,779,1164,1327,1304,1968,1768
120388,33196,-15148,7956,7956,45,451,-88,-24,16,45,-335,3740,-12,12,853,1135,1247,780,1167,1330,1307,1969,1769
121389,33196,-15044,8424,8424,-118,409,-72,-25,9,355,-298,3995,4,18,851,1135,1247,780,1167,1330,1307,1969,1769
122390,33172,-14944,8892,8892,44,443,-65,-16,18,334,-458,3836,-5,25,851,1135,1247,780,1167,1330,1307,1969,1769
123391,33168,-14840,9360,9360,-70,427,-40,-18,19,17,-211,3895,-8,15,853,1135,1247,780,1167,1330,1307,1969,1769
124392,33140,-14752,9828,9828,92,537,-14,-7,0,80,-296,3864,-8,20,853,1135,1247,780,1167,1330,1307,1969,1769
125393,33156,-14628,10296,10296,-172,320,2,-21,-6,276,-336,3939,3,25,853,1131,1241,776,1162,1318,1295,1949,1749
126394,33140,-14528,10764,10764,40,479,-1,-28,-2,282,-163,4036,-5,16,851,1131,1241,776,1162,1318,1295,1949,1749
127395,33136,-14428,11232,11232,-23,488,-3,-24,0,225,-188,3981,3,9,853,1131,1241,776,1162,1318,1295,1949,1749
128396,33132,-14328,11700,11700,-12,497,-5,-15,0,199,-258,3886,8,13,852,1131,1241,776,1162,1318,1295,1949,1749
129397,33128,-14220,12168,12168,0,456,0,-24,3,305,-236,3884,-7,24,852,1131,1241,776,1162,1318,1295,1949,1749
130398,33132,-14104,12636,12636,-39,414,-12,-34,10,254,-341,4036,-7,13,852,1131,1241,776,1162,1318,1295,1949,1749
131399,33112,-14004,13104,13104,123,523,-30,-47,10,184,-264,4031,1,23,852,1137,1247,778,1167,1310,1290,1947,1754
132400,33132,-13916,13572,13572,-116,608,-28,-54,20,255,-280,3822,8,11,853,1137,1247,778,1167,1310,1290,1947,1754
133401,33132,-13820,14040,14040,20,567,-12,-41,26,360,-395,3948,-1,12,851,1137,1247,778,1167,1310,1290,1947,1754
134402,33112,-13712,14508,14508,157,500,-2,-33,17,285,-392,3929,-8,11,851,1137,1247,778,1167,1310,1290,1947,1754
135403,33120,-13624,14976,14976,-6,635,14,-36,15,301,-418,3962,-8,7,852,1137,1247,778,1167,1310,1290,1947,1754
136404,33124,-13524,15444,15444,30,569,36,-52,19,360,-402,4008,-1,13,851,1142,1254,781,1168,1328,1304,1977,1781
137405,33128,-13428,15912,15912,41,603,52,-53,20,393,-469,4040,2,17,851,1142,1254,781,1168,1328,1304,1977,1781
138406,33108,-13328,16384,16384,2641,3025,66,-56,9,314,-430,4090,-8,12,850,1142,1254,781,1168,1328,1304,1977,1781
139407,33108,-13200,16852,16852,2528,2858,82,-86,11,262,-329,4012,-47,-72,849,1142,1254,781,1168,1328,1304,1977,1781
140408,33128,-12992,17320,17320,2414,2365,84,-102,21,309,-344,4170,-13,-20,783,1142,1254,781,1168,1328,1304,1977,1781
141409,33296,-12708,17788,17788,1496,1894,131,-149,24,164,-380,4250,11,34,790,1142,1254,781,1168,1328,1304,1977,1781
142410,33600,-12388,18256,18256,650,1673,146,-159,33,209,-504,5370,55,47,800,1139,1255,781,1164,1324,1297,1976,1768
143411,33880,-12032,18724,18724,804,1450,142,-148,56,352,-3,5376,63,64,821,1139,1255,781,1164,1324,1297,1976,1768
144412,34156,-11684,19192,19192,834,1503,111,-97,60,723,162,5673,62,58,834,1139,1255,781,1164,1324,1297,1976,1768
145413,34412,-11296,19660,19660,964,1255,86,-89,68,732,-199,5168,63,60,835,1139,1255,781,1164,1324,1297,1976,1768
146414,34696,-10924,20128,20128,794,1358,43,-109,110,263,-38,5211,67,69,835,1139,1255,781,1164,1324,1297,1976,1768
147415,35020,-10528,20596,20596,547,1209,-30,-91,176,-25,-338,5304,68,74,837,1147,1269,787,1177,1347,1323,2027,1818
148416,35324,-10164,21064,21064,676,1412,-86,-140,264,174,-574,4635,61,64,838,1147,1269,787,1177,1347,1323,2027,1818
149417,35628,-9808,21532,21532,680,1465,-101,-115,285,-119,-440,5227,51,62,841,1147,1269,787,1177,1347,1323,2027,1818
150418,35888,-9468,22000,22000,960,1568,-131,-112,280,-496,-420,4929,46,58,838,1147,1269,787,1177,1347,1323,2027,1818
151419,36152,-9140,22468,22468,940,1646,-131,-112,307,-430,-1120,5043,45,66,837,1147,1269,787,1177,1347,1323,2027,1818
152420,36420,-8752,22936,22936,920,1273,-105,-174,355,-339,-1127,5142,58,58,834,1147,1269,787,1177,1347,1323,2027,1818
153421,36664,-8468,23404,23404,1076,1928,-84,-218,390,-512,-1185,5410,65,67,833,1167,1286,799,1198,1400,1372,2106,1874
154422,36940,-8172,23872,23872,880,1857,-42,-118,385,-230,-941,5608,47,45,837,1167,1286,799,1198,1400,1372,2106,1874
155423,37188,-7896,24340,24340,1061,1987,7,77,354,622,-1609,5203,51,53,825,1167,1286,799,1198,1400,1372,2106,1874
156424,37452,-7592,24808,24808,966,1816,91,75,330,630,-1558,5151,62,54,826,1167,1286,799,1198,1400,1372,2106,1874
157425,37740,-7296,25276,25276,820,1870,127,-37,345,457,-960,5456,50,45,825,1167,1286,799,1198,1400,1372,2106,1874
158426,38020,-7032,25744,25744,875,2075,151,-215,390,505,-950,5510,62,53,830,1168,1293,801,1192,1376,1355,2074,1832
159427,38284,-6780,26212,26212,980,2155,210,-425,399,371,-68,5581,58,33,830,1168,1293,801,1192,1376,1355,2074,1832
160428,38536,-6524,26680,26680,1060,2135,257,-545,412,180,-386,5893,59,43,825,1168,1293,801,1192,1376,1355,2074,1832
161429,38772,-6260,27148,27148,1166,2090,244,-605,445,363,-272,5919,55,31,820,1168,1293,801,1192,1376,1355,2074,1832
162430,39056,-6028,27616,27616,870,2296,203,-632,502,292,-31,5689,50,29,822,1168,1293,801,1192,1376,1355,2074,1832
163431,39292,-5832,28084,28084,1176,2528,216,-637,567,653,355,5662,47,16,822,1168,1293,801,1192,1376,1355,2074,1832
164432,39556,-5616,28552,28552,1006,2409,317,-569,628,950,344,5415,53,16,819,1180,1315,795,1196,1302,1268,1974,1782
165433,39808,-5392,29020,29020,1086,2365,426,-527,653,851,-143,5094,57,14,815,1180,1315,795,1196,1302,1268,1974,1782
166434,40064,-5200,29488,29488,1066,2571,492,-598,651,711,155,5631,50,23,818,1180,1315,795,1196,1302,1268,1974,1782
167435,40356,-5036,29956,29956,846,2754,533,-605,667,1027,32,5543,43,-6,818,1180,1315,795,1196,1302,1268,1974,1782
168436,40600,-4864,30424,30424,1151,2711,607,-606,716,1093,36,5266,58,-13,813,1180,1315,795,1196,1302,1268,1974,1782
169437,40844,-4676,30892,30892,1157,2618,734,-589,744,961,136,4959,47,-2,811,1212,1365,807,1200,1285,1245,1960,1794
170438,41092,-4504,31360,31360,1137,2725,848,-662,742,449,-167,4974,46,-9,810,1212,1365,807,1200,1285,1245,1960,1794
171439,41320,-4324,31828,31828,1268,2682,947,-729,733,126,11,4738,59,-10,811,1212,1365,807,1200,1285,1245,1960,1794
172440,41592,-4140,32296,32296,998,2664,1036,-844,696,481,158,5164,41,-11,807,1212,1365,807,1200,1285,1245,1960,1794
173441,41844,-3984,32768,32768,1128,2847,1131,-968,669,596,198,5018,53,-20,806,1212,1365,807,1200,1285,1245,1960,1794
174442,42076,-3808,33236,33236,1259,2729,1248,-1101,676,601,340,4924,53,-32,812,1212,1365,807,1200,1285,1245,1960,1794
175443,42312,-3632,33704,33704,1239,2736,1373,-1232,652,905,247,4809,37,-10,803,1221,1372,815,1205,1303,1263,1978,1806
176444,42512,-3460,34172,34172,1471,2768,1509,-1388,664,431,953,4899,37,-20,807,1221,1372,815,1205,1303,1263,1978,1806
177445,42768,-3288,34640,34640,1126,2775,1587,-1491,707,1250,483,5257,50,-12,807,1221,1372,815,1205,1303,1263,1978,1806
178446,42976,-3132,35108,35108,1432,2883,1626,-1583,693,1183,850,5087,47,-26,803,1221,1372,815,1205,1303,1263,1978,1806
179447,43200,-2956,35576,35576,1338,2765,1700,-1695,653,895,1237,5076,36,-38,807,1221,1372,815,1205,1303,1263,1978,1806
180448,43400,-2796,36044,36044,1495,2873,1742,-1689,674,946,903,5445,50,-17,802,1191,1331,799,1175,1297,1264,1961,1793
181449,43604,-2652,36512,36512,1476,2981,1767,-1633,715,1024,2161,5276,35,-32,804,1191,1331,799,1175,1297,1264,1961,1793
182450,43844,-2488,36980,36980,1257,2863,1784,-1501,714,1474,912,4935,48,-44,801,1191,1331,799,1175,1297,1264,1961,1793
183451,44064,-2328,37448,37448,1388,2896,1814,-1411,682,1299,1644,4630,51,-48,794,1191,1331,799,1175,1297,1264,1961,1793
184452,44264,-2184,37916,37916,1520,3004,1875,-1391,664,737,1663,4633,31,-47,804,1191,1331,799,1175,1297,1264,1961,1793
185453,44480,-2020,38384,38384,1426,2886,1885,-1294,610,757,1587,4597,47,-50,802,1191,1331,799,1175,1297,1264,1961,1793
186454,44676,-1836,38852,38852,1557,2768,1945,-1316,623,187,1002,4015,47,-34,798,1155,1290,783,1154,1319,1281,1967,1790
187455,44912,-1672,39320,39320,1313,2900,1961,-1317,618,184,1736,4689,47,-12,799,1155,1290,783,1154,1319,1281,1967,1790
188456,45092,-1504,39788,39788,1670,2883,1969,-1309,609,3,1358,4457,35,-39,801,1155,1290,783,1154,1319,1281,1967,1790
189457,45296,-1316,40256,40256,1526,2764,1973,-1330,603,-12,672,3987,31,-32,801,1155,1290,783,1154,1319,1281,1967,1790
190458,45484,-1148,40724,40724,1633,2897,1999,-1448,590,-447,1601,4019,40,-14,796,1155,1290,783,1154,1319,1281,1967,1790
191459,45664,-972,41192,41192,1690,2854,1956,-1468,594,-318,1169,4525,40,-34,801,1116,1228,764,1142,1332,1284,1960,1755
192460,45856,-724,41660,41660,1622,2409,1950,-1661,219,4843,3034,4014,34,-31,795,1116,1228,764,1142,1332,1284,1960,1755
193461,46040,-456,42128,42128,1679,2289,1986,-1344,393,1255,-2068,6047,29,17,798,1116,1228,764,1142,1332,1284,1960,1755
194462,46204,-220,42596,42596,1811,2495,1982,-494,787,-5558,-1103,6182,33,16,809,1116,1228,764,1142,1332,1284,1960,1755
195463,46388,28,43064,43064,1693,2425,1846,182,756,-6739,1218,3800,26,10,807,1116,1228,764,1142,1332,1284,1960,1755
196464,46584,280,43532,43532,1625,2405,1729,-300,424,2211,535,1039,34,17,805,1116,1228,764,1142,1332,1284,1960,1755
197465,46792,508,44000,44000,1556,2561,1574,-933,563,2875,-1706,4402,26,30,807,1119,1243,781,1147,1359,1329,2004,1810
198466,46988,780,44468,44468,1638,2291,1382,-794,866,-731,-668,5546,27,13,809,1119,1243,781,1147,1359,1329,2004,1810
199467,47160,1020,44936,44936,1795,2497,1313,-218,823,-2312,2054,5876,31,16,807,1119,1243,781,1147,1359,1329,2004,1810
200468,47308,1300,45404,45404,1953,2251,1419,-183,709,-1118,1566,3600,24,6,811,1119,1243,781,1147,1359,1329,2004,1810
201469,47480,1532,45872,45872,1810,2557,1449,-200,646,969,376,3810,29,20,805,1119,1243,781,1147,1359,1329,2004,1810
202470,47644,1760,46340,46340,1868,2588,1413,-330,709,96,2242,2641,32,13,807,1094,1202,765,1130,1402,1372,2070,1847
203471,47824,2016,46808,46808,1775,2418,1235,-93,680,266,1692,3973,20,4,804,1094,1202,765,1130,1402,1372,2070,1847
204472,48012,2344,47276,47276,1732,1971,1022,549,564,463,1343,2935,24,27,801,1094,1202,765,1130,1402,1372,2070,1847
205473,48160,2660,47744,47744,1989,2050,946,825,568,-38,1672,1726,23,33,806,1094,1202,765,1130,1402,1372,2070,1847
206474,48336,2964,48212,48212,1821,2129,826,800,597,-130,1534,2260,31,38,813,1094,1202,765,1130,1402,1372,2070,1847
207475,48488,3272,48680,48680,1979,2108,574,885,541,-118,1372,3613,35,44,804,1094,1202,765,1130,1402,1372,2070,1847
208476,48676,3628,49152,49152,1761,1811,285,1091,531,-575,511,3741,27,37,810,1088,1197,757,1116,1367,1330,1986,1785
209477,48824,3984,49620,49620,2019,1814,142,1152,513,154,-419,2640,33,43,809,1088,1197,757,1116,1367,1330,1986,1785
210478,48968,4312,50088,50088,2052,1992,159,917,637,-1484,109,2329,13,43,817,1088,1197,757,1116,1367,1330,1986,1785
211479,49132,4612,50556,50556,1934,2171,135,687,723,-1573,-258,3900,14,37,813,1088,1197,757,1116,1367,1330,1986,1785
212480,49284,4980,51024,51024,2017,1749,77,604,634,-682,-175,3050,24,45,809,1088,1197,757,1116,1367,1330,1986,1785
213481,49480,5352,51492,51492,1749,1726,184,568,665,-1297,-459,2564,23,50,809,1042,1146,744,1076,1366,1312,1917,1765
214482,49656,5692,51960,51960,1881,1929,373,556,700,-1130,1003,2654,35,54,815,1042,1146,744,1076,1366,1312,1917,1765
215483,49820,6032,52428,52428,1963,1932,472,700,669,-597,601,3860,26,50,818,1042,1146,744,1076,1366,1312,1917,1765
216484,49988,6424,52896,52896,1945,1609,479,793,543,939,117,2114,31,53,814,1042,1146,744,1076,1366,1312,1917,1765
217485,50108,6812,53364,53364,2254,1636,509,719,581,-310,904,2984,16,47,811,1042,1146,744,1076,1366,1312,1917,1765
218486,50264,7232,53832,53832,2037,1437,458,607,566,267,2866,3570,14,45,816,1048,1164,747,1094,1366,1312,1917,1765
219487,50400,7644,54300,54300,2170,1489,281,900,538,1126,1526,3500,11,60,811,1048,1164,747,1094,1266,1226,1824,1671
220488,50532,8068,54768,54768,2203,1415,146,1493,613,1570,1359,3456,16,69,814,1048,1164,747,1094,1266,1226,1824,1671
221489,50700,8548,55236,55236,1985,1064,147,1708,632,1913,594,735,13,64,815,1048,1164,747,1094,1266,1226,1824,1671
222490,50840,9080,55704,55704,2168,738,83,1619,509,2268,656,1653,23,77,814,1048,1164,747,1094,1266,1226,1824,1671
223491,50980,9532,56172,56172,2176,1238,-40,1366,431,812,2263,1920,6,80,818,1048,1164,747,1094,1266,1226,1824,1671
224492,51112,9984,56640,56640,2234,1239,-177,1176,392,698,1436,1134,4,74,821,1137,1248,776,1181,1251,1255,1887,1691
225493,51244,10532,57108,57108,2243,637,-251,1201,307,603,1991,1814,14,80,818,1137,1248,776,1181,1251,1255,1887,1691
226494,51360,11068,57576,57576,2351,710,-244,1401,289,301,2013,1852,0,87,816,1137,1248,776,1181,1251,1255,1887,1691
227495,51496,11564,58044,58044,2234,959,-146,1518,298,554,1071,937,13,77,822,1137,1248,776,1181,1251,1255,1887,1691
228498,51632,12052,58512,58512,2242,1009,-12,1589,217,284,242,1648,20,75,820,1137,1248,776,1181,1251,1255,1887,1691
229497,51764,12580,58980,58980,2276,757,224,1543,170,-11,-285,1499,16,76,820,1127,1224,768,1156,1324,1313,1947,1727
230498,51884,13156,59448,59448,2359,455,433,1502,151,485,-824,1397,7,76,818,1127,1224,768,1156,1324,1313,1947,1727
231499,52032,13664,59916,59916,2192,879,666,1378,127,325,-1056,1592,15,95,820,1127,1224,768,1156,1324,1313,1947,1727
232500,52188,14188,60384,60384,2150,777,840,1434,90,834,-278,2203,9,83,821,1127,1224,768,1156,1324,1313,1947,1727
233501,52340,14768,60852,60852,2182,425,965,1698,113,412,-481,2339,14,89,821,1127,1224,768,1156,1324,1313,1947,1727
234502,52484,15252,61320,61320,2240,1024,1036,1924,68,425,-105,2841,10,87,823,1127,1224,768,1156,1324,1313,1947,1727
235503,52636,15812,61788,61788,2198,547,1032,2140,10,452,615,3124,13,98,824,1069,1163,743,1122,1231,1212,1766,1575
236504,52772,16376,62256,62256,2306,520,1040,2161,34,604,42,2729,26,89,819,1069,1163,743,1122,1231,1212,1766,1575
237505,52912,16832,62724,62724,2289,1195,1029,2257,23,752,1608,3411,10,93,823,1069,1163,743,1122,1231,1212,1766,1575
238506,53068,17352,63192,63192,2197,794,994,2211,46,319,686,2355,5,93,823,1069,1163,743,1122,1231,1212,1766,1575
239507,53200,17944,63660,63660,2355,341,883,2316,-10,1088,1355,3376,13,104,818,1069,1163,743,1122,1231,1212,1766,1575
240508,53364,18480,64128,64128,2162,689,793,2580,-46,620,1140,2729,9,109,821,1096,1184,748,1159,1176,1191,1756,1577
241509,53512,18952,64596,64596,2270,1089,798,2826,-39,1020,-25,2608,14,99,822,1096,1184,748,1159,1176,1191,1756,1577
242510,53672,19556,65064,65064,2203,261,891,2914,-100,1006,573,2575,18,82,825,1096,1184,748,1159,1176,1191,1756,1577
243511,53852,20100,65536,65536,2085,634,960,3009,-226,1256,1,2076,29,110,819,1096,1184,748,1159,1176,1191,1756,1577
244512,54036,20636,66004,66004,2067,682,1047,3094,-291,1608,176,1816,22,112,825,1096,1184,748,1159,1176,1191,1756,1577
245513,54180,21188,66472,66472,2325,580,1181,3136,-364,1513,-680,2594,30,101,826,1096,1184,748,1159,1176,1191,1756,1577
246514,54352,21636,66940,66940,2157,1231,1286,3092,-503,721,551,2340,31,90,825,1130,1215,771,1191,1310,1325,1978,1741
247515,54500,22192,67408,67408,2315,553,1447,3203,-648,1166,-879,3033,13,95,821,1130,1215,771,1191,1310,1325,1978,1741
248516,54676,22736,67876,67876,2147,627,1650,3074,-715,1468,-972,1805,29,100,818,1130,1215,771,1191,1310,1325,1978,1741
249517,54852,23280,68344,68344,2154,625,1731,3094,-762,800,115,2654,23,105,822,1130,1215,771,1191,1310,1325,1978,1741
250518,55032,23776,68812,68812,2136,924,1699,3070,-866,933,343,2607,32,101,824,1130,1215,771,1191,1310,1325,1978,1741
251519,55212,24268,69280,69280,2143,948,1502,3122,-938,135,378,2644,24,94,825,1129,1231,780,1182,1340,1321,1993,1773
252520,55416,24796,69748,69748,1999,722,1257,3300,-911,864,-707,4424,23,87,824,1129,1231,780,1182,1340,1321,1993,1773
253521,55664,25240,70216,70216,1730,1248,1010,3556,-769,1318,-1173,4489,29,88,824,1129,1231,780,1182,1340,1321,1993,1773
254522,55872,25708,70684,70684,1986,1098,905,3429,-635,1109,-576,4191,31,88,828,1129,1231,780,1182,1340,1321,1993,1773
255523,56092,26152,71152,71152,1917,1248,778,3434,-522,767,-1459,5098,41,92,827,1129,1231,780,1182,1340,1321,1993,1773
256524,56320,26588,71620,71620,1873,1299,738,3343,-537,1323,218,5242,49,80,824,1129,1231,780,1182,1340,1321,1993,1773
257525,56548,27036,72088,72088,1879,1224,585,3243,-545,1651,-1276,5173,39,76,823,1089,1204,750,1110,1366,1336,2062,1876
258526,56808,27484,72556,72556,1684,1225,473,3134,-596,1552,676,6136,36,84,822,1089,1204,750,1110,1366,1336,2062,1876
259527,57032,27904,73024,73024,1915,1401,330,3129,-730,1018,46,5764,37,78,824,1089,1204,750,1110,1366,1336,2062,1876
260528,57248,28328,73492,73492,1971,1377,403,3010,-885,339,-601,4501,44,87,828,1089,1204,750,1110,1366,1336,2062,1876
261529,57488,28724,73960,73960,1827,1554,513,2793,-979,85,-513,5294,34,81,822,1089,1204,750,1110,1366,1336,2062,1876
262530,57724,29108,74428,74428,1857,1631,581,2487,-1054,-1208,425,4940,45,69,821,1059,1197,756,1109,1490,1436,2236,2000
263531,58000,29460,74896,74896,1612,1834,579,2023,-1118,-345,453,4277,40,70,821,1059,1197,756,1109,1490,1436,2236,2000
264532,58284,29872,75364,75364,1566,1460,379,1586,-1109,386,-44,3915,49,63,819,1059,1197,756,1109,1490,1436,2236,2000
265533,58568,30292,75832,75832,1571,1411,127,1176,-1050,230,-109,3865,58,70,821,1059,1197,756,1109,1490,1436,2236,2000
266534,58860,30640,76300,76300,1525,1864,-119,844,-1014,1714,-167,2880,62,76,826,1059,1197,756,1109,1490,1436,2236,2000
267535,59164,31008,76768,76768,1454,1742,-289,508,-869,1749,-692,3164,67,72,826,1059,1197,756,1109,1490,1436,2236,2000
268536,59528,31416,77236,77236,1082,1493,-482,363,-722,1637,153,4144,61,64,822,1142,1297,799,1168,1429,1373,2133,1966
269537,59856,31796,77704,77704,1310,1670,-628,335,-729,2675,-57,4175,72,81,824,1142,1297,799,1168,1429,1373,2133,1966
270538,60168,32204,78172,78172,1414,1497,-604,282,-707,2369,-373,4347,60,68,832,1142,1297,799,1168,1429,1373,2133,1966
271539,60496,32584,78640,78640,1317,1674,-457,231,-631,1439,1061,4532,72,74,826,1142,1297,799,1168,1429,1373,2133,1966
272540,60816,32944,79108,79108,1371,1802,-349,342,-554,1361,-295,6009,65,78,828,1142,1297,799,1168,1429,1373,2133,1966
273541,61152,33336,79576,79576,1274,1603,-143,70,-547,1561,1325,5128,67,75,826,1151,1316,789,1129,1356,1275,1984,1840
274542,61460,33764,80044,80044,1453,1379,6,-79,-555,1303,632,6812,64,77,823,1151,1316,789,1129,1356,1275,1984,1840
275543,61752,34148,80512,80512,1558,1656,149,-240,-525,-385,1107,5696,57,77,826,1151,1316,789,1129,1356,1275,1984,1840
276544,62056,34528,80980,80980,1487,1684,237,-457,-432,-1450,1797,5286,66,77,829,1151,1316,789,1129,1356,1275,1984,1840
277545,62404,34920,81448,81448,1214,1610,240,-1046,-386,-1035,1361,3888,52,75,824,1151,1316,789,1129,1356,1275,1984,1840
278546,62776,35324,81920,81920,1067,1537,59,-1679,-314,-731,2777,3850,69,69,825,1151,1316,789,1129,1356,1275,1984,1840
279547,63116,35708,82388,82388,1270,1664,-150,-2272,-185,-692,1816,3003,59,66,829,1167,1325,784,1161,1241,1189,1857,1709
280548,63464,36076,82856,82856,1223,1767,-297,-2827,-98,-1403,2116,2328,69,64,832,1167,1325,784,1161,1241,1189,1857,1709
281549,63824,36464,83324,83324,1151,1644,-416,-3260,-51,-1106,2221,2737,73,71,828,1167,1325,784,1161,1241,1189,1857,1709
282550,64188,36844,83792,83792,1128,1696,-428,-3414,0,54,2267,3246,78,71,827,1167,1325,784,1161,1241,1189,1857,1709
283551,64572,37240,84260,84260,1005,1597,-320,-3369,74,1330,825,3651,63,69,828,1167,1325,784,1161,1241,1189,1857,1709
284552,64940,37604,84728,84728,1108,1800,-56,-3229,116,1328,1738,4042,71,78,830,1192,1341,788,1139,1299,1251,1960,1851
285553,65296,37956,85196,85196,1185,1878,288,-2918,244,1352,566,4648,69,66,831,1192,1341,788,1139,1299,1251,1960,1851
286554,65668,38348,85664,85664,1088,1630,646,-2709,397,1252,-453,4457,74,65,828,1192,1341,788,1139,1299,1251,1960,1851
287555,66024,38752,86132,86132,1190,1556,966,-2562,573,157,824,4989,86,68,825,1192,1341,788,1139,1299,1251,1960,1851
288556,66416,39132,86600,86600,967,1708,1206,-2540,771,365,-865,4450,68,63,830,1192,1341,788,1139,1299,1251,1960,1851
289557,66828,39520,87068,87068,844,1660,1393,-2718,922,829,1670,4220,85,75,829,1192,1341,788,1139,1299,1251,1960,1851
290558,67216,39900,87536,87536,996,1712,1502,-2983,1023,82,334,3095,83,61,831,1129,1276,778,1128,1304,1250,1892,1720
291559,67632,40292,88004,88004,822,1639,1391,-3129,1077,-1421,1923,3574,75,66,831,1129,1276,778,1128,1304,1250,1892,1720
292560,67988,40664,88472,88472,1200,1767,1117,-3438,1131,-1271,3980,2418,75,71,828,1129,1276,778,1128,1304,1250,1892,1720
293561,68352,41044,88940,88940,1152,1719,867,-3564,1107,-250,2911,2933,74,60,833,1129,1276,778,1128,1304,1250,1892,1720
294562,68796,41456,89408,89408,653,1520,667,-3595,1133,-1519,2593,2586,82,73,827,1129,1276,778,1128,1304,1250,1892,1720
295563,69200,41872,89876,89876,904,1496,549,-3379,1211,-1905,2755,3569,88,65,829,1174,1292,779,1167,1234,1203,1835,1677
296564,69588,42388,90344,90344,1006,870,469,-3036,1369,-1050,543,2425,82,64,836,1174,1292,779,1167,1234,1203,1835,1677
297565,69968,42852,90812,90812,1058,1195,532,-2615,1338,813,1315,4435,89,73,834,1174,1292,779,1167,1234,1203,1835,1677
298566,70380,43344,91280,91280,860,1020,612,-2188,1279,1676,944,3039,81,79,840,1174,1292,779,1167,1234,1203,1835,1677
299567,70832,43844,91748,91748,610,969,609,-1715,1317,2514,-1266,3482,88,82,837,1174,1292,779,1167,1234,1203,1835,1677
300568,71216,44392,92216,92216,1037,667,620,-1459,1369,1243,-1504,2604,88,85,841,1174,1292,779,1167,1234,1203,1835,1677
301569,71644,44876,92684,92684,763,1067,630,-1286,1281,681,-1031,2284,86,98,843,1092,1189,752,1101,1356,1327,1970,1772
302570,72064,45376,93152,93152,814,966,690,-1124,1121,839,-1664,2043,92,98,843,1092,1189,752,1101,1356,1327,1970,1772
303571,72488,45976,93620,93620,790,338,699,-1100,1130,165,-1919,1803,83,86,840,1092,1189,752,1101,1356,1327,1970,1772
304572,72932,46592,94088,94088,666,234,659,-1018,1257,-871,-1659,2248,96,96,842,1092,1189,752,1101,1356,1327,1970,1772
305573,73360,47224,94556,94556,767,130,762,-973,1366,-574,847,2926,81,96,847,1092,1189,752,1101,1356,1327,1970,1772
306574,73764,47736,95024,95024,919,879,685,-741,1549,-13,250,3037,99,109,850,1016,1093,721,1090,1374,1359,1968,1708
307575,74172,48264,95492,95492,895,778,527,-249,1685,-564,1009,3459,97,90,849,1016,1093,721,1090,1374,1359,1968,1708
308576,74560,48800,95960,95960,1022,726,332,-59,1763,-2702,1290,1858,80,101,841,1016,1093,721,1090,1374,1359,1968,1708
309577,75008,49356,96428,96428,647,599,207,-39,1890,-3636,184,2135,79,109,842,1016,1093,721,1090,1374,1359,1968,1708
310578,75444,49932,96896,96896,723,471,13,158,2007,-2393,1149,3581,98,110,842,1016,1093,721,1090,1374,1359,1968,1708
311579,75836,50436,97364,97364,1000,920,-203,446,2053,-927,1030,3064,99,118,847,1016,1093,721,1090,1374,1359,1968,1708
312580,76280,50940,97832,97832,676,919,-355,678,2022,-28,906,3614,94,118,847,1032,1105,729,1140,1312,1316,1910,1649
313581,76680,51568,98304,98304,952,141,-461,1049,1999,-169,-26,2839,79,108,841,1032,1105,729,1140,1312,1316,1910,1649
314582,77124,52112,98772,98772,678,664,-458,1441,1954,154,-163,2037,90,115,844,1032,1105,729,1140,1312,1316,1910,1649
315583,77524,52672,99240,99240,955,561,-421,1950,1869,814,-280,1951,97,106,846,1032,1105,729,1140,1312,1316,1910,1649
316584,77892,53160,99708,99708,1157,1011,-297,2489,1703,1870,773,2504,83,110,847,1032,1105,729,1140,1312,1316,1910,1649
317585,78296,53724,100176,100176,934,534,-127,2750,1540,1272,161,2494,82,98,845,1103,1171,770,1188,1326,1327,1911,1656
318586,78708,54264,100644,100644,885,682,-83,3052,1439,768,-793,2811,78,100,838,1103,1171,770,1188,1326,1327,1911,1656
319587,79144,54812,101112,101112,736,630,10,3341,1416,431,-938,2658,78,109,845,1103,1171,770,1188,1326,1327,1911,1656
320588,79536,55308,101580,101580,1013,954,28,3715,1376,163,43,1839,90,107,844,1103,1171,770,1188,1326,1327,1911,1656
321589,79904,55844,102048,102048,1165,703,108,3945,1290,-413,547,1899,89,99,846,1103,1171,770,1188,1326,1327,1911,1656
322590,80264,56432,102516,102516,1218,375,-8,4268,1243,-436,680,1987,72,105,841,1103,1171,770,1188,1326,1327,1911,1656
323591,80648,56944,102984,102984,1070,849,-40,4414,1279,-81,1142,1095,67,111,841,1151,1209,783,1219,1243,1260,1805,1580
324592,81056,57452,103452,103452,921,873,-178,4615,1386,209,1374,1796,69,104,843,1151,1209,783,1219,1243,1260,1805,1580
325593,81432,57956,103920,103920,1124,897,-280,4931,1540,279,501,1908,69,101,839,1151,1209,783,1219,1243,1260,1805,1580
326594,81788,58480,104388,104388,1251,770,-361,5184,1651,145,1326,1985,89,118,841,1151,1209,783,1219,1243,1260,1805,1580
327595,82180,58968,104856,104856,1028,995,-412,5521,1608,1255,-285,2037,75,114,841,1151,1209,783,1219,1243,1260,1805,1580
328596,82588,59460,105324,105324,930,969,-400,5997,1483,-44,1057,2425,85,100,839,1112,1168,749,1156,1227,1250,1811,1605
329597,83000,59900,105792,105792,906,1295,-297,6045,1531,-1910,1032,1833,75,100,840,1112,1168,749,1156,1227,1250,1811,1605
330598,83368,60364,106260,106260,1183,1145,-383,6228,1548,-551,424,3639,85,100,842,1112,1168,749,1156,1227,1250,1811,1605
331599,83744,60792,106728,106728,1136,1371,-507,6394,1350,-524,2011,2843,78,100,838,1112,1168,749,1156,1227,1250,1811,1605
332600,84124,61164,107196,107196,1113,1723,-598,6500,1141,-1504,-425,2904,73,86,837,1112,1168,749,1156,1227,1250,1811,1605
333601,84528,61544,107664,107664,964,1675,-716,6103,1014,-2140,662,2301,76,86,835,1112,1168,749,1156,1227,1250,1811,1605
334602,84964,61904,108132,108132,765,1803,-922,5714,799,-1876,593,4173,72,80,832,1019,1083,718,1097,1356,1379,2000,1766
335603,85336,62284,108600,108600,1167,1680,-1149,5150,701,-2608,405,3075,84,76,833,1019,1083,718,1097,1356,1379,2000,1766
336604,85704,62632,109068,109068,1195,1883,-1333,4635,680,-847,371,4595,78,80,832,1019,1083,718,1097,1356,1379,2000,1766
337605,86104,62944,109536,109536,997,2112,-1402,4052,536,-387,-256,3843,79,68,831,1019,1083,718,1097,1356,1379,2000,1766
338606,86536,63240,110004,110004,797,2216,-1320,3140,356,-2596,-1793,3900,76,56,827,1019,1083,718,1097,1356,1379,2000,1766
339607,86992,63512,110472,110472,648,2371,-1557,3097,117,-2011,-563,5420,78,52,826,1015,1101,744,1103,1542,1536,2276,2060
340608,87432,63752,110940,110940,748,2577,-1533,3002,-171,843,-3742,3235,86,39,826,1015,1101,744,1103,1542,1536,2276,2060
341609,87916,63936,111408,111408,473,2933,-1479,2914,-178,-626,-1365,5949,95,15,823,1015,1101,744,1103,1542,1536,2276,2060
342611,88364,64096,111876,111876,699,3091,-1275,2422,-286,2613,-1081,4509,97,-17,810,1015,1101,744,1103,1542,1536,2276,2060
343611,88828,64268,112344,112344,599,3023,-1169,1554,-308,-250,-2287,5489,95,-49,807,1015,1101,744,1103,1542,1536,2276,2060
344612,89288,64472,112812,112812,624,2830,-1315,752,-485,-939,745,6928,97,-35,809,1015,1101,744,1103,1542,1536,2276,2060
345613,89748,64628,113280,113280,624,3137,-1553,25,-698,-833,398,5388,101,-27,812,1124,1288,807,1171,1467,1404,2213,2115
346614,90232,64760,113748,113748,474,3295,-1943,-338,-878,31,1060,5949,93,-78,801,1124,1288,807,1171,1467,1404,2213,2115
347615,90712,64892,114216,114216,498,3304,-2211,-612,-932,193,1452,5087,93,-154,802,1124,1288,807,1171,1467,1404,2213,2115
348616,91196,65036,114688,114688,473,3237,-2503,-840,-975,1773,1142,4447,92,-166,800,1124,1288,807,1171,1467,1404,2213,2115
349617,91788,65144,115156,115156,-205,3470,-2753,-1366,-974,1075,1622,4898,102,-101,801,1124,1288,807,1171,1467,1404,2213,2115
350618,92316,65224,115624,115624,194,3655,-3017,-1962,-1023,912,1548,5446,97,-251,795,1320,1592,851,1223,1346,1281,2169,2169
351619,92812,65316,116092,116092,393,3589,-3138,-2549,-1122,653,1925,4712,106,-147,790,1320,1592,851,1223,1346,1281,2169,2169
352620,93292,65408,116560,116560,493,3598,-3126,-3026,-1277,9,2103,6760,101,-244,791,1320,1592,851,1223,1346,1281,2169,2169
353621,93736,65504,117028,117028,718,3582,-3004,-3676,-1382,-1467,301,4756,94,-214,790,1320,1592,851,1223,1346,1281,2169,2169
354622,94288,65580,117496,117496,41,3717,-2795,-4227,-1405,-1896,-655,6652,114,-249,789,1320,1592,851,1223,1346,1281,2169,2169
355623,94780,65660,117964,117964,416,3701,-2523,-4619,-1440,-943,-1537,6391,112,-30,785,1320,1592,851,1223,1346,1281,2169,2169
356624,95276,65712,118432,118432,390,3800,-2112,-4958,-1481,-1343,-1749,5865,108,-36,785,1233,1486,808,1124,1419,1328,2170,2082
357625,95828,65804,118900,118900,38,3646,-1674,-5220,-1614,-1183,-1223,6645,112,261,781,1233,1486,808,1124,1419,1328,2170,2082
358626,96376,65868,119368,119368,61,3800,-1280,-5751,-1806,-1507,-431,5554,107,-160,786,1233,1486,808,1124,1419,1328,2170,2082
359627,96892,65928,119836,119836,260,3800,-1101,-6397,-1904,-1398,247,5663,117,254,780,1233,1486,808,1124,1419,1328,2170,2082
360628,97376,66024,120304,120304,459,3650,-1045,-7072,-1894,-1455,935,5508,108,239,784,1233,1486,808,1124,1419,1328,2170,2082
361629,97896,66176,120772,120772,233,3307,-1000,-7746,-1888,-2332,1210,3712,92,-165,789,1164,1333,791,1173,1257,1233,1825,1637
362630,98360,66344,121240,121240,583,3215,-898,-8200,-1918,-2552,1095,4275,99,-136,794,1164,1333,791,1173,1257,1233,1825,1637
363631,98848,66508,121708,121708,433,3247,-851,-8575,-1844,-2646,615,3555,112,-112,803,1164,1333,791,1173,1257,1233,1825,1637
364632,99388,66704,122176,122176,106,3054,-843,-8814,-1735,-2277,1348,4203,101,-126,803,1164,1333,791,1173,1257,1233,1825,1637
365633,99868,66916,122644,122644,481,2960,-806,-8881,-1625,-1649,534,3246,90,-57,809,1164,1333,791,1173,1257,1233,1825,1637
366634,100372,67168,123112,123112,330,2715,-661,-9224,-1289,-2153,1258,2577,88,-43,805,1164,1333,791,1173,1257,1233,1825,1637
367635,100820,67412,123580,123580,680,2771,-603,-9459,-1039,-1938,1752,3876,98,1,815,1261,1339,817,1290,1112,1157,1664,1487
368636,101328,67684,124048,124048,304,2601,-661,-9826,-840,-2364,1726,3586,100,-16,812,1261,1339,817,1290,1112,1157,1664,1487
369637,101860,67952,124516,124516,153,2630,-589,-10393,-655,-1901,1554,1491,89,14,818,1261,1339,817,1290,1112,1157,1664,1487
370638,102288,68280,124984,124984,804,2259,-469,-10847,-604,-1193,419,1288,91,3,818,1261,1339,817,1290,1112,1157,1664,1487
371639,102732,68632,125452,125452,704,2112,-229,-10846,-625,-2172,1184,2790,96,43,822,1261,1339,817,1290,1112,1157,1664,1487
372640,103192,69020,125920,125920,604,1889,-14,-10632,-906,405,-734,1888,90,43,826,1224,1279,797,1202,1232,1233,1819,1643
373641,103624,69408,126388,126388,780,1891,281,-10437,-1005,-1332,1354,2926,98,61,830,1224,1279,797,1202,1232,1233,1819,1643
374642,104216,69840,126856,126856,-223,1616,550,-10401,-919,-1896,-866,1447,101,50,828,1224,1279,797,1202,1232,1233,1819,1643
375643,104672,70320,127324,127324,628,1316,688,-10386,-1054,-996,97,500,105,62,834,1224,1279,797,1202,1232,1233,1819,1643
376644,105144,70756,127792,127792,527,1592,850,-10813,-1200,-411,2145,-976,111,59,836,1224,1279,797,1202,1232,1233,1819,1643
377645,105624,71184,128260,128260,477,1643,807,-10790,-1189,1689,-675,1590,96,67,835,1224,1279,797,1202,1232,1233,1819,1643
378646,106084,71640,128728,128728,602,1468,504,-10163,-884,4573,-802,1240,103,65,836,1075,1168,737,1067,1313,1259,1878,1718
379647,106612,72204,129196,129196,176,791,-55,-9064,-465,6785,-757,3911,110,79,837,1075,1168,737,1067,1313,1259,1878,1718
380648,107052,72676,129664,129664,727,1366,-682,-7546,-83,7359,-67,9563,99,81,846,1075,1168,737,1067,1313,1259,1878,1718
381649,107492,73224,130132,130132,727,889,-1588,-6551,133,6320,2613,5883,84,80,838,1075,1168,737,1067,1313,1259,1878,1718
382650,107940,73780,130600,130600,678,837,-2297,-6754,386,1823,149,3512,90,84,843,1075,1168,737,1067,1313,1259,1878,1718
383651,108348,74464,131072,131072,929,32,-2463,-6629,437,1638,-428,7099,77,87,844,966,1060,679,978,1447,1419,2145,1930
384652,108752,75140,131540,131540,956,76,-2336,-6168,425,2590,-1678,5691,77,96,847,966,1060,679,978,1447,1419,2145,1930
385653,109120,75704,132008,132008,1183,774,-2177,-5100,842,-1908,-3589,9519,77,92,846,966,1060,679,978,1447,1419,2145,1930
386654,109460,76308,132476,132476,1361,521,-1900,-4692,1295,-3096,-5672,4338,80,100,839,966,1060,679,978,1447,1419,2145,1930
387655,109804,76952,132944,132944,1339,266,-1613,-5111,1391,-3905,-2503,4745,78,102,839,966,1060,679,978,1447,1419,2145,1930
388656,110152,77648,133412,133412,1317,-64,-1587,-5617,1303,-4772,-3771,3271,65,101,841,966,1060,679,978,1447,1419,2145,1930
389657,110496,78264,133880,133880,1345,432,-1829,-5533,1213,-4280,-1572,4095,75,101,841,908,976,716,1125,1797,1834,2495,1938
390658,110772,78912,134348,134348,1775,228,-2148,-4961,1155,-1321,-2053,4392,58,101,840,908,976,716,1125,1797,1834,2495,1938
391659,111048,79456,134816,134816,1780,876,-2516,-4289,1116,862,-801,4984,49,95,834,908,976,716,1125,1797,1834,2495,1938
392660,111284,80072,135284,135284,2035,422,-2939,-3533,1127,1072,-1605,6700,41,91,828,908,976,716,1125,1797,1834,2495,1938
393661,111500,80668,135752,135752,2167,544,-3324,-2610,1069,1826,-1883,7661,36,91,826,908,976,716,1125,1797,1834,2495,1938
394662,111724,81192,136220,136220,2123,993,-3637,-1660,1055,2236,-2023,7979,41,87,824,1166,1192,848,1438,1516,1602,2224,1708
395663,111896,81792,136688,136688,2455,515,-3882,-950,1146,3344,-2441,7203,17,102,821,1166,1192,848,1438,1516,1602,2224,1708
396664,112068,82428,137156,137156,2462,286,-4181,-341,1230,3621,-2018,7991,20,105,818,1166,1192,848,1438,1516,1602,2224,1708
397665,112232,82948,137624,137624,2519,1009,-4452,302,1246,2902,-1831,6593,2,97,818,1166,1192,848,1438,1516,1602,2224,1708
398666,112388,83548,138092,138092,2577,506,-4524,810,1191,2275,-1675,5969,1,89,815,1166,1192,848,1438,1516,1602,2224,1708
399667,112560,84060,138560,138560,2484,1055,-4427,1359,1101,1864,-1894,5893,6,101,817,1166,1192,848,1438,1516,1602,2224,1708
400668,112716,84600,139028,139028,2592,878,-4196,1903,1033,1325,-1768,5853,4,96,814,1312,1303,866,1432,1383,1426,2077,1702
401669,112832,85228,139496,139496,2850,324,-3855,2411,1039,829,-2598,6114,-6,92,813,1312,1303,866,1432,1383,1426,2077,1702
402670,112960,85828,139964,139964,2784,496,-3448,2845,1089,532,-1990,6505,-4,115,812,1312,1303,866,1432,1383,1426,2077,1702
403674,113080,86312,140432,140432,2842,1221,-3035,3176,1153,-46,-2417,5869,-36,104,810,1312,1303,866,1432,1383,1426,2077,1702
404672,113196,86872,140900,140900,2876,744,-2585,3513,1138,-456,-1359,5856,-19,110,805,1312,1303,866,1432,1383,1426,2077,1702
405673,113336,87472,141368,141368,2734,490,-2220,3747,1132,-384,-1208,5216,-34,104,808,1166,1240,772,1212,1209,1189,1779,1570
406674,113468,88020,141836,141836,2792,813,-2000,4070,1180,1298,-842,5983,-40,116,812,1166,1240,772,1212,1209,1189,1779,1570
407675,113620,88532,142304,142304,2675,1037,-1849,4460,1277,2835,-295,5919,-11,116,809,1166,1240,772,1212,1209,1189,1779,1570
408676,113768,89148,142772,142772,2708,384,-1737,5081,1364,2917,-109,6169,-15,111,809,1166,1240,772,1212,1209,1189,1779,1570
409677,113896,89712,143240,143240,2841,706,-1663,5734,1351,3195,694,6568,-12,114,812,1166,1240,772,1212,1209,1189,1779,1570
410678,114048,90272,143708,143708,2699,729,-1628,6194,1297,3605,1008,5545,-22,109,806,1166,1240,772,1212,1209,1189,1779,1570
411679,114172,90828,144176,144176,2882,752,-1588,6531,1287,3719,306,5263,-32,103,810,1170,1290,753,1203,1042,1059,1624,1476
412680,114292,91372,144644,144644,2916,825,-1553,6759,1219,3911,361,4323,-19,102,807,1170,1290,753,1203,1042,1059,1624,1476
413681,114440,91932,145112,145112,2748,723,-1470,6946,1036,3501,-72,3806,-34,114,808,1170,1290,753,1203,1042,1059,1624,1476
414682,114604,92512,145580,145580,2656,595,-1259,7119,774,3196,-253,2956,-41,115,812,1170,1290,753,1203,1042,1059,1624,1476
415683,114776,93072,146048,146048,2613,718,-961,7114,540,2532,-831,2085,-23,109,815,1170,1290,753,1203,1042,1059,1624,1476
416684,114956,93608,146516,146516,2570,866,-569,7152,286,2239,-1216,2444,-12,114,815,1271,1362,817,1331,1195,1258,1896,1624
417685,115132,94128,146984,146984,2602,965,-192,7208,5,2342,-1833,1824,2,103,813,1271,1362,817,1331,1195,1258,1896,1624
418686,115336,94708,147456,147456,2434,587,307,7107,-225,1972,-1834,1744,13,98,813,1271,1362,817,1331,1195,1258,1896,1624
419687,115536,95236,147924,147924,2465,911,758,7058,-386,1586,-2370,1898,14,103,818,1271,1362,817,1331,1195,1258,1896,1624
420688,115708,95764,148392,148392,2647,909,1199,6837,-461,570,-2137,1853,19,106,816,1271,1362,817,1331,1195,1258,1896,1624
421689,115876,96260,148860,148860,2680,1109,1555,6672,-589,539,-1691,2374,5,104,812,1271,1362,817,1331,1195,1258,1896,1624
422690,116052,96812,149328,149328,2637,757,1913,6218,-657,-714,-1285,1470,-4,105,809,1246,1285,830,1344,1275,1327,1883,1581
423691,116244,97396,149796,149796,2544,554,2239,5902,-738,-689,-59,3309,-3,121,813,1246,1285,830,1344,1275,1327,1883,1581
424692,116436,97932,150264,150264,2550,852,2512,5532,-776,-662,-14,2718,1,122,813,1246,1285,830,1344,1275,1327,1883,1581
425693,116664,98460,150732,150732,2331,901,2676,5354,-845,296,1458,4114,17,104,815,1246,1285,830,1344,1275,1327,1883,1581
426694,116836,99016,151200,151200,2688,724,2770,5162,-938,840,1601,4182,13,116,818,1246,1285,830,1344,1275,1327,1883,1581
427695,117032,99608,151668,151668,2545,495,2896,4865,-986,436,1173,3371,20,113,813,1167,1230,765,1209,1088,1094,1610,1490
428696,117188,100168,152136,152136,2803,693,2988,4687,-1072,1198,1669,5164,-7,110,817,1167,1230,765,1209,1088,1094,1610,1490
429697,117384,100692,152604,152604,2559,917,3125,4654,-1178,1888,2116,4724,10,102,811,1167,1230,765,1209,1088,1094,1610,1490
430698,117600,101208,153072,153072,2441,966,3181,4751,-1298,3354,1522,5263,-13,109,814,1167,1230,765,1209,1088,1094,1610,1490
431699,117796,101756,153540,153540,2572,764,3281,4822,-1417,4481,1562,4726,11,111,815,1167,1230,765,1209,1088,1094,1610,1490
432700,118000,102368,154008,154008,2529,360,3441,5001,-1655,6803,1408,5292,14,114,815,1167,1230,765,1209,1088,1094,1610,1490
433701,118220,102864,154476,154476,2435,1085,3612,5771,-1563,2856,674,6259,10,105,818,1135,1294,744,1090,1115,1079,1731,1726
434702,118424,103412,154944,154944,2541,758,3922,6348,-1569,3427,-11,5428,14,110,815,1135,1294,744,1090,1115,1079,1731,1726
435703,118676,103952,155412,155412,2246,806,4320,6096,-1600,3188,-1518,3953,33,97,817,1135,1294,744,1090,1115,1079,1731,1726
436704,118908,104516,155880,155880,2377,654,4627,5695,-1564,2573,253,4712,20,91,822,1135,1294,744,1090,1115,1079,1731,1726
437705,119160,105080,156348,156348,2257,651,4816,5258,-1516,2496,261,2464,45,105,821,1135,1294,744,1090,1115,1079,1731,1726
438706,119400,105612,156816,156816,2338,850,5009,4915,-1486,2323,291,2303,42,109,822,1176,1384,805,1165,1347,1295,2113,1956
439707,119676,106096,157284,157284,2118,1149,5123,4705,-1653,3477,329,2094,50,97,819,1176,1384,805,1165,1347,1295,2113,1956
440708,119988,106652,157752,157752,1896,697,5178,4799,-1603,-746,1777,3646,41,97,820,1176,1384,805,1165,1347,1295,2113,1956
441709,120268,107148,158220,158220,2101,1071,5144,4882,-1421,-294,179,4145,53,90,827,1176,1384,805,1165,1347,1295,2113,1956
442710,120532,107696,158688,158688,2206,744,5190,4223,-1077,-1363,-1108,2661,55,101,822,1176,1384,805,1165,1347,1295,2113,1956
443711,120828,108168,159156,159156,2010,1219,5130,3369,-820,-948,1644,4354,44,89,824,1176,1384,805,1165,1347,1295,2113,1956
444712,121188,108696,159624,159624,1613,868,4974,2472,-737,283,3481,2769,60,85,822,1252,1400,839,1262,1409,1383,2140,1875
445713,121584,109280,160092,160092,1390,515,4697,2190,-592,-511,3197,4655,58,92,832,1252,1400,839,1262,1409,1383,2140,1875
446714,121972,109844,160560,160560,1442,638,4335,2294,-362,56,1775,4505,67,91,838,1252,1400,839,1262,1409,1383,2140,1875
447715,122364,110304,161028,161028,1418,1288,3937,2680,-165,1575,778,6232,71,87,837,1252,1400,839,1262,1409,1383,2140,1875
448716,122788,110836,161496,161496,1220,836,3743,2860,126,1382,96,4516,75,100,831,1252,1400,839,1262,1409,1383,2140,1875
449717,123236,111428,161964,161964,1070,458,3767,2727,487,580,-656,5959,98,95,839,1137,1231,763,1100,1432,1374,2054,1872
450718,123756,111948,162432,162432,619,907,3910,2558,636,665,147,6394,105,94,843,1137,1231,763,1100,1432,1374,2054,1872
451719,124220,112496,162900,162900,969,730,3932,2477,673,10,-650,6829,93,106,843,1137,1231,763,1100,1432,1374,2054,1872
452720,124740,113032,163368,163368,618,803,3939,2397,739,180,-489,6982,101,103,841,1137,1231,763,1100,1432,1374,2054,1872
453722,125244,113632,163840,163840,717,400,3877,2469,840,-43,-17,7114,104,106,845,1137,1231,763,1100,1432,1374,2054,1872
454722,125736,114172,164308,164308,791,774,3844,2468,919,-134,48,5576,104,100,847,972,1083,712,991,1512,1403,2100,1919
455723,126304,114696,164776,164776,314,872,3807,2370,939,-169,436,4949,101,94,843,972,1083,712,991,1512,1403,2100,1919
456724,126844,115244,165244,165244,487,720,3680,2142,1008,251,266,3436,102,104,845,972,1083,712,991,1512,1403,2100,1919
457725,127384,115720,165712,165712,485,1170,3494,1888,1118,752,436,2781,118,93,847,972,1083,712,991,1512,1403,2100,1919
458726,127920,116328,166180,166180,509,342,3268,1962,1235,506,1081,3562,107,107,843,972,1083,712,991,1512,1403,2100,1919
459727,128488,116812,166648,166648,306,1116,2966,2187,1376,465,860,3162,102,106,849,972,1083,712,991,1512,1403,2100,1919
460728,129064,117368,167116,167116,254,664,2684,2452,1608,557,1340,3389,110,108,844,1056,1199,768,1107,1440,1358,2097,1915
461729,129628,117896,167584,167584,326,838,2360,2642,1845,637,2414,2259,115,93,847,1056,1199,768,1107,1440,1358,2097,1915
462730,130152,118456,168052,168052,575,635,2054,2874,2055,1076,969,2083,103,105,846,1056,1199,768,1107,1440,1358,2097,1915
463731,130628,118952,168520,168520,875,1035,1714,3184,2227,1137,1604,235,115,96,846,1056,1199,768,1107,1440,1358,2097,1915
464732,131160,119500,168988,168988,523,708,1417,3470,2396,1197,803,128,97,104,841,1056,1199,768,1107,1440,1358,2097,1915
465733,131732,120016,169456,169456,270,907,1198,3736,2479,1761,-1067,-596,113,118,846,1160,1293,797,1170,1399,1360,2061,1845
466734,132264,120544,169924,169924,519,830,1081,3743,2500,1190,344,508,106,113,846,1160,1293,797,1170,1399,1360,2061,1845
467735,132760,121116,170392,170392,743,553,1104,3626,2666,-111,-1153,437,98,109,845,1160,1293,797,1170,1399,1360,2061,1845
468736,133304,121676,170860,170860,441,625,1118,3149,2857,-215,-16,1460,109,101,846,1160,1293,797,1170,1399,1360,2061,1845
469737,133772,122224,171328,171328,916,698,1147,2926,2952,-740,-131,2692,107,121,848,1160,1293,797,1170,1399,1360,2061,1845
470738,134308,122676,171796,171796,490,1299,1223,2583,2974,-1384,-234,1117,106,102,844,1160,1293,797,1170,1399,1360,2061,1845
471739,134772,123216,172264,172264,940,747,1222,2708,2797,251,530,3678,104,102,840,1022,1103,715,1038,1330,1284,1836,1641
472740,135284,123704,172732,172732,639,1071,1140,2659,2692,-1340,1168,387,103,98,844,1022,1103,715,1038,1330,1284,1836,1641
473741,135780,124140,173200,173200,738,1397,871,2548,2502,-1347,-113,2663,111,110,843,1022,1103,715,1038,1330,1284,1836,1641
474742,136256,124604,173668,173668,863,1222,601,2329,2260,-2661,1330,758,110,103,838,1022,1103,715,1038,1330,1284,1836,1641
475743,136784,125108,174136,174136,536,971,257,2004,2104,-1923,383,3021,106,92,839,1022,1103,715,1038,1330,1284,1836,1641
476744,137304,125540,174604,174604,585,1422,-35,1637,2089,-811,541,3357,118,105,844,952,1032,682,1004,1249,1239,1792,1670
477745,137736,125960,175072,175072,1136,1499,-373,1147,2134,-533,62,2689,118,110,839,952,1032,682,1004,1249,1239,1792,1670
478746,138268,126348,175540,175540,509,1700,-541,802,2115,-934,-689,2590,97,82,832,952,1032,682,1004,1249,1239,1792,1670
479747,138776,126752,176008,176008,658,1602,-644,412,2013,-1029,-1617,709,111,84,835,952,1032,682,1004,1249,1239,1792,1670
480748,139304,127172,176476,176476,532,1503,-547,278,1890,-46,-1968,264,122,76,837,952,1032,682,1004,1249,1239,1792,1670
481749,139788,127544,176944,176944,807,1806,-648,558,1759,1500,-2808,991,105,91,838,952,1032,682,1004,1249,1239,1792,1670
482750,140264,127884,177412,177412,856,2009,-770,756,1702,1430,-1000,762,108,79,831,1007,1125,736,1061,1410,1377,2097,2002
483751,140736,128236,177880,177880,881,1937,-997,790,1758,1763,-1866,610,100,77,828,1007,1125,736,1061,1410,1377,2097,2002
484752,141240,128600,178348,178348,680,1864,-1221,695,1763,661,-717,697,101,75,828,1007,1125,736,1061,1410,1377,2097,2002
485753,141776,128920,178816,178816,479,2143,-1509,570,1707,-680,1388,1048,111,61,832,1007,1125,736,1061,1410,1377,2097,2002
486754,142256,129232,179284,179284,829,2196,-1863,374,1638,-841,108,432,99,65,827,1007,1125,736,1061,1410,1377,2097,2002
487755,142720,129496,179752,179752,929,2501,-2225,344,1556,-1719,162,-103,87,43,824,1110,1279,780,1119,1468,1410,2232,2089
488756,143172,129776,180224,180224,1004,2406,-2611,384,1431,-2102,785,2504,91,48,818,1110,1279,780,1119,1468,1410,2232,2089
489757,143656,130020,180692,180692,804,2637,-2939,308,1328,-2057,643,895,108,18,814,1110,1279,780,1119,1468,1410,2232,2089
490758,144132,130272,181160,181160,854,2592,-3205,160,1157,-2478,776,2809,101,24,815,1110,1279,780,1119,1468,1410,2232,2089
491759,144680,130504,181628,181628,402,2723,-3427,-168,1046,-3511,471,2594,85,3,816,1110,1279,780,1119,1468,1410,2232,2089
492760,145152,130708,182096,182096,876,2904,-3634,-542,926,-2835,347,3594,84,12,814,1110,1279,780,1119,1468,1410,2232,2089
493761,145656,130932,182564,182564,676,2785,-3780,-874,787,-2843,1278,4210,95,-1,809,1048,1190,730,1035,1489,1424,2165,1985
494762,146120,131128,183032,183032,926,2967,-3944,-1049,650,-2779,44,3943,89,-32,813,1048,1190,730,1035,1489,1424,2165,1985
495763,146584,131296,183500,183500,926,3149,-3931,-1096,515,-2053,247,4017,89,-23,799,1048,1190,730,1035,1489,1424,2165,1985
496764,147168,131476,183968,183968,173,3081,-3986,-1153,437,-1685,-221,3768,87,-43,801,1048,1190,730,1035,1489,1424,2165,1985
497765,147632,131672,184436,184436,923,2988,-4119,-1124,303,-1673,-584,4968,110,-80,806,1048,1190,730,1035,1489,1424,2165,1985
498766,148152,131784,184904,184904,572,3521,-4143,-1219,208,-2848,-396,3593,102,-74,803,968,1078,710,1019,1408,1376,1959,1780
499767,148656,131908,185372,185372,671,3455,-4096,-1492,57,-1329,-294,3192,92,-69,793,968,1078,710,1019,1408,1376,1959,1780
500768,149208,132016,185840,185840,369,3564,-4117,-1606,-111,-106,-543,5203,98,-264,793,968,1078,710,1019,1408,1376,1959,1780
501769,149756,132128,186308,186308,392,3547,-4059,-1924,-55,-3417,-1317,3222,102,-244,794,968,1078,710,1019,1408,1376,1959,1780
502770,150332,132288,186776,186776,214,3255,-4050,-2245,-104,-3677,933,4276,106,-247,795,968,1078,710,1019,1408,1376,1959,1780
503771,150904,132448,187244,187244,237,3262,-3945,-3012,-208,-1355,93,866,94,-254,803,968,1078,710,1019,1408,1376,1959,1780
504772,151364,132560,187712,187712,937,3571,-3945,-3964,109,-2611,1646,2184,102,-120,804,1073,1166,773,1178,1257,1269,1825,1645
505773,151812,132716,188180,188180,1012,3304,-4283,-4241,260,-2575,2236,5725,115,-123,787,1073,1166,773,1178,1257,1269,1825,1645
506774,152348,132940,188648,188648,461,2885,-4625,-3983,19,-2140,1868,4518,121,-244,796,1073,1166,773,1178,1257,1269,1825,1645
507775,152900,133116,189116,189116,359,3192,-4548,-4081,-129,-1798,2274,937,110,-112,807,1073,1166,773,1178,1257,1269,1825,1645
508776,153440,133280,189584,189584,432,3274,-4303,-4284,-117,-2058,2081,2125,114,-45,803,1073,1166,773,1178,1257,1269,1825,1645
509777,153888,133428,190052,190052,1007,3382,-4252,-4284,-88,-1222,2866,4805,122,-80,801,1271,1399,836,1274,1238,1232,1936,1788
510778,154488,133624,190520,190520,54,3089,-4319,-4298,-94,-846,2036,4424,108,-108,793,1271,1399,836,1274,1238,1232,1936,1788
511779,155116,133872,190988,190988,-125,2769,-4174,-4567,-133,280,1560,1503,110,-149,806,1271,1399,836,1274,1238,1232,1936,1788
512780,155632,134128,191456,191456,574,2724,-3748,-5260,9,-1193,1246,610,106,-52,813,1271,1399,836,1274,1238,1232,1936,1788
513781,156136,134380,191924,191924,648,2754,-3377,-5538,174,-1302,971,4529,124,-1,811,1271,1399,836,1274,1238,1232,1936,1788
514782,156656,134660,192392,192392,547,2584,-3062,-5713,331,-270,675,4489,107,4,814,1271,1399,836,1274,1238,1232,1936,1788
515783,157200,134964,192860,192860,395,2438,-2662,-5730,391,501,252,5519,118,5,816,1251,1421,810,1173,1300,1235,1969,1829
516784,157808,135212,193328,193328,-8,2793,-2023,-6030,430,136,1402,2904,132,9,819,1251,1421,810,1173,1300,1235,1969,1829
517785,158448,135492,193796,193796,-213,2598,-1531,-6294,608,-433,1448,5713,115,24,814,1251,1421,810,1173,1300,1235,1969,1829
518786,159000,135772,194264,194264,335,2603,-1258,-6286,729,266,2384,6483,109,-18,816,1251,1421,810,1173,1300,1235,1969,1829
519787,159564,136068,194732,194732,258,2507,-1129,-6400,797,-47,3611,3885,110,11,817,1251,1421,810,1173,1300,1235,1969,1829
520788,160116,136332,195200,195200,331,2712,-933,-6713,788,107,2662,4338,121,-8,820,1189,1369,781,1152,1148,1104,1694,1566
521789,160784,136592,195668,195668,-399,2742,-723,-7181,881,-1831,1340,1809,118,15,816,1189,1369,781,1152,1148,1104,1694,1566
522790,161360,136884,196136,196136,174,2546,-594,-7403,961,-1241,2620,5284,111,-11,815,1189,1369,781,1152,1148,1104,1694,1566
523791,161892,137232,196608,196608,447,2199,-581,-7734,1081,-642,1558,3099,109,-10,819,1189,1369,781,1152,1148,1104,1694,1566
524792,162440,137576,197076,197076,345,2227,-512,-7789,1184,-369,2630,3879,122,21,824,1189,1369,781,1152,1148,1104,1694,1566
525793,163000,137968,197544,197544,268,1929,-293,-8068,1272,-4,3057,2234,110,29,825,1189,1369,781,1152,1148,1104,1694,1566
526794,163608,138412,198012,198012,-36,1605,-201,-7917,1405,-172,272,2613,113,45,828,1259,1382,806,1232,1104,1113,1669,1545
527795,164132,138868,198480,198480,488,1530,-157,-7452,1649,-1214,1384,1024,115,46,836,1259,1382,806,1232,1104,1113,1669,1545
528796,164644,139424,198948,198948,562,903,-87,-7243,1640,1412,536,-693,116,61,837,1259,1382,806,1232,1104,1113,1669,1545
529797,165192,139944,199416,199416,335,1126,-15,-7102,1713,-460,-952,-355,103,74,841,1259,1382,806,1232,1104,1113,1669,1545
530798,165708,140468,199884,199884,534,1100,39,-7199,1470,2690,247,-33,100,81,842,1259,1382,806,1232,1104,1113,1669,1545
531799,166312,140992,200352,200352,-19,1099,58,-7193,1474,404,-2277,-717,120,72,842,1193,1251,784,1171,1268,1285,1856,1654
532800,166780,141716,200820,200820,831,-158,233,-7480,1526,563,-932,-386,118,82,844,1193,1251,784,1171,1268,1285,1856,1654
533801,167340,142376,201288,201288,253,238,449,-7622,1363,431,-1081,-1507,103,96,847,1193,1251,784,1171,1268,1285,1856,1654
534802,167832,142964,201756,201756,678,685,703,-7555,1077,-255,146,150,111,92,851,1193,1251,784,1171,1268,1285,1856,1654
535803,168316,143376,202224,202224,727,1786,955,-7714,1018,-1612,-481,-1307,110,86,846,1193,1251,784,1171,1268,1285,1856,1654
536804,168896,143920,202692,202692,125,959,1179,-8059,1086,-1689,-448,661,106,93,833,1193,1251,784,1171,1268,1285,1856,1654
537805,169428,144548,203160,203160,423,430,1374,-8123,1018,-1673,-1507,1407,112,79,846,972,1028,683,1010,1303,1272,1792,1594
538806,169928,145148,203628,203628,622,602,1555,-8371,975,-3294,-1247,490,109,94,849,972,1028,683,1010,1303,1272,1792,1594
539807,170452,145748,204096,204096,471,599,1626,-8715,1058,-2416,838,1620,111,108,847,972,1028,683,1010,1303,1272,1792,1594
540808,170960,146300,204564,204564,570,897,1619,-8913,1250,-1055,985,412,105,110,847,972,1028,683,1010,1303,1272,1792,1594
541809,171556,146808,205032,205032,17,1171,1472,-9030,1384,-221,1661,1047,108,105,845,972,1028,683,1010,1303,1272,1792,1594
542810,172056,147424,205500,205500,616,492,1276,-8889,1445,258,617,1636,99,115,844,925,1018,666,1011,1142,1130,1645,1538
543811,172592,148000,205968,205968,389,740,953,-8031,1717,4359,-1754,3018,120,109,847,925,1018,666,1011,1142,1130,1645,1538
544812,173072,148608,206436,206436,739,536,332,-6756,2334,7970,-365,4651,102,99,847,925,1018,666,1011,1142,1130,1645,1538
545813,173604,149240,206904,206904,412,382,-617,-5575,2851,10296,340,7479,95,117,846,925,1018,666,1011,1142,1130,1645,1538
546814,174104,149840,207372,207372,612,579,-1774,-4577,2840,11153,1001,8439,101,105,847,925,1018,666,1011,1142,1130,1645,1538
547815,174528,150464,207840,207840,1088,425,-2653,-3243,2738,4398,617,9481,98,108,847,925,1018,666,1011,1142,1130,1645,1538
548816,174908,151068,208308,208308,1365,547,-2936,-2108,2610,2788,-1726,4815,81,116,844,1085,1200,754,1123,1424,1440,2281,2053
549817,175268,151676,208776,208776,1493,519,-2659,-1664,2277,4543,-483,4708,71,120,839,1085,1200,754,1123,1424,1440,2281,2053
550818,175636,152356,209244,209244,1445,63,-2270,-1481,2215,1091,-3133,5653,67,108,837,1085,1200,754,1123,1424,1440,2281,2053
551819,176000,152912,209712,209712,1473,836,-2052,-913,2183,-1609,-4642,7472,74,109,841,1085,1200,754,1123,1424,1440,2281,2053
552820,176296,153444,210180,210180,1902,985,-1704,-662,2025,-1984,-5931,4527,59,121,835,1085,1200,754,1123,1424,1440,2281,2053
553821,176564,153908,210648,210648,2082,1410,-1228,-693,2036,-3188,-5864,4615,63,105,827,1095,1163,841,1308,2287,2309,3120,2278
554822,176792,154544,211116,211116,2337,331,-909,-770,2129,-3845,-4342,6541,38,117,819,1095,1163,841,1308,2287,2309,3120,2278
555823,176984,155132,211584,211584,2569,628,-887,-528,2100,-2465,-2885,9392,42,104,823,1095,1163,841,1308,2287,2309,3120,2278
556824,177192,155740,212052,212052,2476,499,-1121,61,2182,-443,-1287,10496,21,128,816,1095,1163,841,1308,2287,2309,3120,2278
557825,177348,156308,212520,212520,2808,747,-1480,651,2450,1980,-755,10689,-3,117,817,1095,1163,841,1308,2287,2309,3120,2278
558826,177496,156944,212992,212992,2866,318,-1990,1337,2798,2707,517,11596,1,113,810,1095,1163,841,1308,2287,2309,3120,2278
559827,177640,157516,213460,213460,2899,715,-2589,1926,3099,2901,1583,11311,-15,123,811,1174,1178,854,1498,1570,1663,2260,1648
560828,177768,158000,213928,213928,3007,1265,-3278,2563,3261,3544,2272,11728,-23,121,807,1174,1178,854,1498,1570,1663,2260,1648
561829,177932,158604,214396,214396,2790,512,-3888,3119,3324,3991,2105,10910,-36,107,802,1174,1178,854,1498,1570,1663,2260,1648
562830,178064,159148,214864,214864,2998,885,-4310,3848,3329,4337,1110,11239,-61,111,812,1174,1178,854,1498,1570,1663,2260,1648
563831,178204,159736,215332,215332,2956,607,-4421,4496,3308,4468,132,9602,-29,109,803,1174,1178,854,1498,1570,1663,2260,1648
564832,178324,160256,215800,215800,3089,1031,-4228,5071,3239,4042,-1478,9596,-72,105,807,1265,1251,825,1417,1320,1385,2011,1655
565833,178436,160776,216268,216268,3148,1029,-3791,5507,3094,2981,-2518,8572,-50,115,802,1265,1251,825,1417,1320,1385,2011,1655
566834,178556,161328,216736,216736,3107,827,-3167,5677,2987,1288,-3629,7942,-94,114,801,1265,1251,825,1417,1320,1385,2011,1655
567835,178688,161876,217204,217204,3040,850,-2467,5694,2810,765,-4448,7283,-112,116,801,1265,1251,825,1417,1320,1385,2011,1655
568836,178824,162400,217672,217672,3023,999,-1739,5683,2588,868,-4111,6036,-79,113,803,1265,1251,825,1417,1320,1385,2011,1655
569837,178992,162908,218140,218140,2830,1098,-1056,5690,2433,754,-4166,5374,-53,111,803,1265,1251,825,1417,1320,1385,2011,1655
570838,179152,163392,218608,218608,2888,1248,-508,5851,2275,1260,-3192,5399,-50,110,806,1204,1303,823,1271,1260,1206,1836,1649
571839,179340,163880,219076,219076,2720,1222,-77,6039,2122,2577,-1552,5664,-21,94,804,1204,1303,823,1271,1260,1206,1836,1649
572840,179508,164416,219544,219544,2852,920,200,6404,2101,3674,-1040,6061,-33,110,807,1204,1303,823,1271,1260,1206,1836,1649
573841,179664,164924,220012,220012,2935,1094,338,6621,2185,4889,335,5468,-12,102,807,1204,1303,823,1271,1260,1206,1836,1649
574842,179832,165424,220480,220480,2867,1144,329,6694,2274,4200,1407,5961,-25,97,803,1204,1303,823,1271,1260,1206,1836,1649
575843,179980,165916,220948,220948,3000,1193,230,6686,2294,3636,2989,5876,-41,93,805,1360,1569,836,1296,977,961,1540,1505
576844,180196,166460,221416,221416,2581,866,71,6635,2267,4101,3182,6438,-21,98,803,1360,1569,836,1296,977,961,1540,1505
578846,180592,167464,222352,222352,2744,1215,-18,6351,2304,4825,3002,5762,6,96,811,1360,1569,836,1296,977,961,1540,1505
579847,180804,167944,222820,222820,2625,1264,227,6041,2283,3498,2864,5528,-4,85,806,1360,1569,836,1296,977,961,1540,1505
580851,181012,168436,223288,223288,2657,1189,733,5382,2150,2626,997,5261,3,91,807,1360,1569,836,1296,977,961,1540,1505
581849,181200,168920,223756,223756,2788,1238,1291,4778,1948,1979,483,6550,14,80,809,1366,1565,813,1235,1135,1145,1900,1852
582850,181420,169328,224224,224224,2595,1715,1929,4355,1816,1618,-275,6713,12,87,806,1366,1565,813,1235,1135,1145,1900,1852
583851,181632,169784,224692,224692,2651,1415,2630,3971,1662,1875,-1793,6004,-10,85,804,1366,1565,813,1235,1135,1145,1900,1852
584852,181848,170236,225160,225160,2632,1440,3344,3562,1502,1778,-611,5797,4,66,806,1366,1565,813,1235,1135,1145,1900,1852
585853,182060,170712,225628,225628,2663,1290,4020,3240,1404,2355,-1567,5073,7,89,807,1366,1565,813,1235,1135,1145,1900,1852
586854,182276,171164,226096,226096,2644,1441,4566,2858,1253,2310,-373,4319,1,75,808,1236,1437,830,1211,1373,1312,2096,1924
587855,182508,171608,226564,226564,2550,1491,4989,2627,983,1229,-250,4337,-5,73,808,1236,1437,830,1211,1373,1312,2096,1924
588856,182712,172056,227032,227032,2732,1467,5305,2423,826,607,68,3264,11,71,808,1236,1437,830,1211,1373,1312,2096,1924
589857,182928,172520,227500,227500,2663,1367,5451,2159,870,1371,497,3150,16,84,805,1236,1437,830,1211,1373,1312,2096,1924
590858,183156,172984,227968,227968,2594,1367,5449,1931,904,878,806,3503,9,77,807,1236,1437,830,1211,1373,1312,2096,1924
591859,183388,173448,228436,228436,2574,1367,5288,1731,905,246,2304,3676,19,89,809,1236,1437,830,1211,1373,1312,2096,1924
592860,183664,173928,228904,228904,2304,1267,5098,1654,838,1913,1802,4901,14,78,808,1334,1523,860,1286,1148,1107,1723,1605
593861,183904,174468,229376,229376,2535,890,4814,1937,938,33,3142,5756,33,85,815,1334,1523,860,1286,1148,1107,1723,1605
594862,184136,175040,229844,229844,2590,687,4662,2069,940,2883,1390,5974,30,88,816,1334,1523,860,1286,1148,1107,1723,1605
595863,184400,175536,230312,230312,2395,1162,4529,1828,930,1599,684,6172,19,95,815,1334,1523,860,1286,1148,1107,1723,1605
596864,184664,176028,230780,230780,2400,1186,4585,1332,850,647,1839,6780,29,96,817,1334,1523,860,1286,1148,1107,1723,1605
597865,184952,176548,231248,231248,2255,1010,4690,1030,849,108,263,7371,37,96,814,1222,1351,780,1137,1206,1188,1868,1785
598866,185232,177140,231716,231716,2309,557,4965,930,901,869,-694,7115,40,96,819,1222,1351,780,1137,1206,1188,1868,1785
599867,185508,177676,232184,232184,2339,905,5262,1084,876,2134,-356,6984,43,89,822,1222,1351,780,1137,1206,1188,1868,1785
600868,185788,178228,232652,232652,2319,803,5607,1288,715,2270,-143,6648,36,91,819,1222,1351,780,1137,1206,1188,1868,1785
601869,186076,178776,233120,233120,2273,826,5964,1474,455,2948,-25,4887,34,88,820,1222,1351,780,1137,1206,1188,1868,1785
602870,186416,179408,233588,233588,1951,297,6213,2195,475,2293,-480,6309,41,99,823,1222,1351,780,1137,1206,1188,1868,1785
603871,186732,179948,234056,234056,2105,870,6285,3311,582,2205,1137,5011,43,105,831,1045,1189,747,1074,1482,1416,2210,1981
604872,187068,180456,234524,234524,1983,1070,6265,4121,670,1937,-1672,3593,57,102,825,1045,1189,747,1074,1482,1416,2210,1981
605873,187452,180992,234992,234992,1685,893,6068,4243,675,1981,1299,1855,56,97,825,1045,1189,747,1074,1482,1416,2210,1981
606874,187844,181528,235460,235460,1637,891,5693,4045,788,398,1524,1577,61,110,831,1045,1189,747,1074,1482,1416,2210,1981
607875,188348,182136,235928,235928,936,438,5135,3946,891,-350,2201,-255,72,115,833,1045,1189,747,1074,1482,1416,2210,1981
608876,188812,182688,236396,236396,1186,786,4511,4006,985,-1357,570,845,84,110,844,1124,1235,794,1227,1440,1423,2105,1772
609877,189304,183296,236864,236864,1011,432,3959,3820,1072,-2530,141,-292,100,107,839,1124,1235,794,1227,1440,1423,2105,1772
610878,189816,183876,237332,237332,885,605,3384,3608,1223,-3921,-866,1348,93,120,844,1124,1235,794,1227,1440,1423,2105,1772
611879,190364,184452,237800,237800,658,627,3081,3229,1328,-3033,-675,2097,101,111,844,1124,1235,794,1227,1440,1423,2105,1772
612880,190968,184988,238268,238268,304,875,2944,3170,1440,-1514,-2186,2390,110,118,845,1124,1235,794,1227,1440,1423,2105,1772
613881,191528,185528,238736,238736,577,849,2963,3240,1503,-867,-2088,3306,122,113,846,1124,1235,794,1227,1440,1423,2105,1772
614882,192068,186060,239204,239204,700,897,3072,3554,1484,423,-2153,3159,116,112,843,1038,1086,734,1066,1487,1435,2019,1806
615883,192628,186656,239672,239672,573,494,3211,3841,1455,1549,-2793,2311,109,120,844,1038,1086,734,1066,1487,1435,2019,1806
616884,193124,187188,240140,240140,972,892,3430,4203,1393,1908,-2342,3144,119,113,847,1038,1086,734,1066,1487,1435,2019,1806
617885,193752,187716,240608,240608,143,916,3616,4433,1274,1323,-1561,3151,128,112,842,1038,1086,734,1066,1487,1435,2019,1806
618886,194332,188208,241076,241076,441,1140,3640,4719,1126,1594,-299,4602,114,120,846,1038,1086,734,1066,1487,1435,2019,1806
619887,194960,188736,241544,241544,137,914,3543,4876,1082,1651,377,4043,120,104,843,902,986,673,948,1325,1249,1777,1643
620888,195516,189304,242012,242012,585,661,3350,5146,1111,2172,1592,3253,127,116,847,902,986,673,948,1325,1249,1777,1643
621889,196084,189816,242480,242480,507,1010,3140,5312,1226,2615,515,1323,116,107,846,902,986,673,948,1325,1249,1777,1643
622890,196724,190312,242948,242948,53,1110,2693,5576,1266,2308,1270,878,121,106,844,902,986,673,948,1325,1249,1777,1643
623891,197264,190812,243416,243416,676,1084,2246,5585,1301,-454,2845,281,124,112,845,902,986,673,948,1325,1249,1777,1643
624892,197808,191312,243884,243884,649,1083,1738,5495,1220,-645,1453,-92,111,118,842,902,986,673,948,1325,1249,1777,1643
625893,198392,191776,244352,244352,397,1308,1283,5510,1146,-463,2195,531,116,103,842,1032,1161,729,1097,1187,1173,1802,1691
626894,198928,192188,244820,244820,695,1634,934,5511,1133,-866,1204,-404,117,94,841,1032,1161,729,1097,1187,1173,1802,1691
627895,199480,192624,245288,245288,593,1485,626,5203,1107,-2078,1251,-645,115,100,835,1032,1161,729,1097,1187,1173,1802,1691
628898,200012,193032,245760,245760,716,1662,356,4573,1094,-2712,-288,-1392,109,108,838,1032,1161,729,1097,1187,1173,1802,1691
629897,200516,193460,246228,246228,891,1538,129,4116,1090,-2339,-531,403,105,103,835,1032,1161,729,1097,1187,1173,1802,1691
630898,201036,193852,246696,246696,789,1765,55,3818,1178,-1530,-1516,-798,112,81,835,1123,1255,776,1125,1452,1425,2221,2093
631899,201584,194220,247164,247164,612,1917,14,3828,1185,458,-2515,2481,109,79,831,1123,1255,776,1125,1452,1425,2221,2093
632900,202140,194572,247632,247632,560,2020,97,3833,1157,-317,-2509,1677,113,86,832,1123,1255,776,1125,1452,1425,2221,2093
633901,202644,194936,248100,248100,884,1947,195,3662,1133,-910,-2188,1844,104,73,829,1123,1255,776,1125,1452,1425,2221,2093
634902,203184,195252,248568,248568,658,2251,222,3552,903,-982,-2639,2280,116,68,827,1123,1255,776,1125,1452,1425,2221,2093
635903,203720,195516,249036,249036,681,2581,113,3428,531,-1339,-773,2260,118,66,824,1123,1255,776,1125,1452,1425,2221,2093
636904,204260,195780,249504,249504,654,2586,-104,3316,242,-864,-982,1957,99,39,818,999,1137,728,998,1547,1450,2174,2025
637905,204816,196072,249972,249972,552,2415,-458,3052,-18,-623,-595,2362,120,29,819,999,1137,728,998,1547,1450,2174,2025
638906,205292,196300,250440,250440,1052,2821,-941,2723,-245,-1635,755,4305,121,14,822,999,1137,728,998,1547,1450,2174,2025
639907,205792,196548,250908,250908,901,2702,-1450,2450,-430,-1873,1167,3622,111,21,810,999,1137,728,998,1547,1450,2174,2025
640908,206240,196752,251376,251376,1226,2983,-1936,1996,-617,-1231,371,4402,90,-1,812,999,1137,728,998,1547,1450,2174,2025
641909,206760,196980,251844,251844,775,2839,-2319,1746,-792,-2217,719,4125,106,-5,804,968,1097,697,992,1376,1339,1996,1907
642910,207304,197204,252312,252312,623,2870,-2777,1200,-933,-2164,1492,4581,99,-43,809,968,1097,697,992,1376,1339,1996,1907
643911,207800,197380,252780,252780,923,3177,-3178,976,-1016,-1641,546,4777,107,-30,809,968,1097,697,992,1376,1339,1996,1907
644912,208268,197536,253248,253248,1098,3310,-3518,641,-977,-1609,539,2972,88,-29,800,968,1097,697,992,1376,1339,1996,1907
645913,208744,197712,253716,253716,1047,3192,-3768,771,-1022,-1306,-1223,4780,108,-87,797,968,1097,697,992,1376,1339,1996,1907
646914,209260,197888,254184,254184,796,3199,-3877,580,-1068,-2338,-281,1957,98,-146,800,968,1097,697,992,1376,1339,1996,1907
647915,209820,198048,254652,254652,519,3306,-3913,498,-1156,-2084,-1121,3386,94,-101,801,1005,1142,735,1057,1487,1472,2268,2108
648916,210364,198212,255120,255120,617,3289,-3884,399,-1181,-2548,-1191,2063,96,-97,799,1005,1142,735,1057,1487,1472,2268,2108
649917,210856,198392,255588,255588,942,3196,-3923,204,-1210,-2506,-983,1910,101,-136,799,1005,1142,735,1057,1487,1472,2268,2108
650918,211372,198584,256056,256056,790,3128,-3984,90,-1272,-2916,-377,1531,101,-119,798,1005,1142,735,1057,1487,1472,2268,2108
651919,211880,198740,256524,256524,839,3360,-4105,-111,-1375,-2728,807,1598,111,-86,798,1005,1142,735,1057,1487,1472,2268,2108
652920,212476,198876,256992,256992,286,3493,-4190,-276,-1515,-3193,506,159,107,-79,794,1112,1248,804,1183,1521,1483,2211,1929
653921,213004,199016,257460,257460,710,3476,-4374,-369,-1673,-3195,1217,712,99,-162,794,1112,1248,804,1183,1521,1483,2211,1929
654922,213540,199132,257928,257928,658,3635,-4545,-665,-1782,-2940,1391,821,108,-254,793,1112,1248,804,1183,1521,1483,2211,1929
655923,214072,199300,258396,258396,682,3317,-4790,-844,-1936,-2803,1834,2410,101,-228,787,1112,1248,804,1183,1521,1483,2211,1929
656924,214636,199492,258864,258864,479,3174,-4983,-1088,-2186,-2531,1558,1979,103,-161,797,1112,1248,804,1183,1521,1483,2211,1929
657925,215212,199660,259332,259332,402,3331,-5047,-1521,-2191,-2419,1866,704,111,-147,804,1112,1248,804,1183,1521,1483,2211,1929
658926,215772,199832,259800,259800,499,3314,-5082,-2069,-1889,-4283,2582,3890,114,-89,800,1157,1239,782,1175,1283,1278,1825,1618
659927,216420,200080,260268,260268,-55,2844,-5237,-2233,-1853,-3377,1972,6721,102,-162,799,1157,1239,782,1175,1283,1278,1825,1618
660928,216964,200320,260736,260736,593,2900,-5211,-2776,-1949,-1029,-269,2869,115,-135,813,1157,1239,782,1175,1283,1278,1825,1618
661929,217416,200552,261204,261204,1169,2955,-4921,-3663,-1604,-4619,818,3836,125,-13,810,1157,1239,782,1175,1283,1278,1825,1618
662930,217944,200816,261672,261672,692,2760,-4697,-3943,-1471,-2571,380,7996,109,-10,805,1157,1239,782,1175,1283,1278,1825,1618
663931,218556,201192,262144,262144,164,2063,-4546,-4057,-1546,1402,-867,6544,104,-31,811,1043,1119,725,1069,1224,1219,1771,1661
664932,219128,201468,262612,262612,411,2692,-4231,-4204,-1294,385,-429,5981,107,-5,826,1043,1119,725,1069,1224,1219,1771,1661
665933,219688,201740,263080,263080,484,2722,-3816,-4350,-937,-1254,898,4972,126,39,810,1043,1119,725,1069,1224,1219,1771,1661
666934,220276,202032,263548,263548,306,2601,-3539,-4229,-1020,2247,757,5678,111,-4,815,1043,1119,725,1069,1224,1219,1771,1661
667935,220816,202304,264016,264016,604,2731,-3322,-4212,-1034,1509,786,3243,120,-11,818,1043,1119,725,1069,1224,1219,1771,1661
668936,221384,202640,264484,264484,427,2334,-3088,-4262,-795,451,1274,1786,128,15,814,1143,1308,799,1194,1267,1239,1771,1661
669937,221916,202940,264952,264952,650,2563,-2913,-4348,-593,681,1893,2257,118,-5,821,1143,1308,799,1194,1267,1239,1950,1767
670938,222472,203272,265420,265420,498,2367,-2783,-4392,-450,-527,2213,1785,111,24,816,1143,1308,799,1194,1267,1239,1950,1767
671939,223072,203620,265888,265888,220,2270,-2683,-4524,-304,-2237,2782,1597,125,25,821,1143,1308,799,1194,1267,1239,1950,1767
672940,223676,204032,266356,266356,191,1871,-2549,-4661,-210,-2140,2679,484,124,33,824,1143,1308,799,1194,1267,1239,1950,1767
673941,224384,204488,266824,266824,-464,1596,-2509,-4864,-27,-2908,3233,255,116,41,832,1143,1308,799,1194,1267,1239,1950,1767
674942,225040,204968,267292,267292,-144,1446,-2598,-5003,83,-2103,3413,74,115,63,832,1411,1583,882,1373,1226,1208,1907,1676
675943,225652,205468,267760,267760,128,1320,-2662,-5100,223,-3076,4215,12,118,69,837,1411,1583,882,1373,1226,1208,1907,1676
676944,226132,205908,268228,268228,952,1696,-2720,-4971,361,-1842,2773,948,117,63,839,1411,1583,882,1373,1226,1208,1907,1676
677945,226712,206456,268696,268696,325,1019,-2692,-5116,349,-389,709,-1323,123,76,831,1411,1583,882,1373,1226,1208,1907,1676
678947,227428,206932,269164,269164,-532,1469,-2463,-5643,259,-10,-947,692,118,75,842,1411,1583,882,1373,1226,1208,1907,1676
679947,228000,207412,269632,269632,366,1444,-2206,-5887,151,1177,-1599,3219,131,90,836,1241,1301,782,1160,1230,1224,1752,1586
680948,228584,207932,270100,270100,288,1192,-1869,-5457,325,-185,-3846,4239,116,79,838,1241,1301,782,1160,1230,1224,1752,1586
681949,229108,208500,270568,270568,662,890,-1448,-4958,593,-598,-759,2421,116,85,841,1241,1301,782,1160,1230,1224,1752,1586
682950,229688,209036,271036,271036,309,1088,-825,-5180,455,1955,-1467,1389,111,94,840,1241,1301,782,1160,1230,1224,1752,1586
683951,230320,209608,271504,271504,-20,861,-366,-5379,644,-2255,-1929,4340,128,95,843,1241,1301,782,1160,1230,1224,1752,1586
684952,230920,210136,271972,271972,177,1134,-275,-5193,961,-2577,-565,4265,107,91,847,1241,1301,782,1160,1230,1224,1752,1586
685953,231436,210804,272440,272440,701,254,-295,-5145,829,1798,1464,3446,113,86,844,949,999,672,1000,1154,1166,1597,1452
686954,232012,211380,272908,272908,323,827,-297,-5109,922,-1045,-148,1913,126,91,847,949,999,672,1000,1154,1166,1597,1452
687955,232600,211940,273376,273376,245,924,-496,-4938,992,-2163,2252,1345,109,102,846,949,999,672,1000,1154,1166,1597,1452
688956,233184,212572,273844,273844,267,470,-806,-4888,772,350,2643,-1037,120,97,846,949,999,672,1000,1154,1166,1597,1452
689957,233704,213148,274312,274312,666,818,-1076,-5182,682,1513,846,-2134,104,90,849,949,999,672,1000,1154,1166,1597,1452
690958,234192,213760,274780,274780,865,589,-1245,-5125,730,1049,-117,-1516,121,108,845,1020,1087,718,1123,1204,1230,1802,1616
691959,234744,214332,275248,275248,463,837,-1137,-4813,585,530,209,-665,111,104,845,1020,1087,718,1123,1204,1230,1802,1616
692960,235288,214888,275716,275716,512,935,-971,-4669,357,-124,-1194,-1554,117,109,846,1020,1087,718,1123,1204,1230,1802,1616
693961,235884,215428,276184,276184,183,1033,-849,-5122,309,-1732,-415,-3260,129,98,844,1020,1087,718,1123,1204,1230,1802,1616
694962,236448,216092,276652,276652,381,253,-772,-5648,301,-1663,-382,-1924,128,99,845,1020,1087,718,1123,1204,1230,1802,1616
695963,237040,216664,277120,277120,203,825,-711,-5744,275,-1036,-1077,-1239,118,108,850,1020,1087,718,1123,1204,1230,1802,1616
696964,237572,217176,277588,277588,576,1199,-614,-5591,288,-329,-821,-1534,108,119,847,1103,1204,769,1147,1357,1317,1988,1792
697965,238100,217732,278056,278056,600,922,-573,-5490,348,163,-1331,-1849,113,116,842,1103,1204,769,1147,1357,1317,1988,1792
698966,238676,218268,278528,278528,297,1046,-530,-5429,351,332,-844,-1081,114,106,844,1103,1204,769,1147,1357,1317,1988,1792
699967,239252,218920,278996,278996,295,316,-553,-5223,282,786,-384,465,122,112,843,1103,1204,769,1147,1357,1317,1988,1792
700968,239792,219460,279464,279464,518,1014,-570,-5113,287,1113,-333,-591,100,113,850,1103,1204,769,1147,1357,1317,1988,1792
701969,240336,220032,279932,279932,491,812,-667,-4858,253,2194,1133,1192,125,114,844,1083,1199,740,1080,1249,1213,1788,1652
702970,240872,220620,280400,280400,540,709,-810,-4791,304,1529,616,61,114,118,846,1083,1199,740,1080,1249,1213,1788,1652
703971,241420,221276,280868,280868,463,279,-967,-4686,360,1966,1072,552,116,123,846,1083,1199,740,1080,1249,1213,1788,1652
704972,241968,221776,281336,281336,461,1254,-1084,-4671,473,917,421,756,108,111,849,1083,1199,740,1080,1249,1213,1788,1652
705973,242476,222328,281804,281804,710,927,-1228,-4719,410,2100,-207,948,122,118,842,1083,1199,740,1080,1249,1213,1788,1652
706974,242964,222864,282272,282272,834,1025,-962,-4417,187,3046,222,3124,96,107,843,1083,1199,740,1080,1249,1213,1788,1652
707975,243444,223436,282740,282740,884,797,-766,-3732,411,-90,-2226,3019,91,113,841,999,1087,689,1021,1194,1189,1704,1558
708976,243912,224012,283208,283208,959,770,-280,-3891,398,2056,-836,1918,96,117,843,999,1087,689,1021,1194,1189,1704,1558
709977,244324,224560,283676,283676,1310,943,31,-3988,344,998,-1985,5659,98,105,842,999,1087,689,1021,1194,1189,1704,1558
710978,244640,225104,284144,284144,1914,966,421,-4123,499,-133,-3979,4896,82,116,837,999,1087,689,1021,1194,1189,1704,1558
711979,244932,225636,284612,284612,2068,1039,854,-3828,556,2452,-2533,6048,64,117,828,999,1087,689,1021,1194,1189,1704,1558
712980,245188,226220,285080,285080,2298,712,1133,-2890,657,1432,-2984,8903,47,115,824,1028,1103,737,1179,1200,1236,1784,1500
713981,245428,226772,285548,285548,2404,909,1280,-2104,773,958,84,9773,35,109,821,1028,1103,737,1179,1200,1236,1784,1500
714982,245596,227276,286016,286016,2861,1209,1191,-1372,759,1042,-2821,10518,22,115,818,1028,1103,737,1179,1200,1236,1784,1500
715983,245748,227800,286484,286484,2969,1082,1015,-635,810,1343,-1482,11788,11,102,806,1028,1103,737,1179,1200,1236,1784,1500
716984,245900,228384,286952,286952,2977,704,685,-53,1063,1494,-533,10686,-26,110,803,1028,1103,737,1179,1200,1236,1784,1500
717985,246036,228916,287420,287420,3085,1028,329,508,1218,959,466,10649,-55,110,807,1028,1103,737,1179,1200,1236,1784,1500
718986,246160,229408,287888,287888,3168,1277,33,1060,1191,-561,371,10862,-62,108,801,1399,1439,921,1696,1348,1527,2374,1795
719987,246248,229924,288356,288356,3403,1126,-91,1491,1174,-639,693,11339,-104,107,794,1399,1439,921,1696,1348,1527,2374,1795
720988,246340,230452,288824,288824,3387,1050,-97,2011,1310,25,-766,12217,-118,118,789,1399,1439,921,1696,1348,1527,2374,1795
721989,246408,230952,289292,289292,3546,1224,50,2293,1542,-526,-2792,11695,-287,104,790,1399,1439,921,1696,1348,1527,2374,1795
722990,246492,231440,289760,289760,3456,1298,304,2445,1755,-2599,-3874,11631,-277,106,785,1399,1439,921,1696,1348,1527,2374,1795
723991,246596,231924,290228,290228,3340,1323,831,2228,1964,-2814,-3364,11073,-302,104,786,1628,1559,1036,1904,2025,2252,3392,2368
724992,246660,232440,290696,290696,3600,1122,1432,1971,2173,-1341,-4973,11597,-304,96,789,1628,1559,1036,1904,2025,2252,3392,2368
725993,246712,232960,291164,291164,3685,1095,1972,1863,2294,-243,-4461,14149,-237,98,783,1628,1559,1036,1904,2025,2252,3392,2368
726994,246792,233448,291632,291632,3519,1295,2312,2202,2482,879,-4180,15519,-242,84,778,1628,1559,1036,1904,2025,2252,3392,2368
727995,246880,233868,292100,292100,3479,1721,2459,2799,2708,3175,-3208,15303,-81,88,785,1628,1559,1036,1904,2025,2252,3392,2368
728996,247008,234328,292568,292568,3237,1471,2553,3535,2930,4140,-2197,15875,-301,84,780,1628,1559,1036,1904,2025,2252,3392,2368
729997,247124,234824,293036,293036,3320,1246,2492,4254,3152,5077,-628,15198,-304,83,790,1458,1522,963,1573,1735,1675,2575,2031
730998,247260,235272,293504,293504,3204,1546,2407,4729,3460,4490,-2063,15485,-138,82,791,1458,1522,963,1573,1735,1675,2575,2031
731999,247436,235720,293972,293972,2961,1547,2182,5134,3684,3166,-179,14803,-196,88,791,1458,1522,963,1573,1735,1675,2575,2031
733000,247588,236188,294440,294440,3118,1422,1947,5637,3759,2533,127,14431,-112,75,795,1458,1522,963,1573,1735,1675,2575,2031
734001,247740,236644,294912,294912,3126,1497,1875,6024,3847,2510,246,12464,-57,72,794,1458,1522,963,1573,1735,1675,2575,2031
735002,247896,237104,295380,295380,3109,1472,1858,6055,3948,1680,-598,11947,-105,73,794,1347,1511,847,1285,1247,1190,1919,1756
736003,248052,237552,295848,295848,3116,1548,1875,5742,3990,-15,-326,11383,-83,77,796,1347,1511,847,1285,1247,1190,1919,1756
737004,248248,237976,296316,296316,2873,1699,1937,5292,3996,-397,-682,11169,-92,66,796,1347,1511,847,1285,1247,1190,1919,1756
738005,248476,238444,296784,296784,2679,1424,2091,4795,3976,-668,-1166,9320,-72,85,799,1347,1511,847,1285,1247,1190,1919,1756
739006,248736,238948,297252,297252,2484,1198,2337,4492,3937,-412,-995,9597,-18,75,805,1347,1511,847,1285,1247,1190,1919,1756
740007,248980,239408,297720,297720,2589,1473,2620,4137,3915,1097,-1438,7905,11,87,811,1347,1511,847,1285,1247,1190,1919,1756
741008,249232,239900,298188,298188,2545,1273,2910,3976,3879,1712,-977,8213,31,90,806,1254,1465,821,1170,1296,1214,2027,1990
742009,249484,240396,298656,298656,2550,1247,3271,3905,3918,2165,-913,6564,19,74,811,1254,1465,821,1170,1296,1214,2027,1990
743010,249744,240956,299124,299124,2505,845,3654,3976,3889,4057,-1235,6165,24,85,813,1254,1465,821,1170,1296,1214,2027,1990
744011,250068,241420,299592,299592,2109,1445,4004,4102,3839,4040,952,5599,38,78,816,1254,1465,821,1170,1296,1214,2027,1990
745012,250364,241888,300060,300060,2288,1420,4251,4468,3973,2816,1076,4959,31,86,818,1254,1465,821,1170,1296,1214,2027,1990
746013,250680,242388,300528,300528,2166,1219,4450,4569,4284,2201,770,3483,54,82,815,1288,1552,852,1211,1299,1225,1992,1915
747014,251008,242884,300996,300996,2095,1243,4570,4560,4528,2427,1282,3428,57,86,819,1288,1552,852,1211,1299,1225,1992,1915
748015,251332,243464,301464,301464,2123,716,4609,4481,4753,126,2179,3023,50,89,820,1288,1552,852,1211,1299,1225,1992,1915
749016,251676,243996,301932,301932,2001,1014,4645,4189,4858,-210,3282,1844,53,93,824,1288,1552,852,1211,1299,1225,1992,1915
750017,252088,244520,302400,302400,1578,1063,4622,3951,5028,-1571,2165,2468,64,87,826,1288,1552,852,1211,1299,1225,1992,1915
751018,252488,245020,302868,302868,1654,1212,4504,3555,5161,-1825,4427,1218,80,89,830,1288,1552,852,1211,1299,1225,1992,1915
752019,252892,245616,303336,303336,1631,609,4361,3228,5217,-1900,2961,2793,88,107,828,1295,1459,818,1224,1180,1155,1770,1615
753020,253320,246156,303804,303804,1482,957,4219,2762,5211,-1906,3986,773,76,90,833,1295,1459,818,1224,1180,1155,1770,1615
754021,253760,246692,304272,304272,1408,980,4079,2429,5170,-1166,2043,1615,80,96,834,1295,1459,818,1224,1180,1155,1770,1615
755022,254284,247204,304740,304740,881,1129,3960,2591,5065,-373,-166,966,106,100,835,1295,1459,818,1224,1180,1155,1770,1615
756023,254768,247772,305208,305208,1131,777,4018,2543,4864,-455,408,359,101,112,838,1295,1459,818,1224,1180,1155,1770,1615
757024,255272,248348,305676,305676,1005,724,4220,2451,4605,757,-2055,1582,103,95,839,1078,1153,720,1031,1241,1202,1732,1605
758025,255764,248944,306144,306144,1079,596,4468,2235,4423,675,-1742,2445,106,102,841,1078,1153,720,1031,1241,1202,1732,1605
759026,256268,249480,306612,306612,1004,969,4740,2234,4279,283,-1757,2530,117,120,842,1078,1153,720,1031,1241,1202,1732,1605
760027,256832,250008,307080,307080,626,1018,5056,2011,4173,400,-3176,1870,106,117,840,1078,1153,720,1031,1241,1202,1732,1605
761028,257332,250604,307548,307548,1025,590,5381,2001,4016,-50,-793,2167,113,119,841,1078,1153,720,1031,1241,1202,1732,1605
762029,257868,251200,308016,308016,799,587,5619,2038,3905,-491,-1330,1324,104,114,843,1078,1153,720,1031,1241,1202,1732,1605
763030,258356,251764,308484,308484,1098,784,5705,2172,3903,-227,-1774,2049,104,130,845,918,996,677,977,1271,1235,1750,1608
764031,258888,252324,308952,308952,822,807,5671,2375,3986,-81,488,956,104,117,840,918,996,677,977,1271,1235,1750,1608
765032,259448,252940,309420,309420,645,453,5564,2435,4167,-763,293,774,92,114,843,918,996,677,977,1271,1235,1750,1608
766033,260004,253512,309888,309888,667,726,5333,2549,4374,-954,2113,408,109,113,846,918,996,677,977,1271,1235,1750,1608
767034,260496,254008,310356,310356,1067,1200,5048,2433,4585,-861,2487,-484,118,107,845,918,996,677,977,1271,1235,1750,1608
768035,260996,254548,310824,310824,1016,923,4711,2357,4799,-787,2389,-1691,106,121,835,1057,1159,747,1179,1201,1224,1829,1652
769036,261520,255068,311296,311296,865,1047,4359,2288,4956,-220,2179,-1586,96,123,840,1057,1159,747,1179,1201,1224,1829,1652
770037,262080,255632,311764,311764,637,770,4113,2399,5054,115,2206,-2007,107,113,840,1057,1159,747,1179,1201,1224,1829,1652
771038,262600,256180,312232,312232,886,868,4001,2317,5131,-371,1107,-2206,119,116,844,1057,1159,747,1179,1201,1224,1829,1652
772039,263120,256668,312700,312700,885,1242,3886,2489,4977,1610,-281,-677,119,117,842,1057,1159,747,1179,1201,1224,1829,1652
773040,263640,257144,313168,313168,884,1317,3877,2535,4833,-1041,1284,-896,97,116,839,1057,1159,747,1179,1201,1224,1829,1652
774041,264188,257648,313636,313636,707,1141,3889,2311,4680,-155,-1864,-28,99,110,837,1173,1278,787,1177,1327,1309,1977,1795
775042,264756,258092,314104,314104,579,1517,3831,2428,4351,-158,1132,2154,115,108,840,1173,1278,787,1177,1327,1309,1977,1795
776043,265284,258536,314572,314572,828,1518,3756,2457,4112,480,-339,830,106,100,838,1173,1278,787,1177,1327,1309,1977,1795
777044,265800,258960,315040,315040,902,1644,3668,2432,3982,746,-1620,1860,103,100,835,1173,1278,787,1177,1327,1309,1977,1795
778045,266328,259400,315508,315508,825,1544,3475,2286,3739,74,-123,2540,119,102,833,1173,1278,787,1177,1327,1309,1977,1795
779046,266836,259800,315976,315976,949,1796,3212,1994,3525,-931,-1205,2863,117,97,835,1015,1109,716,1001,1410,1340,1969,1853
780047,267416,260184,316444,316444,496,1898,3019,1813,3293,-1046,-1518,4217,122,87,832,1015,1109,716,1001,1410,1340,1969,1853
781048,267940,260572,316912,316912,845,1875,2822,1603,3152,-1729,-1082,3575,108,96,831,1015,1109,716,1001,1410,1340,1969,1853
782049,268504,260936,317380,317380,593,2028,2641,1458,2993,-1435,-1121,5423,129,72,830,1015,1109,716,1001,1410,1340,1969,1853
783050,269020,261312,317848,317848,892,1955,2429,1316,2848,-2185,111,4000,121,76,826,1015,1109,716,1001,1410,1340,1969,1853
784051,269584,261648,318316,318316,589,2208,2210,794,2781,-2159,-383,2285,106,63,828,1015,1109,716,1001,1410,1340,1969,1853
785052,270188,261984,318784,318784,336,2211,1824,547,2644,-1877,-586,4430,124,67,823,917,1034,686,963,1459,1409,2106,2039
786053,270712,262308,319252,319252,835,2290,1480,53,2522,-2764,683,1742,131,50,826,917,1034,686,963,1459,1409,2106,2039
787054,271244,262620,319720,319720,783,2369,1051,-196,2432,-1202,-114,4191,119,45,821,917,1034,686,963,1459,1409,2106,2039
788055,271788,262920,320188,320188,706,2448,560,-400,2365,-1171,-137,3461,111,45,820,917,1034,686,963,1459,1409,2106,2039
789056,272352,263168,320656,320656,579,2778,55,-424,2287,-1799,573,3772,107,30,819,917,1034,686,963,1459,1409,2106,2039
790057,273000,263396,321124,321124,49,2909,-452,-756,2210,-1258,1353,1832,119,17,814,1005,1170,746,1065,1568,1523,2411,2342
791058,273528,263616,321592,321592,798,2965,-987,-1046,2131,-1208,106,795,106,-14,814,1005,1170,746,1065,1568,1523,2411,2342
792059,274064,263880,322060,322060,746,2695,-1468,-1288,1984,-1839,1506,1734,120,-29,810,1005,1170,746,1065,1568,1523,2411,2342
793060,274620,264132,322528,322528,619,2775,-1939,-1254,1779,-1099,887,2463,110,-23,813,1005,1170,746,1065,1568,1523,2411,2342
794061,275180,264368,322996,322996,592,2881,-2355,-1366,1607,-796,-39,2339,109,5,811,1005,1170,746,1065,1568,1523,2411,2342
795062,275816,264584,323464,323464,113,3012,-2652,-1504,1436,-1606,655,2569,101,-6,810,1005,1170,746,1065,1568,1523,2411,2342
796063,276332,264824,323932,323932,862,2868,-2846,-1611,1232,-2057,-774,2791,115,-29,808,1096,1274,789,1092,1712,1606,2519,2323
797064,276884,265012,324400,324400,635,3199,-3014,-1821,960,-2433,450,3013,105,-43,808,1096,1274,789,1092,1712,1606,2519,2323
798065,277412,265240,324868,324868,783,2955,-3197,-2114,696,-2665,400,2923,112,-31,802,1096,1274,789,1092,1712,1606,2519,2323
799066,277972,265452,325336,325336,581,3062,-3410,-2422,450,-2249,288,3456,103,-100,806,1096,1274,789,1092,1712,1606,2519,2323
800067,278500,265664,325804,325804,779,3068,-3611,-2704,292,-2611,619,3501,109,-55,805,1096,1274,789,1092,1712,1606,2519,2323
801068,279060,265876,326272,326272,577,3074,-3753,-2817,201,-1946,300,3815,104,-78,804,1014,1146,736,1018,1498,1404,2035,1851
802069,279608,266052,326740,326740,650,3306,-3937,-2907,66,-1970,179,4932,116,-69,803,1014,1146,736,1018,1498,1404,2035,1851
803070,280120,266232,327208,327208,874,3288,-4027,-3040,-70,-3281,1251,4135,109,-52,798,1014,1146,736,1018,1498,1404,2035,1851
804071,280676,266420,327680,327680,597,3245,-4189,-3318,-150,-2293,1243,4939,95,-116,797,1014,1146,736,1018,1498,1404,2035,1851
805072,281264,266640,328148,328148,394,3051,-4380,-3503,-156,-1482,1720,4945,110,-105,799,1014,1146,736,1018,1498,1404,2035,1851
806075,281816,266836,328616,328616,617,3208,-4527,-3784,-72,-2418,2180,3433,116,-99,805,1014,1146,736,1018,1498,1404,2035,1851
807074,282288,267016,329084,329084,1117,3315,-4685,-3878,14,-2335,1753,4155,97,-67,800,984,1076,711,1049,1250,1249,1758,1607
808075,282780,267192,329552,329552,991,3347,-4787,-3740,54,-2122,2563,3722,109,-88,795,984,1076,711,1049,1250,1249,1758,1607
809076,283376,267440,330020,330020,338,2902,-4843,-3495,-14,-1320,1349,2476,123,-121,793,984,1076,711,1049,1250,1249,1758,1607
810077,283980,267700,330488,330488,285,2832,-4803,-3505,44,-1321,1699,691,119,-155,810,984,1076,711,1049,1250,1249,1758,1607
811078,284500,268064,330956,330956,809,2185,-4882,-3710,239,-2987,1832,2012,122,-18,812,984,1076,711,1049,1250,1249,1758,1607
812079,285068,268480,331424,331424,506,1861,-5134,-3720,177,-720,1696,1682,123,-9,821,1097,1177,774,1199,1266,1297,1879,1670
813080,285668,268884,331892,331892,303,1938,-5260,-4195,259,-1642,1410,-1305,106,51,829,1097,1177,774,1199,1266,1297,1879,1670
814081,286252,269396,332360,332360,400,1262,-5388,-4460,271,-795,715,-948,120,52,830,1097,1177,774,1199,1266,1297,1879,1670
815082,286880,269876,332828,332828,121,1461,-5475,-4664,245,555,-89,-2025,107,65,838,1097,1177,774,1199,1266,1297,1879,1670
816083,287448,270424,333296,333296,494,1034,-5507,-4905,364,-435,230,-774,121,69,839,1097,1177,774,1199,1266,1297,1879,1670
817084,288028,270992,333764,333764,416,907,-5614,-4734,321,302,437,1625,117,80,842,1097,1177,774,1199,1266,1297,1879,1670
818085,288584,271604,334232,334232,564,629,-5563,-4517,126,781,-265,601,114,86,843,1160,1232,793,1174,1408,1379,2051,1826
819086,289156,272224,334700,334700,461,575,-5342,-4273,27,1364,-205,-311,120,89,843,1160,1232,793,1174,1408,1379,2051,1826
820087,289816,272840,335168,335168,-93,596,-5092,-4010,-5,2429,19,60,119,96,847,1160,1232,793,1174,1408,1379,2051,1826
821088,290352,273444,335636,335636,680,668,-4900,-3735,-235,2936,1779,2362,128,94,848,1160,1232,793,1174,1408,1379,2051,1826
822089,290916,274020,336104,336104,503,840,-4774,-3606,-366,2184,884,788,112,107,845,1160,1232,793,1174,1408,1379,2051,1826
823090,291508,274560,336572,336572,325,1063,-4799,-3602,-181,228,-1522,718,137,90,845,1015,1111,710,1031,1304,1242,1800,1616
824091,292104,275084,337040,337040,297,1162,-4913,-3563,98,-1371,-2366,751,125,89,843,1015,1111,710,1031,1304,1242,1800,1616
825092,292812,275672,337508,337508,-409,759,-5063,-3354,38,-1384,788,1811,125,96,843,1015,1111,710,1031,1304,1242,1800,1616
826093,293448,276272,337976,337976,37,681,-5070,-3231,-51,-1551,822,536,127,113,844,1015,1111,710,1031,1304,1242,1800,1616
827094,294056,276928,338444,338444,208,326,-5176,-3139,-22,-703,1533,1386,114,102,847,1015,1111,710,1031,1304,1242,1800,1616
828095,294628,277484,338912,338912,431,949,-5283,-3335,121,-1638,873,-308,111,102,850,1015,1111,710,1031,1304,1242,1800,1616
829096,295128,278116,339380,339380,880,470,-5447,-3584,174,-1620,1476,823,104,116,845,969,1052,678,1038,1130,1143,1631,1485
830097,295768,278684,339848,339848,1,868,-5480,-3799,273,-954,-306,5,120,104,845,969,1052,678,1038,1130,1143,1631,1485
831098,296332,279320,340316,340316,473,439,-5485,-3483,323,893,375,734,107,111,847,969,1052,678,1038,1130,1143,1631,1485
832099,296876,279896,340784,340784,596,811,-5335,-3311,285,209,-1241,681,111,103,848,969,1052,678,1038,1130,1143,1631,1485
833100,297456,280464,341252,341252,369,859,-5194,-3360,270,-365,-790,-124,129,114,846,969,1052,678,1038,1130,1143,1631,1485
834101,298060,281088,341720,341720,215,505,-5095,-3550,332,-104,-1275,-975,118,114,845,1029,1103,728,1120,1211,1239,1778,1610
835102,298676,281748,342188,342188,137,275,-5065,-3692,301,704,-509,-1135,106,111,849,1029,1103,728,1120,1211,1239,1778,1610
836103,299152,282296,342656,342656,1012,973,-5103,-3529,121,2003,-643,-440,117,103,849,1029,1103,728,1120,1211,1239,1778,1610
837104,299716,282884,343124,343124,459,720,-5149,-3281,26,1726,-1142,-2074,127,127,841,1029,1103,728,1120,1211,1239,1778,1610
838105,300272,283460,343592,343592,507,793,-5092,-3057,-101,1274,-872,-245,122,105,846,1029,1103,728,1120,1211,1239,1778,1610
839106,300820,284004,344064,344064,555,991,-5016,-3032,-251,-233,-1005,-2038,108,103,845,1029,1103,728,1120,1211,1239,1778,1610
840107,301468,284624,344532,344532,-74,512,-4906,-3196,-395,-371,-883,-1068,123,120,843,1126,1206,778,1166,1308,1295,1905,1704
841108,302024,285208,345000,345000,499,734,-4909,-3402,-524,905,-19,-730,117,109,849,1126,1206,778,1166,1308,1295,1905,1704
842109,302540,285784,345468,345468,748,782,-5023,-3531,-541,714,19,-1514,122,110,846,1126,1206,778,1166,1308,1295,1905,1704
843110,303096,286332,345936,345936,495,955,-5178,-3586,-583,597,635,-413,125,112,845,1126,1206,778,1166,1308,1295,1905,1704
844111,303680,286928,346404,346404,318,652,-5229,-3507,-613,-307,525,-900,116,119,844,1126,1206,778,1166,1308,1295,1905,1704
845112,304228,287516,346872,346872,541,699,-5213,-3432,-641,-116,161,-190,123,107,847,1078,1171,730,1074,1266,1224,1808,1658
846113,304880,288044,347340,347340,-114,1072,-5169,-3309,-562,-720,-337,1301,118,113,846,1078,1171,730,1074,1266,1224,1808,1658
847114,305412,288648,347808,347808,635,594,-5103,-3302,-473,-355,213,1192,110,131,845,1078,1171,730,1074,1266,1224,1808,1658
848115,305940,289152,348276,348276,658,1218,-5056,-3414,-372,-305,641,1789,123,108,846,1078,1171,730,1074,1266,1224,1808,1658
849116,306452,289828,348744,348744,757,138,-5053,-3606,-175,-1152,105,1136,122,125,841,1078,1171,730,1074,1266,1224,1808,1658
850117,307000,290404,349212,349212,530,760,-5102,-3790,-174,1980,-663,1202,106,112,847,1078,1171,730,1074,1266,1224,1808,1658
851118,307564,290924,349680,349680,428,1109,-4928,-3219,-205,2425,-885,3798,111,134,846,967,1067,681,999,1211,1189,1728,1608
852119,308068,291468,350148,350148,802,957,-4700,-2529,-87,435,-63,1948,107,124,843,967,1067,681,999,1211,1189,1728,1608
853120,308504,292112,350616,350616,1228,328,-4149,-2270,-217,3718,-3593,1987,92,123,841,967,1067,681,999,1211,1189,1728,1608
854123,308900,292664,351084,351084,1479,901,-3773,-1945,-278,3578,-1531,5658,79,117,841,967,1067,681,999,1211,1189,1728,1608
855122,309276,293228,351552,351552,1607,823,-3391,-1802,-207,2351,-2909,4768,70,118,835,967,1067,681,999,1211,1189,1728,1608
856123,309600,293756,352020,352020,1935,1047,-3159,-1376,-312,3377,-3236,6483,72,123,833,1028,1124,739,1160,1192,1225,1765,1501
857124,309832,294400,352488,352488,2516,318,-2744,-755,-419,2021,-2206,5462,57,116,827,1028,1124,739,1160,1192,1225,1765,1501
858125,310028,294904,352956,352956,2748,1192,-2313,-344,-448,829,-2586,4600,45,107,820,1028,1124,739,1160,1192,1225,1765,1501
859126,310188,295476,353424,353424,2980,764,-1907,-156,-541,593,-2024,5004,16,118,809,1028,1124,739,1160,1192,1225,1765,1501
860127,310332,296040,353892,353892,3088,812,-1713,200,-656,216,-352,6080,-19,121,806,1028,1124,739,1160,1192,1225,1765,1501
861128,310452,296644,354360,354360,3246,559,-1465,188,-673,-63,-1303,4836,-43,128,802,1028,1124,739,1160,1192,1225,1765,1501
862129,310540,297292,354828,354828,3456,279,-1405,389,-624,705,-884,6137,-72,123,797,1397,1421,901,1690,1134,1273,1856,1416
863130,310600,297912,355296,355296,3641,450,-1370,554,-487,235,-1540,6722,-146,128,794,1397,1421,901,1690,1134,1273,1856,1416
864131,310648,298548,355764,355764,3726,346,-1433,863,-391,320,-394,7031,-311,138,787,1397,1421,901,1690,1134,1273,1856,1416
865132,310704,299196,356232,356232,3686,267,-1261,1115,-401,606,-456,7030,-177,126,781,1397,1421,901,1690,1134,1273,1856,1416
866133,310736,299876,356700,356700,3800,62,-1000,1646,-428,1171,-1240,8588,22,132,782,1397,1421,901,1690,1134,1273,1856,1416
867134,310764,300520,357168,357168,3800,283,-682,2307,-283,2244,-2447,9539,-95,139,780,1684,1567,959,1860,1266,1454,2185,1638
868135,310812,301180,357636,357636,3768,178,-391,2933,-9,3022,-3306,11065,258,118,779,1684,1567,959,1860,1266,1454,2185,1638
869136,310856,301812,358104,358104,3800,349,-38,3689,246,3285,-3579,11769,272,125,779,1684,1567,959,1860,1266,1454,2185,1638
870137,310908,302552,358572,358572,3763,-333,513,4352,323,3901,-4234,11254,165,118,776,1684,1567,959,1860,1266,1454,2185,1638
871138,310980,303164,359040,359040,3648,464,1140,5108,409,3518,-4903,11567,263,130,779,1684,1567,959,1860,1266,1454,2185,1638
872139,311052,303824,359508,359508,3658,159,1719,5769,597,3531,-6235,11593,126,112,785,1684,1567,959,1860,1266,1454,2185,1638
873140,311112,304484,359976,359976,3742,154,2132,6446,808,3833,-5066,11357,-172,129,786,1382,1353,876,1539,1501,1627,2384,1781
874141,311188,305120,360448,360448,3652,300,2509,7046,940,3941,-4912,11410,-163,117,783,1382,1353,876,1539,1501,1627,2384,1781
875142,311296,305828,360916,360916,3461,-156,2703,7896,1114,2086,-3965,10186,82,125,787,1382,1353,876,1539,1501,1627,2384,1781
876143,311416,306420,361384,361384,3394,566,2941,7834,1191,3563,-2997,8931,-150,120,794,1382,1353,876,1539,1501,1627,2384,1781
877144,311524,307076,361852,361852,3478,162,3020,7478,1472,2177,-5320,11479,-336,112,794,1382,1353,876,1539,1501,1627,2384,1781
878145,311616,307636,362320,362320,3587,760,3064,7387,1834,2318,-3940,12392,-315,110,795,1270,1276,841,1465,1392,1476,2146,1653
879146,311720,308296,362788,362788,3521,130,3235,7164,2124,522,-4772,11171,-331,108,789,1270,1276,841,1465,1392,1476,2146,1653
880147,311844,308916,363256,363256,3405,376,3397,7012,1986,-326,-3802,12617,-273,121,793,1270,1276,841,1465,1392,1476,2146,1653
881148,311980,309544,363724,363724,3338,322,3330,7065,1730,542,-2761,12109,-290,112,795,1270,1276,841,1465,1392,1476,2146,1653
882149,312100,310156,364192,364192,3446,419,3194,7057,1754,4079,-2770,11221,-261,105,797,1270,1276,841,1465,1392,1476,2146,1653
883150,312228,310796,364660,364660,3405,240,3065,7158,2118,4511,-2818,10268,-210,101,793,1270,1276,841,1465,1392,1476,2146,1653
884151,312348,311440,365128,365128,3463,210,3043,7152,2269,6285,-1409,8655,-286,103,796,1330,1395,865,1452,1362,1401,2204,1856
885152,312532,312000,365596,365596,3070,733,3132,7158,2454,5096,-3597,8774,-264,101,796,1330,1395,865,1452,1362,1401,2204,1856
886153,312724,312504,366064,366064,3027,1082,3332,7184,2648,5468,-1736,8357,-268,108,802,1330,1395,865,1452,1362,1401,2204,1856
887154,312936,313008,366532,366532,2908,1081,3537,7423,2658,7246,-2186,8937,-49,108,799,1330,1395,865,1452,1362,1401,2204,1856
888155,313148,313632,367000,367000,2914,327,3685,7880,2916,4463,-3935,8753,-45,110,804,1330,1395,865,1452,1362,1401,2204,1856
889156,313344,314176,367468,367468,3021,826,3860,8081,2912,6512,-706,6329,-30,99,810,1364,1527,880,1329,1465,1415,2335,2088
890157,313564,314788,367936,367936,2877,397,4180,7803,2924,3947,-2154,6446,-27,111,807,1364,1527,880,1329,1465,1415,2335,2088
891158,313816,315344,368404,368404,2682,745,4436,7203,2863,3701,-2089,6784,-50,111,811,1364,1527,880,1329,1465,1415,2335,2088
892159,314060,315948,368872,368872,2738,442,4563,6601,2763,1411,-2462,7996,-19,113,813,1364,1527,880,1329,1465,1415,2335,2088
893160,314312,316480,369340,369340,2693,890,4596,5885,2387,3292,1646,7221,16,103,813,1364,1527,880,1329,1465,1415,2335,2088
894161,314564,317004,369808,369808,2698,939,4541,5025,2268,1970,-820,5948,0,122,812,1364,1527,880,1329,1465,1415,2335,2088
895162,314816,317512,370276,370276,2704,1038,4122,5238,2460,-3858,3302,10749,26,107,811,1256,1460,829,1198,1358,1270,2093,1996
896163,315088,318004,370744,370744,2583,1137,3443,5502,2792,-3665,721,7232,25,107,811,1256,1460,829,1198,1358,1270,2093,1996
897164,315356,318540,371212,371212,2613,860,3011,4534,3127,1118,-1639,8008,11,108,813,1256,1460,829,1198,1358,1270,2093,1996
898165,315636,319004,371680,371680,2543,1311,2856,3126,3712,-441,-2772,9481,22,105,815,1256,1460,829,1198,1358,1270,2093,1996
899166,315932,319388,372148,372148,2447,1813,3008,1782,3737,2775,-1313,6828,37,98,811,1256,1460,829,1198,1358,1270,2093,1996
900167,316224,319776,372616,372616,2476,1790,3253,1569,3460,2718,-1754,7335,30,83,808,1135,1324,780,1076,1498,1402,2289,2245
901168,316560,320212,373084,373084,2204,1490,3407,2167,3020,5641,-1181,6837,34,82,807,1135,1324,780,1076,1498,1402,2289,2245
902169,316852,320616,373552,373552,2484,1692,3380,2702,2544,5396,-554,7766,31,86,813,1135,1324,780,1076,1498,1402,2289,2245
903170,317140,320980,374020,374020,2513,1944,3351,2900,2114,3626,-1009,6707,47,85,808,1135,1324,780,1076,1498,1402,2289,2245
904171,317448,321344,374488,374488,2392,1947,3488,2391,1832,768,-734,5623,41,65,804,1135,1324,780,1076,1498,1402,2289,2245
905172,317764,321680,374956,374956,2346,2125,3621,1421,1512,-176,1583,3281,36,57,807,1085,1278,782,1108,1554,1490,2312,2091
906173,318148,322040,375424,375424,1923,1978,3498,1482,1464,-1879,-3187,6010,59,69,806,1085,1278,782,1108,1554,1490,2312,2091
907174,318520,322352,375892,375892,2000,2282,3337,1285,1333,459,858,719,51,56,812,1085,1278,782,1108,1554,1490,2312,2091
908175,318896,322652,376360,376360,1977,2361,3095,687,1151,2423,-123,2143,71,61,808,1085,1278,782,1108,1554,1490,2312,2091
909176,319308,322932,376832,376832,1754,2490,2863,-364,1229,-2553,1595,1391,66,37,808,1085,1278,782,1108,1554,1490,2312,2091
910177,319740,323232,377300,377300,1630,2370,2462,-1089,997,-1855,2993,4213,89,46,808,1085,1278,782,1108,1554,1490,2312,2091
911178,320224,323528,377768,377768,1304,2399,2157,-1591,1014,-4856,852,1585,83,36,811,1173,1301,801,1226,1330,1340,1994,1787
912179,320696,323828,378236,378236,1379,2378,1783,-1829,833,-2042,1199,2161,93,37,815,1173,1301,801,1226,1330,1340,1994,1787
913180,321168,324124,378704,378704,1379,2407,1471,-2326,851,-2370,1251,1703,87,31,814,1173,1301,801,1226,1330,1340,1994,1787
914181,321676,324472,379172,379172,1153,2085,1251,-3044,755,516,2375,2022,98,38,814,1173,1301,801,1226,1330,1340,1994,1787
915182,322172,324800,379640,379640,1228,2213,1078,-3312,540,-568,-731,4290,95,37,819,1173,1301,801,1226,1330,1340,1994,1787
916183,322724,325124,380108,380108,875,2242,988,-3071,533,-4441,-745,4380,101,58,818,1111,1218,757,1099,1323,1292,1942,1846
917184,323252,325448,380576,380576,1024,2245,875,-2561,396,-1663,490,3863,93,44,821,1111,1218,757,1099,1323,1292,1942,1846
918185,323780,325736,381044,381044,1023,2475,832,-2181,414,-834,-491,2257,93,54,821,1111,1218,757,1099,1323,1292,1942,1846
919186,324308,326056,381512,381512,1021,2278,760,-2057,530,1227,-945,1825,106,44,818,1111,1218,757,1099,1323,1292,1942,1846
920187,324880,326320,381980,381980,744,2633,693,-2011,442,2875,-566,3257,105,27,818,1111,1218,757,1099,1323,1292,1942,1846
921188,325416,326572,382448,382448,967,2714,839,-1891,290,163,-532,3603,97,37,813,1111,1218,757,1099,1323,1292,1942,1846
922189,326048,326816,382916,382916,363,2769,1104,-1860,28,-155,372,2667,111,20,811,982,1095,713,997,1450,1382,2027,1851
923190,326644,327104,383384,383384,585,2499,1442,-1641,-236,-1096,-473,2731,111,-1,813,982,1095,713,997,1450,1382,2027,1851
924191,327192,327392,383852,383852,883,2503,1648,-1620,-374,-3500,1528,1201,120,9,818,982,1095,713,997,1450,1382,2027,1851
925192,327740,327664,384320,384320,881,2608,1631,-1839,-520,-3438,1180,1030,112,33,814,982,1095,713,997,1450,1382,2027,1851
926193,328332,327908,384788,384788,603,2788,1506,-2193,-603,-3525,1521,-566,118,26,815,982,1095,713,997,1450,1382,2027,1851
927194,328936,328184,385256,385256,525,2593,1392,-2416,-623,-3686,3188,1728,121,24,812,1028,1131,739,1121,1268,1258,1822,1608
928195,329464,328456,385724,385724,998,2623,1147,-2247,-683,-1340,2065,3428,110,-1,815,1028,1131,739,1121,1268,1258,1822,1608
929196,330060,328680,386192,386192,570,2929,847,-2137,-728,246,3466,2855,114,7,813,1028,1131,739,1121,1268,1258,1822,1608
930197,330600,328916,386660,386660,918,2859,650,-2028,-682,-1349,2630,321,119,14,810,1028,1131,739,1121,1268,1258,1822,1608
931198,331172,329132,387128,387128,716,2990,520,-2073,-768,-2824,2395,-1925,112,-22,809,1028,1131,739,1121,1268,1258,1822,1608
932199,331808,329388,387596,387596,312,2746,206,-2098,-954,-2346,1574,-1156,119,-8,809,1028,1131,739,1121,1268,1258,1822,1608
933200,332388,329676,388064,388064,659,2550,-209,-2747,-879,-3059,1737,-2669,125,-20,815,1171,1245,783,1224,1203,1238,1807,1659
934201,332944,329996,388532,388532,807,2354,-800,-3574,-491,-1642,-472,735,123,8,816,1171,1245,783,1224,1203,1238,1807,1659
935202,333456,330332,389000,389000,1081,2257,-685,-3511,-253,-794,-1519,2091,109,35,819,1171,1245,783,1224,1203,1238,1807,1659
936203,333996,330708,389468,389468,904,2009,-401,-3365,-140,904,-2345,1349,118,43,818,1171,1245,783,1224,1203,1238,1807,1659
937204,334608,331100,389936,389936,450,1911,-52,-3334,12,824,-2104,440,131,56,824,1171,1245,783,1224,1203,1238,1807,1659
938205,335172,331476,390404,390404,748,2013,130,-3321,126,-86,-393,2846,121,65,827,1057,1145,738,1035,1410,1354,2019,1913
939206,335664,331860,390872,390872,1197,1965,173,-3186,81,1291,-1871,2234,113,60,828,1057,1145,738,1035,1410,1354,2019,1913
940207,336236,332264,391340,391340,695,1842,235,-2810,-61,3612,-2538,1422,117,55,825,1057,1145,738,1035,1410,1354,2019,1913
941208,336752,332772,391808,391808,1044,1191,556,-2920,-30,-262,408,-417,101,67,828,1057,1145,738,1035,1410,1354,2019,1913
942209,337304,333200,392276,392276,817,1692,619,-2715,-145,-544,1359,4688,116,65,833,1057,1145,738,1035,1410,1354,2019,1913
943210,337860,333652,392744,392744,789,1542,377,-2538,-354,934,2309,2065,101,78,833,1057,1145,738,1035,1410,1354,2019,1913
944211,338420,334120,393216,393216,762,1442,111,-2526,-508,689,2033,292,108,72,833,967,1098,698,991,1352,1261,1904,1721
945212,338964,334604,393684,393684,860,1342,-130,-2892,-586,-890,2885,-1249,99,74,834,967,1098,698,991,1352,1261,1904,1721
946213,339508,335064,394152,394152,859,1492,-385,-3231,-617,-1597,3644,971,115,65,835,967,1098,698,991,1352,1261,1904,1721
947214,340092,335508,394620,394620,606,1593,-772,-3489,-572,-1129,2565,-405,112,67,833,967,1098,698,991,1352,1261,1904,1721
948215,340644,336020,395088,395088,804,1167,-1064,-3539,-509,-1184,2654,1557,100,84,834,967,1098,698,991,1352,1261,1904,1721
949216,341220,336620,395556,395556,651,613,-1218,-3669,-434,-1820,835,279,101,79,837,1061,1175,731,1122,1236,1240,1836,1640
950217,341788,337148,396024,396024,699,1062,-1100,-3671,-297,-1335,1314,-72,110,89,842,1061,1175,731,1122,1236,1240,1836,1640
951218,342352,337692,396492,396492,721,960,-1080,-3667,-139,-170,-857,860,121,82,841,1061,1175,731,1122,1236,1240,1836,1640
952219,342976,338276,396960,396960,342,707,-1007,-3820,-2,-258,-443,-491,110,91,841,1061,1175,731,1122,1236,1240,1836,1640
953220,343532,338796,397428,397428,765,1106,-946,-3883,190,1275,-1642,-95,119,81,845,1061,1175,731,1122,1236,1240,1836,1640
954221,344088,339380,397896,397896,763,703,-854,-3798,383,1873,-3556,368,119,96,842,1061,1175,731,1122,1236,1240,1836,1640
955222,344632,339980,398364,398364,836,600,-713,-3353,435,1068,-2713,164,108,92,841,1095,1161,768,1169,1320,1347,1894,1682
956223,345224,340612,398832,398832,533,396,-415,-3085,423,1050,-2409,11,109,104,843,1095,1161,768,1169,1320,1347,1894,1682
957224,345840,341164,399300,399300,380,894,-178,-2916,458,1557,-2010,481,120,96,846,1095,1161,768,1169,1320,1347,1894,1682
958225,346376,341728,399768,399768,878,816,-114,-2900,410,707,-550,943,124,102,846,1095,1161,768,1169,1320,1347,1894,1682
959226,347004,342328,400236,400236,299,588,-255,-3002,227,-391,421,620,116,104,843,1095,1161,768,1169,1320,1347,1894,1682
960227,347520,342848,400704,400704,998,1087,-468,-2966,3,-101,900,481,110,110,846,1073,1127,750,1139,1256,1252,1771,1544
961228,348068,343436,401172,401172,796,659,-590,-2883,-175,-365,455,274,133,99,842,1073,1127,750,1139,1256,1252,1771,1544
962229,348664,344096,401640,401640,493,204,-672,-2809,-426,-1462,2392,208,120,109,843,1073,1127,750,1139,1256,1252,1771,1544
963230,349216,344632,402108,402108,766,978,-832,-2624,-667,-2026,1633,2697,131,100,847,1073,1127,750,1139,1256,1252,1771,1544
964231,349812,345220,402576,402576,488,650,-888,-2779,-763,-1808,1734,837,131,105,843,1073,1127,750,1139,1256,1252,1771,1544
965232,350376,345764,403044,403044,685,923,-1054,-2875,-805,-373,1431,1472,137,113,845,1073,1127,750,1139,1256,1252,1771,1544
966233,351016,346312,403512,403512,206,896,-1031,-3069,-764,-1243,1047,787,130,114,844,1037,1106,708,1089,1216,1216,1791,1609
967234,351640,346976,403980,403980,302,166,-1061,-3152,-734,-892,1000,-391,118,107,845,1037,1106,708,1089,1216,1216,1791,1609
968235,352196,347548,404448,404448,725,739,-1055,-2999,-636,-1052,-481,1189,133,122,849,1037,1106,708,1089,1216,1216,1791,1609
969236,352832,348068,404916,404916,221,1062,-932,-2657,-577,-274,-380,370,120,115,846,1037,1106,708,1089,1216,1216,1791,1609
970237,353468,348616,405384,405384,217,885,-747,-2423,-455,309,-1828,317,117,110,844,1037,1106,708,1089,1216,1216,1791,1609
971238,354116,349220,405852,405852,138,532,-600,-2064,-296,1260,-1244,1252,129,114,845,1018,1118,721,1081,1320,1313,1942,1773
972239,354804,349796,406320,406320,-118,704,-474,-2010,-161,993,-1182,-480,136,125,846,1018,1118,721,1081,1320,1313,1942,1773
973240,355460,350336,406788,406788,78,928,-403,-1980,-118,1052,-955,-431,133,116,847,1018,1118,721,1081,1320,1313,1942,1773
974241,356136,350908,407256,407256,-52,725,-462,-1819,-115,1988,-477,-406,125,114,846,1018,1118,721,1081,1320,1313,1942,1773
975242,356812,351488,407724,407724,-58,672,-550,-1510,-192,2713,632,156,135,120,847,1018,1118,721,1081,1320,1313,1942,1773
976243,357376,352104,408192,408192,640,444,-593,-1290,-357,2908,882,788,129,125,848,1018,1118,721,1081,1320,1313,1942,1773
977244,357988,352616,408660,408660,337,1093,-665,-1168,-474,1624,650,-169,122,105,847,1087,1195,766,1144,1290,1274,1851,1656
978245,358596,353192,409128,409128,358,690,-783,-1291,-479,-711,-601,-789,125,107,845,1087,1195,766,1144,1290,1274,1851,1656
980247,359816,354352,410068,410068,351,385,-1115,-1875,-631,-1294,56,-1107,119,113,846,1087,1195,766,1144,1290,1274,1851,1656
981248,360424,354852,410536,410536,348,1159,-1234,-1977,-759,-607,269,-670,138,125,847,1087,1195,766,1144,1290,1274,1851,1656
982249,361104,355480,411004,411004,-107,355,-1242,-1941,-849,-559,395,217,123,117,845,1107,1180,748,1124,1208,1197,1733,1565
983250,361724,356012,411472,411472,264,954,-1277,-1737,-996,435,587,2502,132,119,847,1107,1180,748,1124,1208,1197,1733,1565
984251,362288,356600,411940,411940,612,601,-1219,-1792,-1024,-465,-350,1720,115,108,847,1107,1180,748,1124,1208,1197,1733,1565
985252,362888,357140,412408,412408,383,899,-1051,-1948,-1002,-278,1490,2914,127,125,846,1107,1180,748,1124,1208,1197,1733,1565
986253,363504,357724,412876,412876,280,621,-887,-2146,-972,-610,-663,935,112,119,846,1107,1180,748,1124,1208,1197,1733,1565
987254,364140,358308,413344,413344,151,618,-739,-2317,-936,-1361,-379,2361,123,112,847,1107,1180,748,1124,1208,1197,1733,1565
988255,364688,358856,413812,413812,699,841,-546,-2892,-801,-2143,-396,-266,133,108,848,995,1073,696,1032,1248,1236,1799,1648
