%  Data file recorded 2016/10/8  18:10:23
%  Stride Frequency         = [1, 1]
%  Lead In /Lead Out        = 
%  Deltas (Fractional)      = [0.25, 0.25, 0.25],[0.25, 0.25, 0.25]
%  Phase                    = 32768
%  Experiment.py 
%  Motor Gains    = [5000, 400, 200, 0, 300, 5000, 400, 200, 0, 300]
% Columns: 
% time | Right Leg Pos | Left Leg Pos | Commanded Right Leg Pos | Commanded Left Leg Pos | DCR | DCL | GyroX | GyroY | GyroZ | AX | AY | AZ | RBEMF | LBEMF | VBatt | S1 | S2 | S3 | S4 | S5 | S6 | S7 | S8
376,17832,-15468,17560,-15208,3800,-3800,-10,-3,4,-113,99,3932,5,7,887,1815,1889,2094,2289,2046,1822,1858,1972
1377,17832,-15468,17560,-15208,3800,-3800,-10,-2,4,-98,82,3887,-9,0,887,1815,1889,2094,2289,2046,1822,1858,1972
2379,17832,-15464,17560,-15208,3800,-3800,-8,-5,7,-110,103,3920,1,-5,887,1815,1889,2094,2289,2046,1822,1858,1972
3379,17836,-15468,17560,-15208,3800,-3800,-9,-5,3,-102,101,3953,4,6,887,1815,1889,2094,2289,2046,1822,1858,1972
4380,17840,-15476,17560,-15208,3800,-3800,-10,-4,2,-99,93,3944,-6,-6,887,1814,1888,2094,2289,2048,1823,1859,1973
5381,17828,-15476,17560,-15208,3800,-3800,-8,-5,-2,-85,98,3932,5,5,887,1814,1888,2094,2289,2048,1823,1859,1973
6382,17828,-15464,17560,-15208,3800,-3800,-9,-4,-1,-111,81,3952,-10,-1,887,1814,1888,2094,2289,2048,1823,1859,1973
7383,17828,-15476,17560,-15208,3800,-3800,-7,-3,2,-110,54,3915,8,-7,887,1814,1888,2094,2289,2048,1823,1859,1973
8384,17828,-15468,17560,-15208,3800,-3800,-7,-3,5,-98,72,3900,-10,8,887,1814,1888,2094,2289,2048,1823,1859,1973
9385,17828,-15472,17560,-15208,3800,-3800,-6,-3,5,-95,78,3939,8,-2,887,1815,1892,2095,2292,2047,1824,1859,1974
10386,17820,-15460,17560,-15208,3800,-3800,-8,-6,3,-90,76,3912,-11,-7,887,1815,1892,2095,2292,2047,1824,1859,1974
11387,17844,-15472,17560,-15208,3800,-3800,-10,-6,1,-102,78,3907,9,7,887,1815,1892,2095,2292,2047,1824,1859,1974
12388,17828,-15480,17560,-15208,3800,-3800,-8,-6,4,-122,85,3944,-8,-4,887,1815,1892,2095,2292,2047,1824,1859,1974
13389,17832,-15460,17560,-15208,3800,-3800,-7,-6,5,-119,99,3914,5,-4,887,1815,1892,2095,2292,2047,1824,1859,1974
14390,17836,-15456,17560,-15208,3800,-3800,-9,-6,3,-111,81,3916,-7,7,887,1815,1892,2095,2292,2047,1824,1859,1974
15391,17832,-15460,17560,-15208,3800,-3800,-10,-6,2,-99,91,3943,-2,-6,887,1815,1891,2096,2290,2048,1823,1857,1971
16392,17828,-15464,17560,-15208,3800,-3800,-9,-4,2,-112,95,3948,-1,-6,887,1815,1891,2096,2290,2048,1823,1857,1971
17393,17832,-15468,17560,-15208,3800,-3800,-10,-6,1,-99,112,3961,-3,7,887,1815,1891,2096,2290,2048,1823,1857,1971
18394,17828,-15476,17560,-15208,3800,-3800,-8,-8,1,-86,110,3943,7,-1,887,1815,1891,2096,2290,2048,1823,1857,1971
19395,17832,-15468,17560,-15208,3800,-3800,-8,-6,2,-84,94,3933,-9,-5,886,1815,1891,2096,2290,2048,1823,1857,1971
20396,17828,-15460,17560,-15208,3800,-3800,-8,-6,2,-97,73,3915,-2,1,885,1814,1889,2094,2290,2048,1824,1859,1975
21397,17836,-15476,17560,-15208,3800,-3800,-9,-5,0,-89,80,3930,9,-4,887,1814,1889,2094,2290,2048,1824,1859,1975
22398,17824,-15468,17560,-15208,3800,-3800,-12,-5,-1,-96,95,3900,-10,6,887,1814,1889,2094,2290,2048,1824,1859,1975
23399,17824,-15480,17560,-15208,3800,-3800,-13,-6,1,-97,82,3947,8,1,887,1814,1889,2094,2290,2048,1824,1859,1975
24400,17832,-15476,17560,-15208,3800,-3800,-10,-5,2,-104,75,3931,-3,-5,887,1814,1889,2094,2290,2048,1824,1859,1975
25401,17828,-15472,17560,-15208,3800,-3800,-12,-5,3,-118,82,3928,-7,4,887,1814,1889,2094,2290,2048,1824,1859,1975
26402,17832,-15460,17560,-15208,3800,-3800,-13,-7,3,-90,48,3891,9,2,887,1816,1890,2096,2289,2048,1824,1859,1974
27403,17836,-15472,17560,-15208,3800,-3800,-12,-7,3,-116,52,3910,-4,-7,887,1816,1890,2096,2289,2048,1824,1859,1974
28404,17844,-15464,17560,-15208,3800,-3800,-13,-4,1,-98,74,3913,-5,-1,887,1816,1890,2096,2289,2048,1824,1859,1974
29405,17824,-15452,17560,-15208,3800,-3800,-11,-3,-1,-112,60,3920,7,7,887,1816,1890,2096,2289,2048,1824,1859,1974
30406,17840,-15456,17560,-15208,3800,-3800,-11,-5,0,-94,64,3920,-11,-2,887,1816,1890,2096,2289,2048,1824,1859,1974
31407,17832,-15464,17560,-15208,3800,-3800,-10,-7,1,-99,48,3899,7,-7,887,1814,1890,2095,2289,2048,1823,1859,1971
32408,17832,-15460,17560,-15208,3800,-3800,-13,-4,2,-91,70,3922,-7,1,887,1814,1890,2095,2289,2048,1823,1859,1971
33409,17832,-15476,17560,-15208,3800,-3800,-15,-3,-1,-111,78,3909,-10,4,887,1814,1890,2095,2289,2048,1823,1859,1971
34410,17840,-15468,17560,-15208,3800,-3800,-16,-5,0,-98,76,3913,6,-4,887,1814,1890,2095,2289,2048,1823,1859,1971
35411,17836,-15476,17560,-15208,3800,-3800,-15,-8,0,-96,89,3929,-7,-2,887,1814,1890,2095,2289,2048,1823,1859,1971
36412,17836,-15468,17560,-15208,3800,-3800,-15,-8,0,-83,79,3930,-7,2,885,1814,1890,2095,2289,2048,1823,1859,1971
37413,17836,-15468,17560,-15208,3800,-3800,-17,-6,2,-113,88,3944,3,-7,886,1813,1887,2094,2288,2048,1822,1859,1974
38414,17836,-15456,17560,-15208,3800,-3800,-18,-4,3,-105,79,3915,3,6,887,1813,1887,2094,2288,2048,1822,1859,1974
39415,17836,-15468,17560,-15208,3800,-3800,-18,-4,0,-88,77,3961,-8,2,887,1813,1887,2094,2288,2048,1822,1859,1974
40416,17832,-15468,17560,-15208,3800,-3800,-16,-4,-2,-95,82,3929,9,-5,887,1813,1887,2094,2288,2048,1822,1859,1974
41417,17832,-15460,17560,-15208,3800,-3800,-15,-1,0,-92,63,3919,-7,1,887,1813,1887,2094,2288,2048,1822,1859,1974
42418,17832,-15468,17560,-15208,3800,-3800,-13,-2,4,-125,92,3938,-10,4,887,1814,1890,2094,2290,2046,1824,1858,1974
43419,17828,-15468,17560,-15208,3800,-3800,-15,-5,3,-133,76,3935,7,-7,887,1814,1890,2094,2290,2046,1824,1858,1974
44420,17840,-15464,17560,-15208,3800,-3800,-13,-5,1,-130,59,3914,-3,5,887,1814,1890,2094,2290,2046,1824,1858,1974
45421,17824,-15464,17560,-15208,3800,-3800,-13,-4,3,-131,67,3939,-10,0,887,1814,1890,2094,2290,2046,1824,1858,1974
46422,17836,-15472,17560,-15208,3800,-3800,-12,-5,4,-130,57,3892,9,-7,887,1814,1890,2094,2290,2046,1824,1858,1974
47423,17832,-15468,17560,-15208,3800,-3800,-12,-5,4,-117,63,3890,-7,6,887,1814,1890,2094,2290,2046,1824,1858,1974
48424,17836,-15468,17560,-15208,3800,-3800,-10,-6,2,-127,57,3916,-9,1,887,1815,1891,2097,2291,2048,1823,1859,1975
49425,17820,-15464,17560,-15208,3800,-3800,-10,-6,2,-128,63,3865,7,-7,887,1815,1891,2097,2291,2048,1823,1859,1975
50426,17824,-15468,17560,-15208,3800,-3800,-12,-5,0,-104,83,3924,-4,4,887,1815,1891,2097,2291,2048,1823,1859,1975
51427,17832,-15464,17560,-15208,3800,-3800,-10,-7,-1,-95,76,3904,8,3,887,1815,1891,2097,2291,2048,1823,1859,1975
52428,17832,-15476,17560,-15208,3800,-3800,-10,-8,-1,-88,66,3914,-10,-7,887,1815,1891,2097,2291,2048,1823,1859,1975
53429,17816,-15468,17560,-15208,3800,-3800,-13,-7,-1,-107,100,3945,9,8,885,1815,1890,2095,2291,2048,1822,1859,1974
54430,17832,-15464,17560,-15208,3800,-3800,-12,-7,0,-97,82,3986,9,-7,885,1815,1890,2095,2291,2048,1822,1859,1974
55431,17832,-15460,17560,-15208,3800,-3800,-10,-8,0,-114,69,3922,-1,0,887,1815,1890,2095,2291,2048,1822,1859,1974
56432,17828,-15468,17560,-15208,3800,-3800,-13,-7,0,-119,102,3920,-8,7,887,1815,1890,2095,2291,2048,1822,1859,1974
57433,17832,-15476,17560,-15208,3800,-3800,-14,-7,0,-106,95,3902,7,-7,887,1815,1890,2095,2291,2048,1822,1859,1974
58434,17824,-15468,17560,-15208,3800,-3800,-13,-7,3,-124,68,3898,1,-5,887,1815,1890,2095,2291,2048,1822,1859,1974
59435,17832,-15460,17560,-15208,3800,-3800,-12,-6,2,-96,78,3919,-7,7,887,1816,1892,2096,2289,2046,1824,1858,1974
60436,17828,-15464,17560,-15208,3800,-3800,-12,-7,2,-82,94,3909,7,-4,887,1816,1892,2096,2289,2046,1824,1858,1974
61437,17828,-15460,17560,-15208,3800,-3800,-9,-10,2,-109,95,3904,-6,-7,887,1816,1892,2096,2289,2046,1824,1858,1974
62438,17836,-15448,17560,-15208,3800,-3800,-9,-9,2,-110,52,3924,-5,7,887,1816,1892,2096,2289,2046,1824,1858,1974
63439,17836,-15468,17560,-15208,3800,-3800,-10,-5,5,-118,47,3922,8,0,887,1816,1892,2096,2289,2046,1824,1858,1974
64440,17836,-15468,17560,-15208,3800,-3800,-9,-3,5,-111,77,3909,-4,-6,887,1815,1890,2096,2291,2047,1821,1858,1975
65441,17832,-15472,17560,-15208,3800,-3800,-9,-6,6,-105,68,3900,1,0,887,1815,1890,2096,2291,2047,1821,1858,1975
66442,17828,-15464,17560,-15208,3800,-3800,-9,-6,4,-125,88,3941,7,5,887,1815,1890,2096,2291,2047,1821,1858,1975
67443,17832,-15464,17560,-15208,3800,-3800,-9,-5,3,-124,57,3925,-11,-4,887,1815,1890,2096,2291,2047,1821,1858,1975
68444,17832,-15468,17560,-15208,3800,-3800,-7,-6,1,-111,62,3922,9,0,887,1815,1890,2096,2291,2047,1821,1858,1975
69445,17828,-15476,17560,-15208,3800,-3800,-6,-7,0,-107,102,3939,-5,4,887,1815,1890,2096,2291,2047,1821,1858,1975
70446,17832,-15476,17560,-15208,3800,-3800,-7,-6,1,-100,80,3937,-7,-6,885,1814,1888,2093,2289,2047,1823,1860,1975
71447,17824,-15472,17560,-15208,3800,-3800,-11,-6,2,-103,89,3946,-3,5,885,1814,1888,2093,2289,2047,1823,1860,1975
72448,17816,-15472,17560,-15208,3800,-3800,-10,-7,1,-102,86,3950,5,6,887,1814,1888,2093,2289,2047,1823,1860,1975
73449,17828,-15460,17560,-15208,3800,-3800,-9,-6,-1,-83,77,3906,-2,-2,887,1814,1888,2093,2289,2047,1823,1860,1975
74450,17836,-15460,17560,-15208,3800,-3800,-7,-4,-2,-90,76,3924,-6,-5,887,1814,1888,2093,2289,2047,1823,1860,1975
75451,17832,-15468,17560,-15208,3800,-3800,-11,-3,1,-93,47,3921,8,7,887,1813,1889,2093,2288,2047,1823,1858,1974
76452,17828,-15464,17560,-15208,3800,-3800,-9,-1,2,-114,62,3928,0,-3,887,1813,1889,2093,2288,2047,1823,1858,1974
77453,17828,-15484,17560,-15208,3800,-3800,-8,-2,2,-114,98,3931,-10,-3,887,1813,1889,2093,2288,2047,1823,1858,1974
78454,17832,-15476,17560,-15208,3800,-3800,-9,-3,2,-102,114,3934,-3,8,887,1813,1889,2093,2288,2047,1823,1858,1974
79455,17844,-15464,17560,-15208,3800,-3800,-10,-3,2,-115,102,3909,9,1,887,1813,1889,2093,2288,2047,1823,1858,1974
80456,17820,-15472,17560,-15208,3800,-3800,-10,-3,2,-102,78,3915,-8,-5,887,1813,1889,2093,2288,2047,1823,1858,1974
81457,17828,-15468,17560,-15208,3800,-3800,-9,-6,3,-112,101,3897,-6,8,887,1811,1890,2095,2292,2048,1824,1860,1975
82458,17840,-15476,17560,-15208,3800,-3800,-8,-8,5,-109,115,3911,4,-1,887,1811,1890,2095,2292,2048,1824,1860,1975
83459,17832,-15464,17560,-15208,3800,-3800,-10,-9,5,-111,82,3889,-10,-4,887,1811,1890,2095,2292,2048,1824,1860,1975
84460,17828,-15476,17560,-15208,3800,-3800,-10,-7,5,-127,67,3886,3,6,887,1811,1890,2095,2292,2048,1824,1860,1975
85461,17828,-15472,17560,-15208,3800,-3800,-9,-4,3,-133,61,3894,-2,-7,887,1811,1890,2095,2292,2048,1824,1860,1975
86462,17836,-15464,17560,-15208,3800,-3800,-12,-6,4,-115,81,3908,-2,2,887,1814,1889,2094,2290,2048,1824,1859,1975
87463,17832,-15456,17560,-15208,3800,-3800,-12,-5,3,-110,78,3911,9,1,885,1814,1889,2094,2290,2048,1824,1859,1975
88464,17840,-15472,17560,-15208,3800,-3800,-11,-6,1,-82,83,3899,0,-6,886,1814,1889,2094,2290,2048,1824,1859,1975
89465,17832,-15464,17560,-15208,3800,-3800,-13,-6,0,-83,86,3877,-5,7,887,1814,1889,2094,2290,2048,1824,1859,1975
90466,17832,-15472,17560,-15208,3800,-3800,-12,-6,1,-74,87,3889,9,-2,887,1814,1889,2094,2290,2048,1824,1859,1975
91467,17832,-15460,17560,-15208,3800,-3800,-14,-5,2,-93,92,3914,-11,-7,887,1814,1889,2094,2290,2048,1824,1859,1975
92468,17832,-15472,17560,-15208,3800,-3800,-13,-3,1,-98,77,3904,8,7,887,1814,1889,2094,2289,2048,1822,1857,1973
93469,17828,-15456,17560,-15208,3800,-3800,-11,-5,3,-82,70,3955,-5,-5,887,1814,1889,2094,2289,2048,1822,1857,1973
94470,17832,-15468,17560,-15208,3800,-3800,-9,-7,3,-101,52,3902,3,-3,887,1814,1889,2094,2289,2048,1822,1857,1973
95471,17824,-15472,17560,-15208,3800,-3800,-9,-3,4,-112,74,3932,-5,7,887,1814,1889,2094,2289,2048,1822,1857,1973
96472,17832,-15464,17560,-15208,3800,-3800,-10,-1,6,-98,93,3950,-7,-7,887,1814,1889,2094,2289,2048,1822,1857,1973
97473,17836,-15480,17560,-15208,3800,-3800,-9,-2,4,-101,85,3895,6,-6,887,1816,1890,2096,2288,2046,1824,1858,1974
98474,17824,-15456,17560,-15208,3800,-3800,-11,-6,5,-94,93,3903,-10,8,887,1816,1890,2096,2288,2046,1824,1858,1974
99475,17828,-15464,17560,-15208,3800,-3800,-15,-5,4,-88,82,3929,7,-7,887,1816,1890,2096,2288,2046,1824,1858,1974
100476,17828,-15472,17560,-15208,3800,-3800,-16,-4,4,-85,105,3906,-10,-1,887,1816,1890,2096,2288,2046,1824,1858,1974
101477,17832,-15476,17560,-15208,3800,-3800,-12,-4,5,-111,85,3917,6,6,887,1816,1890,2096,2288,2046,1824,1858,1974
102478,17824,-15456,17560,-15208,3800,-3800,-8,-5,5,-109,71,3943,7,-6,887,1816,1890,2096,2288,2046,1824,1858,1974
103479,17828,-15476,17560,-15208,3800,-3800,-10,-6,2,-95,79,3942,-10,6,887,1813,1887,2093,2289,2046,1823,1857,1975
104480,17828,-15464,17560,-15208,3800,-3800,-13,-6,2,-92,67,3918,4,-5,885,1813,1887,2093,2289,2046,1823,1857,1975
105481,17832,-15468,17560,-15208,3800,-3800,-14,-7,2,-93,60,3924,1,4,885,1813,1887,2093,2289,2046,1823,1857,1975
106482,17836,-15472,17560,-15208,3800,-3800,-13,-6,0,-92,74,3903,3,7,887,1813,1887,2093,2289,2046,1823,1857,1975
107483,17832,-15468,17560,-15208,3800,-3800,-11,-6,2,-96,89,3878,-9,-2,887,1813,1887,2093,2289,2046,1823,1857,1975
108484,17836,-15472,17560,-15208,3800,-3800,-12,-5,1,-72,88,3898,8,-2,887,1812,1888,2092,2288,2046,1821,1858,1973
109485,17824,-15464,17560,-15208,3800,-3800,-12,-6,-1,-90,81,3869,-10,7,887,1812,1888,2092,2288,2046,1821,1858,1973
110486,17824,-15468,17560,-15208,3800,-3800,-13,-6,-2,-107,90,3895,5,-2,887,1812,1888,2092,2288,2046,1821,1858,1973
111487,17828,-15476,17560,-15208,3800,-3800,-15,-5,0,-96,89,3912,1,-4,887,1812,1888,2092,2288,2046,1821,1858,1973
112488,17832,-15464,17560,-15208,3800,-3800,-13,-6,-1,-71,72,3926,-6,8,887,1812,1888,2092,2288,2046,1821,1858,1973
113489,17832,-15472,17560,-15208,3800,-3800,-7,-8,0,-85,85,3932,1,0,887,1812,1888,2092,2288,2046,1821,1858,1973
114490,17836,-15472,17560,-15208,3800,-3800,-8,-8,0,-93,83,3900,-7,-7,887,1816,1892,2096,2290,2048,1824,1859,1975
115491,17832,-15456,17560,-15208,3800,-3800,-10,-7,2,-129,53,3881,3,-1,887,1816,1892,2096,2290,2048,1824,1859,1975
116492,17832,-15468,17560,-15208,3800,-3800,-10,-6,0,-100,57,3889,-2,7,887,1816,1892,2096,2290,2048,1824,1859,1975
117493,17828,-15472,17560,-15208,3800,-3800,-12,-7,-1,-106,82,3886,4,1,887,1816,1892,2096,2290,2048,1824,1859,1975
118494,17840,-15464,17560,-15208,3800,-3800,-13,-5,0,-107,80,3886,-2,-6,887,1816,1892,2096,2290,2048,1824,1859,1975
119495,17836,-15468,17560,-15208,3800,-3800,-14,-6,-1,-119,73,3885,-4,0,887,1815,1889,2094,2290,2048,1824,1861,1977
120496,17828,-15464,17560,-15208,3800,-3800,-12,-6,0,-117,83,3936,-5,7,887,1815,1889,2094,2290,2048,1824,1861,1977
121497,17828,-15464,17560,-15208,3800,-3800,-14,-5,0,-91,74,3940,4,-4,885,1815,1889,2094,2290,2048,1824,1861,1977
122498,17832,-15472,17560,-15208,3800,-3800,-14,-6,-2,-92,83,3959,-9,4,887,1815,1889,2094,2290,2048,1824,1861,1977
123499,17828,-15480,17560,-15208,3800,-3800,-11,-6,-2,-92,81,3869,-4,3,887,1815,1889,2094,2290,2048,1824,1861,1977
124500,17828,-15456,17560,-15208,3800,-3800,-13,-6,-1,-74,73,3896,2,-5,887,1815,1889,2094,2290,2048,1824,1861,1977
125501,17820,-15464,17560,-15208,3800,-3800,-15,-5,-1,-72,92,3913,-4,-3,887,1815,1890,2095,2291,2048,1823,1859,1974
126502,17836,-15476,17560,-15208,3800,-3800,-12,-6,1,-79,93,3930,9,6,887,1815,1890,2095,2291,2048,1823,1859,1974
127503,17832,-15460,17560,-15208,3800,-3800,-12,-7,1,-104,75,3926,-10,8,887,1815,1890,2095,2291,2048,1823,1859,1974
128504,17832,-15460,17560,-15208,3800,-3800,-12,-6,-1,-97,66,3980,8,1,887,1815,1890,2095,2291,2048,1823,1859,1974
129507,17832,-15468,17560,-15208,3800,-3800,-13,-5,-1,-99,63,3940,2,-7,887,1815,1890,2095,2291,2048,1823,1859,1974
130506,17820,-15468,17560,-15208,3800,-3800,-12,-6,2,-122,73,3917,-9,3,887,1815,1892,2098,2292,2048,1824,1859,1975
131507,17832,-15468,17560,-15208,3800,-3800,-10,-7,0,-126,59,3945,8,6,887,1815,1892,2098,2292,2048,1824,1859,1975
132508,17836,-15464,17560,-15208,3800,-3800,-10,-5,0,-117,80,3933,-2,-6,887,1815,1892,2098,2292,2048,1824,1859,1975
133509,17828,-15460,17560,-15208,3800,-3800,-14,-5,0,-100,74,3897,-4,-5,887,1815,1892,2098,2292,2048,1824,1859,1975
134510,17828,-15464,17560,-15208,3800,-3800,-11,-7,0,-98,50,3914,1,7,887,1815,1892,2098,2292,2048,1824,1859,1975
135511,17832,-15468,17560,-15208,3800,-3800,-9,-8,1,-105,60,3914,-7,3,887,1815,1892,2098,2292,2048,1824,1859,1975
136512,17832,-15468,17560,-15208,3800,-3800,-6,-4,4,-115,73,3949,4,-6,887,1814,1889,2093,2288,2047,1821,1859,1978
137513,17832,-15464,17560,-15208,3800,-3800,-8,-4,2,-121,72,3945,-9,-2,885,1814,1889,2093,2288,2047,1821,1859,1978
138514,17828,-15464,17560,-15208,3800,-3800,-10,-6,1,-105,63,3927,6,5,886,1814,1889,2093,2288,2047,1821,1859,1978
139515,17836,-15472,17560,-15208,3800,-3800,-11,-7,2,-114,79,3929,8,-5,887,1814,1889,2093,2288,2047,1821,1859,1978
140516,17832,-15468,17560,-15208,3800,-3800,-9,-5,3,-114,75,3876,-10,2,887,1814,1889,2093,2288,2047,1821,1859,1978
141517,17832,-15472,17560,-15208,3800,-3800,-8,-5,2,-116,62,3911,9,7,887,1813,1889,2093,2289,2046,1822,1858,1974
142518,17836,-15472,17560,-15208,3800,-3800,-9,-4,3,-100,53,3899,-11,1,887,1813,1889,2093,2289,2046,1822,1858,1974
143519,17832,-15460,17560,-15208,3800,-3800,-10,-3,2,-111,68,3881,8,-6,887,1813,1889,2093,2289,2046,1822,1858,1974
144520,17824,-15468,17560,-15208,3800,-3800,-11,-4,3,-105,72,3882,-10,7,887,1813,1889,2093,2289,2046,1822,1858,1974
145521,17824,-15464,17560,-15208,3800,-3800,-10,-5,6,-81,56,3889,3,7,887,1813,1889,2093,2289,2046,1822,1858,1974
146522,17832,-15468,17560,-15208,3800,-3800,-9,-2,6,-104,61,3911,-4,-7,887,1813,1889,2093,2289,2046,1822,1858,1974
147523,17836,-15472,17560,-15208,3800,-3800,-10,0,4,-104,70,3938,-6,0,887,1814,1889,2096,2290,2046,1822,1858,1975
148524,17828,-15464,17560,-15208,3800,-3800,-6,-2,3,-100,89,3901,5,7,887,1814,1889,2096,2290,2046,1822,1858,1975
149525,17828,-15460,17560,-15208,3800,-3800,-8,-3,0,-98,92,3904,-6,-5,887,1814,1889,2096,2290,2046,1822,1858,1975
150526,17832,-15476,17560,-15208,3800,-3800,-12,-5,2,-84,58,3906,9,2,887,1814,1889,2096,2290,2046,1822,1858,1975
151527,17840,-15460,17560,-15208,3800,-3800,-10,-4,6,-100,60,3899,-7,8,887,1814,1889,2096,2290,2046,1822,1858,1975
152528,17824,-15460,17560,-15208,3800,-3800,-9,-4,7,-96,66,3892,-3,-6,887,1814,1888,2093,2287,2046,1823,1860,1976
153529,17836,-15476,17560,-15208,3800,-3800,-7,-4,5,-71,97,3867,9,-1,887,1814,1888,2093,2287,2046,1823,1860,1976
154530,17824,-15464,17560,-15208,3800,-3800,-8,-5,3,-86,89,3929,-9,7,885,1814,1888,2093,2287,2046,1823,1860,1976
155531,17820,-15448,17560,-15208,3800,-3800,-9,-6,3,-89,90,3903,-3,-1,885,1814,1888,2093,2287,2046,1823,1860,1976
156532,17828,-15460,17560,-15208,3800,-3800,-8,-5,4,-106,94,3894,-4,-1,887,1814,1888,2093,2287,2046,1823,1860,1976
157533,17828,-15480,17560,-15208,3800,-3800,-10,-5,4,-107,98,3941,9,7,887,1814,1888,2093,2287,2046,1823,1860,1976
158534,17828,-15468,17560,-15208,3800,-3800,-10,-8,4,-97,102,3917,-10,-1,887,1813,1889,2093,2288,2047,1822,1859,1976
159535,17828,-15472,17560,-15208,3800,-3800,-11,-10,4,-79,86,3913,-3,-7,887,1813,1889,2093,2288,2047,1822,1859,1976
160536,17828,-15460,17560,-15208,3800,-3800,-13,-6,2,-84,105,3916,7,-6,887,1813,1889,2093,2288,2047,1822,1859,1976
161537,17828,-15460,17560,-15208,3800,-3800,-13,-2,4,-101,92,3897,-10,5,887,1813,1889,2093,2288,2047,1822,1859,1976
162538,17832,-15464,17560,-15208,3800,-3800,-11,-4,2,-80,87,3869,-1,3,887,1813,1889,2093,2288,2047,1822,1859,1976
163539,17824,-15468,17560,-15208,3800,-3800,-10,-5,2,-83,73,3905,-1,-5,887,1814,1890,2096,2290,2048,1823,1860,1976
164540,17840,-15464,17560,-15208,3800,-3800,-11,-7,2,-80,76,3857,-2,-1,887,1814,1890,2096,2290,2048,1823,1860,1976
165541,17820,-15472,17560,-15208,3800,-3800,-11,-10,1,-80,86,3889,7,7,887,1814,1890,2096,2290,2048,1823,1860,1976
166542,17828,-15464,17560,-15208,3800,-3800,-11,-8,-1,-113,116,3943,-10,1,887,1814,1890,2096,2290,2048,1823,1860,1976
167543,17836,-15472,17560,-15208,3800,-3800,-13,-8,-2,-104,85,3925,6,-5,887,1814,1890,2096,2290,2048,1823,1860,1976
168544,17824,-15464,17560,-15208,3800,-3800,-11,-10,-2,-66,74,3909,1,7,887,1814,1890,2096,2290,2048,1823,1860,1976
169545,17824,-15468,17560,-15208,3800,-3800,-11,-10,-2,-88,79,3889,-9,2,887,1811,1887,2095,2292,2050,1824,1860,1976
170546,17812,-15472,17560,-15208,3800,-3800,-11,-9,-2,-87,87,3886,9,-7,887,1811,1887,2095,2292,2050,1824,1860,1976
171547,17828,-15464,17560,-15208,3800,-3800,-11,-8,-2,-87,104,3884,7,3,886,1811,1887,2095,2292,2050,1824,1860,1976
172548,17828,-15464,17560,-15208,3800,-3800,-13,-6,1,-94,92,3943,-7,8,885,1811,1887,2095,2292,2050,1824,1860,1976
173549,17824,-15472,17560,-15208,3800,-3800,-10,-5,0,-111,71,3920,-10,-7,887,1811,1887,2095,2292,2050,1824,1860,1976
174550,17824,-15468,17560,-15208,3800,-3800,-9,-5,0,-107,81,3893,-6,2,887,1812,1888,2093,2289,2048,1823,1859,1975
175551,17828,-15460,17560,-15208,3800,-3800,-13,-3,-3,-111,72,3893,8,6,887,1812,1888,2093,2289,2048,1823,1859,1975
176552,17832,-15464,17560,-15208,3800,-3800,-14,-3,-3,-116,64,3950,-10,2,887,1812,1888,2093,2289,2048,1823,1859,1975
177553,17836,-15468,17560,-15208,3800,-3800,-16,-4,-1,-124,67,3968,-3,-7,887,1812,1888,2093,2289,2048,1823,1859,1975
178554,17832,-15472,17560,-15208,3800,-3800,-18,-5,-1,-127,57,3949,8,1,886,1812,1888,2093,2289,2048,1823,1859,1975
179556,17836,-15460,17560,-15208,3800,-3800,-17,-2,-2,-95,72,3932,-10,3,887,1812,1888,2093,2289,2048,1823,1859,1975
180556,17832,-15464,17560,-15208,3800,-3800,-16,-3,-2,-105,48,3918,1,-5,887,1813,1888,2095,2290,2048,1824,1859,1975
181557,17836,-15468,17560,-15208,3800,-3800,-14,-4,-2,-105,76,3913,1,3,887,1813,1888,2095,2290,2048,1824,1859,1975
182558,17832,-15480,17560,-15208,3800,-3800,-12,-6,-2,-104,72,3922,-5,2,887,1813,1888,2095,2290,2048,1824,1859,1975
183559,17828,-15468,17560,-15208,3800,-3800,-13,-6,-2,-92,61,3900,9,-6,887,1813,1888,2095,2290,2048,1824,1859,1975
184560,17828,-15456,17560,-15208,3800,-3800,-15,-5,-1,-73,81,3868,-9,2,887,1813,1888,2095,2290,2048,1824,1859,1975
185561,17832,-15472,17560,-15208,3800,-3800,-14,-7,0,-91,92,3883,0,2,887,1814,1890,2094,2289,2046,1824,1859,1975
186562,17828,-15464,17560,-15208,3800,-3800,-13,-8,1,-102,77,3877,9,-7,887,1814,1890,2094,2289,2046,1824,1859,1975
187563,17828,-15464,17560,-15208,3800,-3800,-13,-6,3,-90,78,3899,-10,2,886,1814,1890,2094,2289,2046,1824,1859,1975
188564,17832,-15452,17560,-15208,3800,-3800,-11,-6,2,-81,70,3916,-4,4,886,1814,1890,2094,2289,2046,1824,1859,1975
189565,17832,-15460,17560,-15208,3800,-3800,-11,-7,1,-84,75,3930,8,-2,885,1814,1890,2094,2289,2046,1824,1859,1975
190566,17832,-15464,17560,-15208,3800,-3800,-12,-5,0,-108,83,3952,7,6,887,1814,1890,2094,2289,2046,1824,1859,1975
191567,17840,-15476,17560,-15208,3800,-3800,-11,-6,0,-91,81,3945,-10,-7,886,1814,1890,2095,2289,2045,1821,1855,1976
192568,17836,-15464,17560,-15208,3800,-3800,-11,-7,0,-114,81,3900,-3,8,886,1814,1890,2095,2289,2045,1821,1855,1976
193569,17840,-15476,17560,-15208,3800,-3800,-11,-7,3,-126,82,3919,3,0,887,1814,1890,2095,2289,2045,1821,1855,1976
194570,17836,-15464,17560,-15208,3800,-3800,-11,-6,5,-90,90,3919,-6,-5,887,1814,1890,2095,2289,2045,1821,1855,1976
195571,17828,-15468,17560,-15208,3800,-3800,-8,-6,4,-100,89,3923,9,5,886,1814,1890,2095,2289,2045,1821,1855,1976
196572,17836,-15480,17560,-15208,3800,-3800,-8,-7,3,-100,53,3918,-4,-7,886,1814,1890,2096,2290,2047,1822,1859,1976
197573,17828,-15468,17560,-15208,3800,-3800,-10,-7,6,-104,60,3910,-9,7,886,1814,1890,2096,2290,2047,1822,1859,1976
198574,17828,-15468,17560,-15208,3800,-3800,-8,-7,5,-112,66,3892,4,-5,887,1814,1890,2096,2290,2047,1822,1859,1976
199575,17832,-15472,17560,-15208,3800,-3800,-8,-7,4,-106,65,3922,5,-6,887,1814,1890,2096,2290,2047,1822,1859,1976
200576,17824,-15472,17560,-15208,3800,-3800,-9,-5,5,-101,75,3927,-10,7,886,1814,1890,2096,2290,2047,1822,1859,1976
201577,17832,-15464,17625,-15143,72,716,-10,-4,5,-101,84,3933,-3,-4,886,1814,1890,2096,2290,2047,1822,1859,1976
202578,17832,-15456,17690,-15078,250,786,-10,-5,6,-99,87,3886,8,4,880,1814,1890,2093,2290,2047,1823,1859,1977
203579,17832,-15464,17755,-15013,330,1075,-9,-8,6,-81,97,3866,10,11,879,1814,1890,2093,2290,2047,1823,1859,1977
204580,17840,-15452,17820,-14948,299,890,-9,-11,4,-101,64,3935,7,13,874,1814,1890,2093,2290,2047,1823,1859,1977
205581,17840,-15424,17885,-14883,478,735,-8,-9,3,-106,65,3922,10,22,875,1814,1890,2093,2290,2047,1823,1859,1977
206582,17844,-15392,17950,-14818,503,725,-9,-11,7,-134,105,3938,-4,24,876,1814,1890,2093,2290,2047,1823,1859,1977
207583,17848,-15364,18015,-14753,577,821,-11,-19,5,-149,60,3968,14,30,877,1814,1889,2093,2287,2047,1824,1860,1976
208584,17864,-15316,18080,-14688,487,592,-12,-31,2,-222,45,3998,8,28,876,1814,1889,2093,2287,2047,1824,1860,1976
209585,17876,-15268,18145,-14623,603,613,-13,-43,3,-132,53,4002,20,25,879,1814,1889,2093,2287,2047,1824,1860,1976
210586,17888,-15216,18210,-14558,668,579,-13,-47,0,-107,12,3979,18,33,878,1814,1889,2093,2287,2047,1824,1860,1976
211587,17916,-15160,18275,-14493,513,541,-16,-48,-7,-185,16,3968,9,39,877,1814,1889,2093,2287,2047,1824,1860,1976
212588,17948,-15128,18340,-14428,503,881,-24,-48,-11,-214,-25,3951,19,36,879,1814,1889,2093,2287,2047,1824,1860,1976
213589,17976,-15068,18405,-14363,598,537,-32,-50,-14,-148,-34,3996,26,33,876,1813,1891,2096,2291,2051,1827,1865,1984
214590,18004,-15016,18470,-14298,643,653,-42,-53,-17,-129,3,4028,18,28,879,1813,1891,2096,2291,2051,1827,1865,1984
215591,18056,-14948,18535,-14233,359,450,-49,-64,-26,-203,-9,3946,33,36,877,1813,1891,2096,2291,2051,1827,1865,1984
216592,18080,-14868,18600,-14168,760,282,-57,-79,-35,-348,-90,4060,31,45,881,1813,1891,2096,2291,2051,1827,1865,1984
217593,18140,-14804,18665,-14103,316,483,-54,-79,-39,-217,-7,3965,29,45,879,1813,1891,2096,2291,2051,1827,1865,1984
218594,18176,-14744,18730,-14038,652,539,-53,-86,-39,-157,-35,3981,21,47,881,1814,1891,2095,2287,2062,1834,1872,1994
219595,18212,-14680,18795,-13973,687,492,-47,-80,-45,-168,-79,4020,37,32,878,1814,1891,2095,2287,2062,1834,1872,1994
220596,18256,-14624,18860,-13908,613,603,-52,-78,-49,-301,-81,3991,38,33,877,1814,1891,2095,2287,2062,1834,1872,1994
221597,18328,-14552,18925,-13843,255,394,-51,-87,-49,-239,4,4003,28,42,877,1814,1891,2095,2287,2062,1834,1872,1994
222598,18384,-14500,18990,-13778,466,660,-52,-100,-50,-291,2,3905,45,34,882,1814,1891,2095,2287,2062,1834,1872,1994
223599,18428,-14440,19055,-13713,642,567,-47,-97,-51,-320,-33,4016,42,44,877,1811,1891,2095,2287,2062,1834,1872,1994
224600,18492,-14376,19120,-13648,393,518,-46,-117,-47,-363,15,3979,27,35,878,1811,1894,2096,2288,2064,1834,1872,1990
225601,18544,-14300,19185,-13583,559,355,-40,-139,-46,-454,16,3954,28,47,880,1811,1894,2096,2288,2064,1834,1872,1990
226602,18612,-14236,19250,-13518,356,507,-35,-168,-47,-504,-40,4092,45,40,880,1811,1894,2096,2288,2064,1834,1872,1990
227603,18668,-14168,19315,-13453,517,453,-34,-186,-45,-423,-21,4017,47,49,881,1811,1894,2096,2288,2064,1834,1872,1990
228604,18736,-14084,19380,-13388,364,230,-30,-209,-45,-385,2,4004,32,43,880,1811,1894,2096,2288,2064,1834,1872,1990
229605,18800,-14016,19445,-13323,415,426,-33,-208,-51,-320,-17,4062,48,38,883,1817,1894,2096,2293,2048,1822,1863,1980
230606,18864,-13948,19510,-13258,417,424,-37,-174,-52,-125,-62,4323,46,46,881,1817,1894,2096,2293,2048,1822,1863,1980
231607,18920,-13888,19575,-13193,528,530,-47,-171,-58,-124,-25,3625,43,49,881,1817,1894,2096,2293,2048,1822,1863,1980
232608,18980,-13828,19640,-13128,484,536,-48,-178,-69,-360,-30,3934,43,49,879,1817,1894,2096,2293,2048,1822,1863,1980
233609,19028,-13768,19705,-13063,655,542,-58,-158,-78,-236,-75,3951,30,41,880,1817,1894,2096,2293,2048,1822,1863,1980
234610,19112,-13688,19770,-12998,183,275,-56,-160,-82,-329,-64,3817,45,49,878,1829,1902,2103,2300,2038,1815,1854,1970
235611,19176,-13620,19835,-12933,434,421,-54,-181,-86,-407,-76,3823,46,49,884,1829,1902,2103,2300,2038,1815,1854,1970
236612,19240,-13568,19900,-12868,435,637,-41,-218,-87,-517,-114,3892,38,29,881,1829,1902,2103,2300,2038,1815,1854,1970
237613,19312,-13496,19965,-12803,327,378,-32,-229,-80,-528,-121,4011,47,34,880,1829,1902,2103,2300,2038,1815,1854,1970
238614,19372,-13432,20030,-12738,484,481,-13,-242,-73,-403,-44,3818,43,33,882,1829,1902,2103,2300,2038,1815,1854,1970
239615,19432,-13364,20095,-12673,490,427,-7,-258,-68,-453,-100,3830,46,40,881,1829,1902,2103,2300,2038,1815,1854,1970
240616,19496,-13296,20160,-12608,441,423,-2,-236,-74,-254,-30,3984,43,36,880,1822,1894,2098,2296,2030,1808,1848,1960
241617,19572,-13248,20225,-12543,278,694,-16,-201,-76,-104,11,3817,37,42,881,1822,1894,2098,2296,2030,1808,1848,1960
242618,19636,-13168,20290,-12478,430,277,-26,-197,-63,-170,-48,3732,33,32,880,1822,1894,2098,2296,2030,1808,1848,1960
243619,19708,-13120,20355,-12413,321,698,-31,-197,-62,-347,-39,3950,44,47,883,1822,1894,2098,2296,2030,1808,1848,1960
244620,19768,-13052,20420,-12348,477,444,-32,-178,-73,-335,-25,3814,42,32,880,1822,1894,2098,2296,2030,1808,1848,1960
245621,19844,-12988,20485,-12283,264,496,-23,-131,-87,-81,-69,3840,32,34,881,1817,1887,2088,2287,2031,1812,1850,1963
246622,19896,-12924,20550,-12218,581,497,-12,-120,-94,-9,-1,3786,45,42,882,1817,1887,2088,2287,2031,1812,1850,1963
247623,19940,-12864,20615,-12153,706,553,-4,-145,-89,-479,-22,3792,41,43,880,1817,1887,2088,2287,2031,1812,1850,1963
248624,20012,-12800,20680,-12088,348,505,3,-166,-93,-489,23,3928,43,45,878,1817,1887,2088,2287,2031,1812,1850,1963
249625,20064,-12712,20745,-12023,614,178,9,-140,-102,-306,-29,3866,46,47,881,1817,1887,2088,2287,2031,1812,1850,1963
250626,20128,-12668,20810,-11958,466,753,19,-130,-101,-238,-52,3702,41,37,882,1817,1887,2088,2287,2031,1812,1850,1963
251627,20184,-12608,20875,-11893,577,559,30,-120,-98,-295,-5,3990,47,45,878,1803,1875,2078,2279,2036,1815,1851,1963
252628,20256,-12540,20940,-11828,368,456,43,-128,-95,-411,59,3892,48,35,879,1803,1875,2078,2279,2036,1815,1851,1963
253629,20320,-12480,21005,-11763,470,563,60,-151,-96,-263,58,3990,38,33,882,1803,1875,2078,2279,2036,1815,1851,1963
254630,20388,-12428,21070,-11698,417,679,72,-166,-95,-327,13,3874,44,31,880,1803,1875,2078,2279,2036,1815,1851,1963
255631,20452,-12352,21135,-11633,468,365,81,-168,-86,-287,-18,3968,42,44,880,1803,1875,2078,2279,2036,1815,1851,1963
256632,20504,-12292,21200,-11568,634,571,95,-139,-84,-54,36,3979,42,38,882,1807,1884,2088,2289,2036,1816,1853,1968
257633,20572,-12220,21265,-11503,430,414,98,-136,-85,-98,35,3890,33,45,877,1807,1884,2088,2289,2036,1816,1853,1968
258634,20636,-12172,21330,-11438,483,734,99,-128,-85,-127,21,3942,43,42,881,1807,1884,2088,2289,2036,1816,1853,1968
259635,20692,-12108,21395,-11373,594,536,99,-135,-83,-105,20,3830,37,33,878,1807,1884,2088,2289,2036,1816,1853,1968
260636,20760,-12040,21460,-11308,440,483,95,-126,-86,-55,67,3946,29,45,879,1807,1884,2088,2289,2036,1816,1853,1968
261637,20820,-11992,21525,-11243,547,754,98,-111,-86,-7,80,3848,28,43,881,1807,1884,2088,2289,2036,1816,1853,1968
262638,20868,-11932,21590,-11178,718,610,86,-107,-86,-66,76,3933,44,30,877,1830,1906,2109,2309,2036,1813,1857,1973
263639,20924,-11876,21655,-11113,629,671,89,-107,-95,-127,35,3937,30,34,877,1830,1906,2109,2309,2036,1813,1857,1973
264640,20996,-11800,21720,-11048,420,408,81,-113,-96,-95,108,3987,34,41,878,1830,1906,2109,2309,2036,1813,1857,1973
265641,21040,-11740,21785,-10983,797,615,97,-119,-101,-155,165,3933,42,35,882,1830,1906,2109,2309,2036,1813,1857,1973
266642,21108,-11680,21850,-10918,493,621,96,-142,-102,-255,72,3954,35,40,877,1830,1906,2109,2309,2036,1813,1857,1973
267643,21164,-11624,21915,-10853,654,683,112,-154,-108,-108,151,4129,44,39,879,1835,1910,2112,2306,2045,1818,1859,1981
268644,21228,-11568,21980,-10788,555,694,120,-169,-108,-182,170,3903,27,42,877,1835,1910,2112,2306,2045,1818,1859,1981
269645,21276,-11508,22045,-10723,777,650,134,-188,-102,-205,117,4101,47,42,878,1835,1910,2112,2306,2045,1818,1859,1981
270646,21348,-11436,22110,-10658,469,491,141,-184,-98,-182,121,4112,38,47,876,1835,1910,2112,2306,2045,1818,1859,1981
271647,21388,-11376,22175,-10593,899,648,152,-174,-96,-136,161,4168,31,48,881,1835,1910,2112,2306,2045,1818,1859,1981
272648,21448,-11300,22240,-10528,656,435,157,-160,-83,-86,156,4169,29,40,875,1835,1910,2112,2306,2045,1818,1859,1981
273649,21504,-11248,22305,-10463,717,751,169,-162,-66,-42,133,4076,44,36,882,1829,1906,2108,2301,2054,1827,1866,1987
274650,21564,-11204,22370,-10398,673,877,169,-160,-57,-61,180,4158,46,46,874,1829,1906,2108,2301,2054,1827,1866,1987
275651,21620,-11124,22435,-10333,735,409,178,-161,-46,-178,109,3965,51,45,875,1829,1906,2108,2301,2054,1827,1866,1987
276652,21688,-11068,22500,-10268,582,720,180,-166,-37,-69,149,4102,50,36,879,1829,1906,2108,2301,2054,1827,1866,1987
277653,21760,-11012,22565,-10203,523,732,184,-172,-34,-56,103,4110,34,45,877,1829,1906,2108,2301,2054,1827,1866,1987
278654,21816,-10944,22630,-10138,734,578,170,-197,-12,-232,132,3813,32,40,878,1820,1896,2102,2300,2055,1827,1866,1988
279655,21900,-10872,22695,-10073,362,520,147,-225,1,-282,293,3770,40,42,878,1820,1896,2102,2300,2055,1827,1866,1988
280656,21956,-10820,22760,-10008,723,786,128,-193,-2,-114,238,4044,33,36,881,1820,1896,2102,2300,2055,1827,1866,1988
281657,22012,-10772,22825,-9943,734,857,111,-178,22,28,-6,3770,41,42,876,1820,1896,2102,2300,2055,1827,1866,1988
282658,22092,-10724,22890,-9878,417,878,91,-162,53,-343,96,3952,45,39,875,1820,1896,2102,2300,2055,1827,1866,1988
283659,22144,-10636,22955,-9813,782,350,87,-115,59,-545,349,4082,42,36,878,1820,1896,2102,2300,2055,1827,1866,1988
284660,22224,-10576,23020,-9748,414,707,112,-23,26,26,303,4532,46,44,880,1815,1886,2093,2283,2066,1835,1865,1986
285661,22304,-10520,23085,-9683,397,768,147,60,25,481,25,4369,37,44,879,1815,1886,2093,2283,2066,1835,1865,1986
286662,22340,-10456,23150,-9618,982,669,147,60,61,-68,-30,3833,31,28,879,1815,1886,2093,2283,2066,1835,1865,1986
287663,22408,-10408,23215,-9553,579,891,122,32,110,-1121,-112,3767,47,40,874,1815,1886,2093,2283,2066,1835,1865,1986
288664,22476,-10352,23280,-9488,575,802,84,-12,131,-1476,255,3704,51,33,876,1815,1886,2093,2283,2066,1835,1865,1986
289665,22548,-10292,23345,-9423,517,758,82,-8,123,-829,261,3930,51,40,877,1796,1863,2080,2275,2066,1837,1861,1979
290666,22600,-10240,23410,-9358,783,875,100,-10,102,-14,112,3929,51,30,878,1796,1863,2080,2275,2066,1837,1861,1979
291667,22668,-10184,23475,-9293,580,836,128,-21,86,-109,168,4013,40,41,873,1796,1863,2080,2275,2066,1837,1861,1979
292668,22724,-10120,23540,-9228,742,737,139,-44,70,-359,431,3933,40,33,877,1796,1863,2080,2275,2066,1837,1861,1979
293669,22800,-10060,23605,-9163,478,794,126,-71,57,-407,356,3807,40,31,876,1796,1863,2080,2275,2066,1837,1861,1979
294670,22872,-9992,23670,-9098,520,691,102,-119,74,64,286,3667,38,37,878,1796,1863,2080,2275,2066,1837,1861,1979
295671,22940,-9936,23735,-9033,567,852,102,-119,74,64,286,3667,50,35,878,1796,1867,2081,2274,2051,1826,1858,1978
296672,23016,-9888,23800,-8968,454,974,88,-70,101,238,149,3831,47,40,876,1796,1867,2081,2274,2051,1826,1858,1978
297673,23088,-9824,23865,-8903,495,775,73,-37,111,353,354,3593,37,45,876,1796,1867,2081,2274,2051,1826,1858,1978
298674,23160,-9772,23930,-8838,487,941,44,-10,129,74,209,3913,45,33,878,1796,1867,2081,2274,2051,1826,1858,1978
299675,23232,-9712,23995,-8773,479,848,21,42,149,260,181,3951,43,40,876,1796,1867,2081,2274,2051,1826,1858,1978
300676,23296,-9636,24060,-8708,580,634,14,54,162,190,138,3898,51,32,877,1809,1887,2086,2271,2031,1803,1848,1974
301677,23352,-9568,24125,-8643,691,731,13,52,171,-5,119,4129,46,42,878,1809,1887,2086,2271,2031,1803,1848,1974
302678,23428,-9512,24190,-8578,429,893,6,13,183,-419,66,3638,41,32,876,1809,1887,2086,2271,2031,1803,1848,1974
303679,23496,-9492,24255,-8513,525,1398,0,-43,185,-465,131,3756,50,43,877,1809,1887,2086,2271,2031,1803,1848,1974
304680,23556,-9416,24320,-8448,631,684,-4,-83,179,-494,128,3753,49,42,869,1809,1887,2086,2271,2031,1803,1848,1974
305681,23604,-9360,24385,-8383,803,946,9,-127,149,-367,210,3932,50,40,878,1809,1887,2086,2271,2031,1803,1848,1974
306682,23676,-9288,24450,-8318,494,738,30,-154,126,-188,219,4084,50,45,873,1798,1884,2083,2265,2052,1818,1860,1988
307683,23740,-9236,24515,-8253,596,1004,60,-184,92,-10,115,3893,34,45,878,1798,1884,2083,2265,2052,1818,1860,1988
308684,23808,-9172,24580,-8188,542,856,83,-200,55,26,125,4091,30,30,873,1798,1884,2083,2265,2052,1818,1860,1988
309685,23876,-9120,24645,-8123,539,1022,105,-199,33,4,148,4059,32,31,876,1798,1884,2083,2265,2052,1818,1860,1988
310686,23912,-9072,24710,-8058,975,1093,125,-168,9,169,181,4065,39,28,874,1798,1884,2083,2265,2052,1818,1860,1988
311687,23992,-9016,24775,-7993,406,1004,135,-151,-5,305,180,3925,29,27,870,1802,1887,2094,2284,2064,1832,1871,1991
312688,24056,-8952,24840,-7928,609,906,137,-123,-5,342,163,4075,54,31,876,1802,1887,2094,2284,2064,1832,1871,1991
313689,24108,-8896,24905,-7863,774,1017,137,-100,-9,374,196,3821,33,36,875,1802,1887,2094,2284,2064,1832,1871,1991
314690,24192,-8848,24970,-7798,351,1138,131,-106,-11,205,167,3838,36,40,873,1802,1887,2094,2284,2064,1832,1871,1991
315691,24252,-8784,25035,-7733,657,940,126,-112,-11,206,202,3795,52,41,874,1802,1887,2094,2284,2064,1832,1871,1991
316692,24316,-8740,25100,-7668,610,1216,118,-123,-9,325,223,3833,37,38,874,1802,1887,2094,2284,2064,1832,1871,1991
317693,24396,-8688,25165,-7603,391,1132,122,-134,-5,300,228,3814,44,30,871,1832,1908,2113,2322,2038,1819,1857,1959
318694,24452,-8628,25230,-7538,702,1039,103,-165,9,154,206,3868,36,42,875,1832,1908,2113,2322,2038,1819,1857,1959
319695,24512,-8560,25295,-7473,659,935,110,-173,9,288,230,4152,41,34,873,1832,1908,2113,2322,2038,1819,1857,1959
320696,24580,-8500,25360,-7408,556,1043,112,-186,6,352,118,3966,49,32,874,1832,1908,2113,2322,2038,1819,1857,1959
321697,24644,-8416,25425,-7343,607,719,129,-196,-4,302,187,4228,44,41,874,1832,1908,2113,2322,2038,1819,1857,1959
322698,24712,-8384,25490,-7278,554,1411,152,-184,-13,334,184,4090,37,34,877,1835,1904,2110,2314,2025,1809,1844,1955
323699,24764,-8324,25555,-7213,770,1067,167,-172,-30,449,111,4112,46,31,869,1835,1904,2110,2314,2025,1809,1844,1955
324700,24820,-8276,25620,-7148,731,1237,186,-144,-48,430,163,4308,29,43,871,1835,1904,2110,2314,2025,1809,1844,1955
325701,24880,-8232,25685,-7083,687,1314,210,-117,-63,243,170,4339,36,33,867,1835,1904,2110,2314,2025,1809,1844,1955
326702,24944,-8160,25750,-7018,639,956,236,-80,-83,328,135,4353,36,44,869,1835,1904,2110,2314,2025,1809,1844,1955
327703,24992,-8116,25815,-6953,860,1332,256,-59,-93,339,157,4423,48,33,874,1835,1904,2110,2314,2025,1809,1844,1955
328704,25064,-8044,25880,-6888,552,974,295,-61,-101,144,233,4273,40,32,867,1816,1888,2096,2293,2033,1809,1847,1967
329705,25132,-8004,25945,-6823,599,1405,312,-57,-124,100,211,4243,50,46,874,1816,1888,2096,2293,2033,1809,1847,1967
330706,25184,-7948,26010,-6758,815,1216,327,-47,-138,50,274,4109,31,38,869,1816,1888,2096,2293,2033,1809,1847,1967
331707,25228,-7884,26075,-6693,940,1117,337,-36,-143,137,370,4127,45,32,869,1816,1888,2096,2293,2033,1809,1847,1967
332708,25304,-7812,26140,-6628,528,1010,351,-31,-146,21,383,4052,33,40,869,1816,1888,2096,2293,2033,1809,1847,1967
333709,25376,-7744,26205,-6563,569,1056,358,-35,-159,111,374,4029,34,34,874,1825,1909,2115,2319,2046,1819,1859,1978
334710,25416,-7700,26270,-6498,1000,1383,360,-36,-168,176,324,4013,49,30,873,1825,1909,2115,2319,2046,1819,1859,1978
335711,25484,-7644,26335,-6433,647,1244,364,0,-179,418,464,4107,31,41,866,1825,1909,2115,2319,2046,1819,1859,1978
336712,25572,-7600,26400,-6368,369,1420,361,23,-175,405,313,3797,45,32,870,1825,1909,2115,2319,2046,1819,1859,1978
337713,25636,-7556,26465,-6303,670,1446,358,35,-153,287,268,4009,35,38,871,1825,1909,2115,2319,2046,1819,1859,1978
338714,25708,-7488,26530,-6238,562,1143,366,52,-146,335,337,4133,29,30,868,1825,1909,2115,2319,2046,1819,1859,1978
339715,25772,-7420,26595,-6173,664,1140,383,66,-159,397,283,3989,43,46,872,1850,1927,2132,2338,2050,1827,1865,1979
340716,25860,-7364,26660,-6108,336,1302,398,84,-168,470,321,4370,34,30,871,1850,1927,2132,2338,2050,1827,1865,1979
341717,25892,-7316,26725,-6043,1076,1422,410,116,-172,614,345,4247,43,38,872,1850,1927,2132,2338,2050,1827,1865,1979
342718,25952,-7256,26790,-5978,733,1280,426,126,-173,642,336,4306,44,39,862,1850,1927,2132,2338,2050,1827,1865,1979
343719,26028,-7200,26855,-5913,520,1341,436,129,-182,338,338,4355,36,48,869,1850,1927,2132,2338,2050,1827,1865,1979
344720,26092,-7124,26920,-5848,671,1078,457,115,-194,89,286,4309,35,34,871,1832,1900,2110,2309,2046,1825,1856,1970
345721,26152,-7048,26985,-5783,728,1065,471,89,-212,203,316,4489,47,44,873,1832,1900,2110,2309,2046,1825,1856,1970
346722,26216,-7000,27050,-5718,680,1435,494,76,-222,147,367,4599,50,34,872,1832,1900,2110,2309,2046,1825,1856,1970
347723,26280,-6936,27115,-5653,681,1238,503,66,-228,163,293,4376,39,31,867,1832,1900,2110,2309,2046,1825,1856,1970
348724,26344,-6876,27180,-5588,683,1294,505,53,-222,82,302,4214,50,38,870,1832,1900,2110,2309,2046,1825,1856,1970
349725,26412,-6824,27245,-5523,629,1411,503,35,-225,-58,405,4379,50,35,870,1832,1900,2110,2309,2046,1825,1856,1970
350726,26476,-6768,27310,-5458,681,1372,505,35,-238,28,314,4128,49,31,868,1813,1886,2103,2301,2049,1819,1855,1982
351727,26536,-6708,27375,-5393,738,1329,506,10,-239,101,449,4174,36,45,869,1813,1886,2103,2301,2049,1819,1855,1982
352728,26596,-6652,27440,-5328,744,1390,512,9,-240,72,559,4170,53,36,869,1813,1886,2103,2301,2049,1819,1855,1982
353729,26660,-6584,27505,-5263,695,1237,516,22,-242,64,474,3946,37,47,868,1813,1886,2103,2301,2049,1819,1855,1982
354732,26736,-6524,27570,-5198,533,1343,514,38,-244,152,464,4121,49,38,870,1813,1886,2103,2301,2049,1819,1855,1982
355731,26800,-6464,27635,-5133,684,1350,509,61,-241,240,515,3911,35,34,870,1827,1909,2118,2310,2067,1832,1874,2006
356732,26868,-6400,27700,-5068,630,1301,510,81,-245,199,430,3897,44,37,869,1827,1909,2118,2310,2067,1832,1874,2006
357733,26936,-6344,27765,-5003,626,1413,507,93,-241,157,363,3983,49,38,870,1827,1909,2118,2310,2067,1832,1874,2006
358734,26996,-6292,27830,-4938,734,1479,520,104,-241,111,374,3953,47,39,868,1827,1909,2118,2310,2067,1832,1874,2006
359735,27072,-6240,27895,-4873,520,1496,522,94,-245,14,386,3986,43,42,865,1827,1909,2118,2310,2067,1832,1874,2006
360736,27152,-6192,27960,-4808,452,1567,529,79,-249,-41,446,4107,48,41,868,1827,1909,2118,2310,2067,1832,1874,2006
361737,27216,-6140,28025,-4743,654,1534,534,72,-249,71,534,4096,43,27,868,1826,1908,2112,2296,2067,1829,1867,1994
362738,27284,-6080,28090,-4678,600,1441,540,69,-263,33,553,4034,44,37,866,1826,1908,2112,2296,2067,1829,1867,1994
363739,27368,-6012,28155,-4613,377,1337,543,53,-276,-28,570,4107,34,30,868,1826,1908,2112,2296,2067,1829,1867,1994
364740,27420,-5960,28220,-4548,794,1554,550,38,-291,162,699,4036,31,39,871,1826,1908,2112,2296,2067,1829,1867,1994
365741,27484,-5920,28285,-4483,645,1735,550,15,-303,171,559,3980,37,25,864,1826,1908,2112,2296,2067,1829,1867,1994
366742,27548,-5868,28350,-4418,647,1602,551,-4,-316,86,590,4192,45,37,863,1802,1878,2087,2274,2046,1816,1844,1965
367743,27608,-5836,28415,-4353,704,1892,549,-18,-316,-25,553,4135,38,31,864,1802,1878,2087,2274,2046,1816,1844,1965
368744,27672,-5784,28480,-4288,655,1659,562,-49,-311,165,-27,4259,34,35,860,1802,1878,2087,2274,2046,1816,1844,1965
369745,27740,-5728,28545,-4223,601,1620,597,-92,-274,4,-380,4158,40,32,863,1802,1878,2087,2274,2046,1816,1844,1965
370746,27796,-5684,28610,-4158,762,1796,611,-157,-274,-2049,24,4828,41,27,865,1802,1878,2087,2274,2046,1816,1844,1965
371747,27868,-5624,28675,-4093,555,1603,642,-21,-309,-150,289,4673,31,27,861,1802,1878,2087,2274,2046,1816,1844,1965
372748,27912,-5584,28740,-4028,930,1884,659,3,-263,1413,-22,3599,33,32,866,1794,1868,2084,2280,2036,1811,1847,1967
373749,27972,-5524,28805,-3963,736,1641,642,-144,-225,-347,445,3814,40,37,858,1794,1868,2084,2280,2036,1811,1847,1967
374750,28036,-5480,28870,-3898,689,1867,614,-72,-249,-1052,785,4506,53,41,864,1794,1868,2084,2280,2036,1811,1847,1967
375751,28108,-5432,28935,-3833,580,1838,586,-20,-249,363,369,3200,54,36,861,1794,1868,2084,2280,2036,1811,1847,1967
376752,28168,-5384,29000,-3768,736,1859,553,-56,-215,386,568,3673,48,45,860,1794,1868,2084,2280,2036,1811,1847,1967
377753,28236,-5312,29065,-3703,633,1552,521,-56,-208,-733,558,3738,51,45,861,1836,1910,2118,2326,2048,1823,1867,1989
378754,28324,-5228,29130,-3638,355,1379,500,-64,-213,-424,597,3519,43,46,866,1836,1910,2118,2326,2048,1823,1867,1989
379755,28380,-5164,29195,-3573,766,1631,494,-122,-204,-210,536,3631,47,47,871,1836,1910,2118,2326,2048,1823,1867,1989
380756,28464,-5112,29260,-3508,394,1798,492,-180,-199,-288,583,3590,40,34,864,1836,1910,2118,2326,2048,1823,1867,1989
381757,28512,-5052,29325,-3443,865,1705,490,-193,-211,-512,561,4077,43,44,865,1836,1910,2118,2326,2048,1823,1867,1989
382758,28584,-4976,29390,-3378,556,1491,509,-205,-224,-212,430,3718,33,36,863,1836,1910,2118,2326,2048,1823,1867,1989
383759,28676,-4904,29455,-3313,273,1534,536,-196,-230,-32,412,4087,44,45,868,1832,1900,2104,2288,2073,1833,1868,2003
384760,28744,-4824,29520,-3248,571,1415,561,-199,-233,-288,355,4157,37,45,869,1832,1900,2104,2288,2073,1833,1868,2003
385761,28804,-4784,29585,-3183,677,1947,589,-177,-249,-342,244,4158,42,42,868,1832,1900,2104,2288,2073,1833,1868,2003
386762,28872,-4724,29650,-3118,573,1704,609,-163,-237,-153,370,4408,36,48,860,1832,1900,2104,2288,2073,1833,1868,2003
387763,28920,-4628,29715,-3053,845,1216,632,-154,-230,-38,430,4125,34,48,865,1832,1900,2104,2288,2073,1833,1868,2003
388764,28992,-4552,29780,-2988,536,1454,634,-161,-224,-336,518,4280,31,35,869,1778,1855,2063,2233,2060,1815,1843,1975
389765,29056,-4504,29845,-2923,638,1824,633,-154,-211,-541,590,4182,40,45,869,1778,1855,2063,2233,2060,1815,1843,1975
390766,29108,-4440,29910,-2858,805,1627,619,-153,-219,-253,499,3836,43,44,862,1778,1855,2063,2233,2060,1815,1843,1975
391767,29168,-4384,29975,-2793,711,1739,592,-140,-222,-266,616,4041,49,44,864,1778,1855,2063,2233,2060,1815,1843,1975
392768,29236,-4308,30040,-2728,607,1475,563,-164,-207,-343,623,3635,45,36,863,1778,1855,2063,2233,2060,1815,1843,1975
393769,29284,-4272,30105,-2663,878,2012,527,-212,-193,-407,664,3683,32,38,865,1778,1855,2063,2233,2060,1815,1843,1975
394770,29360,-4208,30170,-2598,515,1663,499,-247,-179,-446,799,3797,30,26,856,1782,1859,2074,2264,2037,1812,1843,1968
395771,29432,-4144,30235,-2533,557,1665,467,-301,-160,-423,632,3221,44,41,865,1782,1859,2074,2264,2037,1812,1843,1968
396772,29508,-4088,30300,-2468,493,1777,440,-352,-136,-586,573,3430,49,32,865,1782,1859,2074,2264,2037,1812,1843,1968
397773,29580,-4032,30365,-2403,536,1788,419,-414,-117,-620,852,3672,33,41,864,1782,1859,2074,2264,2037,1812,1843,1968
398774,29648,-3992,30430,-2338,582,2020,411,-453,-111,-492,854,3644,47,42,864,1782,1859,2074,2264,2037,1812,1843,1968
399775,29696,-3924,30495,-2273,853,1666,402,-465,-107,-212,784,3849,46,31,859,1807,1874,2092,2282,2056,1830,1857,1991
400776,29760,-3828,30560,-2208,655,1279,404,-468,-105,-80,919,3726,33,43,863,1807,1874,2092,2282,2056,1830,1857,1991
401777,29820,-3784,30625,-2143,711,1956,409,-429,-122,76,979,3889,33,48,869,1807,1874,2092,2282,2056,1830,1857,1991
402778,29884,-3728,30690,-2078,662,1817,407,-402,-149,205,784,3631,40,45,858,1807,1874,2092,2282,2056,1830,1857,1991
403779,29956,-3652,30755,-2013,554,1554,397,-398,-158,122,828,3810,29,30,862,1807,1874,2092,2282,2056,1830,1857,1991
404781,30000,-3600,30820,-1948,930,1871,402,-398,-157,-74,857,3837,29,37,867,1807,1874,2092,2282,2056,1830,1857,1991
405781,30056,-3528,30885,-1883,791,1613,399,-393,-168,-199,738,3865,30,36,858,1792,1865,2081,2250,2080,1836,1861,2003
406782,30124,-3472,30950,-1818,638,1825,394,-398,-167,-298,741,3899,36,47,864,1792,1865,2081,2250,2080,1836,1861,2003
407783,30196,-3424,31015,-1753,580,1945,391,-411,-164,-351,837,3847,32,40,862,1792,1865,2081,2250,2080,1836,1861,2003
408784,30252,-3368,31080,-1688,791,1857,380,-434,-178,-542,817,3783,39,30,861,1792,1865,2081,2250,2080,1836,1861,2003
409785,30316,-3308,31145,-1623,692,1814,359,-472,-180,-534,960,3805,31,39,860,1792,1865,2081,2250,2080,1836,1861,2003
410786,30364,-3256,31210,-1558,914,1930,344,-505,-171,-349,974,3748,35,44,860,1770,1849,2065,2235,2065,1823,1848,1986
411787,30436,-3168,31275,-1493,606,1453,329,-549,-161,-319,993,3801,30,37,857,1770,1849,2065,2235,2065,1823,1848,1986
412788,30488,-3124,31340,-1428,872,2030,326,-584,-135,-593,1053,3790,50,37,867,1770,1849,2065,2235,2065,1823,1848,1986
413789,30568,-3040,31405,-1363,504,1507,309,-615,-122,-410,964,3730,38,29,856,1770,1849,2065,2235,2065,1823,1848,1986
414790,30624,-3000,31470,-1298,815,2088,287,-642,-105,-426,947,4020,53,39,867,1770,1849,2065,2235,2065,1823,1848,1986
415791,30668,-2944,31535,-1233,991,1900,276,-649,-69,-412,1074,3848,45,42,856,1770,1849,2065,2235,2065,1823,1848,1986
416792,30748,-2876,31600,-1168,524,1746,265,-646,-46,-221,1078,3843,50,41,858,1775,1858,2074,2250,2056,1819,1846,1984
417793,30804,-2816,31665,-1103,835,1854,251,-672,-27,-299,1085,4003,38,36,864,1775,1858,2074,2250,2056,1819,1846,1984
418794,30852,-2748,31730,-1038,955,1751,249,-653,-15,-96,1187,3962,51,34,859,1775,1858,2074,2250,2056,1819,1846,1984
419795,30904,-2668,31795,-973,922,1583,238,-647,-14,186,1118,3730,52,46,860,1775,1858,2074,2250,2056,1819,1846,1984
420796,30976,-2628,31860,-908,664,2114,229,-622,3,166,1097,4048,39,45,863,1775,1858,2074,2250,2056,1819,1846,1984
421797,31068,-2560,31925,-843,381,1760,217,-631,14,127,1026,3538,53,43,856,1796,1871,2094,2275,2065,1832,1856,1993
422798,31144,-2488,31990,-778,568,1703,216,-661,12,57,999,3834,59,31,865,1796,1871,2094,2275,2065,1832,1856,1993
423799,31208,-2424,32055,-713,719,1805,215,-669,8,-191,1047,4019,54,46,864,1796,1871,2094,2275,2065,1832,1856,1993
424800,31288,-2364,32120,-648,501,1861,229,-681,6,-58,996,3789,54,45,862,1796,1871,2094,2275,2065,1832,1856,1993
425801,31344,-2292,32185,-583,813,1704,232,-719,8,7,1133,3933,43,33,863,1796,1871,2094,2275,2065,1832,1856,1993
426802,31424,-2236,32250,-518,495,1916,234,-788,6,-222,1171,3969,40,34,862,1796,1871,2094,2275,2065,1832,1856,1993
427803,31496,-2160,32315,-453,586,1652,224,-816,-22,-185,1290,3958,54,49,860,1807,1877,2105,2285,2069,1835,1851,1985
428804,31568,-2092,32380,-388,578,1750,208,-799,-42,-211,1215,4133,36,34,865,1807,1877,2105,2285,2069,1835,1851,1985
429805,31644,-2032,32445,-323,515,1857,196,-775,-49,126,1300,3958,54,37,864,1807,1877,2105,2285,2069,1835,1851,1985
430806,31708,-1976,32510,-258,667,1918,186,-772,-47,-67,1121,4064,42,35,863,1807,1877,2105,2285,2069,1835,1851,1985
431807,31768,-1908,32575,-193,723,1765,179,-798,-26,-323,1054,4164,51,34,859,1807,1877,2105,2285,2069,1835,1851,1985
432808,31836,-1864,32640,-128,620,2092,183,-821,-13,-293,1216,4244,33,39,863,1810,1881,2104,2284,2061,1828,1851,1986
433809,31900,-1800,32705,-63,671,1843,178,-810,2,-101,1134,4103,33,32,857,1810,1881,2104,2284,2061,1828,1851,1986
434810,31964,-1724,32770,2,672,1680,172,-788,44,-150,1191,4269,33,41,861,1810,1881,2104,2284,2061,1828,1851,1986
435811,32028,-1656,32835,67,675,1778,159,-793,84,-233,1159,3962,34,33,864,1810,1881,2104,2284,2061,1828,1851,1986
436812,32088,-1604,32900,132,731,1994,142,-795,113,-242,996,4083,37,27,862,1810,1881,2104,2284,2061,1828,1851,1986
437813,32180,-1556,32965,197,298,2065,126,-783,152,-163,1116,4128,48,37,858,1810,1881,2104,2284,2061,1828,1851,1986
438814,32232,-1508,33030,262,814,2087,132,-756,194,-22,1207,4040,41,36,860,1805,1885,2105,2283,2067,1835,1861,1995
439815,32308,-1432,33095,327,501,1724,127,-745,216,69,1184,4075,30,25,855,1805,1885,2105,2283,2067,1835,1861,1995
440816,32368,-1388,33160,392,707,2150,135,-769,236,-71,1298,4215,34,35,864,1805,1885,2105,2283,2067,1835,1861,1995
441817,32448,-1344,33225,457,439,2177,134,-780,232,66,1308,3995,48,37,855,1805,1885,2105,2283,2067,1835,1861,1995
442818,32508,-1284,33290,522,696,1983,130,-779,215,142,1278,4033,33,35,857,1805,1885,2105,2283,2067,1835,1861,1995
443819,32556,-1228,33355,587,867,2045,121,-751,211,140,1291,4176,33,38,859,1800,1877,2099,2275,2082,1844,1862,1999
444820,32632,-1144,33420,652,503,1673,110,-744,198,293,1288,3925,34,45,855,1800,1877,2099,2275,2082,1844,1862,1999
445821,32704,-1084,33485,717,546,1979,106,-745,179,117,1099,4144,38,33,865,1800,1877,2099,2275,2082,1844,1862,1999
446822,32764,-1008,33550,782,702,1767,98,-740,173,55,1220,4050,47,33,859,1800,1877,2099,2275,2082,1844,1862,1999
447823,32812,-940,33615,847,873,1864,98,-761,160,183,1179,3882,46,44,862,1800,1877,2099,2275,2082,1844,1862,1999
448824,32892,-876,33680,912,454,1915,98,-772,159,147,1187,4164,50,42,859,1800,1877,2099,2275,2082,1844,1862,1999
449825,32960,-804,33745,977,602,1808,93,-812,166,7,1254,3918,47,45,862,1795,1866,2095,2271,2084,1844,1856,1991
450826,33024,-728,33944,1176,1504,2596,80,-839,166,5,1248,4091,45,40,864,1795,1866,2095,2271,2084,1844,1856,1991
451827,33096,-652,34009,1241,1395,2582,65,-831,187,-48,1250,4132,53,39,842,1795,1866,2095,2271,2084,1844,1856,1991
452828,33180,-568,34074,1306,1223,2460,46,-814,206,55,1262,4011,58,44,842,1795,1866,2095,2271,2084,1844,1856,1991
453829,33280,-476,34139,1371,980,2328,22,-812,237,-20,1041,3953,65,50,847,1795,1866,2095,2271,2084,1844,1856,1991
454830,33384,-372,34204,1436,882,2132,-10,-811,288,-166,990,4090,51,53,851,1791,1867,2096,2273,2072,1838,1856,1993
455831,33476,-240,34269,1501,1001,1700,-25,-805,340,-41,1107,3921,55,64,856,1791,1867,2096,2273,2072,1838,1856,1993
456832,33596,-108,34334,1566,583,1619,-23,-782,391,82,1184,4036,62,65,862,1791,1867,2096,2273,2072,1838,1856,1993
457833,33684,4,34399,1631,955,1813,-16,-818,413,177,1038,3631,60,66,867,1791,1867,2096,2273,2072,1838,1856,1993
458834,33788,120,34464,1696,709,1700,-7,-863,432,-200,1343,4417,58,57,861,1791,1867,2096,2273,2072,1838,1856,1993
459835,33888,216,34529,1761,716,1913,9,-880,432,-19,1417,3917,63,69,865,1793,1875,2098,2267,2081,1841,1864,2004
460836,33992,328,34594,1826,618,1656,36,-896,431,216,1505,4087,56,59,862,1793,1875,2098,2267,2081,1841,1864,2004
461837,34104,432,34659,1891,461,1710,53,-912,429,235,1465,4199,67,72,865,1793,1875,2098,2267,2081,1841,1864,2004
462838,34208,544,34724,1956,514,1552,75,-921,446,-33,1529,4244,71,63,866,1793,1875,2098,2267,2081,1841,1864,2004
463839,34304,636,34789,2021,577,1770,98,-924,452,315,1485,4072,58,66,867,1793,1875,2098,2267,2081,1841,1864,2004
464840,34416,744,34854,2086,319,1519,88,-924,450,261,1479,4236,73,67,864,1793,1875,2098,2267,2081,1841,1864,2004
465841,34508,856,34919,2151,536,1411,87,-925,450,148,1692,4236,65,60,870,1802,1887,2110,2282,2069,1826,1854,1992
466842,34596,940,34984,2216,558,1739,69,-896,445,222,1538,3919,57,68,870,1802,1887,2110,2282,2069,1826,1854,1992
467843,34724,1056,35049,2281,-19,1277,58,-860,446,377,1650,4139,59,62,865,1802,1887,2110,2282,2069,1826,1854,1992
468844,34828,1160,35114,2346,234,1379,43,-857,446,243,1862,3697,73,58,874,1802,1887,2110,2282,2069,1826,1854,1992
469845,34924,1248,35179,2411,297,1552,27,-878,460,301,1461,3533,60,45,872,1802,1887,2110,2282,2069,1826,1854,1992
470846,35020,1340,35244,2476,259,1469,17,-916,460,80,1486,3660,51,57,870,1834,1911,2131,2311,2035,1820,1843,1974
471847,35112,1412,35309,2541,276,1712,10,-918,482,-477,1458,3804,51,52,871,1834,1911,2131,2311,2035,1820,1843,1974
472848,35208,1504,35374,2606,188,1429,1,-908,509,-19,1139,3584,56,57,866,1834,1911,2131,2311,2035,1820,1843,1974
473849,35288,1604,35439,2671,370,1287,-1,-889,547,90,1216,3815,48,56,871,1834,1911,2131,2311,2035,1820,1843,1974
474850,35368,1676,35504,2736,352,1628,-10,-905,586,-14,1361,3487,42,51,872,1834,1911,2131,2311,2035,1820,1843,1974
475851,35476,1760,35569,2801,-51,1455,-5,-897,597,30,1256,3770,49,52,868,1834,1911,2131,2311,2035,1820,1843,1974
476852,35548,1840,35634,2866,390,1488,-8,-888,618,46,1145,3513,43,43,871,1820,1889,2117,2289,2041,1818,1829,1958
477853,35632,1932,35699,2931,217,1305,-10,-874,634,151,1280,3728,59,57,870,1820,1889,2117,2289,2041,1818,1829,1958
478854,35716,2016,35764,2996,194,1383,-6,-868,662,258,1171,3422,61,50,871,1820,1889,2117,2289,2041,1818,1829,1958
479855,35796,2096,35829,3061,226,1414,-7,-880,700,-368,894,3701,49,56,873,1820,1889,2117,2289,2041,1818,1829,1958
480856,35876,2192,35894,3126,207,1177,-39,-818,685,-610,1245,4052,55,55,872,1820,1889,2117,2289,2041,1818,1829,1958
481857,35964,2268,35959,3191,79,1414,-40,-744,716,516,1411,3287,53,43,875,1768,1837,2065,2230,2042,1815,1828,1956
482858,36052,2340,36024,3256,51,1456,-69,-712,718,828,1233,3305,38,60,873,1768,1837,2065,2230,2042,1815,1828,1956
483859,36136,2444,36089,3321,78,1008,-111,-674,726,-166,1363,3677,38,49,872,1768,1837,2065,2230,2042,1815,1828,1956
484860,36200,2536,36154,3386,329,1126,-129,-610,711,92,1380,3067,36,57,877,1768,1837,2065,2230,2042,1815,1828,1956
485861,36268,2644,36219,3451,276,874,-163,-549,728,275,1205,3468,51,62,875,1768,1837,2065,2230,2042,1815,1828,1956
486862,36340,2748,36284,3516,217,876,-175,-473,745,612,1401,3119,37,50,878,1768,1837,2065,2230,2042,1815,1828,1956
487863,36408,2832,36349,3581,263,1104,-203,-454,750,126,1129,2783,33,46,879,1731,1801,2022,2190,2062,1830,1841,1970
488864,36504,2936,36414,3646,-124,806,-228,-446,751,-224,947,3369,31,43,876,1731,1801,2022,2190,2062,1830,1841,1970
489865,36564,3016,36479,3711,332,1088,-253,-440,758,-80,1099,2811,49,58,873,1731,1801,2022,2190,2062,1830,1841,1970
490866,36636,3104,36544,3776,173,960,-257,-426,777,182,945,3048,45,51,875,1731,1801,2022,2190,2062,1830,1841,1970
491867,36716,3192,36609,3841,55,933,-266,-400,805,178,876,3020,38,43,878,1731,1801,2022,2190,2062,1830,1841,1970
492868,36788,3276,36674,3906,146,960,-276,-378,829,88,690,2785,41,46,879,1701,1780,2006,2167,2075,1837,1843,1974
493869,36860,3340,36739,3971,138,1211,-289,-348,839,25,826,3010,46,50,878,1701,1780,2006,2167,2075,1837,1843,1974
494870,36912,3440,36804,4036,404,718,-315,-304,847,159,816,2790,46,44,875,1701,1780,2006,2167,2075,1837,1843,1974
495871,36984,3520,36869,4101,145,951,-340,-244,873,349,641,2905,37,45,877,1701,1780,2006,2167,2075,1837,1843,1974
496872,37048,3604,36934,4166,246,878,-377,-183,901,332,723,2883,34,56,878,1701,1780,2006,2167,2075,1837,1843,1974
497873,37124,3704,36999,4231,83,635,-423,-125,920,342,646,2663,32,45,878,1701,1780,2006,2167,2075,1837,1843,1974
498874,37184,3772,37064,4296,289,1031,-468,-100,930,394,591,2727,46,49,882,1709,1791,2018,2181,2048,1812,1824,1952
499875,37264,3888,37129,4361,21,369,-517,-100,938,168,510,2738,35,51,876,1709,1791,2018,2181,2048,1812,1824,1952
500876,37312,3972,37194,4426,440,747,-565,-62,969,239,529,2641,44,48,884,1709,1791,2018,2181,2048,1812,1824,1952
501877,37396,4068,37259,4491,-33,559,-603,-32,992,578,666,2607,30,49,879,1709,1791,2018,2181,2048,1812,1824,1952
502878,37460,4160,37324,4556,218,576,-658,-43,996,215,400,2476,35,59,883,1709,1791,2018,2181,2048,1812,1824,1952
503879,37532,4256,37389,4621,110,488,-703,-59,989,144,567,2938,29,57,882,1722,1802,2020,2183,2022,1793,1812,1938
504880,37608,4336,37454,4686,47,670,-728,-67,1000,192,502,2573,33,45,883,1722,1802,2020,2183,2022,1793,1812,1938
505881,37660,4416,37519,4751,362,651,-746,-81,1001,525,416,2841,43,49,882,1722,1802,2020,2183,2022,1793,1812,1938
506882,37724,4512,37584,4816,214,415,-740,-110,996,391,554,2963,33,51,880,1722,1802,2020,2183,2022,1793,1812,1938
507883,37800,4596,37649,4881,50,541,-725,-139,991,247,471,2870,39,52,883,1722,1802,2020,2183,2022,1793,1812,1938
508884,37880,4672,37714,4946,-18,628,-712,-151,984,365,368,3027,47,53,883,1722,1802,2020,2183,2022,1793,1812,1938
509885,37956,4740,37779,5011,18,724,-700,-138,990,592,348,3078,31,44,882,1709,1792,1999,2163,2026,1793,1823,1948
510886,38028,4848,37844,5076,60,172,-689,-135,1000,627,504,2908,30,39,881,1709,1792,1999,2163,2026,1793,1823,1948
511887,38072,4924,37909,5141,436,558,-691,-132,1011,518,496,3054,31,55,886,1709,1792,1999,2163,2026,1793,1823,1948
512888,38152,4992,37974,5206,-33,655,-696,-126,1026,494,492,2953,45,54,879,1709,1792,1999,2163,2026,1793,1823,1948
513889,38240,5080,38039,5271,-161,377,-703,-125,1028,576,404,2871,50,61,882,1709,1792,1999,2163,2026,1793,1823,1948
514890,38328,5176,38104,5336,-189,239,-711,-123,1035,508,342,2917,34,43,873,1729,1823,2021,2197,2018,1788,1832,1948
515891,38428,5264,38169,5401,-383,311,-710,-149,1058,427,507,2756,49,41,871,1729,1823,2021,2197,2018,1788,1832,1948
516892,38524,5352,38234,5466,-371,283,-712,-179,1076,285,234,2879,32,56,885,1729,1823,2021,2197,2018,1788,1832,1948
517893,38640,5416,38299,5531,-683,584,-720,-199,1077,273,125,2953,29,44,885,1729,1823,2021,2197,2018,1788,1832,1948
518894,38708,5504,38364,5596,-86,256,-722,-226,1088,260,161,2936,31,42,883,1729,1823,2021,2197,2018,1788,1832,1948
519895,38788,5572,38429,5661,-255,502,-719,-253,1101,308,125,2858,27,41,885,1729,1823,2021,2197,2018,1788,1832,1948
520896,38856,5672,38494,5726,-108,60,-718,-313,1105,82,26,2963,42,40,883,1759,1851,2063,2245,2004,1781,1825,1939
521897,38912,5752,38559,5791,53,292,-693,-345,1094,271,86,3282,47,55,886,1759,1851,2063,2245,2004,1781,1825,1939
522898,38984,5828,38624,5856,-156,329,-678,-396,1079,245,35,2964,30,44,885,1759,1851,2063,2245,2004,1781,1825,1939
523899,39036,5924,38689,5921,109,41,-657,-422,1075,233,-163,3338,39,40,874,1759,1851,2063,2245,2004,1781,1825,1939
524900,39104,5988,38754,5986,-95,442,-635,-415,1060,503,-98,3470,45,37,886,1759,1851,2063,2245,2004,1781,1825,1939
525901,39196,6060,38819,6051,-428,334,-611,-424,1054,319,-121,3194,36,50,880,1794,1884,2049,2252,1989,1856,1904,1927
526902,39252,6136,38884,6116,33,270,-603,-418,1054,453,-265,3556,39,54,884,1794,1884,2049,2252,1989,1856,1904,1927
527903,39324,6220,38949,6181,-175,147,-590,-390,1055,629,-299,3659,41,42,885,1794,1884,2049,2252,1989,1856,1904,1927
528904,39372,6304,39014,6246,145,124,-583,-360,1066,590,-240,3537,29,44,874,1794,1884,2049,2252,1989,1856,1904,1927
529905,39448,6392,39079,6311,-218,45,-570,-335,1076,510,-157,3761,31,44,883,1794,1884,2049,2252,1989,1856,1904,1927
530906,39516,6492,39144,6376,-123,-148,-558,-305,1077,389,-269,3697,29,41,870,1794,1884,2049,2252,1989,1856,1904,1927
531907,39568,6592,39209,6441,93,-191,-543,-287,1066,534,-199,3757,45,56,878,1804,1888,2076,2272,1978,1771,1828,1930
532908,39640,6692,39274,6506,-165,-234,-530,-288,1069,343,-115,3566,32,55,885,1804,1888,2076,2272,1978,1771,1828,1930
533909,39708,6792,39339,6571,-119,-276,-511,-295,1086,144,-221,3783,33,38,873,1804,1888,2076,2272,1978,1771,1828,1930
534910,39764,6904,39404,6636,42,-484,-494,-319,1101,4,-233,3646,28,47,877,1804,1888,2076,2272,1978,1771,1828,1930
535911,39832,7000,39469,6701,-112,-321,-462,-351,1108,-42,-236,3614,30,36,882,1804,1888,2076,2272,1978,1771,1828,1930
536912,39900,7056,39534,6766,-115,189,-435,-392,1120,-91,-369,3786,28,39,878,1814,1889,2087,2294,2013,1819,1859,1950
537913,39968,7140,39599,6831,-120,-184,-408,-433,1113,4,-551,3637,28,29,879,1814,1889,2087,2294,2013,1819,1859,1950
538914,40040,7204,39664,6896,-178,68,-388,-444,1115,10,-526,3810,34,35,878,1814,1889,2087,2294,2013,1819,1859,1950
539915,40108,7264,39729,6961,-132,124,-362,-430,1123,239,-379,3841,39,40,873,1814,1889,2087,2294,2013,1819,1859,1950
540916,40180,7340,39794,7026,-191,-91,-339,-380,1123,204,-562,3732,29,33,877,1814,1889,2087,2294,2013,1819,1859,1950
541917,40244,7408,39859,7091,-89,6,-319,-344,1112,409,-613,4044,49,33,871,1814,1889,2087,2294,2013,1819,1859,1950
542918,40300,7484,39924,7156,22,-108,-289,-289,1098,320,-610,3917,34,45,882,1841,1911,2114,2342,2029,1819,1871,1966
543919,40388,7536,39989,7221,-407,208,-272,-224,1107,180,-884,4082,34,38,886,1841,1911,2114,2342,2029,1819,1871,1966
544920,40468,7612,40054,7286,-326,-105,-259,-143,1111,437,-820,4110,46,45,885,1841,1911,2114,2342,2029,1819,1871,1966
545921,40540,7668,40119,7351,-234,156,-250,-124,1119,108,-850,3912,37,37,886,1841,1911,2114,2342,2029,1819,1871,1966
546922,40616,7736,40184,7416,-298,2,-246,-129,1135,95,-1080,4102,34,42,884,1841,1911,2114,2342,2029,1819,1871,1966
547923,40704,7812,40249,7481,-476,-112,-235,-134,1140,-118,-976,4052,31,51,887,1859,1934,2132,2324,2030,1818,1858,1952
548924,40764,7896,40314,7546,-120,-236,-230,-119,1144,-81,-963,4127,51,51,886,1859,1934,2132,2324,2030,1818,1858,1952
549925,40844,7960,40379,7611,-388,15,-220,-92,1138,-67,-999,4416,49,45,886,1859,1934,2132,2324,2030,1818,1858,1952
550926,40920,8052,40444,7676,-353,-367,-232,-63,1157,-61,-1179,4409,44,34,886,1859,1934,2132,2324,2030,1818,1858,1952
551927,41012,8132,40509,7741,-586,-236,-243,-55,1179,133,-1042,4285,45,51,884,1859,1934,2132,2324,2030,1818,1858,1952
552928,41080,8216,40574,7806,-289,-309,-243,-55,1198,-142,-1128,4269,53,38,874,1859,1934,2132,2324,2030,1818,1858,1952
553929,41152,8268,40639,7871,-348,107,-248,-56,1198,-109,-1192,4276,36,51,885,1842,1924,2115,2336,2025,1817,1865,1962
554930,41232,8344,40704,7936,-466,-207,-248,-48,1206,-152,-1229,4250,48,49,886,1842,1924,2115,2336,2025,1817,1865,1962
555931,41340,8412,40769,8001,-870,-111,-257,-38,1224,197,-1322,4293,39,36,885,1842,1924,2115,2336,2025,1817,1865,1962
556932,41420,8480,40834,8066,-538,-115,-254,11,1245,255,-1420,4384,52,40,874,1842,1924,2115,2336,2025,1817,1865,1962
557933,41512,8552,40899,8131,-721,-173,-262,64,1261,251,-1091,4245,53,42,886,1842,1924,2115,2336,2025,1817,1865,1962
558934,41572,8624,40964,8196,-315,-182,-270,98,1251,-33,-981,4104,46,38,886,1844,1912,2104,2328,2072,1853,1904,2002
559935,41684,8688,41029,8261,-1023,-81,-289,120,1241,206,-1188,4361,38,41,886,1844,1912,2104,2328,2072,1853,1904,2002
560936,41756,8752,41094,8326,-532,-80,-290,114,1234,341,-1258,4009,54,45,881,1844,1912,2104,2328,2072,1853,1904,2002
561937,41848,8832,41159,8391,-815,-299,-271,100,1212,168,-1141,3911,45,38,886,1844,1912,2104,2328,2072,1853,1904,2002
562938,41936,8912,41224,8456,-793,-317,-252,69,1206,-268,-1230,3815,41,39,885,1844,1912,2104,2328,2072,1853,1904,2002
563939,42048,8976,41289,8521,-1151,-116,-263,25,1199,-19,-1334,3898,46,46,883,1844,1912,2104,2328,2072,1853,1904,2002
564940,42156,9052,41354,8586,-1154,-279,-274,-16,1192,-2,-1427,3606,42,39,884,1832,1903,2098,2322,2118,1895,1926,2112
565941,42248,9124,41419,8651,-986,-238,-271,-61,1194,31,-1293,3750,55,42,885,1832,1903,2098,2322,2118,1895,1926,2112
566942,42332,9196,41484,8716,-910,-246,-271,-73,1206,-1,-1479,3706,58,51,885,1832,1903,2098,2322,2118,1895,1926,2112
567943,42428,9256,41549,8781,-1098,-91,-276,-75,1219,49,-1501,3544,43,52,885,1832,1903,2098,2322,2118,1895,1926,2112
568944,42548,9344,41614,8846,-1466,-469,-281,-82,1220,124,-1509,3917,47,41,885,1832,1903,2098,2322,2118,1895,1926,2112
569945,42636,9408,41679,8911,-1094,-168,-292,-86,1233,171,-1647,3764,65,47,883,1814,1889,2087,2297,2063,1856,1892,1992
570946,42724,9496,41744,8976,-1123,-496,-300,-50,1250,481,-1575,4037,61,49,886,1814,1889,2087,2297,2063,1856,1892,1992
571947,42840,9544,41809,9041,-1535,24,-318,-11,1266,587,-1518,3966,46,37,883,1814,1889,2087,2297,2063,1856,1892,1992
572948,42940,9604,41874,9106,-1379,-120,-350,50,1263,640,-1547,4190,53,35,886,1814,1889,2087,2297,2063,1856,1892,1992
573949,43044,9668,41939,9171,-1476,-169,-391,101,1260,317,-1512,4202,59,41,886,1814,1889,2087,2297,2063,1856,1892,1992
574950,43144,9748,42004,9236,-1469,-387,-451,160,1267,589,-1403,4227,52,45,886,1814,1889,2087,2297,2063,1856,1892,1992
575951,43252,9824,42069,9301,-1623,-351,-498,172,1262,612,-1290,3946,49,36,884,1799,1873,2061,2269,2023,1807,1854,1948
576952,43360,9892,42134,9366,-1675,-255,-544,146,1239,93,-1182,3830,66,47,884,1799,1873,2061,2269,2023,1807,1854,1948
577953,43464,9948,42199,9431,-1674,-95,-577,83,1210,-26,-1173,3814,61,50,885,1799,1873,2061,2269,2023,1807,1854,1948
578954,43580,10008,42264,9496,-1886,-138,-588,12,1184,122,-1308,3591,69,39,886,1799,1873,2061,2269,2023,1807,1854,1948
579956,43712,10080,42329,9561,-2169,-297,-575,-105,1153,365,-1230,3598,54,37,886,1799,1873,2061,2269,2023,1807,1854,1948
580956,43804,10152,42394,9626,-1702,-306,-541,-192,1120,86,-1391,3829,63,50,883,1795,1871,2066,2286,2062,1849,1886,1989
581957,43928,10228,42459,9691,-2175,-369,-500,-253,1089,60,-1477,3615,68,51,885,1795,1871,2066,2286,2062,1849,1886,1989
582958,44036,10276,42524,9756,-2027,1,-473,-283,1070,536,-1450,3769,62,50,884,1795,1871,2066,2286,2062,1849,1886,1989
583959,44152,10344,42589,9821,-2190,-253,-452,-359,1053,970,-1231,3395,56,45,887,1795,1871,2066,2286,2062,1849,1886,1989
584960,44268,10404,42654,9886,-2254,-147,-437,-404,1032,757,-1447,3704,61,51,885,1795,1871,2066,2286,2062,1849,1886,1989
585961,44368,10480,42719,9951,-2096,-360,-410,-393,1035,931,-1388,3619,68,37,874,1795,1871,2066,2286,2062,1849,1886,1989
586962,44484,10540,42784,10016,-2360,-154,-397,-347,1025,1256,-1185,3859,61,43,884,1786,1898,2103,2324,2086,1865,1909,2007
587963,44588,10616,42849,10081,-2258,-369,-401,-234,1011,1345,-1242,4323,72,40,886,1786,1898,2103,2324,2086,1865,1909,2007
588964,44688,10672,42914,10146,-2251,-108,-436,-141,1010,1568,-1093,4033,67,38,884,1786,1898,2103,2324,2086,1865,1909,2007
589965,44812,10736,42979,10211,-2624,-206,-472,-117,992,1425,-777,4082,53,42,880,1786,1898,2103,2324,2086,1865,1909,2007
590966,44908,10804,43044,10276,-2313,-260,-501,-142,958,1086,-861,4219,66,40,886,1786,1898,2103,2324,2086,1865,1909,2007
591967,45024,10884,43109,10341,-2625,-428,-514,-258,932,896,-929,3620,56,36,886,1860,1944,2129,2359,2039,1823,1879,1968
592968,45152,10928,43174,10406,-2853,46,-518,-330,918,386,-1252,4155,63,43,884,1860,1944,2129,2359,2039,1823,1879,1968
593969,45256,10980,43239,10471,-2602,-38,-502,-390,899,367,-1261,4129,71,39,883,1860,1944,2129,2359,2039,1823,1879,1968
594970,45364,11028,43304,10536,-2705,33,-487,-463,866,629,-1226,4282,66,41,887,1860,1944,2129,2359,2039,1823,1879,1968
595971,45488,11096,43369,10601,-2977,-221,-480,-541,836,434,-1250,4172,56,43,887,1860,1944,2129,2359,2039,1823,1879,1968
596972,45608,11148,43434,10666,-2995,-5,-495,-575,794,728,-1203,4709,68,45,885,1860,1944,2129,2359,2039,1823,1879,1968
597973,45716,11192,43499,10731,-2899,120,-498,-554,763,1093,-1135,4703,61,40,882,1855,1937,2127,2358,2036,1826,1872,1970
598974,45832,11252,43564,10796,-3062,-74,-495,-558,740,1122,-1268,4497,69,44,886,1855,1937,2127,2358,2036,1826,1872,1970
599975,45952,11300,43629,10861,-3180,97,-459,-549,702,1223,-1411,4853,51,31,886,1855,1937,2127,2358,2036,1826,1872,1970
600976,46072,11364,43694,10926,-3248,-102,-432,-544,661,1340,-1343,4571,59,34,886,1855,1937,2127,2358,2036,1826,1872,1970
601977,46152,11420,43759,10991,-2768,9,-398,-539,629,1249,-1276,4551,54,46,885,1855,1937,2127,2358,2036,1826,1872,1970
602978,46264,11488,43824,11056,-3225,-145,-376,-513,599,1227,-1103,4478,65,46,887,1852,1940,2142,2364,2057,1867,1911,2014
603979,46400,11524,43889,11121,-3613,290,-358,-460,597,1194,-1027,4487,54,48,886,1852,1940,2142,2364,2057,1867,1911,2014
604980,46496,11584,43954,11186,-3152,-4,-332,-411,602,1504,-767,4579,64,46,885,1852,1940,2142,2364,2057,1867,1911,2014
605981,46596,11652,44019,11251,-3245,-108,-284,-420,594,1434,-859,4049,64,39,886,1852,1940,2142,2364,2057,1867,1911,2014
606982,46696,11712,44084,11316,-3289,-2,-237,-445,581,993,-719,4287,70,49,886,1852,1940,2142,2364,2057,1867,1911,2014
607983,46788,11776,44149,11381,-3223,-51,-209,-475,549,810,-667,3916,68,44,887,1852,1940,2142,2364,2057,1867,1911,2014
608984,46876,11820,44214,11446,-3202,225,-189,-457,543,725,-812,4137,59,47,887,1876,1949,2165,2409,2097,1883,1919,2001
609985,46976,11888,44279,11511,-3396,-80,-179,-416,551,1124,-809,4127,61,46,886,1876,1949,2165,2409,2097,1883,1919,2001
610986,47064,11964,44344,11576,-3275,-193,-159,-359,547,1342,-815,4322,52,46,887,1876,1949,2165,2409,2097,1883,1919,2001
611987,47176,12028,44409,11641,-3633,-42,-144,-326,522,1116,-804,4311,66,45,886,1876,1949,2165,2409,2097,1883,1919,2001
612988,47268,12092,44474,11706,-3417,-41,-117,-282,479,1085,-790,4667,59,50,887,1876,1949,2165,2409,2097,1883,1919,2001
613989,47360,12152,44539,11771,-3452,15,-97,-232,447,1135,-839,4765,61,38,887,1891,1959,2161,2414,2038,1831,1862,1932
614990,47448,12220,44604,11836,-3431,-88,-73,-156,414,1157,-910,5011,61,33,886,1891,1959,2161,2414,2038,1831,1862,1932
615991,47556,12280,44669,11901,-3735,18,-39,-56,386,1296,-982,5346,43,45,886,1891,1959,2161,2414,2038,1831,1862,1932
616992,47652,12340,44734,11966,-3624,23,20,42,363,1335,-1015,5390,55,48,887,1891,1959,2161,2414,2038,1831,1862,1932
617993,47748,12396,44799,12031,-3662,84,80,112,346,965,-992,5078,51,49,887,1891,1959,2161,2414,2038,1831,1862,1932
618994,47828,12460,44864,12096,-3482,-15,123,144,322,784,-1010,4986,44,38,874,1891,1959,2161,2414,2038,1831,1862,1932
619995,47932,12508,44929,12161,-3800,206,150,156,299,660,-1051,4904,52,34,887,1877,1934,2143,2410,1996,1809,1842,1908
620996,48040,12588,44994,12226,-3800,-212,168,174,291,589,-971,4760,42,47,886,1877,1934,2143,2410,1996,1809,1842,1908
621997,48124,12636,45059,12291,-3658,208,179,206,292,537,-1017,4393,51,47,886,1877,1934,2143,2410,1996,1809,1842,1908
622998,48216,12688,45124,12356,-3793,174,194,240,296,699,-866,4316,54,39,879,1877,1934,2143,2410,1996,1809,1842,1908
623999,48304,12764,45189,12421,-3772,-140,204,279,285,654,-847,4306,54,35,886,1877,1934,2143,2410,1996,1809,1842,1908
625000,48396,12820,45254,12486,-3800,121,215,299,279,630,-882,3952,52,48,886,1913,1972,2196,2477,2024,1831,1881,1955
626001,48460,12880,45319,12551,-3506,77,229,345,283,778,-771,3950,51,33,886,1913,1972,2196,2477,2024,1831,1881,1955
627002,48528,12940,45384,12616,-3560,83,256,402,277,921,-703,3825,49,34,883,1913,1972,2196,2477,2024,1831,1881,1955
628003,48608,13008,45449,12681,-3731,-21,294,460,259,926,-657,3969,47,32,886,1913,1972,2196,2477,2024,1831,1881,1955
629004,48684,13064,45514,12746,-3695,140,330,520,243,1000,-675,4005,35,48,887,1913,1972,2196,2477,2024,1831,1881,1955
630005,48752,13140,45579,12811,-3600,-123,390,554,225,1013,-613,4040,32,42,887,1913,1972,2196,2477,2024,1831,1881,1955
631006,48828,13208,45644,12876,-3714,-27,442,550,208,1006,-574,3826,46,42,884,1928,1986,2185,2440,2065,1861,1898,1985
632007,48904,13272,45709,12941,-3729,23,513,520,168,952,-474,4081,43,32,885,1928,1986,2185,2440,2065,1861,1898,1985
633008,48984,13324,45774,13006,-3799,189,562,477,139,667,-525,3918,33,32,887,1928,1986,2185,2440,2065,1861,1898,1985
634009,49040,13376,45839,13071,-3489,205,619,447,112,633,-583,4067,41,44,886,1928,1986,2185,2440,2065,1861,1898,1985
635010,49100,13436,45904,13136,-3534,111,651,413,87,662,-512,3818,23,44,885,1928,1986,2185,2440,2065,1861,1898,1985
636011,49164,13500,45969,13201,-3584,63,685,386,58,738,-481,3948,30,45,886,1853,1918,2110,2327,2019,1799,1843,1935
637012,49224,13572,46034,13266,-3530,-46,718,363,39,625,-572,3867,35,46,886,1853,1918,2110,2327,2019,1799,1843,1935
638013,49268,13612,46099,13331,-3305,384,730,353,24,584,-557,3906,32,41,887,1853,1918,2110,2327,2019,1799,1843,1935
639014,49328,13656,46164,13396,-3500,360,741,384,-3,728,-434,4048,36,42,884,1853,1918,2110,2327,2019,1799,1843,1935
640015,49388,13704,46229,13461,-3495,331,733,387,-19,665,-593,3764,34,38,885,1853,1918,2110,2327,2019,1799,1843,1935
641016,49444,13736,46294,13526,-3435,570,746,380,-37,553,-630,3999,32,33,885,1853,1918,2110,2327,2019,1799,1843,1935
642017,49476,13764,46359,13591,-3096,665,756,365,-50,412,-628,3813,35,42,884,1814,1872,2073,2281,1961,1750,1807,1908
643018,49516,13792,46424,13656,-3167,710,763,354,-62,181,-613,3822,23,45,882,1814,1872,2073,2281,1961,1750,1807,1908
644019,49560,13844,46489,13721,-3192,426,767,344,-76,208,-554,3735,15,41,882,1814,1872,2073,2281,1961,1750,1807,1908
645020,49596,13928,46554,13786,-3058,3,763,331,-78,253,-507,3531,31,48,884,1814,1872,2073,2281,1961,1750,1807,1908
646021,49624,13988,46619,13851,-2914,309,781,302,-84,271,-453,3544,24,49,887,1814,1872,2073,2281,1961,1750,1807,1908
647022,49664,14096,46684,13916,-3035,-343,794,270,-96,33,-458,3369,15,54,885,1826,1908,2103,2323,1996,1795,1836,1947
648023,49704,14168,46749,13981,-3006,98,796,212,-115,14,-535,3418,29,54,885,1826,1908,2103,2323,1996,1795,1836,1947
649024,49740,14256,46814,14046,-2921,-130,813,185,-137,259,-464,3289,27,41,884,1826,1908,2103,2323,1996,1795,1836,1947
650025,49772,14336,46879,14111,-2832,-48,828,139,-161,260,-258,3364,10,41,886,1826,1908,2103,2323,1996,1795,1836,1947
651026,49784,14412,46944,14176,-2518,-12,837,110,-198,156,-244,3305,16,41,887,1826,1908,2103,2323,1996,1795,1836,1947
652027,49808,14492,47009,14241,-2619,-80,831,77,-230,236,-112,3369,7,36,874,1826,1908,2103,2323,1996,1795,1836,1947
653028,49844,14580,47074,14306,-2735,-208,820,35,-253,369,-60,3420,5,47,886,1852,1920,2136,2358,2065,1861,1890,1995
654029,49844,14648,47139,14371,-2207,37,816,42,-281,466,-110,3626,21,43,886,1852,1920,2136,2358,2065,1861,1890,1995
655030,49872,14700,47204,14436,-2512,253,811,41,-309,628,-58,3577,7,41,887,1852,1920,2136,2358,2065,1861,1890,1995
656031,49880,14772,47269,14501,-2194,-5,802,51,-333,514,22,3924,2,31,878,1852,1920,2136,2358,2065,1861,1890,1995
657032,49900,14836,47334,14566,-2290,96,795,79,-358,464,99,4075,1,30,887,1852,1920,2136,2358,2065,1861,1890,1995
658033,49908,14896,47399,14631,-2071,152,792,124,-377,517,87,4096,-1,39,886,1831,1897,2111,2319,2082,1852,1888,1997
659034,49916,14952,47464,14696,-2003,213,794,148,-394,216,122,4271,-1,30,886,1831,1897,2111,2319,2082,1852,1888,1997
660035,49920,15004,47529,14761,-1879,279,797,158,-406,1,143,4207,15,36,881,1831,1897,2111,2319,2082,1852,1888,1997
661036,49924,15060,47594,14826,-1806,240,786,151,-414,29,48,4324,-2,27,885,1831,1897,2111,2319,2082,1852,1888,1997
662037,49932,15116,47659,14891,-1787,251,762,160,-430,-98,146,4406,-5,30,886,1831,1897,2111,2319,2082,1852,1888,1997
663038,49928,15168,47724,14956,-1554,317,745,141,-437,-227,144,4317,11,29,886,1831,1897,2111,2319,2082,1852,1888,1997
664039,49928,15232,47789,15021,-1526,167,732,139,-447,-356,156,4503,-7,36,883,1787,1862,2056,2279,2078,1857,1875,1996
665040,49936,15300,47854,15086,-1556,113,711,123,-462,-431,156,4441,3,38,886,1787,1862,2056,2279,2078,1857,1875,1996
666041,49932,15360,47919,15151,-1323,219,689,122,-470,-380,133,4476,-7,30,885,1787,1862,2056,2279,2078,1857,1875,1996
667042,49928,15436,47984,15216,-1240,6,679,142,-481,-55,110,4352,10,25,885,1787,1862,2056,2279,2078,1857,1875,1996
668043,49924,15488,48049,15281,-1156,322,665,162,-497,95,97,4298,7,33,886,1787,1862,2056,2279,2078,1857,1875,1996
669044,49928,15548,48114,15346,-1183,228,648,207,-524,-21,126,4297,-5,36,885,1796,1882,2110,2308,2104,1881,1900,2029
670045,49920,15624,48179,15411,-944,14,610,233,-545,50,280,4113,10,31,885,1796,1882,2110,2308,2104,1881,1900,2029
671046,49916,15672,48244,15476,-911,385,572,250,-563,5,410,4280,0,33,887,1796,1882,2110,2308,2104,1881,1900,2029
672047,49932,15732,48309,15541,-1102,241,539,274,-581,74,404,4085,5,38,884,1796,1882,2110,2308,2104,1881,1900,2029
673048,49928,15800,48374,15606,-767,138,506,291,-599,225,502,4027,8,27,886,1796,1882,2110,2308,2104,1881,1900,2029
674049,49924,15868,48439,15671,-684,134,466,284,-624,146,503,4038,2,27,886,1843,1922,2110,2308,2104,1881,1900,2029
675050,49908,15940,48504,15736,-435,75,433,294,-646,308,402,3808,-6,33,886,1843,1922,2157,2362,2131,1911,1924,2050
676051,49920,15976,48569,15801,-722,560,388,313,-673,409,557,3816,5,27,886,1843,1922,2157,2362,2131,1911,1924,2050
677052,49920,16048,48634,15866,-492,101,328,351,-713,369,479,3806,8,37,883,1843,1922,2157,2362,2131,1911,1924,2050
678053,49908,16096,48699,15931,-249,422,260,394,-747,333,502,3710,-9,23,886,1843,1922,2157,2362,2131,1911,1924,2050
679054,49904,16152,48764,15996,-265,333,213,436,-763,224,434,3863,-6,35,885,1843,1922,2157,2362,2131,1911,1924,2050
680055,49916,16212,48829,16061,-401,289,199,454,-770,236,132,3788,-8,31,884,1840,1903,2137,2332,2133,1909,1889,2031
681056,49908,16268,48894,16126,-62,350,222,394,-764,55,0,3737,-9,37,885,1840,1903,2137,2332,2133,1909,1889,2031
682057,49900,16332,48959,16191,26,251,265,294,-747,-392,49,4196,-8,29,885,1840,1903,2137,2332,2133,1909,1889,2031
683058,49892,16396,49024,16256,115,253,310,242,-732,-535,291,4292,-9,26,883,1840,1903,2137,2332,2133,1909,1889,2031
684059,49908,16460,49089,16321,-125,254,325,207,-731,-198,426,4086,5,32,885,1840,1903,2137,2332,2133,1909,1889,2031
685060,49908,16528,49154,16386,153,200,301,194,-733,-16,650,4250,10,28,879,1759,1832,2061,2247,2085,1853,1863,1983
686061,49904,16580,49219,16451,287,416,268,190,-722,-78,571,4178,12,40,884,1759,1832,2061,2247,2085,1853,1863,1983
687062,49900,16660,49284,16516,372,48,247,177,-709,69,615,4011,-7,35,883,1759,1832,2061,2247,2085,1853,1863,1983
688063,49908,16720,49349,16581,291,304,235,196,-711,142,515,4042,-3,40,884,1759,1832,2061,2247,2085,1853,1863,1983
689064,49916,16788,49414,16646,360,200,221,260,-732,614,511,3942,7,30,884,1759,1832,2061,2247,2085,1853,1863,1983
690065,49912,16860,49479,16711,594,142,217,333,-744,684,509,3895,-2,31,884,1759,1832,2061,2247,2085,1853,1863,1983
691066,49908,16920,49544,16776,678,298,212,387,-745,446,624,3771,15,43,882,1766,1851,2066,2259,2038,1813,1846,1967
692067,49924,17000,49609,16841,488,29,203,426,-761,446,622,3723,2,39,880,1766,1851,2066,2259,2038,1813,1846,1967
693068,49940,17040,49674,16906,548,559,184,414,-772,310,713,3483,7,30,883,1766,1851,2066,2259,2038,1813,1846,1967
694069,49968,17112,49739,16971,443,150,150,387,-786,146,827,3471,11,38,880,1766,1851,2066,2259,2038,1813,1846,1967
695070,49992,17184,49804,17036,543,142,106,358,-811,31,694,3330,8,43,882,1766,1851,2066,2259,2038,1813,1846,1967
696071,50028,17232,49869,17101,428,463,80,317,-826,-21,552,3172,12,29,882,1830,1910,2127,2331,2040,1822,1852,1972
697072,50056,17312,49934,17166,573,44,86,246,-819,14,557,3221,17,39,882,1830,1910,2127,2331,2040,1822,1852,1972
698073,50096,17376,49999,17231,453,245,120,164,-807,-187,427,3382,26,37,882,1830,1910,2127,2331,2040,1822,1852,1972
699074,50120,17432,50064,17296,703,356,169,115,-794,-114,380,3498,19,38,883,1830,1910,2127,2331,2040,1822,1852,1972
700075,50168,17492,50129,17361,424,313,212,91,-778,267,447,3552,30,30,878,1830,1910,2127,2331,2040,1822,1852,1972
701076,50200,17564,50328,17560,828,318,228,128,-777,547,463,3718,35,45,882,1830,1910,2127,2331,2040,1822,1852,1972
702077,50240,17612,50393,17625,758,638,235,173,-780,781,371,3529,24,44,879,1847,1918,2146,2344,2047,1828,1849,1968
703078,50288,17684,50458,17690,679,330,225,168,-757,757,601,3380,22,48,877,1847,1918,2146,2344,2047,1828,1849,1968
704079,50352,17748,50523,17755,480,431,219,117,-729,508,675,3500,42,34,880,1847,1918,2146,2344,2047,1828,1849,1968
705080,50404,17824,50588,17820,647,268,207,110,-720,530,650,3555,27,49,881,1847,1918,2146,2344,2047,1828,1849,1968
706081,50460,17876,50653,17885,608,583,195,121,-715,701,721,3580,26,41,881,1847,1918,2146,2344,2047,1828,1849,1968
707082,50528,17944,50718,17950,454,380,171,163,-706,846,918,3645,45,49,879,1839,1903,2119,2319,2021,1807,1834,1945
708083,50592,18024,50783,18015,506,212,141,162,-689,652,873,3486,47,46,881,1839,1903,2119,2319,2021,1807,1834,1945
709084,50672,18072,50848,18080,287,632,128,125,-677,324,902,3599,29,43,882,1839,1903,2119,2319,2021,1807,1834,1945
710085,50728,18140,50913,18145,598,379,130,78,-690,395,867,3773,36,46,881,1839,1903,2119,2319,2021,1807,1834,1945
711086,50788,18228,50978,18210,554,101,150,33,-678,277,577,3914,33,37,881,1839,1903,2119,2319,2021,1807,1834,1945
712087,50868,18288,51043,18275,286,457,202,15,-643,367,679,4155,38,49,882,1839,1903,2119,2319,2021,1807,1834,1945
713088,50948,18364,51108,18340,268,243,258,-30,-615,427,649,3914,37,37,883,1792,1858,2073,2264,2042,1820,1844,1966
714089,51000,18452,51173,18405,634,65,303,-68,-591,96,631,4198,37,35,884,1792,1858,2073,2264,2042,1820,1844,1966
715090,51076,18516,51238,18470,320,366,340,-63,-573,306,773,4056,45,39,882,1792,1858,2073,2264,2042,1820,1844,1966
716091,51144,18588,51303,18535,417,258,355,-60,-560,533,660,3937,37,46,883,1792,1858,2073,2264,2042,1820,1844,1966
717092,51224,18660,51368,18600,248,249,360,-46,-546,553,705,3916,44,41,881,1792,1858,2073,2264,2042,1820,1844,1966
718093,51304,18732,51433,18665,230,241,353,-32,-518,347,843,3819,42,32,884,1788,1871,2096,2290,2066,1836,1865,1994
719094,51368,18800,51498,18730,431,287,340,-24,-500,392,897,3739,49,39,884,1788,1871,2096,2290,2066,1836,1865,1994
720095,51428,18876,51563,18795,487,174,311,16,-495,489,833,3719,46,35,883,1788,1871,2096,2290,2066,1836,1865,1994
721096,51504,18936,51628,18860,275,380,294,68,-480,897,649,3561,41,45,883,1788,1871,2096,2290,2066,1836,1865,1994
722097,51556,19008,51693,18925,591,221,265,103,-463,877,649,3649,41,39,883,1788,1871,2096,2290,2066,1836,1865,1994
723098,51628,19052,51758,18990,332,597,241,107,-449,512,574,3471,34,35,882,1788,1871,2096,2290,2066,1836,1865,1994
724099,51688,19108,51823,19055,488,458,203,132,-439,508,673,3691,48,42,881,1856,1935,2164,2367,2085,1855,1879,2004
725100,51744,19164,51888,19120,549,469,163,164,-453,753,688,3550,30,36,881,1856,1935,2164,2367,2085,1855,1879,2004
726101,51824,19236,51953,19185,231,260,122,188,-437,585,440,3847,31,31,880,1856,1935,2164,2367,2085,1855,1879,2004
727102,51904,19296,52018,19250,213,416,100,181,-405,263,423,3808,48,40,883,1856,1935,2164,2367,2085,1855,1879,2004
728103,51956,19352,52083,19315,579,477,90,127,-370,36,361,3738,26,33,883,1856,1935,2164,2367,2085,1855,1879,2004
729104,52012,19412,52148,19380,540,433,96,37,-331,-148,282,3926,28,43,881,1852,1914,2149,2346,2094,1873,1875,1996
730105,52056,19476,52213,19445,715,385,101,-21,-314,1,348,4173,42,46,880,1852,1914,2149,2346,2094,1873,1875,1996
731106,52128,19564,52278,19510,357,57,111,-47,-285,95,471,4337,28,45,879,1852,1914,2149,2346,2094,1873,1875,1996
732107,52192,19620,52343,19575,458,468,111,-41,-233,367,587,4356,34,39,883,1852,1914,2149,2346,2094,1873,1875,1996
733108,52248,19696,52408,19640,569,204,108,-26,-202,431,713,4534,28,30,881,1852,1914,2149,2346,2094,1873,1875,1996
734109,52308,19768,52473,19705,525,245,100,6,-186,335,768,4544,41,30,880,1852,1914,2149,2346,2094,1873,1875,1996
735110,52388,19832,52538,19770,257,346,93,50,-165,472,708,4536,38,29,882,1790,1856,2087,2277,2098,1870,1882,2009
736111,52444,19880,52603,19835,568,567,94,108,-139,800,601,4376,36,28,883,1790,1856,2087,2277,2098,1870,1882,2009
737112,52508,19948,52668,19900,469,313,88,145,-124,765,643,4299,28,38,880,1790,1856,2087,2277,2098,1870,1882,2009
738113,52572,20008,52733,19965,470,419,75,200,-107,455,685,4228,37,35,882,1790,1856,2087,2277,2098,1870,1882,2009
739114,52624,20072,52798,20030,636,370,45,232,-89,360,779,4047,31,42,881,1790,1856,2087,2277,2098,1870,1882,2009
740115,52680,20128,52863,20095,598,481,11,259,-79,309,672,3960,38,40,880,1787,1867,2092,2286,2109,1875,1897,2024
741116,52736,20176,52928,20160,609,602,-16,257,-69,119,743,3961,39,34,880,1787,1867,2092,2286,2109,1875,1897,2024
742117,52784,20236,52993,20225,730,458,-41,233,-51,-93,637,3875,46,36,879,1787,1867,2092,2286,2109,1875,1897,2024
743118,52844,20308,53058,20290,586,300,-66,219,-34,-293,529,3983,30,31,879,1787,1867,2092,2286,2109,1875,1897,2024
744119,52900,20364,53123,20355,647,511,-75,196,-27,-263,463,3893,40,29,881,1787,1867,2092,2286,2109,1875,1897,2024
745120,52976,20440,53188,20420,383,247,-89,175,-12,-297,393,3896,30,31,879,1787,1867,2092,2286,2109,1875,1897,2024
746121,53040,20480,53253,20485,535,728,-93,170,6,-324,260,3929,40,40,882,1821,1900,2133,2329,2117,1883,1898,2028
747122,53092,20516,53318,20550,700,813,-102,164,21,-246,288,3839,34,42,879,1821,1900,2133,2329,2117,1883,1898,2028
748123,53168,20604,53383,20615,387,135,-102,170,29,-134,250,3923,44,34,876,1821,1900,2133,2329,2117,1883,1898,2028
749124,53232,20660,53448,20680,538,546,-113,189,51,-71,136,3946,38,33,882,1821,1900,2133,2329,2117,1883,1898,2028
750125,53300,20728,53513,20745,485,392,-125,198,71,12,163,3829,29,46,881,1821,1900,2133,2329,2117,1883,1898,2028
751126,53364,20780,53578,20810,536,608,-153,204,82,-10,282,3904,33,45,879,1844,1918,2151,2347,2085,1860,1874,1994
752127,53412,20856,53643,20875,756,295,-173,208,84,127,340,3814,33,45,880,1844,1918,2151,2347,2085,1860,1874,1994
753128,53484,20896,53708,20940,449,775,-204,201,96,120,328,3830,34,34,879,1844,1918,2151,2347,2085,1860,1874,1994
754129,53560,20972,53773,21005,386,312,-222,176,96,80,388,3914,25,30,878,1844,1918,2151,2347,2085,1860,1874,1994
755132,53592,21036,53838,21070,976,463,-262,154,113,43,434,3878,29,44,882,1844,1918,2151,2347,2085,1860,1874,1994
756131,53672,21108,53903,21135,357,354,-276,132,120,204,612,4021,35,33,878,1844,1918,2151,2347,2085,1860,1874,1994
757132,53744,21168,53968,21200,449,511,-293,133,122,231,511,3980,33,39,881,1837,1899,2119,2318,2048,1833,1855,1968
758133,53776,21252,54033,21265,989,187,-279,130,122,183,544,4074,40,28,881,1837,1899,2119,2318,2048,1833,1855,1968
759134,53836,21300,54098,21330,645,658,-272,117,134,-10,593,4237,43,44,878,1837,1899,2119,2318,2048,1833,1855,1968
760135,53912,21364,54163,21395,432,459,-255,113,141,-109,550,4212,46,33,877,1837,1899,2119,2318,2048,1833,1855,1968
761136,53968,21420,54228,21460,693,570,-226,105,145,-127,482,4234,28,37,880,1837,1899,2119,2318,2048,1833,1855,1968
762137,54024,21472,54293,21525,704,636,-198,76,144,-159,533,4130,46,31,879,1801,1868,2082,2278,2052,1837,1867,1984
763138,54088,21528,54358,21590,605,597,-178,49,146,-235,487,4047,41,29,878,1801,1868,2082,2278,2052,1837,1867,1984
764139,54156,21584,54423,21655,552,608,-172,26,146,-302,466,3903,45,40,878,1801,1868,2082,2278,2052,1837,1867,1984
765140,54216,21656,54488,21720,659,400,-162,19,138,-255,438,3777,37,44,879,1801,1868,2082,2278,2052,1837,1867,1984
766141,54268,21724,54553,21785,774,447,-143,13,140,-211,375,3719,44,45,879,1801,1868,2082,2278,2052,1837,1867,1984
767142,54336,21776,54618,21850,571,663,-135,30,138,-141,335,3704,30,35,879,1801,1868,2082,2278,2052,1837,1867,1984
768143,54392,21824,54683,21915,732,734,-130,46,132,-126,345,3656,34,31,876,1816,1898,2114,2321,2059,1839,1875,1994
769144,54448,21900,54748,21980,743,370,-140,52,129,-137,328,3614,31,43,877,1816,1898,2114,2321,2059,1839,1875,1994
770145,54532,21964,54813,22045,370,521,-148,47,118,-279,328,3646,38,44,877,1816,1898,2114,2321,2059,1839,1875,1994
771146,54600,22020,54878,22110,566,632,-174,60,102,-207,396,3674,43,40,880,1816,1898,2114,2321,2059,1839,1875,1994
772147,54660,22068,54943,22175,672,753,-196,49,89,-51,342,3398,35,28,880,1816,1898,2114,2321,2059,1839,1875,1994
773148,54720,22140,55008,22240,678,445,-212,29,82,-55,155,3602,41,38,877,1872,1947,2165,2376,2045,1833,1860,1970
774149,54776,22196,55073,22305,740,656,-209,18,72,-77,225,3746,43,37,878,1872,1947,2165,2376,2045,1833,1860,1970
775150,54852,22236,55138,22370,477,886,-216,4,59,170,295,3765,34,31,878,1872,1947,2165,2376,2045,1833,1860,1970
776151,54912,22300,55203,22435,683,587,-205,-47,58,171,108,3921,48,45,877,1872,1947,2165,2376,2045,1833,1860,1970
777152,54976,22356,55268,22500,634,698,-177,-98,63,-28,129,4129,42,40,877,1872,1947,2165,2376,2045,1833,1860,1970
778153,55060,22420,55333,22565,361,600,-152,-94,42,147,178,4357,33,30,878,1872,1947,2165,2376,2045,1833,1860,1970
779154,55124,22488,55398,22630,612,546,-138,-49,25,611,230,4331,33,31,879,1851,1915,2133,2339,2027,1820,1844,1953
780155,55180,22548,55463,22695,723,652,-127,-31,25,637,214,4210,45,38,879,1851,1915,2133,2339,2027,1820,1844,1953
781156,55244,22628,55528,22760,624,384,-101,4,29,317,272,4391,33,30,878,1851,1915,2133,2339,2027,1820,1844,1953
782157,55308,22676,55593,22825,625,804,-80,50,21,250,342,4277,40,36,878,1851,1915,2133,2339,2027,1820,1844,1953
783158,55380,22736,55658,22890,518,660,-63,87,25,435,414,4092,49,37,878,1851,1915,2133,2339,2027,1820,1844,1953
784159,55440,22812,55723,22955,674,447,-58,76,29,318,463,3996,31,29,878,1822,1887,2104,2317,2033,1829,1858,1963
785160,55496,22860,55788,23020,735,818,-28,30,21,35,417,3884,28,38,877,1822,1887,2104,2317,2033,1829,1858,1963
786161,55576,22916,55853,23085,417,729,6,-24,22,-158,475,3989,29,31,876,1822,1887,2104,2317,2033,1829,1858,1963
787162,55628,23004,55918,23150,783,301,36,-79,37,-144,559,4023,47,42,877,1822,1887,2104,2317,2033,1829,1858,1963
788163,55692,23056,55983,23215,634,767,38,-91,34,180,534,3795,37,32,879,1822,1887,2104,2317,2033,1829,1858,1963
789164,55748,23124,56048,23280,745,564,31,-94,15,509,559,3638,42,41,878,1822,1887,2104,2317,2033,1829,1858,1963
790165,55784,23192,56113,23345,1030,560,16,-88,-5,595,548,3614,31,45,877,1833,1908,2127,2353,2051,1839,1875,1982
791166,55852,23256,56178,23410,626,611,22,-94,-13,496,473,3795,40,46,876,1833,1908,2127,2353,2051,1839,1875,1982
792167,55904,23308,56243,23475,843,777,35,-65,-12,250,227,3904,35,43,876,1833,1908,2127,2353,2051,1839,1875,1982
793168,55988,23380,56308,23540,420,519,68,-4,-15,283,194,4019,39,40,876,1833,1908,2127,2353,2051,1839,1875,1982
794169,56048,23460,56373,23605,726,401,75,92,-24,605,103,3902,47,44,878,1833,1908,2127,2353,2051,1839,1875,1982
795170,56112,23520,56438,23670,677,657,81,179,-32,774,-101,3824,34,40,880,1866,1943,2162,2373,2059,1839,1866,1978
796171,56180,23592,56503,23735,624,498,74,238,-45,598,-132,3843,41,43,878,1866,1943,2162,2373,2059,1839,1866,1978
797172,56236,23632,56568,23800,785,929,79,258,-53,240,-90,3950,40,31,878,1866,1943,2162,2373,2059,1839,1866,1978
798173,56292,23684,56633,23865,796,794,94,264,-56,134,-74,4071,34,44,876,1866,1943,2162,2373,2059,1839,1866,1978
799174,56344,23752,56698,23930,862,591,104,238,-47,80,-75,4117,29,34,874,1866,1943,2162,2373,2059,1839,1866,1978
800175,56412,23812,56763,23995,659,697,120,231,-43,329,11,4219,37,44,875,1866,1943,2162,2373,2059,1839,1866,1978
801176,56468,23872,56828,24060,820,703,121,209,-27,197,11,4114,32,45,876,1857,1923,2145,2357,2037,1828,1846,1948
802177,56532,23920,56893,24125,721,874,126,182,-6,217,128,4199,46,33,874,1857,1923,2145,2357,2037,1828,1846,1948
803178,56584,23988,56958,24190,887,620,119,142,10,215,197,4134,33,34,874,1857,1923,2145,2357,2037,1828,1846,1948
804179,56628,24048,57023,24255,1013,726,116,119,10,256,230,4115,43,32,875,1857,1923,2145,2357,2037,1828,1846,1948
805181,56700,24104,57088,24320,654,788,105,84,22,350,398,4105,28,44,874,1857,1923,2145,2357,2037,1828,1846,1948
806181,56736,24172,57153,24385,1140,635,105,91,32,510,414,4142,46,31,875,1829,1889,2107,2331,2039,1839,1868,1970
807182,56808,24248,57218,24450,682,521,112,125,48,649,296,4130,48,35,874,1829,1889,2107,2331,2039,1839,1868,1970
808183,56860,24308,57283,24515,948,727,133,177,67,906,384,4252,47,44,876,1829,1889,2107,2331,2039,1839,1868,1970
809184,56916,24364,57348,24580,909,788,152,224,90,678,361,4268,44,42,876,1829,1889,2107,2331,2039,1839,1868,1970
810185,56984,24428,57413,24645,755,689,182,250,104,569,343,4163,48,34,873,1829,1889,2107,2331,2039,1839,1868,1970
811186,57064,24496,57478,24710,587,636,203,253,118,469,307,4116,36,34,875,1829,1889,2107,2331,2039,1839,1868,1970
812187,57108,24552,57543,24775,1063,797,221,250,118,368,197,3973,37,38,877,1829,1898,2116,2334,2085,1868,1897,2012
813188,57172,24600,57608,24840,814,917,234,224,115,334,38,3774,38,31,876,1829,1898,2116,2334,2085,1868,1897,2012
814189,57224,24684,57673,24905,981,444,245,206,113,238,132,4016,30,34,873,1829,1898,2116,2334,2085,1868,1897,2012
815190,57300,24740,57738,24970,667,805,258,185,117,54,-17,3806,42,38,872,1829,1898,2116,2334,2085,1868,1897,2012
816191,57348,24788,57803,25035,1038,926,272,171,117,4,-72,4017,50,40,877,1829,1898,2116,2334,2085,1868,1897,2012
817192,57400,24824,57868,25100,1004,1111,299,147,128,123,25,4023,50,40,876,1856,1933,2154,2363,2088,1858,1885,2001
818193,57480,24888,57933,25165,635,764,304,106,147,-161,-48,3656,51,37,870,1856,1933,2154,2363,2088,1858,1885,2001
819194,57532,24944,57998,25230,1002,875,303,94,150,-15,-62,3932,50,36,866,1856,1933,2154,2363,2088,1858,1885,2001
820195,57624,25020,58063,25295,469,611,296,92,166,94,-106,3749,42,35,876,1856,1933,2154,2363,2088,1858,1885,2001
821196,57668,25088,58128,25360,1095,708,293,105,188,217,-59,3962,39,35,871,1856,1933,2154,2363,2088,1858,1885,2001
822197,57724,25148,58193,25425,956,814,297,140,210,258,-9,3934,46,38,879,1856,1933,2154,2363,2088,1858,1885,2001
823198,57784,25200,58258,25490,912,930,295,153,232,283,-4,3995,49,42,872,1871,1950,2162,2364,2032,1811,1846,1954
824199,57848,25248,58323,25555,863,1000,292,166,249,200,114,4069,51,43,873,1871,1950,2162,2364,2032,1811,1846,1954
825200,57900,25316,58388,25620,1030,747,273,155,250,402,166,4035,50,49,871,1871,1950,2162,2364,2032,1811,1846,1954
826201,57976,25392,58453,25685,717,633,260,120,246,367,109,3839,43,48,871,1871,1950,2162,2364,2032,1811,1846,1954
827202,58024,25476,58518,25750,1088,511,239,57,236,204,219,4008,36,33,872,1871,1950,2162,2364,2032,1811,1846,1954
828203,58104,25524,58583,25815,669,982,251,17,241,-7,322,4174,48,41,876,1853,1915,2123,2335,2010,1807,1844,1948
829204,58156,25600,58648,25880,1035,618,263,-36,262,303,292,4126,46,37,874,1853,1915,2123,2335,2010,1807,1844,1948
830205,58212,25660,58713,25945,996,824,289,-40,281,304,286,4505,30,44,873,1853,1915,2123,2335,2010,1807,1844,1948
831206,58260,25724,58778,26010,1118,776,308,-72,295,370,373,4179,49,34,874,1853,1915,2123,2335,2010,1807,1844,1948
832207,58328,25804,58843,26075,864,557,333,-83,322,416,190,4213,34,50,872,1853,1915,2123,2335,2010,1807,1844,1948
833208,58376,25872,58908,26140,1135,704,343,-106,343,358,356,3947,45,48,871,1853,1915,2123,2335,2010,1807,1844,1948
834209,58440,25928,58973,26205,936,865,361,-96,340,362,463,3941,41,41,876,1826,1891,2110,2326,2059,1852,1883,1998
835210,58508,25980,59038,26270,882,931,360,-79,351,274,261,3891,51,35,872,1826,1891,2110,2326,2059,1852,1883,1998
836211,58556,26064,59103,26335,1154,508,387,-42,359,410,416,4002,36,46,871,1826,1891,2110,2326,2059,1852,1883,1998
837212,58612,26140,59168,26400,1065,595,407,-11,368,233,274,3753,48,54,871,1826,1891,2110,2326,2059,1852,1883,1998
838213,58688,26208,59233,26465,802,691,436,19,380,194,195,3735,38,51,873,1826,1891,2110,2326,2059,1852,1883,1998
839214,58764,26256,59298,26530,788,962,459,33,385,180,386,3712,48,51,874,1850,1924,2151,2363,2105,1882,1903,2018
840215,58816,26336,59363,26595,1104,544,472,24,387,-257,190,3617,36,41,876,1850,1924,2151,2363,2105,1882,1903,2018
841216,58872,26404,59428,26660,1066,690,494,18,384,-218,314,3753,38,45,873,1850,1924,2151,2363,2105,1882,1903,2018
842217,58936,26488,59493,26725,967,467,511,0,366,-209,382,3728,34,47,874,1850,1924,2151,2363,2105,1882,1903,2018
843218,58992,26564,59558,26790,1078,553,522,-9,367,-288,138,3805,35,49,873,1850,1924,2151,2363,2105,1882,1903,2018
844219,59048,26624,59623,26855,1089,759,530,-11,357,-60,356,4108,41,47,876,1850,1924,2151,2363,2105,1882,1903,2018
845220,59124,26696,59688,26920,827,601,533,-27,363,-204,262,3856,49,44,874,1862,1936,2161,2373,2051,1832,1852,1953
846221,59172,26768,59753,26985,1198,592,535,-22,364,-191,390,4299,29,38,872,1862,1936,2161,2373,2051,1832,1852,1953
847222,59212,26832,59818,27050,1328,695,533,-6,353,-37,520,4051,31,38,876,1862,1936,2161,2373,2051,1832,1852,1953
848223,59272,26892,59883,27115,1084,751,534,8,357,38,431,4258,46,46,872,1862,1936,2161,2373,2051,1832,1852,1953
849224,59320,26972,59948,27180,1255,482,526,47,368,253,528,4302,47,45,870,1862,1936,2161,2373,2051,1832,1852,1953
850225,59396,27036,60013,27245,893,684,529,99,374,296,583,4314,31,44,872,1853,1918,2135,2353,1983,1787,1821,1918
851226,59440,27096,60078,27310,1318,740,522,132,387,223,491,4272,47,44,872,1853,1918,2135,2353,1983,1787,1821,1918
852227,59504,27148,60143,27375,1070,856,515,155,399,205,493,4164,43,46,874,1853,1918,2135,2353,1983,1787,1821,1918
853228,59564,27216,60208,27440,1126,652,514,172,399,316,527,3961,31,34,867,1853,1918,2135,2353,1983,1787,1821,1918
854229,59600,27280,60273,27505,1462,703,526,183,403,300,547,3913,45,35,870,1853,1918,2135,2353,1983,1787,1821,1918
855230,59668,27356,60338,27570,1058,540,535,188,413,108,495,3985,32,49,872,1853,1918,2135,2353,1983,1787,1821,1918
856231,59732,27396,60403,27635,1110,1020,546,192,413,254,577,3813,50,32,868,1853,1913,2137,2361,2019,1829,1856,1961
857232,59784,27452,60468,27700,1275,831,564,182,416,204,618,3721,35,31,874,1853,1913,2137,2361,2019,1829,1856,1961
858233,59848,27516,60533,27765,1128,732,587,161,423,-98,631,3823,31,45,868,1853,1913,2137,2361,2019,1829,1856,1961
859234,59900,27572,60598,27830,1294,844,608,161,411,-68,526,3631,47,30,868,1853,1913,2137,2361,2019,1829,1856,1961
860235,59972,27632,60663,27895,1035,801,630,159,401,166,552,3643,39,33,871,1853,1913,2137,2361,2019,1829,1856,1961
861236,60020,27692,60728,27960,1356,807,649,155,397,-7,510,3683,31,41,868,1850,1913,2147,2364,2086,1877,1892,2005
862237,60072,27744,60793,28025,1323,923,664,141,389,-275,444,3520,45,39,871,1850,1913,2147,2364,2086,1877,1892,2005
863238,60140,27808,60858,28090,1119,774,676,124,382,-142,475,3525,29,42,867,1850,1913,2147,2364,2086,1877,1892,2005
864239,60204,27844,60923,28155,1170,1159,674,113,390,-162,466,3684,37,45,867,1850,1913,2147,2364,2086,1877,1892,2005
865240,60256,27884,60988,28220,1336,1140,683,112,386,-106,556,3699,42,36,871,1850,1913,2147,2364,2086,1877,1892,2005
866241,60304,27964,61053,28285,1408,621,685,122,382,1,470,3751,39,46,866,1850,1913,2147,2364,2086,1877,1892,2005
867242,60356,28028,61118,28350,1374,823,677,144,388,168,506,3956,35,36,864,1839,1912,2138,2336,2069,1847,1866,1981
868243,60404,28080,61183,28415,1444,989,666,166,395,47,488,3793,49,36,869,1839,1912,2138,2336,2069,1847,1866,1981
869244,60472,28148,61248,28480,1192,786,654,178,390,-8,563,4033,32,44,867,1839,1912,2138,2336,2069,1847,1866,1981
870245,60536,28220,61313,28545,1243,727,631,196,385,-92,557,3987,41,48,863,1839,1912,2138,2336,2069,1847,1866,1981
871246,60576,28288,61378,28610,1574,774,615,216,385,216,421,4092,30,53,868,1839,1912,2138,2336,2069,1847,1866,1981
872247,60660,28356,61443,28675,1001,770,595,236,404,671,328,4369,43,53,869,1815,1892,2106,2299,2027,1814,1844,1958
873248,60708,28428,61508,28740,1472,711,587,233,407,56,679,3897,43,50,866,1815,1892,2106,2299,2027,1814,1844,1958
874249,60760,28512,61573,28805,1438,538,579,210,406,-223,491,4025,38,56,872,1815,1892,2106,2299,2027,1814,1844,1958
875250,60812,28572,61638,28870,1454,844,557,194,412,113,417,4010,49,39,867,1815,1892,2106,2299,2027,1814,1844,1958
876251,60876,28640,61703,28935,1306,741,551,168,420,244,689,3722,32,40,869,1815,1892,2106,2299,2027,1814,1844,1958
877252,60940,28724,61768,29000,1307,518,536,150,429,137,582,3953,45,53,866,1815,1892,2106,2299,2027,1814,1844,1958
878253,60992,28796,61833,29065,1473,660,533,139,434,38,558,3753,31,51,870,1812,1886,2114,2320,2058,1851,1873,1993
879254,61040,28872,61898,29130,1545,596,529,105,434,172,663,3802,46,48,871,1812,1886,2114,2320,2058,1851,1873,1993
880255,61108,28948,61963,29195,1291,583,533,79,441,182,532,3622,31,36,867,1812,1886,2114,2320,2058,1851,1873,1993
881256,61144,29004,62028,29260,1727,844,534,57,443,287,632,3694,34,41,867,1812,1886,2114,2320,2058,1851,1873,1993
882257,61216,29060,62093,29325,1269,855,535,56,444,61,553,3622,45,53,871,1812,1886,2114,2320,2058,1851,1873,1993
883258,61260,29112,62158,29390,1645,921,543,69,431,208,690,3758,39,51,863,1835,1907,2148,2357,2105,1891,1902,2022
884259,61344,29196,62223,29455,1121,498,544,77,427,394,598,3737,43,45,868,1835,1907,2148,2357,2105,1891,1902,2022
885260,61400,29268,62288,29520,1483,639,541,80,423,203,621,3689,36,45,863,1835,1907,2148,2357,2105,1891,1902,2022
886261,61460,29320,62353,29585,1440,905,527,80,424,197,581,3769,35,43,873,1835,1907,2148,2357,2105,1891,1902,2022
887262,61516,29384,62418,29650,1501,757,512,77,439,203,619,3699,33,50,866,1835,1907,2148,2357,2105,1891,1902,2022
888263,61560,29436,62483,29715,1677,923,485,75,448,149,701,3862,40,52,864,1835,1907,2148,2357,2105,1891,1902,2022
889264,61620,29504,62548,29780,1483,719,468,91,439,191,655,4083,33,43,866,1849,1917,2151,2360,2088,1868,1882,1996
890265,61668,29584,62613,29845,1654,551,447,94,446,108,639,3968,50,56,863,1849,1917,2151,2360,2088,1868,1882,1996
891266,61724,29668,62678,29910,1566,478,429,84,450,123,725,4086,45,53,867,1849,1917,2151,2360,2088,1868,1882,1996
892267,61788,29708,62743,29975,1467,1058,406,95,441,110,670,4211,49,48,866,1849,1917,2151,2360,2088,1868,1882,1996
893268,61832,29768,62808,30040,1743,815,388,104,447,36,660,4244,41,43,868,1849,1917,2151,2360,2088,1868,1882,1996
894269,61896,29848,62873,30105,1495,546,373,107,449,107,695,4357,39,57,864,1822,1895,2124,2321,2057,1843,1859,1976
895270,61944,29900,62938,30170,1716,912,363,130,453,148,586,4349,33,55,862,1822,1895,2124,2321,2057,1843,1859,1976
896271,61984,29992,63003,30235,1847,379,350,128,455,155,591,4236,36,51,868,1822,1895,2124,2321,2057,1843,1859,1976
897272,62056,30060,63068,30300,1439,676,341,145,449,123,606,4225,43,44,861,1822,1895,2124,2321,2057,1843,1859,1976
898273,62096,30120,63133,30365,1869,783,320,145,454,168,589,4094,40,49,865,1822,1895,2124,2321,2057,1843,1859,1976
899274,62152,30188,63198,30430,1681,679,308,140,454,210,706,4114,25,42,868,1822,1895,2124,2321,2057,1843,1859,1976
900275,62184,30272,63263,30495,2022,456,295,135,442,207,659,3965,46,51,861,1814,1891,2127,2328,2080,1868,1883,2005
901276,62240,30316,63328,30560,1734,981,292,137,436,257,658,4069,43,42,864,1814,1891,2127,2328,2080,1868,1883,2005
902277,62288,30380,63393,30625,1854,733,289,131,432,251,836,3885,50,38,862,1814,1891,2127,2328,2080,1868,1883,2005
903278,62356,30432,63458,30690,1601,898,294,139,417,216,913,3909,37,48,861,1814,1891,2127,2328,2080,1868,1883,2005
904279,62404,30488,63523,30755,1872,859,292,171,406,357,1003,3991,38,54,859,1814,1891,2127,2328,2080,1868,1883,2005
905280,62460,30568,63588,30820,1783,541,292,226,396,685,936,4086,40,56,861,1836,1912,2155,2361,2114,1901,1908,2026
906281,62532,30640,63653,30885,1576,633,280,273,381,687,897,3966,52,44,861,1836,1912,2155,2361,2114,1901,1908,2026
907282,62580,30688,63718,30950,1897,953,281,285,356,397,828,3827,45,42,864,1836,1912,2155,2361,2114,1901,1908,2026
908283,62660,30760,63783,31015,1478,646,277,281,340,-78,955,4030,32,42,866,1836,1912,2155,2361,2114,1901,1908,2026
909284,62720,30824,63848,31080,1735,747,242,306,322,-518,1013,3746,55,53,858,1836,1912,2155,2361,2114,1901,1908,2026
910285,62768,30892,63913,31145,1906,693,221,374,339,479,665,4328,52,39,867,1852,1921,2165,2379,2087,1881,1886,1994
911286,62844,30940,63978,31210,1544,964,234,438,408,1213,340,5264,51,55,863,1852,1921,2165,2379,2087,1881,1886,1994
912287,62896,31000,64043,31275,1860,820,295,465,335,330,2110,4536,47,43,861,1852,1921,2165,2379,2087,1881,1886,1994
913288,62976,31072,64108,31340,1492,662,308,520,304,205,879,5416,50,50,864,1852,1921,2165,2379,2087,1881,1886,1994
914289,63028,31132,64173,31405,1858,818,303,363,282,887,1450,3194,53,40,861,1852,1921,2165,2379,2087,1881,1886,1994
915290,63088,31180,64238,31470,1764,989,305,311,206,248,1737,5073,40,56,867,1852,1921,2165,2379,2087,1881,1886,1994
916291,63148,31252,64303,31535,1771,680,272,307,164,-562,1374,3764,43,42,861,1846,1916,2167,2392,2055,1854,1861,1966
917292,63200,31336,64368,31600,1887,507,275,366,136,958,1490,4888,33,54,860,1846,1916,2167,2392,2055,1854,1861,1966
918293,63260,31392,64433,31665,1794,869,266,365,155,758,1310,4169,45,57,864,1846,1916,2167,2392,2055,1854,1861,1966
919294,63328,31440,64498,31730,1691,990,262,324,147,130,1300,3721,47,41,864,1846,1916,2167,2392,2055,1854,1861,1966
920295,63384,31508,64563,31795,1853,736,246,345,124,321,1380,4334,39,39,861,1846,1916,2167,2392,2055,1854,1861,1966
921296,63436,31564,64628,31860,1919,897,235,356,99,759,1360,3589,33,42,859,1876,1954,2204,2415,2055,1855,1868,1991
922297,63492,31612,64693,31925,1881,1018,230,433,85,991,1272,4475,41,53,859,1876,1954,2204,2415,2055,1855,1868,1991
923298,63536,31676,64758,31990,2056,819,234,502,89,935,1127,4157,36,44,859,1876,1954,2204,2415,2055,1855,1868,1991
924299,63604,31740,64823,32055,1754,820,257,568,79,796,1305,4169,32,52,858,1876,1954,2204,2415,2055,1855,1868,1991
925300,63668,31800,64888,32120,1805,876,269,562,69,753,1441,3847,43,41,858,1876,1954,2204,2415,2055,1855,1868,1991
926301,63704,31864,64953,32185,2190,827,280,588,46,691,1409,4039,33,55,862,1876,1954,2204,2415,2055,1855,1868,1991
927302,63768,31924,65018,32250,1842,884,284,566,12,844,1596,3962,31,59,861,1867,1948,2194,2388,2074,1864,1872,1996
928303,63836,32000,65083,32315,1789,671,287,565,-12,551,1495,4124,57,56,856,1867,1948,2194,2388,2074,1864,1872,1996
929304,63924,32064,65148,32380,1512,822,285,540,-49,616,1735,3801,39,43,860,1867,1948,2194,2388,2074,1864,1872,1996
930305,63984,32128,65213,32445,1868,823,291,519,-88,304,1627,3677,39,40,863,1867,1948,2194,2388,2074,1864,1872,1996
931306,64068,32204,65278,32510,1546,660,287,532,-128,721,1588,4309,47,52,865,1867,1948,2194,2388,2074,1864,1872,1996
932307,64136,32248,65343,32575,1742,1086,293,542,-143,986,1650,4180,36,42,860,1831,1905,2145,2340,2069,1857,1864,1979
933308,64172,32328,65408,32640,2178,617,294,507,-170,430,1971,3801,38,50,866,1831,1905,2145,2340,2069,1857,1864,1979
934309,64248,32392,65473,32705,1665,819,283,507,-205,213,1697,3953,33,52,860,1831,1905,2145,2340,2069,1857,1864,1979
935310,64316,32456,65538,32770,1762,820,256,531,-220,826,1655,4052,47,44,858,1831,1905,2145,2340,2069,1857,1864,1979
936311,64400,32528,65603,32835,1539,712,243,541,-248,1017,1865,3794,55,45,864,1831,1905,2145,2340,2069,1857,1864,1979
937312,64472,32576,65668,32900,1681,1033,212,499,-264,298,1746,3627,42,52,861,1831,1905,2145,2340,2069,1857,1864,1979
938313,64528,32644,65733,32965,1892,779,179,491,-289,341,1644,3859,37,40,865,1807,1881,2127,2326,2069,1861,1863,1985
939314,64596,32724,65798,33030,1739,611,151,486,-293,662,1630,3661,46,46,859,1807,1881,2127,2326,2069,1861,1863,1985
940315,64652,32784,65863,33095,1901,867,133,503,-306,911,1536,3630,38,45,860,1807,1881,2127,2326,2069,1861,1863,1985
941316,64712,32844,65928,33160,1857,873,113,557,-313,980,1421,3947,44,47,864,1807,1881,2127,2326,2069,1861,1863,1985
942317,64780,32912,65993,33225,1754,770,99,580,-322,808,1401,3681,39,47,860,1807,1881,2127,2326,2069,1861,1863,1985
943318,64868,32968,66058,33290,1476,931,85,590,-331,595,1366,3740,50,48,860,1802,1880,2134,2317,2092,1881,1873,2011
944319,64924,33072,66123,33355,1888,284,70,605,-343,532,1359,3720,47,50,864,1802,1880,2134,2317,2092,1881,1873,2011
945320,64968,33140,66188,33420,2064,730,55,624,-356,696,1361,3679,50,54,865,1802,1880,2134,2317,2092,1881,1873,2011
946321,65072,33192,66253,33485,1267,946,37,655,-358,737,1273,3930,37,49,864,1802,1880,2134,2317,2092,1881,1873,2011
947322,65136,33268,66318,33550,1768,633,15,667,-355,544,1466,3612,48,45,859,1802,1880,2134,2317,2092,1881,1873,2011
948323,65200,33324,66383,33615,1771,894,-13,669,-379,436,1603,3857,53,52,867,1802,1880,2134,2317,2092,1881,1873,2011
949324,65284,33400,66448,33680,1497,630,-44,672,-395,363,1292,3600,56,47,864,1792,1875,2133,2313,2108,1887,1880,2010
950325,65368,33488,66513,33745,1474,452,-86,667,-417,538,1674,3695,58,51,862,1792,1875,2133,2313,2108,1887,1880,2010
951326,65452,33552,66712,33944,1616,917,-125,651,-446,493,1655,3587,51,47,868,1792,1875,2133,2313,2108,1887,1880,2010
952327,65520,33628,66777,34009,1812,754,-182,652,-482,267,1695,3476,53,47,869,1792,1875,2133,2313,2108,1887,1880,2010
953328,65576,33700,66842,34074,1974,796,-242,656,-502,436,1653,3582,40,47,864,1792,1875,2133,2313,2108,1887,1880,2010
954329,65664,33760,66907,34139,1546,952,-297,686,-513,871,1633,3753,53,52,862,1793,1873,2125,2310,2112,1890,1887,2020
955330,65736,33852,66972,34204,1738,519,-333,673,-562,804,2125,3406,47,53,857,1793,1873,2125,2310,2112,1890,1887,2020
956331,65820,33912,67037,34269,1565,925,-372,645,-599,219,1717,3510,44,64,862,1793,1873,2125,2310,2112,1890,1887,2020
957332,65888,33988,67102,34334,1762,712,-407,698,-616,452,1638,3861,51,49,865,1793,1873,2125,2310,2112,1890,1887,2020
958333,65960,34064,67167,34399,1704,698,-443,745,-615,1047,1499,3658,54,52,864,1793,1873,2125,2310,2112,1890,1887,2020
959334,66052,34144,67232,34464,1422,630,-454,774,-648,870,1783,3728,59,62,863,1793,1873,2125,2310,2112,1890,1887,2020
960335,66128,34228,67297,34529,1609,557,-471,748,-673,95,1620,3369,57,49,864,1777,1856,2103,2283,2122,1899,1888,2024
961336,66212,34316,67362,34594,1486,480,-484,761,-671,163,1344,3867,55,63,869,1777,1856,2103,2283,2122,1899,1888,2024
962337,66280,34392,67427,34659,1683,616,-508,776,-663,904,1401,3813,56,64,867,1777,1856,2103,2283,2122,1899,1888,2024
963338,66352,34488,67492,34724,1624,329,-508,772,-670,558,1373,3653,55,50,869,1777,1856,2103,2283,2122,1899,1888,2024
964339,66444,34564,67557,34789,1342,565,-505,713,-689,-38,1687,3447,61,65,866,1777,1856,2103,2283,2122,1899,1888,2024
965340,66508,34632,67622,34854,1693,661,-528,662,-693,-244,1386,3451,56,60,868,1763,1847,2104,2282,2100,1880,1870,2000
966341,66580,34716,67687,34919,1586,438,-564,679,-698,409,1232,3724,41,59,870,1763,1847,2104,2282,2100,1880,1870,2000
967342,66644,34796,67752,34984,1687,470,-603,688,-691,751,1541,3345,43,59,865,1763,1847,2104,2282,2100,1880,1870,2000
968343,66732,34876,67817,35049,1360,452,-650,657,-702,266,1653,3230,54,53,868,1763,1847,2104,2282,2100,1880,1870,2000
969344,66804,34956,67882,35114,1551,433,-685,603,-739,-287,1704,3308,48,52,866,1763,1847,2104,2282,2100,1880,1870,2000
970345,66896,35028,67947,35179,1268,525,-711,593,-757,-14,1628,3244,50,53,872,1763,1847,2104,2282,2100,1880,1870,2000
971346,66964,35088,68012,35244,1566,681,-759,616,-772,619,1563,3464,66,53,869,1787,1869,2121,2305,2059,1843,1847,1973
972347,67052,35168,68077,35309,1288,413,-800,641,-787,495,1735,3273,59,59,870,1787,1869,2121,2305,2059,1843,1847,1973
973348,67140,35240,68142,35374,1261,504,-824,607,-836,-44,1994,3339,62,45,864,1787,1869,2121,2305,2059,1843,1847,1973
974349,67216,35308,68207,35439,1397,551,-851,584,-878,-281,1508,3212,43,46,872,1787,1869,2121,2305,2059,1843,1847,1973
975350,67312,35376,68272,35504,1109,548,-879,598,-906,496,1470,3601,51,57,872,1787,1869,2121,2305,2059,1843,1847,1973
976351,67388,35440,68337,35569,1347,599,-898,576,-926,386,1483,3261,62,46,869,1804,1880,2120,2298,2048,1833,1844,1977
977352,67492,35520,68402,35634,949,381,-898,543,-969,-151,1579,3200,56,57,873,1804,1880,2120,2298,2048,1833,1844,1977
978353,67568,35588,68467,35699,1286,527,-912,493,-1007,-621,1673,3267,43,43,870,1804,1880,2120,2298,2048,1833,1844,1977
979354,67660,35668,68532,35764,1054,359,-917,481,-1049,-432,1322,3161,55,53,876,1804,1880,2120,2298,2048,1833,1844,1977
980357,67736,35724,68597,35829,1241,670,-958,503,-1033,1153,726,3821,58,44,871,1804,1880,2120,2298,2048,1833,1844,1977
981356,67832,35796,68662,35894,953,461,-1005,383,-990,880,1202,2318,60,43,875,1804,1880,2120,2298,2048,1833,1844,1977
982357,67908,35860,68727,35959,1190,562,-1047,203,-989,-1147,1773,2246,51,41,871,1792,1872,2108,2288,2051,1839,1851,1983
983358,67988,35932,68792,36024,1122,454,-1054,154,-1031,-1028,1577,3369,61,45,876,1792,1872,2108,2288,2051,1839,1851,1983
984359,68080,35996,68857,36089,939,555,-1024,220,-1048,502,1023,3561,53,42,873,1792,1872,2108,2288,2051,1839,1851,1983
985360,68156,36076,68922,36154,1127,337,-978,316,-1031,793,1123,3605,63,50,874,1792,1872,2108,2288,2051,1839,1851,1983
986361,68264,36132,68987,36219,674,648,-968,310,-1014,75,1261,3095,57,48,875,1792,1872,2108,2288,2051,1839,1851,1983
987362,68328,36188,69052,36284,1225,659,-974,242,-1031,-807,1330,3157,48,38,875,1769,1847,2079,2255,2054,1834,1848,1976
988363,68428,36264,69117,36349,733,395,-994,195,-1060,-386,1343,3006,51,44,877,1769,1847,2079,2255,2054,1834,1848,1976
989364,68508,36324,69182,36414,965,601,-1006,161,-1080,91,1358,3129,63,54,870,1769,1847,2079,2255,2054,1834,1848,1976
990365,68592,36396,69247,36479,892,443,-1015,152,-1088,-14,1332,3292,60,42,877,1769,1847,2079,2255,2054,1834,1848,1976
991366,68704,36484,69312,36544,485,215,-1016,150,-1108,-250,1477,3538,47,45,874,1769,1847,2079,2255,2054,1834,1848,1976
992367,68780,36552,69377,36609,921,461,-1027,137,-1124,-483,1256,3220,50,54,877,1769,1847,2079,2255,2054,1834,1848,1976
993368,68852,36600,69442,36674,964,732,-1038,99,-1147,-254,1323,3071,56,41,882,1772,1851,2079,2267,2024,1809,1829,1949
994369,68956,36680,69507,36739,516,314,-1056,52,-1173,-483,1277,3156,58,56,877,1772,1851,2079,2267,2024,1809,1829,1949
995370,69028,36752,69572,36804,908,405,-1070,29,-1196,-373,1209,3180,60,55,874,1772,1851,2079,2267,2024,1809,1829,1949
996371,69120,36824,69637,36869,625,396,-1105,-7,-1221,-258,1234,2874,52,57,881,1772,1851,2079,2267,2024,1809,1829,1949
997372,69204,36896,69702,36934,701,388,-1118,-41,-1239,-275,1252,2978,59,54,877,1772,1851,2079,2267,2024,1809,1829,1949
998373,69292,36988,69767,36999,624,105,-1135,-76,-1258,-401,1180,3018,56,48,880,1802,1874,2109,2304,2018,1810,1828,1951
999374,69384,37040,69832,37064,541,621,-1140,-70,-1271,-187,965,3357,50,44,879,1802,1874,2109,2304,2018,1810,1828,1951
1000375,69452,37116,69897,37129,838,307,-1149,-65,-1268,-154,990,3015,52,42,881,1802,1874,2109,2304,2018,1810,1828,1951
1001376,69536,37192,69962,37194,615,294,-1166,-61,-1273,-176,854,3061,51,47,879,1802,1874,2109,2304,2018,1810,1828,1951
1002377,69612,37264,70027,37259,701,335,-1167,-52,-1267,-236,769,3159,45,48,879,1802,1874,2109,2304,2018,1810,1828,1951
1003378,69704,37336,70092,37324,468,327,-1167,-26,-1249,-196,832,3370,43,51,880,1802,1874,2109,2304,2018,1810,1828,1951
1004379,69788,37420,70157,37389,546,154,-1159,-8,-1239,-102,912,3179,40,41,879,1817,1884,2122,2314,2030,1822,1837,1961
1005380,69868,37480,70222,37454,578,460,-1152,-2,-1242,-351,838,3163,34,44,882,1817,1884,2122,2314,2030,1822,1837,1961
1006381,69948,37568,70287,37519,559,82,-1147,-20,-1231,-383,946,3124,37,50,880,1817,1884,2122,2314,2030,1822,1837,1961
1007382,70040,37640,70352,37584,376,273,-1139,-47,-1228,-328,1112,3208,45,41,878,1817,1884,2122,2314,2030,1822,1837,1961
1008383,70112,37708,70417,37649,618,319,-1122,-61,-1233,-380,965,3351,38,51,882,1817,1884,2122,2314,2030,1822,1837,1961
1009384,70208,37772,70482,37714,280,371,-1110,-91,-1240,-446,1061,3314,51,53,883,1801,1867,2099,2293,2030,1819,1838,1954
1010385,70284,37836,70547,37779,517,372,-1098,-107,-1236,-610,1039,3070,50,53,881,1801,1867,2099,2293,2030,1819,1838,1954
1011386,70360,37908,70612,37844,503,263,-1090,-115,-1237,-313,1023,3282,40,45,883,1801,1867,2099,2293,2030,1819,1838,1954
1012387,70456,37984,70677,37909,216,200,-1099,-114,-1251,-224,1175,3436,35,51,881,1801,1867,2099,2293,2030,1819,1838,1954
1013388,70536,38056,70742,37974,398,241,-1089,-107,-1264,-129,952,3337,37,52,882,1801,1867,2099,2293,2030,1819,1838,1954
1014389,70616,38120,70807,38039,380,343,-1088,-88,-1266,-278,920,3493,48,47,884,1801,1867,2099,2293,2030,1819,1838,1954
1015390,70704,38188,70872,38104,252,289,-1079,-74,-1266,-249,832,3379,50,44,883,1789,1854,2078,2279,2013,1800,1826,1939
1016391,70776,38272,70937,38169,443,66,-1077,-52,-1282,28,940,3496,52,45,882,1789,1854,2078,2279,2013,1800,1826,1939
1017392,70860,38376,71002,38234,270,-232,-1057,-33,-1285,-222,696,3605,44,37,884,1789,1854,2078,2279,2013,1800,1826,1939
1018393,70964,38452,71067,38299,-28,105,-1048,-20,-1285,-201,659,3311,45,52,883,1789,1854,2078,2279,2013,1800,1826,1939
1019394,71044,38520,71132,38364,254,201,-1037,-14,-1288,-322,523,3485,50,39,884,1789,1854,2078,2279,2013,1800,1826,1939
1020395,71120,38596,71197,38429,290,88,-1013,-19,-1278,-280,619,3307,45,40,886,1804,1871,2098,2307,2012,1803,1827,1941
1021396,71208,38672,71262,38494,112,74,-989,-20,-1264,-322,506,3357,42,52,884,1804,1871,2098,2307,2012,1803,1827,1941
1022397,71308,38740,71327,38559,-80,171,-980,-6,-1237,-247,409,3454,35,36,885,1804,1871,2098,2307,2012,1803,1827,1941
1023398,71404,38816,71392,38624,-68,56,-964,-9,-1223,-163,556,3325,52,40,884,1804,1871,2098,2307,2012,1803,1827,1941
1024399,71492,38892,71457,38689,4,43,-954,-25,-1199,-382,399,3142,49,42,881,1804,1871,2098,2307,2012,1803,1827,1941
1025400,71584,38968,71522,38754,-79,29,-955,-47,-1188,-351,398,3297,29,39,885,1804,1871,2098,2307,2012,1803,1827,1941
1026401,71664,39044,71587,38819,53,16,-954,-50,-1167,-293,206,3329,42,51,887,1839,1903,2136,2352,2008,1804,1830,1940
1027402,71752,39112,71652,38884,-76,112,-957,-39,-1148,-39,283,3366,46,45,884,1839,1903,2136,2352,2008,1804,1830,1940
1028403,71812,39184,71717,38949,281,54,-956,-48,-1126,-217,195,3286,47,47,887,1839,1903,2136,2352,2008,1804,1830,1940
1029404,71904,39244,71782,39014,-152,210,-952,-60,-1129,-174,313,3381,41,39,883,1839,1903,2136,2352,2008,1804,1830,1940
1030405,71976,39312,71847,39079,89,106,-945,-90,-1127,-308,373,3226,44,45,885,1839,1903,2136,2352,2008,1804,1830,1940
1031406,72048,39372,71912,39144,80,212,-941,-115,-1114,-302,316,3342,49,39,875,1852,1909,2125,2339,2011,1800,1835,1938
1032407,72144,39436,71977,39209,-257,163,-933,-131,-1097,-88,268,3470,44,52,886,1852,1909,2125,2339,2011,1800,1835,1938
1033408,72212,39500,72042,39274,89,165,-919,-154,-1076,-195,267,3405,48,42,885,1852,1909,2125,2339,2011,1800,1835,1938
1034409,72316,39588,72107,39339,-409,-163,-911,-174,-1078,-8,317,3598,49,48,886,1852,1909,2125,2339,2011,1800,1835,1938
