time,Right Leg Pos,Left Leg Pos,Commanded Right Leg Pos,Commanded Left Leg Pos,DCR,DCL,GyroX,GyroY,GyroZ,AX,AY,AZ,RBEMF,LBEMF,VBatt,S1,S2,S3,S4,S5,S6,S7,S8,PowerR,PowerL,Energy,TorqueR,TorqueL,VMotorR,VMotorL,AngleZ,A_mag,Gyro_mag,Fx,Fy,Fz,Mx,My,Mz,F_mag,M_mag
0.000962,1.4081943744,4.85926762958,1.5615924544,-1.580000224,3800,3800,-0.0191747598486,-0.0117179087963,0.0031957933081,-2.28100538133e-07,-5.46305243917e-10,-5.46305243917e-10,-0.07068359375,-0.08078125,4.10227001195,1841,1901,2129,2337,2087,1880,1913,2023,4.81257496331,4.8242203666,0.0,1.65414043408,1.65814310055,15588.6260454,15588.6260454,0.0,2.28101846541e-07,0.022697883088,8.24257021155e-09,5.60309871908e-09,-1.40554915512e-09,-2.98968131795e-07,3.64667614234e-07,5.86545780974e-08,1.00652991697e-08,4.75189196249e-07
0.001963,1.407427384,4.85926762958,1.5615924544,-1.580000224,3800,3800,-0.0149137021044,-0.00745685105222,0.00106526443603,-1.96165926394e-06,-4.6982122508e-09,-4.6982122508e-09,0.0605859375,-0.08078125,4.10227001195,1841,1901,2129,2337,2087,1880,1913,2023,4.66118472051,4.8242203666,0.0094948904922,1.60210576992,1.65814310055,15588.6260454,15588.6260454,1.06526443603e-06,1.96167051622e-06,0.0167080198226,7.28299123958e-08,4.95080027688e-08,-1.24191871235e-08,-2.64163025475e-06,3.22213941969e-06,5.18261619229e-07,8.89352274779e-08,4.19868883685e-06
0.002964,1.4085778696,4.85773364878,1.5615924544,-1.580000224,3800,3800,-0.0138484376684,-0.00745685105222,-0.00106526443603,-8.4623624891e-06,-2.02675234419e-08,-2.02675234419e-08,-0.07068359375,-0.040390625,4.10227001195,1841,1901,2129,2337,2087,1880,1913,2023,4.81257496331,4.77763875343,0.0190946944227,1.65414043408,1.64213243466,15588.6260454,15588.6260454,0.0,8.46241103008e-06,0.015764474041,3.24525371059e-07,2.20604452764e-07,-5.53390931956e-08,-1.17709332666e-05,1.4357644495e-05,2.30934019764e-06,3.96289611618e-07,1.87090854282e-05
0.003965,1.407427384,4.85965112478,1.5615924544,-1.580000224,3800,3800,-0.0170442309765,-0.0106526443603,0.00106526443603,-2.50614895315e-05,-6.00227569102e-08,-6.00227569102e-08,-0.08078125,0.0,4.10227001195,1842,1900,2128,2336,2086,1879,1910,2024,4.8242203666,4.73105714026,0.028659527207,1.65814310055,1.62612176876,15588.6260454,15588.6260454,1.06526443603e-06,2.50616332868e-05,0.0201275788352,9.84204619184e-07,6.66633531907e-07,-1.67459947448e-07,-3.56205305344e-05,4.35375133112e-05,7.09704814779e-06,1.200459009e-06,5.66983716987e-05
0.004966,1.4078108792,4.85888413438,1.5615924544,-1.580000224,3800,3800,-0.0159789665405,-0.0117179087963,0.0031957933081,-5.85992178255e-05,-1.40346271208e-07,-1.40346271208e-07,-0.0201953125,0.05048828125,4.10227001195,1842,1900,2128,2336,2086,1879,1910,2024,4.75434794685,4.6728301238,0.0380961324557,1.63412710171,1.6061084364,15588.6260454,15588.6260454,4.26105774413e-06,5.85995539566e-05,0.0200711198773,2.30931884332e-06,1.54857014773e-06,-3.90525410825e-07,-8.30745922866e-05,0.000102118944864,1.72584562919e-05,2.80776300977e-06,0.000132768675135
0.005967,1.407427384,4.85811714398,1.5615924544,-1.580000224,3800,3800,-0.0149137021044,-0.00958737992429,0.0031957933081,-0.000117033895965,-2.80298466654e-07,-2.80298466654e-07,0.08078125,0.040390625,4.10227001195,1842,1900,2128,2336,2086,1879,1910,2024,4.63789391393,4.6844755271,0.0474278242662,1.59410043698,1.61011110287,15588.6260454,15588.6260454,7.45685105222e-06,0.000117034567283,0.0180152562885,4.51701712879e-06,2.97587586617e-06,-7.55698755075e-07,-0.000160775478301,0.000199619469089,3.58204565053e-05,5.46171781778e-06,0.000258804543945
0.006968,1.407427384,4.85850063918,1.5615924544,-1.580000224,3800,3800,-0.0138484376684,-0.00958737992429,0.00213052887206,-0.000209309264501,-5.01299776551e-07,-5.01299776551e-07,0.01009765625,0.03029296875,4.10227001195,1842,1900,2128,2336,2086,1879,1910,2024,4.71941173697,4.69612093039,0.0568527724662,1.62211910229,1.61411376934,15588.6260454,15588.6260454,9.58737992429e-06,0.00020931046512,0.0169775214016,7.741863681e-06,4.97228494736e-06,-1.27551148647e-06,-0.000271413138391,0.000341833427303,6.63713547097e-05,9.28907963176e-06,0.000441497837411
0.007969,1.4078108792,4.85888413438,1.5615924544,-1.580000224,3800,3800,-0.0170442309765,-0.00958737992429,0.0031957933081,-0.000345331720996,-8.27076216546e-07,-8.27076216546e-07,-0.09087890625,-0.08078125,4.10227001195,1842,1900,2128,2336,2086,1879,1910,2024,4.83586576989,4.8242203666,0.0665225186889,1.66214576702,1.65814310055,15588.6260454,15588.6260454,1.27831732324e-05,0.000345333701854,0.0198150639227,1.20347712265e-05,7.4780514481e-06,-1.9441384299e-06,-0.000413782552484,0.000530791762088,0.000112937853604,1.4301630892e-05,0.000682430109401
0.00897,1.4085778696,4.85926762958,1.5615924544,-1.580000224,3800,3800,-0.0170442309765,-0.00639158661619,0.00213052887206,-0.00053605990272,-1.28387393694e-06,-1.28387393694e-06,-0.03029296875,0.03029296875,4.10227001195,1842,1900,2128,2336,2086,1879,1910,2024,4.76599335014,4.69612093039,0.0759940950837,1.63812976818,1.61411376934,15588.6260454,15588.6260454,1.49137021044e-05,0.000536062977615,0.0183275023483,1.73743670963e-05,1.03629835492e-05,-2.74015199766e-06,-0.000583367664735,0.000765277337852,0.00017985979361,2.04149085966e-05,0.000978936556395
0.009971,1.407427384,4.85811714398,1.5615924544,-1.580000224,3800,3800,-0.0170442309765,-0.00852211548825,0.00106526443603,-0.000793423036253,-1.90026366837e-06,-1.90026366837e-06,0.07068359375,-0.08078125,4.10227001195,1842,1901,2129,2336,2086,1880,1911,2023,4.64953931722,4.8242203666,0.0854773285272,1.59810310345,1.65814310055,15588.6260454,15588.6260454,1.59789665405e-05,0.000793427587409,0.0190857813645,2.36812835452e-05,1.34402754535e-05,-3.6352057293e-06,-0.00077299480287,0.00104145111902,0.000271793490766,2.74710559555e-05,0.00132514644481
0.010972,1.407427384,4.85888413438,1.5615924544,-1.580000224,3800,3800,-0.0159789665405,-0.00958737992429,0.00213052887206,-0.00112986613869,-2.70605146985e-06,-2.70605146985e-06,-0.03029296875,-0.040390625,4.10227001195,1842,1901,2129,2336,2086,1880,1911,2023,4.76599335014,4.77763875343,0.0950305042628,1.63812976818,1.64213243466,15588.6260454,15588.6260454,1.81094954125e-05,0.00112987261971,0.0187559158344,3.08423332768e-05,1.64845766484e-05,-4.61994107869e-06,-0.000973769792131,0.00135386527672,0.000394056405342,3.52751278496e-05,0.0017136100041
0.011973,1.4081943744,4.85965112478,1.5615924544,-1.580000224,3800,3800,-0.0181094954125,-0.00532632218016,0.00213052887206,-0.0015578784289,-3.73114926453e-06,-3.73114926453e-06,-0.1009765625,-0.0605859375,4.10227001195,1842,1901,2129,2336,2086,1880,1911,2023,4.84751117318,4.80092956001,0.104688593437,1.6661484335,1.6501377676,15588.6260454,15588.6260454,2.02400242846e-05,0.00155788736505,0.0189963861126,3.87390300374e-05,1.92516169564e-05,-5.73803740786e-06,-0.00117613005814,0.00169664391476,0.000553140554279,4.36378537163e-05,0.00213725219849
0.012974,1.4089613648,4.85773364878,1.5615924544,-1.580000224,3800,3800,-0.0159789665405,-0.00745685105222,0.00106526443603,-0.00208981427288,-5.00514600022e-06,-5.00514600022e-06,0.05048828125,0.0605859375,4.10227001195,1842,1901,2129,2336,2086,1880,1911,2023,4.6728301238,4.66118472051,0.114031942296,1.6061084364,1.60210576992,15588.6260454,15588.6260454,2.13052887206e-05,0.00208982626026,0.0176654121841,4.72643705277e-05,2.14915428148e-05,-7.10214158005e-06,-0.00137052005277,0.00206419429403,0.000756897102561,5.24046519783e-05,0.00259077527439
0.013975,1.4078108792,4.85926762958,1.5615924544,-1.580000224,3800,3800,-0.0159789665405,-0.00958737992429,0.00213052887206,-0.00273784823181,-6.55719998879e-06,-6.55719998879e-06,0.08078125,0.0605859375,4.10227001195,1842,1901,2129,2336,2086,1880,1911,2023,4.63789391393,4.66118472051,0.123340320009,1.59410043698,1.60210576992,15588.6260454,15588.6260454,2.34358175927e-05,0.00273786393639,0.0187559158344,5.63256754958e-05,2.29549158775e-05,-8.88803983882e-06,-0.0015476234835,0.00245136150831,0.0010143225357,6.14695626727e-05,0.00307134529116
0.014976,1.407427384,4.85888413438,1.5615924544,-1.580000224,3800,3800,-0.0170442309765,-0.00958737992429,0.0031957933081,-0.00351381843064,-8.41566377065e-06,-8.41566377065e-06,-0.0201953125,0.03029296875,4.10227001195,1844,1901,2128,2336,2087,1879,1912,2025,4.75434794685,4.69612093039,0.132800239355,1.63412710171,1.61411376934,15588.6260454,15588.6260454,2.66316109008e-05,0.00351383858626,0.0198150639227,6.58439333098e-05,2.33917397359e-05,-1.131519584e-05,-0.00169822082576,0.00285348624321,0.00133498283471,7.07858085951e-05,0.00357889883654
0.015977,1.407427384,4.85850063918,1.5615924544,-1.580000224,3800,3800,-0.0159789665405,-0.00745685105222,0.0031957933081,-0.00442886088438,-1.06072083193e-05,-1.06072083193e-05,-0.1009765625,0.0605859375,4.10227001195,1844,1901,2128,2336,2087,1879,1912,2025,4.84751117318,4.66118472051,0.142318443945,1.6661484335,1.60210576992,15588.6260454,15588.6260454,2.98274042089e-05,0.00442888628878,0.0179205215935,7.57556105386e-05,2.25376952678e-05,-1.46070827083e-05,-0.00181239252809,0.003266685871,0.00172773681345,8.03755379535e-05,0.00411595405128
0.016978,1.407427384,4.85735015358,1.5615924544,-1.580000224,3800,3800,-0.0181094954125,-0.00745685105222,0.00106526443603,-0.00549297011365,-1.31557707068e-05,-1.31557707068e-05,-0.1009765625,0.05048828125,4.10227001195,1844,1901,2128,2336,2087,1879,1912,2025,4.84751117318,4.6728301238,0.151848305583,1.6661484335,1.6061084364,15588.6260454,15588.6260454,3.08926686449e-05,0.00549300162189,0.0196135983448,8.6015694543e-05,2.00940696568e-05,-1.8942340328e-05,-0.00187840404286,0.00368824271972,0.00219913874556,9.03398228922e-05,0.00468697635262
0.017979,1.4085778696,4.85850063918,1.5615924544,-1.580000224,3800,3800,-0.0191747598486,-0.00852211548825,0.00213052887206,-0.00671483445682,-1.60821596732e-05,-1.60821596732e-05,0.0201953125,-0.07068359375,4.10227001195,1844,1901,2128,2336,2087,1879,1912,2025,4.70776633368,4.81257496331,0.161378167221,1.61811643582,1.65414043408,15588.6260454,15588.6260454,3.3023197517e-05,0.0067148729738,0.0210911597813,9.65984092213e-05,1.5720076838e-05,-2.44287451274e-05,-0.00188224291768,0.00411676380999,0.00275262234011,0.00010087188443,0.00529787810502
0.01898,1.4070438888,4.85773364878,1.5615924544,-1.580000224,3800,3800,-0.0181094954125,-0.00745685105222,0.00426105774413,-0.00810195445453,-1.94043391599e-05,-1.94043391599e-05,0.03029296875,0.0605859375,4.10669056153,1844,1901,2128,2336,2087,1879,1912,2025,4.70628502111,4.67131116446,0.170765141003,1.61586605573,1.60385805631,15605.4241338,15605.4241338,3.72842552611e-05,0.00810200092817,0.0200428307584,0.000107495105461,9.04018408512e-06,-3.11043885525e-05,-0.00180794316724,0.00455206544751,0.00338861762181,0.000112269344051,0.00595589520738
0.019981,1.4066603936,4.85965112478,1.5615924544,-1.580000224,3800,3800,-0.0202400242846,-0.00852211548825,0.00426105774413,-0.00966066058648,-2.31374707894e-05,-2.31374707894e-05,-0.1009765625,-0.07068359375,4.09784946237,1844,1901,2128,2336,2087,1879,1912,2025,4.83719493375,4.80229637065,0.180414271799,1.66439614711,1.65238814769,15571.827957,15571.827957,4.15453130052e-05,0.00966071600102,0.0223705531567,0.000118711432501,-3.44628490047e-07,-3.89469786282e-05,-0.00163812148256,0.00499498209989,0.00410494333128,0.000124937544875,0.00666962127282
0.020982,1.4070438888,4.85811714398,1.5615924544,-1.580000224,3800,3800,-0.0191747598486,-0.0106526443603,0.00213052887206,-0.0113959964861,-2.72936341623e-05,-2.72936341623e-05,-0.07068359375,0.03029296875,4.09784946237,1841,1899,2127,2338,2088,1880,1912,2025,4.80229637065,4.68596782699,0.189912024261,1.65238814769,1.61236148295,15571.827957,15571.827957,4.36758418773e-05,0.0113960618547,0.022038362017,0.000130266305608,-1.28377923389e-05,-4.7877016119e-05,-0.00135486739221,0.00544719237339,0.00489718926183,0.000139378362601,0.00744916324626
0.021983,1.4081943744,4.85850063918,1.5615924544,-1.580000224,3800,3800,-0.0159789665405,-0.0106526443603,0.0,-0.0133117397198,-3.18818766239e-05,-3.18818766239e-05,0.08078125,0.0605859375,4.10227001195,1841,1899,2127,2338,2088,1880,1912,2025,4.63789391393,4.66118472051,0.199220401974,1.59410043698,1.60210576992,15588.6260454,15588.6260454,4.36758418773e-05,0.0133118160773,0.0192043277302,0.000142195501136,-2.88037361797e-05,-5.77448777593e-05,-0.000941736433209,0.0059110633045,0.00575912190894,0.000156152767086,0.00830632422083
0.022984,1.4078108792,4.85811714398,1.5615924544,-1.580000224,3800,3800,-0.0159789665405,-0.00958737992429,-0.00106526443603,-0.0154105569452,-3.69085848712e-05,-3.69085848712e-05,-0.0201953125,0.03029296875,4.10227001195,1841,1899,2127,2338,2088,1880,1912,2025,4.75434794685,4.69612093039,0.20868032132,1.63412710171,1.61411376934,15588.6260454,15588.6260454,4.26105774413e-05,0.0154106453417,0.0186649407669,0.000154557574919,-4.85133278833e-05,-6.83098890807e-05,-0.000386248037612,0.00638951054139,0.00668308856968,0.000175806222567,0.00925411829054
0.023985,1.4081943744,4.85888413438,1.5615924544,-1.580000224,3800,3800,-0.0170442309765,-0.00745685105222,0.0,-0.0176940975206,-4.23777091496e-05,-4.23777091496e-05,-0.0605859375,-0.08078125,4.10227001195,1841,1899,2127,2338,2088,1880,1912,2025,4.80092956001,4.8242203666,0.218315096396,1.6501377676,1.65814310055,15588.6260454,15588.6260454,4.26105774413e-05,0.0176941990157,0.0186040435711,0.000167435469,-7.21164315627e-05,-7.92346927663e-05,0.000318846534431,0.00688586892384,0.00766034590738,0.00019878016128,0.0103052294186
0.024986,1.4078108792,4.85811714398,1.5615924544,-1.580000224,3800,3800,-0.0159789665405,-0.00852211548825,0.0,-0.0201630171065,-4.8290819779e-05,-4.8290819779e-05,0.07068359375,-0.0605859375,4.10669056153,1841,1899,2127,2338,2088,1880,1912,2025,4.65965321224,4.81120659107,0.227795427059,1.59985538984,1.65189005399,15605.4241338,15605.4241338,4.26105774413e-05,0.0201631327636,0.0181094954125,0.000180932875459,-9.9646839498e-05,-9.0098171267e-05,0.00117576472558,0.00740377206003,0.00868130363262,0.00022535278678,0.0114701044533
0.025987,1.4066603936,4.85811714398,1.5615924544,-1.580000224,3800,3800,-0.0159789665405,-0.00852211548825,0.00106526443603,-0.0228170389803,-5.4647254003e-05,-5.4647254003e-05,-0.0605859375,-0.0201953125,4.10227001195,1843,1902,2129,2336,2089,1877,1911,2026,4.80092956001,4.75434794685,0.237360259844,1.6501377676,1.63412710171,15588.6260454,15588.6260454,4.36758418773e-05,0.0228171698611,0.0181407996631,0.000195164307219,-0.000131031394885,-0.000100414678849,0.00218218995281,0.0079469597369,0.00973538687899,0.000255619719478,0.0127551511059
0.026988,1.407427384,4.85888413438,1.5615924544,-1.580000224,3800,3800,-0.0149137021044,-0.00745685105222,0.00106526443603,-0.0256549266496,-6.14440503986e-05,-6.14440503986e-05,-0.040390625,0.0605859375,4.10227001195,1843,1902,2129,2336,2089,1877,1911,2026,4.77763875343,4.66118472051,0.246808522141,1.64213243466,1.60210576992,15588.6260454,15588.6260454,4.47411063133e-05,0.0256550738089,0.0167080198226,0.0002102315442,-0.000166082940683,-0.000109656109524,0.00333133706381,0.00851886092976,0.0108099108213,0.000289491463982,0.014160613339
0.027989,1.4078108792,4.85888413438,1.5615924544,-1.580000224,3800,3800,-0.0159789665405,-0.00852211548825,0.00213052887206,-0.0286742271732,-6.86753341234e-05,-6.86753341234e-05,0.05048828125,0.040390625,4.10227001195,1843,1902,2129,2336,2089,1877,1911,2026,4.6728301238,4.6844755271,0.256175185098,1.6061084364,1.61011110287,15588.6260454,15588.6260454,4.68716351854e-05,0.0286743916515,0.0182343899643,0.000226193783157,-0.000204485057809,-0.000117274577858,0.00461179019006,0.0091220748311,0.0118884742722,0.000326697249786,0.0156785419763
0.02899,1.4081943744,4.85965112478,1.5615924544,-1.580000224,3800,3800,-0.0159789665405,-0.00852211548825,-0.00106526443603,-0.0318710690874,-7.63318329461e-05,-7.63318329461e-05,-0.1009765625,0.040390625,4.10227001195,1843,1902,2129,2336,2089,1877,1911,2026,4.84751117318,4.6844755271,0.265716703785,1.6661484335,1.61011110287,15588.6260454,15588.6260454,4.58063707494e-05,0.0318712519031,0.0181407996631,0.000243052723908,-0.000245791537446,-0.000122719131527,0.00600769992341,0.0097581050654,0.0129503353168,0.000366807976633,0.0172923178797
0.029991,1.4066603936,4.85888413438,1.5615924544,-1.580000224,3800,3800,-0.0159789665405,-0.00852211548825,0.00106526443603,-0.0352403564582,-8.44013420055e-05,-8.44013420055e-05,0.0201953125,0.0605859375,4.10227001195,1843,1902,2129,2336,2089,1877,1911,2026,4.70776633368,4.66118472051,0.27509502379,1.61811643582,1.60210576992,15588.6260454,15588.6260454,4.68716351854e-05,0.0352405586004,0.0181407996631,0.000260755517611,-0.000289443803682,-0.00012544564829,0.0074994227265,0.0104273958331,0.0139709727444,0.000409277126321,0.0189778819818
0.030992,1.4078108792,4.85811714398,1.5615924544,-1.580000224,3800,3800,-0.0170442309765,-0.00745685105222,0.00213052887206,-0.0387762135784,-9.28697888683e-05,-9.28697888683e-05,0.0,0.03029296875,4.10227001195,1843,1902,2129,2336,2089,1877,1911,2026,4.73105714026,4.69612093039,0.284531629039,1.62612176876,1.61411376934,15588.6260454,15588.6260454,4.90021640575e-05,0.0387764360028,0.0187256399215,0.000279202922327,-0.000334792712067,-0.000124923949567,0.00906425652872,0.0111294579419,0.0149229652847,0.000453482552106,0.0207055662416
0.031993,1.4078108792,4.85888413438,1.5615924544,-1.580000224,3800,3800,-0.0159789665405,-0.00958737992429,0.00106526443603,-0.0424722286346,-0.000101721817116,-0.000101721817116,-0.09087890625,0.05048828125,4.10227001195,1841,1901,2129,2336,2089,1881,1912,2025,4.83586576989,4.6728301238,0.294049833628,1.66214576702,1.6061084364,15588.6260454,15588.6260454,5.00674284935e-05,0.0424724722596,0.0186649407669,0.000298258461682,-0.000381121474093,-0.000120654695623,0.0106771550015,0.0118629257224,0.0157772399184,0.000498767725054,0.0224421911823
0.032994,1.4081943744,4.85888413438,1.5615924544,-1.580000224,3800,3800,-0.0213052887206,-0.0106526443603,-0.00106526443603,-0.0463213843639,-0.000110940620266,-0.000110940620266,0.08078125,0.07068359375,4.10227001195,1841,1901,2129,2336,2089,1881,1912,2025,4.63789391393,4.64953931722,0.303346554293,1.59410043698,1.59810310345,15588.6260454,15588.6260454,4.90021640575e-05,0.0463216500681,0.0238438450686,0.000317761603619,-0.000427675256877,-0.00011221570941,0.012311498366,0.0126254327987,0.0165055197308,0.000544491439343,0.0241538139215
0.033995,1.4078108792,4.85888413438,1.5615924544,-1.580000224,3800,3800,-0.0191747598486,-0.0117179087963,-0.00106526443603,-0.0503160988306,-0.000120508039436,-0.000120508039436,-0.07068359375,0.0605859375,4.10227001195,1841,1901,2129,2336,2089,1881,1912,2025,4.81257496331,4.66118472051,0.312829787736,1.65414043408,1.60210576992,15588.6260454,15588.6260454,4.79368996214e-05,0.0503163874489,0.0224970129157,0.000337542578692,-0.000473693146952,-9.9321999199e-05,0.0139398633386,0.0134133974404,0.017083309825,0.000590072071381,0.0258084965732
0.034996,1.407427384,4.85850063918,1.5615924544,-1.580000224,3800,3800,-0.0149137021044,-0.0117179087963,-0.00106526443603,-0.0544485424976,-0.00013040532273,-0.00013040532273,-0.08078125,-0.040390625,4.10227001195,1841,1901,2129,2336,2089,1881,1912,2025,4.8242203666,4.77763875343,0.322441248715,1.65814310055,1.64213243466,15588.6260454,15588.6260454,4.68716351854e-05,0.05444885482,0.0189963861126,0.000357431905004,-0.000518429850502,-8.18539127336e-05,0.015534620741,0.0142219792274,0.0174915014756,0.000635001684751,0.0273777602916
0.035997,1.407427384,4.85811714398,1.5615924544,-1.580000224,3800,3800,-0.0149137021044,-0.0106526443603,0.0,-0.0587107084411,-0.00014061329341,-0.00014061329341,0.08078125,0.05048828125,4.10227001195,1841,1901,2129,2336,2089,1881,1912,2025,4.63789391393,4.6728301238,0.331761283477,1.59410043698,1.6061084364,15588.6260454,15588.6260454,4.68716351854e-05,0.0587110452117,0.0183275023483,0.000377263679981,-0.000561165448619,-5.98471407648e-05,0.0170683393595,0.0150452435805,0.0177163313894,0.000678834460833,0.0288367120315
0.036998,1.4081943744,4.85735015358,1.5615924544,-1.580000224,3800,3800,-0.0181094954125,-0.00745685105222,0.00106526443603,-0.0630940099293,-0.000151111386086,-0.000151111386086,-0.0605859375,-0.05048828125,4.09784946237,1842,1901,2129,2336,2087,1879,1911,2025,4.79066351629,4.77903066192,0.341340547349,1.64838548121,1.64438281474,15571.827957,15571.827957,4.79368996214e-05,0.063094371843,0.0196135983448,0.000396874818248,-0.00060121615615,-3.34665158875e-05,0.0185143616061,0.0158763692775,0.0177487873921,0.000721172999675,0.0301638880287
0.037999,1.4081943744,4.85773364878,1.5615924544,-1.580000224,3800,3800,-0.0170442309765,-0.00745685105222,0.00213052887206,-0.0675889858292,-0.000161876941158,-0.000161876941158,-0.11107421875,-0.08078125,4.09784946237,1842,1901,2129,2336,2087,1879,1911,2025,4.84882778812,4.81392922502,0.35101296712,1.66839881358,1.65639081416,15571.827957,15571.827957,5.00674284935e-05,0.0675893735265,0.0187256399215,0.000416098524855,-0.00063795939287,-2.96656075067e-06,0.0198480772315,0.0167078097924,0.017583888027,0.000761668543278,0.031341509153
0.039,1.4081943744,4.85926762958,1.5615924544,-1.580000224,3800,3800,-0.0170442309765,-0.00958737992429,0.00213052887206,-0.0721854309712,-0.000172885517048,-0.000172885517048,-0.0201953125,0.0201953125,4.10227001195,1842,1901,2129,2336,2087,1879,1911,2025,4.75434794685,4.70776633368,0.360484543514,1.63412710171,1.61811643582,15588.6260454,15588.6260454,5.21979573656e-05,0.0721858450342,0.0196713704827,0.000434754942041,-0.000670865354313,3.13535787719e-05,0.0210485138103,0.0175314238158,0.0172199171122,0.000800034518098,0.0323560859806
0.040001,1.4089613648,4.85811714398,1.5615924544,-1.580000224,3800,3800,-0.0159789665405,-0.0117179087963,0.00213052887206,-0.0768725913055,-0.000184111357595,-0.000184111357595,0.08078125,0.0605859375,4.10227001195,1842,1901,2129,2336,2087,1879,1911,2025,4.63789391393,4.66118472051,0.369792921228,1.59410043698,1.60210576992,15588.6260454,15588.6260454,5.43284862376e-05,0.0768730322546,0.0199292727297,0.000452647446822,-0.000699512411543,6.91786239469e-05,0.0220991378307,0.0183386176693,0.0166578494468,0.000836058016544,0.0331988062899
0.041002,1.4070438888,4.85926762958,1.5615924544,-1.580000224,3800,3800,-0.0181094954125,-0.0106526443603,0.00106526443603,-0.0816392572066,-0.000195527615527,-0.000195527615527,-0.03029296875,-0.05048828125,4.10227001195,1842,1901,2129,2336,2087,1879,1911,2025,4.76599335014,4.78928415672,0.379357754012,1.63812976818,1.64613510113,15588.6260454,15588.6260454,5.53937506736e-05,0.0816397254977,0.0210372869991,0.000469565782548,-0.000723583230772,0.000110186049592,0.0229877145967,0.0191205062617,0.0159009995912,0.000869600874838,0.0338654775558
0.042003,1.4085778696,4.85850063918,1.5615924544,-1.580000224,3800,3800,-0.0181094954125,-0.00745685105222,-0.00106526443603,-0.0864738772419,-0.000207106624937,-0.000207106624937,-0.01009765625,0.05048828125,4.10669056153,1842,1901,2129,2336,2087,1879,1911,2025,4.75291682998,4.68296911668,0.388803075844,1.63187672163,1.60786072278,15605.4241338,15605.4241338,5.43284862376e-05,0.0864743732649,0.0196135983448,0.000485290999661,-0.000742855151932,0.000154048648825,0.0237058873885,0.0198680685429,0.0149547518071,0.000900595423766,0.0343562781179
0.043004,1.4081943744,4.85850063918,1.5615924544,-1.580000224,3800,3800,-0.0191747598486,-0.00639158661619,-0.00213052887206,-0.0913646990489,-0.000218820238689,-0.000218820238689,0.05048828125,0.040390625,4.10227001195,1842,1902,2129,2335,2087,1880,1911,2024,4.6728301238,4.6844755271,0.398169738801,1.6061084364,1.61011110287,15588.6260454,15588.6260454,5.21979573656e-05,0.0913652231261,0.0203239501081,0.000499601662703,-0.000757191010571,0.000200428836601,0.0242487651497,0.020572273953,0.0138265170655,0.000929038086628,0.0346755481722
0.044005,1.4085778696,4.85888413438,1.5615924544,-1.580000224,3800,3800,-0.0202400242846,-0.00745685105222,-0.00106526443603,-0.0962999511601,-0.000230640263887,-0.000230640263887,-0.1009765625,-0.040390625,4.10227001195,1842,1902,2129,2335,2087,1880,1911,2024,4.84751117318,4.77763875343,0.407804513878,1.6661484335,1.64213243466,15588.6260454,15588.6260454,5.11326929295e-05,0.0963005035465,0.0215962496507,0.000512284589475,-0.000766530271398,0.000248949864373,0.024614489504,0.0212241571241,0.0125263053613,0.000954976540316,0.0348316847881
0.045006,1.4078108792,4.85965112478,1.5615924544,-1.580000224,3800,3800,-0.0181094954125,-0.00958737992429,-0.00106526443603,-0.101267965017,-0.000242538754105,-0.000242538754105,-0.03029296875,-0.03029296875,4.10227001195,1842,1902,2129,2335,2087,1880,1911,2024,4.76599335014,4.76599335014,0.417346032565,1.63812976818,1.63812976818,15588.6260454,15588.6260454,5.00674284935e-05,0.1012685459,0.0205184421004,0.000523147539748,-0.00077088055404,0.000299155899432,0.0248038032206,0.0218148607243,0.0110675998514,0.000978485783804,0.0348368851807
0.046007,1.4085778696,4.86003461998,1.5615924544,-1.580000224,3800,3800,-0.0191747598486,-0.0117179087963,0.00106526443603,-0.106257143718,-0.000254487934539,-0.000254487934539,0.07068359375,0.05048828125,4.10227001195,1842,1902,2129,2335,2087,1880,1911,2024,4.64953931722,4.6728301238,0.426677724375,1.59810310345,1.6061084364,15588.6260454,15588.6260454,5.11326929295e-05,0.10625775322,0.0224970129157,0.000532026338242,-0.000770309810515,0.000350495509999,0.0248196855364,0.022335702284,0.00946762748778,0.000999638100158,0.0347064310595
0.047008,1.407427384,4.85888413438,1.5615924544,-1.580000224,3800,3800,-0.0213052887206,-0.0138484376684,0.0031957933081,-0.111256080966,-0.000266460486885,-0.000266460486885,-0.0201953125,0.0605859375,4.10227001195,1842,1902,2129,2335,2087,1880,1911,2024,4.75434794685,4.66118472051,0.436102672575,1.63412710171,1.60210576992,15588.6260454,15588.6260454,5.43284862376e-05,0.111256719143,0.0256106940201,0.000538785410147,-0.000764939178474,0.000402333354854,0.0246670627651,0.0227782734524,0.00774690013151,0.00101847621149,0.0344576288879
0.048009,1.4081943744,4.85850063918,1.5615924544,-1.580000224,3800,3800,-0.0191747598486,-0.0106526443603,0.00426105774413,-0.11625399329,-0.000278430584515,-0.000278430584515,-0.07068359375,-0.07068359375,4.10227001195,1842,1902,2130,2336,2088,1880,1912,2026,4.81257496331,4.81257496331,0.445737447652,1.65414043408,1.65414043408,15588.6260454,15588.6260454,5.85895439817e-05,0.116254660134,0.022345175323,0.000543314577989,-0.000754935336315,0.000453974429709,0.0243525315802,0.0231345490444,0.00592841141981,0.00103499317655,0.0341086384339
0.04901,1.4070438888,4.85888413438,1.5615924544,-1.580000224,3800,3800,-0.0202400242846,-0.0106526443603,0.00213052887206,-0.121241051121,-0.000290374685423,-0.000290374685423,0.08078125,-0.0605859375,4.10227001195,1842,1902,2130,2336,2088,1880,1912,2026,4.63789391393,4.80092956001,0.455185709949,1.59410043698,1.6501377676,15588.6260454,15588.6260454,6.07200728538e-05,0.121241746572,0.0229712117265,0.000545521163945,-0.000740500440366,0.000504700372223,0.0238840347421,0.0233970085989,0.00403645726073,0.00104912187482,0.0336772937475
0.050011,1.4078108792,4.85850063918,1.5615924544,-1.580000224,3800,3800,-0.0191747598486,-0.00958737992429,0.0031957933081,-0.12620817203,-0.000302271037015,-0.000302271037015,-0.08078125,-0.08078125,4.10227001195,1842,1902,2130,2336,2088,1880,1912,2026,4.8242203666,4.8242203666,0.464843799123,1.65814310055,1.65814310055,15588.6260454,15588.6260454,6.39158661619e-05,0.126208895973,0.0216749247734,0.000545319851452,-0.000721861106337,0.000553810716758,0.0232705220671,0.0235587576415,0.00209530211846,0.00106073724702,0.0331801529511
0.051012,1.4078108792,4.85850063918,1.5615924544,-1.580000224,3800,3800,-0.0170442309765,-0.00745685105222,0.0031957933081,-0.131146411416,-0.000314098216794,-0.000314098216794,-0.07068359375,0.03029296875,4.10227001195,1842,1902,2130,2336,2088,1880,1912,2026,4.81257496331,4.69612093039,0.474362003713,1.65414043408,1.61411376934,15588.6260454,15588.6260454,6.711165947e-05,0.131147163685,0.0188765338996,0.00054262738918,-0.000699260685983,0.000600648383684,0.0225216925033,0.023613609955,0.000128338139541,0.00106966745827,0.0326319732624
0.052013,1.4078108792,4.85926762958,1.5615924544,-1.580000224,3800,3800,-0.0138484376684,-0.00745685105222,0.00106526443603,-0.136046483857,-0.000325833985995,-0.000325833985995,0.08078125,0.0605859375,4.10227001195,1842,1902,2130,2336,2088,1880,1912,2026,4.63789391393,4.66118472051,0.483670381426,1.59410043698,1.60210576992,15588.6260454,15588.6260454,6.8176923906e-05,0.136047264234,0.015764474041,0.000537363124191,-0.000672955417904,0.000644606599533,0.0216478301408,0.02355612619,-0.00184217518181,0.00107570711157,0.0320454870502
0.053014,1.4089613648,4.85926762958,1.5615924544,-1.580000224,3800,3800,-0.0138484376684,-0.00852211548825,0.00213052887206,-0.140898644652,-0.000337455005869,-0.000337455005869,0.01009765625,0.07068359375,4.09784946237,1842,1902,2130,2336,2088,1880,1912,2026,4.70923353573,4.63943640953,0.493028400041,1.6203668159,1.59635081706,15571.827957,15571.827957,7.03074527781e-05,0.140899452861,0.01639953754,0.000529451162796,-0.000643211906236,0.000685129687945,0.0206596763159,0.0233816331028,-0.00379517914182,0.00107863004752,0.0314312961354
0.054015,1.407427384,4.85850063918,1.5615924544,-1.580000224,3800,3800,-0.0170442309765,-0.00958737992429,0.0031957933081,-0.145692784153,-0.000348937063608,-0.000348937063608,-0.1009765625,0.0605859375,4.09342891278,1842,1901,2127,2338,2088,1880,1912,2024,4.82688968165,4.64096479461,0.502505722372,1.66264386072,1.59860119715,15555.0298686,15555.0298686,7.35032460862e-05,0.145693619862,0.0198150639227,0.000518831795609,-0.000610300576036,0.000721718916875,0.0195681001111,0.0230864792724,-0.00571083671682,0.00107820750332,0.0307978850436
0.055016,1.4081943744,4.85888413438,1.5615924544,-1.580000224,3800,3800,-0.0159789665405,-0.0106526443603,0.00106526443603,-0.150418660994,-0.000360255630945,-0.000360255630945,-0.07068359375,-0.040390625,4.10227001195,1842,1901,2127,2338,2088,1880,1912,2024,4.81257496331,4.77763875343,0.512105526302,1.65414043408,1.64213243466,15588.6260454,15588.6260454,7.45685105222e-05,0.150419523811,0.0192338501577,0.000505499770313,-0.000574477441348,0.000753953384305,0.0183831799442,0.0226689763925,-0.00757044288741,0.00107424394534,0.0301518722645
0.056017,1.4081943744,4.85888413438,1.5615924544,-1.580000224,3800,3800,-0.0159789665405,-0.00958737992429,0.0031957933081,-0.155066203241,-0.000371386585398,-0.000371386585398,0.05048828125,-0.08078125,4.10227001195,1842,1901,2127,2338,2088,1880,1912,2024,4.6728301238,4.8242203666,0.521612073843,1.6061084364,1.65814310055,15588.6260454,15588.6260454,7.77643038303e-05,0.155067092716,0.018906568181,0.000489555283304,-0.00053596035517,0.000781517949735,0.0171130076964,0.0221306654942,-0.00935627673423,0.00106662466851,0.0294984966051
0.057018,1.407427384,4.85926762958,1.5615924544,-1.580000224,3800,3800,-0.0149137021044,-0.00745685105222,0.00213052887206,-0.15962571938,-0.000382306715605,-0.000382306715605,0.01009765625,0.0,4.10227001195,1842,1901,2127,2338,2088,1880,1912,2024,4.71941173697,4.73105714026,0.531071993189,1.62211910229,1.62612176876,15588.6260454,15588.6260454,7.98948327024e-05,0.15962663501,0.0168095892677,0.000471226814966,-0.000494917577459,0.000804215058419,0.0157631161605,0.0214768645059,-0.0110515451817,0.00105534827418,0.0288421252857
0.058019,1.4085778696,4.85965112478,1.5615924544,-1.580000224,3800,3800,-0.0159789665405,-0.0117179087963,0.00106526443603,-0.164088015106,-0.000392994001023,-0.000392994001023,-0.1009765625,-0.07068359375,4.10227001195,1842,1901,2127,2338,2088,1880,1912,2024,4.84751117318,4.81257496331,0.540741739412,1.6661484335,1.65414043408,15588.6260454,15588.6260454,8.09600971384e-05,0.164088956331,0.0198436777483,0.000450860150663,-0.000451471134216,0.000821957266007,0.0143366545752,0.0207163527872,-0.0126404397889,0.00104053582717,0.0281866573979
0.05902,1.407427384,4.85888413438,1.5615924544,-1.580000224,3800,3800,-0.0170442309765,-0.0127831732324,0.0031957933081,-0.168444506054,-0.000403427881931,-0.000403427881931,-0.09087890625,-0.0201953125,4.10227001195,1842,1902,2130,2337,2087,1878,1911,2024,4.83586576989,4.75434794685,0.550341543342,1.66214576702,1.63412710171,15588.6260454,15588.6260454,8.41558904465e-05,0.168445472269,0.021543639951,0.000428891228963,-0.000405701929964,0.00083475294147,0.0128346951601,0.0198607393291,-0.0141084198802,0.00102242565282,0.0275359016208
0.060021,1.4066603936,4.85926762958,1.5615924544,-1.580000224,3800,3800,-0.0181094954125,-0.00958737992429,0.0031957933081,-0.172687291078,-0.000413589434931,-0.000413589434931,0.0201953125,-0.07068359375,4.10227001195,1842,1902,2130,2337,2087,1878,1911,2024,4.70776633368,4.81257496331,0.55987140498,1.61811643582,1.65414043408,15588.6260454,15588.6260454,8.73516837546e-05,0.17268828163,0.0207384853058,0.000405801757857,-0.000357647264599,0.000842689086153,0.0112562746848,0.0189236641621,-0.0154430513562,0.00100135484643,0.0268941744675
0.061022,1.4089613648,4.85850063918,1.5615924544,-1.580000224,3800,3800,-0.0159789665405,-0.00958737992429,0.0031957933081,-0.176809119847,-0.000423461295337,-0.000423461295337,0.08078125,-0.01009765625,4.10227001195,1842,1902,2130,2337,2087,1878,1911,2024,4.63789391393,4.74270254356,0.569261382034,1.59410043698,1.63012443524,15588.6260454,15588.6260454,9.05474770627e-05,0.176810134042,0.018906568181,0.000382067386494,-0.000307294395431,0.000845913184634,0.00959829329709,0.0179199407853,-0.0166351045643,0.000977739458763,0.0262674364153
0.062023,1.407427384,4.85811714398,1.5615924544,-1.580000224,3800,3800,-0.0149137021044,-0.00958737992429,0.00532632218016,-0.180803326842,-0.000433027499101,-0.000433027499101,0.01009765625,-0.08078125,4.10227001195,1842,1902,2130,2337,2087,1878,1911,2024,4.71941173697,4.8242203666,0.57881455777,1.62211910229,1.65814310055,15588.6260454,15588.6260454,9.58737992429e-05,0.180804363948,0.0185123221731,0.000358126877286,-0.000254580592846,0.000844619687265,0.00785562035057,0.0168649550432,-0.017679051977,0.000952075918509,0.02566488571
0.063024,1.407427384,4.85888413438,1.5615924544,-1.580000224,3800,3800,-0.0159789665405,-0.0117179087963,0.00426105774413,-0.184663784733,-0.00044227337115,-0.00044227337115,-0.1009765625,0.0201953125,4.10227001195,1842,1902,2130,2337,2087,1878,1911,2024,4.84751117318,4.70776633368,0.588379390554,1.6661484335,1.61811643582,15588.6260454,15588.6260454,0.000100134856987,0.184664843983,0.0202680381725,0.000334376160204,-0.000199401171061,0.000839041874387,0.00602145725715,0.0157743625951,-0.018572847215,0.000924964599597,0.0251005800023
0.064025,1.4081943744,4.85773364878,1.5615924544,-1.580000224,3800,3800,-0.0138484376684,-0.00958737992429,0.00426105774413,-0.188384872394,-0.000451185448776,-0.000451185448776,0.07068359375,0.05048828125,4.10227001195,1842,1902,2130,2337,2087,1878,1911,2024,4.64953931722,4.6728301238,0.597711082365,1.59810310345,1.6061084364,15588.6260454,15588.6260454,0.000104395914731,0.188385952989,0.0173739371694,0.000311170246493,-0.000141619343708,0.000829445724661,0.00408775230686,0.014663894555,-0.0193174974119,0.00089714166717,0.0245948211765
0.065026,1.4081943744,4.86003461998,1.5615924544,-1.580000224,3800,3800,-0.0138484376684,-0.0106526443603,0.00106526443603,-0.191961517915,-0.000459751584654,-0.000459751584654,0.03029296875,0.05048828125,4.10227001195,1841,1901,2129,2335,2088,1880,1913,2023,4.69612093039,4.6728301238,0.60708940237,1.61411376934,1.6061084364,15588.6260454,15588.6260454,0.000105461179167,0.191962619026,0.0175040808397,0.000288830681197,-8.10751407287e-05,0.000816117086551,0.00204550063389,0.0135493970954,-0.0199166182192,0.000869507584674,0.0241752335207
0.066027,1.4070438888,4.85888413438,1.5615924544,-1.580000224,3800,3800,-0.0138484376684,-0.0117179087963,0.00213052887206,-0.195389244226,-0.000467961056117,-0.000467961056117,-0.11107421875,0.0605859375,4.10227001195,1841,1901,2129,2335,2088,1880,1913,2023,4.85915657647,4.66118472051,0.616619264008,1.67015109997,1.60210576992,15588.6260454,15588.6260454,0.000107591708039,0.195390364999,0.0182654801659,0.000267668714347,-1.75935307348e-05,0.000799329044359,-0.000115202957351,0.0124474974812,-0.020375884642,0.000843138775125,0.0238773981038
0.067028,1.4070438888,4.85965112478,1.5615924544,-1.580000224,3800,3800,-0.0127831732324,-0.0127831732324,0.0031957933081,-0.198664130038,-0.0004758044716,-0.0004758044716,0.05048828125,0.0605859375,4.10227001195,1841,1901,2129,2335,2088,1880,1913,2023,4.6728301238,4.66118472051,0.625962612867,1.6061084364,1.60210576992,15588.6260454,15588.6260454,0.000110787501347,0.198665269596,0.0183584348637,0.000248015983602,4.90082652635e-05,0.000779300009051,-0.00240524748836,0.0113765785525,-0.0207024454943,0.00081928154031,0.0237445363081
0.068029,1.4081943744,4.85811714398,1.5615924544,-1.580000224,3800,3800,-0.0138484376684,-0.0138484376684,0.0031957933081,-0.20178286912,-0.000483273912614,-0.000483273912614,0.08078125,0.0,4.10227001195,1841,1901,2129,2335,2088,1880,1913,2023,4.63789391393,4.73105714026,0.635340932873,1.59410043698,1.62612176876,15588.6260454,15588.6260454,0.000113983294655,0.201784026567,0.0198436777483,0.000230238993517,0.000118914416666,0.000756173001242,-0.00483640978405,0.0103571444871,-0.0209044996508,0.000799342379981,0.0238256040254
0.06903,1.4078108792,4.85926762958,1.5615924544,-1.580000224,3800,3800,-0.0149137021044,-0.0106526443603,0.00106526443603,-0.20474300237,-0.000490363489562,-0.000490363489562,-0.07068359375,0.03029296875,4.10227001195,1841,1901,2129,2335,2088,1880,1913,2023,4.81257496331,4.69612093039,0.644859137462,1.65414043408,1.61411376934,15588.6260454,15588.6260454,0.000115048559091,0.204744176797,0.0183584348637,0.000214734096964,0.000192305058633,0.000730020341541,-0.00742103323323,0.00941144972404,-0.0209910606352,0.000784870477874,0.0241717137735
0.070031,1.4078108792,4.85965112478,1.5615924544,-1.580000224,3800,3800,-0.0138484376684,-0.00639158661619,-0.00106526443603,-0.207543067296,-0.000497069699749,-0.000497069699749,-0.05048828125,-0.0605859375,4.09784946237,1842,1901,2129,2336,2088,1879,1911,2024,4.77903066192,4.79066351629,0.654438401335,1.64438281474,1.64838548121,15571.827957,15571.827957,0.000113983294655,0.207544257784,0.0152894209716,0.000201910112592,0.000269349589567,0.000700860131486,-0.0101715264777,0.0085626219269,-0.0209718671705,0.000777510012072,0.0248313845318
0.071032,1.4085778696,4.85965112478,1.5615924544,-1.580000224,3800,3800,-0.0127831732324,-0.00639158661619,-0.00106526443603,-0.210182481363,-0.00050339114799,-0.00050339114799,0.01009765625,-0.07068359375,4.09784946237,1842,1901,2129,2336,2088,1879,1911,2024,4.70923353573,4.80229637065,0.663959442771,1.6203668159,1.65238814769,15571.827957,15571.827957,0.000112918030219,0.210183686991,0.0143316672331,0.000192152293839,0.000350194841466,0.000668684460408,-0.0130995103735,0.00783295465799,-0.0208575257947,0.000778908106652,0.0258454779986
0.072033,1.4085778696,4.85811714398,1.5615924544,-1.580000224,3800,3800,-0.0159789665405,-0.00639158661619,0.00106526443603,-0.212661288647,-0.000509327939851,-0.000509327939851,0.07068359375,-0.0605859375,4.10227001195,1842,1901,2129,2336,2088,1879,1911,2024,4.64953931722,4.80092956001,0.673419362117,1.59810310345,1.6501377676,15588.6260454,15588.6260454,0.000113983294655,0.212662508494,0.017242811241,0.000185777869931,0.000434951094566,0.000633492725005,-0.0162148162112,0.00724182893071,-0.0206597708496,0.000790575046567,0.0272431731372
0.073034,1.4081943744,4.85850063918,1.5615924544,-1.580000224,3800,3800,-0.0159789665405,-0.00852211548825,0.00426105774413,-0.214980006255,-0.00051488131381,-0.00051488131381,0.07068359375,-0.07068359375,4.10227001195,1842,1901,2129,2336,2088,1879,1911,2024,4.64953931722,4.81257496331,0.682890938512,1.59810310345,1.65414043408,15588.6260454,15588.6260454,0.0001182443524,0.214981239403,0.0186040435711,0.000183012813371,0.000523684613657,0.000595310837007,-0.0195249270915,0.00680459666006,-0.0203915114481,0.000813716324708,0.0290403004938
0.074035,1.4070438888,4.85888413438,1.5615924544,-1.580000224,3800,3800,-0.0170442309765,-0.0106526443603,0.00426105774413,-0.217139623672,-0.000520053639702,-0.000520053639702,-0.040390625,-0.05048828125,4.10227001195,1842,1901,2129,2336,2088,1879,1911,2024,4.77763875343,4.78928415672,0.692467428345,1.64213243466,1.64613510113,15588.6260454,15588.6260454,0.000122505410144,0.217140869207,0.0205460763784,0.000183993902037,0.000616417874032,0.000554193696773,-0.023034942459,0.00653260855834,-0.0200666190797,0.000849090928556,0.0312402424759
0.075036,1.4085778696,4.85811714398,1.5615924544,-1.580000224,3800,3800,-0.0149137021044,-0.0106526443603,0.00106526443603,-0.21914162186,-0.000524848464464,-0.000524848464464,-0.1009765625,-0.05048828125,4.10227001195,1842,1901,2129,2336,2088,1879,1911,2024,4.84751117318,4.78928415672,0.70211386047,1.6661484335,1.64613510113,15588.6260454,15588.6260454,0.00012357067458,0.219142878879,0.0183584348637,0.000188778368436,0.000713132254285,0.00051022244028,-0.0267477101583,0.00643358989994,-0.01969965127,0.000896951405069,0.0338364793954
0.076037,1.4070438888,4.85926762958,1.5615924544,-1.580000224,3800,3800,-0.0159789665405,-0.0127831732324,0.0,-0.220987939718,-0.000529270431796,-0.000529270431796,0.040390625,0.05048828125,4.10227001195,1842,1901,2130,2336,2088,1880,1911,2025,4.6844755271,4.6728301238,0.711480523427,1.61011110287,1.6061084364,15588.6260454,15588.6260454,0.00012357067458,0.220989207328,0.0204630615889,0.0001973485288,0.000813766494726,0.000463499354772,-0.0306637776457,0.00651182206154,-0.0193055060875,0.000957075755431,0.0368153996496
0.077038,1.4078108792,4.85773364878,1.5615924544,-1.580000224,3800,3800,-0.0202400242846,-0.0127831732324,0.00213052887206,-0.222680956231,-0.000533325239411,-0.000533325239411,0.07068359375,0.0605859375,4.10227001195,1842,1901,2130,2336,2088,1880,1911,2025,4.64953931722,4.66118472051,0.720800558189,1.59810310345,1.60210576992,15588.6260454,15588.6260454,0.000125701203452,0.222682233552,0.0240334611366,0.000209603268356,0.000918203049573,0.000414136016731,-0.0347808244978,0.0067678103739,-0.0188988321673,0.00102885325033,0.0401581233039
0.078039,1.4089613648,4.85888413438,1.5615924544,-1.580000224,3800,3800,-0.0191747598486,-0.00958737992429,-0.00106526443603,-0.224223477254,-0.000537019607388,-0.000537019607388,-0.08078125,0.0,4.10227001195,1842,1901,2130,2336,2088,1880,1911,2025,4.8242203666,4.73105714026,0.730365390973,1.65814310055,1.62612176876,15588.6260454,15588.6260454,0.000124635939016,0.224224763423,0.0214644836272,0.000225342962621,0.00102624864521,0.000362238239124,-0.0390928469495,0.00719769661683,-0.0184933331611,0.00111138754468,0.0438413148823
0.07904,1.4081943744,4.85696665838,1.5615924544,-1.580000224,3800,3800,-0.0202400242846,-0.00852211548825,0.0,-0.225618637878,-0.000540361044331,-0.000540361044331,-0.05048828125,-0.08078125,4.10227001195,1842,1901,2130,2336,2088,1880,1911,2025,4.78928415672,4.8242203666,0.739988509001,1.64613510113,1.65814310055,15588.6260454,15588.6260454,0.000124635939016,0.225619932049,0.0219609889449,0.000244266815554,0.00113762732003,0.00030789819026,-0.0435898784901,0.00779316180332,-0.0181013705625,0.00120360437521,0.0478379608043
0.080041,1.4085778696,4.85811714398,1.5615924544,-1.580000224,3800,3800,-0.0181094954125,-0.00852211548825,0.0,-0.226869740555,-0.000543357459678,-0.000543357459678,0.08078125,-0.01009765625,4.10227001195,1842,1901,2130,2336,2088,1880,1911,2025,4.63789391393,4.74270254356,0.749378486055,1.59410043698,1.63012443524,15588.6260454,15588.6260454,0.000124635939016,0.226871041903,0.0200145016548,0.000265985265628,0.00125198847107,0.00025119512405,-0.0482583547674,0.00854192321392,-0.0177339199371,0.00130434745508,0.0521183765421
0.081042,1.407427384,4.85888413438,1.5615924544,-1.580000224,3800,3800,-0.0159789665405,-0.00958737992429,-0.00106526443603,-0.227980066366,-0.000546016711681,-0.000546016711681,-0.0201953125,0.0201953125,4.10227001195,1841,1900,2128,2335,2088,1880,1912,2025,4.75434794685,4.70776633368,0.758850062449,1.63412710171,1.61811643582,15588.6260454,15588.6260454,0.00012357067458,0.227981374083,0.0186649407669,0.000290041367104,0.00136891892986,0.000192201207443,-0.0530816552506,0.00942856905687,-0.0174006140818,0.00141244622386,0.0566510494963
0.082043,1.4070438888,4.85926762958,1.5615924544,-1.580000224,3800,3800,-0.0170442309765,-0.00852211548825,0.00106526443603,-0.22895276903,-0.000548346353561,-0.000548346353561,-0.08078125,-0.0605859375,4.10227001195,1841,1900,2128,2335,2088,1880,1912,2025,4.8242203666,4.80092956001,0.768484837526,1.65814310055,1.6501377676,15588.6260454,15588.6260454,0.000124635939016,0.228954082327,0.0190857813645,0.000315945446147,0.00148795387793,0.00013099446123,-0.0580406054173,0.0104358683027,-0.0171097161771,0.00152675728807,0.0614032703697
0.083044,1.4081943744,4.85965112478,1.5615924544,-1.580000224,3800,3800,-0.0181094954125,-0.00958737992429,0.00213052887206,-0.229791096529,-0.000550354164293,-0.000550354164293,0.0,0.0201953125,4.09784946237,1841,1900,2128,2335,2088,1880,1912,2025,4.72086639009,4.69760068136,0.777912723065,1.62436948237,1.61636414943,15571.827957,15571.827957,0.000126766467888,0.229792414634,0.0206012337297,0.000343215472901,0.00160858678044,6.76749357026e-05,-0.0631139417801,0.0115462836122,-0.0168680590908,0.00164618595182,0.0663416741555
0.084045,1.4066603936,4.85850063918,1.5615924544,-1.580000224,3800,3800,-0.0181094954125,-0.00852211548825,-0.00106526443603,-0.230498773874,-0.000552049065358,-0.000552049065358,0.07068359375,-0.07068359375,4.10227001195,1841,1900,2128,2335,2088,1880,1912,2025,4.64953931722,4.81257496331,0.787384299459,1.59810310345,1.65414043408,15588.6260454,15588.6260454,0.000125701203452,0.230500096039,0.0200428307584,0.00037140117997,0.00173027879038,2.37286195595e-06,-0.0682787439204,0.0127428965328,-0.0166810556354,0.00176969182611,0.0714326669004
0.085046,1.4078108792,4.85811714398,1.5615924544,-1.580000224,3800,3800,-0.0170442309765,-0.00745685105222,0.0,-0.231080042091,-0.00055344121409,-0.00055344121409,-0.1009765625,0.040390625,4.10227001195,1841,1900,2128,2335,2088,1880,1912,2025,4.84751117318,4.6844755271,0.796925818146,1.6661484335,1.61011110287,15588.6260454,15588.6260454,0.000125701203452,0.23108136759,0.0186040435711,0.000400088930002,0.00185246771436,-6.47527639919e-05,-0.0735108352441,0.0140096370941,-0.0165527942126,0.00189628602934,0.0766427284616
0.086047,1.4081943744,4.85926762958,1.5615924544,-1.580000224,3800,3800,-0.0170442309765,-0.00532632218016,0.00213052887206,-0.23153942399,-0.000554541442709,-0.000554541442709,-0.0605859375,0.05048828125,4.10227001195,1841,1900,2128,2335,2088,1880,1912,2025,4.80092956001,4.6728301238,0.80640905159,1.6501377676,1.6061084364,15588.6260454,15588.6260454,0.000127831732324,0.231540752123,0.0179837335062,0.000428900481606,0.00197457632284,-0.000133518437867,-0.0787851520858,0.0153312911671,-0.0164861573627,0.00202502702478,0.0819386481621
0.087048,1.4070438888,4.85888413438,1.5615924544,-1.580000224,3800,3800,-0.0181094954125,-0.00958737992429,0.00213052887206,-0.231881624403,-0.000555361019382,-0.000555361019382,0.08078125,0.0605859375,4.09784946237,1842,1901,2128,2336,2089,1880,1911,2024,4.62780355516,4.6510692639,0.815697203282,1.59234815059,1.60035348353,15571.827957,15571.827957,0.000129962261196,0.2318829545,0.0206012337297,0.00045749211257,0.00209602501437,-0.000203722513878,-0.0840762982056,0.0166934314576,-0.016482968617,0.00215502268123,0.0872879305988
0.088049,1.407427384,4.85850063918,1.5615924544,-1.580000224,3800,3800,-0.0181094954125,-0.0117179087963,0.00106526443603,-0.23211158859,-0.000555911788102,-0.000555911788102,-0.0201953125,-0.05048828125,4.09342891278,1842,1901,2128,2336,2089,1880,1911,2024,4.73392723813,4.76878815445,0.82520942139,1.63062252893,1.64263052835,15555.0298686,15555.0298686,0.000131027525632,0.232112920006,0.0215962496507,0.000485554803722,0.00221625821506,-0.000275158045993,-0.0893596834669,0.0180821383779,-0.0165442305615,0.00228544872914,0.0926597448868
0.08905,1.4078108792,4.85888413438,1.5615924544,-1.580000224,3800,3800,-0.0202400242846,-0.0117179087963,0.00106526443603,-0.232234633684,-0.000556206483505,-0.000556206483505,-0.0605859375,0.040390625,4.09784946237,1842,1901,2128,2336,2089,1880,1911,2024,4.79066351629,4.67433497263,0.834683884877,1.64838548121,1.60835881648,15571.827957,15571.827957,0.000132092790068,0.232235965805,0.0234115945189,0.000512814923766,0.00233477701454,-0.000347628599601,-0.0946129277753,0.0194836188614,-0.0166704036821,0.00241557622461,0.0980261182802
0.090051,1.4070438888,4.85888413438,1.5615924544,-1.580000224,3800,3800,-0.0191747598486,-0.00852211548825,0.0031957933081,-0.232256605799,-0.000556259107149,-0.000556259107149,-0.1009765625,0.0605859375,4.10227001195,1842,1901,2128,2336,2089,1880,1911,2024,4.84751117318,4.66118472051,0.844202089467,1.6661484335,1.60210576992,15588.6260454,15588.6260454,0.000135288583376,0.232257938046,0.0212252435207,0.000539033790196,0.00245115630304,-0.000420956892963,-0.0998166060412,0.0208840351394,-0.0168615799706,0.00254478473641,0.103362520501
0.091052,1.4078108792,4.85965112478,1.5615924544,-1.580000224,3800,3800,-0.0181094954125,-0.00745685105222,0.0031957933081,-0.232183875859,-0.000556084917524,-0.000556084917524,0.040390625,0.0605859375,4.10227001195,1842,1901,2128,2336,2089,1880,1911,2024,4.6844755271,4.66118472051,0.853557095375,1.61011110287,1.60210576992,15588.6260454,15588.6260454,0.000138484376684,0.23218520769,0.0198436777483,0.000564005883846,0.00256504341976,-0.000494984866965,-0.104954206963,0.0222695869367,-0.017117531142,0.00267255690319,0.108647733221
0.092053,1.4081943744,4.85850063918,1.5615924544,-1.580000224,3800,3800,-0.0181094954125,-0.00745685105222,0.00213052887206,-0.232023107843,-0.000555699874985,-0.000555699874985,0.040390625,0.05048828125,4.09784946237,1839,1903,2132,2336,2089,1879,1911,2024,4.67433497263,4.66270211826,0.862903469503,1.60835881648,1.60435615001,15571.827957,15571.827957,0.000140614905556,0.232024438752,0.019700193019,0.000587554685438,0.00267616714215,-0.000569574780336,-0.110012506672,0.0236267269281,-0.0174377354236,0.00279848289463,0.113864166735
0.093054,1.4085778696,4.85888413438,1.5615924544,-1.580000224,3800,3800,-0.0191747598486,-0.00852211548825,0.0,-0.231780931137,-0.000555119857044,-0.000555119857044,-0.1009765625,0.0201953125,4.10227001195,1839,1903,2132,2336,2089,1879,1911,2024,4.84751117318,4.70776633368,0.872468302287,1.6661484335,1.61811643582,15588.6260454,15588.6260454,0.000140614905556,0.231782260656,0.0209832759036,0.000609522905726,0.00278439212194,-0.000644620647774,-0.114983804464,0.024942543648,-0.0178214541613,0.00292230960729,0.119000042021
0.094055,1.4078108792,4.85965112478,1.5615924544,-1.580000224,3800,3800,-0.0191747598486,-0.00958737992429,0.00106526443603,-0.231463584917,-0.00055435980665,-0.00055435980665,0.08078125,0.0605859375,4.10227001195,1839,1903,2132,2336,2089,1879,1911,2024,4.63789391393,4.66118472051,0.88177668,1.59410043698,1.60210576992,15588.6260454,15588.6260454,0.000141680169992,0.231464912616,0.0214644836272,0.000629760070698,0.00288979528131,-0.000720064737827,-0.119869058494,0.0262052167143,-0.0182678329286,0.00304401178401,0.124052481987
0.095056,1.4081943744,4.85811714398,1.5615924544,-1.580000224,3800,3800,-0.0202400242846,-0.0117179087963,-0.00106526443603,-0.231076612111,-0.00055343299922,-0.00055343299922,0.0,0.05048828125,4.10227001195,1839,1903,2132,2336,2089,1879,1911,2024,4.73105714026,4.6728301238,0.891189971151,1.62612176876,1.6061084364,15588.6260454,15588.6260454,0.000140614905556,0.23107793759,0.0234115945189,0.000648116022579,0.00299269632754,-0.000795903892762,-0.124679142392,0.0274042676391,-0.0187759543711,0.00316381868856,0.129028752202
0.096057,1.4070438888,4.85811714398,1.5615924544,-1.580000224,3800,3800,-0.0202400242846,-0.0106526443603,-0.0031957933081,-0.230624797432,-0.00055235089424,-0.00055235089424,-0.1009765625,0.0605859375,4.10227001195,1839,1903,2132,2336,2089,1879,1911,2024,4.84751117318,4.66118472051,0.900708175741,1.6661484335,1.60210576992,15588.6260454,15588.6260454,0.000137419112248,0.230626120319,0.0230943826455,0.000664441524372,0.00309363295196,-0.000872183542322,-0.129433836298,0.0285305685607,-0.0193448325245,0.00328218700142,0.133945264442
0.097058,1.4070438888,4.85888413438,1.5615924544,-1.580000224,3800,3800,-0.0191747598486,-0.00958737992429,-0.00213052887206,-0.230112391134,-0.000551123671149,-0.000551123671149,-0.01009765625,0.07068359375,4.10227001195,1843,1899,2130,2338,2090,1880,1912,2025,4.74270254356,4.64953931722,0.910109809844,1.63012443524,1.59810310345,15588.6260454,15588.6260454,0.000135288583376,0.230113711083,0.021543639951,0.000678588018268,0.00319330352852,-0.000948977655893,-0.134159548945,0.0295762487494,-0.0199738846256,0.00339973935989,0.138825412408
0.098059,1.4078108792,4.85811714398,1.5615924544,-1.580000224,3800,3800,-0.0191747598486,-0.0106526443603,0.00213052887206,-0.229543409194,-0.000549760948289,-0.000549760948289,0.08078125,-0.01009765625,4.10227001195,1843,1899,2130,2338,2090,1880,1912,2025,4.63789391393,4.74270254356,0.919499786897,1.59410043698,1.63012443524,15588.6260454,15588.6260454,0.000137419112248,0.229544725879,0.022038362017,0.000690398942949,0.003292463771,-0.00102633897943,-0.138885330152,0.0305345279497,-0.0206648052808,0.00351714942595,0.143695951599
0.09906,1.4078108792,4.85926762958,1.5615924544,-1.580000224,3800,3800,-0.0170442309765,-0.0106526443603,0.00106526443603,-0.228921844156,-0.000548272287883,-0.000548272287883,-0.11107421875,-0.08078125,4.10227001195,1843,1899,2130,2338,2090,1880,1912,2025,4.85915657647,4.8242203666,0.929192847217,1.67015109997,1.65814310055,15588.6260454,15588.6260454,0.000138484376684,0.228923157275,0.0201275788352,0.000699696862877,0.0033918029913,-0.0011042354576,-0.143638132108,0.0313995150621,-0.0214241134445,0.00363500195014,0.14858275532
0.100061,1.4078108792,4.86003461998,1.5615924544,-1.580000224,3800,3800,-0.0159789665405,-0.0117179087963,0.00106526443603,-0.228251804027,-0.000546667528686,-0.000546667528686,0.08078125,-0.0605859375,4.10227001195,1843,1899,2130,2338,2090,1880,1912,2025,4.63789391393,4.80092956001,0.938641109515,1.59410043698,1.6501377676,15588.6260454,15588.6260454,0.00013954964112,0.228253113302,0.0198436777483,0.000706278664622,0.00349187441909,-0.00118251889395,-0.14844010375,0.0321660831831,-0.0222642642046,0.00375371382039,0.153508367098
0.101062,1.4085778696,4.85811714398,1.5615924544,-1.580000224,3800,3800,-0.0170442309765,-0.0127831732324,0.0031957933081,-0.227537631333,-0.000544957071135,-0.000544957071135,0.0201953125,0.0201953125,4.09784946237,1843,1899,2130,2338,2090,1880,1912,2025,4.69760068136,4.69760068136,0.948045706079,1.61636414943,1.61636414943,15571.827957,15571.827957,0.000142745434428,0.227538936512,0.021543639951,0.00070992053718,0.00359308977251,-0.00126093220191,-0.153308298697,0.0328298365246,-0.0232030325175,0.0038735295662,0.158491682223
0.102063,1.4070438888,4.85773364878,1.5615924544,-1.580000224,3800,3800,-0.0170442309765,-0.00958737992429,0.00532632218016,-0.226784027386,-0.000543152174963,-0.000543152174963,-0.1009765625,0.07068359375,4.10227001195,1843,1899,2130,2338,2090,1880,1912,2025,4.84751117318,4.64953931722,0.95755225362,1.6661484335,1.59810310345,15588.6260454,15588.6260454,0.000148071756608,0.226785328242,0.0202680381725,0.000710385484465,0.00369573357167,-0.00133912781167,-0.158255131385,0.0333871034538,-0.0242624208666,0.00399454095802,0.163548311984
0.103064,1.4078108792,4.85850063918,1.5615924544,-1.580000224,3800,3800,-0.0170442309765,-0.00852211548825,0.00532632218016,-0.225996164104,-0.000541265227015,-0.000541265227015,0.08078125,0.0605859375,4.09784946237,1842,1900,2130,2337,2085,1879,1912,2024,4.62780355516,4.6510692639,0.966840405312,1.59234815059,1.60035348353,15571.827957,15571.827957,0.000153398078789,0.225997460441,0.0197864087177,0.000707434655572,0.00379996731547,-0.00141668565691,-0.163288384263,0.0338351126959,-0.0254671175549,0.00411669936248,0.168690501697
0.104065,1.4070438888,4.85811714398,1.5615924544,-1.580000224,3800,3800,-0.0159789665405,-0.00958737992429,0.00426105774413,-0.225179652315,-0.000539309665333,-0.000539309665333,-0.040390625,0.05048828125,4.09784946237,1842,1900,2130,2337,2085,1879,1912,2024,4.76739780756,4.66270211826,0.976279935337,1.64038014827,1.60435615001,15571.827957,15571.827957,0.000157659136533,0.225180943968,0.0191154868788,0.000700851004889,0.00390580642434,-0.00149313276238,-0.16840998102,0.0341726967806,-0.0268414925979,0.00423980676465,0.173925733108
0.105066,1.4078108792,4.85926762958,1.5615924544,-1.580000224,3800,3800,-0.0170442309765,-0.00958737992429,0.0031957933081,-0.224340289332,-0.000537299374596,-0.000537299374596,-0.0605859375,0.040390625,4.09342891278,1842,1900,2130,2337,2085,1879,1912,2024,4.78040845989,4.66420540549,0.985733993817,1.64663319483,1.60660653009,15555.0298686,15555.0298686,0.000160854929841,0.224341576171,0.0198150639227,0.000690468506518,0.0040130837636,-0.00156796292633,-0.173614158743,0.0344012462087,-0.0284059379078,0.00436349582222,0.179254621042
0.106067,1.407427384,4.85888413438,1.5615924544,-1.580000224,3800,3800,-0.0170442309765,-0.0106526443603,0.0031957933081,-0.223483718935,-0.000535247871765,-0.000535247871765,0.08078125,0.0,4.09784946237,1842,1900,2130,2337,2085,1879,1912,2024,4.62780355516,4.72086639009,0.995092012432,1.59234815059,1.62436948237,15571.827957,15571.827957,0.000164050723149,0.223485000861,0.0203518484742,0.000676187253573,0.00412143963425,-0.00164065201628,-0.178886867863,0.0345251143937,-0.0301748932431,0.00448722998064,0.184670027888
0.107068,1.407427384,4.85811714398,1.5615924544,-1.580000224,3800,3800,-0.0191747598486,-0.0106526443603,0.00106526443603,-0.222615210522,-0.000533167777153,-0.000533167777153,0.040390625,-0.040390625,4.09784946237,1842,1900,2130,2337,2085,1879,1912,2024,4.67433497263,4.76739780756,1.00454318694,1.60835881648,1.64038014827,15571.827957,15571.827957,0.000165115987585,0.222616487466,0.0219609889449,0.000657971748071,0.00423034378728,-0.00171066831136,-0.184206654041,0.0345513626294,-0.0321568787758,0.00461032769457,0.190157705353
0.108069,1.4078108792,4.85850063918,1.5615924544,-1.580000224,3800,3800,-0.0181094954125,-0.00745685105222,0.00106526443603,-0.22173974234,-0.000531071013758,-0.000531071013758,-0.1009765625,0.01009765625,4.10227001195,1842,1902,2130,2337,2089,1880,1911,2023,4.84751117318,4.71941173697,1.01411967678,1.6661484335,1.62211910229,15588.6260454,15588.6260454,0.000166181252021,0.221741014262,0.0196135983448,0.000635844705674,0.00433914223491,-0.00177748990993,-0.189546627567,0.0344891604416,-0.0343552130655,0.00473201058794,0.195697999158
0.10907,1.4078108792,4.85888413438,1.5615924544,-1.580000224,3800,3800,-0.0159789665405,-0.00745685105222,0.0031957933081,-0.220862333212,-0.000528969601758,-0.000528969601758,-0.01009765625,-0.08078125,4.10227001195,1842,1902,2130,2337,2089,1880,1911,2023,4.74270254356,4.8242203666,1.02369616661,1.63012443524,1.65814310055,15588.6260454,15588.6260454,0.000169377045329,0.220863600101,0.0179205215935,0.000609882850337,0.00444714816018,-0.00184064749576,-0.194878290733,0.0343487657522,-0.0367689132147,0.00485150152565,0.201269319288
0.110071,1.407427384,4.85850063918,1.5615924544,-1.580000224,3800,3800,-0.0149137021044,-0.00745685105222,0.00426105774413,-0.219988139877,-0.000526875891647,-0.000526875891647,0.0605859375,-0.07068359375,4.10227001195,1842,1902,2130,2337,2089,1880,1911,2023,4.66118472051,4.81257496331,1.03317940005,1.60210576992,1.65414043408,15588.6260454,15588.6260454,0.000173638103073,0.219989401751,0.0172098736536,0.000580213844261,0.00455375273816,-0.00189977882526,-0.200176205093,0.0341403205311,-0.0393936635987,0.00496814569938,0.206852448144
0.111072,1.4081943744,4.85926762958,1.5615924544,-1.580000224,3800,3800,-0.0159789665405,-0.00852211548825,0.0,-0.21912202917,-0.000524801539589,-0.000524801539589,0.0,-0.07068359375,4.10227001195,1842,1902,2130,2337,2089,1880,1911,2023,4.73105714026,4.81257496331,1.04273257579,1.62612176876,1.65414043408,15588.6260454,15588.6260454,0.000173638103073,0.219123286077,0.0181094954125,0.000547011900269,0.00465848573394,-0.0019546554238,-0.205420546831,0.033873146205,-0.0422225225733,0.00508147509865,0.212432889418
0.112073,1.4085778696,4.85811714398,1.5615924544,-1.580000224,3800,3800,-0.0170442309765,-0.0106526443603,0.00106526443603,-0.218268024033,-0.000522756180606,-0.000522756180606,-0.08078125,-0.03029296875,4.09784946237,1842,1902,2130,2337,2089,1880,1911,2023,4.81392922502,4.75576495319,1.05231183966,1.65639081416,1.63637748179,15571.827957,15571.827957,0.000174703367509,0.218269276041,0.0201275788352,0.00051049172805,0.00476101623983,-0.0020051760467,-0.210597144463,0.0335556324779,-0.045246322283,0.00519120491009,0.218000842676
0.113075,1.4085778696,4.85811714398,1.5615924544,-1.580000224,3800,3800,-0.0170442309765,-0.00958737992429,0.0031957933081,-0.217429159622,-0.000520747083957,-0.000520747083957,0.0605859375,0.03029296875,4.10227001195,1842,1902,2130,2337,2089,1880,1911,2023,4.66118472051,4.69612093039,1.06168785992,1.60210576992,1.61411376934,15588.6260454,15588.6260454,0.000177899160817,0.217430406818,0.0198150639227,0.000470902256672,0.00486113540066,-0.00205135045401,-0.215696759868,0.0331953105729,-0.0484539598596,0.00529720917125,0.223550457587
0.114075,1.4085778696,4.85811714398,1.5615924544,-1.580000224,3800,3800,-0.0149137021044,-0.00958737992429,0.00426105774413,-0.216607857531,-0.000518780049407,-0.000518780049407,-0.03029296875,0.0605859375,4.09784946237,1842,1900,2128,2336,2089,1880,1912,2025,4.75576495319,4.6510692639,1.07109469414,1.63637748179,1.60035348353,15571.827957,15571.827957,0.000182160218561,0.216609100016,0.0182343899643,0.000428520186153,0.00495873147602,-0.00209327723132,-0.220714027687,0.0327989303828,-0.0518327537006,0.00539948673193,0.229078777298
0.115076,1.407427384,4.85926762958,1.5615924544,-1.580000224,3800,3800,-0.0149137021044,-0.00958737992429,0.00426105774413,-0.215806481527,-0.000516860738226,-0.000516860738226,-0.07068359375,0.05048828125,4.10227001195,1842,1900,2128,2336,2089,1880,1912,2025,4.81257496331,4.6728301238,1.08058958463,1.65414043408,1.6061084364,15588.6260454,15588.6260454,0.000186421276306,0.215807719415,0.0182343899643,0.000383642241289,0.00505374073752,-0.00213110253193,-0.225645321258,0.0323725570905,-0.0553690154907,0.00549809738118,0.234583719244
0.116077,1.4078108792,4.85811714398,1.5615924544,-1.580000224,3800,3800,-0.0117179087963,-0.00958737992429,0.00426105774413,-0.21502766398,-0.00051499545499,-0.00051499545499,0.040390625,0.0605859375,4.09784946237,1842,1900,2128,2336,2089,1880,1912,2025,4.67433497263,4.6510692639,1.08992431427,1.60835881648,1.60035348353,15571.827957,15571.827957,0.00019068233405,0.215028897401,0.0157284409104,0.000336577007697,0.00514608738442,-0.00216497022155,-0.230486129702,0.0319216750842,-0.0590487172685,0.00559308461499,0.240061659446
0.117078,1.4085778696,4.85926762958,1.5615924544,-1.580000224,3800,3800,-0.0117179087963,-0.00852211548825,0.0031957933081,-0.214274330272,-0.000513191206045,-0.000513191206045,0.03029296875,0.0605859375,4.09784946237,1842,1900,2128,2336,2089,1880,1912,2025,4.68596782699,4.6510692639,1.0992706884,1.61236148295,1.60035348353,15571.827957,15571.827957,0.000193878127358,0.214275559372,0.0148374166829,0.000287638922519,0.0052356506974,-0.00219499381636,-0.235229641186,0.0314512636083,-0.0628579039716,0.00568443244562,0.245506175414
0.118079,1.407427384,4.85811714398,1.5615924544,-1.580000224,3800,3800,-0.0149137021044,-0.00958737992429,0.0,-0.213549584765,-0.000511455426402,-0.000511455426402,-0.11107421875,0.05048828125,4.10227001195,1842,1900,2128,2336,2089,1880,1912,2025,4.85915657647,4.6728301238,1.10881220709,1.67015109997,1.6061084364,15588.6260454,15588.6260454,0.000193878127358,0.213550809708,0.0177295336733,0.000237144763839,0.00532226468701,-0.00222125439146,-0.239866765453,0.0309658393704,-0.0667828032905,0.00577206289893,0.250908132973
0.11908,1.4070438888,4.85850063918,1.5615924544,-1.580000224,3800,3800,-0.0170442309765,-0.00958737992429,-0.00106526443603,-0.212856570918,-0.000509795644702,-0.000509795644702,-0.0201953125,0.040390625,4.10227001195,1841,1901,2129,2336,2088,1879,1911,2024,4.75434794685,4.6844755271,1.11826046939,1.63412710171,1.61011110287,15588.6260454,15588.6260454,0.000192812862922,0.212857791885,0.0195846483683,0.000185410913382,0.00540573317732,-0.00224380802294,-0.244386810461,0.0304694907009,-0.0708097568195,0.00585585201615,0.256256365095
0.120081,1.407427384,4.85888413438,1.5615924544,-1.580000224,3800,3800,-0.0159789665405,-0.00852211548825,0.0,-0.212198336904,-0.000508219161382,-0.000508219161382,0.0605859375,-0.08078125,4.09784946237,1841,1901,2129,2336,2088,1879,1911,2024,4.6510692639,4.81392922502,1.12773493287,1.60035348353,1.65639081416,15571.827957,15571.827957,0.000192812862922,0.212199554095,0.0181094954125,0.000132750353015,0.00548586034728,-0.00226269751233,-0.248778761601,0.0299659190375,-0.0749249137023,0.00593566225777,0.26153885222
0.121082,1.4078108792,4.86003461998,1.5615924544,-1.580000224,3800,3800,-0.0138484376684,-0.00852211548825,0.00106526443603,-0.211577679578,-0.000506732674963,-0.000506732674963,-0.040390625,0.01009765625,4.09784946237,1841,1901,2129,2336,2088,1879,1911,2024,4.76739780756,4.70923353573,1.13722104085,1.64038014827,1.6203668159,15571.827957,15571.827957,0.000193878127358,0.211578893209,0.0162954124394,7.94696422387e-05,0.0055624882821,-0.00227796591463,-0.253032831163,0.0294584831179,-0.079113811121,0.00601138253821,0.266744092688
0.122083,1.4066603936,4.85888413438,1.5615924544,-1.580000224,3800,3800,-0.0138484376684,-0.00639158661619,0.00213052887206,-0.210996957,-0.000505341833047,-0.000505341833047,-0.09087890625,0.07068359375,4.09342891278,1841,1901,2129,2336,2088,1879,1911,2024,4.81526937621,4.62934448917,1.14667509933,1.65864119425,1.59459853067,15555.0298686,15555.0298686,0.00019600865623,0.2109981673,0.0154003493013,2.58666073175e-05,0.00563551704284,-0.0022896646511,-0.257141314155,0.0289502323822,-0.0833612018168,0.00608295040552,0.271861842429
0.123084,1.407427384,4.85850063918,1.5615924544,-1.580000224,3800,3800,-0.0159789665405,-0.00639158661619,0.00106526443603,-0.210457980067,-0.000504050972766,-0.000504050972766,0.040390625,0.03029296875,4.09784946237,1841,1901,2129,2336,2088,1879,1911,2024,4.67433497263,4.68596782699,1.15604476243,1.60835881648,1.61236148295,15571.827957,15571.827957,0.000197073920666,0.210459187276,0.017242811241,-2.77711639241e-05,0.00570490388707,-0.00229785522759,-0.261098618129,0.0284439277738,-0.0876511783518,0.00615035269275,0.276883142287
0.124085,1.4078108792,4.85735015358,1.5615924544,-1.580000224,3800,3800,-0.0170442309765,-0.00852211548825,0.00213052887206,-0.209962104146,-0.00050286334025,-0.00050286334025,0.0605859375,-0.07068359375,4.10227001195,1841,1901,2129,2336,2088,1879,1911,2024,4.66118472051,4.81257496331,1.16552799587,1.60210576992,1.65414043408,15588.6260454,15588.6260454,0.000199204449538,0.20996330851,0.0191747598486,-8.11674694457e-05,0.0057706562523,-0.0023026088896,-0.264901042394,0.0279420580762,-0.0919673795789,0.00621361967285,0.28180014155
0.125086,1.407427384,4.85926762958,1.5615924544,-1.580000224,3800,3800,-0.0149137021044,-0.00639158661619,0.00532632218016,-0.209510468034,-0.000501781662941,-0.000501781662941,-0.0605859375,-0.01009765625,4.10227001195,1842,1901,2130,2336,2089,1880,1911,2024,4.80092956001,4.74270254356,1.17508117161,1.6501377676,1.63012443524,15588.6260454,15588.6260454,0.000204530771718,0.209511669807,0.0170774880442,-0.000134061969678,0.00583282353016,-0.0023040105446,-0.268546531248,0.0274467338816,-0.0962932717229,0.00627281974357,0.286605926012
0.126087,1.4081943744,4.85850063918,1.5615924544,-1.580000224,3800,3800,-0.0159789665405,-0.00745685105222,0.00426105774413,-0.209104116284,-0.000500808442562,-0.000500808442562,-0.0605859375,-0.08078125,4.09784946237,1842,1901,2130,2336,2089,1880,1911,2024,4.79066351629,4.81392922502,1.18469536894,1.64838548121,1.65639081416,15571.827957,15571.827957,0.000208791829462,0.209105315726,0.0181407996631,-0.000186224382852,0.00589148446762,-0.00230217489891,-0.272034325522,0.0269592358417,-0.100612672124,0.00632805483685,0.291294326157
0.127088,1.4078108792,4.85811714398,1.5615924544,-1.580000224,3800,3800,-0.0170442309765,-0.00745685105222,0.00106526443603,-0.2087438877,-0.000499945688068,-0.000499945688068,0.07068359375,-0.08078125,4.09784946237,1842,1901,2130,2336,2089,1880,1911,2024,4.63943640953,4.81392922502,1.19415818794,1.59635081706,1.65639081416,15571.827957,15571.827957,0.000209857093898,0.208745085076,0.0186345170454,-0.000237473264016,0.00594673270283,-0.00229726841949,-0.275364572169,0.0264793971829,-0.104910381357,0.00637945652711,0.295859754271
0.128089,1.4085778696,4.85888413438,1.5615924544,-1.580000224,3800,3800,-0.0170442309765,-0.00745685105222,0.00106526443603,-0.208430446875,-0.00049919499117,-0.00049919499117,0.0605859375,-0.08078125,4.09784946237,1842,1901,2130,2336,2089,1880,1911,2024,4.6510692639,4.81392922502,1.20363265143,1.60035348353,1.65639081416,15571.827957,15571.827957,0.000210922358334,0.208431642453,0.0186345170454,-0.00028768451321,0.00599866772689,-0.00228951863814,-0.278538065872,0.0260053406444,-0.109172534446,0.00642718231195,0.300297143108
0.12909,1.4081943744,4.85850063918,1.5615924544,-1.580000224,3800,3800,-0.0159789665405,-0.00852211548825,0.00426105774413,-0.208164632632,-0.000498558360866,-0.000498558360866,-0.1009765625,-0.08078125,4.09784946237,1842,1901,2130,2336,2089,1880,1911,2024,4.83719493375,4.81392922502,1.21329342671,1.66439614711,1.65639081416,15571.827957,15571.827957,0.000215183416078,0.208165826685,0.0186040435711,-0.000336787556676,0.0060473922655,-0.00227920823819,-0.281556146267,0.0255336420598,-0.113386617667,0.00647141169021,0.304601962311
0.130091,1.4081943744,4.85926762958,1.5615924544,-1.580000224,3800,3800,-0.0149137021044,-0.0106526443603,0.00426105774413,-0.207947563199,-0.000498038475336,-0.000498038475336,0.0201953125,-0.05048828125,4.09784946237,1842,1900,2129,2336,2089,1880,1911,2026,4.69760068136,4.77903066192,1.22277953469,1.61636414943,1.64438281474,15571.827957,15571.827957,0.000219444473823,0.207948756007,0.0188163215169,-0.000384761189069,0.00609300558013,-0.00226665926775,-0.284420347511,0.0250594722153,-0.117541377166,0.00651233463576,0.308769957366
0.131092,1.4066603936,4.85926762958,1.5615924544,-1.580000224,3800,3800,-0.0159789665405,-0.0127831732324,0.00106526443603,-0.207780288181,-0.0004976378484,-0.0004976378484,0.040390625,0.040390625,4.09784946237,1842,1900,2129,2336,2089,1880,1911,2026,4.67433497263,4.67433497263,1.2321375533,1.60835881648,1.60835881648,15571.827957,15571.827957,0.000220509738259,0.20778148003,0.0204907705543,-0.000431638929916,0.00613557940768,-0.00225220217078,-0.287131203131,0.0245763190396,-0.121626715449,0.00655011919371,0.312796069637
0.132093,1.4089613648,4.85888413438,1.5615924544,-1.580000224,3800,3800,-0.0159789665405,-0.00745685105222,0.00426105774413,-0.207663568056,-0.000497358301421,-0.000497358301421,0.07068359375,0.07068359375,4.09784946237,1842,1900,2129,2336,2089,1880,1911,2026,4.63943640953,4.63943640953,1.241425705,1.59635081706,1.59635081706,15571.827957,15571.827957,0.000224770796003,0.207664759235,0.0181407996631,-0.000477519204398,0.00617512560998,-0.00223613794807,-0.289686648078,0.0240754974883,-0.125633584342,0.006584870068,0.316672987747
0.133094,1.407427384,4.85850063918,1.5615924544,-1.580000224,3800,3800,-0.0138484376684,-0.00745685105222,0.00426105774413,-0.207597990674,-0.000497201242311,-0.000497201242311,0.0201953125,0.07068359375,4.09784946237,1842,1900,2129,2336,2089,1880,1911,2026,4.69760068136,4.63943640953,1.25077207912,1.61636414943,1.59635081706,15571.827957,15571.827957,0.000229031853747,0.207599181477,0.0162954124394,-0.000522566848468,0.00621158175545,-0.00221871754647,-0.292081295575,0.0235460440608,-0.129553899898,0.00661661027768,0.320390562275
0.134095,1.4078108792,4.85850063918,1.5615924544,-1.580000224,3800,3800,-0.0138484376684,-0.00745685105222,0.0031957933081,-0.207584013022,-0.000497167765562,-0.000497167765562,-0.0201953125,-0.040390625,4.09784946237,1842,1900,2129,2336,2089,1880,1911,2026,4.74413209882,4.76739780756,1.26029312056,1.63237481532,1.64038014827,15571.827957,15571.827957,0.000232227647055,0.207585203745,0.0160498270501,-0.000567004041146,0.00624481827128,-0.00220014178958,-0.294306765982,0.0229750798276,-0.133380482557,0.0066452895135,0.323936228173
0.135096,1.4081943744,4.85926762958,1.5615924544,-1.580000224,3800,3800,-0.0149137021044,-0.00958737992429,0.00106526443603,-0.207621715349,-0.000497258063371,-0.000497258063371,-0.1009765625,-0.05048828125,4.10227001195,1842,1900,2129,2336,2089,1880,1911,2026,4.84751117318,4.78928415672,1.26993955269,1.6661484335,1.64613510113,15588.6260454,15588.6260454,0.000233292911491,0.207622906288,0.0177615076103,-0.000611098641872,0.00627465158391,-0.00218056747297,-0.296352308404,0.0223482891892,-0.137107006947,0.00667079969372,0.327295689064
0.136097,1.4078108792,4.85888413438,1.5615924544,-1.580000224,3800,3800,-0.0191747598486,-0.0106526443603,0.00213052887206,-0.20771042846,-0.000497470533005,-0.000497470533005,-0.0201953125,0.040390625,4.09784946237,1841,1901,2127,2335,2090,1880,1912,2024,4.74413209882,4.67433497263,1.27936743822,1.63237481532,1.60835881648,15571.827957,15571.827957,0.000235423440363,0.207711619908,0.022038362017,-0.000655141849381,0.00630086687955,-0.00216011671526,-0.298205836848,0.0216507085275,-0.140727870491,0.0066929992156,0.33045394209
0.137098,1.4066603936,4.85773364878,1.5615924544,-1.580000224,3800,3800,-0.0202400242846,-0.00852211548825,0.0031957933081,-0.20784849076,-0.00049780119491,-0.00049780119491,0.0605859375,0.01009765625,4.09784946237,1841,1901,2127,2335,2090,1880,1912,2024,4.6510692639,4.70923353573,1.28873710133,1.60035348353,1.6203668159,15571.827957,15571.827957,0.000238619233671,0.207849683,0.0221922988963,-0.000699393574258,0.0063232703712,-0.00213889642022,-0.29985624864,0.0208684804721,-0.144237827207,0.00671176410904,0.333397381698
0.138099,1.407427384,4.85888413438,1.5615924544,-1.580000224,3800,3800,-0.0181094954125,-0.0106526443603,0.00639158661619,-0.208033323381,-0.000498243872647,-0.000498243872647,0.07068359375,0.0605859375,4.09784946237,1841,1901,2127,2335,2090,1880,1912,2024,4.63943640953,4.6510692639,1.29803689751,1.59635081706,1.60035348353,15571.827957,15571.827957,0.000245010820287,0.208034516681,0.0219609889449,-0.000744012831186,0.00634175516083,-0.00211702236838,-0.301296331309,0.0199910499995,-0.14763151015,0.00672704967435,0.336116325295
0.1391,1.4070438888,4.85850063918,1.5615924544,-1.580000224,3800,3800,-0.0159789665405,-0.0117179087963,0.00426105774413,-0.208261690951,-0.000498790817439,-0.000498790817439,-0.05048828125,0.05048828125,4.09342891278,1841,1901,2127,2335,2090,1880,1912,2024,4.76878815445,4.65258510005,1.30746769213,1.64263052835,1.60260386362,15555.0298686,15555.0298686,0.000249271878031,0.208262885562,0.0202680381725,-0.000789023277288,0.0063563345936,-0.00209463205066,-0.302524247166,0.019012283777,-0.150903199591,0.0067389190992,0.338606205945
0.140101,1.4078108792,4.85850063918,1.5615924544,-1.580000224,3800,3800,-0.0191747598486,-0.00958737992429,0.00106526443603,-0.208529837422,-0.000499433033474,-0.000499433033474,-0.05048828125,-0.040390625,4.09784946237,1841,1901,2127,2335,2090,1880,1912,2024,4.77903066192,4.76739780756,1.31702366703,1.64438281474,1.64038014827,15571.827957,15571.827957,0.000250337142467,0.208531033571,0.0214644836272,-0.000834320809795,0.00636713675325,-0.00207188405711,-0.303543318781,0.0179303039324,-0.154046886398,0.00674753474939,0.340867254785
0.141102,1.4070438888,4.85811714398,1.5615924544,-1.580000224,3800,3800,-0.0191747598486,-0.00852211548825,0.00213052887206,-0.208833531786,-0.000500160387407,-0.000500160387407,-0.1009765625,-0.01009765625,4.10227001195,1841,1901,2130,2336,2090,1880,1909,2023,4.84751117318,4.74270254356,1.32662347096,1.6661484335,1.63012443524,15588.6260454,15588.6260454,0.00025246767134,0.208834729676,0.0210911597813,-0.000879705880618,0.00637439094847,-0.00204895884241,-0.304361479787,0.0167464851451,-0.157056523797,0.00675314554399,0.342903932334
0.142103,1.4078108792,4.85926762958,1.5615924544,-1.580000224,3800,3800,-0.0159789665405,-0.00745685105222,0.0031957933081,-0.209168250164,-0.00050096204446,-0.00050096204446,-0.07068359375,-0.0605859375,4.09784946237,1841,1901,2130,2336,2090,1880,1909,2023,4.80229637065,4.79066351629,1.33622602381,1.65238814769,1.64838548121,15571.827957,15571.827957,0.000255663464648,0.209169449974,0.0179205215935,-0.000924949755322,0.00637842504153,-0.00202607505562,-0.304991247469,0.0154631938555,-0.159926563605,0.00675609489211,0.344724929681
0.143104,1.4078108792,4.85965112478,1.5615924544,-1.580000224,3800,3800,-0.0159789665405,-0.00852211548825,0.00213052887206,-0.209529392012,-0.00050182698624,-0.00050182698624,-0.0605859375,-0.0605859375,4.09784946237,1841,1901,2130,2336,2090,1880,1909,2023,4.79066351629,4.79066351629,1.34581693217,1.64838548121,1.64838548121,15571.827957,15571.827957,0.00025779399352,0.209530593894,0.0182343899643,-0.000969876270524,0.00637966857832,-0.00200351350403,-0.305449970167,0.0140809438975,-0.162652621552,0.00675684079361,0.346343518135
0.144105,1.4085778696,4.85811714398,1.5615924544,-1.580000224,3800,3800,-0.0159789665405,-0.0106526443603,0.0031957933081,-0.209912294665,-0.000502744045572,-0.000502744045572,-0.03029296875,-0.07068359375,4.09784946237,1841,1901,2130,2336,2090,1880,1909,2023,4.75576495319,4.80229637065,1.35538455155,1.63637748179,1.65238814769,15571.827957,15571.827957,0.000260989786828,0.209913498743,0.0194684179747,-0.00101440563572,0.00637864726274,-0.0019816258665,-0.305759640072,0.0125969204702,-0.165231821247,0.0067559603885,0.347777507402
0.145106,1.407427384,4.86003461998,1.5615924544,-1.580000224,3800,3800,-0.0191747598486,-0.0117179087963,0.00106526443603,-0.210312212257,-0.000503701856015,-0.000503701856015,0.0605859375,-0.08078125,4.09784946237,1841,1901,2130,2336,2090,1880,1909,2023,4.6510692639,4.81392922502,1.36485901504,1.60035348353,1.65639081416,15571.827957,15571.827957,0.000262055051264,0.210313418629,0.0224970129157,-0.00105855291949,0.00637596672044,-0.00196082496449,-0.305946171037,0.0110051421019,-0.167662754857,0.0067541335821,0.349048667224
0.146107,1.407427384,4.85773364878,1.5615924544,-1.580000224,3800,3800,-0.0181094954125,-0.0117179087963,0.00106526443603,-0.21072456605,-0.000504689451405,-0.000504689451405,0.0605859375,0.01009765625,4.10227001195,1841,1901,2130,2336,2090,1880,1909,2023,4.66118472051,4.71941173697,1.3742489921,1.60210576992,1.62211910229,15588.6260454,15588.6260454,0.0002631203157,0.210725774788,0.0215962496507,-0.00110241308904,0.00637229405365,-0.00194157015882,-0.306038559407,0.00929709853224,-0.169945329322,0.00675212120793,0.3501820253
0.147108,1.4085778696,4.85850063918,1.5615924544,-1.580000224,3800,3800,-0.0181094954125,-0.00852211548825,0.00213052887206,-0.211145262762,-0.000505697028247,-0.000505697028247,0.08078125,0.07068359375,4.10227001195,1841,1900,2129,2336,2089,1879,1911,2026,4.63789391393,4.64953931722,1.38354571276,1.59410043698,1.59810310345,15588.6260454,15588.6260454,0.000265250844572,0.211146473913,0.0201275788352,-0.00114614515752,0.00636833236462,-0.00192434187602,-0.30606769812,0.00746252451051,-0.17208068282,0.00675073310717,0.351204906721
0.148109,1.4078108792,4.85888413438,1.5615924544,-1.580000224,3800,3800,-0.0181094954125,-0.00745685105222,0.0031957933081,-0.211570698527,-0.000506715955213,-0.000506715955213,0.0605859375,0.07068359375,4.09784946237,1841,1900,2129,2336,2089,1879,1911,2026,4.6510692639,4.63943640953,1.39284550894,1.60035348353,1.59635081706,15571.827957,15571.827957,0.00026844663788,0.211571912118,0.0198436777483,-0.00118995145242,0.00636477218278,-0.00190958274601,-0.306064067715,0.0054906711165,-0.174071282586,0.00675076407984,0.352145101395
0.14911,1.4081943744,4.85850063918,1.5615924544,-1.580000224,3800,3800,-0.0181094954125,-0.00852211548825,0.0031957933081,-0.211997566836,-0.00050773831315,-0.00050773831315,0.040390625,-0.01009765625,4.10227001195,1841,1900,2129,2336,2089,1879,1911,2026,4.6844755271,4.74270254356,1.40228211419,1.61011110287,1.63012443524,15588.6260454,15588.6260454,0.000271642431188,0.211998782876,0.0202680381725,-0.00123405510444,0.00636223258395,-0.00189762336465,-0.306054923014,0.00337178906519,-0.175921113874,0.00675291565822,0.353028643554
0.150111,1.4081943744,4.85888413438,1.5615924544,-1.580000224,3800,3800,-0.0191747598486,-0.00958737992429,0.00106526443603,-0.212422805766,-0.000508756768693,-0.000508756768693,-0.08078125,-0.03029296875,4.10227001195,1841,1900,2129,2336,2089,1879,1911,2026,4.8242203666,4.76599335014,1.41188191812,1.65814310055,1.63812976818,15588.6260454,15588.6260454,0.000272707695624,0.212424024245,0.0214644836272,-0.00127868483334,0.00636122912576,-0.00188864487966,-0.306062770894,0.00109799263953,-0.177635700141,0.00675775483241,0.353878605287
0.151112,1.4085778696,4.85811714398,1.5615924544,-1.580000224,3800,3800,-0.0191747598486,-0.0106526443603,0.0,-0.212843678999,-0.000509764768307,-0.000509764768307,-0.11107421875,-0.08078125,4.10227001195,1841,1900,2129,2336,2089,1879,1911,2026,4.85915657647,4.8242203666,1.42157497844,1.67015109997,1.65814310055,15588.6260454,15588.6260454,0.000272707695624,0.212844899892,0.0219351372715,-0.00132406824077,0.0063621736842,-0.00188268558894,-0.306105385379,-0.00133660860699,-0.179221918048,0.00676571620163,0.354715081988
0.152113,1.4085778696,4.85926762958,1.5615924544,-1.580000224,3800,3800,-0.0202400242846,-0.00852211548825,0.0,-0.213257726081,-0.000510756419155,-0.000510756419155,-0.1009765625,-0.08078125,4.09784946237,1841,1901,2130,2337,2090,1880,1912,2024,4.83719493375,4.81392922502,1.43123575372,1.66439614711,1.65639081416,15571.827957,15571.827957,0.000272707695624,0.21325894935,0.0219609889449,-0.00137042187771,0.00636539263733,-0.00187966630848,-0.306196718911,-0.00393577205564,-0.180687777562,0.00677712512659,0.355555894247
0.153114,1.4085778696,4.85811714398,1.5615924544,-1.580000224,3800,3800,-0.0202400242846,-0.0117179087963,-0.00106526443603,-0.21366253764,-0.000511725950746,-0.000511725950746,-0.07068359375,-0.05048828125,4.10227001195,1841,1901,2130,2337,2090,1880,1912,2024,4.81257496331,4.78928415672,1.4408472147,1.65414043408,1.64613510113,15588.6260454,15588.6260454,0.000271642431188,0.213663763231,0.0234115945189,-0.00141792406477,0.00637116899596,-0.00187943095058,-0.306349006264,-0.00670030731372,-0.182042267858,0.00679224290839,0.35641828663
0.154115,1.4089613648,4.85850063918,1.5615924544,-1.580000224,3800,3800,-0.0191747598486,-0.0127831732324,-0.00106526443603,-0.214055621514,-0.0005126673943,-0.0005126673943,0.01009765625,-0.07068359375,4.10227001195,1841,1901,2130,2337,2090,1880,1912,2024,4.71941173697,4.81257496331,1.45038873339,1.62211910229,1.65414043408,15588.6260454,15588.6260454,0.000270577166752,0.214056849359,0.0230698010711,-0.00146667967517,0.00637979573599,-0.00188179368934,-0.306575424756,-0.00962693840063,-0.183295243832,0.00681132075237,0.357321025716
0.155116,1.4081943744,4.85773364878,1.5615924544,-1.580000224,3800,3800,-0.0191747598486,-0.00852211548825,0.00106526443603,-0.214434446714,-0.000513574688054,-0.000513574688054,0.05048828125,-0.07068359375,4.09784946237,1841,1901,2130,2337,2090,1880,1912,2024,4.66270211826,4.80229637065,1.45986319687,1.60435615001,1.65238814769,15571.827957,15571.827957,0.000271642431188,0.214435676732,0.0210102988071,-0.00151670355993,0.00639160346329,-0.00188656766653,-0.306891469309,-0.0127078668022,-0.184457282205,0.00683462669654,0.358285295222
0.156117,1.4070438888,4.85850063918,1.5615924544,-1.580000224,3800,3800,-0.0181094954125,-0.00745685105222,0.00106526443603,-0.214796547444,-0.000514441926373,-0.000514441926373,0.07068359375,-0.05048828125,4.09342891278,1841,1901,2130,2337,2090,1880,1912,2024,4.62934448917,4.76878815445,1.46927072765,1.59459853067,1.64263052835,15555.0298686,15555.0298686,0.000272707695624,0.214797779539,0.0196135983448,-0.00156792629362,0.0064069573074,-0.0018935718142,-0.307314787686,-0.0159311770045,-0.185539496623,0.00686244191353,0.359334225948
0.157118,1.4085778696,4.85926762958,1.5615924544,-1.580000224,3800,3800,-0.0181094954125,-0.00958737992429,0.0,-0.215139737057,-0.000515263872199,-0.000515263872199,0.040390625,-0.040390625,4.10227001195,1841,1901,2130,2337,2090,1880,1912,2024,4.6844755271,4.77763875343,1.47874230405,1.61011110287,1.64213243466,15588.6260454,15588.6260454,0.000272707695624,0.21514097112,0.0204907705543,-0.00162020634422,0.0064262449738,-0.0019026307731,-0.307864571678,-0.0192814751671,-0.186553352504,0.00689504872498,0.36049205693
0.158119,1.407427384,4.85850063918,1.5615924544,-1.580000224,3800,3800,-0.0170442309765,-0.00958737992429,0.0,-0.215462339421,-0.000516036511162,-0.000516036511162,0.07068359375,-0.08078125,4.10227001195,1841,1903,2132,2340,2090,1880,1912,2025,4.64953931722,4.8242203666,1.48822553749,1.59810310345,1.65814310055,15588.6260454,15588.6260454,0.000272707695624,0.215463575335,0.0195556555347,-0.00167334114809,0.00644987132267,-0.00191357236043,-0.308561190597,-0.0227405036009,-0.18751036492,0.00693272456221,0.361783465348
0.15912,1.407427384,4.85926762958,1.5615924544,-1.580000224,3800,3800,-0.0149137021044,-0.00958737992429,0.00106526443603,-0.215763137161,-0.000516756927624,-0.000516756927624,0.040390625,0.0201953125,4.10227001195,1841,1903,2132,2340,2090,1880,1912,2025,4.6844755271,4.70776633368,1.49762717159,1.61011110287,1.61811643582,15588.6260454,15588.6260454,0.00027377296006,0.2157643748,0.0177615076103,-0.00172707677197,0.00647826908245,-0.00192621805667,-0.309426397511,-0.0262877755342,-0.188421430606,0.0069757494567,0.363233228285
0.160121,1.4085778696,4.85888413438,1.5615924544,-1.580000224,3800,3800,-0.0170442309765,-0.00852211548825,0.00106526443603,-0.216041196231,-0.000517422884528,-0.000517422884528,-0.09087890625,-0.07068359375,4.09784946237,1841,1903,2132,2340,2090,1880,1912,2025,4.82556207939,4.80229637065,1.5072646579,1.66039348063,1.65238814769,15571.827957,15571.827957,0.000274838224496,0.216042435465,0.0190857813645,-0.00178111648649,0.00651191782874,-0.00194037015675,-0.310483836033,-0.0299011978165,-0.18929599287,0.00702442069439,0.364866094595
0.161122,1.4078108792,4.85888413438,1.5615924544,-1.580000224,3800,3800,-0.0202400242846,-0.00852211548825,0.0,-0.216295854367,-0.000518032795736,-0.000518032795736,-0.1009765625,-0.03029296875,4.10227001195,1841,1903,2132,2340,2090,1880,1912,2025,4.84751117318,4.76599335014,1.51688777593,1.6661484335,1.63812976818,15588.6260454,15588.6260454,0.000274838224496,0.216297095062,0.0219609889449,-0.00183512911716,0.00655134861844,-0.00195580612639,-0.311759067188,-0.0335575844011,-0.190141615689,0.00707905680165,0.36670650589
0.162123,1.4085778696,4.85888413438,1.5615924544,-1.580000224,3800,3800,-0.0191747598486,-0.00958737992429,0.0,-0.216526605417,-0.000518585449008,-0.000518585449008,-0.0201953125,-0.040390625,4.10227001195,1841,1903,2132,2340,2090,1880,1912,2025,4.75434794685,4.77763875343,1.52642929461,1.63412710171,1.64213243466,15588.6260454,15588.6260454,0.000274838224496,0.216527847436,0.0214380332368,-0.00188875732431,0.00659713108398,-0.00197228162508,-0.313279005371,-0.0372330487153,-0.190964046244,0.0071399886259,0.368778120393
0.163124,1.4085778696,4.85888413438,1.5615924544,-1.580000224,3800,3800,-0.0181094954125,-0.0106526443603,-0.00106526443603,-0.216732767535,-0.000519079211307,-0.000519079211307,0.08078125,-0.05048828125,4.10227001195,1842,1901,2130,2337,2089,1877,1911,2026,4.63789391393,4.78928415672,1.53586589986,1.59410043698,1.64613510113,15588.6260454,15588.6260454,0.00027377296006,0.216734010736,0.0210372869991,-0.00194163046583,0.00664984740099,-0.00198952725902,-0.31507079783,-0.0409033964362,-0.1917678009,0.00720753897226,0.371103199861
0.164125,1.407427384,4.85850063918,1.5615924544,-1.580000224,3800,3800,-0.0159789665405,-0.0106526443603,-0.0031957933081,-0.216913387413,-0.000519511799443,-0.000519511799443,0.07068359375,0.0201953125,4.09784946237,1842,1901,2130,2337,2089,1877,1911,2026,4.63943640953,4.69760068136,1.54521227399,1.59635081706,1.61636414943,15571.827957,15571.827957,0.000270577166752,0.21691463165,0.0194684179747,-0.00199339123466,0.00671004285909,-0.00200722026364,-0.317159577991,-0.0445446592237,-0.192557811642,0.00728197891867,0.373701666307
0.165126,1.4081943744,4.85850063918,1.5615924544,-1.580000224,3800,3800,-0.0170442309765,-0.00852211548825,-0.00106526443603,-0.217067486022,-0.000519880868622,-0.000519880868622,0.0605859375,-0.08078125,4.10227001195,1842,1901,2130,2337,2089,1877,1911,2026,4.66118472051,4.8242203666,1.55470716448,1.60210576992,1.65814310055,15588.6260454,15588.6260454,0.000269511902316,0.217068731143,0.0190857813645,-0.00204372854759,0.00677816610856,-0.00202494396242,-0.319565715686,-0.048133680961,-0.19334157317,0.00736347473835,0.376590044744
0.166127,1.4081943744,4.85888413438,1.5615924544,-1.580000224,3800,3800,-0.0191747598486,-0.00745685105222,-0.00213052887206,-0.217194208145,-0.000520184370582,-0.000520184370582,-0.040390625,-0.0605859375,4.10227001195,1842,1901,2130,2337,2089,1877,1911,2026,4.77763875343,4.80092956001,1.56429531137,1.64213243466,1.6501377676,15588.6260454,15588.6260454,0.000267381373444,0.217195453993,0.0206836939675,-0.00209239487154,0.00685453708494,-0.00204217208897,-0.322303374017,-0.0516484979353,-0.194130171729,0.00745206426356,0.37978093135
0.167128,1.4078108792,4.85811714398,1.5615924544,-1.580000224,3800,3800,-0.0191747598486,-0.00958737992429,-0.0031957933081,-0.21729272486,-0.000520420320037,-0.000520420320037,0.01009765625,-0.08078125,4.10227001195,1842,1901,2130,2337,2089,1877,1911,2026,4.71941173697,4.8242203666,1.5738484871,1.62211910229,1.65814310055,15588.6260454,15588.6260454,0.000264185580136,0.217293971273,0.0216749247734,-0.00213920498904,0.00693934779565,-0.00205828313951,-0.32538062033,-0.055068478332,-0.19493797139,0.00754766687769,0.383283052172
0.168129,1.4078108792,4.85888413438,1.5615924544,-1.580000224,3800,3800,-0.0223705531567,-0.0106526443603,-0.0031957933081,-0.217362144901,-0.000520586582393,-0.000520586582393,-0.07068359375,-0.0201953125,4.10227001195,1842,1901,2130,2337,2089,1877,1911,2026,4.81257496331,4.75434794685,1.58342497693,1.65414043408,1.63412710171,15588.6260454,15588.6260454,0.000260989786828,0.217363391713,0.0249826654957,-0.0021840292179,0.00703267322217,-0.00207258275652,-0.328800009183,-0.0583743770023,-0.19578192056,0.00765010297689,0.387101503933
0.16913,1.4081943744,4.85888413438,1.5615924544,-1.580000224,3800,3800,-0.0223705531567,-0.0127831732324,-0.00106526443603,-0.217401608995,-0.000520681099668,-0.000520681099668,-0.09087890625,-0.08078125,4.10227001195,1842,1901,2129,2336,2089,1880,1912,2024,4.83586576989,4.8242203666,1.59309472316,1.66214576702,1.65814310055,15588.6260454,15588.6260454,0.000259924522392,0.217402856033,0.0257873215892,-0.00222678157313,0.00713447749622,-0.00208433617828,-0.332559032299,-0.0615483041606,-0.196680557227,0.00775910965399,0.391237709455
0.170131,1.4089613648,4.85850063918,1.5615924544,-1.580000224,3800,3800,-0.0170442309765,-0.00958737992429,0.00213052887206,-0.217410546899,-0.000520702506121,-0.000520702506121,-0.0605859375,-0.0201953125,4.10227001195,1842,1901,2129,2336,2089,1880,1912,2024,4.80092956001,4.75434794685,1.60265955594,1.6501377676,1.63412710171,15588.6260454,15588.6260454,0.000262055051264,0.217411793988,0.0196713704827,-0.00226739272643,0.00724460739855,-0.00209283315174,-0.336650242806,-0.0645734732622,-0.197652040419,0.00787434801974,0.39568857516
0.171132,1.407427384,4.85735015358,1.5615924544,-1.580000224,3800,3800,-0.0170442309765,-0.00852211548825,0.00213052887206,-0.217388871262,-0.000520650592547,-0.000520650592547,0.0605859375,-0.0201953125,4.10227001195,1842,1901,2129,2336,2089,1880,1912,2024,4.66118472051,4.75434794685,1.61208450414,1.60210576992,1.63412710171,15588.6260454,15588.6260454,0.000264185580136,0.217390118226,0.0191747598486,-0.00230577590001,0.00736277957837,-0.00209746745993,-0.34106120974,-0.0674338379753,-0.198711743709,0.00799540464055,0.400445287625
0.172133,1.4089613648,4.85773364878,1.5615924544,-1.580000224,3800,3800,-0.0181094954125,-0.00852211548825,0.0031957933081,-0.217336893599,-0.000520526105029,-0.000520526105029,0.08078125,-0.03029296875,4.10227001195,1842,1901,2129,2336,2089,1880,1912,2024,4.63789391393,4.76599335014,1.62149779529,1.59410043698,1.63812976818,15588.6260454,15588.6260454,0.000267381373444,0.217338140265,0.0202680381725,-0.00234180924983,0.00748857999425,-0.00209777927083,-0.345774752968,-0.0701139345122,-0.19987096576,0.00812179652306,0.405492967333
0.173134,1.4070438888,4.85888413438,1.5615924544,-1.580000224,3800,3800,-0.0170442309765,-0.00958737992429,0.0031957933081,-0.21725511283,-0.000520330238491,-0.000520330238491,0.05048828125,0.07068359375,4.09784946237,1842,1901,2129,2336,2089,1880,1912,2024,4.66270211826,4.63943640953,1.63080923596,1.60435615001,1.59635081706,15571.827957,15571.827957,0.000270577166752,0.217256359028,0.0198150639227,-0.00237533799219,0.00762147814317,-0.00209345320487,-0.350769521413,-0.0725989738319,-0.20113697113,0.00825298164211,0.410811330551
0.174135,1.4081943744,4.85850063918,1.5615924544,-1.580000224,3800,3800,-0.0170442309765,-0.00745685105222,0.00213052887206,-0.217144115483,-0.000520064397677,-0.000520064397677,-0.0201953125,0.07068359375,4.09784946237,1841,1901,2130,2337,2090,1880,1911,2024,4.74413209882,4.63943640953,1.64020218804,1.63237481532,1.59635081706,15571.827957,15571.827957,0.000272707695624,0.217145361044,0.0187256399215,-0.00240618592829,0.00776085277465,-0.00208430297793,-0.356020971423,-0.0748751487555,-0.202513517192,0.00838837799667,0.416375965492
0.175136,1.4078108792,4.85965112478,1.5615924544,-1.580000224,3800,3800,-0.0127831732324,-0.00745685105222,0.0031957933081,-0.217004608377,-0.000519730275433,-0.000519730275433,-0.09087890625,-0.03029296875,4.10227001195,1841,1901,2130,2337,2090,1880,1911,2024,4.83586576989,4.76599335014,1.64981364901,1.66214576702,1.63812976818,15588.6260454,15588.6260454,0.000275903488932,0.217005853138,0.0151402523219,-0.00243417666226,0.00790603815358,-0.00207025675842,-0.361503216839,-0.0769303491669,-0.204001593853,0.00852740396338,0.422160520066
0.176137,1.4085778696,4.85735015358,1.5615924544,-1.580000224,3800,3800,-0.0127831732324,-0.00958737992429,0.0031957933081,-0.216837464262,-0.000519329962012,-0.000519329962012,-0.1009765625,-0.03029296875,4.10227001195,1841,1901,2130,2337,2090,1880,1911,2024,4.84751117318,4.76599335014,1.65943676704,1.6661484335,1.63812976818,15588.6260454,15588.6260454,0.00027909928224,0.216838708064,0.0162954124394,-0.00245915911049,0.00805637954319,-0.00205134331661,-0.367191273964,-0.0787550621831,-0.205600251846,0.00866952849221,0.428139293985
0.177138,1.407427384,4.85888413438,1.5615924544,-1.580000224,3800,3800,-0.0149137021044,-0.00852211548825,0.00213052887206,-0.216643680953,-0.000518865847202,-0.000518865847202,0.0605859375,-0.07068359375,4.09784946237,1841,1901,2130,2337,2090,1880,1911,2024,4.6510692639,4.80229637065,1.66889958604,1.60035348353,1.65238814769,15571.827957,15571.827957,0.000281229811112,0.216644923643,0.0173084983788,-0.00248102161372,0.00821126507797,-0.00202767925315,-0.373062320191,-0.0803428097176,-0.207307158871,0.00881429665838,0.434288751799
0.178139,1.4085778696,4.85811714398,1.5615924544,-1.580000224,3800,3800,-0.0149137021044,-0.00639158661619,0.0031957933081,-0.216424349242,-0.000518340543472,-0.000518340543472,0.040390625,-0.0201953125,4.10227001195,1841,1901,2130,2337,2090,1880,1911,2024,4.6844755271,4.75434794685,1.67834784834,1.61011110287,1.63412710171,15588.6260454,15588.6260454,0.00028442560442,0.216425590674,0.0165373512027,-0.00249969250592,0.00837012950835,-0.00199945731977,-0.37909577599,-0.0816900346903,-0.209118834267,0.00896132580505,0.440587739261
0.17914,1.407427384,4.85773364878,1.5615924544,-1.580000224,3800,3800,-0.0138484376684,-0.00532632218016,0.00426105774413,-0.216180725412,-0.000517757059639,-0.000517757059639,-0.01009765625,-0.05048828125,4.10227001195,1841,1901,2130,2337,2090,1880,1911,2024,4.74270254356,4.78928415672,1.68788936703,1.63012443524,1.64613510113,15588.6260454,15588.6260454,0.000288686662165,0.216181965446,0.0154371482769,-0.00251513652037,0.00853244939438,-0.00196693561242,-0.385273033421,-0.0827958227464,-0.211030778003,0.00911029308459,0.447017279095
0.180141,1.4081943744,4.85811714398,1.5615924544,-1.580000224,3800,3800,-0.0159789665405,-0.00745685105222,0.00532632218016,-0.215914258092,-0.000517118865203,-0.000517118865203,-0.08078125,-0.03029296875,4.10227001195,1841,1901,2129,2336,2089,1879,1912,2024,4.8242203666,4.76599335014,1.69748917096,1.65814310055,1.63812976818,15588.6260454,15588.6260454,0.000294012984345,0.215915496598,0.0184201440625,-0.0025273463314,0.0086977365486,-0.00193042443777,-0.391577102765,-0.0836613922142,-0.213037591782,0.00926091998981,0.453560218129
0.181142,1.4081943744,4.86003461998,1.5615924544,-1.580000224,3800,3800,-0.0159789665405,-0.00745685105222,0.0031957933081,-0.215626504915,-0.000516429690726,-0.000516429690726,-0.1009765625,0.0605859375,4.10227001195,1841,1901,2129,2336,2089,1879,1912,2024,4.84751117318,4.66118472051,1.70700737555,1.6661484335,1.60210576992,15588.6260454,15588.6260454,0.000297208777653,0.215627741771,0.0179205215935,-0.00253631998716,0.0088655256053,-0.0018902651669,-0.397991977535,-0.0842889006354,-0.215133088817,0.00941294670848,0.460200476811
0.182143,1.407427384,4.85888413438,1.5615924544,-1.580000224,3800,3800,-0.0149137021044,-0.00958737992429,0.0,-0.215319161006,-0.00051569359606,-0.00051569359606,-0.07068359375,0.0605859375,4.10227001195,1841,1901,2129,2336,2089,1879,1912,2024,4.81257496331,4.66118472051,1.71649060899,1.65414043408,1.60210576992,15588.6260454,15588.6260454,0.000297208777653,0.215320396099,0.0177295336733,-0.00254203167468,0.009035358977,-0.00184680560451,-0.404501875727,-0.0846799311157,-0.217310395094,0.00956610306338,0.466922119862
0.183144,1.4081943744,4.85850063918,1.5615924544,-1.580000224,3800,3800,-0.0149137021044,-0.0106526443603,0.00106526443603,-0.214994173306,-0.000514915244172,-0.000514915244172,0.08078125,-0.0605859375,4.10227001195,1841,1901,2129,2336,2089,1879,1912,2024,4.63789391393,4.80092956001,1.72593887129,1.59410043698,1.6501377676,15588.6260454,15588.6260454,0.000298274042089,0.214995406535,0.0183584348637,-0.0025444173317,0.0092067786862,-0.00180038501817,-0.41109081683,-0.0848347090467,-0.219562050252,0.0097200935977,0.473708857266
0.184145,1.4078108792,4.85850063918,1.5615924544,-1.580000224,3800,3800,-0.0138484376684,-0.00745685105222,0.00213052887206,-0.214653620622,-0.00051409961384,-0.00051409961384,-0.01009765625,-0.0605859375,4.10669056153,1841,1901,2129,2336,2089,1879,1912,2024,4.75291682998,4.81120659107,1.73551255883,1.63187672163,1.65189005399,15605.4241338,15605.4241338,0.000300404570961,0.214654851897,0.0158720826216,-0.00254337808841,0.00937932636443,-0.00175133062782,-0.417742597086,-0.0847521947251,-0.221880109268,0.00987459842824,0.480544061268
0.185146,1.4081943744,4.85811714398,1.5615924544,-1.580000224,3800,3800,-0.0181094954125,-0.00852211548825,0.0031957933081,-0.214299467211,-0.000513251409505,-0.000513251409505,-0.1009765625,0.01009765625,4.10227001195,1839,1902,2130,2336,2090,1880,1911,2023,4.84751117318,4.71941173697,1.74508904867,1.6661484335,1.62211910229,15588.6260454,15588.6260454,0.000303600364269,0.214300696455,0.0202680381725,-0.00253879001958,0.00955255651009,-0.00169996553375,-0.424441348629,-0.0844305760878,-0.22425606415,0.0100292907754,0.487411287223
0.186147,1.407427384,4.85696665838,1.5615924544,-1.580000224,3800,3800,-0.0191747598486,-0.00852211548825,0.00532632218016,-0.213933491861,-0.000512374891395,-0.000512374891395,0.0,0.040390625,4.10227001195,1839,1902,2130,2336,2090,1880,1911,2023,4.73105714026,4.6844755271,1.75451399687,1.62612176876,1.61011110287,15588.6260454,15588.6260454,0.000308926686449,0.213934719006,0.0216487315012,-0.00253051665242,0.00972608015993,-0.00164663883461,-0.431173401485,-0.0838681474812,-0.226680260318,0.010183887728,0.494295770494
0.187148,1.407427384,4.85850063918,1.5615924544,-1.580000224,3800,3800,-0.0191747598486,-0.00958737992429,0.00639158661619,-0.213557246298,-0.000511473775922,-0.000511473775922,0.08078125,-0.0605859375,4.10227001195,1839,1902,2130,2336,2090,1880,1911,2023,4.63789391393,4.80092956001,1.76396225916,1.59410043698,1.6501377676,15588.6260454,15588.6260454,0.000315318273065,0.213558471285,0.0223705531567,-0.0025184224019,0.00989962303509,-0.00159176635742,-0.437929766442,-0.0830643563712,-0.229141068126,0.010338215889,0.501186389218
0.188149,1.4081943744,4.85811714398,1.5615924544,-1.580000224,3800,3800,-0.0149137021044,-0.00745685105222,0.00745685105222,-0.21317198531,-0.00051055106833,-0.00051055106833,0.08078125,-0.040390625,4.10227001195,1839,1902,2130,2336,2090,1880,1911,2023,4.63789391393,4.77763875343,1.77338720736,1.59410043698,1.64213243466,15588.6260454,15588.6260454,0.000322775124118,0.213173208086,0.0182654801659,-0.00250238155775,0.0100730520979,-0.00153584852527,-0.444707267978,-0.0820203834773,-0.23162456217,0.0104922410724,0.50807660377
0.18915,1.4081943744,4.85888413438,1.5615924544,-1.580000224,3800,3800,-0.0138484376684,-0.00745685105222,0.0031957933081,-0.212778832099,-0.000509609458711,-0.000509609458711,0.01009765625,0.05048828125,4.10669056153,1839,1902,2130,2336,2090,1880,1911,2023,4.72960092555,4.68296911668,1.78280918998,1.62387138868,1.60786072278,15605.4241338,15605.4241338,0.000325970917426,0.21278005262,0.0160498270501,-0.00248228211528,0.010246364125,-0.00147946071984,-0.45150805359,-0.0807391699931,-0.234114812942,0.0106460559036,0.514964155711
0.190151,1.4081943744,4.85926762958,1.5615924544,-1.580000224,3800,3800,-0.0159789665405,-0.00639158661619,0.0031957933081,-0.212379040156,-0.000508651949199,-0.000508651949199,-0.11107421875,-0.040390625,4.09342891278,1839,1902,2130,2336,2090,1880,1911,2023,4.83850998709,4.75716784901,1.79241446349,1.66664652719,1.63862786188,15555.0298686,15555.0298686,0.000329166710734,0.212380258384,0.0175040808397,-0.00245802771511,0.0104196636634,-0.0014232360332,-0.458338650256,-0.0792252720904,-0.236594343861,0.0107998561061,0.521850405388
0.191152,1.4078108792,4.85773364878,1.5615924544,-1.580000224,3800,3800,-0.0170442309765,-0.00639158661619,0.00426105774413,-0.21197393781,-0.000507681721169,-0.000507681721169,-0.1009765625,-0.05048828125,4.10227001195,1841,1901,2129,2337,2087,1879,1912,2026,4.84751117318,4.78928415672,1.80206089561,1.6661484335,1.64613510113,15588.6260454,15588.6260454,0.000333427768478,0.211975153714,0.0186953149787,-0.00242954025497,0.0105931222235,-0.00136783627412,-0.465208167783,-0.077484683753,-0.23904444572,0.0109538979531,0.528738841601
0.192153,1.4070438888,4.85773364878,1.5615924544,-1.580000224,3800,3800,-0.0138484376684,-0.00639158661619,0.0031957933081,-0.211564664387,-0.000506701503327,-0.000506701503327,-0.09087890625,0.0,4.10227001195,1841,1901,2129,2337,2087,1879,1912,2026,4.83586576989,4.73105714026,1.81163738545,1.66214576702,1.62612176876,15588.6260454,15588.6260454,0.000336623561786,0.211565877944,0.0155834752285,-0.0023967651108,0.0107668805374,-0.00131388676211,-0.472123921161,-0.0755245643662,-0.241445162269,0.0111083976309,0.535631144668
0.193154,1.4085778696,4.85888413438,1.5615924544,-1.580000224,3800,3800,-0.0117179087963,-0.00852211548825,0.00426105774413,-0.211152216996,-0.000505713683769,-0.000505713683769,0.0,-0.08078125,4.10227001195,1841,1901,2129,2337,2087,1879,1912,2026,4.73105714026,4.8242203666,1.82120221823,1.62612176876,1.65814310055,15588.6260454,15588.6260454,0.00034088461953,0.211153428186,0.0151027299537,-0.00235967745548,0.0109409244388,-0.0012618944821,-0.479085855474,-0.0733529228066,-0.243775100466,0.0112634045898,0.542522080478
0.194155,1.4070438888,4.85811714398,1.5615924544,-1.580000224,3800,3800,-0.0117179087963,-0.0106526443603,0.00639158661619,-0.210737805596,-0.000504721160372,-0.000504721160372,0.03029296875,-0.08078125,4.10227001195,1841,1901,2129,2337,2087,1879,1912,2026,4.69612093039,4.8242203666,1.83073207987,1.61411376934,1.65814310055,15588.6260454,15588.6260454,0.000347276206146,0.210739014409,0.0170774880442,-0.0023182852558,0.0111150228915,-0.00121220631744,-0.486083781165,-0.0709784070316,-0.246011505397,0.0114187400602,0.549396976115
0.195156,1.4078108792,4.85965112478,1.5615924544,-1.580000224,3800,3800,-0.0138484376684,-0.00958737992429,0.00426105774413,-0.210322942299,-0.000503727554673,-0.000503727554673,0.08078125,0.0605859375,4.10227001195,1841,1901,2129,2337,2087,1879,1912,2026,4.63789391393,4.66118472051,1.84004045758,1.59410043698,1.60210576992,15588.6260454,15588.6260454,0.00035153726389,0.210324148733,0.0173739371694,-0.00227262835522,0.0112887403682,-0.0011650151723,-0.493097972275,-0.0684102200465,-0.248130662505,0.0115740122297,0.556232320298
0.196157,1.4081943744,4.85888413438,1.5615924544,-1.580000224,3800,3800,-0.0138484376684,-0.00852211548825,0.0031957933081,-0.209909191974,-0.000502736614565,-0.000502736614565,0.0605859375,0.07068359375,4.10227001195,1840,1900,2129,2335,2089,1879,1911,2025,4.66118472051,4.64953931722,1.84936049235,1.60210576992,1.59810310345,15588.6260454,15588.6260454,0.000354733057199,0.209910396035,0.0165716255424,-0.0022227806958,0.0114614785945,-0.0011203852841,-0.500101102781,-0.0656582164821,-0.250108650993,0.0117286618495,0.562997736848
0.197158,1.4085778696,4.85735015358,1.5615924544,-1.580000224,3800,3800,-0.0170442309765,-0.00958737992429,0.00426105774413,-0.209498047279,-0.000501751914989,-0.000501751914989,0.03029296875,0.0605859375,4.10227001195,1840,1900,2129,2335,2089,1879,1911,2025,4.69612093039,4.66118472051,1.8587271553,1.61411376934,1.60210576992,15588.6260454,15588.6260454,0.000358994114943,0.209499248981,0.0200145016548,-0.00216886497409,0.0116325376081,-0.00107829052483,-0.507061087317,-0.0627334007503,-0.251922848866,0.011882029159,0.569659150389
0.198159,1.407427384,4.85850063918,1.5615924544,-1.580000224,3800,3800,-0.0138484376684,-0.00852211548825,0.00532632218016,-0.209090921571,-0.000500776840968,-0.000500776840968,-0.07068359375,-0.07068359375,4.10227001195,1840,1900,2129,2335,2089,1879,1911,2025,4.81257496331,4.81257496331,1.86836193038,1.65414043408,1.65414043408,15588.6260454,15588.6260454,0.000364320437123,0.209092120938,0.0171106804721,-0.0021110732507,0.0118011847692,-0.00103865820064,-0.513944294967,-0.0596486166841,-0.253553774674,0.0120334285673,0.576182447192
0.19916,1.4081943744,4.85965112478,1.5615924544,-1.580000224,3800,3800,-0.0127831732324,-0.00639158661619,0.00532632218016,-0.20868897513,-0.000499814171391,-0.000499814171391,-0.1009765625,-0.040390625,4.10227001195,1840,1900,2129,2335,2089,1879,1911,2025,4.84751117318,4.77763875343,1.87799670545,1.6661484335,1.64213243466,15588.6260454,15588.6260454,0.000369646759303,0.208690172191,0.0152522655802,-0.00204967476287,0.0119666986459,-0.00100139656657,-0.520717589613,-0.0564188204146,-0.254986061392,0.0121821934888,0.582535649495
0.200161,1.4078108792,4.85735015358,1.5678242514,-1.573768427,2512,-1159,-0.0159789665405,-0.00532632218016,0.0031957933081,-0.208292954945,-0.000498865695314,-0.000498865695314,-0.08078125,-0.01009765625,4.10227001195,1840,1900,2129,2335,2089,1879,1911,2025,3.18906356866,1.44652427578,1.88263692889,1.09611986015,-0.497187952747,10304.90227,-4754.53094385,0.000372842552611,0.208294149735,0.0171438086357,-0.00198500834541,0.0121283832844,-0.000966403089533,-0.52734898688,-0.0530608524395,-0.256208397455,0.0123276872996,0.588689350126
0.201162,1.4085778696,4.85888413438,1.5740560484,-1.56753663,2431,-1600,-0.0191747598486,-0.00745685105222,0.0031957933081,-0.207903267699,-0.000497932386748,-0.000497932386748,0.040390625,0.0605859375,3.90776583035,1840,1900,2129,2335,2089,1879,1911,2025,2.71804041863,1.77957837695,1.8871390453,0.980723297313,-0.642107439502,9499.77873357,-6252.42532855,0.000376038345919,0.207904460253,0.020820401959,-0.00191747061537,0.0122855727037,-0.000933566506141,-0.533807855211,-0.0495930709614,-0.257213154717,0.0124693037752,0.594616604151
0.202163,1.4116458312,4.85965112478,1.5802878454,-1.561304833,2173,-1432,-0.0213052887206,-0.0106526443603,0.00213052887206,-0.207520146629,-0.000497014804302,-0.000497014804302,0.08078125,0.13126953125,3.91218637993,1841,1901,2129,2336,2089,1878,1910,2023,2.40970262988,1.56706060631,1.8911197853,0.868486410966,-0.564787880823,8501.18100358,-5602.25089606,0.000378168874791,0.207521336985,0.0239151272757,-0.0018475020522,0.0124376410029,-0.000902769481955,-0.540065364309,-0.0460349285652,-0.257996118115,0.0126064733485,0.600293102856
0.203164,1.4181652496,4.85466568718,1.5865196424,-1.555073036,1719,-539,-0.0213052887206,-0.0127831732324,0.0031957933081,-0.207143870314,-0.000496113615179,-0.000496113615179,0.23224609375,-0.0605859375,3.943130227,1841,1901,2129,2336,2089,1878,1910,2023,1.86088914976,0.629534128581,1.893612699,0.665424054017,-0.225111287277,6778.24086022,-2125.34719235,0.000381364668099,0.207145058512,0.0250507073798,-0.00177556542328,0.0125840295046,-0.000873893300549,-0.546095685202,-0.0424063357413,-0.25855646794,0.0127386859858,0.605698144145
0.204165,1.4273691344,4.84929675438,1.5927514394,-1.548841239,1332,-342,-0.0234358175927,-0.0181094954125,0.0181094954125,-0.206775371438,-0.000495231053175,-0.000495231053175,0.45439453125,-0.15146484375,4.01385902031,1841,1901,2129,2336,2089,1878,1910,2023,1.40791720508,0.423022149132,1.8954454693,0.494577225837,-0.148600443428,5346.46021505,-1372.73978495,0.000399474163512,0.206776557523,0.0347152012011,-0.00170212095925,0.0127242817868,-0.000846823447322,-0.551877538263,-0.0387269353506,-0.258896892227,0.0128655226362,0.610816006311
0.205166,1.438107,4.84622879278,1.5989832364,-1.542609442,1076,-524,-0.0266316109008,-0.00958737992429,0.0170442309765,-0.206417089071,-0.000494372959907,-0.000494372959907,0.61595703125,-0.2221484375,4.04480286738,1841,1901,2129,2336,2089,1878,1910,2023,1.10403718968,0.66907136907,1.89722035096,0.384862374878,-0.233235255541,4352.2078853,-2119.47670251,0.000416518394488,0.2064182731,0.033040374734,-0.00162761107837,0.0128580601159,-0.000821452791047,-0.557394919798,-0.0350156487791,-0.259023476202,0.0129866705685,0.615636543344
0.206167,1.451529332,4.84047636478,1.6052150334,-1.536377645,634,-22,-0.034088461953,-0.0276968753368,0.0213052887206,-0.206073069496,-0.000493549026306,-0.000493549026306,0.67654296875,-0.1817578125,4.04922341697,1841,1901,2129,2336,2089,1878,1910,2023,0.640563671533,0.0278844210141,1.8978894675,0.22305382634,-0.00970977137621,2567.20764636,-89.0829151732,0.000437823683209,0.206074251552,0.0488165491326,-0.00155245640618,0.0129851396265,-0.000797681912313,-0.562636846047,-0.0312905429378,-0.258945319364,0.0131019185025,0.620154816983
0.207168,1.4626506928,4.83203947038,1.6114468304,-1.530145848,873,515,-0.0394147841332,-0.00852211548825,0.0276968753368,-0.205748502497,-0.000492771682005,-0.000492771682005,0.83810546875,-0.2625390625,4.08016726404,1840,1901,2131,2334,2090,1881,1912,2024,0.854357451148,0.67510569205,1.89942046011,0.295243780013,0.233299020405,3561.98602151,2101.28614098,0.000465520558546,0.205749682692,0.0489210441843,-0.00147705838746,0.0131053917724,-0.000775430069677,-0.567596682481,-0.0275688657258,-0.258673936892,0.0132111425237,0.624370276317
0.208169,1.4756895296,4.82628704238,1.6176786274,-1.523914051,537,317,-0.0287621397729,0.0202400242846,0.0436758418773,-0.205449028788,-0.000492054436623,-0.000492054436623,0.686640625,-0.17166015625,4.06248506571,1840,1901,2131,2334,2090,1881,1912,2024,0.544847046963,0.403406508826,1.90036966192,0.189104531781,0.140013604541,2181.55448029,1287.80776583,0.000509196400423,0.205450207265,0.056075827511,-0.00140181038007,0.0132187564924,-0.000754678861433,-0.572271142704,-0.0238672668919,-0.258222261731,0.0133142831475,0.628285479423
0.20917,1.4906458424,4.81976762398,1.6239104244,-1.517682254,176,579,-0.0223705531567,0.0532632218016,0.0415453130052,-0.205177683595,-0.000491404559587,-0.000491404559587,0.8683984375,-0.2221484375,4.08016726404,1840,1901,2131,2334,2090,1881,1912,2024,0.170632213876,0.751942996094,1.9012931597,0.0589660682997,0.259852000146,718.109438471,2362.41684588,0.000550741713428,0.205178860516,0.0711577506525,-0.00132711285212,0.0133252093641,-0.000735531546385,-0.576659146257,-0.0202021100004,-0.257603471172,0.0134113176003,0.631904616671
0.210171,1.5036846792,4.81593267198,1.6301422214,-1.511450457,341,357,0.00213052887206,0.031957933081,0.0553937506736,-0.204930430279,-0.000490812383065,-0.000490812383065,0.8683984375,-0.1413671875,4.08016726404,1840,1901,2131,2334,2090,1881,1912,2024,0.330599914385,0.454927963891,1.90207947311,0.114246757331,0.157211307179,1391.33703704,1456.61971326,0.000606135464102,0.204931605781,0.0639868443805,-0.00125338003289,0.0134247419443,-0.000718238782975,-0.580761085496,-0.0165896032589,-0.256830287369,0.0135022414704,0.635232595097
0.211172,1.5174905064,4.81171422478,1.6363740184,-1.50521866,144,540,0.0266316109008,0.0362189908251,0.0596548084178,-0.20469667373,-0.000490252531565,-0.000490252531565,0.87849609375,-0.15146484375,4.08458781362,1840,1901,2131,2334,2090,1881,1912,2024,0.139512391708,0.691240951524,1.90291105721,0.0481596874114,0.238616424991,588.180645161,2205.67741935,0.00066579027252,0.204697847891,0.0746977520607,-0.0011810362588,0.0135173577914,-0.000703183951382,-0.584578576624,-0.0130457112652,-0.255914840845,0.0135870628163,0.638274790819
0.212173,1.5312963336,4.80787927278,1.6426058154,-1.498986863,49,618,0.031957933081,0.0394147841332,0.06711165947,-0.204465286111,-0.000489698353698,-0.000489698353698,0.686640625,-0.17166015625,4.08458781362,1840,1901,2131,2334,2090,1881,1912,2024,0.050313792482,0.794858360581,1.90375707453,0.0173683246968,0.274385161872,200.144802867,2524.27526882,0.00073290193199,0.204466458945,0.0841356614753,-0.00111050952404,0.0136030733085,-0.000690857313177,-0.588114365782,-0.00958600912796,-0.254868709055,0.013665801062,0.64103701739
0.213174,1.5439516752,4.80519480638,1.6488376124,-1.492755066,117,582,0.0543284862376,0.0127831732324,0.06711165947,-0.204228962578,-0.000489132354221,-0.000489132354221,0.63615234375,-0.13126953125,4.08016726404,1834,1889,2118,2326,2082,1869,1898,2005,0.121633993353,0.739873293248,1.90461944333,0.0420335539033,0.255681023833,477.379569892,2374.65734767,0.00080001359146,0.204230134056,0.0872867044376,-0.00104222259942,0.0136819421123,-0.000681821616607,-0.591373439222,-0.00622539964923,-0.253703905955,0.0137385096946,0.643526978544
0.214175,1.5573740072,4.80327733038,1.6550694094,-1.486523269,-74,585,0.0511326929295,-0.0031957933081,0.0766990393943,-0.203985506074,-0.000488549271138,-0.000488549271138,0.71693359375,-0.01009765625,4.08458781362,1834,1889,2118,2326,2082,1869,1898,2005,0.0753066905359,0.723853640428,1.90541940282,-0.0259958748595,0.24987432749,-302.259498208,2389.48387097,0.000876712630854,0.203986676155,0.0922361535684,-0.000976576015126,0.0137541464891,-0.000676649118396,-0.594367542632,-0.00297741099016,-0.252436576139,0.0138053649132,0.645759913345
0.215176,1.570412844,4.80097635918,1.6613012064,-1.480291472,-110,744,0.0649811305979,0.0276968753368,0.068176923906,-0.203738844041,-0.000487958510753,-0.000487958510753,0.79771484375,0.03029296875,4.07574671446,1834,1889,2118,2326,2082,1869,1898,2005,0.10872743837,0.907556088759,1.90643670263,-0.0376141352352,0.313968009987,-448.33213859,3032.35555556,0.00094488955476,0.203740012708,0.0981720794855,-0.000913927441921,0.0138201208704,-0.000675845946975,-0.597121333236,0.000146699054411,-0.251091981476,0.0138667866496,0.647766231975
0.216177,1.5807672144,4.80020936878,1.6675330034,-1.474059675,187,633,0.0735032460862,-0.00213052887206,0.0905474770627,-0.203496576019,-0.000487378274107,-0.000487378274107,0.55537109375,-0.0201953125,4.04922341697,1834,1889,2118,2326,2082,1869,1898,2005,0.195723963968,0.771674130926,1.90740506812,0.0681540040588,0.268708444203,757.204778973,2563.15842294,0.00103543703182,0.203497743296,0.116645239684,-0.000854580640239,0.0138806059439,-0.000679810056268,-0.599675030357,0.00313837700679,-0.249706698292,0.0139234934967,0.649594817264
0.217178,1.5938060512,4.80097635918,1.6737648004,-1.467827878,-248,503,0.0788295682663,-0.0607200728538,0.0894822126267,-0.203265056884,-0.000486823781259,-0.000486823781259,0.56546875,0.1009765625,4.08016726404,1834,1889,2118,2326,2082,1869,1898,2005,0.263113927804,0.60418065739,1.90827323,-0.0909253504076,0.208789167647,-1011.88148148,2052.32413381,0.00112491924445,0.203266222834,0.13382112859,-0.000798785777825,0.0139366193399,-0.000688829096252,-0.602082851794,0.00599165563395,-0.248327458749,0.0139764767688,0.651311129285
0.218179,1.6037769264,4.80020936878,1.6799965974,-1.461596081,104,792,0.0724379816502,-0.0490021640575,0.0649811305979,-0.203050884673,-0.00048631083463,-0.00048631083463,0.72703125,0.03029296875,4.0890083632,1836,1893,2120,2332,2058,1855,1891,1994,0.105772362054,0.97242897608,1.90935250954,0.0364731536961,0.335319650753,425.256869773,3238.49462366,0.00118990037505,0.203052049394,0.108954213327,-0.000746724665615,0.0139893839108,-0.00070306397053,-0.604409367615,0.00870391846697,-0.247008048662,0.0140269297738,0.652992663022
0.21918,1.614514792,4.80059286398,1.6862283944,-1.455364284,-53,716,0.0575242795457,-0.0490021640575,0.0713727172141,-0.202866397398,-0.000485868984004,-0.000485868984004,0.69673828125,0.1413671875,4.07132616487,1836,1893,2120,2332,2058,1855,1891,1994,0.05387144451,0.847545549613,1.91025482795,-0.0186570011055,0.293525789033,-215.780286738,2915.06953405,0.00126127309226,0.202867561061,0.103943828976,-0.000698443172975,0.0140402060124,-0.000722456515714,-0.606723487415,0.0112796436801,-0.245803516961,0.0140761198898,0.654721306735
0.220181,1.6233351816,4.80327733038,1.6924601914,-1.449132487,165,461,0.0490021640575,-0.0383495196971,0.0745685105222,-0.202728387641,-0.00048553844794,-0.00048553844794,0.59576171875,0.201953125,4.08016726404,1836,1893,2120,2332,2058,1855,1891,1994,0.173546843756,0.539680579277,1.9109687686,0.0599732888044,0.18649961326,673.227598566,1880.95710872,0.00133584160278,0.202729550512,0.0971203403249,-0.000653758295675,0.0140903320002,-0.00074660062172,-0.609091427738,0.0137355824161,-0.244763186093,0.0141252351582,0.656574482321
0.221182,1.631772076,4.80596179678,1.6986919884,-1.44290069,187,507,0.0415453130052,-0.0521979573656,0.0745685105222,-0.202652299205,-0.00048535621465,-0.00048535621465,0.56546875,0.1615625,4.08458781362,1836,1893,2120,2332,2058,1855,1891,1994,0.198861136322,0.601040060072,1.9117694697,0.0686468782186,0.20747907093,763.817921147,2070.88602151,0.00141041011331,0.202653461639,0.100055497337,-0.000612219280604,0.014140864941,-0.000774690418423,-0.611572575572,0.0161029077699,-0.243926786223,0.0141752960805,0.658620221272
0.222183,1.6409759608,4.80864626318,1.7049237854,-1.436668893,49,552,0.031957933081,-0.0735032460862,0.0852211548825,-0.202651044807,-0.000485353210343,-0.000485353210343,0.4644921875,0.25244140625,4.08458781362,1836,1893,2120,2332,2058,1855,1891,1994,0.0536031697925,0.63922760273,1.9124629933,0.0185038179753,0.220661413336,200.144802867,2254.69247312,0.00149563126819,0.202652207234,0.11699009322,-0.000573133830367,0.0141927527303,-0.000805561309925,-0.614218781535,0.0184257141912,-0.243324305501,0.0142271445299,0.66091673922
