%  Data file recorded 2016/9/14  15:7:56
%  Stride Frequency         = [1, 1]
%  Lead In /Lead Out        = 
%  Deltas (Fractional)      = [0.25, 0.25, 0.25],[0.25, 0.25, 0.25]
%  Phase                    = 32768
%  Experiment.py 
%  Motor Gains    = [5000, 400, 200, 0, 300, 5000, 400, 200, 0, 300]
% Columns: 
% time | Right Leg Pos | Left Leg Pos | Commanded Right Leg Pos | Commanded Left Leg Pos | DCR | DCL | GyroX | GyroY | GyroZ | AX | AY | AZ | RBEMF | LBEMF | VBatt | S1 | S2 | S3 | S4 | S5 | S6 | S7 | S8
425,-44608,-16780,-46914,-14146,-3800,3800,-22,6,4,-58,64,3953,11,-6,824,1776,1880,2070,2225,2027,1777,1835,1985
1426,-44600,-16792,-46914,-14146,-3800,3800,-26,9,2,-59,75,3939,-6,-5,824,1776,1880,2070,2225,2027,1777,1835,1985
2427,-44620,-16784,-46914,-14146,-3800,3800,-23,10,2,-55,50,3914,-5,-7,824,1775,1880,2070,2226,2028,1777,1835,1983
3428,-44608,-16784,-46914,-14146,-3800,3800,-22,7,1,-40,60,3927,10,-7,824,1775,1880,2070,2226,2028,1777,1835,1983
4429,-44612,-16796,-46914,-14146,-3800,3800,-23,3,2,-45,51,3908,-6,-5,824,1775,1880,2070,2226,2028,1777,1835,1983
5430,-44600,-16788,-46914,-14146,-3800,3800,-27,4,0,-58,60,3926,-4,-7,824,1775,1880,2070,2226,2028,1777,1835,1983
6431,-44604,-16784,-46914,-14146,-3800,3800,-25,6,4,-65,76,3893,11,-7,824,1775,1880,2070,2226,2028,1777,1835,1983
7432,-44608,-16804,-46914,-14146,-3800,3800,-23,6,4,-75,66,3913,-5,-7,824,1775,1880,2070,2226,2028,1777,1835,1983
8433,-44620,-16788,-46914,-14146,-3800,3800,-25,7,3,-63,62,3929,-3,-3,824,1775,1880,2071,2226,2029,1777,1836,1985
9434,-44628,-16792,-46914,-14146,-3800,3800,-23,9,1,-48,57,3943,10,-4,824,1775,1880,2071,2226,2029,1777,1836,1985
10435,-44620,-16784,-46914,-14146,-3800,3800,-24,8,3,-33,68,3926,-8,-5,824,1775,1880,2071,2226,2029,1777,1836,1985
11436,-44612,-16784,-46914,-14146,-3800,3800,-27,7,4,-26,90,3960,1,0,824,1775,1880,2071,2226,2029,1777,1836,1985
12437,-44612,-16780,-46914,-14146,-3800,3800,-28,7,5,-43,83,3948,10,4,824,1775,1880,2071,2226,2029,1777,1836,1985
13438,-44608,-16788,-46914,-14146,-3800,3800,-24,6,6,-39,63,3956,1,5,824,1774,1880,2069,2225,2027,1775,1831,1986
14439,-44604,-16780,-46914,-14146,-3800,3800,-23,5,6,-28,58,3941,-6,7,824,1774,1880,2069,2225,2027,1775,1831,1986
15440,-44604,-16788,-46914,-14146,-3800,3800,-25,7,3,-27,53,3915,8,5,824,1774,1880,2069,2225,2027,1775,1831,1986
16441,-44616,-16772,-46914,-14146,-3800,3800,-25,7,3,-51,62,3950,-5,5,824,1774,1880,2069,2225,2027,1775,1831,1986
17442,-44604,-16788,-46914,-14146,-3800,3800,-23,7,3,-77,32,3924,-5,8,824,1774,1880,2069,2225,2027,1775,1831,1986
18443,-44612,-16784,-46914,-14146,-3800,3800,-25,10,2,-56,46,3957,9,7,824,1774,1880,2069,2225,2027,1775,1831,1986
19444,-44616,-16764,-46914,-14146,-3800,3800,-25,10,-1,-63,43,3948,-7,7,822,1774,1880,2070,2226,2027,1777,1835,1984
20445,-44620,-16792,-46914,-14146,-3800,3800,-24,8,0,-51,64,3940,2,7,822,1774,1880,2070,2226,2027,1777,1835,1984
21446,-44612,-16780,-46914,-14146,-3800,3800,-26,9,0,-55,67,3943,-8,8,824,1774,1880,2070,2226,2027,1777,1835,1984
22447,-44612,-16780,-46914,-14146,-3800,3800,-26,6,3,-73,63,3927,7,7,824,1774,1880,2070,2226,2027,1777,1835,1984
23448,-44620,-16788,-46914,-14146,-3800,3800,-24,6,3,-73,43,3930,10,-2,824,1774,1880,2070,2226,2027,1777,1835,1984
24449,-44612,-16792,-46914,-14146,-3800,3800,-26,9,2,-70,57,3957,1,-3,824,1774,1880,2071,2225,2027,1775,1833,1983
25450,-44612,-16792,-46914,-14146,-3800,3800,-26,11,3,-71,73,3918,-3,-2,824,1774,1880,2071,2225,2027,1775,1833,1983
26451,-44600,-16780,-46914,-14146,-3800,3800,-25,11,3,-79,38,3918,11,-7,824,1774,1880,2071,2225,2027,1775,1833,1983
27452,-44616,-16784,-46914,-14146,-3800,3800,-26,10,1,-65,42,3941,-2,-6,824,1774,1880,2071,2225,2027,1775,1833,1983
28454,-44620,-16788,-46914,-14146,-3800,3800,-27,9,2,-47,72,3932,-5,-1,824,1774,1880,2071,2225,2027,1775,1833,1983
29454,-44604,-16780,-46914,-14146,-3800,3800,-25,9,4,-47,102,3940,7,7,824,1774,1880,2071,2225,2027,1775,1833,1983
30455,-44600,-16792,-46914,-14146,-3800,3800,-27,8,2,-58,91,3952,10,7,824,1775,1880,2070,2225,2027,1776,1834,1984
31456,-44608,-16780,-46914,-14146,-3800,3800,-26,8,1,-80,65,3974,-5,6,824,1775,1880,2070,2225,2027,1776,1834,1984
32457,-44612,-16776,-46914,-14146,-3800,3800,-25,8,3,-66,71,3956,-6,-6,824,1775,1880,2070,2225,2027,1776,1834,1984
33458,-44612,-16784,-46914,-14146,-3800,3800,-25,9,2,-57,70,3950,9,-7,824,1775,1880,2070,2225,2027,1776,1834,1984
34459,-44612,-16780,-46914,-14146,-3800,3800,-23,8,0,-80,62,3933,3,-7,824,1775,1880,2070,2225,2027,1776,1834,1984
35460,-44616,-16784,-46914,-14146,-3800,3800,-22,8,-2,-68,78,3925,-7,2,824,1771,1879,2071,2228,2028,1778,1836,1984
36461,-44604,-16784,-46914,-14146,-3800,3800,-22,8,-2,-63,86,3909,6,3,823,1771,1879,2071,2228,2028,1778,1836,1984
37462,-44612,-16788,-46914,-14146,-3800,3800,-24,9,0,-52,89,3952,-2,1,822,1771,1879,2071,2228,2028,1778,1836,1984
38463,-44608,-16800,-46914,-14146,-3800,3800,-25,8,2,-45,63,3944,11,7,824,1771,1879,2071,2228,2028,1778,1836,1984
39464,-44608,-16776,-46914,-14146,-3800,3800,-25,6,1,-63,76,3944,-1,4,824,1771,1879,2071,2228,2028,1778,1836,1984
40465,-44612,-16792,-46914,-14146,-3800,3800,-23,6,-1,-74,51,3919,-3,1,824,1771,1879,2071,2228,2028,1778,1836,1984
41466,-44612,-16780,-46914,-14146,-3800,3800,-22,7,1,-74,42,3928,10,-5,824,1773,1879,2070,2225,2027,1777,1835,1984
42467,-44620,-16788,-46914,-14146,-3800,3800,-24,10,5,-63,51,3935,-3,-6,824,1773,1879,2070,2225,2027,1777,1835,1984
43468,-44608,-16780,-46914,-14146,-3800,3800,-24,9,6,-93,67,3918,-3,-7,824,1773,1879,2070,2225,2027,1777,1835,1984
44469,-44612,-16788,-46914,-14146,-3800,3800,-22,6,4,-74,46,3919,10,-2,824,1773,1879,2070,2225,2027,1777,1835,1984
45470,-44604,-16780,-46914,-14146,-3800,3800,-23,4,2,-70,55,3919,9,3,824,1773,1879,2070,2225,2027,1777,1835,1984
46471,-44604,-16788,-46914,-14146,-3800,3800,-25,4,3,-82,57,3939,-5,5,824,1773,1880,2070,2225,2027,1776,1835,1984
47472,-44616,-16776,-46914,-14146,-3800,3800,-26,3,2,-66,44,3910,-7,8,824,1773,1880,2070,2225,2027,1776,1835,1984
48473,-44620,-16784,-46914,-14146,-3800,3800,-22,5,2,-36,43,3932,-3,7,824,1773,1880,2070,2225,2027,1776,1835,1984
49474,-44620,-16792,-46914,-14146,-3800,3800,-20,6,2,-39,42,3898,10,7,824,1773,1880,2070,2225,2027,1776,1835,1984
50475,-44604,-16780,-46914,-14146,-3800,3800,-21,7,4,-57,69,3909,-2,-2,824,1773,1880,2070,2225,2027,1776,1835,1984
51476,-44616,-16792,-46914,-14146,-3800,3800,-23,8,2,-81,51,3923,-8,-2,824,1773,1880,2070,2225,2027,1776,1835,1984
52477,-44608,-16776,-46914,-14146,-3800,3800,-23,5,2,-52,27,3953,11,0,824,1774,1880,2071,2227,2027,1773,1836,1986
53478,-44612,-16792,-46914,-14146,-3800,3800,-25,3,3,-53,50,3906,-1,-3,822,1774,1880,2071,2227,2027,1773,1836,1986
54479,-44604,-16792,-46914,-14146,-3800,3800,-24,6,2,-35,51,3937,10,0,823,1774,1880,2071,2227,2027,1773,1836,1986
55480,-44596,-16776,-46914,-14146,-3800,3800,-21,5,1,-44,77,3946,-7,-3,824,1774,1880,2071,2227,2027,1773,1836,1986
56481,-44604,-16788,-46914,-14146,-3800,3800,-22,3,0,-45,70,3932,3,-7,824,1774,1880,2071,2227,2027,1773,1836,1986
57482,-44600,-16784,-46914,-14146,-3800,3800,-21,5,1,-40,75,3933,10,-6,824,1774,1880,2070,2225,2027,1777,1835,1985
58483,-44604,-16788,-46914,-14146,-3800,3800,-22,6,3,-29,79,3971,-7,-3,824,1774,1880,2070,2225,2027,1777,1835,1985
59484,-44620,-16772,-46914,-14146,-3800,3800,-23,5,5,-50,81,3948,10,5,824,1774,1880,2070,2225,2027,1777,1835,1985
60485,-44612,-16788,-46914,-14146,-3800,3800,-23,4,2,-46,70,3909,0,6,824,1774,1880,2070,2225,2027,1777,1835,1985
61486,-44624,-16784,-46914,-14146,-3800,3800,-23,5,1,-38,62,3928,-4,7,824,1774,1880,2070,2225,2027,1777,1835,1985
62487,-44600,-16788,-46914,-14146,-3800,3800,-24,6,3,-67,58,3903,10,3,824,1774,1880,2070,2225,2027,1777,1835,1985
63488,-44612,-16780,-46914,-14146,-3800,3800,-25,9,4,-62,43,3917,8,0,824,1776,1880,2071,2225,2027,1776,1835,1984
64489,-44612,-16780,-46914,-14146,-3800,3800,-25,10,3,-46,50,3905,-8,-4,824,1776,1880,2071,2225,2027,1776,1835,1984
65490,-44620,-16788,-46914,-14146,-3800,3800,-24,6,4,-58,73,3955,1,-6,824,1776,1880,2071,2225,2027,1776,1835,1984
66491,-44616,-16780,-46914,-14146,-3800,3800,-23,3,4,-40,74,3947,10,1,824,1776,1880,2071,2225,2027,1776,1835,1984
67492,-44604,-16784,-46914,-14146,-3800,3800,-21,3,3,-56,70,3958,-7,2,824,1776,1880,2071,2225,2027,1776,1835,1984
68493,-44596,-16792,-46914,-14146,-3800,3800,-20,6,2,-39,68,3952,9,7,824,1774,1880,2070,2225,2027,1777,1835,1981
69494,-44620,-16788,-46914,-14146,-3800,3800,-21,8,3,-55,61,3936,8,7,822,1774,1880,2070,2225,2027,1777,1835,1981
70495,-44612,-16792,-46914,-14146,-3800,3800,-21,9,4,-66,67,3952,-7,7,822,1774,1880,2070,2225,2027,1777,1835,1981
71496,-44612,-16788,-46914,-14146,-3800,3800,-23,9,6,-64,46,3903,-5,2,824,1774,1880,2070,2225,2027,1777,1835,1981
72497,-44612,-16784,-46914,-14146,-3800,3800,-24,7,5,-48,63,3934,5,-2,824,1774,1880,2070,2225,2027,1777,1835,1981
73498,-44612,-16780,-46914,-14146,-3800,3800,-25,6,2,-44,59,3946,1,-6,824,1774,1880,2070,2225,2027,1777,1835,1981
74499,-44604,-16788,-46914,-14146,-3800,3800,-23,8,1,-50,62,3915,-8,-6,824,1774,1879,2070,2225,2028,1777,1836,1984
75500,-44604,-16784,-46914,-14146,-3800,3800,-24,7,3,-60,81,3942,7,-3,824,1774,1879,2070,2225,2028,1777,1836,1984
76501,-44612,-16792,-46914,-14146,-3800,3800,-23,6,3,-35,70,3959,0,0,824,1774,1879,2070,2225,2028,1777,1836,1984
77502,-44612,-16792,-46914,-14146,-3800,3800,-24,6,4,-51,47,3934,-7,7,824,1774,1879,2070,2225,2028,1777,1836,1984
78503,-44600,-16788,-46914,-14146,-3800,3800,-25,5,3,-48,59,3946,10,7,824,1774,1879,2070,2225,2028,1777,1836,1984
79504,-44608,-16792,-46914,-14146,-3800,3800,-21,6,2,-60,72,3938,-6,6,824,1773,1877,2067,2223,2028,1778,1836,1984
80505,-44612,-16784,-46914,-14146,-3800,3800,-20,7,1,-49,51,3949,-2,-6,824,1773,1877,2067,2223,2028,1778,1836,1984
81506,-44608,-16780,-46914,-14146,-3800,3800,-22,4,3,-34,61,3921,11,-7,824,1773,1877,2067,2223,2028,1778,1836,1984
82507,-44600,-16788,-46914,-14146,-3800,3800,-26,6,1,-34,57,3938,-7,-7,824,1773,1877,2067,2223,2028,1778,1836,1984
83508,-44612,-16788,-46914,-14146,-3800,3800,-26,7,0,-48,55,3938,0,2,824,1773,1877,2067,2223,2028,1778,1836,1984
84509,-44604,-16784,-46914,-14146,-3800,3800,-24,8,2,-61,62,3957,11,4,824,1773,1877,2067,2223,2028,1778,1836,1984
85510,-44612,-16780,-46914,-14146,-3800,3800,-23,7,2,-46,83,3956,-4,6,824,1774,1880,2070,2224,2026,1776,1835,1985
86511,-44604,-16784,-46914,-14146,-3800,3800,-26,6,2,-37,62,3957,-6,7,823,1774,1880,2070,2224,2026,1776,1835,1985
87512,-44604,-16784,-46914,-14146,-3800,3800,-23,4,1,-18,65,3923,10,8,822,1774,1880,2070,2224,2026,1776,1835,1985
88513,-44612,-16796,-46914,-14146,-3800,3800,-22,6,0,-34,56,3907,6,6,824,1774,1880,2070,2224,2026,1776,1835,1985
89514,-44604,-16792,-46914,-14146,-3800,3800,-22,7,0,-73,55,3934,-4,7,824,1774,1880,2070,2224,2026,1776,1835,1985
90515,-44612,-16780,-46914,-14146,-3800,3800,-25,3,3,-60,67,3942,-4,8,824,1776,1882,2072,2226,2027,1777,1837,1985
91516,-44616,-16788,-46914,-14146,-3800,3800,-27,4,4,-61,62,3977,8,7,824,1776,1882,2072,2226,2027,1777,1837,1985
92517,-44612,-16788,-46914,-14146,-3800,3800,-27,6,4,-75,62,3971,-7,7,824,1776,1882,2072,2226,2027,1777,1837,1985
93518,-44612,-16788,-46914,-14146,-3800,3800,-25,8,3,-64,48,3935,-1,7,824,1776,1882,2072,2226,2027,1777,1837,1985
94519,-44612,-16788,-46914,-14146,-3800,3800,-25,7,2,-55,77,3940,8,7,824,1776,1882,2072,2226,2027,1777,1837,1985
95520,-44616,-16788,-46914,-14146,-3800,3800,-25,9,2,-54,75,3963,-7,1,824,1775,1879,2071,2226,2027,1777,1837,1985
96521,-44620,-16784,-46914,-14146,-3800,3800,-25,9,2,-54,90,3954,7,-4,824,1775,1879,2071,2226,2027,1777,1836,1984
97522,-44612,-16776,-46914,-14146,-3800,3800,-24,6,1,-44,114,3937,-6,-7,824,1775,1879,2071,2226,2027,1777,1836,1984
98523,-44616,-16784,-46914,-14146,-3800,3800,-25,7,3,-40,62,3961,3,0,823,1775,1879,2071,2226,2027,1777,1836,1984
99524,-44616,-16776,-46914,-14146,-3800,3800,-26,9,4,-53,65,3986,7,7,824,1775,1879,2071,2226,2027,1777,1836,1984
100525,-44604,-16780,-46914,-14146,-3800,3800,-25,8,4,-70,58,3948,-3,6,824,1775,1879,2071,2226,2027,1777,1836,1984
101526,-44612,-16792,-46914,-14146,-3800,3800,-27,8,1,-52,56,3926,10,-6,823,1774,1880,2070,2226,2027,1777,1836,1985
102527,-44600,-16776,-46914,-14146,-3800,3800,-25,7,0,-78,54,3915,-3,-7,823,1774,1880,2070,2226,2027,1777,1836,1985
103528,-44612,-16792,-46914,-14146,-3800,3800,-25,8,-2,-78,51,3920,0,-7,823,1774,1880,2070,2226,2027,1777,1836,1985
104529,-44616,-16788,-46914,-14146,-3800,3800,-26,10,0,-48,38,3951,7,-2,822,1774,1880,2070,2226,2027,1777,1836,1985
105530,-44616,-16780,-46914,-14146,-3800,3800,-27,10,1,-54,57,3933,8,-7,824,1774,1880,2070,2226,2027,1777,1836,1985
106531,-44620,-16784,-46914,-14146,-3800,3800,-25,10,0,-50,39,3908,-7,-4,824,1773,1879,2067,2223,2027,1778,1838,1986
107532,-44612,-16784,-46914,-14146,-3800,3800,-25,10,-1,-62,65,3939,-7,5,824,1773,1879,2067,2223,2027,1778,1838,1986
108533,-44612,-16788,-46914,-14146,-3800,3800,-28,12,-1,-62,52,3930,5,7,824,1773,1879,2067,2223,2027,1778,1838,1986
109534,-44608,-16784,-46914,-14146,-3800,3800,-25,10,0,-65,57,3939,2,7,824,1773,1879,2067,2223,2027,1778,1838,1986
110535,-44612,-16784,-46914,-14146,-3800,3800,-25,10,0,-56,51,3936,-7,0,824,1773,1879,2067,2223,2027,1778,1838,1986
111536,-44612,-16776,-46914,-14146,-3800,3800,-26,10,-1,-54,51,3954,4,-2,824,1773,1879,2067,2223,2027,1778,1838,1986
112537,-44608,-16788,-46914,-14146,-3800,3800,-28,8,1,-46,43,3966,7,-6,824,1773,1880,2070,2224,2026,1776,1835,1983
113538,-44608,-16788,-46914,-14146,-3800,3800,-28,3,3,-70,54,3933,-6,-2,824,1773,1880,2070,2224,2026,1776,1835,1983
114539,-44612,-16792,-46914,-14146,-3800,3800,-27,2,2,-75,65,3933,-6,3,824,1773,1880,2070,2224,2026,1776,1835,1983
115540,-44612,-16784,-46914,-14146,-3800,3800,-27,5,1,-76,65,3953,11,7,824,1773,1880,2070,2224,2026,1776,1835,1983
116541,-44612,-16784,-46914,-14146,-3800,3800,-25,8,3,-63,54,3942,4,-1,823,1773,1880,2070,2224,2026,1776,1835,1983
117542,-44612,-16784,-46914,-14146,-3800,3800,-24,8,3,-58,50,3964,-7,-7,824,1773,1880,2069,2224,2026,1776,1835,1984
118543,-44608,-16792,-46914,-14146,-3800,3800,-23,6,3,-65,41,3939,3,-6,824,1773,1880,2069,2224,2026,1776,1835,1984
119544,-44620,-16796,-46914,-14146,-3800,3800,-25,7,2,-66,54,3937,11,8,823,1773,1880,2069,2224,2026,1776,1835,1984
120545,-44604,-16792,-46914,-14146,-3800,3800,-27,7,2,-55,67,3938,3,3,822,1773,1880,2069,2224,2026,1776,1835,1984
121546,-44624,-16784,-46914,-14146,-3800,3800,-25,6,1,-66,48,3950,-2,-2,822,1773,1880,2069,2224,2026,1776,1835,1984
122547,-44612,-16788,-46914,-14146,-3800,3800,-24,6,0,-50,54,3946,-8,-6,823,1773,1880,2069,2224,2026,1776,1835,1984
123548,-44612,-16784,-46914,-14146,-3800,3800,-21,6,0,-51,50,3954,8,-7,824,1773,1879,2070,2226,2027,1777,1835,1981
124549,-44612,-16788,-46914,-14146,-3800,3800,-21,5,4,-54,87,3943,2,-7,823,1773,1879,2070,2226,2027,1777,1835,1981
125550,-44604,-16788,-46914,-14146,-3800,3800,-22,4,4,-52,62,3946,-8,2,823,1773,1879,2070,2226,2027,1777,1835,1981
126551,-44612,-16788,-46914,-14146,-3800,3800,-20,4,4,-42,52,3957,7,6,823,1773,1879,2070,2226,2027,1777,1835,1981
127552,-44616,-16784,-46914,-14146,-3800,3800,-22,5,4,-40,70,3960,2,8,824,1773,1879,2070,2226,2027,1777,1835,1981
128553,-44608,-16792,-46914,-14146,-3800,3800,-22,5,4,-63,70,3932,-7,-1,823,1775,1880,2071,2226,2027,1776,1836,1984
129554,-44620,-16776,-46914,-14146,-3800,3800,-19,5,4,-50,54,3941,0,-6,824,1775,1880,2071,2226,2027,1776,1836,1984
130555,-44604,-16784,-46914,-14146,-3800,3800,-18,6,4,-45,58,3930,10,-6,824,1775,1880,2071,2226,2027,1776,1836,1984
131556,-44616,-16776,-46914,-14146,-3800,3800,-19,5,3,-52,30,3918,-5,-3,823,1775,1880,2071,2226,2027,1776,1836,1984
132557,-44604,-16772,-46914,-14146,-3800,3800,-21,6,2,-30,37,3943,-6,-3,823,1775,1880,2071,2226,2027,1776,1836,1984
133558,-44612,-16788,-46914,-14146,-3800,3800,-21,6,3,-23,84,3954,11,2,823,1775,1880,2071,2226,2027,1776,1836,1984
134559,-44608,-16780,-46914,-14146,-3800,3800,-18,8,2,-52,67,3939,0,8,824,1775,1879,2071,2228,2028,1780,1838,1986
135560,-44612,-16784,-46914,-14146,-3800,3800,-20,5,3,-74,62,3924,-8,7,823,1775,1879,2071,2228,2028,1780,1838,1986
136561,-44608,-16780,-46914,-14146,-3800,3800,-22,4,3,-75,72,3932,11,3,823,1775,1879,2071,2228,2028,1780,1838,1986
137562,-44628,-16796,-46914,-14146,-3800,3800,-22,4,2,-74,37,3957,0,-7,823,1775,1879,2071,2228,2028,1780,1838,1986
138563,-44604,-16788,-46914,-14146,-3800,3800,-21,6,4,-54,43,3934,-7,-7,822,1775,1879,2071,2228,2028,1780,1838,1986
139564,-44620,-16784,-46914,-14146,-3800,3800,-22,7,3,-54,66,3933,-7,-7,823,1774,1880,2070,2224,2027,1776,1837,1985
140565,-44604,-16780,-46914,-14146,-3800,3800,-21,8,4,-33,75,3924,11,1,823,1774,1880,2070,2224,2027,1776,1837,1985
141566,-44616,-16772,-46914,-14146,-3800,3800,-21,8,4,-55,54,3910,0,5,823,1774,1880,2070,2224,2027,1776,1837,1985
142567,-44608,-16784,-46914,-14146,-3800,3800,-21,10,1,-53,68,3960,-7,7,824,1774,1880,2070,2224,2027,1776,1837,1985
143568,-44612,-16788,-46914,-14146,-3800,3800,-21,9,0,-55,60,3982,3,4,824,1774,1880,2070,2224,2027,1776,1837,1985
144569,-44612,-16780,-46914,-14146,-3800,3800,-21,9,3,-49,76,3945,11,1,823,1774,1880,2070,2224,2027,1776,1837,1985
145570,-44600,-16780,-46914,-14146,-3800,3800,-21,8,3,-57,73,3931,-5,-2,823,1775,1880,2072,2226,2026,1776,1836,1984
146571,-44612,-16788,-46914,-14146,-3800,3800,-20,9,2,-60,83,3934,-6,-6,823,1775,1880,2072,2226,2026,1776,1836,1984
147572,-44612,-16796,-46914,-14146,-3800,3800,-23,8,2,-30,72,3919,10,-7,823,1775,1880,2072,2226,2026,1776,1836,1984
148573,-44612,-16792,-46914,-14146,-3800,3800,-21,8,3,-43,63,3938,-7,-7,823,1775,1880,2072,2226,2026,1776,1836,1984
149574,-44604,-16784,-46914,-14146,-3800,3800,-20,7,3,-69,43,3946,-3,4,823,1775,1880,2072,2226,2026,1776,1836,1984
150575,-44616,-16784,-46914,-14146,-3800,3800,-21,5,1,-50,45,3920,11,5,823,1773,1879,2070,2225,2028,1777,1837,1985
151576,-44608,-16784,-46914,-14146,-3800,3800,-21,6,2,-39,60,3905,-5,7,823,1773,1879,2070,2225,2028,1777,1837,1985
152577,-44612,-16784,-46914,-14146,-3800,3800,-23,6,2,-63,70,3913,-2,6,823,1773,1879,2070,2225,2028,1777,1837,1985
153578,-44612,-16796,-46914,-14146,-3800,3800,-26,6,0,-50,55,3923,10,2,823,1773,1879,2070,2225,2028,1777,1837,1985
154579,-44608,-16788,-46914,-14146,-3800,3800,-27,6,1,-63,66,3949,-8,-5,823,1773,1879,2070,2225,2028,1777,1837,1985
155582,-44612,-16788,-46914,-14146,-3800,3800,-27,5,3,-65,84,3927,0,-7,822,1773,1879,2070,2225,2028,1777,1837,1985
156581,-44600,-16772,-46914,-14146,-3800,3800,-27,6,0,-64,100,3940,-8,-7,823,1772,1878,2068,2223,2027,1777,1837,1985
157582,-44604,-16772,-46914,-14146,-3800,3800,-23,7,0,-40,67,3935,7,-1,823,1772,1878,2068,2223,2027,1777,1837,1985
158583,-44612,-16792,-46914,-14146,-3800,3800,-24,6,0,-59,66,3909,-5,7,823,1772,1878,2068,2223,2027,1777,1837,1985
159584,-44612,-16788,-46914,-14146,-3800,3800,-26,4,3,-58,72,3936,-5,6,823,1772,1878,2068,2223,2027,1777,1837,1985
160585,-44612,-16784,-46914,-14146,-3800,3800,-25,7,4,-56,79,3930,9,-3,823,1772,1878,2068,2223,2027,1777,1837,1985
161586,-44608,-16792,-46914,-14146,-3800,3800,-25,10,2,-44,54,3969,-5,-4,823,1773,1879,2069,2224,2027,1777,1835,1983
162587,-44620,-16780,-46914,-14146,-3800,3800,-24,11,1,-65,65,3970,1,7,823,1773,1879,2069,2224,2027,1777,1835,1983
163588,-44616,-16784,-46914,-14146,-3800,3800,-24,8,0,-73,63,3903,3,5,823,1773,1879,2069,2224,2027,1777,1835,1983
164589,-44600,-16784,-46914,-14146,-3800,3800,-26,5,0,-55,74,3918,-8,-6,823,1773,1879,2069,2224,2027,1777,1835,1983
165590,-44612,-16792,-46914,-14146,-3800,3800,-29,4,0,-60,65,3900,3,-6,824,1773,1879,2069,2224,2027,1777,1835,1983
166591,-44616,-16792,-46914,-14146,-3800,3800,-27,7,2,-58,36,3895,5,0,823,1773,1879,2069,2224,2027,1777,1835,1983
167592,-44608,-16788,-46914,-14146,-3800,3800,-25,7,2,-63,55,3930,-5,8,823,1773,1880,2071,2226,2027,1777,1836,1984
168593,-44616,-16788,-46914,-14146,-3800,3800,-25,7,3,-76,65,3939,-8,6,823,1773,1880,2071,2226,2027,1777,1836,1984
169594,-44608,-16792,-46914,-14146,-3800,3800,-25,5,2,-80,45,3954,10,0,824,1773,1880,2071,2226,2027,1777,1836,1984
170595,-44612,-16780,-46914,-14146,-3800,3800,-23,6,4,-80,66,3957,0,-6,824,1773,1880,2071,2226,2027,1777,1836,1984
171596,-44616,-16776,-46914,-14146,-3800,3800,-25,5,3,-29,57,3940,-7,1,823,1773,1880,2071,2226,2027,1777,1836,1984
172597,-44608,-16776,-46914,-14146,-3800,3800,-24,3,2,-45,55,3920,10,3,822,1775,1882,2072,2228,2028,1776,1837,1985
173598,-44616,-16780,-46914,-14146,-3800,3800,-25,5,2,-49,67,3938,9,6,823,1775,1882,2072,2228,2028,1776,1837,1985
174599,-44616,-16784,-46914,-14146,-3800,3800,-23,8,6,-21,60,3934,-6,7,823,1775,1882,2072,2228,2028,1776,1837,1985
175600,-44612,-16780,-46914,-14146,-3800,3800,-23,6,6,-32,59,3933,9,7,823,1775,1882,2072,2228,2028,1776,1837,1985
176601,-44612,-16776,-46914,-14146,-3800,3800,-26,5,3,-22,66,3928,6,-2,824,1775,1882,2072,2228,2028,1776,1837,1985
177602,-44612,-16792,-46914,-14146,-3800,3800,-25,7,3,-41,63,3973,-7,-6,824,1775,1882,2072,2228,2028,1776,1837,1985
178603,-44612,-16792,-46914,-14146,-3800,3800,-24,9,2,-42,61,3953,7,-7,823,1774,1879,2070,2226,2027,1777,1836,1983
179604,-44616,-16788,-46914,-14146,-3800,3800,-23,7,4,-34,65,3941,6,1,823,1774,1879,2070,2226,2027,1777,1836,1983
180605,-44604,-16784,-46914,-14146,-3800,3800,-23,8,6,-56,51,3930,-8,3,823,1774,1879,2070,2226,2027,1777,1836,1983
181606,-44600,-16792,-46914,-14146,-3800,3800,-26,7,3,-50,51,3956,11,7,824,1774,1879,2070,2226,2027,1777,1836,1983
182607,-44612,-16784,-46914,-14146,-3800,3800,-25,5,0,-52,46,3937,-4,4,824,1774,1879,2070,2226,2027,1777,1836,1983
183608,-44620,-16788,-46914,-14146,-3800,3800,-24,7,-1,-58,61,3922,-1,-1,823,1774,1881,2071,2226,2027,1777,1837,1984
184609,-44608,-16792,-46914,-14146,-3800,3800,-25,7,3,-37,62,3919,11,-6,824,1774,1881,2071,2226,2027,1777,1837,1984
185610,-44616,-16788,-46914,-14146,-3800,3800,-25,8,3,-53,57,3957,6,-3,823,1774,1881,2071,2226,2027,1777,1837,1984
186611,-44612,-16788,-46914,-14146,-3800,3800,-24,8,2,-71,52,3952,-5,3,824,1774,1881,2071,2226,2027,1777,1837,1984
187612,-44608,-16788,-46914,-14146,-3800,3800,-23,9,2,-76,60,3957,-3,8,824,1774,1881,2071,2226,2027,1777,1837,1984
188613,-44620,-16776,-46914,-14146,-3800,3800,-22,6,0,-67,64,3961,8,-5,823,1774,1881,2071,2226,2027,1777,1837,1984
189614,-44612,-16788,-46914,-14146,-3800,3800,-24,8,0,-46,56,3983,10,-6,822,1774,1881,2067,2223,2028,1778,1839,1986
190615,-44612,-16788,-46914,-14146,-3800,3800,-24,9,1,-52,55,3937,8,-6,823,1774,1881,2067,2223,2028,1778,1839,1986
191616,-44604,-16788,-46914,-14146,-3800,3800,-25,9,2,-56,58,3926,2,7,824,1774,1881,2067,2223,2028,1778,1839,1986
192617,-44624,-16784,-46914,-14146,-3800,3800,-23,10,2,-63,70,3968,-8,6,824,1774,1881,2067,2223,2028,1778,1839,1986
193618,-44608,-16776,-46914,-14146,-3800,3800,-22,9,2,-76,75,3964,10,-3,824,1774,1881,2067,2223,2028,1778,1839,1986
194619,-44600,-16768,-46914,-14146,-3800,3800,-24,10,3,-73,34,3952,4,-3,824,1773,1879,2069,2225,2026,1775,1837,1983
195620,-44616,-16788,-46914,-14146,-3800,3800,-25,9,2,-74,32,3945,-8,5,824,1773,1879,2069,2225,2026,1775,1837,1983
196621,-44600,-16780,-46914,-14146,-3800,3800,-26,7,3,-50,60,3914,8,7,823,1773,1879,2069,2225,2026,1775,1837,1983
197622,-44600,-16784,-46914,-14146,-3800,3800,-25,6,3,-59,53,3896,9,-5,824,1773,1879,2069,2225,2026,1775,1837,1983
198623,-44604,-16772,-46914,-14146,-3800,3800,-23,6,0,-67,57,3939,-1,-7,824,1773,1879,2069,2225,2026,1775,1837,1983
199624,-44612,-16792,-46914,-14146,-3800,3800,-25,6,1,-54,57,3967,-7,-2,824,1773,1879,2069,2225,2026,1775,1837,1983
200625,-44616,-16776,-46914,-14146,-3800,3800,-26,6,3,-47,52,3949,0,8,823,1773,1880,2072,2225,2027,1776,1837,1984
201626,-44608,-16792,-46914,-14146,-3800,3800,-25,6,1,-48,43,3938,10,8,824,1773,1880,2072,2225,2027,1776,1837,1984
202627,-44604,-16792,-46914,-14146,-3800,3800,-24,7,0,-51,31,3948,2,7,824,1773,1880,2072,2225,2027,1776,1837,1984
203630,-44616,-16792,-46914,-14146,-3800,3800,-23,8,2,-27,39,3937,-7,-3,823,1773,1880,2072,2225,2027,1776,1837,1984
204629,-44620,-16784,-46914,-14146,-3800,3800,-25,6,0,-41,47,3935,-7,-6,824,1773,1880,2072,2225,2027,1776,1837,1984
205630,-44612,-16784,-46849,-14081,-2406,3724,-24,6,1,-28,72,3962,5,-7,825,1773,1879,2070,2225,2027,1776,1838,1985
206631,-44612,-16792,-46784,-14016,-2228,3800,-23,0,1,-51,65,3947,10,-4,758,1773,1879,2070,2225,2027,1776,1838,1985
207632,-44616,-16784,-46719,-13951,-2095,3785,-18,-3,3,-46,76,3877,16,84,766,1773,1879,2070,2225,2027,1776,1838,1985
208633,-44616,-16700,-46654,-13886,-2066,2813,-28,-5,4,-106,46,3967,27,295,774,1773,1879,2070,2225,2027,1776,1838,1985
209634,-44616,-16536,-46589,-13821,-1988,1693,-36,-34,-2,-303,40,4053,11,264,793,1773,1879,2070,2225,2027,1776,1838,1985
210635,-44612,-16380,-46524,-13756,-1964,1683,-36,-85,4,-683,96,4334,2,55,809,1773,1879,2070,2225,2027,1776,1838,1985
211636,-44616,-16212,-46459,-13691,-1780,1408,-22,-118,-6,-188,107,4296,1,97,807,1759,1859,2059,2204,2022,1745,1839,1988
212637,-44608,-16024,-46394,-13626,-1862,1009,-25,-168,-22,96,13,4159,17,96,812,1759,1859,2059,2204,2022,1745,1839,1988
213638,-44608,-15836,-46329,-13561,-1683,860,-27,-153,-36,208,13,4397,10,104,817,1759,1859,2059,2204,2022,1745,1839,1988
214639,-44612,-15636,-46264,-13496,-1549,545,-47,-113,-29,277,33,3959,16,111,818,1759,1859,2059,2204,2022,1745,1839,1988
215640,-44608,-15448,-46199,-13431,-1576,546,-59,-11,-52,456,-91,3994,0,100,818,1759,1859,2059,2204,2022,1745,1839,1988
216641,-44592,-15280,-46134,-13366,-1667,671,-74,32,-89,171,-133,3455,4,111,820,1782,1893,2051,2236,2043,1790,1857,2009
217642,-44612,-15064,-46069,-13301,-1113,-112,-91,47,-125,-440,-10,3998,19,113,820,1782,1893,2051,2236,2043,1790,1857,2009
218643,-44612,-14868,-46004,-13236,-1285,-22,-114,-7,-132,-723,-11,3939,7,114,822,1782,1893,2051,2236,2043,1790,1857,2009
219644,-44612,-14676,-45939,-13171,-1205,-126,-143,-80,-141,-693,-94,4369,7,95,822,1782,1893,2051,2236,2043,1790,1857,2009
220645,-44604,-14512,-45874,-13106,-1237,104,-150,-183,-127,-607,-125,4005,8,94,823,1782,1893,2051,2236,2043,1790,1857,2009
221646,-44604,-14320,-45809,-13041,-1057,-401,-154,-286,-126,-304,-85,3955,8,90,823,1782,1893,2051,2236,2043,1790,1857,2009
222647,-44616,-14132,-45744,-12976,-814,-500,-158,-347,-136,-504,19,4083,-1,91,820,1778,1888,2076,2227,2056,1802,1863,2016
223648,-44596,-13968,-45679,-12911,-1160,-321,-174,-400,-151,-587,-53,4187,0,96,818,1778,1888,2076,2227,2056,1802,1863,2016
224649,-44620,-13832,-45614,-12846,-502,-57,-181,-318,-156,-191,-143,4487,-1,77,822,1778,1888,2076,2227,2056,1802,1863,2016
225650,-44612,-13680,-45549,-12781,-832,-363,-178,-253,-165,477,-185,4196,14,83,823,1778,1888,2076,2227,2056,1802,1863,2016
226651,-44612,-13516,-45484,-12716,-653,-634,-165,-191,-189,140,-285,4444,6,70,821,1778,1888,2076,2227,2056,1802,1863,2016
227652,-44612,-13376,-45419,-12651,-575,-424,-145,-164,-208,-205,-131,4336,3,71,818,1760,1875,2062,2204,2058,1803,1867,2025
228653,-44616,-13260,-45354,-12586,-440,-187,-136,-190,-226,-251,-31,4475,-3,67,821,1760,1875,2062,2204,2058,1803,1867,2025
229654,-44620,-13148,-45289,-12521,-356,-194,-129,-230,-235,-63,-8,4173,4,66,823,1760,1875,2062,2204,2058,1803,1867,2025
230655,-44612,-13036,-45224,-12456,-437,-251,-139,-270,-247,-186,-22,4324,14,51,822,1760,1875,2062,2204,2058,1803,1867,2025
231656,-44612,-12900,-45159,-12391,-258,-637,-160,-318,-256,-471,43,4039,13,45,822,1760,1875,2062,2204,2058,1803,1867,2025
232657,-44636,-12804,-45094,-12326,150,-175,-185,-338,-268,-431,28,4025,9,43,819,1760,1875,2062,2204,2058,1803,1867,2025
233658,-44612,-12724,-45029,-12261,-400,7,-213,-329,-285,-248,-46,3783,2,44,823,1765,1879,2067,2228,2043,1791,1823,2006
234659,-44612,-12648,-44964,-12196,-20,43,-235,-313,-294,-213,-137,3772,6,35,823,1765,1879,2067,2228,2043,1791,1823,2006
235660,-44608,-12576,-44899,-12131,4,85,-249,-309,-303,-348,-121,3782,-5,49,824,1765,1879,2067,2228,2043,1791,1823,2006
236661,-44612,-12512,-44834,-12066,188,186,-254,-330,-306,-398,-68,3770,1,41,823,1765,1879,2067,2228,2043,1791,1823,2006
237662,-44608,-12424,-44769,-12001,162,-141,-249,-336,-315,-339,-92,3999,5,31,822,1765,1879,2067,2228,2043,1791,1823,2006
238663,-44612,-12372,-44704,-11936,346,325,-235,-338,-320,-230,-89,4019,14,44,822,1787,1893,2082,2240,2031,1779,1840,1983
239664,-44616,-12328,-44639,-11871,430,450,-218,-325,-315,-114,-141,4069,12,28,820,1787,1893,2082,2240,2031,1779,1840,1983
240665,-44592,-12256,-44574,-11806,130,92,-201,-310,-306,-89,-160,4027,5,25,817,1787,1893,2082,2240,2031,1779,1840,1983
241666,-44604,-12216,-44509,-11741,674,522,-183,-275,-298,-86,-156,3967,9,32,823,1787,1893,2082,2240,2031,1779,1840,1983
242667,-44596,-12156,-44444,-11676,494,278,-166,-236,-295,-179,-141,3908,2,34,816,1787,1893,2082,2240,2031,1779,1840,1983
243668,-44588,-12104,-44379,-11611,564,395,-153,-185,-292,-106,-116,3723,18,27,819,1787,1893,2082,2240,2031,1779,1840,1983
244669,-44568,-12056,-44314,-11546,469,466,-148,-147,-288,-34,-112,3718,15,35,818,1778,1879,2067,2227,1999,1753,1815,1951
245670,-44552,-12012,-44249,-11481,579,542,-142,-121,-287,-54,-42,3662,8,36,818,1778,1879,2067,2227,1999,1753,1815,1951
246671,-44540,-11960,-44184,-11416,694,458,-139,-119,-282,-122,-46,3584,9,35,817,1778,1879,2067,2227,1999,1753,1815,1951
247672,-44500,-11932,-44119,-11351,375,803,-137,-136,-264,-269,-39,3608,16,22,816,1778,1879,2067,2227,1999,1753,1815,1951
248673,-44484,-11880,-44054,-11286,734,520,-132,-163,-247,-344,59,3644,29,29,816,1778,1879,2067,2227,1999,1753,1815,1951
249674,-44460,-11844,-43989,-11221,684,755,-126,-181,-241,-295,204,3642,24,33,815,1775,1870,2060,2208,1956,1719,1775,1920
250675,-44416,-11780,-43924,-11156,460,406,-120,-180,-225,-213,75,3692,29,29,814,1775,1870,2060,2208,1956,1719,1775,1920
251676,-44388,-11728,-43859,-11091,705,572,-110,-152,-211,21,17,3636,35,27,818,1775,1870,2060,2208,1956,1719,1775,1920
252677,-44344,-11696,-43794,-11026,532,863,-91,-114,-200,144,87,3669,20,36,815,1775,1870,2060,2208,1956,1719,1775,1920
253678,-44304,-11644,-43729,-10961,612,629,-65,-87,-184,199,-4,3597,28,30,814,1775,1870,2060,2208,1956,1719,1775,1920
254679,-44256,-11600,-43664,-10896,533,755,-37,-61,-167,112,-55,3744,41,26,815,1775,1870,2060,2208,1956,1719,1775,1920
255680,-44212,-11544,-43599,-10831,609,616,-8,-28,-152,153,-39,3693,31,26,815,1771,1863,2055,2221,1983,1739,1807,1939
256681,-44152,-11500,-43534,-10766,416,792,20,9,-136,189,-18,3684,37,34,815,1771,1863,2055,2221,1983,1739,1807,1939
257682,-44112,-11436,-43469,-10701,696,544,44,28,-114,106,-102,3600,48,34,814,1771,1863,2055,2221,1983,1739,1807,1939
258683,-44052,-11384,-43404,-10636,453,710,68,37,-95,99,-55,3658,40,35,816,1771,1863,2055,2221,1983,1739,1807,1939
259684,-43996,-11344,-43339,-10571,514,890,87,16,-76,-49,3,3540,50,32,816,1771,1863,2055,2221,1983,1739,1807,1939
260685,-43956,-11272,-43274,-10506,744,483,102,-11,-60,-132,-7,3627,45,34,814,1771,1870,2058,2223,1990,1742,1811,1950
261686,-43888,-11208,-43209,-10441,391,584,112,-25,-40,-70,32,3718,43,44,815,1771,1870,2058,2223,1990,1742,1811,1950
262687,-43820,-11152,-43144,-10376,388,695,113,-43,-19,3,-23,3648,53,34,817,1771,1870,2058,2223,1990,1742,1811,1950
263688,-43768,-11104,-43079,-10311,604,817,117,-62,-1,-80,-94,3580,39,29,816,1771,1870,2058,2223,1990,1742,1811,1950
264689,-43684,-11056,-43014,-10246,181,837,112,-80,11,-96,-30,3752,37,30,814,1771,1870,2058,2223,1990,1742,1811,1950
265690,-43640,-10988,-42949,-10181,707,584,119,-87,28,-37,-59,3772,53,42,816,1771,1870,2058,2223,1990,1742,1811,1950
266691,-43560,-10928,-42884,-10116,239,690,126,-106,37,56,5,3834,34,44,815,1786,1891,2076,2236,2002,1751,1821,1967
267692,-43504,-10860,-42819,-10051,550,587,128,-119,49,85,17,3983,51,31,817,1786,1891,2076,2236,2002,1751,1821,1967
268693,-43424,-10808,-42754,-9986,232,803,132,-126,65,124,-101,3901,38,43,816,1786,1891,2076,2236,2002,1751,1821,1967
269694,-43372,-10752,-42689,-9921,598,764,135,-116,72,218,-49,4207,46,30,817,1786,1891,2076,2236,2002,1751,1821,1967
270695,-43296,-10676,-42624,-9856,285,501,142,-106,94,224,-95,4036,47,28,814,1786,1891,2076,2236,2002,1751,1821,1967
271696,-43240,-10632,-42559,-9791,546,927,146,-110,115,185,-57,4035,51,42,819,1787,1894,2077,2229,2025,1770,1843,1999
272697,-43172,-10572,-42494,-9726,393,733,156,-101,119,164,-51,4219,49,36,814,1787,1894,2077,2229,2025,1770,1843,1999
273698,-43112,-10508,-42429,-9661,499,685,162,-100,123,74,-104,4087,38,42,816,1787,1894,2077,2229,2025,1770,1843,1999
274699,-43048,-10448,-42364,-9596,450,742,171,-119,132,104,-96,4133,37,42,815,1787,1894,2077,2229,2025,1770,1843,1999
275700,-42980,-10400,-42299,-9531,397,912,183,-141,143,-14,-3,4158,43,32,816,1787,1894,2077,2229,2025,1770,1843,1999
276701,-42928,-10332,-42234,-9466,614,660,180,-182,152,-148,-58,4094,44,42,815,1787,1894,2077,2229,2025,1770,1843,1999
277702,-42868,-10276,-42169,-9401,520,821,177,-222,151,-124,-33,4142,36,42,815,1781,1889,2075,2230,2058,1798,1864,2016
278703,-42796,-10224,-42104,-9336,361,886,168,-265,162,-153,73,4100,44,40,815,1781,1889,2075,2230,2058,1798,1864,2016
279704,-42740,-10168,-42039,-9271,572,848,172,-304,177,-179,31,4137,53,42,815,1781,1889,2075,2230,2058,1798,1864,2016
280705,-42692,-10120,-41974,-9206,694,969,169,-315,172,-103,111,4320,54,30,814,1781,1889,2075,2230,2058,1798,1864,2016
281706,-42612,-10060,-41909,-9141,276,825,171,-312,167,2,130,4317,45,39,812,1781,1889,2075,2230,2058,1798,1864,2016
282707,-42540,-9984,-41844,-9076,367,613,165,-307,185,-54,-68,4196,52,31,816,1778,1888,2081,2237,2067,1805,1866,2017
283708,-42484,-9928,-41779,-9011,578,874,159,-293,201,-47,-62,4257,40,42,817,1778,1888,2081,2237,2067,1805,1866,2017
284709,-42424,-9876,-41714,-8946,535,940,152,-260,203,-19,29,4338,46,27,813,1778,1888,2081,2237,2067,1805,1866,2017
285710,-42372,-9808,-41649,-8881,651,737,148,-224,206,-64,-21,4415,37,41,813,1778,1888,2081,2237,2067,1805,1866,2017
286711,-42300,-9760,-41584,-8816,393,1008,145,-218,212,56,-54,4265,41,30,814,1778,1888,2081,2237,2067,1805,1866,2017
287712,-42244,-9684,-41519,-8751,605,644,138,-212,210,-63,-30,4412,55,34,813,1778,1888,2081,2237,2067,1805,1866,2017
288713,-42184,-9616,-41454,-8686,561,742,133,-198,208,-109,-26,4311,49,36,815,1786,1895,2068,2224,2036,1784,1852,2004
289714,-42112,-9580,-41389,-8621,402,1177,130,-209,206,-112,-7,4237,50,38,815,1786,1895,2068,2224,2036,1784,1852,2004
290715,-42036,-9536,-41324,-8556,339,1103,122,-210,197,-129,-22,4227,51,32,811,1786,1895,2068,2224,2036,1784,1852,2004
291716,-41960,-9468,-41259,-8491,326,800,114,-232,185,-148,-7,4140,44,29,810,1786,1895,2068,2224,2036,1784,1852,2004
292717,-41908,-9416,-41194,-8426,642,1016,105,-243,184,-187,-14,4186,52,35,816,1786,1895,2068,2224,2036,1784,1852,2004
293718,-41856,-9352,-41129,-8361,658,868,98,-253,187,-170,39,4117,51,41,811,1807,1912,2110,2240,2048,1788,1847,1994
294719,-41788,-9284,-41064,-8296,454,815,95,-252,179,-166,83,4218,39,41,813,1807,1912,2110,2240,2048,1788,1847,1994
295720,-41720,-9224,-40999,-8231,452,921,87,-257,164,-20,107,4170,51,34,815,1807,1912,2110,2240,2048,1788,1847,1994
296721,-41664,-9164,-40934,-8166,613,928,87,-257,162,54,95,4105,38,32,814,1807,1912,2110,2240,2048,1788,1847,1994
297722,-41604,-9112,-40869,-8101,569,1044,78,-260,169,121,121,4042,40,44,812,1807,1912,2110,2240,2048,1788,1847,1994
298723,-41544,-9052,-40804,-8036,576,950,78,-233,150,142,203,4062,51,41,811,1807,1912,2110,2240,2048,1788,1847,1994
299724,-41476,-8980,-40739,-7971,472,792,77,-210,143,-56,145,4020,48,31,812,1775,1879,2079,2231,2038,1786,1846,1993
300725,-41436,-8924,-40674,-7906,853,1003,90,-167,134,28,266,4275,52,45,815,1775,1879,2079,2231,2038,1786,1846,1993
301726,-41364,-8856,-40609,-7841,444,851,95,-155,135,110,178,3982,39,28,809,1775,1879,2079,2231,2038,1786,1846,1993
302727,-41308,-8816,-40544,-7776,656,1231,115,-143,123,-27,304,4199,60,45,814,1775,1879,2079,2231,2038,1786,1846,1993
303728,-41232,-8760,-40479,-7711,393,1042,122,-162,121,-85,177,3998,45,27,808,1775,1879,2079,2231,2038,1786,1846,1993
304729,-41168,-8692,-40414,-7646,544,889,137,-192,117,-242,191,3830,51,43,813,1767,1874,2063,2210,2017,1771,1835,1977
305730,-41096,-8612,-40349,-7581,436,721,144,-210,109,-245,214,3981,49,44,813,1767,1874,2063,2210,2017,1771,1835,1977
306731,-41032,-8564,-40284,-7516,538,1143,159,-213,111,-227,235,3959,40,46,815,1767,1874,2063,2210,2017,1771,1835,1977
307732,-40960,-8504,-40219,-7451,429,999,172,-212,102,8,267,3848,40,30,811,1767,1874,2063,2210,2017,1771,1835,1977
308733,-40904,-8444,-40154,-7386,640,1005,177,-240,105,-178,152,3788,39,40,811,1767,1874,2063,2210,2017,1771,1835,1977
309734,-40828,-8412,-40089,-7321,378,1396,190,-244,101,-101,285,3916,39,30,811,1767,1874,2063,2210,2017,1771,1835,1977
310735,-40756,-8328,-40024,-7256,419,723,199,-223,84,14,282,3902,40,35,809,1767,1878,2068,2226,2008,1756,1824,1968
311736,-40716,-8264,-39959,-7191,850,975,209,-222,70,36,269,3868,46,45,815,1767,1878,2068,2226,2008,1756,1824,1968
312737,-40632,-8212,-39894,-7126,276,1141,217,-227,66,-37,154,3949,47,34,810,1767,1878,2068,2226,2008,1756,1824,1968
313738,-40560,-8152,-39829,-7061,419,1047,230,-197,55,97,283,4090,53,33,813,1767,1878,2068,2226,2008,1756,1824,1968
314739,-40516,-8104,-39764,-6996,794,1219,240,-177,46,127,285,3829,35,28,813,1767,1878,2068,2226,2008,1756,1824,1968
315740,-40448,-8040,-39699,-6931,491,1020,249,-157,40,203,312,4020,49,31,807,1782,1887,2077,2228,1981,1746,1814,1955
316741,-40396,-7988,-39634,-6866,708,1187,254,-150,23,259,274,3847,44,39,812,1782,1887,2077,2228,1981,1746,1814,1955
317742,-40332,-7928,-39569,-6801,559,1093,260,-150,14,62,278,3930,38,42,808,1782,1887,2077,2228,1981,1746,1814,1955
318743,-40252,-7868,-39504,-6736,341,1100,267,-152,8,-1,277,3943,51,31,811,1782,1887,2077,2228,1981,1746,1814,1955
319744,-40212,-7820,-39439,-6671,871,1271,277,-151,1,-2,256,3911,54,36,812,1782,1887,2077,2228,1981,1746,1814,1955
320745,-40160,-7760,-39374,-6606,738,1127,291,-152,-13,5,299,4005,47,26,806,1782,1887,2077,2228,1981,1746,1814,1955
321746,-40104,-7704,-39309,-6541,699,1189,302,-164,-21,50,284,3854,38,29,808,1791,1896,2082,2244,1996,1754,1820,1960
322747,-40052,-7652,-39244,-6476,765,1255,317,-180,-22,-51,256,3830,38,29,808,1791,1896,2082,2244,1996,1754,1820,1960
323748,-39984,-7616,-39179,-6411,562,1491,323,-195,-21,-45,262,3806,49,32,807,1791,1896,2082,2244,1996,1754,1820,1960
324749,-39908,-7544,-39114,-6346,449,1033,341,-203,-13,-164,247,3822,41,39,806,1791,1896,2082,2244,1996,1754,1820,1960
325750,-39848,-7496,-39049,-6281,655,1355,352,-213,-13,-85,208,3734,55,37,810,1791,1896,2082,2244,1996,1754,1820,1960
326751,-39772,-7432,-38984,-6216,442,1156,381,-219,-14,-40,143,3927,49,42,807,1764,1859,2049,2208,1984,1767,1833,1975
327752,-39704,-7360,-38919,-6151,539,1048,405,-224,-12,81,249,3970,52,42,811,1764,1859,2049,2208,1984,1767,1833,1975
328753,-39640,-7316,-38854,-6086,590,1424,426,-239,-6,32,263,3975,50,31,810,1764,1859,2049,2208,1984,1767,1833,1975
329754,-39576,-7260,-38789,-6021,591,1285,444,-229,-4,131,346,4168,39,31,807,1764,1859,2049,2208,1984,1767,1833,1975
330755,-39520,-7196,-38724,-5956,703,1187,462,-214,-5,86,343,3913,37,44,808,1764,1859,2049,2208,1984,1767,1833,1975
331756,-39448,-7140,-38659,-5891,495,1298,473,-181,-6,111,354,4177,38,35,808,1766,1872,2058,2217,2008,1760,1824,1976
332757,-39388,-7068,-38594,-5826,651,1091,492,-161,-15,342,394,4092,48,45,809,1766,1872,2058,2217,2008,1760,1824,1976
333758,-39316,-6992,-38529,-5761,493,1027,496,-167,-19,229,426,4009,39,44,810,1766,1872,2058,2217,2008,1760,1824,1976
334759,-39244,-6912,-38464,-5696,485,960,517,-154,-31,125,442,4238,50,36,812,1766,1872,2058,2217,2008,1760,1824,1976
335760,-39200,-6868,-38399,-5631,860,1436,515,-170,-39,122,394,4065,35,46,813,1766,1872,2058,2217,2008,1760,1824,1976
336761,-39140,-6816,-38334,-5566,667,1352,524,-176,-59,11,285,4250,35,31,804,1766,1872,2058,2217,2008,1760,1824,1976
337762,-39072,-6748,-38269,-5501,564,1149,518,-186,-64,87,264,4068,39,47,806,1779,1885,2073,2235,2017,1763,1831,1975
338763,-39032,-6664,-38204,-5436,944,927,521,-190,-60,22,249,4085,50,47,810,1779,1885,2073,2235,2017,1763,1831,1975
339764,-38964,-6624,-38139,-5371,591,1507,513,-215,-60,-26,234,4085,38,32,809,1779,1885,2073,2235,2017,1763,1831,1975
340765,-38888,-6552,-38074,-5306,478,1099,519,-238,-59,-98,246,3895,55,40,805,1779,1885,2073,2235,2017,1763,1831,1975
341766,-38836,-6500,-38009,-5241,794,1365,517,-272,-53,-17,166,4142,53,41,811,1779,1885,2073,2235,2017,1763,1831,1975
342767,-38768,-6424,-37944,-5176,590,1053,532,-264,-49,50,205,4065,46,32,804,1788,1896,2085,2240,2026,1776,1842,1994
343768,-38696,-6356,-37879,-5111,533,1149,533,-257,-41,178,130,4096,40,39,810,1788,1896,2085,2240,2026,1776,1842,1994
344769,-38656,-6316,-37814,-5046,963,1531,546,-264,-29,116,55,4052,38,42,810,1788,1896,2085,2240,2026,1776,1842,1994
345770,-38588,-6256,-37749,-4981,610,1287,542,-268,-18,86,94,3904,37,40,801,1788,1896,2085,2240,2026,1776,1842,1994
346771,-38520,-6216,-37684,-4916,607,1568,553,-274,-15,44,201,4017,41,41,808,1788,1896,2085,2240,2026,1776,1842,1994
347772,-38440,-6156,-37619,-4851,439,1325,557,-275,-14,161,264,4063,54,29,804,1788,1896,2085,2240,2026,1776,1842,1994
348773,-38384,-6100,-37554,-4786,750,1387,560,-283,-4,94,246,3995,42,28,808,1790,1897,2095,2236,2028,1781,1848,2000
349774,-38312,-6032,-37489,-4721,542,1233,568,-294,-2,125,340,4033,52,37,805,1790,1897,2095,2236,2028,1781,1848,2000
350775,-38244,-5980,-37424,-4656,588,1449,577,-310,1,138,437,4127,44,38,808,1790,1897,2095,2236,2028,1781,1848,2000
351776,-38192,-5936,-37359,-4591,804,1575,584,-312,-4,116,417,4124,35,23,806,1790,1897,2095,2236,2028,1781,1848,2000
352777,-38128,-5908,-37294,-4526,657,1822,573,-309,-9,182,414,4127,39,33,801,1790,1897,2095,2236,2028,1781,1848,2000
353778,-38052,-5852,-37229,-4461,493,1482,571,-303,-7,158,564,4150,40,23,799,1771,1871,2067,2221,2033,1771,1833,1976
354779,-38008,-5796,-37164,-4396,919,1494,570,-309,-7,4,495,4069,38,26,806,1771,1871,2067,2221,2033,1771,1833,1976
355780,-37944,-5748,-37099,-4331,670,1615,591,-306,0,0,357,4222,45,22,802,1771,1871,2067,2221,2033,1771,1833,1976
356781,-37876,-5704,-37034,-4266,617,1692,591,-334,7,19,328,4133,50,33,803,1771,1871,2067,2221,2033,1771,1833,1976
357782,-37828,-5652,-36969,-4201,888,1608,600,-338,9,53,290,4216,43,28,802,1771,1871,2067,2221,2033,1771,1833,1976
358783,-37748,-5616,-36904,-4136,470,1844,598,-334,20,106,284,4139,40,28,801,1771,1871,2067,2221,2033,1771,1833,1976
359784,-37700,-5560,-36839,-4071,892,1605,604,-330,33,185,299,3978,42,29,797,1764,1868,2037,2193,2022,1767,1827,1977
360785,-37644,-5516,-36774,-4006,803,1782,599,-323,40,193,264,3941,42,30,801,1764,1868,2037,2193,2022,1767,1827,1977
361786,-37576,-5456,-36709,-3941,649,1588,608,-312,48,227,331,4012,41,43,799,1764,1868,2037,2193,2022,1767,1827,1977
362787,-37508,-5396,-36644,-3876,646,1595,614,-304,62,128,293,3824,41,31,803,1764,1868,2037,2193,2022,1767,1827,1977
363788,-37476,-5336,-36579,-3811,1136,1602,621,-297,63,143,261,3917,38,31,803,1764,1868,2037,2193,2022,1767,1827,1977
364789,-37428,-5276,-36514,-3746,957,1608,629,-304,71,138,279,3902,40,45,798,1767,1850,2048,2208,2013,1764,1824,1976
365790,-37356,-5216,-36449,-3681,650,1615,625,-321,83,96,296,3869,57,46,799,1767,1850,2048,2208,2013,1764,1824,1976
366791,-37284,-5144,-36384,-3616,641,1457,627,-332,104,32,240,3775,60,49,803,1767,1850,2048,2208,2013,1764,1824,1976
367792,-37232,-5084,-36319,-3551,907,1614,607,-368,119,61,240,3646,40,41,805,1767,1850,2048,2208,2013,1764,1824,1976
368793,-37168,-5016,-36254,-3486,759,1510,600,-369,133,57,322,3825,41,44,801,1767,1850,2048,2208,2013,1764,1824,1976
369794,-37100,-4956,-36189,-3421,706,1617,588,-381,144,184,356,3697,57,39,803,1767,1850,2048,2208,2013,1764,1824,1976
370795,-37028,-4880,-36124,-3356,647,1405,589,-371,150,247,343,3870,49,36,802,1792,1896,2064,2218,2010,1754,1832,1984
371796,-36968,-4824,-36059,-3291,804,1666,582,-374,161,281,301,3816,42,50,805,1792,1896,2064,2218,2010,1754,1832,1984
372797,-36896,-4748,-35994,-3226,646,1403,576,-360,162,390,365,3775,42,47,801,1792,1896,2064,2218,2010,1754,1832,1984
373798,-36832,-4684,-35929,-3161,747,1555,565,-357,155,285,514,4045,44,42,806,1792,1896,2064,2218,2010,1754,1832,1984
374799,-36756,-4596,-35864,-3096,584,1228,565,-342,164,337,412,3830,41,46,803,1792,1896,2064,2218,2010,1754,1832,1984
375800,-36684,-4536,-35799,-3031,626,1585,563,-343,181,495,350,3970,39,47,808,1783,1885,2079,2223,2043,1787,1851,1999
376801,-36628,-4476,-35734,-2966,838,1591,573,-332,199,302,471,4117,34,35,803,1783,1885,2079,2223,2043,1787,1851,1999
377802,-36564,-4408,-35669,-2901,739,1488,566,-339,202,231,327,3822,52,33,801,1783,1885,2079,2223,2043,1787,1851,1999
378803,-36504,-4348,-35604,-2836,795,1594,575,-349,204,258,431,4139,47,37,804,1783,1885,2079,2223,2043,1787,1851,1999
379804,-36440,-4284,-35539,-2771,747,1546,571,-374,212,159,445,3896,34,42,802,1783,1885,2079,2223,2043,1787,1851,1999
380807,-36392,-4204,-35474,-2706,968,1328,569,-368,213,106,401,4080,44,42,803,1783,1885,2079,2223,2043,1787,1851,1999
381806,-36332,-4164,-35409,-2641,824,1860,573,-370,228,23,361,4058,45,42,803,1743,1847,2038,2189,2036,1775,1834,1987
382807,-36280,-4112,-35344,-2576,941,1727,581,-402,230,175,397,3903,54,35,798,1743,1847,2038,2189,2036,1775,1834,1987
383808,-36220,-4052,-35279,-2511,847,1633,571,-452,234,75,329,3893,47,31,798,1743,1847,2038,2189,2036,1775,1834,1987
384809,-36156,-3976,-35214,-2446,798,1420,568,-499,248,-15,399,4029,43,38,801,1743,1847,2038,2189,2036,1775,1834,1987
385810,-36128,-3916,-35149,-2381,1295,1626,551,-497,267,113,427,4010,46,36,804,1743,1847,2038,2189,2036,1775,1834,1987
386811,-36044,-3848,-35084,-2316,571,1524,538,-464,280,297,327,4106,53,42,796,1739,1851,2053,2194,2034,1778,1838,1997
387812,-35972,-3796,-35019,-2251,713,1739,516,-459,295,363,274,3935,45,37,804,1739,1851,2053,2194,2034,1778,1838,1997
388813,-35912,-3740,-34954,-2186,870,1701,503,-474,311,233,131,3677,36,30,801,1739,1851,2053,2194,2034,1778,1838,1997
389814,-35844,-3672,-34889,-2121,766,1549,484,-470,308,212,432,4025,44,36,799,1739,1851,2053,2194,2034,1778,1838,1997
390815,-35776,-3620,-34824,-2056,763,1765,467,-465,307,96,422,3930,40,35,803,1739,1851,2053,2194,2034,1778,1838,1997
391816,-35716,-3568,-34759,-1991,870,1782,453,-450,317,396,358,4073,37,47,799,1739,1851,2053,2194,2034,1778,1838,1997
392817,-35656,-3500,-34694,-1926,876,1578,429,-449,323,520,452,4046,44,43,798,1767,1878,2071,2214,2041,1781,1844,2004
393818,-35604,-3452,-34629,-1861,993,1850,417,-440,317,187,545,4116,51,46,799,1767,1878,2071,2214,2041,1781,1844,2004
394819,-35548,-3392,-34564,-1796,954,1707,401,-439,304,188,475,4037,37,36,796,1767,1878,2071,2214,2041,1781,1844,2004
395820,-35480,-3324,-34499,-1731,800,1603,383,-438,278,281,538,4113,53,32,798,1767,1878,2071,2214,2041,1781,1844,2004
396821,-35408,-3272,-34434,-1666,742,1820,364,-469,277,175,580,4009,46,44,801,1767,1878,2071,2214,2041,1781,1844,2004
397822,-35360,-3220,-34369,-1601,1063,1836,352,-482,275,164,559,4174,37,41,799,1744,1852,2043,2189,2039,1783,1836,1997
398823,-35292,-3164,-34304,-1536,810,1798,342,-499,268,120,605,4112,43,33,793,1744,1852,2043,2189,2039,1783,1836,1997
399824,-35248,-3120,-34239,-1471,1136,1974,335,-543,281,-30,525,3989,41,31,798,1744,1852,2043,2189,2039,1783,1836,1997
400825,-35180,-3040,-34174,-1406,833,1506,337,-579,299,-30,424,4088,52,44,793,1744,1852,2043,2189,2039,1783,1836,1997
401826,-35112,-2984,-34109,-1341,830,1818,342,-583,303,-42,485,4180,56,36,802,1744,1852,2043,2189,2039,1783,1836,1997
402827,-35056,-2932,-34044,-1276,991,1885,345,-596,321,-103,458,4096,44,47,797,1744,1852,2043,2189,2039,1783,1836,1997
403828,-35000,-2864,-33979,-1211,1002,1681,350,-611,338,82,481,4145,38,34,796,1712,1826,2040,2184,2034,1772,1829,1983
404829,-34936,-2784,-33914,-1146,904,1514,350,-617,345,103,532,4335,52,40,798,1712,1826,2040,2184,2034,1772,1829,1983
405830,-34868,-2740,-33849,-1081,850,1990,347,-622,365,9,544,4268,50,50,801,1712,1826,2040,2184,2034,1772,1829,1983
406831,-34812,-2628,-33784,-1016,1011,1083,362,-643,371,329,178,4606,42,37,795,1712,1826,2040,2184,2034,1772,1829,1983
407832,-34752,-2596,-33719,-951,968,2125,403,-724,405,464,-128,4278,53,34,804,1712,1826,2040,2184,2034,1772,1829,1983
408833,-34696,-2524,-33654,-886,1029,1616,380,-802,426,-1348,-154,4531,48,37,792,1732,1847,2048,2202,2024,1762,1828,1952
409834,-34624,-2456,-33589,-821,822,1663,394,-726,359,-2084,-617,6047,42,39,798,1732,1847,2048,2202,2024,1762,1828,1952
410835,-34576,-2392,-33524,-756,1143,1716,411,-765,377,1221,1090,3777,43,38,797,1732,1847,2048,2202,2024,1762,1828,1952
411836,-34528,-2332,-33459,-691,1163,1772,395,-743,399,1338,-31,4947,48,46,796,1732,1847,2048,2202,2024,1762,1828,1952
412837,-34452,-2244,-33394,-626,801,1395,336,-748,354,-279,575,4230,60,47,795,1732,1847,2048,2202,2024,1762,1828,1952
413838,-34388,-2196,-33329,-561,952,1915,283,-783,347,-748,952,3918,56,41,804,1732,1847,2048,2202,2024,1762,1828,1952
414839,-34304,-2128,-33264,-496,680,1663,225,-777,354,255,319,3999,54,47,796,1839,1951,2151,2320,2078,1815,1895,2047
415840,-34244,-2072,-33199,-431,986,1825,189,-721,352,581,688,4164,49,35,799,1839,1951,2151,2320,2078,1815,1895,2047
416841,-34152,-2004,-33134,-366,553,1671,157,-709,363,-192,519,3884,44,42,796,1839,1951,2151,2320,2078,1815,1895,2047
417842,-34104,-1964,-33069,-301,1125,2053,147,-699,351,-62,400,4171,45,35,802,1839,1951,2151,2320,2078,1815,1895,2047
418843,-34012,-1896,-33004,-236,542,1699,149,-718,351,-129,404,4000,56,33,791,1839,1951,2151,2320,2078,1815,1895,2047
419844,-33956,-1808,-32939,-171,1004,1422,163,-716,372,-213,356,4118,60,43,801,1824,1931,2123,2261,2067,1819,1879,2016
420845,-33880,-1776,-32874,-106,741,2163,185,-718,380,-141,341,4112,50,33,801,1824,1931,2123,2261,2067,1819,1879,2016
421846,-33836,-1708,-32809,-41,1166,1709,216,-737,390,-237,279,4340,55,45,793,1824,1931,2123,2261,2067,1819,1879,2016
422847,-33772,-1636,-32744,24,918,1652,260,-761,403,-201,369,4392,56,29,795,1824,1931,2123,2261,2067,1819,1879,2016
423848,-33692,-1588,-32679,89,700,1974,300,-774,414,-241,212,4392,45,47,798,1824,1931,2123,2261,2067,1819,1879,2016
424849,-33644,-1520,-32614,154,1121,1720,327,-790,416,-269,184,4484,50,31,796,1824,1931,2123,2261,2067,1819,1879,2016
425850,-33580,-1464,-32549,219,923,1882,350,-793,427,-396,441,4433,39,26,795,1742,1841,2049,2188,2039,1774,1824,1971
426851,-33516,-1400,-32484,284,924,1784,359,-793,442,-290,538,4459,54,35,795,1742,1841,2049,2188,2039,1774,1824,1971
427852,-33460,-1348,-32419,349,1036,1950,358,-777,440,-3,699,4535,47,42,795,1742,1841,2049,2188,2039,1774,1824,1971
428855,-33392,-1292,-32354,414,883,1912,341,-778,451,-129,682,4415,40,42,793,1742,1841,2049,2188,2039,1774,1824,1971
429854,-33328,-1240,-32289,479,934,1978,329,-744,450,15,755,4334,50,27,796,1742,1841,2049,2188,2039,1774,1824,1971
430855,-33272,-1192,-32224,544,1046,2050,303,-720,455,-60,737,4339,44,39,794,1707,1815,2017,2172,1985,1737,1794,1940
431856,-33204,-1128,-32159,609,892,1852,289,-686,475,-40,865,4220,42,36,792,1707,1815,2017,2172,1985,1737,1794,1940
432857,-33148,-1080,-32094,674,1054,2073,257,-653,466,109,877,4212,43,41,796,1707,1815,2017,2172,1985,1737,1794,1940
433858,-33080,-1016,-32029,739,900,1875,247,-594,462,114,863,4188,38,31,791,1707,1815,2017,2172,1985,1737,1794,1940
434859,-33032,-940,-31964,804,1171,1712,222,-555,458,244,972,3944,57,38,796,1707,1815,2017,2172,1985,1737,1794,1940
435860,-32956,-876,-31899,869,809,1864,213,-499,452,215,890,3957,50,35,795,1707,1815,2017,2172,1985,1737,1794,1940
436861,-32896,-808,-31834,934,1015,1811,197,-458,444,200,927,3802,45,37,797,1758,1847,2064,2226,1994,1752,1820,1966
437862,-32824,-744,-31769,999,857,1863,197,-419,428,118,880,3670,43,35,795,1758,1847,2064,2226,1994,1752,1820,1966
438863,-32768,-688,-31704,1064,1068,1974,196,-395,418,109,753,3758,56,42,797,1758,1847,2064,2226,1994,1752,1820,1966
439864,-32704,-600,-31639,1129,970,1547,227,-374,431,-53,698,3773,43,40,793,1758,1847,2064,2226,1994,1752,1820,1966
440865,-32624,-544,-31574,1194,752,1959,253,-397,440,-339,730,3763,60,46,798,1758,1847,2064,2226,1994,1752,1820,1966
441866,-32584,-452,-31509,1259,1283,1476,286,-391,423,-171,822,3646,57,53,797,1763,1856,2072,2223,2015,1760,1800,1968
442867,-32520,-404,-31444,1324,985,2048,298,-418,422,-75,712,3835,40,41,797,1763,1856,2072,2223,2015,1760,1800,1968
443868,-32448,-316,-31379,1389,876,1521,329,-408,419,-99,811,4017,47,54,793,1763,1856,2072,2223,2015,1760,1800,1968
444869,-32392,-232,-31314,1454,1087,1548,355,-423,438,-104,679,3978,45,42,799,1763,1856,2072,2223,2015,1760,1800,1968
445870,-32332,-160,-31249,1519,1045,1690,404,-431,461,-189,761,4266,46,49,799,1763,1856,2072,2223,2015,1760,1800,1968
446871,-32264,-96,-31184,1584,941,1792,406,-429,454,-95,854,4000,60,46,797,1763,1856,2072,2223,2015,1760,1800,1968
447872,-32196,-20,-31119,1649,938,1629,401,-409,438,186,955,4128,60,52,797,1728,1832,2056,2204,2004,1740,1784,1924
448873,-32116,48,-31054,1714,770,1726,383,-380,456,273,1117,4323,48,40,799,1728,1832,2056,2204,2004,1740,1784,1924
449874,-32056,124,-30989,1779,1026,1614,360,-354,462,329,1110,3989,44,52,799,1728,1832,2056,2204,2004,1740,1784,1924
450875,-31988,188,-30924,1844,923,1765,323,-316,466,236,1096,4067,49,48,798,1728,1832,2056,2204,2004,1740,1784,1924
451876,-31932,252,-30859,1909,1084,1767,307,-315,459,400,1354,4014,38,38,798,1728,1832,2056,2204,2004,1740,1784,1924
452877,-31868,316,-30794,1974,987,1768,288,-313,459,327,1386,4007,38,51,796,1788,1892,2088,2208,1984,1767,1831,1972
453878,-31812,388,-30729,2039,1098,1661,284,-290,438,462,1255,3984,54,50,797,1788,1892,2088,2208,1984,1767,1831,1972
454879,-31748,468,-30530,2238,1850,2394,286,-283,413,383,1230,3808,44,49,797,1788,1892,2088,2208,1984,1767,1831,1972
455880,-31672,544,-30465,2303,1687,2431,297,-303,388,139,1156,3810,56,49,777,1788,1892,2088,2208,1984,1767,1831,1972
456881,-31620,640,-30400,2368,2003,2144,321,-305,380,273,1207,3878,52,64,779,1788,1892,2088,2208,1984,1767,1831,1972
457882,-31536,724,-30335,2433,1581,2272,346,-319,376,240,1167,3773,69,66,779,1788,1892,2088,2208,1984,1767,1831,1972
458883,-31440,820,-30270,2498,1393,2084,371,-354,375,-61,1109,3577,65,65,784,1759,1863,2063,2199,1991,1751,1807,1967
459884,-31352,924,-30205,2563,1466,1937,393,-404,380,-42,1058,3825,79,68,789,1759,1863,2063,2199,1991,1751,1807,1967
460885,-31240,1024,-30140,2628,1108,1946,422,-420,380,53,847,3670,88,73,791,1759,1863,2063,2199,1991,1751,1807,1967
461886,-31136,1140,-30075,2693,1162,1683,434,-439,364,287,1023,3790,74,79,792,1759,1863,2063,2199,1991,1751,1807,1967
462887,-31028,1252,-30010,2758,1059,1677,451,-445,378,340,1129,4130,72,63,796,1759,1863,2063,2199,1991,1751,1807,1967
463888,-30920,1348,-29945,2823,1007,1839,467,-445,379,713,1378,3694,76,63,798,1718,1840,2049,2182,2011,1768,1820,1974
464889,-30836,1472,-29880,2888,1284,1418,472,-440,358,509,1328,3945,69,61,798,1718,1840,2049,2182,2011,1768,1820,1974
465890,-30744,1572,-29815,2953,1152,1675,481,-469,340,263,1475,4046,72,60,799,1718,1840,2049,2182,2011,1768,1820,1974
466891,-30620,1664,-29750,3018,681,1743,494,-476,314,419,1433,3891,73,61,797,1718,1840,2049,2182,2011,1768,1820,1974
467892,-30516,1776,-29685,3083,883,1437,481,-472,315,527,1355,4190,68,59,800,1718,1840,2049,2182,2011,1768,1820,1974
468893,-30424,1872,-29620,3148,1000,1599,467,-498,326,553,1527,3949,64,57,803,1718,1840,2049,2182,2011,1768,1820,1974
469894,-30300,1972,-29555,3213,528,1506,453,-520,331,196,1482,4236,79,53,801,1764,1871,2070,2210,1999,1748,1817,1973
470895,-30208,2060,-29490,3278,896,1629,449,-515,328,-9,1485,4135,68,56,806,1764,1871,2070,2210,1999,1748,1817,1973
471896,-30096,2148,-29425,3343,589,1601,429,-529,313,623,1690,4175,65,48,800,1764,1871,2070,2210,1999,1748,1817,1973
472897,-30000,2232,-29360,3408,751,1629,424,-536,310,691,1690,4199,74,52,803,1764,1871,2070,2210,1999,1748,1817,1973
473898,-29916,2324,-29295,3473,879,1496,450,-592,295,1200,1653,4087,56,52,802,1764,1871,2070,2210,1999,1748,1817,1973
474899,-29820,2428,-29230,3538,691,1299,468,-637,303,604,975,4234,64,50,803,1775,1896,2101,2231,2008,1768,1824,1977
475900,-29752,2524,-29165,3603,1037,1362,388,-544,221,-531,1080,4626,57,58,806,1775,1896,2101,2231,2008,1768,1824,1977
476901,-29668,2616,-29100,3668,814,1380,203,-341,112,-599,1264,3872,71,66,802,1775,1896,2101,2231,2008,1768,1824,1977
477902,-29576,2708,-29035,3733,681,1347,-1,-109,117,1065,1428,3693,56,68,804,1775,1896,2101,2231,2008,1768,1824,1977
478903,-29500,2808,-28970,3798,868,1204,-109,-16,193,1791,1155,3715,54,68,805,1775,1896,2101,2231,2008,1768,1824,1977
479904,-29416,2904,-28905,3863,745,1217,-99,-100,211,251,897,4065,64,55,806,1775,1896,2101,2231,2008,1768,1824,1977
480905,-29332,2988,-28840,3928,722,1344,28,-280,180,-963,881,4252,63,60,807,1773,1875,2067,2192,2080,1827,1865,2044
481906,-29264,3088,-28775,3993,918,1101,187,-403,129,-594,779,4073,49,59,806,1773,1875,2067,2192,2080,1827,1865,2044
482907,-29188,3180,-28710,4058,805,1169,311,-449,94,202,938,4164,48,52,806,1773,1875,2067,2192,2080,1827,1865,2044
483908,-29120,3260,-28645,4123,902,1301,370,-456,102,365,956,3927,45,46,807,1773,1875,2067,2192,2080,1827,1865,2044
484909,-29044,3348,-28580,4188,789,1173,380,-431,120,456,1155,4262,59,47,804,1773,1875,2067,2192,2080,1827,1865,2044
485910,-28960,3424,-28515,4253,666,1310,352,-380,149,600,1340,4170,45,53,807,1672,1784,2019,2140,2122,1843,1861,2020
486911,-28880,3500,-28450,4318,697,1297,313,-325,166,662,1522,3869,43,52,807,1672,1784,2019,2140,2122,1843,1861,2020
487912,-28828,3580,-28385,4383,1063,1229,274,-263,160,571,1748,3959,52,56,807,1672,1784,2019,2140,2122,1843,1861,2020
488913,-28744,3648,-28320,4448,640,1376,224,-218,149,589,1887,3951,53,53,803,1672,1784,2019,2140,2122,1843,1861,2020
489914,-28684,3716,-28255,4513,947,1372,172,-188,129,759,1949,3872,43,61,806,1672,1784,2019,2140,2122,1843,1861,2020
490915,-28616,3784,-28190,4578,844,1369,115,-167,117,742,1804,3885,45,47,803,1672,1784,2019,2140,2122,1843,1861,2020
491916,-28552,3888,-28125,4643,895,872,58,-146,103,611,1749,3794,57,62,804,1711,1823,2034,2184,2048,1776,1819,1963
492917,-28500,3980,-28060,4708,1061,989,6,-97,84,580,1783,3755,55,59,809,1711,1823,2034,2184,2048,1776,1819,1963
493918,-28424,4056,-27995,4773,747,1176,-21,-42,81,825,1785,3589,55,60,806,1711,1823,2034,2184,2048,1776,1819,1963
494919,-28360,4160,-27930,4838,898,778,-59,-22,63,907,1469,3239,57,60,807,1711,1823,2034,2184,2048,1776,1819,1963
495920,-28288,4240,-27865,4903,790,1061,-83,-25,35,390,1296,3665,52,47,808,1711,1823,2034,2184,2048,1776,1819,1963
496921,-28212,4324,-27800,4968,727,988,-105,-43,21,68,1183,3505,57,54,808,1781,1891,2105,2247,2030,1780,1823,1983
497922,-28164,4404,-27735,5033,1098,1019,-118,-31,5,432,1009,3563,43,46,810,1781,1891,2105,2247,2030,1780,1823,1983
498923,-28092,4492,-27670,5098,790,891,-117,-20,0,583,853,3527,41,50,806,1781,1891,2105,2247,2030,1780,1823,1983
499924,-28012,4560,-27605,5163,671,1139,-98,-21,-11,270,871,3568,47,47,810,1781,1891,2105,2247,2030,1780,1823,1983
500925,-27948,4624,-27540,5228,873,1190,-94,-51,-27,83,908,3317,52,53,808,1781,1891,2105,2247,2030,1780,1823,1983
501926,-27884,4708,-27475,5293,874,917,-73,-57,-32,356,936,3561,41,42,806,1781,1891,2105,2247,2030,1780,1823,1983
502927,-27820,4796,-27410,5358,876,839,-50,-46,-25,544,920,3403,55,46,809,1742,1850,2061,2180,2013,1751,1793,1959
503928,-27752,4860,-27345,5423,822,1141,-35,-31,-15,507,1127,3306,44,55,810,1742,1850,2061,2180,2013,1751,1793,1959
504929,-27668,4936,-27280,5488,599,977,-28,1,-3,551,1291,3441,53,55,807,1742,1850,2061,2180,2013,1751,1793,1959
505930,-27600,5000,-27215,5553,795,1129,-40,26,8,680,1407,3259,58,48,811,1742,1850,2061,2180,2013,1751,1793,1959
506931,-27528,5068,-27150,5618,737,1075,-51,31,20,777,1537,3148,40,52,808,1742,1850,2061,2180,2013,1751,1793,1959
507932,-27460,5144,-27085,5683,783,961,-77,57,23,714,1728,3226,50,42,809,1718,1828,2036,2167,2002,1754,1805,1945
508933,-27392,5220,-27020,5748,780,949,-92,92,57,682,1905,3072,43,42,809,1718,1828,2036,2167,2002,1754,1805,1945
509934,-27316,5304,-26955,5813,667,826,-96,135,70,1047,2042,3067,46,57,809,1718,1828,2036,2167,2002,1754,1805,1945
510935,-27252,5384,-26890,5878,818,858,-101,132,66,931,1841,2970,44,49,812,1718,1828,2036,2167,2002,1754,1805,1945
511936,-27172,5460,-26825,5943,600,894,-113,106,63,498,1818,2966,52,52,811,1718,1828,2036,2167,2002,1754,1805,1945
512937,-27100,5524,-26760,6008,692,1045,-119,97,59,568,1807,3037,54,54,810,1718,1828,2036,2167,2002,1754,1805,1945
513938,-27016,5612,-26695,6073,518,718,-127,95,61,791,1695,3004,56,52,810,1706,1807,2001,2149,1999,1750,1797,1935
514939,-26952,5680,-26630,6138,770,965,-114,100,64,948,1533,3070,41,40,814,1706,1807,2001,2149,1999,1750,1797,1935
515940,-26884,5760,-26565,6203,716,796,-89,87,62,678,1376,2966,49,52,810,1706,1807,2001,2149,1999,1750,1797,1935
516941,-26820,5820,-26500,6268,767,1052,-61,73,52,448,1114,2910,50,48,811,1706,1807,2001,2149,1999,1750,1797,1935
517942,-26748,5888,-26435,6333,660,949,-26,71,38,576,1008,3097,56,55,809,1706,1807,2001,2149,1999,1750,1797,1935
518943,-26672,5968,-26370,6398,596,780,5,75,32,629,865,2968,60,46,811,1693,1800,2011,2138,1984,1730,1769,1920
519944,-26616,6028,-26305,6463,857,1038,37,77,32,747,801,2932,60,51,814,1693,1800,2011,2138,1984,1730,1769,1920
520945,-26528,6108,-26240,6528,429,769,54,86,38,610,827,2951,47,52,809,1693,1800,2011,2138,1984,1730,1769,1920
521946,-26456,6164,-26175,6593,621,1080,61,83,62,562,726,2805,60,55,814,1693,1800,2011,2138,1984,1730,1769,1920
522947,-26396,6244,-26110,6658,777,762,60,81,100,529,764,2666,56,43,810,1693,1800,2011,2138,1984,1730,1769,1920
523948,-26312,6312,-26045,6723,453,908,53,100,118,589,999,2690,52,43,812,1693,1800,2011,2138,1984,1730,1769,1920
524949,-26236,6380,-25980,6788,540,905,35,141,124,683,1079,2695,52,59,813,1708,1823,2024,2144,1954,1700,1752,1899
525950,-26156,6472,-25915,6853,472,572,0,172,129,880,1156,2649,44,52,813,1708,1823,2024,2144,1954,1700,1752,1899
526951,-26092,6564,-25850,6918,674,540,-52,208,162,893,1375,2793,54,52,816,1708,1823,2024,2144,1954,1700,1752,1899
527952,-26028,6636,-25785,6983,675,781,-100,232,201,733,1569,2638,55,55,815,1708,1823,2024,2144,1954,1700,1752,1899
528953,-25940,6728,-25720,7048,347,498,-140,287,205,758,1574,2611,58,42,813,1708,1823,2024,2144,1954,1700,1752,1899
529954,-25868,6808,-25655,7113,539,630,-177,308,202,784,1467,2809,50,57,816,1729,1843,2023,2150,1947,1701,1770,1917
530955,-25800,6884,-25590,7178,585,666,-206,305,216,682,1427,2636,55,49,815,1729,1843,2023,2150,1947,1701,1770,1917
531956,-25724,6948,-25525,7243,471,818,-231,306,225,595,1385,2632,40,41,815,1729,1843,2023,2150,1947,1701,1770,1917
532957,-25648,7024,-25460,7308,458,654,-235,313,225,707,1370,2652,52,50,814,1729,1843,2023,2150,1947,1701,1770,1917
533958,-25560,7112,-25395,7373,280,476,-228,323,229,696,1370,2904,46,53,815,1729,1843,2023,2150,1947,1701,1770,1917
534959,-25500,7176,-25330,7438,636,778,-211,345,229,714,1148,2752,58,55,818,1729,1843,2023,2150,1947,1701,1770,1917
535960,-25448,7252,-25265,7503,752,615,-185,348,221,821,1069,2855,47,49,814,1661,1769,1944,2062,2005,1744,1808,1972
536961,-25368,7320,-25200,7568,384,711,-149,380,215,767,928,2768,38,47,813,1661,1769,1944,2062,2005,1744,1808,1972
537962,-25308,7392,-25135,7633,640,653,-116,381,217,549,979,2889,47,56,816,1661,1769,1944,2062,2005,1744,1808,1972
538963,-25236,7464,-25070,7698,481,644,-80,437,227,739,825,2964,56,46,815,1661,1769,1944,2062,2005,1744,1808,1972
539964,-25160,7540,-25005,7763,418,581,-52,449,253,908,795,2796,42,57,816,1661,1769,1944,2062,2005,1744,1808,1972
540965,-25088,7604,-24940,7828,460,732,-29,451,269,582,843,2779,45,55,817,1623,1743,1947,2058,2060,1787,1819,1975
541966,-25012,7692,-24875,7893,397,404,-33,469,293,320,749,2862,56,51,816,1623,1743,1947,2058,2060,1787,1819,1975
542967,-24936,7768,-24810,7958,383,540,-42,538,332,598,906,2745,41,53,818,1623,1743,1947,2058,2060,1787,1819,1975
543968,-24868,7856,-24745,8023,480,362,-73,602,372,1035,948,2609,45,42,818,1623,1743,1947,2058,2060,1787,1819,1975
544969,-24776,7932,-24680,8088,147,499,-113,631,400,810,873,2705,58,40,818,1623,1743,1947,2058,2060,1787,1819,1975
545970,-24708,8008,-24615,8153,443,486,-179,662,401,672,840,2414,52,41,819,1623,1743,1947,2058,2060,1787,1819,1975
546971,-24632,8092,-24550,8218,330,362,-268,675,415,615,943,2693,48,40,816,1645,1766,1972,2101,1991,1733,1775,1917
547972,-24572,8176,-24485,8283,536,339,-366,730,437,750,1095,2515,48,42,819,1645,1766,1972,2101,1991,1733,1775,1917
548973,-24492,8244,-24420,8348,267,536,-451,816,457,693,1052,2402,59,52,818,1645,1766,1972,2101,1991,1733,1775,1917
549974,-24432,8328,-24355,8413,523,313,-539,919,448,985,893,2348,55,40,818,1645,1766,1972,2101,1991,1733,1775,1917
550975,-24344,8396,-24290,8478,145,510,-603,1044,429,1130,470,2352,54,49,818,1645,1766,1972,2101,1991,1733,1775,1917
551976,-24284,8488,-24225,8543,502,177,-627,1153,415,1198,494,2336,54,50,819,1692,1803,1998,2127,1982,1732,1781,1927
552977,-24200,8576,-24160,8608,178,199,-644,1237,372,1301,251,2102,58,44,819,1692,1803,1998,2127,1982,1732,1781,1927
553978,-24132,8728,-24095,8673,375,-708,-666,1294,331,1180,139,2270,46,48,821,1692,1803,1998,2127,1982,1732,1781,1927
554979,-24060,8868,-24030,8738,316,-649,-694,1314,305,737,261,2490,54,51,816,1692,1803,1998,2127,1982,1732,1781,1927
555980,-23984,8932,-23965,8803,253,302,-735,1320,316,401,490,2336,45,46,816,1692,1803,1998,2127,1982,1732,1781,1927
556981,-23896,8992,-23900,8868,75,358,-795,1317,312,278,429,2575,42,42,820,1646,1751,1956,2078,2025,1769,1801,1948
557982,-23820,9036,-23835,8933,211,583,-873,1301,289,106,95,2702,53,33,821,1646,1751,1956,2078,2025,1769,1801,1948
558983,-23744,9112,-23770,8998,198,169,-927,1283,319,186,216,2976,50,41,819,1646,1751,1956,2078,2025,1769,1801,1948
559984,-23672,9176,-23705,9063,239,321,-947,1259,368,46,568,2851,43,46,821,1646,1751,1956,2078,2025,1769,1801,1948
560985,-23576,9236,-23640,9128,-99,377,-940,1298,408,382,517,3243,52,35,820,1646,1751,1956,2078,2025,1769,1801,1948
561986,-23496,9292,-23575,9193,83,438,-914,1305,433,885,286,3297,44,42,818,1646,1751,1956,2078,2025,1769,1801,1948
562987,-23416,9356,-23510,9258,65,339,-879,1267,448,704,303,3269,51,38,820,1587,1701,1907,2029,2064,1802,1838,1995
563988,-23328,9428,-23445,9323,-63,230,-858,1225,460,396,333,3540,39,40,819,1587,1701,1907,2029,2064,1802,1838,1995
564989,-23268,9516,-23380,9388,293,2,-833,1222,481,668,468,3500,46,38,821,1587,1701,1907,2029,2064,1802,1838,1995
565990,-23188,9568,-23315,9453,24,468,-834,1203,512,1091,525,3467,40,49,821,1587,1701,1907,2029,2064,1802,1838,1995
566991,-23104,9640,-23250,9518,-49,210,-852,1169,519,978,566,3400,54,40,820,1587,1701,1907,2029,2064,1802,1838,1995
567992,-23036,9708,-23185,9583,148,256,-885,1124,522,657,504,3397,57,53,822,1640,1774,1973,2112,2056,1787,1851,2011
568993,-22948,9792,-23120,9648,-130,33,-928,1119,518,944,552,3539,55,51,821,1640,1774,1973,2112,2056,1787,1851,2011
569994,-22872,9852,-23055,9713,6,339,-973,1104,507,1072,630,3426,48,42,816,1640,1774,1973,2112,2056,1787,1851,2011
570995,-22780,9932,-22990,9778,-228,71,-1020,1078,485,953,622,3573,46,53,821,1640,1774,1973,2112,2056,1787,1851,2011
571996,-22680,10004,-22925,9843,-371,162,-1062,1037,455,653,457,3487,47,45,822,1640,1774,1973,2112,2056,1787,1851,2011
572997,-22556,10084,-22860,9908,-743,44,-1108,971,423,473,396,3728,48,38,820,1640,1774,1973,2112,2056,1787,1851,2011
573998,-22480,10160,-22795,9973,-156,80,-1129,902,397,207,302,3766,55,42,822,1801,1928,2105,2259,2031,1735,1849,1956
574999,-22404,10224,-22730,10038,-169,231,-1134,814,378,150,233,3937,44,55,823,1801,1928,2105,2259,2031,1735,1849,1956
576000,-22340,10312,-22665,10103,-18,-97,-1120,680,357,-66,78,3827,42,55,811,1801,1928,2105,2259,2031,1735,1849,1956
577001,-22260,10388,-22600,10168,-237,39,-1090,548,340,-186,-24,4350,56,51,821,1801,1928,2105,2259,2031,1735,1849,1956
578002,-22196,10464,-22535,10233,-35,26,-1041,434,347,-150,-180,4390,44,49,807,1801,1928,2105,2259,2031,1735,1849,1956
579003,-22144,10536,-22470,10298,130,67,-982,296,359,-171,-92,4333,48,52,823,1878,1960,2128,2239,2009,1763,1792,2007
580004,-22052,10616,-22405,10363,-403,-51,-931,179,370,-337,-105,4634,37,54,822,1878,1960,2128,2239,2009,1763,1792,2007
581005,-21992,10700,-22340,10428,3,-125,-873,92,404,-144,-81,4839,48,45,821,1878,1960,2128,2239,2009,1763,1792,2007
582006,-21916,10776,-22275,10493,-211,-38,-816,27,442,203,68,4893,54,52,822,1878,1960,2128,2239,2009,1763,1792,2007
583007,-21840,10860,-22210,10558,-224,-161,-774,-38,482,138,86,4959,52,39,823,1878,1960,2128,2239,2009,1763,1792,2007
584008,-21764,10924,-22145,10623,-238,90,-725,-70,523,126,201,5187,50,55,807,1878,1960,2128,2239,2009,1763,1792,2007
585009,-21696,11008,-22080,10688,-141,-183,-690,-121,553,369,371,4893,56,51,818,1887,2047,2172,2292,1999,1752,1855,1983
586010,-21632,11088,-22015,10753,-90,-151,-654,-132,580,508,361,5137,38,37,822,1887,2047,2172,2292,1999,1752,1855,1983
587011,-21544,11160,-21950,10818,-419,-61,-630,-132,601,533,404,4982,37,37,822,1887,2047,2172,2292,1999,1752,1855,1983
588012,-21488,11252,-21885,10883,-8,-344,-612,-154,615,526,480,4772,54,51,821,1887,2047,2172,2292,1999,1752,1855,1983
589013,-21416,11320,-21820,10948,-217,-48,-595,-185,613,371,393,4744,39,52,821,1887,2047,2172,2292,1999,1752,1855,1983
590014,-21340,11396,-21755,11013,-280,-161,-570,-203,606,185,271,4738,45,48,809,1886,2001,2152,2334,2004,1770,1861,1980
591015,-21256,11488,-21690,11078,-403,-394,-530,-248,604,159,97,4663,43,46,818,1886,2001,2152,2334,2004,1770,1861,1980
592016,-21180,11560,-21625,11143,-317,-153,-490,-316,595,-42,-26,4445,54,41,820,1886,2001,2152,2334,2004,1770,1861,1980
593017,-21124,11640,-21560,11208,-57,-272,-433,-364,568,-108,34,4674,37,52,822,1886,2001,2152,2334,2004,1770,1861,1980
594018,-21052,11720,-21495,11273,-265,-290,-374,-401,549,-221,-268,4472,46,37,821,1886,2001,2152,2334,2004,1770,1861,1980
595019,-20992,11796,-21430,11338,-109,-254,-314,-430,535,-156,-445,4327,55,45,812,1886,2001,2152,2334,2004,1770,1861,1980
596020,-20912,11864,-21365,11403,-377,-157,-252,-434,516,-2,-468,4538,40,36,822,1868,1959,2140,2324,2031,1794,1854,1973
597021,-20848,11928,-21300,11468,-176,-106,-195,-422,490,-303,-455,4373,41,35,820,1868,1959,2140,2324,2031,1794,1854,1973
598022,-20764,12000,-21235,11533,-449,-215,-169,-402,486,-450,-584,4451,48,39,820,1868,1959,2140,2324,2031,1794,1854,1973
599023,-20684,12084,-21170,11598,-419,-389,-145,-356,501,-171,-787,4300,46,51,818,1868,1959,2140,2324,2031,1794,1854,1973
600024,-20608,12144,-21105,11663,-382,-83,-145,-325,530,-210,-751,4095,42,40,821,1868,1959,2140,2324,2031,1794,1854,1973
601025,-20540,12212,-21040,11728,-286,-186,-155,-277,549,-345,-734,4108,48,46,822,1825,1930,2123,2299,2001,1767,1824,1928
602026,-20460,12280,-20975,11793,-454,-190,-171,-210,586,-427,-642,3821,59,49,823,1825,1930,2123,2299,2001,1767,1824,1928
603027,-20380,12344,-20910,11858,-472,-139,-200,-134,626,-224,-590,3903,45,41,820,1825,1930,2123,2299,2001,1767,1824,1928
604028,-20296,12428,-20845,11923,-547,-413,-224,-46,666,-171,-507,3740,59,39,823,1825,1930,2123,2299,2001,1767,1824,1928
605029,-20216,12484,-20780,11988,-515,-52,-265,8,680,-330,-326,3722,56,41,821,1825,1930,2123,2299,2001,1767,1824,1928
606031,-20136,12560,-20715,12053,-533,-315,-308,46,675,-467,-262,3415,59,48,823,1825,1930,2123,2299,2001,1767,1824,1928
607031,-20040,12632,-20650,12118,-771,-274,-328,95,659,166,-364,3660,42,46,821,1791,1888,2068,2232,1976,1760,1821,1941
608032,-19956,12696,-20585,12183,-645,-173,-315,153,640,583,-479,3636,50,47,822,1791,1888,2068,2232,1976,1760,1821,1941
609033,-19880,12748,-20520,12248,-559,-8,-301,205,602,282,-366,3610,52,48,822,1791,1888,2068,2232,1976,1760,1821,1941
610034,-19784,12832,-20455,12313,-847,-431,-280,258,563,78,-401,3607,63,33,823,1791,1888,2068,2232,1976,1760,1821,1941
611035,-19680,12900,-20390,12378,-994,-235,-268,324,519,133,-265,3832,63,44,819,1791,1888,2068,2232,1976,1760,1821,1941
612036,-19576,12956,-20325,12443,-1043,-74,-265,366,470,-97,-315,3700,57,44,822,1706,1793,1983,2137,2018,1779,1831,1956
613037,-19492,13020,-20260,12508,-816,-172,-309,368,441,-554,-641,3408,56,47,823,1706,1793,1983,2137,2018,1779,1831,1956
614038,-19404,13088,-20195,12573,-894,-226,-354,388,414,-562,-485,3687,60,42,823,1706,1793,1983,2137,2018,1779,1831,1956
615039,-19316,13156,-20130,12638,-922,-231,-392,381,398,-497,-495,3246,48,34,819,1706,1793,1983,2137,2018,1779,1831,1956
616040,-19228,13232,-20065,12703,-951,-344,-419,333,379,-701,-752,3357,58,44,822,1706,1793,1983,2137,2018,1779,1831,1956
617041,-19148,13288,-20000,12768,-870,-83,-440,306,357,-815,-866,3250,63,46,822,1706,1793,1983,2137,2018,1779,1831,1956
618042,-19048,13356,-19935,12833,-1162,-237,-450,325,349,-593,-940,3268,59,43,823,1671,1775,1971,2094,2052,1807,1858,1999
619043,-18952,13416,-19870,12898,-1151,-132,-453,316,372,-450,-1075,3178,46,38,822,1671,1775,1971,2094,2052,1807,1858,1999
620044,-18864,13468,-19805,12963,-1079,-16,-424,269,403,-499,-1211,2919,66,42,823,1671,1775,1971,2094,2052,1807,1858,1999
621045,-18780,13528,-19740,13028,-1052,-110,-394,225,428,-804,-1204,3460,59,41,823,1671,1775,1971,2094,2052,1807,1858,1999
622046,-18692,13600,-19675,13093,-1131,-268,-388,194,429,-819,-888,3255,63,49,823,1671,1775,1971,2094,2052,1807,1858,1999
623047,-18600,13668,-19610,13158,-1214,-222,-424,226,425,-505,-605,3600,49,42,822,1681,1822,2012,2157,2045,1791,1858,2002
624048,-18512,13728,-19545,13223,-1193,-116,-504,210,439,-92,-1003,2909,59,36,822,1681,1822,2012,2157,2045,1791,1858,2002
625049,-18424,13788,-19480,13288,-1222,-111,-592,157,445,51,-763,3254,47,33,823,1681,1822,2012,2157,2045,1791,1858,2002
626050,-18348,13840,-19415,13353,-1085,5,-661,117,407,-245,-535,3271,63,35,823,1681,1822,2012,2157,2045,1791,1858,2002
627051,-18248,13928,-19350,13418,-1429,-473,-708,115,340,-480,-601,3592,61,45,823,1681,1822,2012,2157,2045,1791,1858,2002
628052,-18168,13984,-19285,13483,-1197,-62,-768,73,314,-722,-950,3292,56,44,812,1681,1822,2012,2157,2045,1791,1858,2002
629053,-18084,14044,-19220,13548,-1271,-106,-826,8,289,-55,-817,3500,45,32,822,1766,1888,2051,2193,2016,1753,1850,2000
630054,-18020,14096,-19155,13613,-1020,9,-876,-114,236,-331,-576,3296,43,44,823,1766,1888,2051,2193,2016,1753,1850,2000
631055,-17908,14172,-19090,13678,-1678,-305,-910,-208,168,-913,-855,3724,50,49,823,1766,1888,2051,2193,2016,1753,1850,2000
632056,-17836,14232,-19025,13743,-1187,-98,-948,-271,146,-809,-1295,3743,63,44,816,1766,1888,2051,2193,2016,1753,1850,2000
633057,-17752,14308,-18960,13808,-1360,-312,-949,-329,121,-303,-1015,4067,63,41,822,1766,1888,2051,2193,2016,1753,1850,2000
634058,-17668,14368,-18895,13873,-1384,-106,-939,-481,108,-855,-1005,3828,47,43,822,1761,1881,2037,2167,2044,1785,1869,2031
635059,-17580,14428,-18830,13938,-1462,-101,-911,-649,83,-1354,-1150,4086,49,40,822,1761,1881,2037,2167,2044,1785,1869,2031
636060,-17488,14488,-18765,14003,-1546,-95,-896,-787,77,-1025,-1438,4424,48,46,820,1761,1881,2037,2167,2044,1785,1869,2031
637061,-17408,14560,-18700,14068,-1415,-253,-888,-871,75,-869,-1293,4087,55,41,823,1761,1881,2037,2167,2044,1785,1869,2031
638062,-17320,14628,-18635,14133,-1544,-207,-894,-945,82,-572,-1238,3864,52,39,822,1761,1881,2037,2167,2044,1785,1869,2031
639063,-17236,14684,-18570,14198,-1517,-46,-905,-988,89,-373,-1204,4147,52,31,822,1761,1881,2037,2167,2044,1785,1869,2031
640064,-17172,14736,-18505,14263,-1267,19,-945,-1055,113,-627,-1406,4036,49,32,821,1744,1877,2041,2179,2038,1812,1905,2060
641065,-17080,14772,-18440,14328,-1650,255,-991,-1063,138,-712,-1155,3882,39,42,823,1744,1877,2041,2179,2038,1812,1905,2060
642066,-17020,14848,-18375,14393,-1245,-259,-1048,-1058,143,-513,-1143,4082,55,39,822,1744,1877,2041,2179,2038,1812,1905,2060
643067,-16936,14908,-18310,14458,-1568,-53,-1085,-1060,161,-441,-1070,4296,53,30,822,1744,1877,2041,2179,2038,1812,1905,2060
644068,-16876,14964,-18245,14523,-1263,8,-1128,-1104,191,-516,-1083,4116,41,37,822,1744,1877,2041,2179,2038,1812,1905,2060
645069,-16780,15040,-18180,14588,-1750,-255,-1140,-1176,211,-544,-1216,4309,40,41,823,1790,1897,2078,2236,2086,1834,1919,2058
646070,-16728,15080,-18115,14653,-1186,224,-1141,-1202,199,-744,-952,4629,58,30,822,1790,1897,2078,2236,2086,1834,1919,2058
647071,-16640,15132,-18050,14718,-1665,90,-1157,-1245,182,-828,-984,4565,48,28,822,1790,1897,2078,2236,2086,1834,1919,2058
648072,-16572,15192,-17985,14783,-1418,-4,-1162,-1277,156,-890,-1009,4782,44,41,822,1790,1897,2078,2236,2086,1834,1919,2058
649073,-16496,15248,-17920,14848,-1533,57,-1182,-1374,140,-550,-1142,4441,49,36,821,1790,1897,2078,2236,2086,1834,1919,2058
650074,-16436,15308,-17855,14913,-1327,13,-1188,-1444,118,-554,-1412,4681,54,27,823,1790,1897,2078,2236,2086,1834,1919,2058
651075,-16364,15360,-17790,14978,-1486,129,-1204,-1524,90,-428,-1466,4429,35,42,823,1803,1910,2092,2262,2094,1843,1900,2037
652076,-16296,15412,-17725,15043,-1440,144,-1223,-1546,63,-522,-1578,4884,44,39,823,1803,1910,2092,2262,2094,1843,1900,2037
653077,-16224,15456,-17660,15108,-1499,270,-1222,-1453,42,-295,-1847,5287,35,30,823,1803,1910,2092,2262,2094,1843,1900,2037
654079,-16172,15496,-17595,15173,-1234,350,-1188,-1271,44,73,-2013,6245,49,35,822,1803,1910,2092,2262,2094,1843,1900,2037
655079,-16112,15556,-17530,15238,-1328,106,-1143,-1062,55,262,-1831,6453,46,34,822,1803,1910,2092,2262,2094,1843,1900,2037
656080,-16048,15620,-17465,15303,-1377,58,-1074,-870,64,326,-2080,6399,30,34,823,2047,1918,2112,2284,2081,1836,1899,2019
657081,-15992,15684,-17400,15368,-1267,59,-995,-682,67,437,-2001,6747,45,42,823,2047,1918,2112,2284,2081,1836,1899,2019
658082,-15936,15748,-17335,15433,-1257,60,-948,-594,82,-67,-1735,6140,47,41,824,2047,1918,2112,2284,2081,1836,1899,2019
659083,-15888,15808,-17270,15498,-1137,116,-940,-578,112,-661,-1748,5942,27,45,823,2047,1918,2112,2284,2081,1836,1899,2019
660084,-15844,15872,-17205,15563,-1062,66,-955,-558,157,-681,-1545,5608,42,32,823,2047,1918,2112,2284,2081,1836,1899,2019
661085,-15792,15924,-17140,15628,-1146,232,-999,-529,186,-513,-1359,5330,41,29,813,2047,1918,2112,2284,2081,1836,1899,2019
662086,-15744,15984,-17075,15693,-1076,138,-1054,-523,208,-571,-1353,5116,37,39,822,1881,1987,2189,2448,2071,1833,1928,2000
663087,-15720,16060,-17010,15758,-726,-75,-1110,-488,214,-693,-1278,5235,21,34,823,1881,1987,2189,2448,2071,1833,1928,2000
664088,-15664,16096,-16945,15823,-1116,460,-1143,-426,213,-71,-1316,5213,15,31,823,1881,1987,2189,2448,2071,1833,1928,2000
665089,-15624,16152,-16880,15888,-886,221,-1137,-334,212,468,-1411,5273,14,29,812,1881,1987,2189,2448,2071,1833,1928,2000
666090,-15608,16216,-16815,15953,-527,122,-1103,-292,210,555,-1564,5322,15,35,820,1881,1987,2189,2448,2071,1833,1928,2000
667091,-15572,16236,-16750,16018,-741,727,-1043,-240,188,566,-1656,5427,14,39,823,1969,2051,2236,2513,2103,1886,1954,2035
668092,-15552,16276,-16685,16083,-488,508,-969,-169,158,804,-1857,5495,26,30,820,1969,2051,2236,2513,2103,1886,1954,2035
669093,-15520,16320,-16620,16148,-597,483,-871,-65,133,1325,-1845,5636,19,40,816,1969,2051,2236,2513,2103,1886,1954,2035
670094,-15504,16384,-16555,16213,-337,234,-763,24,125,1308,-1935,5590,8,50,820,1969,2051,2236,2513,2103,1886,1954,2035
671095,-15508,16476,-16490,16278,-4,-149,-672,91,106,1357,-1970,5610,2,42,822,1969,2051,2236,2513,2103,1886,1954,2035
672096,-15480,16536,-16425,16343,-359,257,-596,167,79,1444,-2024,5594,0,41,823,1969,2051,2236,2513,2103,1886,1954,2035
673097,-15476,16604,-16360,16408,14,153,-540,244,56,1552,-1971,5416,3,43,818,1911,1999,2183,2395,2061,1819,1890,1983
674098,-15492,16660,-16295,16473,363,314,-504,315,31,1204,-1965,5251,-4,32,822,1911,1999,2183,2395,2061,1819,1890,1983
675099,-15468,16736,-16230,16538,-87,51,-476,334,23,1146,-1930,5102,-1,37,820,1911,1999,2183,2395,2061,1819,1890,1983
676100,-15468,16792,-16165,16603,293,312,-456,300,14,1041,-1882,4952,12,35,820,1911,1999,2183,2395,2061,1819,1890,1983
677101,-15488,16872,-16100,16668,645,-7,-440,252,7,671,-1823,4867,-5,47,820,1911,1999,2183,2395,2061,1819,1890,1983
678102,-15472,16944,-16035,16733,255,85,-423,186,12,556,-1776,4662,4,39,819,1858,1969,2122,2319,1959,1722,1822,1920
679103,-15460,17020,-15970,16798,370,22,-394,100,29,647,-1664,4578,16,41,821,1858,1969,2122,2319,1959,1722,1822,1920
680104,-15464,17100,-15905,16863,654,-47,-363,38,36,711,-1564,4498,0,34,821,1858,1969,2122,2319,1959,1722,1822,1920
681105,-15460,17160,-15840,16928,628,209,-345,-23,38,682,-1559,4176,7,42,819,1858,1969,2122,2319,1959,1722,1822,1920
682106,-15460,17236,-15775,16993,757,-5,-329,-33,29,908,-1473,4174,16,35,818,1858,1969,2122,2319,1959,1722,1822,1920
683107,-15460,17292,-15710,17058,836,256,-317,-29,8,1185,-1494,3954,22,37,816,1858,1969,2122,2319,1959,1722,1822,1920
684108,-15436,17364,-15645,17123,586,47,-279,-24,-4,1486,-1374,3821,14,48,815,1838,1969,2101,2285,1951,1711,1835,1954
685109,-15420,17444,-15580,17188,746,-71,-241,-35,-33,1500,-1341,3804,14,32,818,1838,1969,2101,2285,1951,1711,1835,1954
686110,-15408,17484,-15515,17253,861,460,-187,-67,-64,1447,-1402,3442,23,47,818,1838,1969,2101,2285,1951,1711,1835,1954
687111,-15392,17544,-15450,17318,871,216,-129,-103,-90,1555,-1360,3668,14,32,815,1838,1969,2101,2285,1951,1711,1835,1954
688112,-15364,17588,-15385,17383,766,441,-63,-157,-111,1324,-1458,3386,16,41,815,1838,1969,2101,2285,1951,1711,1835,1954
689113,-15328,17652,-15320,17448,701,192,1,-208,-132,1353,-1412,3468,18,48,815,1826,1952,2090,2262,2000,1753,1854,1974
690114,-15304,17716,-15255,17513,901,194,62,-248,-162,1420,-1298,3429,26,41,816,1826,1952,2090,2262,2000,1753,1854,1974
691115,-15256,17784,-15190,17578,622,140,115,-303,-182,1308,-1428,3265,23,48,815,1826,1952,2090,2262,2000,1753,1854,1974
692116,-15208,17828,-15125,17643,643,466,168,-369,-197,1418,-1363,3230,40,33,817,1826,1952,2090,2262,2000,1753,1854,1974
693117,-15176,17888,-15060,17708,883,271,224,-452,-210,1345,-1261,3187,27,33,816,1826,1952,2090,2262,2000,1753,1854,1974
694118,-15128,17956,-14995,17773,704,167,273,-520,-214,1074,-1281,3170,43,45,815,1826,1952,2090,2262,2000,1753,1854,1974
695119,-15088,18032,-14930,17838,834,54,318,-556,-218,1222,-1108,3358,31,39,817,1802,1912,2079,2260,1977,1739,1817,1920
696120,-15020,18088,-14865,17903,481,315,353,-581,-214,1249,-1142,3199,31,41,817,1802,1912,2079,2260,1977,1739,1817,1920
697121,-14964,18144,-14800,17968,642,326,384,-580,-218,1282,-1006,3466,46,43,818,1802,1912,2079,2260,1977,1739,1817,1920
698122,-14904,18224,-14735,18033,598,7,413,-557,-207,1361,-908,3424,49,44,817,1802,1912,2079,2260,1977,1739,1817,1920
699123,-14860,18264,-14670,18098,823,538,426,-542,-190,1235,-900,3366,50,32,819,1802,1912,2079,2260,1977,1739,1817,1920
700124,-14788,18328,-14605,18163,465,239,436,-499,-188,1065,-791,3521,52,37,814,1776,1885,2051,2240,1915,1676,1760,1862
701125,-14728,18408,-14540,18228,621,21,439,-455,-182,1041,-713,3401,52,43,817,1776,1885,2051,2240,1915,1676,1760,1862
702126,-14676,18460,-14475,18293,737,387,450,-411,-181,1011,-772,3522,37,40,819,1776,1885,2051,2240,1915,1676,1760,1862
703127,-14600,18516,-14410,18358,424,348,462,-356,-176,899,-768,3473,48,39,817,1776,1885,2051,2240,1915,1676,1760,1862
704128,-14524,18588,-14345,18423,411,139,490,-289,-180,1011,-634,3601,38,39,818,1776,1885,2051,2240,1915,1676,1760,1862
705129,-14460,18648,-14146,18622,726,459,506,-252,-160,675,-812,3205,38,34,819,1776,1885,2051,2240,1915,1676,1760,1862
706130,-14376,18724,-14081,18687,453,245,533,-218,-160,807,-597,3488,56,33,818,1776,1872,2047,2241,1927,1709,1783,1886
707131,-14300,18768,-14016,18752,539,671,558,-178,-173,786,-656,3154,44,46,817,1776,1872,2047,2241,1927,1709,1783,1886
708132,-14236,18848,-13951,18817,690,203,586,-131,-184,778,-556,3422,42,33,817,1776,1872,2047,2241,1927,1709,1783,1886
709133,-14152,18916,-13886,18882,417,349,621,-62,-186,849,-557,3361,43,45,816,1776,1872,2047,2241,1927,1709,1783,1886
710134,-14092,18968,-13821,18947,723,565,654,11,-182,934,-572,3226,42,46,818,1776,1872,2047,2241,1927,1709,1783,1886
711135,-14028,19036,-13756,19012,675,361,699,74,-193,1108,-433,3326,47,38,817,1768,1865,2061,2251,1994,1765,1824,1935
712136,-13940,19128,-13691,19077,346,28,743,146,-192,1003,-487,3265,56,43,816,1768,1865,2061,2251,1994,1765,1824,1935
713137,-13884,19192,-13626,19142,757,379,786,248,-193,1095,-303,3560,55,33,819,1768,1865,2061,2251,1994,1765,1824,1935
714138,-13816,19248,-13561,19207,605,490,818,354,-189,1255,-368,3306,51,48,819,1768,1865,2061,2251,1994,1765,1824,1935
715139,-13744,19320,-13496,19272,546,281,848,442,-171,1258,-356,3266,47,35,816,1768,1865,2061,2251,1994,1765,1824,1935
716140,-13668,19376,-13431,19337,483,492,875,516,-152,1108,-264,3361,44,49,817,1768,1865,2061,2251,1994,1765,1824,1935
717141,-13580,19460,-13366,19402,305,119,896,558,-139,870,-204,3244,42,42,816,1770,1865,2068,2257,2013,1781,1831,1935
718142,-13528,19540,-13301,19467,771,150,914,609,-115,918,-159,3352,45,39,819,1770,1865,2068,2257,2013,1781,1831,1935
719143,-13444,19604,-13236,19532,347,352,926,639,-77,1123,-122,3105,39,36,819,1770,1865,2068,2257,2013,1781,1831,1935
720144,-13384,19680,-13171,19597,654,188,937,685,-48,823,-118,3380,50,34,818,1770,1865,2068,2257,2013,1781,1831,1935
721145,-13320,19748,-13106,19662,605,285,939,721,-23,605,-62,3417,54,42,819,1770,1865,2068,2257,2013,1781,1831,1935
722146,-13248,19800,-13041,19727,496,500,941,777,-5,716,21,3767,57,48,818,1767,1858,2057,2243,1973,1743,1798,1905
723147,-13172,19872,-12976,19792,433,242,945,829,13,1002,165,3806,38,47,817,1767,1858,2057,2243,1973,1743,1798,1905
724148,-13120,19948,-12911,19857,749,178,961,862,37,932,-123,3690,37,45,818,1767,1858,2057,2243,1973,1743,1798,1905
725149,-13048,20016,-12846,19922,490,275,973,899,59,758,-64,3941,53,36,818,1767,1858,2057,2243,1973,1743,1798,1905
726150,-12996,20072,-12781,19987,757,436,987,903,71,691,31,3503,39,45,818,1767,1858,2057,2243,1973,1743,1798,1905
727151,-12924,20136,-12716,20052,498,337,1003,889,78,547,-27,3726,48,35,817,1767,1858,2057,2243,1973,1743,1798,1905
728152,-12856,20212,-12651,20117,545,174,1024,879,92,576,-25,3644,44,43,817,1760,1856,2051,2221,1967,1731,1794,1922
729153,-12796,20276,-12586,20182,651,325,1056,889,109,721,-42,3746,43,29,819,1760,1856,2051,2221,1967,1731,1794,1922
730154,-12708,20332,-12521,20247,273,436,1078,921,116,881,-3,3720,50,44,818,1760,1856,2051,2221,1967,1731,1794,1922
731155,-12648,20404,-12456,20312,629,227,1101,942,120,967,63,3550,36,42,818,1760,1856,2051,2221,1967,1731,1794,1922
732156,-12584,20456,-12391,20377,580,493,1119,949,131,870,78,3721,37,39,819,1760,1856,2051,2221,1967,1731,1794,1922
733157,-12504,20508,-12326,20442,362,509,1138,968,135,843,164,3658,36,32,817,1780,1890,2084,2242,2004,1758,1830,1974
734158,-12448,20588,-12261,20507,673,141,1154,972,147,816,265,3563,36,45,816,1780,1890,2084,2242,2004,1758,1830,1974
735159,-12384,20640,-12196,20572,574,506,1159,969,158,867,292,3725,49,32,817,1780,1890,2084,2242,2004,1758,1830,1974
736160,-12304,20704,-12131,20637,356,358,1169,944,179,791,325,3436,38,38,817,1780,1890,2084,2242,2004,1758,1830,1974
737161,-12260,20744,-12066,20702,831,688,1177,898,202,659,329,3572,37,39,818,1780,1890,2084,2242,2004,1758,1830,1974
738162,-12188,20812,-12001,20767,473,335,1186,849,222,575,413,3532,51,36,816,1780,1890,2084,2242,2004,1758,1830,1974
739163,-12128,20884,-11936,20832,629,276,1201,783,245,552,281,3548,39,30,815,1814,1930,2115,2271,2039,1787,1858,2002
740164,-12072,20940,-11871,20897,691,487,1221,719,251,558,326,3667,38,37,818,1814,1930,2115,2271,2039,1787,1858,2002
741165,-12000,21016,-11806,20962,482,224,1226,655,268,475,556,3494,33,31,817,1814,1930,2115,2271,2039,1787,1858,2002
742166,-11948,21064,-11741,21027,748,594,1239,593,289,549,415,3629,51,36,817,1814,1930,2115,2271,2039,1787,1858,2002
743167,-11884,21132,-11676,21092,599,341,1240,545,303,585,487,3664,46,29,817,1814,1930,2115,2271,2039,1787,1858,2002
744168,-11812,21192,-11611,21157,491,447,1241,511,310,600,568,3825,52,29,816,1808,1922,2105,2277,2047,1780,1846,1999
745169,-11752,21244,-11546,21222,647,563,1240,465,323,522,451,3982,52,26,818,1808,1922,2105,2277,2047,1780,1846,1999
746170,-11688,21308,-11481,21287,598,414,1248,430,327,458,535,4359,50,28,816,1808,1922,2105,2277,2047,1780,1846,1999
747171,-11620,21360,-11416,21352,545,580,1253,396,328,530,587,4342,51,30,816,1808,1922,2105,2277,2047,1780,1846,1999
748172,-11568,21432,-11351,21417,760,321,1239,332,313,568,650,4526,49,33,816,1808,1922,2105,2277,2047,1780,1846,1999
749173,-11508,21480,-11286,21482,666,642,1205,230,296,362,675,4289,35,37,816,1808,1922,2105,2277,2047,1780,1846,1999
750174,-11444,21544,-11221,21547,618,443,1159,133,301,387,493,4486,36,29,815,1780,1894,2082,2219,2027,1778,1842,1999
751175,-11392,21596,-11156,21612,784,609,1122,83,294,667,654,4750,41,41,814,1780,1894,2082,2219,2027,1778,1842,1999
752176,-11316,21648,-11091,21677,470,625,1069,75,278,497,669,4580,53,41,815,1780,1894,2082,2219,2027,1778,1842,1999
753177,-11256,21688,-11026,21742,677,805,1028,88,254,441,763,4605,44,40,815,1780,1894,2082,2219,2027,1778,1842,1999
754178,-11188,21760,-10961,21807,574,397,978,64,244,240,617,4619,38,44,815,1780,1894,2082,2219,2027,1778,1842,1999
755179,-11112,21824,-10896,21872,460,498,967,46,229,92,351,4714,38,37,813,1771,1896,2099,2225,2105,1848,1905,2093
756180,-11048,21880,-10831,21937,611,609,958,58,208,396,371,4648,55,39,817,1771,1896,2099,2225,2105,1848,1905,2093
757181,-10980,21940,-10766,22002,558,565,939,30,207,415,488,4277,52,36,817,1771,1896,2099,2225,2105,1848,1905,2093
758182,-10904,22008,-10701,22067,444,462,896,-24,208,-45,668,4228,52,30,815,1771,1896,2099,2225,2105,1848,1905,2093
759183,-10836,22068,-10636,22132,541,568,864,-22,200,-360,481,4546,39,30,816,1771,1896,2099,2225,2105,1848,1905,2093
760184,-10752,22124,-10571,22197,317,629,847,-3,181,-131,519,4456,51,29,818,1771,1896,2099,2225,2105,1848,1905,2093
761185,-10700,22180,-10506,22262,733,640,823,-15,175,58,534,4223,34,30,816,1779,1907,2131,2254,2211,1935,1970,2155
762186,-10644,22256,-10441,22327,694,376,808,-56,175,-56,619,4324,50,34,817,1779,1907,2131,2254,2211,1935,1970,2155
763187,-10584,22320,-10376,22392,650,527,763,-84,167,-392,787,4414,50,32,814,1779,1907,2131,2254,2211,1935,1970,2155
764188,-10516,22360,-10311,22457,547,858,689,-122,156,-463,1013,4319,52,32,816,1779,1907,2131,2254,2211,1935,1970,2155
765189,-10448,22424,-10246,22522,543,559,592,-132,124,-310,1036,4448,35,41,815,1779,1907,2131,2254,2211,1935,1970,2155
766190,-10384,22496,-10181,22587,595,451,508,-140,94,-168,1045,4522,43,34,813,1774,1896,2116,2255,2191,1917,1944,2102
767191,-10328,22576,-10116,22652,706,332,436,-124,73,-109,1045,4641,48,31,816,1774,1896,2116,2255,2191,1917,1944,2102
768192,-10252,22644,-10051,22717,443,479,378,-89,58,-150,948,4847,40,45,814,1774,1896,2116,2255,2191,1917,1944,2102
769193,-10200,22708,-9986,22782,759,530,320,-52,36,-154,886,4896,36,32,816,1774,1896,2116,2255,2191,1917,1944,2102
770194,-10156,22764,-9921,22847,884,641,274,-1,10,-215,751,4891,34,33,818,1774,1896,2116,2255,2191,1917,1944,2102
771195,-10076,22840,-9856,22912,416,377,208,38,-20,-101,705,4825,47,41,815,1739,1849,2063,2198,2132,1871,1944,2102
772196,-10024,22896,-9791,22977,782,638,166,78,-53,-152,496,4721,42,29,812,1739,1849,2063,2198,2132,1871,1896,2054
773197,-9936,22952,-9726,23042,304,649,129,121,-83,-74,357,4590,51,33,818,1739,1849,2063,2198,2132,1871,1896,2054
774198,-9892,23040,-9661,23107,879,221,118,146,-114,12,306,4574,36,36,813,1739,1849,2063,2198,2132,1871,1896,2054
775199,-9832,23108,-9596,23172,686,468,83,185,-123,-88,241,4304,51,47,817,1739,1849,2063,2198,2132,1871,1896,2054
776200,-9772,23172,-9531,23237,692,519,63,213,-139,-104,195,4438,43,31,815,1739,1849,2063,2198,2132,1871,1896,2054
777201,-9712,23232,-9466,23302,698,575,31,229,-146,-360,189,4314,52,31,815,1714,1821,2047,2189,2102,1857,1879,2027
778202,-9652,23296,-9401,23367,705,526,27,248,-154,-520,290,4142,53,33,815,1714,1821,2047,2189,2102,1857,1879,2027
779203,-9580,23380,-9336,23432,546,253,-10,227,-145,-642,384,3884,49,37,815,1714,1821,2047,2189,2102,1857,1879,2027
780204,-9528,23452,-9271,23497,812,394,-50,232,-156,-480,551,4013,50,40,815,1714,1821,2047,2189,2102,1857,1879,2027
781207,-9464,23504,-9206,23562,663,660,-113,265,-170,-434,542,3765,53,29,818,1714,1821,2047,2189,2102,1857,1879,2027
782206,-9396,23544,-9141,23627,610,841,-148,279,-176,-488,656,3391,37,31,815,1760,1872,2084,2244,2063,1815,1871,2010
783207,-9344,23624,-9076,23692,826,323,-188,261,-170,-473,735,3483,51,44,814,1760,1872,2084,2244,2063,1815,1871,2010
784208,-9272,23692,-9011,23757,567,469,-234,277,-158,-377,893,3522,43,38,813,1760,1872,2084,2244,2063,1815,1871,2010
785209,-9208,23748,-8946,23822,668,630,-300,317,-169,-96,1001,3470,47,31,813,1760,1872,2084,2244,2063,1815,1871,2010
786210,-9164,23812,-8881,23887,944,531,-343,347,-192,-157,884,3473,34,31,815,1760,1872,2084,2244,2063,1815,1871,2010
787211,-9092,23864,-8816,23952,585,697,-362,348,-211,-255,749,3235,33,48,814,1760,1872,2084,2244,2063,1815,1871,2010
788212,-9044,23940,-8751,24017,907,383,-363,326,-224,-71,653,3569,34,42,812,1782,1890,2089,2242,2049,1800,1854,1993
789213,-8984,23992,-8686,24082,763,699,-365,341,-245,-112,646,3759,43,35,815,1782,1890,2089,2242,2049,1800,1854,1993
790214,-8928,24048,-8621,24147,824,661,-337,369,-264,1,465,3552,35,40,814,1782,1890,2089,2242,2049,1800,1854,1993
791215,-8860,24112,-8556,24212,671,563,-286,359,-261,259,482,3401,50,32,812,1782,1890,2089,2242,2049,1800,1854,1993
792216,-8804,24176,-8491,24277,832,564,-231,350,-242,46,402,3837,35,35,813,1782,1890,2089,2242,2049,1800,1854,1993
793217,-8752,24240,-8426,24342,897,565,-194,360,-225,-135,395,3855,39,40,815,1749,1855,2047,2187,2003,1755,1809,1948
794218,-8704,24320,-8361,24407,968,347,-155,377,-220,-194,224,3674,33,33,813,1749,1855,2047,2187,2003,1755,1809,1948
795219,-8644,24376,-8296,24472,824,658,-109,351,-215,-27,195,3591,44,32,812,1749,1855,2047,2187,2003,1755,1809,1948
796220,-8600,24448,-8231,24537,1050,449,-59,304,-188,-204,155,3730,47,48,814,1749,1855,2047,2187,2003,1755,1809,1948
797221,-8540,24508,-8166,24602,857,605,-26,264,-165,-416,468,3672,45,37,813,1749,1855,2047,2187,2003,1755,1809,1948
798222,-8456,24580,-8101,24667,534,447,-31,252,-157,-336,555,3570,36,45,811,1749,1855,2047,2187,2003,1755,1809,1948
799223,-8408,24628,-8036,24732,1005,767,-39,269,-154,-17,532,3467,36,44,812,1760,1868,2066,2225,1941,1711,1779,1898
800224,-8352,24696,-7971,24797,916,514,-47,250,-143,-129,597,3516,53,33,817,1760,1868,2066,2225,1941,1711,1779,1898
801225,-8292,24776,-7906,24862,872,345,-53,234,-123,-365,620,3347,52,34,810,1760,1868,2066,2225,1941,1711,1779,1898
802226,-8228,24824,-7841,24927,823,766,-63,215,-109,-17,847,3438,41,45,811,1760,1868,2066,2225,1941,1711,1779,1898
803227,-8172,24888,-7776,24992,934,567,-65,203,-96,-155,847,3329,50,32,813,1760,1868,2066,2225,1941,1711,1779,1898
804228,-8116,24948,-7711,25057,946,624,-67,185,-94,-319,798,3312,43,32,812,1824,1920,2112,2295,1943,1725,1801,1919
805229,-8068,25000,-7646,25122,1067,739,-44,174,-77,-145,661,3212,37,46,812,1824,1920,2112,2295,1943,1725,1801,1919
806230,-8004,25080,-7581,25187,868,371,-14,138,-51,24,719,3241,39,39,811,1824,1920,2112,2295,1943,1725,1801,1919
807231,-7948,25124,-7516,25252,979,847,29,130,-34,-212,515,3406,36,37,809,1824,1920,2112,2295,1943,1725,1801,1919
808232,-7880,25192,-7451,25317,825,543,76,139,-23,-195,577,3450,49,39,814,1824,1920,2112,2295,1943,1725,1801,1919
809233,-7836,25236,-7386,25382,1151,869,138,148,-8,-154,536,3621,35,31,809,1824,1920,2112,2295,1943,1725,1801,1919
810234,-7792,25284,-7321,25447,1177,839,201,165,3,-175,390,3678,35,43,813,1837,1933,2121,2285,1997,1765,1819,1947
811235,-7712,25352,-7256,25512,709,586,279,197,11,-42,361,3829,41,34,807,1837,1933,2121,2285,1997,1765,1819,1947
812236,-7660,25404,-7191,25577,1075,802,347,213,29,130,330,3668,36,29,806,1837,1933,2121,2285,1997,1765,1819,1947
813237,-7612,25476,-7126,25642,1146,543,418,207,57,206,360,3764,38,40,814,1837,1933,2121,2285,1997,1765,1819,1947
814238,-7560,25520,-7061,25707,1112,920,474,186,80,-251,507,3898,51,36,808,1837,1933,2121,2285,1997,1765,1819,1947
815239,-7512,25572,-6996,25772,1182,836,517,155,108,-577,554,3800,50,31,809,1790,1888,2080,2273,1988,1740,1800,1932
816240,-7452,25624,-6931,25837,1039,852,549,129,132,-413,721,3996,36,36,807,1790,1888,2080,2273,1988,1740,1800,1932
817241,-7384,25664,-6866,25902,936,1032,568,90,155,-379,650,3821,43,44,807,1790,1888,2080,2273,1988,1740,1800,1932
818242,-7340,25728,-6801,25967,1261,733,577,79,174,-30,620,3935,55,34,808,1790,1888,2080,2273,1988,1740,1800,1932
819243,-7276,25788,-6736,26032,1013,789,590,81,198,61,610,3932,41,42,805,1790,1888,2080,2273,1988,1740,1800,1932
820244,-7224,25868,-6671,26097,1179,521,593,74,222,5,674,3884,46,32,804,1790,1888,2080,2273,1988,1740,1800,1932
821245,-7164,25916,-6606,26162,1086,942,604,83,234,88,729,4087,38,42,809,1828,1924,2128,2304,2000,1770,1800,1920
822246,-7108,25972,-6541,26227,1147,853,594,88,261,-21,613,3842,43,47,809,1828,1924,2128,2304,2000,1770,1800,1920
823247,-7064,26040,-6476,26292,1322,699,611,131,275,208,728,4205,38,49,807,1828,1924,2128,2304,2000,1770,1800,1920
824248,-6992,26100,-6411,26357,964,805,617,175,287,264,610,3986,43,54,806,1828,1924,2128,2304,2000,1770,1800,1920
825249,-6920,26172,-6346,26422,956,647,645,203,305,285,402,3992,50,38,806,1828,1924,2128,2304,2000,1770,1800,1920
826250,-6872,26264,-6281,26487,1277,365,659,220,323,362,549,4033,42,51,810,1835,1919,2111,2287,2005,1775,1839,1975
827251,-6812,26332,-6216,26552,1133,661,701,238,332,93,392,3972,39,47,810,1835,1919,2111,2287,2005,1775,1839,1975
828252,-6748,26380,-6151,26617,1084,932,724,268,354,-71,331,4217,39,47,809,1835,1919,2111,2287,2005,1775,1839,1975
829253,-6684,26452,-6086,26682,1085,623,762,285,364,144,510,4096,41,35,808,1835,1919,2111,2287,2005,1775,1839,1975
830254,-6624,26536,-6021,26747,1143,450,793,290,365,-3,404,4223,34,47,806,1835,1919,2111,2287,2005,1775,1839,1975
831255,-6572,26588,-5956,26812,1258,866,825,269,378,5,406,4013,40,35,809,1835,1919,2111,2287,2005,1775,1839,1975
832256,-6516,26652,-5891,26877,1219,717,862,256,387,91,535,4231,42,41,810,1816,1920,2125,2288,2044,1808,1868,2002
833257,-6468,26712,-5826,26942,1340,773,871,247,416,-290,385,4041,33,39,805,1816,1920,2125,2288,2044,1808,1868,2002
834258,-6420,26772,-5761,27007,1362,779,886,210,446,-225,619,4076,41,41,807,1816,1920,2125,2288,2044,1808,1868,2002
835259,-6368,26832,-5696,27072,1328,785,882,187,463,-132,583,3982,47,44,805,1816,1920,2125,2288,2044,1808,1868,2002
836260,-6320,26896,-5631,27137,1399,737,882,168,486,156,610,4048,53,45,803,1816,1920,2125,2288,2044,1808,1868,2002
837261,-6264,26960,-5566,27202,1310,738,863,164,520,127,598,4003,53,35,803,1809,1920,2129,2292,2052,1814,1863,1998
838262,-6204,27012,-5501,27267,1267,905,842,170,534,163,780,4269,37,47,804,1809,1920,2129,2292,2052,1814,1863,1998
839263,-6148,27080,-5436,27332,1328,701,825,189,563,239,652,4225,37,50,805,1809,1920,2129,2292,2052,1814,1863,1998
840264,-6080,27136,-5371,27397,1174,862,812,217,588,534,686,4367,51,51,804,1809,1920,2129,2292,2052,1814,1863,1998
841265,-6040,27220,-5306,27462,1554,489,802,255,602,534,516,4266,38,42,805,1809,1920,2129,2292,2052,1814,1863,1998
842266,-5984,27280,-5241,27527,1366,795,800,307,612,754,496,4352,35,38,805,1809,1920,2129,2292,2052,1814,1863,1998
843267,-5936,27364,-5176,27592,1487,472,815,335,633,637,511,4514,40,42,804,1800,1904,2100,2248,2052,1803,1851,1995
844268,-5872,27400,-5111,27657,1288,1107,817,341,649,418,535,4536,40,50,805,1800,1904,2100,2248,2052,1803,1851,1995
845269,-5800,27456,-5046,27722,1181,868,825,349,675,218,532,4511,53,40,805,1800,1904,2100,2248,2052,1803,1851,1995
846270,-5752,27536,-4981,27787,1502,550,841,360,685,193,694,4651,39,38,802,1800,1904,2100,2248,2052,1803,1851,1995
847271,-5700,27580,-4916,27852,1468,1026,842,387,672,254,532,4633,46,48,805,1800,1904,2100,2248,2052,1803,1851,1995
848272,-5624,27652,-4851,27917,1154,668,830,393,666,283,544,4505,38,34,804,1769,1888,2097,2216,2046,1803,1856,2012
849273,-5576,27712,-4786,27982,1526,824,812,337,661,52,538,4304,50,46,799,1769,1888,2097,2216,2046,1803,1856,2012
850274,-5524,27772,-4721,28047,1492,830,794,261,641,-194,562,4413,34,45,807,1769,1888,2097,2216,2046,1803,1856,2012
851275,-5452,27840,-4656,28112,1233,727,771,222,625,-183,455,4324,52,34,802,1769,1888,2097,2216,2046,1803,1856,2012
852276,-5404,27896,-4591,28177,1555,888,739,206,615,6,650,4143,42,40,802,1769,1888,2097,2216,2046,1803,1856,2012
853277,-5352,27948,-4526,28242,1521,953,690,202,609,74,578,4108,45,48,805,1769,1888,2097,2216,2046,1803,1856,2012
854278,-5288,28016,-4461,28307,1372,750,642,203,603,262,633,4143,49,34,799,1781,1905,2079,2239,2060,1814,1889,2040
855279,-5236,28084,-4396,28372,1539,746,592,215,609,139,727,4076,40,42,800,1781,1905,2079,2239,2060,1814,1889,2040
856280,-5168,28144,-4331,28437,1335,852,551,235,600,276,664,4123,53,40,803,1781,1905,2079,2239,2060,1814,1889,2040
857281,-5116,28188,-4266,28502,1551,1078,530,284,606,417,511,4536,43,42,802,1781,1905,2079,2239,2060,1814,1889,2040
858282,-5052,28264,-4201,28567,1402,665,511,321,619,555,638,4212,37,52,804,1781,1905,2079,2239,2060,1814,1889,2040
859283,-5000,28332,-4136,28632,1569,762,497,344,638,482,510,4319,55,43,798,1792,1904,2116,2259,2116,1856,1904,2080
860284,-4948,28400,-4071,28697,1585,758,493,381,638,488,600,4343,51,42,804,1792,1904,2116,2259,2116,1856,1904,2080
861285,-4880,28484,-4006,28762,1381,535,478,408,635,193,681,4316,42,40,802,1792,1904,2116,2259,2116,1856,1904,2080
862286,-4824,28532,-3941,28827,1543,1006,452,423,629,10,689,4579,57,44,802,1792,1904,2116,2259,2116,1856,1904,2080
863287,-4776,28596,-3876,28892,1664,807,417,405,641,138,468,4493,41,39,806,1792,1904,2116,2259,2116,1856,1904,2080
864288,-4704,28672,-3811,28957,1356,643,416,334,632,91,785,4062,44,42,799,1792,1904,2116,2259,2116,1856,1904,2080
865289,-4644,28756,-3746,29022,1513,520,393,294,628,-440,591,4076,60,42,799,1783,1903,2132,2268,2128,1872,1919,2071
866290,-4588,28816,-3681,29087,1574,826,357,315,620,-259,641,4638,46,51,805,1783,1903,2132,2268,2128,1872,1919,2071
867291,-4520,28888,-3616,29152,1420,669,360,330,622,856,496,5148,44,44,803,1783,1903,2132,2268,2128,1872,1919,2071
868292,-4468,28968,-3551,29217,1637,550,380,354,583,618,1033,4570,59,40,801,1783,1903,2132,2268,2128,1872,1919,2071
869293,-4388,29020,-3486,29282,1269,916,378,334,543,-592,1011,4646,48,37,805,1783,1903,2132,2268,2128,1872,1919,2071
870294,-4324,29076,-3421,29347,1471,877,347,288,495,-292,1052,4161,49,51,801,1743,1859,2083,2215,2071,1827,1869,2015
871295,-4260,29164,-3356,29412,1472,449,302,247,421,195,1362,3973,57,37,802,1743,1859,2083,2215,2071,1827,1869,2015
872296,-4196,29228,-3291,29477,1473,750,250,227,367,20,1131,3892,43,37,801,1743,1859,2083,2215,2071,1827,1869,2015
873297,-4112,29268,-3226,29542,1201,1081,202,235,320,192,1170,4123,49,41,805,1743,1859,2083,2215,2071,1827,1869,2015
874298,-4064,29340,-3161,29607,1672,672,162,284,280,267,878,4014,43,46,803,1743,1859,2083,2215,2071,1827,1869,2015
875299,-4004,29404,-3096,29672,1528,774,150,274,253,250,941,3804,53,39,803,1743,1859,2083,2215,2071,1827,1869,2015
876300,-3932,29480,-3031,29737,1370,610,134,295,230,272,912,4033,56,47,801,1773,1892,2121,2265,2055,1811,1852,2002
877301,-3864,29536,-2966,29802,1417,871,121,307,206,473,922,3648,52,49,802,1773,1892,2121,2265,2055,1811,1852,2002
878302,-3808,29608,-2901,29867,1578,664,106,334,184,328,961,3967,41,51,806,1773,1892,2121,2265,2055,1811,1852,2002
879303,-3744,29672,-2836,29932,1480,765,97,335,171,84,900,3707,40,50,803,1773,1892,2121,2265,2055,1811,1852,2002
880304,-3688,29724,-2771,29997,1591,931,96,332,171,-28,761,3842,51,37,802,1773,1892,2121,2265,2055,1811,1852,2002
881305,-3616,29788,-2706,30062,1382,782,119,322,176,176,772,3935,49,37,803,1783,1913,2123,2249,2033,1805,1849,1991
882306,-3576,29852,-2641,30127,1814,783,139,271,180,159,769,3661,53,49,799,1783,1913,2123,2249,2033,1805,1849,1991
883307,-3504,29916,-2576,30192,1405,784,154,224,189,19,911,3863,46,49,803,1783,1913,2123,2249,2033,1805,1849,1991
884308,-3464,29988,-2511,30257,1836,676,160,175,190,-139,1143,3664,53,50,797,1783,1913,2123,2249,2033,1805,1849,1991
885309,-3408,30064,-2446,30322,1648,612,170,160,184,-142,1222,3786,34,41,803,1783,1913,2123,2249,2033,1805,1849,1991
886310,-3364,30124,-2381,30387,1823,819,168,153,170,117,1315,3895,51,54,798,1783,1913,2123,2249,2033,1805,1849,1991
887311,-3304,30192,-2316,30452,1630,715,168,145,147,242,1335,3720,42,42,799,1765,1881,2085,2229,1995,1761,1819,1948
888312,-3236,30272,-2251,30517,1527,548,158,95,102,367,1506,3538,51,40,795,1765,1881,2085,2229,1995,1761,1819,1948
889313,-3168,30328,-2186,30582,1523,859,140,66,33,201,1522,3789,56,46,801,1765,1881,2085,2229,1995,1761,1819,1948
890314,-3116,30400,-2121,30647,1740,650,129,35,-19,156,1370,3620,39,42,803,1765,1881,2085,2229,1995,1761,1819,1948
891315,-3052,30456,-2056,30712,1591,861,122,76,-77,564,1307,3857,44,54,801,1765,1881,2085,2229,1995,1761,1819,1948
892316,-2988,30540,-1991,30777,1593,488,131,130,-130,729,1286,3766,58,44,799,1736,1861,2063,2231,1983,1739,1797,1919
893317,-2920,30600,-1926,30842,1540,794,141,162,-175,571,1429,3602,42,55,799,1736,1861,2063,2231,1983,1739,1797,1919
894318,-2840,30672,-1861,30907,1372,635,146,182,-205,396,1368,3675,51,44,803,1736,1861,2063,2231,1983,1739,1797,1919
895319,-2764,30740,-1796,30972,1408,682,155,225,-244,688,1263,3872,48,52,802,1736,1861,2063,2231,1983,1739,1797,1919
896320,-2704,30800,-1731,31037,1615,788,162,229,-277,609,1131,3471,55,39,805,1736,1861,2063,2231,1983,1739,1797,1919
897321,-2652,30872,-1666,31102,1731,629,208,166,-287,275,903,3222,58,53,804,1736,1861,2063,2231,1983,1739,1797,1919
898322,-2576,30952,-1601,31167,1419,511,259,160,-300,-862,573,3650,56,43,801,1774,1882,2081,2230,2000,1776,1822,1956
899323,-2504,31024,-1536,31232,1460,603,280,269,-338,-1006,1082,4045,46,54,800,1774,1882,2081,2230,2000,1776,1822,1956
900324,-2440,31092,-1471,31297,1561,650,315,332,-364,326,1121,3491,50,41,805,1774,1882,2081,2230,2000,1776,1822,1956
901325,-2372,31152,-1406,31362,1509,756,322,266,-332,321,863,3229,42,40,804,1774,1882,2081,2230,2000,1776,1822,1956
902326,-2308,31212,-1341,31427,1560,762,316,278,-299,4,1104,3799,58,48,803,1774,1882,2081,2230,2000,1776,1822,1956
903327,-2248,31288,-1276,31492,1616,549,320,279,-297,-357,1271,3243,42,42,803,1776,1888,2111,2276,1996,1776,1818,1960
904328,-2188,31360,-1211,31557,1623,590,313,300,-303,-236,1291,3621,40,46,800,1776,1888,2111,2276,1996,1776,1818,1960
905329,-2112,31432,-1146,31622,1410,581,290,342,-294,462,1305,3623,44,49,801,1776,1888,2111,2276,1996,1776,1818,1960
906330,-2080,31512,-1081,31687,2000,463,281,324,-278,426,1321,3299,41,51,802,1776,1888,2111,2276,1996,1776,1818,1960
907331,-2032,31560,-1016,31752,1822,884,262,337,-280,119,1320,3658,49,48,805,1776,1888,2111,2276,1996,1776,1818,1960
908332,-1976,31648,-951,31817,1733,356,260,375,-280,-10,1340,3634,50,41,797,1776,1888,2111,2276,1996,1776,1818,1960
909333,-1900,31700,-886,31882,1470,822,233,430,-312,480,1516,3627,51,46,796,1803,1903,2119,2279,1999,1783,1830,1959
910334,-1836,31748,-821,31947,1622,892,229,464,-354,942,1509,3650,45,40,802,1803,1903,2119,2279,1999,1783,1830,1959
911335,-1776,31820,-756,32012,1678,584,238,474,-382,768,1358,3667,56,42,803,1803,1903,2119,2279,1999,1783,1830,1959
912336,-1712,31880,-691,32077,1630,740,259,499,-413,290,1140,3917,53,38,800,1803,1903,2119,2279,1999,1783,1830,1959
913337,-1640,31932,-626,32142,1521,857,272,580,-464,292,1248,4000,45,51,801,1803,1903,2119,2279,1999,1783,1830,1959
914338,-1580,32004,-561,32207,1678,598,285,632,-516,788,1215,3941,59,40,801,1768,1858,2076,2220,2018,1788,1827,1967
915339,-1500,32088,-496,32272,1410,425,299,664,-552,780,1078,3957,50,40,801,1768,1858,2076,2220,2018,1788,1827,1967
916340,-1436,32140,-431,32337,1611,841,305,671,-576,557,1111,3893,57,41,800,1768,1858,2076,2220,2018,1788,1827,1967
917341,-1364,32204,-366,32402,1504,692,314,676,-590,125,1092,3813,53,46,806,1768,1858,2076,2220,2018,1788,1827,1967
918342,-1300,32252,-301,32467,1605,913,318,677,-590,-1,1139,3837,44,42,800,1768,1858,2076,2220,2018,1788,1827,1967
919343,-1236,32320,-236,32532,1606,659,308,686,-573,83,1162,3823,52,40,803,1768,1858,2076,2220,2018,1788,1827,1967
920344,-1176,32376,-171,32597,1663,820,292,692,-560,236,1247,3834,42,53,800,1744,1853,2084,2228,2036,1800,1846,1987
921345,-1100,32440,-106,32662,1450,721,268,672,-521,67,1350,3737,55,48,799,1744,1853,2084,2228,2036,1800,1846,1987
922346,-1052,32492,-41,32727,1822,887,230,630,-479,-69,1287,3662,51,46,797,1744,1853,2084,2228,2036,1800,1846,1987
923347,-1000,32548,24,32792,1788,848,187,617,-459,-148,1275,3716,37,53,803,1744,1853,2084,2228,2036,1800,1846,1987
924348,-944,32624,89,32857,1748,585,138,606,-448,111,1296,3603,41,41,796,1744,1853,2084,2228,2036,1800,1846,1987
925349,-860,32696,154,32922,1376,627,102,611,-443,399,1261,3604,59,47,797,1756,1867,2087,2240,2062,1812,1855,2008
926350,-796,32760,219,32987,1628,729,59,635,-436,370,1302,3702,46,44,800,1756,1867,2087,2240,2062,1812,1855,2008
927351,-728,32836,284,33052,1575,565,30,675,-455,602,1291,3849,48,50,805,1756,1867,2087,2240,2062,1812,1855,2008
928352,-672,32876,349,33117,1736,1046,-6,693,-464,749,1096,3686,48,51,801,1756,1867,2087,2240,2062,1812,1855,2008
929353,-592,32932,414,33182,1418,857,-18,729,-493,697,1194,4030,59,53,802,1756,1867,2087,2240,2062,1812,1855,2008
930354,-532,32992,479,33247,1675,813,-25,771,-528,643,1202,3920,53,41,796,1756,1867,2087,2240,2062,1812,1855,2008
931355,-460,33072,544,33312,1516,544,-14,798,-560,719,1216,4044,60,50,802,1759,1874,2090,2214,2098,1843,1855,2015
932356,-400,33156,609,33377,1672,471,-28,771,-590,775,1315,4014,59,53,799,1759,1874,2090,2214,2098,1843,1855,2015
933357,-324,33216,674,33442,1460,777,-34,738,-625,336,1214,3923,44,55,804,1759,1874,2090,2214,2098,1843,1855,2015
934358,-232,33272,739,33507,1227,838,-45,654,-658,128,1262,3801,62,53,803,1759,1874,2090,2214,2098,1843,1855,2015
935359,-156,33344,804,33572,1414,630,-60,575,-681,93,1271,3799,54,41,803,1759,1874,2090,2214,2098,1843,1855,2015
936360,-88,33416,869,33637,1511,621,-76,502,-699,296,1443,3861,56,54,805,1729,1824,2048,2216,2094,1799,1836,2008
937361,-20,33484,934,33702,1507,669,-99,478,-697,-187,1212,3959,57,45,805,1729,1824,2048,2216,2094,1799,1836,2008
938362,52,33564,999,33767,1450,500,-142,511,-687,-29,1335,4165,62,47,802,1729,1824,2048,2216,2094,1799,1836,2008
939363,136,33644,1064,33832,1276,482,-179,547,-677,472,1381,3957,45,52,801,1729,1824,2048,2216,2094,1799,1836,2008
940364,192,33708,1129,33897,1637,683,-214,532,-672,616,1497,3865,53,54,805,1729,1824,2048,2216,2094,1799,1836,2008
941365,264,33776,1194,33962,1430,630,-265,514,-637,204,1327,3883,50,52,808,1729,1824,2048,2216,2094,1799,1836,2008
942366,312,33848,1259,34027,1751,571,-306,521,-603,65,1426,4007,49,42,802,1744,1865,2082,2218,2064,1814,1862,2020
943367,396,33908,1324,34092,1277,727,-377,542,-580,233,1185,4098,53,55,805,1744,1865,2082,2218,2064,1814,1862,2020
944368,476,33992,1389,34157,1310,404,-414,558,-572,522,1258,4016,65,44,800,1744,1865,2082,2218,2064,1814,1862,2020
945369,540,34064,1454,34222,1511,545,-452,507,-597,144,1356,3772,44,48,806,1744,1865,2082,2218,2064,1814,1862,2020
946370,624,34132,1519,34287,1238,592,-465,480,-603,-375,970,3726,46,55,807,1744,1865,2082,2218,2064,1814,1862,2020
947371,680,34208,1584,34352,1600,478,-496,474,-609,106,951,4281,60,56,804,1791,1910,2139,2263,2111,1832,1876,2070
948372,764,34268,1649,34417,1227,684,-513,480,-632,566,950,3988,48,52,807,1791,1910,2139,2263,2111,1832,1876,2070
949373,820,34344,1714,34482,1588,471,-527,449,-672,458,1241,3986,54,55,804,1791,1910,2139,2263,2111,1832,1876,2070
950374,884,34416,1779,34547,1490,512,-530,388,-716,-135,1217,3901,60,59,806,1791,1910,2139,2263,2111,1832,1876,2070
951375,956,34488,1844,34612,1381,504,-538,362,-735,-216,1017,4113,45,45,804,1791,1910,2139,2263,2111,1832,1876,2070
952376,1032,34544,1909,34677,1318,715,-559,368,-741,239,992,4132,49,48,805,1791,1910,2139,2263,2111,1832,1876,2070
953377,1088,34624,1974,34742,1580,397,-575,380,-755,518,1251,4032,64,48,806,1763,1879,2103,2231,2111,1849,1887,2051
954378,1176,34720,2039,34807,1152,160,-599,380,-763,210,1320,3845,63,60,806,1763,1879,2103,2231,2111,1849,1887,2051
955379,1248,34788,2238,35006,1507,670,-620,371,-791,26,1386,3928,62,48,803,1763,1879,2103,2231,2111,1849,1887,2051
956380,1328,34872,2303,35071,1390,446,-645,394,-787,-48,1248,3854,60,58,810,1763,1879,2103,2231,2111,1849,1887,2051
957381,1408,34948,2368,35136,1371,533,-677,450,-768,370,1193,4291,66,57,804,1763,1879,2103,2231,2111,1849,1887,2051
958382,1500,35004,2433,35201,1189,794,-700,516,-745,454,1348,4113,60,49,807,1760,1876,2096,2237,2086,1828,1872,2024
959383,1592,35068,2498,35266,1156,695,-707,520,-756,299,1595,3885,63,45,806,1760,1876,2096,2237,2086,1828,1872,2024
960384,1672,35152,2563,35331,1288,422,-705,510,-742,-213,1238,3981,65,59,806,1760,1876,2096,2237,2086,1828,1872,2024
961385,1744,35224,2628,35396,1381,563,-722,523,-717,-56,973,4150,49,50,808,1760,1876,2096,2237,2086,1828,1872,2024
962386,1816,35304,2693,35461,1372,445,-747,527,-709,256,1045,3931,52,60,809,1760,1876,2096,2237,2086,1828,1872,2024
963387,1912,35388,2758,35526,1034,372,-773,504,-711,-109,1213,3837,55,62,806,1760,1876,2096,2237,2086,1828,1872,2024
964388,2020,35476,2823,35591,833,294,-792,489,-715,-422,1193,3957,59,59,807,1750,1857,2082,2232,2050,1806,1844,1983
965389,2096,35532,2888,35656,1219,705,-800,494,-717,-489,1051,3862,66,46,811,1750,1857,2082,2232,2050,1806,1844,1983
966390,2184,35640,2953,35721,1041,2,-800,518,-702,-143,945,3981,58,59,815,1750,1857,2082,2232,2050,1806,1844,1983
967391,2268,35728,3018,35786,1068,224,-791,510,-691,167,1139,3724,54,50,807,1750,1857,2082,2232,2050,1806,1844,1983
968392,2344,35808,3083,35851,1156,306,-787,498,-709,-99,1089,3870,70,59,814,1750,1857,2082,2232,2050,1806,1844,1983
969393,2436,35868,3148,35916,923,562,-797,537,-711,-348,925,3822,54,50,813,1763,1868,2095,2242,2024,1791,1833,1975
970394,2520,35952,3213,35981,999,239,-797,594,-711,301,1096,3849,53,61,811,1763,1868,2095,2242,2024,1791,1833,1975
971395,2608,36028,3278,36046,922,325,-803,612,-729,396,1076,3459,62,58,812,1763,1868,2095,2242,2024,1791,1833,1975
972396,2688,36112,3343,36111,1004,202,-803,629,-748,28,1033,3552,50,50,811,1763,1868,2095,2242,2024,1791,1833,1975
973397,2788,36200,3408,36176,711,124,-820,662,-761,-26,968,3637,50,60,811,1763,1868,2095,2242,2024,1791,1833,1975
974398,2860,36264,3473,36241,1053,425,-847,697,-765,2,983,3414,65,46,813,1763,1868,2095,2242,2024,1791,1833,1975
975399,2964,36340,3538,36306,606,262,-866,690,-774,112,1229,3259,64,50,816,1781,1884,2104,2256,2018,1778,1828,1968
976400,3044,36416,3603,36371,888,249,-891,677,-795,-92,1117,3213,49,52,811,1781,1884,2104,2256,2018,1778,1828,1968
977401,3120,36488,3668,36436,924,290,-916,678,-795,33,1028,3517,51,48,817,1781,1884,2104,2256,2018,1778,1828,1968
978402,3212,36584,3733,36501,691,-48,-932,670,-784,24,920,3237,56,58,814,1781,1884,2104,2256,2018,1778,1828,1968
979403,3292,36652,3798,36566,823,299,-932,626,-775,-124,995,3161,50,56,814,1781,1884,2104,2256,2018,1778,1828,1968
980404,3392,36728,3863,36631,531,185,-934,606,-777,-212,951,3198,52,54,817,1772,1868,2075,2221,2017,1775,1830,1972
981405,3472,36816,3928,36696,763,7,-918,588,-759,-251,939,3298,50,55,815,1772,1868,2075,2221,2017,1775,1830,1972
982406,3540,36884,3993,36761,909,253,-907,563,-746,-191,933,3210,62,50,818,1772,1868,2075,2221,2017,1775,1830,1972
983407,3632,36968,4058,36826,577,30,-898,536,-737,-275,874,3165,63,59,817,1772,1868,2075,2221,2017,1775,1830,1972
984408,3712,37040,4123,36891,708,172,-870,518,-717,-185,855,3288,58,49,814,1772,1868,2075,2221,2017,1775,1830,1972
985409,3808,37100,4188,36956,470,328,-839,489,-700,-287,897,3044,62,47,819,1772,1868,2075,2221,2017,1775,1830,1972
986410,3896,37184,4253,37021,543,5,-822,468,-694,-169,879,3206,48,46,817,1725,1834,2032,2168,2012,1761,1815,1962
987411,3980,37264,4318,37086,570,36,-812,459,-673,-166,760,3118,45,53,818,1725,1834,2032,2168,2012,1761,1815,1962
988412,4072,37348,4383,37151,437,-37,-813,447,-677,-109,848,2919,47,44,819,1725,1834,2032,2168,2012,1761,1815,1962
989413,4144,37416,4448,37216,679,159,-812,422,-687,-312,827,2826,60,38,817,1725,1834,2032,2168,2012,1761,1815,1962
990414,4212,37484,4513,37281,725,156,-825,387,-696,-133,806,2849,47,41,818,1725,1834,2032,2168,2012,1761,1815,1962
991415,4300,37552,4578,37346,447,151,-856,345,-696,26,724,2689,43,42,817,1725,1834,2031,2172,1981,1731,1797,1938
992416,4380,37628,4643,37411,529,38,-882,317,-704,-93,759,2695,44,50,817,1725,1834,2031,2172,1981,1731,1797,1938
993417,4440,37700,4708,37476,785,79,-906,288,-717,-250,787,2659,44,48,819,1725,1834,2031,2172,1981,1731,1797,1938
994418,4532,37764,4773,37541,352,180,-911,275,-739,-44,699,2785,60,55,819,1725,1834,2031,2172,1981,1731,1797,1938
995419,4624,37840,4838,37606,320,17,-910,226,-743,-75,679,2507,51,42,816,1725,1834,2031,2172,1981,1731,1797,1938
996420,4692,37912,4903,37671,616,58,-906,185,-740,-425,671,2555,52,39,820,1739,1842,2031,2172,1981,1731,1797,1938
997421,4792,37980,4968,37736,173,105,-892,171,-737,-355,577,2688,45,50,821,1739,1842,2038,2181,1967,1726,1790,1931
998422,4872,38036,5033,37801,405,266,-885,151,-725,-119,579,2705,55,53,818,1739,1842,2038,2181,1967,1726,1790,1931
999423,4940,38096,5098,37866,551,222,-869,122,-705,-163,561,2687,40,46,821,1739,1842,2038,2181,1967,1726,1790,1931
1000424,5016,38188,5163,37931,438,-211,-851,73,-687,-258,520,2478,45,44,819,1739,1842,2038,2181,1967,1726,1790,1931
1001425,5108,38256,5228,37996,205,85,-842,22,-675,-555,360,2505,54,38,819,1739,1842,2038,2181,1967,1726,1790,1931
1002426,5196,38328,5293,38061,227,26,-842,-9,-662,-478,475,2734,43,39,819,1731,1835,2031,2180,1964,1726,1788,1924
1003427,5280,38396,5358,38126,254,72,-840,-39,-668,-225,450,2583,44,50,821,1731,1835,2031,2180,1964,1726,1788,1924
1004428,5356,38468,5423,38191,340,13,-839,-65,-662,-162,445,2484,42,49,822,1731,1835,2031,2180,1964,1726,1788,1924
1005429,5432,38560,5488,38256,327,-270,-836,-94,-654,-322,506,2488,53,38,821,1731,1835,2031,2180,1964,1726,1788,1924
1006431,5516,38656,5553,38321,204,-357,-834,-99,-646,-291,591,2700,51,50,819,1731,1835,2031,2180,1964,1726,1788,1924
1007431,5592,38728,5618,38386,290,-66,-819,-102,-642,-248,529,2668,53,34,818,1728,1829,2020,2171,1958,1720,1788,1918
1008432,5684,38784,5683,38451,57,145,-802,-99,-625,-164,703,2856,38,33,819,1728,1829,2020,2171,1958,1720,1788,1918
1009433,5760,38844,5748,38516,244,101,-779,-97,-614,-233,692,2747,49,43,821,1728,1829,2020,2171,1958,1720,1788,1918
1010434,5844,38912,5813,38581,121,-3,-746,-98,-601,-449,667,2752,50,47,822,1728,1829,2020,2171,1958,1720,1788,1918
1011435,5912,38972,5878,38646,317,103,-725,-91,-602,-186,597,2904,53,38,821,1728,1829,2020,2171,1958,1720,1788,1918
1012436,5984,39028,5943,38711,258,164,-698,-79,-610,-92,620,2901,43,50,822,1728,1829,2020,2171,1958,1720,1788,1918
1013437,6080,39088,6008,38776,-79,120,-677,-79,-617,-275,401,2877,51,34,821,1728,1828,2020,2178,1952,1716,1782,1908
1014438,6164,39144,6073,38841,47,181,-651,-71,-623,-184,441,2877,56,34,821,1728,1828,2020,2178,1952,1716,1782,1908
1015439,6252,39212,6138,38906,-31,27,-631,-82,-637,-240,394,2686,53,38,819,1728,1828,2020,2178,1952,1716,1782,1908
1016440,6320,39284,6203,38971,216,-32,-622,-68,-651,-385,312,2880,54,42,822,1728,1828,2020,2178,1952,1716,1782,1908
1017441,6396,39356,6268,39036,102,-40,-610,-38,-663,-72,211,2950,35,37,823,1728,1828,2020,2178,1952,1716,1782,1908
1018442,6492,39416,6333,39101,-186,116,-597,-36,-666,-71,147,2778,35,39,822,1748,1844,2042,2212,1943,1715,1778,1899
1019443,6564,39472,6398,39166,106,176,-591,-19,-669,-145,215,3010,51,55,822,1748,1844,2042,2212,1943,1715,1778,1899
1020444,6660,39548,6463,39231,-232,-87,-568,-8,-667,-240,312,2830,39,40,810,1748,1844,2042,2212,1943,1715,1778,1899
1021445,6736,39632,6528,39296,5,-211,-559,12,-668,-178,187,3257,52,40,821,1748,1844,2042,2212,1943,1715,1778,1899
1022446,6808,39672,6593,39361,46,370,-550,30,-671,-270,145,3021,41,37,822,1748,1844,2042,2212,1943,1715,1778,1899
1023447,6896,39756,6658,39426,-183,-203,-536,42,-664,-24,243,3206,54,39,820,1748,1844,2042,2212,1943,1715,1778,1899
1024448,6964,39820,6723,39491,63,48,-514,58,-650,-177,238,3018,41,38,819,1739,1845,2061,2209,1944,1725,1789,1909
