%  Data file recorded 2016/7/9  22:55:21
%  Stride Frequency         = [1, 1]
%  Lead In /Lead Out        = 
%  Deltas (Fractional)      = [0.25, 0.25, 0.25],[0.25, 0.25, 0.25]
%  Phase                    = 32768
%  Experiment.py 
%  Motor Gains    = [-5000, -400, -200, 0, -300, -5000, -400, -200, 0, -300]
% Columns: 
% time | Right Leg Pos | Left Leg Pos | Commanded Right Leg Pos | Commanded Left Leg Pos | DCR | DCL | GyroX | GyroY | GyroZ | AX | AY | AZ | RBEMF | LBEMF | VBatt | S1 | S2 | S3 | S4 | S5 | S6 | S7 | S8
93,25348,-57124,0,0,3800,-3800,-65,-84,-1,-87,-132,3889,9,8,912,1582,1725,2008,2180,2074,1872,1894,2030
1094,25356,-57116,0,0,3800,-3800,-64,-85,1,-96,-109,3892,7,-5,912,1582,1725,2008,2180,2074,1872,1894,2030
2095,25368,-57120,0,0,3800,-3800,-63,-82,2,-80,-117,3931,10,8,912,1582,1725,2008,2180,2074,1872,1894,2030
3096,25356,-57112,0,0,3800,-3800,-64,-81,2,-71,-134,3900,11,1,912,1582,1725,2008,2180,2074,1872,1894,2030
4097,25352,-57116,0,0,3800,-3800,-65,-81,2,-80,-122,3911,10,0,912,1581,1723,2007,2177,2074,1873,1894,2031
5098,25364,-57120,0,0,3800,-3800,-66,-84,2,-73,-149,3909,10,6,912,1581,1723,2007,2177,2074,1873,1894,2031
6099,25352,-57124,0,0,3800,-3800,-66,-82,3,-77,-126,3910,9,-5,912,1581,1723,2007,2177,2074,1873,1894,2031
7100,25372,-57124,0,0,3800,-3800,-65,-79,2,-79,-135,3920,5,6,912,1581,1723,2007,2177,2074,1873,1894,2031
8101,25356,-57112,0,0,3800,-3800,-63,-81,3,-56,-123,3920,11,1,912,1581,1723,2007,2177,2074,1873,1894,2031
9102,25360,-57124,0,0,3800,-3800,-64,-81,3,-68,-136,3914,10,-5,912,1581,1723,2007,2177,2074,1873,1894,2031
10103,25352,-57120,0,0,3800,-3800,-66,-80,2,-75,-127,3918,10,8,912,1581,1723,2007,2177,2073,1872,1895,2031
11104,25356,-57132,0,0,3800,-3800,-67,-82,1,-58,-135,3933,4,-6,912,1581,1723,2007,2177,2073,1872,1895,2031
12105,25356,-57116,0,0,3800,-3800,-66,-83,2,-58,-144,3912,5,3,912,1581,1723,2007,2177,2073,1872,1895,2031
13106,25360,-57128,0,0,3800,-3800,-65,-83,0,-53,-132,3918,3,-2,912,1581,1723,2007,2177,2073,1872,1895,2031
14107,25356,-57120,0,0,3800,-3800,-63,-82,-1,-74,-117,3948,1,3,912,1581,1723,2007,2177,2073,1872,1895,2031
15108,25360,-57124,0,0,3800,-3800,-63,-81,-2,-74,-132,3898,4,5,912,1581,1723,2007,2175,2074,1874,1895,2033
16109,25368,-57120,0,0,3800,-3800,-64,-79,-1,-68,-129,3895,4,-6,912,1581,1723,2007,2175,2074,1874,1895,2033
17110,25356,-57124,0,0,3800,-3800,-64,-78,-1,-61,-138,3874,-6,8,912,1581,1723,2007,2175,2074,1874,1895,2033
18111,25368,-57132,0,0,3800,-3800,-65,-78,-2,-59,-128,3865,-6,0,912,1581,1723,2007,2175,2074,1874,1895,2033
19112,25364,-57120,0,0,3800,-3800,-66,-79,-3,-70,-123,3912,0,7,911,1581,1723,2007,2175,2074,1874,1895,2033
20113,25348,-57112,0,0,3800,-3800,-65,-80,0,-62,-130,3914,-6,-5,911,1581,1723,2007,2175,2074,1874,1895,2033
21114,25372,-57124,0,0,3800,-3800,-65,-80,2,-74,-127,3905,-9,8,912,1581,1724,2007,2177,2073,1871,1894,2031
22115,25360,-57124,0,0,3800,-3800,-67,-82,2,-71,-154,3929,-8,-6,912,1581,1724,2007,2177,2073,1871,1894,2031
23116,25348,-57128,0,0,3800,-3800,-65,-84,0,-56,-128,3897,-7,9,912,1581,1724,2007,2177,2073,1871,1894,2031
24117,25364,-57112,0,0,3800,-3800,-66,-82,2,-71,-103,3901,-5,-5,912,1581,1724,2007,2177,2073,1871,1894,2031
25118,25360,-57120,0,0,3800,-3800,-65,-79,1,-82,-130,3905,-5,7,912,1581,1724,2007,2177,2073,1871,1894,2031
26119,25356,-57124,0,0,3800,-3800,-65,-80,0,-57,-134,3877,5,-5,912,1582,1724,2008,2177,2073,1872,1894,2030
27120,25352,-57120,0,0,3800,-3800,-65,-83,1,-58,-120,3871,1,2,912,1582,1724,2008,2177,2073,1872,1894,2030
28121,25368,-57120,0,0,3800,-3800,-66,-82,2,-62,-120,3906,8,-2,912,1582,1724,2008,2177,2073,1872,1894,2030
29122,25368,-57132,0,0,3800,-3800,-65,-81,-1,-67,-137,3942,10,4,912,1582,1724,2008,2177,2073,1872,1894,2030
30123,25348,-57120,0,0,3800,-3800,-64,-82,-2,-72,-143,3914,10,1,912,1582,1724,2008,2177,2073,1872,1894,2030
31124,25360,-57120,0,0,3800,-3800,-66,-82,1,-92,-133,3909,7,2,912,1582,1724,2008,2177,2073,1872,1894,2030
32125,25368,-57128,0,0,3800,-3800,-68,-81,0,-68,-117,3941,4,1,912,1581,1723,2007,2177,2073,1873,1894,2031
33126,25360,-57120,0,0,3800,-3800,-64,-83,0,-52,-121,3933,5,-4,912,1581,1723,2007,2177,2073,1873,1894,2031
34127,25360,-57128,0,0,3800,-3800,-63,-83,-1,-60,-133,3917,5,6,912,1581,1723,2007,2177,2073,1873,1894,2031
35131,25364,-57120,0,0,3800,-3800,-64,-81,-1,-46,-121,3926,-6,-6,912,1581,1723,2007,2177,2073,1873,1894,2031
36129,25360,-57120,0,0,3800,-3800,-66,-81,-1,-59,-118,3932,-3,8,911,1581,1723,2007,2177,2073,1873,1894,2031
37130,25368,-57120,0,0,3800,-3800,-67,-83,-2,-54,-121,3903,-2,-5,911,1582,1723,2007,2177,2073,1873,1894,2031
38131,25364,-57120,0,0,3800,-3800,-66,-85,1,-80,-128,3913,-8,8,912,1582,1723,2007,2177,2073,1873,1894,2031
39132,25356,-57120,0,0,3800,-3800,-64,-83,2,-65,-122,3946,-9,-6,912,1582,1723,2007,2177,2073,1873,1894,2031
40133,25360,-57124,0,0,3800,-3800,-65,-82,-1,-65,-144,3928,-8,8,912,1582,1723,2007,2177,2073,1873,1894,2031
41134,25360,-57124,0,0,3800,-3800,-65,-82,-1,-59,-142,3917,-4,-6,912,1582,1723,2007,2177,2073,1873,1894,2031
42135,25352,-57124,0,0,3800,-3800,-66,-83,0,-78,-146,3899,0,6,912,1582,1723,2007,2177,2073,1873,1894,2031
43136,25360,-57116,0,0,3800,-3800,-67,-82,5,-71,-122,3912,2,-4,912,1582,1723,2007,2177,2071,1870,1893,2031
44137,25364,-57132,0,0,3800,-3800,-68,-82,5,-83,-131,3919,10,3,912,1582,1723,2007,2177,2071,1870,1893,2031
45138,25356,-57124,0,0,3800,-3800,-65,-83,3,-76,-153,3910,9,8,912,1582,1723,2007,2177,2071,1870,1893,2031
46139,25356,-57112,0,0,3800,-3800,-67,-83,-1,-61,-143,3924,8,-6,912,1582,1723,2007,2177,2071,1870,1893,2031
47140,25364,-57124,0,0,3800,-3800,-66,-80,0,-56,-113,3895,10,4,912,1582,1723,2007,2177,2071,1870,1893,2031
48141,25360,-57108,0,0,3800,-3800,-66,-83,1,-72,-139,3878,8,7,912,1582,1724,2008,2177,2073,1872,1894,2031
49142,25360,-57136,0,0,3800,-3800,-67,-83,0,-71,-115,3911,8,-6,912,1582,1724,2008,2177,2073,1872,1894,2031
50143,25368,-57124,0,0,3800,-3800,-66,-85,2,-48,-114,3900,5,7,912,1582,1724,2008,2177,2073,1872,1894,2031
51144,25356,-57124,0,0,3800,-3800,-65,-83,1,-46,-133,3906,2,6,912,1582,1724,2008,2177,2073,1872,1894,2031
52145,25356,-57124,0,0,3800,-3800,-63,-82,-1,-37,-122,3928,4,-6,912,1582,1724,2008,2177,2073,1872,1894,2031
53146,25368,-57112,0,0,3800,-3800,-63,-83,-1,-54,-134,3939,6,8,912,1582,1724,2008,2177,2073,1872,1894,2031
54147,25364,-57112,0,0,3800,-3800,-66,-84,1,-61,-137,3917,7,-5,911,1583,1725,2009,2180,2076,1872,1896,2032
55148,25364,-57124,0,0,3800,-3800,-66,-80,1,-59,-146,3913,8,4,912,1583,1725,2009,2180,2076,1872,1896,2032
56149,25360,-57128,0,0,3800,-3800,-66,-79,2,-63,-121,3928,6,0,912,1583,1725,2009,2180,2076,1872,1896,2032
57150,25356,-57132,0,0,3800,-3800,-66,-80,1,-88,-122,3888,10,-5,912,1583,1725,2009,2180,2076,1872,1896,2032
58151,25352,-57132,0,0,3800,-3800,-66,-83,0,-86,-134,3911,10,8,912,1583,1725,2009,2180,2076,1872,1896,2032
59152,25356,-57120,0,0,3800,-3800,-65,-85,-2,-53,-135,3902,6,-6,912,1581,1723,2007,2177,2072,1871,1894,2030
60153,25360,-57116,0,0,3800,-3800,-67,-85,-1,-82,-135,3922,10,1,912,1581,1723,2007,2177,2072,1871,1894,2030
61154,25364,-57120,0,0,3800,-3800,-70,-84,2,-72,-136,3937,11,3,912,1581,1723,2007,2177,2072,1871,1894,2030
62155,25364,-57128,0,0,3800,-3800,-69,-82,-1,-70,-116,3907,10,-3,912,1581,1723,2007,2177,2072,1871,1894,2030
63156,25364,-57120,0,0,3800,-3800,-66,-83,-2,-73,-128,3922,7,8,912,1581,1723,2007,2177,2072,1871,1894,2030
64157,25360,-57120,0,0,3800,-3800,-66,-82,0,-93,-106,3938,-1,-4,912,1581,1723,2007,2177,2072,1871,1894,2030
65158,25360,-57112,0,0,3800,-3800,-68,-80,1,-84,-100,3878,1,3,912,1581,1724,2006,2177,2072,1872,1893,2030
66159,25368,-57124,0,0,3800,-3800,-70,-81,0,-82,-122,3867,-6,6,912,1581,1724,2006,2177,2072,1872,1893,2030
67160,25356,-57120,0,0,3800,-3800,-65,-82,0,-70,-125,3916,-5,-4,912,1581,1724,2006,2177,2072,1872,1893,2030
68161,25364,-57116,0,0,3800,-3800,-63,-81,0,-47,-118,3881,3,8,912,1581,1724,2006,2177,2072,1872,1893,2030
69162,25356,-57124,0,0,3800,-3800,-64,-82,0,-39,-129,3886,6,-2,912,1581,1724,2006,2177,2072,1872,1893,2030
70163,25356,-57124,0,0,3800,-3800,-66,-82,2,-32,-142,3881,2,6,911,1581,1723,2007,2177,2072,1872,1894,2031
71164,25368,-57140,0,0,3800,-3800,-67,-82,0,-26,-139,3872,3,-3,911,1581,1723,2007,2177,2072,1872,1894,2031
72165,25356,-57128,0,0,3800,-3800,-66,-82,-1,-55,-129,3886,-2,-3,912,1581,1723,2007,2177,2072,1872,1894,2031
73166,25372,-57120,0,0,3800,-3800,-65,-82,-2,-60,-130,3894,-5,8,912,1581,1723,2007,2177,2072,1872,1894,2031
74167,25364,-57128,0,0,3800,-3800,-66,-82,-1,-53,-128,3912,-3,-6,912,1581,1723,2007,2177,2072,1872,1894,2031
75168,25360,-57116,0,0,3800,-3800,-65,-83,0,-67,-114,3895,-3,4,912,1581,1723,2007,2177,2072,1872,1894,2031
76169,25360,-57112,0,0,3800,-3800,-63,-82,3,-73,-133,3910,-8,-1,912,1581,1724,2007,2178,2073,1873,1895,2031
77170,25368,-57132,0,0,3800,-3800,-63,-84,0,-81,-139,3956,-6,-2,912,1581,1724,2007,2178,2073,1873,1895,2031
78171,25352,-57132,0,0,3800,-3800,-63,-83,-4,-61,-133,3932,-7,7,912,1581,1724,2007,2178,2073,1873,1895,2031
79172,25364,-57120,0,0,3800,-3800,-64,-80,-3,-53,-142,3935,-6,0,912,1581,1724,2007,2178,2073,1873,1895,2031
80173,25360,-57124,0,0,3800,-3800,-64,-78,-1,-46,-127,3912,5,-3,912,1581,1724,2007,2178,2073,1873,1895,2031
81174,25364,-57124,0,0,3800,-3800,-64,-79,1,-43,-135,3918,9,8,912,1582,1723,2003,2175,2071,1871,1895,2031
82175,25360,-57132,0,0,3800,-3800,-66,-80,2,-59,-126,3913,11,-1,912,1582,1723,2003,2175,2071,1871,1895,2031
83176,25360,-57116,0,0,3800,-3800,-65,-82,0,-64,-116,3916,-3,-1,912,1582,1723,2003,2175,2071,1871,1895,2031
84177,25360,-57120,0,0,3800,-3800,-65,-83,0,-68,-125,3933,-5,8,912,1582,1723,2003,2175,2071,1871,1895,2031
85179,25356,-57128,0,0,3800,-3800,-65,-82,-2,-78,-140,3933,-8,-3,912,1582,1723,2003,2175,2071,1871,1895,2031
86179,25360,-57132,0,0,3800,-3800,-64,-82,-1,-58,-133,3880,3,0,912,1582,1723,2003,2175,2071,1871,1895,2031
87180,25364,-57136,0,0,3800,-3800,-64,-81,0,-31,-130,3904,-1,8,911,1582,1723,2007,2177,2073,1872,1894,2031
88181,25360,-57120,0,0,3800,-3800,-66,-79,-1,-56,-125,3873,1,-2,911,1582,1723,2007,2177,2073,1872,1894,2031
89182,25364,-57120,0,0,3800,-3800,-66,-80,0,-78,-127,3881,9,5,912,1582,1723,2007,2177,2073,1872,1894,2031
90183,25352,-57128,0,0,3800,-3800,-65,-84,0,-68,-138,3905,10,-6,912,1582,1723,2007,2177,2073,1872,1894,2031
91184,25372,-57120,0,0,3800,-3800,-64,-83,1,-55,-138,3916,9,8,912,1582,1723,2007,2177,2073,1872,1894,2031
92185,25348,-57120,0,0,3800,-3800,-64,-80,0,-44,-114,3892,9,-1,912,1582,1723,2007,2180,2074,1872,1896,2032
93186,25360,-57136,0,0,3800,-3800,-69,-80,1,-64,-105,3897,2,-6,912,1582,1723,2007,2180,2074,1872,1896,2032
94187,25360,-57136,0,0,3800,-3800,-68,-81,0,-74,-114,3912,0,2,912,1582,1723,2007,2180,2074,1872,1896,2032
95188,25360,-57128,0,0,3800,-3800,-65,-83,-1,-66,-111,3919,-9,8,912,1582,1723,2007,2180,2074,1872,1896,2032
96189,25356,-57124,0,0,3800,-3800,-62,-85,-2,-61,-132,3893,-9,1,912,1582,1723,2007,2180,2074,1872,1896,2032
97190,25364,-57124,0,0,3800,-3800,-65,-84,-1,-74,-136,3911,-9,-6,912,1582,1723,2007,2180,2074,1872,1896,2032
98191,25372,-57128,0,0,3800,-3800,-70,-83,2,-59,-127,3895,-1,6,912,1582,1723,2007,2177,2072,1871,1894,2030
99192,25364,-57128,0,0,3800,-3800,-69,-83,3,-70,-142,3913,-2,7,912,1582,1723,2007,2177,2072,1871,1894,2030
100193,25360,-57116,65,65,3800,-3800,-67,-83,2,-75,-146,3911,-6,-6,912,1582,1723,2007,2177,2072,1871,1894,2030
101194,25344,-57128,130,130,3800,-3800,-64,-83,0,-85,-113,3917,-1,-255,912,1582,1723,2007,2177,2072,1871,1894,2030
102195,25300,-57136,195,195,3800,-3800,-63,-84,-1,-70,-49,3811,309,-252,834,1582,1723,2007,2177,2072,1871,1894,2030
103196,25176,-57056,260,260,3800,-3800,-63,-130,-22,-338,197,3444,332,-290,839,1582,1723,2006,2177,2072,1869,1891,2028
104197,25032,-56948,325,325,3800,-3800,-62,-191,-31,-838,-110,3719,302,-289,841,1582,1723,2006,2177,2072,1869,1891,2028
105198,24840,-56796,390,390,3800,-3800,-39,-226,-26,-645,205,4252,322,-285,846,1582,1723,2006,2177,2072,1869,1891,2028
106199,24560,-56560,455,455,3800,-3800,-2,-268,-48,-144,505,4450,330,-304,851,1582,1723,2006,2177,2072,1869,1891,2028
107200,24288,-56296,520,520,3800,-3800,22,-369,-99,-144,466,4614,341,-316,856,1582,1723,2006,2177,2072,1869,1891,2028
108201,23968,-56044,585,585,3800,-3800,5,-328,-179,-187,579,5114,323,-317,859,1582,1723,2006,2177,2072,1869,1891,2028
109202,23616,-55744,650,650,3800,-3800,3,-144,-242,229,77,5422,348,-316,863,1583,1727,2011,2179,2071,1871,1899,2045
110203,23252,-55424,715,715,3800,-3800,25,-33,-266,920,322,4695,350,-338,864,1583,1727,2011,2179,2071,1871,1899,2045
111204,22816,-55092,780,780,3800,-3800,46,-22,-299,436,316,4480,347,-317,866,1583,1727,2011,2179,2071,1871,1899,2045
112205,22416,-54708,845,845,3800,-3800,39,85,-365,-1206,223,5228,324,-311,870,1583,1727,2011,2179,2071,1871,1899,2045
113206,21968,-54324,910,910,3800,-3800,45,11,-363,-532,736,3922,347,-335,872,1583,1727,2011,2179,2071,1871,1899,2045
114207,21460,-53932,975,975,3800,-3800,-13,50,-351,-603,-669,5131,350,-333,875,1621,1781,2075,2251,2089,1905,1926,2070
115208,21036,-53532,1040,1040,3800,-3800,-104,115,-407,-1976,289,5060,333,-322,875,1621,1781,2075,2251,2089,1905,1926,2070
116209,20616,-53108,1105,1105,3800,-3800,-199,25,-312,-970,-738,5599,349,-325,875,1621,1781,2075,2251,2089,1905,1926,2070
117210,20104,-52676,1170,1170,3800,-3800,-337,29,-158,-2606,-440,5260,350,-340,878,1621,1781,2075,2251,2089,1905,1926,2070
118211,19620,-52176,1235,1235,3800,-3800,-415,-36,-128,-509,-344,6167,335,-327,878,1621,1781,2075,2251,2089,1905,1926,2070
119212,19108,-51708,1300,1300,3800,-3800,-464,157,-102,-1613,-607,7265,339,-331,880,1700,1877,2188,2373,2157,1977,2005,2175
120213,18624,-51240,1365,1365,3800,-3800,-497,273,-84,-272,-1208,7695,355,-342,881,1700,1877,2188,2373,2157,1977,2005,2175
121214,18140,-50764,1430,1430,3800,-3800,-490,404,-22,298,-1514,6328,338,-346,881,1700,1877,2188,2373,2157,1977,2005,2175
122215,17624,-50300,1495,1495,3800,-3800,-534,441,5,-717,-975,7852,336,-335,881,1700,1877,2188,2373,2157,1977,2005,2175
123216,17136,-49776,1560,1560,3800,-3800,-503,700,-52,481,-1678,7351,342,-351,885,1700,1877,2188,2373,2157,1977,2005,2175
124217,16652,-49264,1625,1625,3800,-3800,-592,746,-36,-1429,-1270,7523,368,-348,882,1700,1877,2188,2373,2157,1977,2005,2175
125218,16124,-48740,1690,1690,3800,-3800,-586,777,-22,-1317,-1577,5239,357,-334,882,1805,1991,2322,2509,2342,2119,2160,2344
126219,15656,-48256,1755,1755,3800,-3800,-657,641,-86,-2540,-1484,6911,343,-347,883,1805,1991,2322,2509,2342,2119,2160,2344
127220,15116,-47780,1820,1820,3800,-3800,-664,548,-66,-2487,-1303,5874,337,-348,881,1805,1991,2322,2509,2342,2119,2160,2344
128221,14636,-47276,1885,1885,3800,-3800,-751,429,-68,-71,-1412,6410,345,-344,880,1805,1991,2322,2509,2342,2119,2160,2344
129222,14152,-46772,1950,1950,3800,-3800,-763,441,25,-133,-1585,6045,344,-319,878,1805,1991,2322,2509,2342,2119,2160,2344
130223,13668,-46360,2015,2015,3800,-3800,-826,456,98,-547,-971,6943,342,-329,878,1901,2079,2375,2567,2375,2115,2181,2334
131224,13208,-45892,2080,2080,3800,-3800,-963,644,209,405,-3081,6884,356,-329,876,1901,2079,2375,2567,2375,2115,2181,2334
132225,12736,-45432,2145,2145,3800,-3800,-1085,921,316,-172,-845,9350,359,-331,875,1901,2079,2375,2567,2375,2115,2181,2334
133227,12308,-45032,2210,2210,3800,-3800,-1058,1269,478,1455,-2281,7280,352,-325,873,1901,2079,2375,2567,2375,2115,2181,2334
134227,11904,-44520,2275,2275,3800,-3800,-1128,1481,482,2027,-2791,10041,347,-320,871,1901,2079,2375,2567,2375,2115,2181,2334
135229,11396,-44104,2340,2340,3800,-3800,-1200,1592,618,-1371,-1534,8195,354,-321,872,1901,2079,2375,2567,2375,2115,2181,2334
136229,10996,-43756,2405,2405,3800,-3800,-1220,1743,842,-447,-2395,10267,371,-312,870,1835,2002,2242,2410,2268,2014,2082,2218
137230,10560,-43424,2470,2470,3800,-3800,-1243,1747,964,400,-3141,7919,342,-324,870,1835,2002,2242,2410,2268,2014,2082,2218
138231,10072,-43028,2535,2535,2931,-3800,-1312,1562,1128,-3163,-2397,10490,334,-309,867,1835,2002,2242,2410,2268,2014,2082,2218
139232,9628,-42704,2600,2600,2863,-3800,-1274,1527,1361,-3062,-2062,8388,362,-320,875,1835,2002,2242,2410,2268,2014,2082,2218
140233,9168,-42424,2665,2665,2025,-3800,-1104,1580,1496,299,-3556,6279,234,-322,874,1835,2002,2242,2410,2268,2014,2082,2218
141234,8732,-42060,2730,2730,1715,-3800,-1024,1202,1450,-1758,-2906,7741,223,-323,877,1739,1906,2206,2414,2286,2040,2088,2228
142235,8328,-41716,2795,2795,1545,-3800,-947,1068,1582,-3648,-2503,6681,245,-327,878,1739,1906,2206,2414,2286,2040,2088,2228
143236,7848,-41408,2860,2860,-68,-3800,-716,1000,1798,-1632,-1528,6457,228,-309,878,1739,1906,2206,2414,2286,2040,2088,2228
144237,7412,-41124,2925,2925,-128,-3800,-584,934,1821,3552,-1370,4989,211,-307,881,1739,1906,2206,2414,2286,2040,2088,2228
145238,7020,-40812,2990,2990,-134,-3800,-575,850,1872,-1792,-1507,6651,212,-325,877,1739,1906,2206,2414,2286,2040,2088,2228
146239,6584,-40508,3055,3055,-1294,-3800,-596,798,1875,-1230,-598,2977,216,-322,875,1739,1906,2206,2414,2286,2040,2088,2228
147240,6188,-40240,3120,3120,-1355,-3800,-453,966,2067,2132,172,5319,226,-303,881,1914,2104,2398,2627,2173,1895,1991,2112
148241,5780,-40020,3185,3185,-2082,-3800,-302,1108,2135,3837,2,3216,215,-328,879,1914,2104,2398,2627,2173,1895,1991,2112
149242,5396,-39812,3250,3250,-2329,-3800,-236,1003,2203,1457,-453,3425,200,-311,880,1914,2104,2398,2627,2173,1895,1991,2112
150243,5020,-39668,3315,3315,-2766,-3800,-173,820,2275,-2340,390,4063,199,-316,879,1914,2104,2398,2627,2173,1895,1991,2112
151244,4636,-39476,3380,3380,-3413,-3800,-92,530,2394,-464,10,2791,183,-324,878,1914,2104,2398,2627,2173,1895,1991,2112
152245,4304,-39220,3445,3445,-3248,-3800,-18,367,2553,647,299,4365,191,-343,878,2051,2211,2380,2566,1822,1600,1743,1824
153246,3948,-39020,3510,3510,-3800,-3800,210,237,2744,68,921,3124,192,-303,877,2051,2211,2380,2566,1822,1600,1743,1824
154247,3632,-38824,3575,3575,-3800,-3800,419,-32,2868,727,224,2855,176,-322,876,2051,2211,2380,2566,1822,1600,1743,1824
155248,3296,-38648,3640,3640,-3800,-3800,643,-324,2967,-980,519,4120,187,-320,877,2051,2211,2380,2566,1822,1600,1743,1824
156249,2944,-38468,3705,3705,-3800,-3800,842,-755,3062,-1296,1255,3178,177,-319,876,2051,2211,2380,2566,1822,1600,1743,1824
157250,2600,-38308,3770,3770,-3800,-3800,1056,-1172,3202,-545,635,3708,182,-321,877,2051,2211,2380,2566,1822,1600,1743,1824
158251,2300,-38192,3835,3835,-3800,-3800,1276,-1406,3314,-1100,708,4185,180,-341,877,1846,2013,2115,2243,1580,1397,1544,1656
159252,1952,-37956,3900,3900,-3800,-3800,1510,-1695,3322,98,1186,4012,175,-299,877,1846,2013,2115,2243,1580,1397,1544,1656
160253,1652,-37756,3965,3965,-3800,-3800,1831,-1961,3480,-435,2046,2268,162,-295,876,1846,2013,2115,2243,1580,1397,1544,1656
161254,1304,-37508,4030,4030,-3800,-3800,2203,-2083,3601,38,1997,2088,161,-325,876,1846,2013,2115,2243,1580,1397,1544,1656
162255,1040,-37308,4095,4095,-3800,-3800,2507,-2389,3623,1507,1620,1537,171,-311,876,1846,2013,2115,2243,1580,1397,1544,1656
163256,728,-37088,4160,4160,-3800,-3800,2724,-2744,3684,-262,2336,1060,172,-326,896,1775,1981,2101,2228,1576,1403,1577,1708
164257,412,-36924,4225,4225,-3800,-3800,2958,-2968,3753,-1721,2283,1311,162,-316,879,1775,1981,2101,2228,1576,1403,1577,1708
165258,128,-36792,4290,4290,-3800,-3800,3167,-3194,3796,1193,2491,1316,182,-325,878,1775,1981,2101,2228,1576,1403,1577,1708
166259,-184,-36628,4355,4355,-3800,-3800,3334,-3434,3832,1601,1932,778,163,-302,879,1775,1981,2101,2228,1576,1403,1577,1708
167260,-556,-36324,4420,4420,-3800,-3800,3464,-3491,3923,-661,2864,1364,168,-319,871,1775,1981,2101,2228,1576,1403,1577,1708
168261,-872,-36052,4485,4485,-3800,-3800,3788,-3571,4104,-223,4404,129,170,-305,878,1775,1981,2101,2228,1576,1403,1577,1708
169262,-1208,-35852,4550,4550,-3800,-3800,4032,-3766,4184,1394,2254,-858,153,-306,880,1942,2143,2274,2432,1685,1520,1682,1799
170263,-1516,-35616,4615,4615,-3800,-3800,4195,-4028,4115,-338,2027,843,173,-344,880,1942,2143,2274,2432,1685,1520,1682,1799
171264,-1840,-35380,4680,4680,-3800,-3800,4331,-4733,4086,-2504,3828,-1878,164,-324,876,1942,2143,2274,2432,1685,1520,1682,1799
172265,-2180,-35060,4745,4745,-3800,-3800,4585,-5349,4009,-780,2140,-397,153,-313,881,1942,2143,2274,2432,1685,1520,1682,1799
173266,-2488,-34728,4810,4810,-3800,-3800,4941,-5775,3965,648,3211,816,161,-339,882,1942,2143,2274,2432,1685,1520,1682,1799
174267,-2800,-34460,4875,4875,-3800,-3800,5295,-6107,3973,-1264,4415,-1498,153,-323,882,1942,2088,2267,2415,1741,1563,1659,1777
175268,-3112,-34144,4940,4940,-3800,-3800,5541,-6450,3853,1599,2385,909,160,-320,880,1942,2088,2267,2415,1741,1563,1659,1777
176269,-3392,-33880,5005,5005,-3800,-3800,5677,-6713,3800,905,4055,343,148,-334,884,1942,2088,2267,2415,1741,1563,1659,1777
177270,-3692,-33516,5070,5070,-3800,-3800,5771,-6951,3790,-776,2955,1895,152,-332,884,1942,2088,2267,2415,1741,1563,1659,1777
178271,-3988,-33132,5135,5135,-3800,-3800,5895,-7010,3960,2410,3394,2060,150,-347,886,1942,2088,2267,2415,1741,1563,1659,1777
179272,-4280,-32780,5200,5200,-3800,-3800,6030,-6806,4104,1675,3126,18,139,-346,884,1942,2088,2267,2415,1741,1563,1659,1777
180273,-4560,-32416,5265,5265,-3800,-3800,6031,-6499,4223,2117,3178,2502,146,-319,887,1769,1924,2088,2166,1649,1472,1586,1733
181274,-4832,-31940,5330,5330,-3800,-3800,5969,-6163,4400,-1708,1988,1068,156,-356,887,1769,1924,2088,2166,1649,1472,1586,1733
182275,-5144,-31408,5395,5395,-3800,-3800,6404,-6272,4711,4804,-895,1571,129,-360,890,1769,1924,2088,2166,1649,1472,1586,1733
183276,-5456,-30940,5460,5460,-3800,-3800,6825,-6660,5264,8564,2056,-1442,141,-338,889,1769,1924,2088,2166,1649,1472,1586,1733
184277,-5736,-30500,5525,5525,-3800,-3800,6400,-6715,5075,-3246,-242,2259,141,-339,894,1769,1924,2088,2166,1649,1472,1586,1733
185278,-6044,-30020,5590,5590,-3800,-3800,6000,-6627,4605,-12147,-1059,4260,137,-372,892,1589,1761,1946,2043,1687,1496,1600,1767
186279,-6304,-29616,5655,5655,-3800,-3800,5445,-6343,4311,-6231,3183,-1760,134,-340,894,1589,1761,1946,2043,1687,1496,1600,1767
187280,-6552,-29140,5720,5720,-3800,-3800,5179,-6052,4356,3216,1525,-1809,141,-341,894,1589,1761,1946,2043,1687,1496,1600,1767
188281,-6832,-28592,5785,5785,-3800,-3800,5276,-6419,4370,4513,1818,-302,130,-366,895,1589,1761,1946,2043,1687,1496,1600,1767
189282,-7060,-28076,5850,5850,-3800,-3800,5882,-7205,4291,-3366,2655,925,128,-371,895,1589,1761,1946,2043,1687,1496,1600,1767
190283,-7320,-27464,5915,5915,-3800,-3800,6270,-6741,4296,-4863,-261,2778,117,-386,897,1589,1761,1946,2043,1687,1496,1600,1767
191284,-7568,-26896,5980,5980,-3800,-3800,6551,-5575,4215,4839,-1314,2266,129,-366,897,1483,1601,1835,1933,2068,1843,1849,1998
192285,-7812,-26292,6045,6045,-3800,-3800,6327,-5623,4065,6349,-91,-916,102,-379,899,1483,1601,1835,1933,2068,1843,1849,1998
193286,-8044,-25776,6110,6110,-3800,-3800,5967,-6066,3863,2585,572,1023,105,-361,899,1483,1601,1835,1933,2068,1843,1849,1998
194287,-8280,-25104,6175,6175,-3800,-3800,5362,-5715,3668,444,1283,663,87,-397,901,1483,1601,1835,1933,2068,1843,1849,1998
195288,-8508,-24612,6240,6240,-3800,-3800,4746,-4975,3469,263,1950,4005,93,-361,901,1483,1601,1835,1933,2068,1843,1849,1998
196289,-8680,-24048,6305,6305,-3800,-3800,4197,-4260,3391,393,1791,3550,81,-381,901,1452,1571,1860,2036,2192,2050,1990,2127
197290,-8880,-23500,6370,6370,-3800,-3800,3827,-3471,3461,2339,1407,2918,63,-389,902,1452,1571,1860,2036,2192,2050,1990,2127
198291,-9052,-22908,6435,6435,-3800,-3800,3494,-2716,3462,3087,-715,2527,77,-377,902,1452,1571,1860,2036,2192,2050,1990,2127
199292,-9208,-22360,6500,6500,-3800,-3800,3242,-2273,3483,-70,-1226,1425,64,-385,903,1452,1571,1860,2036,2192,2050,1990,2127
200293,-9340,-21848,6565,6565,-3800,-3800,3081,-2007,3721,-3377,-1072,3575,51,-371,904,1452,1571,1860,2036,2192,2050,1990,2127
201294,-9456,-21256,6630,6630,-3800,-3800,2958,-1826,4030,-2174,-2255,4238,40,-388,904,1452,1571,1860,2036,2192,2050,1990,2127
202295,-9548,-20732,6695,6695,-3800,-3800,2794,-1567,4164,-648,-2834,3155,40,-405,903,1304,1436,1807,1927,2671,2535,2187,2368
203296,-9656,-20096,6760,6760,-3800,-3800,2723,-1183,4220,-1599,-2535,4466,16,-397,905,1304,1436,1807,1927,2671,2535,2187,2368
204297,-9712,-19500,6825,6825,-3800,-3800,2537,-911,4323,-1829,-1727,3199,1,-375,904,1304,1436,1807,1927,2671,2535,2187,2368
205298,-9756,-18804,6890,6890,-3800,-3800,2380,-637,4451,-1942,-766,4616,11,-413,905,1304,1436,1807,1927,2671,2535,2187,2368
206299,-9792,-18176,6955,6955,-3800,-3800,2125,-90,4407,-346,-413,5029,-5,-409,906,1304,1436,1807,1927,2671,2535,2187,2368
207300,-9816,-17432,7020,7020,-3800,-3800,1828,651,4247,765,-462,4775,-30,-386,905,1195,1334,1776,1899,2786,2525,2164,2323
208301,-9816,-16808,7085,7085,-3800,-3800,1500,1293,4078,1317,839,5417,-32,-403,895,1195,1334,1776,1899,2786,2525,2164,2323
209302,-9796,-16040,7150,7150,-3800,-3800,1198,2046,3885,2310,1301,5029,-36,-410,907,1195,1334,1776,1899,2786,2525,2164,2323
210303,-9772,-15248,7215,7215,-3800,-3800,739,2723,3601,2854,1743,5058,-33,-411,905,1195,1334,1776,1899,2786,2525,2164,2323
211304,-9768,-14512,7280,7280,-3800,-3800,293,3536,3197,2828,1890,4022,-33,-418,906,1195,1334,1776,1899,2786,2525,2164,2323
212308,-9728,-13812,7345,7345,-3800,-3800,-98,4195,2783,1850,1767,3578,-49,-411,901,1195,1334,1776,1899,2786,2525,2164,2323
213306,-9708,-12980,7410,7410,-3800,-3800,-590,4546,2323,214,1903,2529,-38,-394,907,1387,1511,1937,2146,2479,2262,2059,2151
214307,-9660,-12132,7475,7475,-3800,-3800,-1045,4898,2036,429,1604,2488,-42,-418,905,1387,1511,1937,2146,2479,2262,2059,2151
215308,-9612,-11216,7540,7540,-3800,-3800,-1433,5214,1914,974,1151,2971,-51,-402,907,1387,1511,1937,2146,2479,2262,2059,2151
216309,-9588,-10404,7605,7605,-3800,-3800,-1828,5460,1975,934,409,1623,-58,-388,902,1387,1511,1937,2146,2479,2262,2059,2151
217310,-9536,-9548,7670,7670,-3800,-3800,-2072,5654,2071,-724,321,2567,-47,-418,907,1387,1511,1937,2146,2479,2262,2059,2151
218311,-9480,-8616,7735,7735,-3800,-3800,-2244,5912,2136,-717,-574,1825,-45,-404,907,1521,1627,2035,2228,2330,2174,2012,2131
219312,-9432,-7568,7800,7800,-3800,-3800,-2380,6022,2318,-2723,-707,3029,-45,-418,907,1521,1627,2035,2228,2330,2174,2012,2131
220313,-9388,-6552,7865,7865,-3800,-3800,-2478,6167,2638,-1468,-788,2124,-49,-389,904,1521,1627,2035,2228,2330,2174,2012,2131
221314,-9320,-5544,7930,7930,-3800,-3800,-2532,6428,2868,846,-1390,2773,-60,-411,906,1521,1627,2035,2228,2330,2174,2012,2131
222315,-9268,-4524,7995,7995,-3800,-3800,-2568,6782,3019,480,-2234,2306,-55,-401,906,1521,1627,2035,2228,2330,2174,2012,2131
223316,-9212,-3652,8060,8060,-3800,-3800,-2587,7036,3183,-174,-934,2438,-45,-417,907,1521,1627,2035,2228,2330,2174,2012,2131
224317,-9152,-2848,8125,8125,-3800,-3800,-2565,7335,3291,983,-304,2109,-58,-398,904,1434,1596,1950,2066,2114,1930,1840,1961
225318,-9088,-1988,8190,8190,-3800,-3800,-2634,7695,3251,1567,-391,2469,-56,-398,909,1434,1596,1950,2066,2114,1930,1840,1961
226319,-9040,-1104,8255,8255,-3800,-2689,-2760,7870,3079,-276,544,2053,-62,-410,906,1434,1596,1950,2066,2114,1930,1840,1961
227320,-8988,-316,8320,8320,-3800,-3009,-2876,7922,2920,-485,1684,1625,-60,-408,909,1434,1596,1950,2066,2114,1930,1840,1961
228321,-8932,508,8385,8385,-3800,-1636,-3008,8079,2708,825,1756,1995,-44,-376,908,1434,1596,1950,2066,2114,1930,1840,1961
229322,-8864,1204,8450,8450,-3800,-2469,-3135,8129,2481,814,2444,1241,-59,-367,910,1455,1582,1848,2026,1837,1647,1666,1740
230323,-8800,1972,8515,8515,-3800,-714,-3243,8154,2194,514,3007,1078,-45,-380,909,1455,1582,1848,2026,1837,1647,1666,1740
231324,-8752,2692,8580,8580,-3800,-517,-3367,8119,1873,119,2532,1097,-45,-387,911,1455,1582,1848,2026,1837,1647,1666,1740
232325,-8684,3444,8645,8645,-3800,720,-3569,7948,1600,-1005,2349,819,-41,-377,910,1455,1582,1848,2026,1837,1647,1666,1740
233326,-8628,4132,8710,8710,-3800,678,-3723,7946,1435,-555,2716,505,-44,-364,905,1455,1582,1848,2026,1837,1647,1666,1740
234327,-8576,4824,8775,8775,-3800,1492,-3817,8060,1340,1390,2227,1164,-51,-354,905,1455,1582,1848,2026,1837,1647,1666,1740
235328,-8528,5456,8840,8840,-3800,1433,-3897,8176,1295,1978,1435,853,-54,-352,894,1552,1652,1899,2100,1778,1618,1679,1792
236329,-8476,6036,8905,8905,-3800,1410,-3997,8211,1317,1371,614,-331,-49,-330,895,1552,1652,1899,2100,1778,1618,1679,1792
237330,-8428,6660,8970,8970,-3800,2642,-3977,8272,1421,389,18,-193,-39,-297,897,1552,1652,1899,2100,1778,1618,1679,1792
238331,-8388,7196,9035,9035,-3800,2116,-3877,8338,1571,1015,-1151,-1267,-47,-293,874,1552,1652,1899,2100,1778,1618,1679,1792
239332,-8336,7652,9100,9100,-3800,1592,-3734,8304,1752,318,-1055,-920,-39,-288,885,1552,1652,1899,2100,1778,1618,1679,1792
240333,-8280,8056,9165,9165,-3800,1355,-3633,8405,1910,481,-1666,-1777,-40,-217,893,1581,1730,2004,2142,1902,1734,1756,1894
241334,-8224,8404,9230,9230,-3800,1000,-3512,8433,2091,760,-1757,-1887,-42,-205,898,1581,1730,2004,2142,1902,1734,1756,1894
242335,-8180,8716,9295,9295,-3800,852,-3436,8519,2262,1711,-1119,-1521,-43,-184,903,1581,1730,2004,2142,1902,1734,1756,1894
243336,-8128,9008,9360,9360,-3800,878,-3359,8649,2409,276,-718,-918,-33,-165,905,1581,1730,2004,2142,1902,1734,1756,1894
244337,-8080,9276,9425,9425,-3800,826,-3326,8750,2448,696,-114,-1304,-40,-164,904,1581,1730,2004,2142,1902,1734,1756,1894
245338,-8016,9508,9490,9490,-3800,579,-3349,8693,2425,-563,252,-660,-37,-150,905,1581,1730,2004,2142,1902,1734,1756,1894
246339,-7988,9744,9555,9555,-3800,838,-3401,8499,2379,-2059,895,-272,-26,-138,907,1560,1695,1951,2107,1764,1594,1625,1682
247340,-7936,9972,9620,9620,-3800,937,-3468,8341,2280,-545,1688,-274,-34,-145,905,1560,1695,1951,2107,1764,1594,1625,1682
248341,-7884,10180,9685,9685,-3800,862,-3561,8232,2090,328,1581,1345,-33,-139,904,1560,1695,1951,2107,1764,1594,1625,1682
249342,-7852,10344,9750,9750,-3800,434,-3710,8075,1829,68,1402,475,-35,-123,905,1560,1695,1951,2107,1764,1594,1625,1682
250343,-7812,10520,9815,9815,-3800,719,-3851,7805,1541,-1283,1909,889,-35,-114,909,1560,1695,1951,2107,1764,1594,1625,1682
251344,-7768,10688,9880,9880,-3800,745,-4016,7432,1268,-2647,2091,532,-19,-104,907,1494,1587,1793,1977,1662,1506,1577,1667
252345,-7736,10832,9945,9945,-3800,541,-4164,6955,1089,-2531,1699,2566,-25,-103,906,1494,1587,1793,1977,1662,1506,1577,1667
253346,-7696,10992,10010,10010,-3800,858,-4359,6644,972,-720,1632,1892,-34,-93,901,1494,1587,1793,1977,1662,1506,1577,1667
254347,-7660,11128,10075,10075,-3800,645,-4552,6174,935,-249,1409,1930,-20,-92,906,1494,1587,1793,1977,1662,1506,1577,1667
255348,-7632,11248,10140,10140,-3800,513,-4718,5495,936,-1679,643,1367,-14,-82,908,1494,1587,1793,1977,1662,1506,1577,1667
256349,-7604,11380,10205,10205,-3800,745,-4815,4835,1043,-2499,472,3574,-17,-68,909,1494,1587,1793,1977,1662,1506,1577,1667
257350,-7572,11496,10270,10270,-3800,607,-4907,4413,1155,-2326,350,3178,-28,-64,900,1464,1619,1846,1945,1956,1765,1888,2252
258351,-7528,11580,10335,10335,-3800,231,-4952,4096,1286,-1438,-457,3314,-23,-57,908,1464,1619,1846,1945,1956,1765,1888,2252
259352,-7504,11668,10400,10400,-3800,309,-5031,3773,1439,-194,-492,2804,-13,-65,910,1464,1619,1846,1945,1956,1765,1888,2252
260355,-7484,11756,10465,10465,-3800,338,-5069,3409,1598,-1547,-749,2954,-26,-44,910,1464,1619,1846,1945,1956,1765,1888,2252
261354,-7452,11824,10530,10530,-3800,92,-5121,2921,1720,-2652,-615,2983,-6,-41,906,1464,1619,1846,1945,1956,1765,1888,2252
262355,-7436,11876,10595,10595,-3800,-123,-5169,2348,1729,-2913,-485,3070,-19,-37,911,1581,1895,2139,2047,2616,2216,2372,3072
263356,-7400,11940,10660,10660,-3800,26,-5233,1629,1649,-2577,-606,2672,-19,-29,911,1581,1895,2139,2047,2616,2216,2372,3072
264357,-7380,11996,10725,10725,-3800,-84,-5254,598,1573,-3531,-727,3690,-3,-32,912,1581,1895,2139,2047,2616,2216,2372,3072
265358,-7348,12044,10790,10790,-3800,-205,-5276,-581,1445,-6089,-704,4557,-8,-27,909,1581,1895,2139,2047,2616,2216,2372,3072
266359,-7328,12096,10855,10855,-3800,-170,-5277,-1753,1286,-6988,-850,4617,-3,-35,911,1581,1895,2139,2047,2616,2216,2372,3072
267360,-7304,12128,10920,10920,-3800,-460,-5231,-3083,1156,-5783,-168,5396,-20,-22,911,1581,1895,2139,2047,2616,2216,2372,3072
268361,-7264,12172,10985,10985,-3800,-335,-5085,-4373,916,-5493,552,7288,-15,-31,910,1784,2144,2315,2176,2743,2199,2426,3033
269362,-7196,12204,11050,11050,-3800,-525,-4859,-5428,603,-4700,198,9864,-20,-32,909,1784,2144,2315,2176,2743,2199,2426,3033
270363,-7176,12232,11115,11115,-3800,-619,-4582,-6263,313,-3450,-359,11112,-11,-27,909,1784,2144,2315,2176,2743,2199,2426,3033
271364,-7136,12260,11180,11180,-3800,-664,-4307,-6810,70,-2116,-161,12453,-4,-21,909,1784,2144,2315,2176,2743,2199,2426,3033
272365,-7112,12292,11245,11245,-3800,-653,-4055,-7043,-129,-568,-441,12715,-16,-21,908,1784,2144,2315,2176,2743,2199,2426,3033
273366,-7092,12352,11310,11310,-3800,-310,-3859,-7209,-225,-311,-472,11989,-20,-28,908,1796,2060,2154,2182,2240,1864,2171,2419
274367,-7072,12372,11375,11375,-3800,-864,-3710,-7350,-246,-476,-325,10835,-8,-29,910,1796,2060,2154,2182,2240,1864,2171,2419
275368,-7060,12400,11440,11440,-3800,-809,-3547,-7322,-272,-527,-376,10518,-19,-18,907,1796,2060,2154,2182,2240,1864,2171,2419
276369,-7040,12436,11505,11505,-3800,-744,-3346,-7062,-340,360,-456,11259,-11,-24,907,1796,2060,2154,2182,2240,1864,2171,2419
277370,-7020,12484,11570,11570,-3800,-615,-3065,-6968,-386,1415,-851,10546,-19,-18,907,1796,2060,2154,2182,2240,1864,2171,2419
278371,-7000,12520,11635,11635,-3800,-799,-2726,-7100,-385,534,-885,10034,-24,-19,908,1796,2060,2154,2182,2240,1864,2171,2419
279372,-6968,12560,11700,11700,-3800,-780,-2350,-7433,-321,-912,-866,9049,-6,-21,907,1951,2084,2185,2524,1941,1833,1979,1890
280373,-6976,12616,11765,11765,-3800,-591,-1974,-7973,-295,-2690,-874,7774,-15,-35,908,1951,2084,2185,2524,1941,1833,1979,1890
281374,-6944,12660,11830,11830,-3800,-765,-1690,-8404,-330,-3637,-1254,8287,-20,-38,908,1951,2084,2185,2524,1941,1833,1979,1890
282375,-6924,12724,11895,11895,-3800,-517,-1346,-8719,-408,-3346,-1685,7788,-17,-30,908,1951,2084,2185,2524,1941,1833,1979,1890
283376,-6892,12784,11960,11960,-3800,-573,-1071,-8772,-400,-3010,-2059,8437,-11,-27,909,1951,2084,2185,2524,1941,1833,1979,1890
284377,-6872,12840,12025,12025,-3800,-633,-741,-8750,-363,-3865,-2443,8806,-17,-34,909,2022,1973,2375,3175,1734,1760,1734,1587
285378,-6848,12912,12090,12090,-3800,-424,-396,-8679,-346,-2739,-2522,8821,-27,-44,908,2022,1973,2375,3175,1734,1760,1734,1587
286379,-6824,12992,12155,12155,-3800,-306,-35,-8449,-412,-1614,-2391,8483,-17,-44,910,2022,1973,2375,3175,1734,1760,1734,1587
287380,-6792,13048,12220,12220,-3800,-616,286,-7977,-470,-426,-2412,9027,-17,-41,911,2022,1973,2375,3175,1734,1760,1734,1587
288381,-6768,13108,12285,12285,-3800,-572,585,-7300,-559,1004,-2327,9230,-22,-46,909,2022,1973,2375,3175,1734,1760,1734,1587
289382,-6736,13164,12350,12350,-3800,-633,858,-6537,-631,1516,-2228,9767,-16,-37,909,2022,1973,2375,3175,1734,1760,1734,1587
290383,-6688,13244,12415,12415,-3800,-314,1104,-5695,-714,2236,-1990,9454,-20,-42,909,2188,2102,2562,3301,1682,1675,1687,1615
291384,-6660,13316,12480,12480,-3800,-405,1313,-4844,-822,2832,-1529,9408,-26,-48,910,2188,2102,2562,3301,1682,1675,1687,1615
292385,-6620,13396,12545,12545,-3800,-287,1483,-3978,-922,2939,-1271,9060,-25,-38,910,2188,2102,2562,3301,1682,1675,1687,1615
293386,-6572,13464,12610,12610,-3800,-432,1596,-3127,-1021,3143,-784,8148,-28,-38,911,2188,2102,2562,3301,1682,1675,1687,1615
294387,-6544,13548,12675,12675,-3800,-209,1689,-2364,-1115,2030,-775,7874,-30,-45,968,2188,2102,2562,3301,1682,1675,1687,1615
295388,-6512,13624,12740,12740,-3800,-295,1791,-1618,-1139,1140,-1059,7033,-20,-39,911,2226,2191,2535,3054,1766,1699,1779,1780
296389,-6468,13688,12805,12805,-3800,-446,1933,-935,-1140,1480,-1117,6359,-31,-49,911,2226,2191,2535,3054,1766,1699,1779,1780
297390,-6428,13768,12870,12870,-3800,-227,2074,-318,-1105,965,-951,5985,-25,-43,910,2226,2191,2535,3054,1766,1699,1779,1780
298391,-6388,13832,12935,12935,-3800,-429,2194,237,-1048,-333,-975,5527,-14,-41,903,2226,2191,2535,3054,1766,1699,1779,1780
299392,-6356,13900,13000,13000,-3800,-374,2314,674,-942,-1347,-994,5077,-20,-41,910,2226,2191,2535,3054,1766,1699,1779,1780
300393,-6316,13972,13065,13065,-3800,-315,2449,975,-821,-1690,-1143,4577,-29,-41,910,2226,2191,2535,3054,1766,1699,1779,1780
301394,-6292,14048,13130,13130,-3800,-252,2606,1233,-709,-1851,-1228,4608,-30,-49,911,1826,1925,2175,2433,2057,1891,1914,1964
302395,-6248,14148,13195,13195,-3800,92,2789,1546,-614,-1422,-1448,4525,-13,-51,906,1826,1925,2175,2433,2057,1891,1914,1964
303396,-6220,14240,13260,13260,-3800,25,2998,1852,-550,-561,-1464,4302,-24,-39,912,1826,1925,2175,2433,2057,1891,1914,1964
304397,-6180,14308,13325,13325,-3800,-272,3230,2132,-497,34,-1748,4137,-30,-37,912,1826,1925,2175,2433,2057,1891,1914,1964
305398,-6144,14392,13390,13390,-3800,-47,3470,2415,-466,683,-1946,3786,-12,-39,911,1826,1925,2175,2433,2057,1891,1914,1964
306399,-6124,14444,13455,13455,-3800,-463,3679,2720,-479,1115,-1957,3613,-27,-33,909,1551,1679,1960,2150,2076,1858,1860,1934
307400,-6104,14520,13520,13520,-3800,-149,3819,2982,-479,1450,-1884,3175,-14,-47,910,1551,1679,1960,2150,2076,1858,1860,1934
308401,-6084,14592,13585,13585,-3800,-190,3918,3193,-442,1716,-1508,2778,-27,-49,910,1551,1679,1960,2150,2076,1858,1860,1934
309402,-6064,14652,13650,13650,-3800,-346,3935,3378,-428,1732,-1047,2510,-29,-36,911,1551,1679,1960,2150,2076,1858,1860,1934
310404,-6036,14724,13715,13715,-3800,-187,3848,3529,-451,1776,-720,2160,-29,-42,908,1551,1679,1960,2150,2076,1858,1860,1934
311404,-6004,14788,13780,13780,-3800,-288,3684,3586,-475,1662,-511,2106,-17,-45,911,1551,1679,1960,2150,2076,1858,1860,1934
312405,-6008,14840,13845,13845,-3800,-453,3470,3578,-465,1595,-415,1855,-23,-39,911,1559,1690,1956,2152,1792,1624,1672,1734
313406,-5996,14896,13910,13910,-3800,-414,3224,3552,-454,1688,-233,1713,-20,-37,910,1559,1690,1956,2152,1792,1624,1672,1734
314407,-5972,14948,13975,13975,-3800,-480,2980,3502,-471,1517,-216,1521,-14,-34,909,1559,1690,1956,2152,1792,1624,1672,1734
315408,-5968,15000,14040,14040,-3800,-495,2776,3423,-503,1153,-443,1452,-19,-39,910,1559,1690,1956,2152,1792,1624,1672,1734
316409,-5920,15052,14105,14105,-3800,-510,2601,3274,-514,618,-651,1378,-15,-36,910,1559,1690,1956,2152,1792,1624,1672,1734
317410,-5896,15104,14170,14170,-3800,-526,2458,3210,-498,592,-978,1278,-22,-44,910,1696,1821,2037,2184,1766,1604,1705,1889
318411,-5860,15136,14235,14235,-3800,-816,2345,3097,-481,413,-915,479,-12,-48,909,1696,1821,2037,2184,1766,1604,1705,1889
319412,-5848,15176,14300,14300,-3800,-746,2301,2882,-470,-825,-1132,-346,-10,-42,908,1696,1821,2037,2184,1766,1604,1705,1889
320413,-5820,15224,14365,14365,-3800,-667,2282,2595,-480,-1509,-1333,-508,-21,-36,908,1696,1821,2037,2184,1766,1604,1705,1889
321414,-5792,15284,14430,14430,-3800,-522,2271,2325,-480,-1351,-1615,-596,-26,-38,909,1696,1821,2037,2184,1766,1604,1705,1889
322415,-5764,15356,14495,14495,-3800,-363,2272,2089,-422,-878,-1493,-218,-24,-43,909,1696,1821,2037,2184,1766,1604,1705,1889
323416,-5768,15408,14560,14560,-3800,-629,2285,1890,-379,-557,-1410,-78,-6,-42,910,1558,1756,1972,1992,2081,1804,1897,2203
324417,-5732,15452,14625,14625,-3800,-754,2296,1670,-377,-434,-1306,540,-14,-36,909,1558,1756,1972,1992,2081,1804,1897,2203
325418,-5716,15504,14690,14690,-3800,-670,2291,1393,-387,-811,-987,540,-11,-47,908,1558,1756,1972,1992,2081,1804,1897,2203
326419,-5712,15536,14755,14755,-3800,-960,2286,1136,-395,-693,-592,775,-19,-53,908,1558,1756,1972,1992,2081,1804,1897,2203
327420,-5700,15572,14820,14820,-3800,-945,2249,889,-429,-190,-30,897,-5,-52,906,1558,1756,1972,1992,2081,1804,1897,2203
328421,-5684,15600,14885,14885,-3800,-1090,2194,614,-490,263,349,967,-8,-56,906,1431,1671,1834,1819,2217,1863,1974,2256
329422,-5684,15648,14950,14950,-3800,-860,2124,329,-581,195,690,985,-6,-56,906,1431,1671,1834,1819,2217,1863,1974,2256
330423,-5680,15744,15015,15015,-3800,-222,2009,27,-672,13,894,1072,-21,-62,907,1431,1671,1834,1819,2217,1863,1974,2256
331424,-5660,15820,15080,15080,-3800,-458,1869,-305,-758,481,994,1007,-16,-56,911,1431,1671,1834,1819,2217,1863,1974,2256
332425,-5628,15900,15145,15145,-3800,-390,1690,-661,-838,791,1136,887,-8,-46,910,1431,1671,1834,1819,2217,1863,1974,2256
333426,-5616,15972,15210,15210,-3800,-481,1455,-1022,-922,614,1033,1121,1,-49,910,1431,1671,1834,1819,2217,1863,1974,2256
334427,-5600,16060,15275,15275,-3800,-252,1209,-1375,-1019,244,748,1272,-6,-54,909,1448,1658,1837,1910,2039,1734,1863,2083
335428,-5572,16120,15340,15340,-3800,-608,941,-1711,-1057,226,222,1181,-2,-51,911,1448,1658,1837,1910,2039,1734,1863,2083
336429,-5556,16196,15405,15405,-3800,-395,675,-2064,-1091,786,8,1513,-4,-43,909,1448,1658,1837,1910,2039,1734,1863,2083
337430,-5540,16256,15470,15470,-3800,-600,449,-2414,-1113,532,-397,1463,-7,-49,910,1448,1658,1837,1910,2039,1734,1863,2083
338431,-5528,16320,15535,15535,-3800,-551,226,-2731,-1090,254,-952,1785,-8,-36,909,1448,1658,1837,1910,2039,1734,1863,2083
339432,-5532,16384,15600,15600,-3800,-552,29,-2952,-1037,329,-1454,1854,4,-39,912,1541,1742,1943,1991,2050,1803,1873,2154
340433,-5524,16472,15665,15665,-3800,-224,-145,-3108,-970,274,-1773,2157,4,-29,909,1541,1742,1943,1991,2050,1803,1873,2154
341434,-5516,16496,15730,15730,-3800,-1073,-289,-3265,-934,335,-1879,2187,4,-26,911,1541,1742,1943,1991,2050,1803,1873,2154
342435,-5508,16560,15795,15795,-3800,-575,-410,-3419,-918,229,-1830,2509,7,-35,905,1541,1742,1943,1991,2050,1803,1873,2154
343436,-5512,16612,15860,15860,-3800,-741,-522,-3573,-904,100,-1625,2464,-9,-41,902,1541,1742,1943,1991,2050,1803,1873,2154
344437,-5492,16668,15925,15925,-3800,-701,-633,-3703,-878,19,-1327,2557,-13,-38,908,1553,1777,2045,2053,2230,1935,1873,2154
345438,-5488,16712,15990,15990,-3800,-876,-734,-3749,-885,237,-761,3110,-13,-26,908,1553,1777,2045,2053,2230,1935,1982,2301
346439,-5472,16760,16055,16055,-3800,-847,-805,-3693,-930,397,-621,3976,2,-28,907,1553,1777,2045,2053,2230,1935,1982,2301
347440,-5472,16824,16120,16120,-3800,-647,-851,-3602,-965,472,-443,4503,5,-37,903,1553,1777,2045,2053,2230,1935,1982,2301
348441,-5484,16864,16185,16185,-3800,-978,-876,-3458,-1019,516,358,5190,-12,-42,909,1553,1777,2045,2053,2230,1935,1982,2301
349442,-5476,16932,16384,16384,-3800,-1476,-883,-3258,-1106,261,996,5724,-8,-34,906,1553,1777,2045,2053,2230,1935,1982,2301
350443,-5476,16976,16449,16449,-3800,-1801,-928,-3018,-1187,501,1550,6112,1,-31,902,1525,1742,1999,2063,2355,2028,2067,2257
351444,-5472,17056,16514,16514,-3800,-1333,-1017,-2773,-1254,915,2041,6049,-10,-44,895,1525,1742,1999,2063,2355,2028,2067,2257
352445,-5476,17132,16579,16579,-3800,-1368,-1141,-2569,-1318,736,2268,6118,-6,-56,903,1525,1742,1999,2063,2355,2028,2067,2257
353446,-5464,17208,16644,16644,-3800,-1355,-1258,-2396,-1377,225,2410,6290,-14,-50,903,1525,1742,1999,2063,2355,2028,2067,2257
354447,-5472,17300,16709,16709,-3800,-1122,-1351,-2201,-1407,-10,2123,6511,-16,-63,904,1525,1742,1999,2063,2355,2028,2067,2257
355448,-5460,17404,16774,16774,-3800,-924,-1423,-2010,-1411,595,1706,6634,-20,-57,904,1616,1805,2090,2312,2229,2018,1969,2103
356449,-5456,17524,16839,16839,-3800,-656,-1466,-1809,-1392,616,1072,6874,-19,-72,907,1616,1805,2090,2312,2229,2018,1969,2103
357450,-5452,17596,16904,16904,-3800,-1248,-1482,-1620,-1330,602,571,7092,5,-63,909,1616,1805,2090,2312,2229,2018,1969,2103
358451,-5432,17676,16969,16969,-3800,-1129,-1469,-1412,-1262,829,198,7116,-8,-67,904,1616,1805,2090,2312,2229,2018,1969,2103
359452,-5428,17788,17034,17034,-3800,-672,-1443,-1143,-1179,1030,-293,7144,-17,-68,903,1616,1805,2090,2312,2229,2018,1969,2103
360453,-5424,17892,17099,17099,-3800,-723,-1409,-866,-1082,1661,-803,7160,-13,-68,909,1616,1805,2090,2312,2229,2018,1969,2103
361454,-5420,18000,17164,17164,-3800,-621,-1338,-626,-996,1729,-1210,7162,-10,-56,908,1745,1879,2294,2576,2159,2016,1947,2033
362455,-5424,18080,17229,17229,-3800,-953,-1252,-348,-927,1617,-1358,7235,-2,-49,909,1745,1879,2294,2576,2159,2016,1947,2033
363456,-5392,18176,17294,17294,-3800,-714,-1169,-52,-875,1896,-1536,7251,-1,-41,906,1745,1879,2294,2576,2159,2016,1947,2033
364457,-5376,18256,17359,17359,-3800,-896,-1097,224,-832,1869,-1267,7189,-4,-49,908,1745,1879,2294,2576,2159,2016,1947,2033
365458,-5372,18332,17424,17424,-3800,-932,-1041,482,-802,1832,-1018,6959,0,-37,907,1745,1879,2294,2576,2159,2016,1947,2033
366459,-5360,18400,17489,17489,-3800,-1027,-999,713,-794,1603,-591,6838,-6,-38,907,1944,2083,2495,2758,2046,1886,1891,1985
367460,-5356,18472,17554,17554,-3800,-969,-972,910,-793,1301,-119,6357,-20,-47,906,1944,2083,2495,2758,2046,1886,1891,1985
368461,-5336,18528,17619,17619,-3800,-1180,-957,1057,-788,1086,333,6177,-10,-42,906,1944,2083,2495,2758,2046,1886,1891,1985
369462,-5328,18588,17684,17684,-3800,-1135,-949,1198,-789,985,726,5700,-9,-40,905,1944,2083,2495,2758,2046,1886,1891,1985
370463,-5312,18640,17749,17749,-3800,-1251,-951,1322,-778,818,987,5530,-21,-34,905,1944,2083,2495,2758,2046,1886,1891,1985
371464,-5296,18668,17814,17814,-3800,-1596,-955,1411,-778,476,1257,5386,-6,-40,903,1944,2083,2495,2758,2046,1886,1891,1985
372465,-5292,18736,17879,17879,-3800,-1091,-954,1504,-772,335,1223,5085,-8,-43,901,1991,2141,2383,2612,1974,1745,1876,1995
373466,-5268,18784,17944,17944,-3800,-1362,-922,1575,-731,420,1281,5161,-23,-44,905,1991,2141,2383,2612,1974,1745,1876,1995
374467,-5268,18828,18009,18009,-3800,-1438,-853,1625,-666,379,1115,5056,-4,-48,903,1991,2141,2383,2612,1974,1745,1876,1995
375468,-5256,18888,18074,18074,-3800,-1243,-726,1673,-598,611,686,5098,-13,-35,902,1991,2141,2383,2612,1974,1745,1876,1995
376469,-5248,18940,18139,18139,-3800,-1359,-558,1710,-510,613,309,4981,-22,-29,903,1991,2141,2383,2612,1974,1745,1876,1995
377470,-5236,19020,18204,18204,-3800,-990,-369,1741,-421,652,-23,4978,-21,-27,902,1812,2001,2128,2236,1987,1719,1863,2039
378471,-5228,19072,18269,18269,-3800,-1355,-182,1750,-318,723,-406,4774,-20,-37,906,1812,2001,2128,2236,1987,1719,1863,2039
379472,-5236,19120,18334,18334,-3800,-1426,-3,1723,-207,578,-563,4657,-17,-23,902,1812,2001,2128,2236,1987,1719,1863,2039
380473,-5220,19176,18399,18399,-3800,-1337,155,1665,-99,849,-928,4363,-16,-36,902,1812,2001,2128,2236,1987,1719,1863,2039
381474,-5220,19212,18464,18464,-3800,-1621,304,1548,0,877,-1062,4016,-9,-25,903,1812,2001,2128,2236,1987,1719,1863,2039
382475,-5212,19268,18529,18529,-3800,-1382,428,1377,105,595,-1185,3684,-20,-27,900,1812,2001,2128,2236,1987,1719,1863,2039
383476,-5208,19308,18594,18594,-3800,-1613,518,1183,185,724,-1284,3208,-21,-33,903,1653,1858,2031,2131,1879,1659,1767,1936
384477,-5192,19380,18659,18659,-3800,-1204,571,948,260,712,-1284,2796,-4,-36,892,1653,1858,2031,2131,1879,1659,1767,1936
385478,-5200,19424,18724,18724,-3800,-1579,582,676,342,448,-1123,2524,-16,-34,904,1653,1858,2031,2131,1879,1659,1767,1936
386479,-5180,19476,18789,18789,-3800,-1495,567,400,407,253,-1021,2290,0,-25,901,1653,1858,2031,2131,1879,1659,1767,1936
387480,-5188,19544,18854,18854,-3800,-1291,538,118,458,236,-827,2014,-20,-25,901,1653,1858,2031,2131,1879,1659,1767,1936
388481,-5180,19600,18919,18919,-3800,-1452,503,-164,510,406,-738,1946,-12,-33,897,1754,1909,2132,2270,1860,1652,1769,1928
389482,-5180,19632,18984,18984,-3800,-1791,461,-412,581,308,-577,1853,0,-28,902,1754,1909,2132,2270,1860,1652,1769,1928
390483,-5168,19692,19049,19049,-3800,-1448,414,-629,642,413,-594,1677,-10,-31,898,1754,1909,2132,2270,1860,1652,1769,1928
391484,-5180,19744,19114,19114,-3800,-1563,374,-834,690,347,-376,1757,-17,-35,901,1754,1909,2132,2270,1860,1652,1769,1928
392485,-5184,19804,19179,19179,-3800,-1470,350,-999,759,274,-300,1766,-1,-36,897,1754,1909,2132,2270,1860,1652,1769,1928
393486,-5168,19864,19244,19244,-3800,-1475,339,-1138,829,307,-281,1977,-6,-43,901,1754,1909,2132,2270,1860,1652,1769,1928
394487,-5180,19920,19309,19309,-3800,-1536,351,-1256,882,213,-278,2177,-18,-45,902,1807,1987,2157,2262,1924,1692,1828,2028
395488,-5164,19964,19374,19374,-3800,-1711,390,-1342,939,32,-227,2484,-4,-41,901,1807,1987,2157,2262,1924,1692,1828,2028
396489,-5172,20032,19439,19439,-3800,-1408,452,-1396,993,-92,-182,2806,0,-45,897,1807,1987,2157,2262,1924,1692,1828,2028
397490,-5172,20096,19504,19504,-3800,-1458,533,-1430,1050,-331,-114,3190,-2,-37,902,1807,1987,2157,2262,1924,1692,1828,2028
398491,-5168,20180,19569,19569,-3800,-1185,638,-1454,1108,-551,3,3543,0,-34,902,1807,1987,2157,2262,1924,1692,1828,2028
399492,-5184,20256,19634,19634,-3800,-1271,750,-1492,1151,-622,-52,3612,0,-36,905,1665,1860,2019,2082,2029,1747,1869,2075
400493,-5172,20324,19699,19699,-3800,-1368,873,-1537,1188,-713,86,3895,0,-44,902,1665,1860,2019,2082,2029,1747,1869,2075
401494,-5184,20392,19764,19764,-3800,-1363,961,-1600,1210,-1038,58,3736,-16,-31,903,1665,1860,2019,2082,2029,1747,1869,2075
402495,-5172,20460,19829,19829,-3800,-1359,1006,-1688,1226,-1404,141,4084,-14,-44,903,1665,1860,2019,2082,2029,1747,1869,2075
403496,-5184,20516,19894,19894,-3800,-1520,1024,-1757,1241,-1571,278,3932,-12,-44,903,1665,1860,2019,2082,2029,1747,1869,2075
404497,-5168,20588,19959,19959,-3800,-1312,1024,-1848,1256,-1150,235,3959,-16,-31,900,1665,1860,2019,2082,2029,1747,1869,2075
405498,-5172,20652,20024,20024,-3800,-1412,1023,-1893,1275,-931,307,4033,-14,-45,903,1591,1802,2004,2110,1989,1752,1835,1992
406499,-5176,20716,20089,20089,-3800,-1413,1006,-1924,1286,-666,311,4015,3,-45,902,1591,1802,2004,2110,1989,1752,1835,1992
407500,-5168,20772,20154,20154,-3800,-1524,970,-1913,1294,-334,295,4156,-15,-33,902,1591,1802,2004,2110,1989,1752,1835,1992
408501,-5184,20844,20219,20219,-3800,-1316,908,-1878,1309,-197,380,4215,-13,-34,901,1591,1802,2004,2110,1989,1752,1835,1992
409502,-5164,20912,20284,20284,-3800,-1361,835,-1785,1314,33,330,4324,1,-39,903,1591,1802,2004,2110,1989,1752,1835,1992
410503,-5176,20976,20349,20349,-3800,-1412,755,-1697,1308,508,294,4383,-5,-41,902,1698,1868,2120,2309,2003,1819,1874,2024
411504,-5168,21040,20414,20414,-3800,-1413,688,-1595,1306,544,158,4281,-10,-34,902,1698,1868,2120,2309,2003,1819,1874,2024
412505,-5176,21096,20479,20479,-3800,-1524,623,-1481,1309,407,62,4442,-13,-31,902,1698,1868,2120,2309,2003,1819,1874,2024
413506,-5176,21164,20544,20544,-3800,-1370,575,-1351,1304,257,72,4311,-16,-42,901,1698,1868,2120,2309,2003,1819,1874,2024
414507,-5168,21232,20609,20609,-3800,-1366,543,-1247,1296,33,-58,4319,-14,-45,903,1698,1868,2120,2309,2003,1819,1874,2024
415508,-5168,21288,20674,20674,-3800,-1527,543,-1207,1286,-171,43,4381,-3,-44,903,1698,1868,2120,2309,2003,1819,1874,2024
416509,-5168,21364,20739,20739,-3800,-1264,550,-1155,1257,-597,87,4395,-11,-29,901,1797,1938,2256,2417,2106,1931,1947,2103
417510,-5168,21416,20804,20804,-3800,-1579,540,-1109,1228,-825,177,4662,-7,-40,904,1797,1938,2256,2417,2106,1931,1947,2103
418511,-5168,21464,20869,20869,-3800,-1649,543,-1055,1221,-1222,422,4616,-3,-38,901,1797,1938,2256,2417,2106,1931,1947,2103
419512,-5160,21544,20934,20934,-3800,-1231,544,-994,1188,-1191,554,4662,-2,-23,900,1797,1938,2256,2417,2106,1931,1947,2103
420513,-5168,21624,20999,20999,-3800,-1213,556,-934,1148,-1016,730,4826,-5,-36,903,1797,1938,2256,2417,2106,1931,1947,2103
421514,-5172,21676,21064,21064,-3800,-1578,558,-865,1115,-1091,1046,5027,-3,-35,904,1692,1862,2139,2259,2159,1926,1958,2126
422515,-5164,21700,21129,21129,-3800,-1977,546,-751,1050,-855,1026,5122,0,-28,901,1692,1862,2139,2259,2159,1926,1958,2126
423516,-5156,21764,21194,21194,-3800,-1479,513,-642,996,-1007,1230,5252,-1,-21,896,1692,1862,2139,2259,2159,1926,1958,2126
424517,-5160,21824,21259,21259,-3800,-1535,472,-533,963,-1077,1425,5387,-7,-37,902,1692,1862,2139,2259,2159,1926,1958,2126
425518,-5160,21860,21324,21324,-3800,-1870,433,-377,914,-777,1480,5404,-1,-40,901,1692,1862,2139,2259,2159,1926,1958,2126
426519,-5164,21948,21389,21389,-3800,-1191,404,-225,865,-558,1366,5375,-1,-34,898,1692,1862,2139,2259,2159,1926,1958,2126
427520,-5152,22000,21454,21454,-3800,-1657,389,-112,832,-487,1244,5218,-9,-42,903,1621,1811,2051,2159,2099,1852,1920,2102
428521,-5156,22044,21519,21519,-3800,-1783,371,-23,800,-667,1193,5045,1,-37,899,1621,1811,2051,2159,2099,1852,1920,2102
429522,-5156,22116,21584,21584,-3800,-1424,348,47,750,-546,975,4755,-9,-28,891,1621,1811,2051,2159,2099,1852,1920,2102
430523,-5152,22176,21649,21649,-3800,-1580,311,88,715,-534,767,4628,-6,-32,902,1621,1811,2051,2159,2099,1852,1920,2102
431524,-5148,22240,21714,21714,-3800,-1530,275,90,702,-636,600,4296,1,-39,900,1621,1811,2051,2159,2099,1852,1920,2102
432525,-5148,22308,21779,21779,-3800,-1477,240,58,665,-424,226,3927,-4,-31,901,1621,1826,2079,2185,2069,1843,1893,2071
433526,-5152,22356,21844,21844,-3800,-1747,192,15,632,-671,230,3690,-7,-36,897,1621,1826,2079,2185,2069,1843,1893,2071
434527,-5144,22424,21909,21909,-3800,-1494,155,-96,600,-551,81,3311,-13,-35,899,1621,1826,2079,2185,2069,1843,1893,2071
435528,-5160,22492,21974,21974,-3800,-1490,113,-207,563,-172,27,3273,-8,-39,902,1621,1826,2079,2185,2069,1843,1893,2071
436529,-5152,22548,22039,22039,-3800,-1650,79,-331,535,-425,45,3121,0,-45,901,1621,1826,2079,2185,2069,1843,1893,2071
437532,-5148,22596,22104,22104,-3800,-1771,42,-436,512,-233,95,3189,0,-32,897,1621,1826,2079,2185,2069,1843,1893,2071
438531,-5156,22636,22169,22169,-3800,-1901,6,-533,476,-259,276,3209,-2,-47,899,1699,1890,2176,2291,2049,1840,1889,2075
439532,-5160,22720,22234,22234,-3800,-1328,-28,-609,430,-5,369,3083,-4,-48,897,1699,1890,2176,2291,2049,1840,1889,2075
440533,-5148,22760,22299,22299,-3800,-1909,-59,-706,406,81,649,3315,-4,-54,903,1699,1890,2176,2291,2049,1840,1889,2075
441534,-5144,22792,22364,22364,-3800,-2048,-101,-775,376,-321,808,3347,0,-48,895,1699,1890,2176,2291,2049,1840,1889,2075
442535,-5160,22876,22429,22429,-3800,-1375,-142,-830,342,-202,893,3465,-9,-41,896,1699,1890,2176,2291,2049,1840,1889,2075
443536,-5144,22948,22494,22494,-3800,-1516,-163,-878,327,-236,1169,3479,-3,-40,903,1711,1891,2127,2222,2010,1775,1864,2044
444537,-5156,23028,22559,22559,-3800,-1398,-168,-932,306,47,1148,3485,-2,-40,900,1711,1891,2127,2222,2010,1775,1864,2044
445538,-5144,23104,22624,22624,-3800,-1435,-173,-1010,275,-373,1172,3723,-1,-53,901,1711,1891,2127,2222,2010,1775,1864,2044
446539,-5152,23164,22689,22689,-3800,-1641,-173,-1107,257,-1042,1113,3758,-10,-49,902,1711,1891,2127,2222,2010,1775,1864,2044
447540,-5140,23216,22754,22754,-3800,-1756,-151,-1186,240,-1066,1201,3897,-14,-46,900,1711,1891,2127,2222,2010,1775,1864,2044
448541,-5148,23304,22819,22819,-3800,-1277,-109,-1262,219,-683,978,3736,-9,-52,899,1711,1891,2127,2222,2010,1775,1864,2044
449542,-5140,23372,22884,22884,-3800,-1524,-52,-1361,227,-802,1085,3955,-14,-53,903,1643,1844,2029,2115,2008,1754,1858,2051
450543,-5140,23428,22949,22949,-3800,-1685,4,-1434,246,-1134,952,3835,-9,-52,901,1643,1844,2029,2115,2008,1754,1858,2051
451544,-5136,23496,23014,23014,-3800,-1531,49,-1503,234,-1042,850,3852,-15,-52,900,1643,1844,2029,2115,2008,1754,1858,2051
452545,-5136,23560,23079,23079,-3800,-1581,90,-1574,230,-744,749,3535,-14,-55,902,1643,1844,2029,2115,2008,1754,1858,2051
453546,-5128,23624,23144,23144,-3800,-1583,114,-1618,242,-367,741,3729,-5,-57,900,1643,1844,2029,2115,2008,1754,1858,2051
454547,-5148,23708,23209,23209,-3800,-1309,129,-1645,254,-545,637,3531,0,-43,901,1643,1858,2082,2194,1988,1754,1842,2015
455548,-5132,23756,23274,23274,-3800,-1780,140,-1654,269,-344,600,3614,1,-42,903,1643,1858,2082,2194,1988,1754,1842,2015
456549,-5128,23840,23339,23339,-3800,-1307,155,-1679,271,-76,456,3256,0,-44,899,1643,1858,2082,2194,1988,1754,1842,2015
457550,-5124,23928,23404,23404,-3800,-1229,157,-1714,270,-106,432,3543,-5,-49,903,1643,1858,2082,2194,1988,1754,1842,2015
458551,-5128,24004,23469,23469,-3800,-1364,154,-1713,285,-23,457,3281,1,-45,904,1643,1858,2082,2194,1988,1754,1842,2015
459552,-5132,24092,23534,23534,-3800,-1186,148,-1704,308,326,413,3340,-4,-50,903,1643,1858,2082,2194,1988,1754,1842,2015
460553,-5120,24168,23599,23599,-3800,-1323,138,-1722,310,430,382,3087,-10,-46,904,1762,1941,2197,2341,1982,1790,1845,1987
461554,-5128,24212,23664,23664,-3800,-1749,122,-1752,314,9,346,3466,-12,-44,902,1762,1941,2197,2341,1982,1790,1845,1987
462555,-5124,24292,23729,23729,-3800,-1279,121,-1810,318,-137,287,3558,-16,-28,899,1762,1941,2197,2341,1982,1790,1845,1987
463556,-5112,24352,23794,23794,-3800,-1535,142,-1884,336,119,171,3515,-1,-28,903,1762,1941,2197,2341,1982,1790,1845,1987
464557,-5116,24424,23859,23859,-3800,-1377,139,-1896,312,-584,313,4271,2,-26,901,1762,1941,2197,2341,1982,1790,1845,1987
465558,-5112,24484,23924,23924,-3800,-1533,166,-1878,345,-55,496,4056,-17,-42,902,1794,1928,2206,2372,1966,1785,1831,1972
466559,-5108,24548,23989,23989,-3800,-1484,165,-1818,355,609,663,4055,-12,-41,900,1794,1928,2206,2372,1966,1785,1831,1972
467560,-5112,24628,24054,24054,-3800,-1265,163,-1746,383,-164,734,4358,-13,-29,902,1794,1928,2206,2372,1966,1785,1831,1972
468561,-5096,24680,24119,24119,-3800,-1631,168,-1684,430,-206,899,4331,1,-28,903,1794,1928,2206,2372,1966,1785,1831,1972
469562,-5116,24740,24184,24184,-3800,-1537,192,-1597,469,-238,743,4515,-4,-39,900,1794,1928,2206,2372,1966,1785,1831,1972
470563,-5108,24812,24249,24249,-3800,-1378,223,-1475,503,5,837,4688,0,-33,844,1794,1928,2206,2372,1966,1785,1831,1972
471564,-5104,24880,24314,24314,-3800,-1425,258,-1349,538,-30,807,4519,-2,-32,902,1693,1849,2090,2220,2023,1809,1872,2018
472565,-5104,24952,24379,24379,-3800,-1365,286,-1235,593,-408,765,4558,-6,-41,902,1693,1849,2090,2220,2023,1809,1872,2018
473566,-5096,25024,24444,24444,-3800,-1356,314,-1161,637,-428,660,4383,-15,-32,902,1693,1849,2090,2220,2023,1809,1872,2018
474567,-5092,25072,24509,24509,-3800,-1677,336,-1095,672,-217,562,4284,-16,-32,895,1693,1849,2090,2220,2023,1809,1872,2018
475568,-5092,25128,24574,24574,-3800,-1588,349,-1007,689,-722,491,4383,-15,-33,900,1693,1849,2090,2220,2023,1809,1872,2018
476569,-5100,25212,24639,24639,-3800,-1214,383,-928,723,-113,492,4135,-16,-46,901,1647,1830,2084,2222,2072,1841,1898,2064
477570,-5092,25276,24704,24704,-3800,-1465,394,-849,736,109,334,3974,-7,-48,904,1647,1830,2084,2222,2072,1841,1898,2064
478571,-5096,25364,24769,24769,-3800,-1137,406,-775,755,-348,432,4042,-5,-37,896,1647,1830,2084,2222,2072,1841,1898,2064
479572,-5100,25420,24834,24834,-3800,-1548,409,-714,765,-18,313,3768,-11,-42,905,1647,1830,2084,2222,2072,1841,1898,2064
480573,-5092,25492,24899,24899,-3800,-1340,414,-643,770,447,280,3704,3,-36,901,1647,1830,2084,2222,2072,1841,1898,2064
481574,-5096,25568,24964,24964,-3800,-1275,405,-588,778,622,252,3587,-17,-40,903,1647,1830,2084,2222,2072,1841,1898,2064
482575,-5088,25624,25029,25029,-3800,-1536,366,-522,787,675,149,3625,2,-34,900,1678,1854,2136,2276,2074,1851,1883,2031
483576,-5088,25672,25094,25094,-3800,-1657,311,-477,795,480,391,3607,-10,-36,901,1678,1854,2136,2276,2074,1851,1883,2031
484577,-5096,25728,25159,25159,-3800,-1568,259,-413,799,790,203,3553,-11,-34,900,1678,1854,2136,2276,2074,1851,1883,2031
485580,-5088,25784,25224,25224,-3800,-1578,217,-366,809,1264,254,3718,-17,-30,900,1678,1854,2136,2276,2074,1851,1883,2031
486579,-5092,25840,25289,25289,-3800,-1589,184,-337,840,926,289,3721,-12,-33,899,1678,1854,2136,2276,2074,1851,1883,2031
487580,-5088,25896,25354,25354,-3800,-1600,156,-313,882,868,340,3842,-8,-21,900,1725,1880,2157,2299,2022,1822,1859,2000
488581,-5092,25960,25419,25419,-3800,-1501,133,-295,911,743,380,3588,-30,-30,900,1725,1880,2157,2299,2022,1822,1859,2000
489582,-5088,26012,25484,25484,-3800,-1667,110,-308,958,691,455,3854,-12,-39,901,1725,1880,2157,2299,2022,1822,1859,2000
490583,-5092,26084,25549,25549,-3800,-1407,81,-336,1009,787,567,3740,-10,-32,898,1725,1880,2157,2299,2022,1822,1859,2000
491584,-5092,26148,25614,25614,-3800,-1509,49,-347,1056,591,598,3751,-18,-38,902,1725,1880,2157,2299,2022,1822,1859,2000
492585,-5092,26212,25679,25679,-3800,-1510,30,-379,1100,574,663,3735,-1,-26,900,1725,1880,2157,2299,2022,1822,1859,2000
493586,-5088,26272,25744,25744,-3800,-1566,23,-436,1137,497,696,3752,-5,-42,901,1665,1826,2088,2218,2019,1811,1866,2023
494587,-5088,26348,25809,25809,-3800,-1353,18,-475,1159,455,658,3810,-3,-45,900,1665,1826,2088,2218,2019,1811,1866,2023
495588,-5088,26412,25874,25874,-3800,-1503,34,-500,1182,360,690,3820,-3,-43,902,1665,1826,2088,2218,2019,1811,1866,2023
496589,-5084,26488,25939,25939,-3800,-1339,48,-512,1211,599,722,3899,-5,-46,901,1665,1826,2088,2218,2019,1811,1866,2023
497590,-5076,26560,26004,26004,-3800,-1381,78,-505,1231,635,648,3805,-3,-37,903,1665,1826,2088,2218,2019,1811,1866,2023
498591,-5088,26620,26069,26069,-3800,-1537,95,-505,1228,561,674,3757,-3,-42,902,1638,1824,2068,2170,2078,1830,1903,2091
499592,-5080,26684,26134,26134,-3800,-1487,132,-498,1210,565,635,3779,-3,-33,901,1638,1824,2068,2170,2078,1830,1903,2091
500593,-5092,26748,26199,26199,-3800,-1488,136,-481,1205,416,689,3689,-1,-33,902,1638,1824,2068,2170,2078,1830,1903,2091
501594,-5072,26840,26264,26264,-3800,-1105,118,-461,1212,1085,752,3547,-9,-37,902,1638,1824,2068,2170,2078,1830,1903,2091
502595,-5060,26936,26329,26329,-3800,-1018,97,-450,1208,1067,715,3507,-11,-40,905,1638,1824,2068,2170,2078,1830,1903,2091
503596,-5076,27000,26394,26394,-3800,-1419,74,-419,1200,470,876,3379,-14,-39,905,1638,1824,2068,2170,2078,1830,1903,2091
504597,-5068,27060,26459,26459,-3800,-1474,40,-421,1180,970,588,3287,-3,-33,902,1673,1877,2127,2245,2054,1815,1884,2057
505598,-5076,27120,26524,26524,-3800,-1480,-5,-486,1169,1119,455,3302,-3,-26,902,1673,1877,2127,2245,2054,1815,1884,2057
506599,-5068,27204,26589,26589,-3800,-1157,-57,-560,1185,403,543,3314,-4,-45,901,1673,1877,2127,2245,2054,1815,1884,2057
507600,-5068,27280,26654,26654,-3800,-1243,-99,-584,1212,384,456,3370,-6,-45,905,1673,1877,2127,2245,2054,1815,1884,2057
508601,-5072,27356,26719,26719,-3800,-1229,-120,-632,1225,911,446,3328,-3,-49,904,1673,1877,2127,2245,2054,1815,1884,2057
509602,-5064,27440,26784,26784,-3800,-1106,-130,-708,1243,1194,289,3436,1,-36,904,1720,1899,2159,2283,2034,1825,1868,2020
510603,-5068,27496,26849,26849,-3800,-1467,-147,-786,1278,846,404,3588,-1,-34,905,1720,1899,2159,2283,2034,1825,1868,2020
511604,-5068,27576,26914,26914,-3800,-1148,-178,-841,1329,734,382,3726,-3,-42,902,1720,1899,2159,2283,2034,1825,1868,2020
512605,-5064,27632,26979,26979,-3800,-1458,-204,-886,1378,1311,301,3678,1,-50,904,1720,1899,2159,2283,2034,1825,1868,2020
513606,-5072,27728,27044,27044,-3800,-921,-204,-924,1420,1154,345,3730,-1,-39,902,1720,1899,2159,2283,2034,1825,1868,2020
514607,-5060,27804,27109,27109,-3800,-1157,-186,-949,1439,887,444,3873,0,-42,906,1720,1899,2159,2283,2034,1825,1868,2020
515608,-5056,27892,27174,27174,-3800,-979,-179,-941,1472,1099,526,4076,2,-41,900,1687,1854,2132,2263,2026,1814,1866,2022
516609,-5064,27964,27239,27239,-3800,-1169,-187,-943,1514,1684,723,4055,1,-40,906,1687,1854,2132,2263,2026,1814,1866,2022
517610,-5064,28048,27304,27304,-3800,-996,-193,-915,1580,1213,528,4055,3,-37,905,1687,1854,2132,2263,2026,1814,1866,2022
518611,-5068,28112,27369,27369,-3800,-1248,-207,-904,1597,799,763,3772,-15,-38,906,1687,1854,2132,2263,2026,1814,1866,2022
519612,-5068,28204,27434,27434,-3800,-865,-194,-937,1604,728,658,3843,-11,-44,898,1687,1854,2132,2263,2026,1814,1866,2022
520613,-5064,28292,27499,27499,-3800,-885,-174,-919,1604,1200,814,3631,-15,-48,907,1661,1830,2081,2223,2073,1844,1898,2057
521614,-5068,28384,27564,27564,-3800,-803,-135,-865,1600,1087,678,3832,-9,-38,907,1661,1830,2081,2223,2073,1844,1898,2057
522615,-5060,28452,27629,27629,-3800,-1099,-136,-811,1580,452,898,3481,-11,-35,907,1661,1830,2081,2223,2073,1844,1898,2057
523616,-5060,28536,27694,27694,-3800,-875,-172,-790,1537,524,800,3579,-9,-43,901,1661,1830,2081,2223,2073,1844,1898,2057
524617,-5056,28620,27759,27759,-3800,-851,-194,-768,1518,819,747,3670,-13,-32,907,1661,1830,2081,2223,2073,1844,1898,2057
525618,-5060,28688,27824,27824,-3800,-1048,-212,-701,1509,943,658,3666,-7,-28,907,1661,1830,2081,2223,2073,1844,1898,2057
526619,-5056,28752,27889,27889,-3800,-1098,-202,-610,1489,641,537,3797,-11,-39,906,1681,1868,2124,2260,2057,1827,1884,2034
527620,-5056,28816,27954,27954,-3800,-1099,-201,-560,1481,710,376,3515,-13,-38,902,1681,1868,2124,2260,2057,1827,1884,2034
528621,-5064,28880,28019,28019,-3800,-1100,-196,-518,1473,957,287,3601,-14,-32,905,1681,1868,2124,2260,2057,1827,1884,2034
529622,-5064,28976,28084,28084,-3800,-662,-204,-478,1486,632,297,3642,2,-40,904,1681,1868,2124,2260,2057,1827,1884,2034
530623,-5056,29036,28149,28149,-3800,-1118,-207,-401,1514,760,154,3737,-3,-42,908,1681,1868,2124,2260,2057,1827,1884,2034
531624,-5060,29116,28214,28214,-3800,-849,-216,-337,1532,1095,80,3696,-6,-35,903,1690,1867,2139,2287,2021,1819,1855,1985
532625,-5056,29184,28279,28279,-3800,-995,-221,-285,1574,1097,-3,3707,0,-45,907,1690,1867,2139,2287,2021,1819,1855,1985
533626,-5068,29276,28344,28344,-3800,-662,-227,-217,1613,870,48,3745,-3,-45,906,1690,1867,2139,2287,2021,1819,1855,1985
534627,-5064,29344,28409,28409,-3800,-958,-216,-122,1632,987,-145,3864,-10,-47,908,1690,1867,2139,2287,2021,1819,1855,1985
535628,-5072,29432,28474,28474,-3800,-679,-212,-104,1649,1424,-43,3604,-11,-30,905,1690,1867,2139,2287,2021,1819,1855,1985
536629,-5068,29504,28539,28539,-3800,-871,-198,-109,1685,1210,81,3707,4,-46,908,1690,1867,2139,2287,2021,1819,1855,1985
537630,-5060,29564,28604,28604,-3800,-1026,-178,-59,1676,1102,54,3636,4,-46,907,1699,1856,2144,2310,1984,1811,1840,1951
538631,-5072,29636,28669,28669,-3800,-867,-148,-3,1657,1006,335,3802,-14,-32,906,1699,1856,2144,2310,1984,1811,1840,1951
539632,-5072,29704,28734,28734,-3800,-913,-136,9,1648,1207,254,3636,0,-46,906,1699,1856,2144,2310,1984,1811,1840,1951
540633,-5068,29816,28799,28799,-3800,-305,-120,7,1617,1391,452,3550,-10,-36,907,1699,1856,2144,2310,1984,1811,1840,1951
541634,-5072,29904,28864,28864,-3800,-577,-117,54,1589,789,681,3478,-14,-43,911,1699,1856,2144,2310,1984,1811,1840,1951
542635,-5068,29980,28929,28929,-3800,-714,-92,159,1562,1190,570,3271,7,-43,909,1689,1837,2119,2295,1984,1804,1848,1952
543636,-5060,30072,28994,28994,-3800,-480,-60,228,1508,1345,304,3464,6,-40,908,1689,1837,2119,2295,1984,1804,1848,1952
544637,-5072,30140,29059,29059,-3800,-776,-15,254,1469,1479,-69,3444,-11,-37,909,1689,1837,2119,2295,1984,1804,1848,1952
545638,-5068,30228,29124,29124,-3800,-497,29,250,1435,1522,92,3453,2,-35,908,1689,1837,2119,2295,1984,1804,1848,1952
546639,-5068,30304,29189,29189,-3800,-633,54,271,1392,594,381,3476,-12,-36,909,1689,1837,2119,2295,1984,1804,1848,1952
547640,-5072,30392,29254,29254,-3800,-454,63,361,1357,744,374,3623,5,-39,908,1689,1837,2119,2295,1984,1804,1848,1952
548641,-5080,30460,29319,29319,-3800,-701,61,417,1327,1082,284,3544,5,-46,910,1701,1873,2128,2300,1978,1785,1849,1967
549642,-5084,30536,29384,29384,-3800,-587,69,439,1311,886,217,3440,-11,-34,908,1701,1873,2128,2300,1978,1785,1849,1967
550643,-5080,30636,29449,29449,-3800,-244,81,500,1277,664,146,3504,-9,-41,909,1701,1873,2128,2300,1978,1785,1849,1967
551644,-5072,30700,29514,29514,-3800,-695,86,567,1248,599,206,3540,-3,-48,911,1701,1873,2128,2300,1978,1785,1849,1967
552645,-5080,30764,29579,29579,-3800,-695,77,636,1222,856,373,3821,8,-31,908,1701,1873,2128,2300,1978,1785,1849,1967
553646,-5064,30832,29644,29644,-3800,-641,32,719,1239,1403,-16,4022,1,-36,908,1704,1892,2144,2299,1977,1781,1847,1981
554647,-5068,30908,29709,29709,-3800,-527,19,783,1271,1763,-424,3650,-12,-31,909,1704,1892,2144,2299,1977,1781,1847,1981
555648,-5068,30960,29774,29774,-3800,-843,83,806,1261,620,-367,3532,4,-47,909,1704,1892,2144,2299,1977,1781,1847,1981
556649,-5076,31048,29839,29839,-3800,-364,147,757,1207,-247,-84,3642,-13,-29,907,1704,1892,2144,2299,1977,1781,1847,1981
557650,-5064,31140,29904,29904,-3800,-281,183,729,1171,516,100,3717,-12,-44,910,1704,1892,2144,2299,1977,1781,1847,1981
558651,-5060,31224,29969,29969,-3800,-357,190,723,1188,2017,244,3717,-8,-39,911,1704,1892,2144,2299,1977,1781,1847,1981
559652,-5068,31292,30034,30034,-3800,-553,212,721,1155,1596,291,3475,-1,-28,910,1700,1875,2150,2306,2020,1834,1875,2007
560653,-5060,31364,30099,30099,-3800,-494,230,670,1068,-262,268,3575,-10,-27,900,1700,1875,2150,2306,2020,1834,1875,2007
561654,-5072,31444,30164,30164,-3800,-375,231,604,1001,-407,201,3286,-7,-40,909,1700,1875,2150,2306,2020,1834,1875,2007
562655,-5064,31512,30229,30229,-3800,-521,198,518,973,788,197,3203,-12,-28,910,1700,1875,2150,2306,2020,1834,1875,2007
563656,-5076,31568,30294,30294,-3800,-681,161,460,927,1091,377,3250,-4,-27,908,1700,1875,2150,2306,2020,1834,1875,2007
564657,-5064,31628,30359,30359,-3800,-637,156,479,871,730,300,3553,0,-34,903,1704,1866,2151,2323,2020,1839,1879,2002
565658,-5068,31692,30424,30424,-3800,-588,164,481,799,1093,403,3442,-8,-34,909,1704,1866,2151,2323,2020,1839,1879,2002
566659,-5072,31760,30489,30489,-3800,-534,146,448,736,905,521,3751,-7,-40,909,1704,1866,2151,2323,2020,1839,1879,2002
567660,-5076,31840,30554,30554,-3800,-365,110,473,689,891,615,3765,1,-40,909,1704,1866,2151,2323,2020,1839,1879,2002
568661,-5068,31904,30619,30619,-3800,-566,62,513,647,892,575,3861,5,-32,907,1704,1866,2151,2323,2020,1839,1879,2002
569662,-5072,31952,30684,30684,-3800,-786,13,520,616,695,545,3978,7,-39,909,1701,1849,2122,2280,2024,1835,1889,2031
570663,-5080,32028,30749,30749,-3800,-422,-22,511,595,498,432,3908,-12,-35,908,1701,1849,2122,2280,2024,1835,1889,2031
571664,-5068,32108,30814,30814,-3800,-353,-47,507,569,367,346,4025,-12,-38,910,1701,1849,2122,2280,2024,1835,1889,2031
572665,-5080,32168,30879,30879,-3800,-609,-62,500,550,86,325,3977,7,-35,908,1701,1849,2122,2280,2024,1835,1889,2031
573666,-5068,32232,30944,30944,-3800,-559,-78,456,526,-112,265,3968,8,-39,909,1701,1849,2122,2280,2024,1835,1889,2031
574667,-5072,32300,31009,31009,-3800,-506,-93,411,508,-285,200,4002,1,-33,909,1701,1849,2122,2280,2024,1835,1889,2031
575668,-5060,32372,31074,31074,-3800,-446,-106,363,499,-28,156,4189,-12,-42,909,1668,1853,2119,2252,2069,1863,1906,2079
576669,-5064,32468,31139,31139,-3800,-108,-103,339,469,-130,-39,4142,3,-44,908,1668,1853,2119,2252,2069,1863,1906,2079
577670,-5080,32544,31204,31204,-3800,-344,-91,327,441,-488,-39,4058,0,-30,911,1668,1853,2119,2252,2069,1863,1906,2079
578671,-5060,32616,31269,31269,-3800,-385,-57,272,411,-393,115,3764,-2,-39,910,1668,1853,2119,2252,2069,1863,1906,2079
579672,-5068,32676,31334,31334,-3800,-540,-40,224,373,60,116,3834,-9,-41,910,1668,1853,2119,2252,2069,1863,1906,2079
580673,-5056,32748,31399,31399,-3800,-382,-54,210,325,171,203,3775,5,-42,907,1677,1869,2153,2283,2114,1894,1935,2094
581674,-5072,32820,31464,31464,-3800,-372,-87,211,284,-44,298,3828,-6,-37,910,1677,1869,2153,2283,2114,1894,1935,2094
582675,-5076,32872,31529,31529,-3800,-638,-128,221,244,51,309,3816,-10,-38,910,1677,1869,2153,2283,2114,1894,1935,2094
583676,-5080,32960,31594,31594,-3800,-159,-180,208,206,244,416,3722,-9,-29,909,1677,1869,2153,2283,2114,1894,1935,2094
584677,-5076,33028,31659,31659,-3800,-405,-244,197,158,390,378,3792,-12,-41,910,1677,1869,2153,2283,2114,1894,1935,2094
585678,-5072,33104,31724,31724,-3800,-291,-291,229,117,142,573,3903,7,-34,910,1677,1869,2153,2283,2114,1894,1935,2094
586679,-5072,33164,31789,31789,-3800,-496,-334,269,76,315,641,3872,6,-29,910,1742,1912,2195,2358,2062,1869,1909,2040
587680,-5076,33228,31854,31854,-3800,-447,-372,266,46,825,485,3873,0,-34,910,1742,1912,2195,2358,2062,1869,1909,2040
588681,-5080,33312,31919,31919,-3800,-173,-402,249,18,254,488,4164,-3,-39,909,1742,1912,2195,2358,2062,1869,1909,2040
589682,-5072,33388,31984,31984,-3800,-260,-417,231,9,-252,479,4011,-12,-29,911,1742,1912,2195,2358,2062,1869,1909,2040
590683,-5056,33448,32049,32049,-3800,-465,-425,206,8,187,318,4146,-8,-39,911,1742,1912,2195,2358,2062,1869,1909,2040
591684,-5076,33504,32114,32114,-3800,-526,-418,159,19,75,222,4052,-5,-29,910,1719,1866,2159,2318,2043,1858,1887,2013
592685,-5076,33560,32179,32179,-3800,-536,-414,106,8,-278,170,3986,-9,-41,909,1719,1866,2159,2318,2043,1858,1887,2013
593686,-5076,33628,32244,32244,-3800,-382,-407,75,3,-685,38,4054,-12,-27,909,1719,1866,2159,2318,2043,1858,1887,2013
594687,-5056,33708,32309,32309,-3800,-213,-409,48,21,-442,31,3994,-7,-39,910,1719,1866,2159,2318,2043,1858,1887,2013
595688,-5068,33776,32374,32374,-3800,-359,-399,33,23,-56,85,3933,6,-39,911,1719,1866,2159,2318,2043,1858,1887,2013
596689,-5064,33852,32439,32439,-3800,-245,-381,54,17,-258,335,4169,7,-29,910,1719,1866,2159,2318,2043,1858,1887,2013
597690,-5072,33924,32504,32504,-3800,-286,-347,99,-14,-99,460,4199,7,-44,910,1696,1850,2137,2300,2029,1837,1879,2008
598691,-5064,34012,32569,32569,-3800,-57,-316,92,-60,153,555,3787,3,-33,911,1696,1850,2137,2300,2029,1837,1879,2008
599692,-5072,34096,32768,32768,-3800,-246,-308,80,-78,-99,464,3536,4,-26,911,1696,1850,2137,2300,2029,1837,1879,2008
600693,-5068,34156,32833,32833,-3800,-553,-343,118,-81,-756,263,3265,9,-34,911,1696,1850,2137,2300,2029,1837,1879,2008
601694,-5068,34232,32898,32898,-3800,-338,-369,173,-71,-672,361,3512,-2,-29,896,1696,1850,2137,2300,2029,1837,1879,2008
602695,-5068,34312,32963,32963,-3800,-270,-378,215,-75,78,488,3534,-12,-33,910,1711,1883,2158,2319,2010,1812,1866,2000
603696,-5060,34384,33028,33028,-3800,-360,-384,250,-89,450,308,3547,7,-38,911,1711,1883,2158,2319,2010,1812,1866,2000
604697,-5068,34472,33093,33093,-3800,-132,-386,265,-76,75,143,3618,4,-26,910,1711,1883,2158,2319,2010,1812,1866,2000
605698,-5076,34528,33158,33158,-3800,-542,-381,297,-76,-15,106,3568,-6,-36,904,1711,1883,2158,2319,2010,1812,1866,2000
606699,-5064,34588,33223,33223,-3800,-498,-359,363,-53,23,-67,3570,-7,-38,909,1711,1883,2158,2319,2010,1812,1866,2000
607700,-5080,34664,33288,33288,-3800,-284,-355,397,-47,57,12,3433,-8,-41,910,1711,1883,2158,2319,2010,1812,1866,2000
608701,-5068,34748,33353,33353,-3800,-161,-357,381,-39,-45,57,3699,-10,-32,911,1736,1892,2164,2329,1990,1802,1852,1974
609702,-5056,34820,33418,33418,-3800,-301,-353,359,-14,-56,44,3456,5,-31,907,1736,1892,2164,2329,1990,1802,1852,1974
610703,-5056,34904,33483,33483,-3800,-128,-347,321,-11,65,-88,3307,6,-41,911,1736,1892,2164,2329,1990,1802,1852,1974
611704,-5064,34968,33548,33548,-3800,-378,-328,264,-15,-141,-51,3567,-4,-41,911,1736,1892,2164,2329,1990,1802,1852,1974
612708,-5068,35028,33613,33613,-3800,-434,-312,231,-8,-157,-24,3463,-7,-39,910,1736,1892,2164,2329,1990,1802,1852,1974
613706,-5072,35116,33678,33678,-3800,-55,-295,187,10,333,-132,3472,-10,-31,907,1716,1860,2136,2312,1986,1803,1847,1963
614707,-5072,35188,33743,33743,-3800,-247,-282,162,19,370,-100,3501,-11,-46,911,1716,1860,2136,2312,1986,1803,1847,1963
615708,-5064,35252,33808,33808,-3800,-347,-265,176,13,272,-24,3614,2,-35,911,1716,1860,2136,2312,1986,1803,1847,1963
616709,-5072,35320,33873,33873,-3800,-292,-262,164,5,263,-106,3557,8,-37,910,1716,1860,2136,2312,1986,1803,1847,1963
617710,-5056,35396,33938,33938,-3800,-179,-254,160,-11,396,-145,3580,-11,-46,909,1716,1860,2136,2312,1986,1803,1847,1963
618711,-5064,35476,34003,34003,-3800,-109,-250,185,-5,558,-210,3717,-12,-38,911,1716,1860,2136,2312,1986,1803,1847,1963
619712,-5060,35552,34068,34068,-3800,-146,-249,233,29,490,-232,3705,-3,-41,911,1888,1857,2128,2305,2001,1813,1870,1996
620713,-5056,35636,34133,34133,-3800,-22,-250,288,55,564,-359,3708,-11,-32,911,1888,1857,2128,2305,2001,1813,1870,1996
621714,-5060,35716,34198,34198,-3800,-53,-256,297,86,257,-590,3606,-11,-38,910,1888,1857,2128,2305,2001,1813,1870,1996
622715,-5060,35792,34263,34263,-3800,-89,-265,280,130,58,-499,3686,-1,-44,912,1888,1857,2128,2305,2001,1813,1870,1996
623716,-5056,35876,34328,34328,-3800,35,-275,254,165,199,-579,3599,6,-44,911,1888,1857,2128,2305,2001,1813,1870,1996
624717,-5064,35932,34393,34393,-3800,-326,-285,237,168,196,-427,3571,0,-27,912,1715,1877,2144,2314,2025,1822,1888,2024
625718,-5056,36008,34458,34458,-3800,-61,-317,251,183,34,-492,3942,-11,-43,910,1715,1877,2144,2314,2025,1822,1888,2024
626719,-5052,36084,34523,34523,-3800,-48,-364,264,217,655,-761,3878,7,-45,911,1715,1877,2144,2314,2025,1822,1888,2024
627720,-5048,36168,34588,34588,-3800,76,-368,244,265,785,-979,3831,2,-38,911,1715,1877,2144,2314,2025,1822,1888,2024
628721,-5044,36212,34653,34653,-3800,-448,-337,177,277,-35,-1048,3575,4,-39,911,1715,1877,2144,2314,2025,1822,1888,2024
629722,-5048,36268,34718,34718,-3800,-309,-298,112,279,-476,-1093,3860,-3,-40,909,1715,1877,2144,2314,2025,1822,1888,2024
630723,-5048,36328,34783,34783,-3800,-265,-267,85,282,294,-946,4011,-12,-27,910,1710,1881,2140,2302,2078,1862,1919,2061
631724,-5040,36396,34848,34848,-3800,-161,-252,103,292,966,-1032,4116,-11,-42,910,1710,1881,2140,2302,2078,1862,1919,2061
632725,-5032,36472,34913,34913,-3800,-46,-250,106,306,987,-1076,4207,-11,-42,911,1710,1881,2140,2302,2078,1862,1919,2061
633726,-5040,36524,34978,34978,-3800,-362,-265,121,304,572,-965,4165,-8,-33,911,1710,1881,2140,2302,2078,1862,1919,2061
634727,-5036,36580,35043,35043,-3800,-322,-273,150,299,622,-993,4144,9,-35,910,1710,1881,2140,2302,2078,1862,1919,2061
635728,-5040,36632,35108,35108,-3800,-387,-285,169,296,933,-931,4245,-11,-29,910,1727,1895,2159,2334,2059,1852,1915,2039
636729,-5028,36732,35173,35173,-3800,256,-315,179,298,1094,-922,4334,-10,-17,910,1727,1895,2159,2334,2059,1852,1915,2039
637730,-5032,36796,35238,35238,-3800,-195,-341,188,317,1195,-941,4254,-11,-37,910,1727,1895,2159,2334,2059,1852,1915,2039
638731,-5032,36880,35303,35303,-3800,79,-348,204,330,834,-945,4234,-8,-31,911,1727,1895,2159,2334,2059,1852,1915,2039
639732,-5040,36924,35368,35368,-3800,-446,-359,212,339,525,-982,4424,3,-26,911,1727,1895,2159,2334,2059,1852,1915,2039
640733,-5028,36980,35433,35433,-3800,-306,-381,226,364,528,-1031,4516,-7,-38,910,1727,1895,2159,2334,2059,1852,1915,2039
641734,-5032,37044,35498,35498,-3800,-207,-398,229,410,937,-1030,4436,6,-27,910,1743,1900,2160,2351,2050,1855,1914,2030
642735,-5028,37108,35563,35563,-3800,-208,-405,216,431,690,-1178,4589,6,-34,911,1743,1900,2160,2351,2050,1855,1914,2030
643736,-5028,37184,35628,35628,-3800,-44,-405,193,432,303,-1271,4514,8,-33,911,1743,1900,2160,2351,2050,1855,1914,2030
644737,-5032,37244,35693,35693,-3800,-249,-388,153,451,157,-1350,4574,-5,-24,911,1743,1900,2160,2351,2050,1855,1914,2030
645738,-5032,37304,35758,35758,-3800,-254,-372,149,477,470,-1351,4589,-10,-38,911,1743,1900,2160,2351,2050,1855,1914,2030
646739,-5040,37364,35823,35823,-3800,-260,-352,159,504,649,-1342,4693,8,-30,899,1745,1901,2175,2372,2059,1866,1913,2042
647740,-5028,37424,35888,35888,-3800,-265,-321,190,550,578,-1353,4666,-11,-36,911,1745,1901,2175,2372,2059,1866,1913,2042
648741,-5040,37484,35953,35953,-3800,-272,-278,187,580,448,-1432,4643,-10,-27,910,1745,1901,2175,2372,2059,1866,1913,2042
649742,-5028,37532,36018,36018,-3800,-441,-220,179,584,296,-1377,4579,-10,-39,911,1745,1901,2175,2372,2059,1866,1913,2042
650743,-5036,37600,36083,36083,-3800,-187,-181,208,572,469,-1312,4601,-11,-29,903,1745,1901,2175,2372,2059,1866,1913,2042
651744,-5028,37660,36148,36148,-3800,-293,-164,277,564,857,-1262,4372,-12,-32,911,1745,1901,2175,2372,2059,1866,1913,2042
652745,-5032,37732,36213,36213,-3800,-133,-175,360,561,1013,-1134,4416,-3,-33,911,1758,1926,2198,2389,2055,1851,1918,2028
653746,-5032,37804,36278,36278,-3800,-125,-206,447,550,845,-1091,4258,-12,-42,911,1758,1926,2198,2389,2055,1851,1918,2028
654747,-5036,37860,36343,36343,-3800,-335,-236,527,529,672,-1072,4154,-9,-30,907,1758,1926,2198,2389,2055,1851,1918,2028
655748,-5028,37924,36408,36408,-3800,-236,-242,551,521,525,-1159,4181,8,-38,910,1758,1926,2198,2389,2055,1851,1918,2028
656749,-5028,37968,36473,36473,-3800,-511,-234,546,519,442,-1194,4145,7,-43,911,1758,1926,2198,2389,2055,1851,1918,2028
657750,-5032,38048,36538,36538,-3800,-41,-216,518,528,429,-1123,4282,6,-34,910,1791,1952,2208,2408,2017,1827,1892,1996
658751,-5024,38148,36603,36603,-3800,251,-193,493,530,332,-1164,4174,-2,-44,909,1791,1952,2208,2408,2017,1827,1892,1996
659752,-5028,38224,36668,36668,-3800,-34,-156,472,535,319,-1145,4231,8,-29,911,1791,1952,2208,2408,2017,1827,1892,1996
660753,-5036,38276,36733,36733,-3800,-350,-122,445,543,369,-1103,4235,5,-32,911,1791,1952,2208,2408,2017,1827,1892,1996
661754,-5032,38348,36798,36798,-3800,-90,-104,428,550,187,-1126,4234,3,-40,910,1791,1952,2208,2408,2017,1827,1892,1996
662757,-5036,38416,36863,36863,-3800,-136,-89,405,553,491,-1127,4308,-11,-31,910,1791,1952,2208,2408,2017,1827,1892,1996
663756,-5032,38472,36928,36928,-3800,-297,-75,407,554,568,-1157,4175,-11,-39,911,1748,1899,2153,2348,1989,1804,1871,1980
664757,-5024,38548,36993,36993,-3800,-32,-50,453,552,687,-1170,4240,5,-36,911,1748,1899,2153,2348,1989,1804,1871,1980
665758,-5032,38580,37058,37058,-3800,-623,-20,492,548,799,-1230,4142,7,-38,910,1748,1899,2153,2348,1989,1804,1871,1980
666759,-5032,38648,37123,37123,-3800,-168,9,526,550,581,-1192,4039,0,-34,908,1748,1899,2153,2348,1989,1804,1871,1980
667760,-5044,38716,37188,37188,-3800,-163,38,522,560,399,-1003,4126,-3,-31,911,1748,1899,2153,2348,1989,1804,1871,1980
668761,-5032,38776,37253,37253,-3800,-269,54,527,579,353,-914,3933,-10,-40,911,1730,1886,2137,2322,1992,1808,1873,1986
669762,-5028,38840,37318,37318,-3800,-220,74,515,584,678,-993,3787,-10,-39,911,1730,1886,2137,2322,1992,1808,1873,1986
670763,-5044,38892,37383,37383,-3800,-385,111,471,574,179,-982,3641,7,-28,911,1730,1886,2137,2322,1992,1808,1873,1986
671764,-5036,38952,37448,37448,-3800,-291,140,413,558,-216,-1010,3634,1,-31,910,1730,1886,2137,2322,1992,1808,1873,1986
672765,-5044,39012,37513,37513,-3800,-297,165,376,539,91,-956,3524,6,-35,911,1730,1886,2137,2322,1992,1808,1873,1986
673766,-5040,39084,37578,37578,-3800,-137,178,332,526,377,-753,3452,7,-41,911,1730,1886,2137,2322,1992,1808,1873,1986
674767,-5032,39144,37643,37643,-3800,-292,176,289,487,84,-683,3395,7,-43,911,1736,1898,2158,2343,1987,1806,1875,1992
675768,-5036,39204,37708,37708,-3800,-298,170,249,455,-248,-564,3467,6,-30,911,1736,1898,2158,2343,1987,1806,1875,1992
676769,-5040,39284,37773,37773,-3800,-29,174,230,431,65,-599,3451,-3,-35,910,1736,1898,2158,2343,1987,1806,1875,1992
677770,-5036,39336,37838,37838,-3800,-395,185,222,409,300,-647,3620,-6,-42,911,1736,1898,2158,2343,1987,1806,1875,1992
678771,-5044,39408,37903,37903,-3800,-135,218,250,381,402,-574,3580,-9,-31,910,1736,1898,2158,2343,1987,1806,1875,1992
679772,-5048,39480,37968,37968,-3800,-127,238,258,359,282,-595,3697,-6,-42,911,1748,1904,2158,2329,1991,1799,1868,1991
680773,-5040,39548,38033,38033,-3800,-172,254,247,339,45,-562,3621,4,-42,911,1748,1904,2158,2329,1991,1799,1868,1991
681774,-5048,39608,38098,38098,-3800,-277,258,231,331,-8,-486,3679,6,-40,911,1748,1904,2158,2329,1991,1799,1868,1991
682775,-5040,39656,38163,38163,-3800,-448,266,208,325,140,-468,3799,-1,-39,910,1748,1904,2158,2329,1991,1799,1868,1991
683776,-5048,39716,38228,38228,-3800,-303,273,193,326,-12,-429,3872,-11,-27,910,1748,1904,2158,2329,1991,1799,1868,1991
684777,-5032,39776,38293,38293,-3800,-309,279,176,320,-52,-422,3778,-3,-29,910,1748,1904,2158,2329,1991,1799,1868,1991
685778,-5040,39860,38358,38358,-3800,15,277,141,306,-104,-414,3824,-11,-41,910,1727,1885,2139,2316,1982,1796,1857,1986
686779,-5048,39904,38423,38423,-3800,-510,280,122,306,-201,-391,3816,5,-35,911,1727,1885,2139,2316,1982,1796,1857,1986
687780,-5040,39960,38488,38488,-3800,-371,297,87,299,-107,-216,3878,8,-34,910,1727,1885,2139,2316,1982,1796,1857,1986
688781,-5048,40020,38553,38553,-3800,-326,312,57,278,-250,-199,3886,0,-44,910,1727,1885,2139,2316,1982,1796,1857,1986
689782,-5044,40080,38618,38618,-3800,-332,337,45,264,-268,-164,3918,2,-43,910,1727,1885,2139,2316,1982,1796,1857,1986
690783,-5044,40160,38683,38683,-3800,-63,356,19,244,-80,-160,3891,2,-45,910,1711,1868,2135,2304,2014,1829,1881,2012
691784,-5048,40216,38748,38748,-3800,-374,365,1,214,-122,-23,3936,-5,-36,903,1711,1868,2135,2304,2014,1829,1881,2012
692785,-5048,40288,38813,38813,-3800,-164,364,-3,184,-80,-55,3785,4,-44,910,1711,1868,2135,2304,2014,1829,1881,2012
693786,-5036,40348,38878,38878,-3800,-320,364,0,148,118,-6,3785,7,-36,911,1711,1868,2135,2304,2014,1829,1881,2012
694787,-5036,40424,38943,38943,-3800,-106,355,-10,110,-76,149,3843,5,-44,911,1711,1868,2135,2304,2014,1829,1881,2012
695788,-5048,40484,39008,39008,-3800,-311,341,-13,85,-232,121,3862,4,-31,905,1711,1868,2135,2304,2014,1829,1881,2012
696789,-5032,40564,39073,39073,-3800,-42,345,19,59,-15,212,3751,8,-30,910,1731,1890,2170,2348,2036,1848,1897,2032
697790,-5048,40644,39138,39138,-3800,-23,339,33,37,106,192,3855,7,-39,911,1731,1890,2170,2348,2036,1848,1897,2032
698791,-5048,40712,39203,39203,-3800,-169,343,52,23,-114,156,3881,5,-40,911,1731,1890,2170,2348,2036,1848,1897,2032
699792,-5048,40768,39268,39268,-3800,-329,338,40,15,-403,311,3992,8,-32,907,1731,1890,2170,2348,2036,1848,1897,2032
700793,-5052,40824,39333,39333,-3800,-340,328,28,-1,-428,299,3939,3,-43,911,1731,1890,2170,2348,2036,1848,1897,2032
701794,-5048,40892,39398,39398,-3800,-186,311,-8,-12,-433,342,3959,7,-41,910,1734,1891,2159,2336,2046,1851,1892,2030
702795,-5044,40948,39463,39463,-3800,-346,294,-21,-20,-459,500,4186,1,-44,911,1734,1891,2159,2336,2046,1851,1892,2030
703796,-5048,41016,39528,39528,-3800,-192,278,-4,-36,-459,403,4177,-11,-43,908,1734,1891,2159,2336,2046,1851,1892,2030
704797,-5056,41076,39593,39593,-3800,-297,272,12,-50,-410,381,4329,-12,-36,911,1734,1891,2159,2336,2046,1851,1892,2030
705798,-5044,41136,39658,39658,-3800,-303,275,52,-55,-292,341,4214,0,-30,910,1734,1891,2159,2336,2046,1851,1892,2030
706799,-5052,41196,39723,39723,-3800,-308,292,83,-69,-122,156,4236,-2,-29,910,1734,1891,2159,2336,2046,1851,1892,2030
707800,-5052,41272,39788,39788,-3800,-95,316,107,-89,-59,151,4222,-3,-37,909,1720,1882,2164,2316,2045,1849,1889,2032
708801,-5048,41332,39853,39853,-3800,-300,329,119,-92,52,176,4177,7,-44,911,1720,1882,2164,2316,2045,1849,1889,2032
709802,-5036,41388,39918,39918,-3800,-360,316,143,-103,26,364,4177,-10,-30,911,1720,1882,2164,2316,2045,1849,1889,2032
710804,-5044,41436,39983,39983,-3800,-481,293,154,-109,-98,575,4137,-12,-30,910,1720,1882,2164,2316,2045,1849,1889,2032
711804,-5040,41508,40048,40048,-3800,-171,276,161,-114,-259,720,4022,5,-38,909,1720,1882,2164,2316,2045,1849,1889,2032
712805,-5032,41576,40113,40113,-3800,-218,246,140,-131,-377,773,4124,-1,-40,911,1714,1872,2159,2324,2043,1852,1891,2031
713806,-5044,41652,40178,40178,-3800,-103,219,115,-144,-372,718,4005,-1,-41,911,1714,1872,2159,2324,2043,1852,1891,2031
714807,-5036,41688,40243,40243,-3800,-639,190,84,-142,-229,703,3968,-5,-34,911,1714,1872,2159,2324,2043,1852,1891,2031
715808,-5040,41740,40308,40308,-3800,-453,165,58,-160,-188,710,3970,-9,-33,909,1714,1872,2159,2324,2043,1852,1891,2031
716809,-5040,41828,40373,40373,-3800,25,145,25,-181,-244,691,3991,1,-29,908,1714,1872,2159,2324,2043,1852,1891,2031
717810,-5024,41908,40438,40438,-3800,-56,126,12,-189,-239,725,3946,6,-31,911,1714,1872,2159,2324,2043,1852,1891,2031
718811,-5032,41980,40503,40503,-3800,-147,127,25,-186,125,703,3942,5,-31,911,1728,1882,2170,2328,2065,1869,1906,2057
719812,-5036,42028,40568,40568,-3800,-467,115,48,-195,186,627,4019,-11,-34,911,1728,1882,2170,2328,2065,1869,1906,2057
720813,-5032,42084,40633,40633,-3800,-377,104,92,-212,25,555,4087,3,-37,910,1728,1882,2170,2328,2065,1869,1906,2057
721814,-5032,42156,40698,40698,-3800,-169,90,100,-216,-103,482,3945,-8,-40,910,1728,1882,2170,2328,2065,1869,1906,2057
722815,-5028,42220,40763,40763,-3800,-269,80,96,-217,-27,540,3979,-4,-39,911,1728,1882,2170,2328,2065,1869,1906,2057
723816,-5016,42268,40828,40828,-3800,-490,71,81,-210,-14,567,3989,-5,-37,911,1713,1874,2162,2306,2073,1866,1900,2056
724817,-5028,42332,40893,40893,-3800,-290,73,75,-201,-82,540,3943,-9,-28,910,1713,1874,2162,2306,2073,1866,1900,2056
725818,-5028,42380,40958,40958,-3800,-510,68,44,-189,-359,456,3883,-13,-38,910,1713,1874,2162,2306,2073,1866,1900,2056
726819,-5024,42448,41023,41023,-3800,-256,73,16,-180,-413,495,3803,-1,-33,910,1713,1874,2162,2306,2073,1866,1900,2056
727820,-5008,42496,41088,41088,-3800,-526,75,-20,-165,-352,518,3912,-5,-40,910,1713,1874,2162,2306,2073,1866,1900,2056
728821,-5008,42564,41153,41153,-3800,-272,69,-26,-155,-224,602,3900,-3,-26,910,1713,1874,2162,2306,2073,1866,1900,2056
729822,-5024,42624,41218,41218,-3800,-377,53,-45,-155,-12,670,3905,-13,-40,910,1696,1867,2150,2291,2053,1844,1885,2034
730823,-5004,42672,41283,41283,-3800,-548,36,-50,-152,-38,693,3921,3,-35,910,1696,1867,2150,2291,2053,1844,1885,2034
731824,-5004,42736,41348,41348,-3800,-348,-3,-53,-148,54,768,3828,-9,-41,909,1696,1867,2150,2291,2053,1844,1885,2034
732825,-5000,42792,41413,41413,-3800,-459,-38,-50,-159,134,825,3903,-8,-28,910,1696,1867,2150,2291,2053,1844,1885,2034
733826,-5000,42868,41478,41478,-3800,-195,-81,-40,-166,151,834,3804,-4,-42,909,1696,1867,2150,2291,2053,1844,1885,2034
734827,-5008,42932,41543,41543,-3800,-346,-97,-26,-177,241,790,3819,-6,-38,910,1712,1874,2150,2303,2029,1822,1875,2019
735828,-4996,43004,41608,41608,-3800,-236,-122,-54,-189,84,747,3793,-12,-41,911,1712,1874,2150,2303,2029,1822,1875,2019
736829,-4992,43060,41673,41673,-3800,-447,-132,-40,-192,50,726,3798,7,-28,903,1712,1874,2150,2303,2029,1822,1875,2019
737830,-4996,43120,41738,41738,-3800,-402,-142,-56,-191,231,661,3748,5,-24,910,1712,1874,2150,2303,2029,1822,1875,2019
738831,-4996,43180,41803,41803,-3800,-409,-141,-68,-203,264,601,3782,-6,-33,910,1712,1874,2150,2303,2029,1822,1875,2019
739832,-5000,43240,41868,41868,-3800,-414,-138,-85,-205,86,541,3824,7,-31,910,1712,1874,2150,2303,2029,1822,1875,2019
740833,-5000,43292,41933,41933,-3800,-529,-125,-99,-194,99,527,3649,4,-30,905,1712,1867,2147,2304,2051,1850,1887,2035
741834,-5004,43356,41998,41998,-3800,-380,-112,-90,-181,270,483,3760,-12,-34,910,1712,1867,2147,2304,2051,1850,1887,2035
742835,-4988,43412,42063,42063,-3800,-490,-103,-85,-170,307,434,3689,-12,-40,910,1712,1867,2147,2304,2051,1850,1887,2035
743836,-5000,43480,42128,42128,-3800,-336,-96,-91,-151,81,440,3692,-8,-38,910,1712,1867,2147,2304,2051,1850,1887,2035
744837,-4992,43540,42193,42193,-3800,-441,-96,-93,-132,63,455,3688,8,-40,907,1712,1867,2147,2304,2051,1850,1887,2035
745838,-5000,43620,42258,42258,-3800,-173,-101,-103,-111,169,419,3697,7,-30,910,1708,1867,2156,2313,2041,1842,1878,2017
746839,-4992,43684,42323,42323,-3800,-373,-104,-117,-106,188,474,3670,4,-41,911,1708,1867,2156,2313,2041,1842,1878,2017
747840,-4996,43752,42388,42388,-3800,-319,-108,-114,-103,39,494,3707,5,-40,910,1708,1867,2156,2313,2041,1842,1878,2017
748841,-5000,43780,42453,42453,-3800,-864,-111,-131,-106,137,544,3756,7,-26,908,1708,1867,2156,2313,2041,1842,1878,2017
749842,-4992,43844,42518,42518,-3800,-415,-117,-105,-105,313,565,3798,-1,-32,908,1708,1867,2156,2313,2041,1842,1878,2017
750843,-4988,43928,42583,42583,-3800,-141,-133,-79,-110,388,640,3780,-1,-41,909,1708,1867,2156,2313,2041,1842,1878,2017
751844,-4988,43976,42648,42648,-3800,-611,-154,-37,-121,372,661,3827,5,-39,911,1714,1868,2152,2315,2019,1822,1868,2003
752845,-4996,44056,42713,42713,-3800,-192,-179,6,-128,429,603,3811,-3,-31,908,1714,1868,2152,2315,2019,1822,1868,2003
753846,-4988,44116,42778,42778,-3800,-448,-195,49,-142,550,602,3794,4,-44,910,1714,1868,2152,2315,2019,1822,1868,2003
754847,-5000,44172,42843,42843,-3800,-508,-203,70,-160,353,491,3819,0,-36,910,1714,1868,2152,2315,2019,1822,1868,2003
755848,-4988,44252,42908,42908,-3800,-190,-201,89,-165,240,431,3886,-12,-46,910,1714,1868,2152,2315,2019,1822,1868,2003
756849,-4984,44316,42973,42973,-3800,-390,-198,85,-165,334,393,3745,-6,-43,910,1717,1870,2147,2313,2018,1826,1864,2004
757850,-4992,44408,43038,43038,-3800,-7,-183,78,-169,294,216,3849,-11,-31,910,1717,1870,2147,2313,2018,1826,1864,2004
758851,-4996,44468,43103,43103,-3800,-412,-174,91,-177,326,238,3724,-7,-38,911,1717,1870,2147,2313,2018,1826,1864,2004
759852,-4988,44536,43168,43168,-3800,-309,-154,88,-163,320,198,3721,-10,-35,910,1717,1870,2147,2313,2018,1826,1864,2004
760853,-4996,44600,43233,43233,-3800,-359,-138,87,-154,335,185,3791,-10,-45,910,1717,1870,2147,2313,2018,1826,1864,2004
761854,-4984,44680,43298,43298,-3800,-140,-134,82,-141,201,145,3813,-6,-41,910,1717,1870,2147,2313,2018,1826,1864,2004
762855,-4992,44740,43363,43363,-3800,-396,-125,79,-126,248,110,3676,-10,-28,911,1702,1859,2142,2302,2032,1836,1876,2012
763856,-4988,44800,43428,43428,-3800,-402,-115,78,-117,436,99,3770,-11,-40,910,1702,1859,2142,2302,2032,1836,1876,2012
764857,-4992,44872,43493,43493,-3800,-242,-99,79,-108,582,160,3698,-12,-27,909,1702,1859,2142,2302,2032,1836,1876,2012
765858,-5000,44920,43558,43558,-3800,-562,-98,75,-93,476,173,3758,-8,-32,910,1702,1859,2142,2302,2032,1836,1876,2012
766859,-4984,44988,43623,43623,-3800,-308,-117,102,-88,544,249,3830,-10,-27,910,1702,1859,2142,2302,2032,1836,1876,2012
767860,-5000,45048,43688,43688,-3800,-413,-133,127,-88,624,267,3745,5,-31,909,1717,1877,2156,2325,2024,1830,1878,2012
768861,-4992,45112,43753,43753,-3800,-365,-150,139,-89,701,312,3883,3,-37,910,1717,1877,2156,2325,2024,1830,1878,2012
769862,-4980,45168,43818,43818,-3800,-475,-163,168,-87,554,258,3801,1,-32,910,1717,1877,2156,2325,2024,1830,1878,2012
770863,-4984,45224,43883,43883,-3800,-486,-172,175,-95,544,240,3765,-11,-28,910,1717,1877,2156,2325,2024,1830,1878,2012
771864,-4988,45292,43948,43948,-3800,-331,-171,169,-103,434,212,3884,-9,-27,910,1717,1877,2156,2325,2024,1830,1878,2012
772865,-4988,45368,44013,44013,-3800,-217,-170,166,-105,355,154,3872,-4,-37,910,1717,1877,2156,2325,2024,1830,1878,2012
773866,-4984,45424,44078,44078,-3800,-477,-169,151,-112,306,73,3846,-6,-30,911,1725,1882,2154,2321,2029,1831,1879,2014
774867,-4980,45472,44143,44143,-3800,-598,-170,138,-109,248,-37,3863,6,-41,910,1725,1882,2154,2321,2029,1831,1879,2014
775868,-5000,45532,44208,44208,-3800,-453,-166,117,-117,254,-13,3901,-3,-41,909,1725,1882,2154,2321,2029,1831,1879,2014
776869,-4976,45608,44273,44273,-3800,-240,-143,100,-121,50,-168,3992,7,-28,909,1725,1882,2154,2321,2029,1831,1879,2014
777870,-4988,45684,44338,44338,-3800,-225,-133,76,-126,213,-105,3873,-6,-26,927,1725,1882,2154,2321,2029,1831,1879,2014
778871,-4988,45740,44403,44403,-3800,-486,-112,56,-109,121,-162,4018,-11,-39,911,1720,1880,2154,2315,2037,1835,1885,2016
779872,-4988,45796,44468,44468,-3800,-496,-102,54,-89,149,-85,3981,-11,-30,910,1720,1880,2154,2315,2037,1835,1885,2016
780873,-5000,45852,44533,44533,-3800,-507,-93,67,-70,320,-81,4010,-11,-36,909,1720,1880,2154,2315,2037,1835,1885,2016
781874,-4996,45920,44598,44598,-3800,-353,-101,67,-46,188,-43,4117,-6,-37,902,1720,1880,2154,2315,2037,1835,1885,2016
782875,-5000,45988,44663,44663,-3800,-349,-115,85,-30,220,-48,4012,-12,-29,910,1720,1880,2154,2315,2037,1835,1885,2016
783876,-4992,46048,44728,44728,-3800,-454,-128,83,-16,189,39,3910,-10,-32,910,1720,1880,2154,2315,2037,1835,1885,2016
784877,-4992,46108,44793,44793,-3800,-460,-138,67,0,269,75,4012,-11,-33,909,1724,1890,2161,2327,2024,1832,1885,2021
785878,-4984,46164,44858,44858,-3800,-520,-144,78,3,314,30,4114,5,-37,905,1724,1890,2161,2327,2024,1832,1885,2021
786879,-5000,46228,44923,44923,-3800,-421,-156,72,-1,258,49,4055,-12,-38,910,1724,1890,2161,2327,2024,1832,1885,2021
787880,-4980,46292,44988,44988,-3800,-422,-154,70,-2,213,-17,4021,-9,-35,910,1724,1890,2161,2327,2024,1832,1885,2021
788881,-4996,46356,45053,45053,-3800,-423,-145,68,-4,276,-88,4055,-3,-33,910,1724,1890,2161,2327,2024,1832,1885,2021
789882,-4980,46412,45118,45118,-3800,-533,-129,61,-8,244,-13,4036,7,-37,906,1740,1893,2170,2342,2043,1849,1898,2033
790883,-5000,46480,45183,45183,-3800,-379,-120,56,-12,307,-74,3981,0,-36,910,1740,1893,2170,2342,2043,1849,1898,2033
791884,-4988,46540,45248,45248,-3800,-484,-111,41,-18,185,-118,4091,-11,-39,910,1740,1893,2170,2342,2043,1849,1898,2033
792885,-4992,46604,45313,45313,-3800,-436,-101,28,-26,53,-98,4037,-6,-39,910,1740,1893,2170,2342,2043,1849,1898,2033
793886,-4984,46664,45378,45378,-3800,-491,-86,6,-20,50,-123,3988,-3,-36,908,1740,1893,2170,2342,2043,1849,1898,2033
794887,-4992,46736,45443,45443,-3800,-332,-76,-12,-17,6,-112,4016,18,-25,910,1740,1893,2170,2342,2043,1849,1898,2033
795888,-4992,46780,45508,45508,-3800,-707,-73,-33,-20,-82,-85,4086,-9,-34,910,1741,1897,2176,2350,2041,1846,1890,2021
796889,-4996,46832,45573,45573,-3800,-623,-75,-25,-16,75,-93,4089,-10,-30,909,1741,1897,2176,2350,2041,1846,1890,2021
797890,-4996,46896,45638,45638,-3800,-473,-76,-33,3,-21,-98,4104,4,-28,907,1741,1897,2176,2350,2041,1846,1890,2021
798891,-4980,46936,45703,45703,-3800,-803,-83,-34,18,-86,-76,4174,-5,-39,909,1741,1897,2176,2350,2041,1846,1890,2021
799892,-4996,47004,45768,45768,-3800,-449,-81,-25,25,-54,-112,4244,1,-43,908,1741,1897,2176,2350,2041,1846,1890,2021
800893,-4992,47052,45833,45833,-3800,-719,-67,-19,36,22,-97,4229,-8,-29,909,1740,1897,2170,2341,2027,1833,1884,2016
801894,-4996,47132,45898,45898,-3800,-300,-54,-16,46,39,-167,4187,-1,-35,907,1740,1897,2170,2341,2027,1833,1884,2016
802895,-4996,47208,45963,45963,-3800,-337,-51,1,50,-96,-72,4196,-1,-44,909,1740,1897,2170,2341,2027,1833,1884,2016
803896,-4988,47288,46028,46028,-3800,-267,-56,12,64,30,-59,4158,2,-40,910,1740,1897,2170,2341,2027,1833,1884,2016
804897,-4988,47364,46093,46093,-3800,-304,-54,37,81,116,-40,4171,-11,-37,911,1740,1897,2170,2341,2027,1833,1884,2016
805898,-4992,47404,46158,46158,-3800,-784,-57,34,91,-41,37,4212,-8,-28,910,1742,1901,2173,2344,2024,1824,1885,2017
806899,-5000,47472,46223,46223,-3800,-430,-44,5,101,-242,23,4078,-9,-32,909,1742,1901,2173,2344,2024,1824,1885,2017
807900,-4988,47540,46288,46288,-3800,-425,-27,-29,107,-309,95,4093,4,-37,909,1742,1901,2173,2344,2024,1824,1885,2017
808901,-4996,47596,46353,46353,-3800,-586,-8,-28,89,-118,-19,4063,7,-41,910,1742,1901,2173,2344,2024,1824,1885,2017
809902,-5000,47652,46418,46418,-3800,-597,28,-36,72,142,-200,4025,4,-38,909,1742,1901,2173,2344,2024,1824,1885,2017
810903,-4992,47712,46483,46483,-3800,-552,65,-60,78,115,-68,3938,-12,-42,909,1742,1901,2173,2344,2024,1824,1885,2017
811904,-4992,47780,46548,46548,-3800,-449,87,-56,94,-41,47,4036,4,-45,909,1743,1898,2168,2348,2033,1838,1888,2016
812905,-4992,47844,46613,46613,-3800,-499,92,-39,100,48,14,4056,6,-27,909,1743,1898,2168,2348,2033,1838,1888,2016
813906,-4992,47908,46678,46678,-3800,-500,91,-41,104,104,24,3819,-2,-42,909,1743,1898,2168,2348,2033,1838,1888,2016
814907,-4996,47964,46743,46743,-3800,-610,99,-72,109,7,169,3926,-10,-39,909,1743,1898,2168,2348,2033,1838,1888,2016
815908,-4988,48052,46808,46808,-3800,-182,106,-82,111,-120,154,3926,-5,-28,909,1743,1898,2168,2348,2033,1838,1888,2016
816909,-4988,48096,46873,46873,-3800,-757,104,-92,120,-38,165,3930,7,-42,909,1758,1909,2184,2364,2010,1821,1873,1995
817910,-5004,48172,46938,46938,-3800,-343,99,-112,128,137,138,3884,3,-43,911,1758,1909,2184,2364,2010,1821,1873,1995
818911,-5000,48240,47003,47003,-3800,-438,86,-119,121,-108,65,4036,-11,-40,907,1758,1909,2184,2364,2010,1821,1873,1995
819912,-4988,48308,47068,47068,-3800,-435,76,-111,130,-75,144,3949,-2,-36,910,1758,1909,2184,2364,2010,1821,1873,1995
820913,-5000,48384,47133,47133,-3800,-320,86,-101,154,217,101,3930,-9,-27,910,1758,1909,2184,2364,2010,1821,1873,1995
821914,-5004,48456,47198,47198,-3800,-362,96,-89,162,106,153,4081,3,-37,910,1758,1909,2184,2364,2010,1821,1873,1995
822915,-5004,48520,47263,47263,-3800,-462,107,-104,179,-229,52,4037,-3,-33,900,1745,1897,2169,2339,2012,1823,1871,2006
823916,-5000,48576,47328,47328,-3800,-573,122,-102,196,-173,54,3960,-7,-36,910,1745,1897,2169,2339,2012,1823,1871,2006
824917,-4988,48640,47393,47393,-3800,-473,138,-108,208,-138,57,4066,-8,-27,910,1745,1897,2169,2339,2012,1823,1871,2006
825918,-4996,48700,47458,47458,-3800,-529,154,-125,214,-109,77,4057,7,-23,909,1745,1897,2169,2339,2012,1823,1871,2006
826919,-4996,48760,47523,47523,-3800,-534,171,-135,224,-155,77,3992,5,-40,903,1745,1897,2169,2339,2012,1823,1871,2006
827920,-4992,48804,47588,47588,-3800,-760,189,-157,225,-130,170,3912,-13,-24,909,1729,1883,2164,2331,2031,1838,1867,2019
828921,-5000,48868,47653,47653,-3800,-510,200,-166,224,-95,195,3970,-11,-39,909,1729,1883,2164,2331,2031,1838,1867,2019
829922,-5000,48936,47718,47718,-3800,-457,211,-167,228,-53,203,3848,4,-41,908,1729,1883,2164,2331,2031,1838,1867,2019
830923,-4992,48992,47783,47783,-3800,-618,219,-150,222,132,235,3983,6,-26,905,1729,1883,2164,2331,2031,1838,1867,2019
831924,-4992,49060,47848,47848,-3800,-463,223,-126,222,50,346,3838,-13,-30,909,1729,1883,2164,2331,2031,1838,1867,2019
832925,-4988,49116,47913,47913,-3800,-624,215,-122,221,65,412,3821,-9,-41,909,1729,1883,2164,2331,2031,1838,1867,2019
833926,-5004,49168,47978,47978,-3800,-689,207,-119,221,126,358,3878,1,-37,910,1733,1889,2169,2331,2037,1844,1888,2019
834927,-4996,49236,48043,48043,-3800,-485,203,-119,229,-91,383,3938,-9,-37,906,1733,1889,2169,2331,2037,1844,1888,2019
835928,-5000,49312,48108,48108,-3800,-371,200,-124,240,-135,460,3818,6,-30,907,1733,1889,2169,2331,2037,1844,1888,2019
836929,-5004,49360,48173,48173,-3800,-742,193,-140,246,-9,381,3884,-12,-38,909,1733,1889,2169,2331,2037,1844,1888,2019
837933,-4992,49424,48238,48238,-3800,-542,190,-146,250,-30,404,3945,-10,-31,910,1733,1889,2169,2331,2037,1844,1888,2019
838931,-5004,49484,48303,48303,-3800,-598,188,-155,261,-57,335,3921,-7,-29,906,1732,1887,2169,2341,2031,1841,1879,2014
839932,-5012,49544,48368,48368,-3800,-603,187,-158,276,-33,312,3928,-8,-30,909,1732,1887,2169,2341,2031,1841,1879,2014
840933,-5008,49608,48433,48433,-3800,-554,187,-151,287,50,276,3931,-13,-46,909,1732,1887,2169,2341,2031,1841,1879,2014
841934,-4992,49696,48498,48498,-3800,-226,191,-148,303,44,236,3957,-3,-41,909,1732,1887,2169,2341,2031,1841,1879,2014
842935,-5000,49776,48563,48563,-3800,-307,194,-135,315,-9,227,4008,5,-37,908,1732,1887,2169,2341,2031,1841,1879,2014
843936,-5000,49836,48628,48628,-3800,-563,203,-113,326,78,230,3872,-10,-34,911,1732,1887,2169,2341,2031,1841,1879,2014
844937,-5000,49904,48693,48693,-3800,-458,210,-122,335,124,349,4057,-8,-28,910,1725,1876,2164,2331,2031,1837,1875,2010
845938,-5000,49968,48758,48758,-3800,-509,214,-122,344,-189,292,3997,-11,-26,909,1725,1876,2164,2331,2031,1837,1875,2010
846939,-4996,50040,48823,48823,-3800,-400,214,-123,344,-142,326,3979,5,-40,909,1725,1876,2164,2331,2031,1837,1875,2010
847940,-5000,50108,48888,48888,-3800,-446,216,-134,346,-35,414,3858,-5,-27,909,1725,1876,2164,2331,2031,1837,1875,2010
848941,-5008,50176,48953,48953,-3800,-442,212,-135,349,-2,370,3928,-11,-27,910,1725,1876,2164,2331,2031,1837,1875,2010
849942,-5000,50252,49152,49152,-3800,-492,207,-131,349,-174,452,3906,-10,-25,910,1726,1879,2164,2333,2035,1839,1879,2020
850943,-5000,50304,49217,49217,-3800,-807,199,-140,360,-76,478,3793,-11,-37,909,1726,1879,2164,2333,2035,1839,1879,2020
851944,-5000,50360,49282,49282,-3800,-768,201,-129,368,72,492,3880,-7,-37,910,1726,1879,2164,2333,2035,1839,1879,2020
852945,-5004,50444,49347,49347,-3800,-394,189,-148,372,-17,500,3899,-11,-38,906,1726,1879,2164,2333,2035,1839,1879,2020
853946,-4992,50516,49412,49412,-3800,-535,182,-142,371,-27,483,3795,6,-33,907,1726,1879,2164,2333,2035,1839,1879,2020
854947,-5000,50564,49477,49477,-3800,-856,166,-137,371,104,437,3760,7,-27,910,1726,1879,2164,2333,2035,1839,1879,2020
855948,-4992,50636,49542,49542,-3800,-546,147,-139,375,26,421,3838,-2,-29,909,1735,1888,2176,2345,2029,1847,1888,2023
856949,-5000,50680,49607,49607,-3800,-922,143,-144,378,42,470,3825,6,-44,907,1735,1888,2176,2345,2029,1847,1888,2023
857950,-5000,50768,49672,49672,-3800,-343,147,-144,385,31,473,3879,-14,-46,909,1735,1888,2176,2345,2029,1847,1888,2023
858951,-5000,50848,49737,49737,-3800,-424,159,-145,395,41,400,3921,3,-44,907,1735,1888,2176,2345,2029,1847,1888,2023
859952,-5000,50916,49802,49802,-3800,-571,172,-136,404,42,314,3939,1,-42,911,1735,1888,2176,2345,2029,1847,1888,2023
860953,-4996,50984,49867,49867,-3800,-566,181,-142,410,42,368,3857,-11,-34,910,1726,1873,2165,2328,2045,1851,1887,2024
861954,-5008,51060,49932,49932,-3800,-453,193,-148,420,5,320,3890,1,-35,909,1726,1873,2165,2328,2045,1851,1887,2024
862955,-5000,51132,49997,49997,-3800,-493,201,-155,439,53,420,3863,7,-28,909,1726,1873,2165,2328,2045,1851,1887,2024
863956,-5004,51196,50062,50062,-3800,-594,205,-173,448,105,356,3938,-7,-41,910,1726,1873,2165,2328,2045,1851,1887,2024
864957,-5000,51276,50127,50127,-3800,-375,203,-166,451,-42,385,3999,-10,-28,910,1726,1873,2165,2328,2045,1851,1887,2024
865958,-5004,51348,50192,50192,-3800,-466,198,-181,457,0,439,3898,7,-26,909,1726,1873,2165,2328,2045,1851,1887,2024
866959,-4992,51396,50257,50257,-3800,-787,196,-196,458,103,420,3882,-6,-37,910,1724,1877,2166,2337,2026,1837,1872,2004
867960,-4988,51476,50322,50322,-3800,-368,190,-217,461,21,446,3953,-13,-33,902,1724,1877,2166,2337,2026,1837,1872,2004
868961,-4988,51532,50387,50387,-3800,-679,182,-240,458,-5,496,3943,2,-25,908,1724,1877,2166,2337,2026,1837,1872,2004
869962,-5000,51600,50452,50452,-3800,-524,168,-233,456,188,415,3905,6,-37,909,1724,1877,2166,2337,2026,1837,1872,2004
870963,-5000,51664,50517,50517,-3800,-575,157,-250,456,137,474,4015,-12,-39,908,1724,1877,2166,2337,2026,1837,1872,2004
871964,-5000,51724,50582,50582,-3800,-630,140,-249,448,109,409,3862,-12,-24,904,1734,1887,2171,2341,2025,1839,1882,2015
872965,-5008,51776,50647,50647,-3800,-746,127,-245,440,113,375,3970,4,-34,909,1734,1887,2171,2341,2025,1839,1882,2015
873966,-5004,51840,50712,50712,-3800,-597,126,-251,446,88,469,3850,-12,-28,909,1734,1887,2171,2341,2025,1839,1882,2015
874967,-4996,51916,50777,50777,-3800,-433,127,-260,447,274,383,3941,6,-36,908,1734,1887,2171,2341,2025,1839,1882,2015
875968,-5000,51980,50842,50842,-3800,-584,119,-241,429,176,323,3983,-10,-37,905,1734,1887,2171,2341,2025,1839,1882,2015
876969,-5000,52056,50907,50907,-3800,-420,117,-221,431,54,295,3873,-12,-36,910,1734,1887,2171,2341,2025,1839,1882,2015
877970,-5004,52092,50972,50972,-3800,-955,122,-227,438,187,308,3860,-12,-31,909,1739,1894,2181,2350,2047,1857,1897,2034
878971,-5000,52156,51037,51037,-3800,-606,136,-220,437,33,297,3908,-13,-39,910,1739,1894,2181,2350,2047,1857,1897,2034
879972,-4996,52220,51102,51102,-3800,-607,148,-227,449,-69,311,3905,-3,-40,904,1739,1894,2181,2350,2047,1857,1897,2034
880973,-4996,52284,51167,51167,-3800,-607,162,-235,458,32,371,3860,-13,-31,909,1739,1894,2181,2350,2047,1857,1897,2034
881974,-4996,52336,51232,51232,-3800,-773,164,-211,453,108,320,3827,1,-34,909,1739,1894,2181,2350,2047,1857,1897,2034
882975,-5000,52400,51297,51297,-3800,-624,174,-210,451,61,213,3818,5,-40,909,1726,1881,2159,2342,2047,1857,1890,2018
883976,-4992,52456,51362,51362,-3800,-734,159,-242,469,-102,360,3800,-13,-42,906,1726,1881,2159,2342,2047,1857,1890,2018
884977,-4988,52540,51427,51427,-3800,-361,159,-250,472,-31,287,3883,-6,-37,909,1726,1881,2159,2342,2047,1857,1890,2018
885978,-4988,52604,51492,51492,-3800,-611,150,-263,460,118,352,3959,2,-40,908,1726,1881,2159,2342,2047,1857,1890,2018
886979,-5000,52684,51557,51557,-3800,-393,149,-261,445,289,238,3930,2,-29,909,1726,1881,2159,2342,2047,1857,1890,2018
887981,-4996,52728,51622,51622,-3800,-867,128,-243,444,132,383,3922,-6,-31,907,1726,1881,2159,2342,2047,1857,1890,2018
888981,-5000,52800,51687,51687,-3800,-509,130,-254,448,91,390,4035,-9,-39,910,1726,1876,2162,2341,2026,1841,1878,1997
889982,-5000,52876,51752,51752,-3800,-445,130,-234,450,207,370,4056,6,-43,907,1726,1876,2162,2341,2026,1841,1878,1997
890983,-5000,52956,51817,51817,-3800,-376,126,-223,444,181,352,4087,-12,-28,910,1726,1876,2162,2341,2026,1841,1878,1997
891984,-5000,53008,51882,51882,-3800,-742,113,-187,451,265,256,3931,-9,-30,909,1726,1876,2162,2341,2026,1841,1878,1997
892985,-4996,53088,51947,51947,-3800,-373,105,-176,454,270,269,4020,-10,-30,910,1726,1876,2162,2341,2026,1841,1878,1997
893986,-5000,53164,52012,52012,-3800,-409,102,-164,449,189,240,3889,-7,-40,908,1724,1871,2165,2345,2023,1841,1875,2005
894987,-5000,53232,52077,52077,-3800,-505,98,-170,435,182,153,3851,-8,-33,910,1724,1871,2165,2345,2023,1841,1875,2005
895988,-5000,53292,52142,52142,-3800,-611,101,-159,426,196,185,3815,-11,-38,909,1724,1871,2165,2345,2023,1841,1875,2005
896989,-5000,53380,52207,52207,-3800,-233,101,-183,424,198,181,3898,-10,-29,910,1724,1871,2165,2345,2023,1841,1875,2005
897990,-4988,53432,52272,52272,-3800,-697,107,-178,416,66,154,3891,-3,-38,909,1724,1871,2165,2345,2023,1841,1875,2005
898991,-4996,53504,52337,52337,-3800,-439,106,-187,410,55,128,3778,-12,-26,911,1724,1871,2165,2345,2023,1841,1875,2005
899992,-5000,53560,52402,52402,-3800,-649,106,-192,417,119,113,3821,7,-38,908,1732,1881,2177,2354,2043,1857,1891,2022
900993,-4988,53644,52467,52467,-3800,-276,99,-192,423,149,175,3839,0,-44,910,1732,1881,2177,2354,2043,1857,1891,2022
901994,-4992,53696,52532,52532,-3800,-691,97,-183,419,155,168,3780,-9,-28,909,1732,1881,2177,2354,2043,1857,1891,2022
902995,-4996,53772,52597,52597,-3800,-377,92,-172,418,142,147,3780,-11,-34,911,1732,1881,2177,2354,2043,1857,1891,2022
903996,-5000,53852,52662,52662,-3800,-308,92,-167,420,131,170,3813,4,-35,907,1732,1881,2177,2354,2043,1857,1891,2022
904997,-4992,53924,52727,52727,-3800,-399,88,-146,422,200,182,3795,0,-36,909,1733,1883,2174,2351,2039,1854,1887,2018
905998,-5000,53996,52792,52792,-3800,-391,89,-153,433,139,357,3852,-12,-30,911,1733,1883,2174,2351,2039,1854,1887,2018
906999,-4992,54068,52857,52857,-3800,-381,88,-141,441,196,318,3861,-10,-27,910,1733,1883,2174,2351,2039,1854,1887,2018
908000,-5000,54116,52922,52922,-3800,-702,85,-129,443,212,301,3987,-12,-31,910,1733,1883,2174,2351,2039,1854,1887,2018
909001,-4996,54192,52987,52987,-3800,-338,89,-120,450,99,314,3857,-12,-24,910,1733,1883,2174,2351,2039,1854,1887,2018
910002,-5000,54224,53052,53052,-3800,-928,90,-126,457,150,297,3883,2,-35,908,1733,1883,2174,2351,2039,1854,1887,2018
911003,-4992,54280,53117,53117,-3800,-638,90,-124,451,148,291,3984,-9,-27,910,1716,1876,2161,2337,2032,1844,1882,2006
912004,-4996,54324,53182,53182,-3800,-813,91,-121,451,174,257,3877,1,-37,906,1716,1876,2161,2337,2032,1844,1882,2006
913005,-4996,54412,53247,53247,-3800,-234,92,-127,435,384,221,3911,0,-25,901,1716,1876,2161,2337,2032,1844,1882,2006
914006,-4992,54472,53312,53312,-3800,-590,82,-133,413,183,139,3952,-4,-25,907,1716,1876,2161,2337,2032,1844,1882,2006
915007,-5008,54540,53377,53377,-3800,-486,72,-130,399,184,159,3877,-8,-27,911,1716,1876,2161,2337,2032,1844,1882,2006
916008,-4992,54596,53442,53442,-3800,-647,70,-142,401,373,144,3792,-2,-23,909,1725,1875,2167,2350,2026,1836,1876,2002
917009,-4992,54656,53507,53507,-3800,-603,66,-155,395,315,135,3945,-1,-23,904,1725,1875,2167,2350,2026,1836,1876,2002
918010,-5004,54724,53572,53572,-3800,-498,77,-152,396,134,146,3813,-13,-26,909,1725,1875,2167,2350,2026,1836,1876,2002
919011,-4996,54788,53637,53637,-3800,-549,86,-160,405,263,32,3846,-3,-37,909,1725,1875,2167,2350,2026,1836,1876,2002
920012,-4992,54860,53702,53702,-3800,-440,82,-160,413,249,38,3859,1,-39,909,1725,1875,2167,2350,2026,1836,1876,2002
921013,-4988,54916,53767,53767,-3800,-651,84,-149,418,291,55,3799,-5,-25,905,1725,1875,2167,2350,2026,1836,1876,2002
922014,-4992,54952,53832,53832,-3800,-935,77,-151,426,310,80,3736,-12,-27,908,1731,1880,2172,2356,2031,1850,1884,2009
923015,-4988,55032,53897,53897,-3800,-367,73,-149,425,277,122,3816,-12,-27,909,1731,1880,2172,2356,2031,1850,1884,2009
924016,-4996,55112,53962,53962,-3800,-348,73,-140,424,261,199,3787,3,-28,907,1731,1880,2172,2356,2031,1850,1884,2009
925017,-4996,55156,54027,54027,-3800,-823,70,-144,430,203,217,3867,-7,-40,908,1731,1880,2172,2356,2031,1850,1884,2009
926018,-4992,55248,54092,54092,-3800,-190,70,-126,432,307,249,3810,-7,-33,910,1731,1880,2172,2356,2031,1850,1884,2009
927019,-4992,55308,54157,54157,-3800,-595,74,-133,436,301,230,3861,-6,-41,907,1735,1890,2182,2364,2034,1850,1888,2012
928020,-4988,55372,54222,54222,-3800,-547,78,-131,427,147,281,3812,-6,-41,911,1735,1890,2182,2364,2034,1850,1888,2012
929021,-4992,55448,54287,54287,-3800,-382,77,-135,436,159,293,3873,0,-36,907,1735,1890,2182,2364,2034,1850,1888,2012
930022,-5000,55524,54352,54352,-3800,-369,76,-121,430,466,308,3822,-8,-39,909,1735,1890,2182,2364,2034,1850,1888,2012
931023,-4996,55580,54417,54417,-3800,-629,81,-128,426,289,249,3897,-11,-26,910,1735,1890,2182,2364,2034,1850,1888,2012
932024,-4992,55652,54482,54482,-3800,-420,85,-113,414,117,257,3982,-7,-40,910,1735,1890,2182,2364,2034,1850,1888,2012
933025,-5004,55708,54547,54547,-3800,-630,84,-113,397,385,245,3847,-12,-32,908,1730,1881,2168,2349,2033,1845,1881,2003
934026,-5000,55796,54612,54612,-3800,-202,89,-93,393,445,251,3874,-11,-35,910,1730,1881,2168,2349,2033,1845,1881,2003
935027,-4992,55880,54677,54677,-3800,-229,90,-124,400,291,270,3877,-7,-38,909,1730,1881,2168,2349,2033,1845,1881,2003
936029,-4984,55916,54742,54742,-3800,-863,100,-114,400,147,193,3925,-8,-31,911,1730,1881,2168,2349,2033,1845,1881,2003
937029,-4992,55988,54807,54807,-3800,-405,102,-109,400,292,214,4015,-1,-32,910,1730,1881,2168,2349,2033,1845,1881,2003
938030,-4996,56044,54872,54872,-3800,-615,107,-92,407,430,159,3927,-8,-26,906,1728,1876,2168,2349,2024,1842,1869,2000
939031,-4988,56104,54937,54937,-3800,-571,102,-90,409,355,82,3927,-5,-29,909,1728,1876,2168,2349,2024,1842,1869,2000
940032,-4980,56172,55002,55002,-3800,-466,106,-78,412,268,125,3848,1,-29,909,1728,1876,2168,2349,2024,1842,1869,2000
941033,-4984,56256,55067,55067,-3800,-243,111,-66,411,404,78,3840,4,-38,909,1728,1876,2168,2349,2024,1842,1869,2000
942034,-4980,56296,55132,55132,-3800,-823,106,-45,402,483,64,3818,5,-23,909,1728,1876,2168,2349,2024,1842,1869,2000
943035,-4976,56364,55197,55197,-3800,-469,96,-35,401,407,114,3779,2,-34,911,1728,1876,2168,2349,2024,1842,1869,2000
944036,-4968,56432,55262,55262,-3800,-465,86,-58,399,361,96,3668,-5,-40,907,1732,1880,2176,2357,2027,1847,1879,1999
945037,-4964,56488,55327,55327,-3800,-625,81,-73,399,83,133,3789,-14,-38,909,1732,1880,2176,2357,2027,1847,1879,1999
946038,-4968,56560,55392,55392,-3800,-417,85,-76,399,226,162,3801,2,-35,909,1732,1880,2176,2357,2027,1847,1879,1999
947039,-4968,56616,55457,55457,-3800,-627,91,-91,401,288,189,3811,-16,-39,908,1732,1880,2176,2357,2027,1847,1879,1999
948040,-4952,56696,55522,55522,-3800,-308,87,-99,409,179,194,3858,-1,-34,910,1732,1880,2176,2357,2027,1847,1879,1999
949041,-4956,56772,55587,55587,-3800,-344,96,-79,405,338,213,3843,-9,-39,908,1736,1884,2179,2363,2036,1853,1889,2010
950042,-4952,56832,55652,55652,-3800,-550,103,-60,403,408,281,3923,-8,-38,910,1736,1884,2179,2363,2036,1853,1889,2010
951043,-4948,56904,55717,55717,-3800,-391,108,-34,406,476,337,3819,1,-36,910,1736,1884,2179,2363,2036,1853,1889,2010
952044,-4944,56960,55782,55782,-3800,-602,104,-38,410,360,345,3922,-10,-25,909,1736,1884,2179,2363,2036,1853,1889,2010
953045,-4928,57044,55847,55847,-3800,-227,111,-35,415,303,338,3851,-7,-39,910,1736,1884,2179,2363,2036,1853,1889,2010
954046,-4924,57108,55912,55912,-3800,-479,117,-43,426,212,282,3996,-2,-25,883,1736,1884,2179,2363,2036,1853,1889,2010
955047,-4924,57164,55977,55977,-3800,-590,130,-38,423,160,301,3976,-3,-28,910,1731,1881,2171,2355,2034,1847,1885,2006
956048,-4920,57228,56042,56042,-3800,-490,135,-24,423,285,225,3885,2,-38,908,1731,1881,2171,2355,2034,1847,1885,2006
957049,-4912,57288,56107,56107,-3800,-546,139,-24,431,319,269,3890,-1,-25,909,1731,1881,2171,2355,2034,1847,1885,2006
958050,-4916,57348,56172,56172,-3800,-551,139,-23,426,285,172,3891,4,-33,902,1731,1881,2171,2355,2034,1847,1885,2006
959051,-4908,57416,56237,56237,-3800,-447,139,-16,413,160,182,3875,3,-27,909,1731,1881,2171,2355,2034,1847,1885,2006
960052,-4904,57484,56302,56302,-3800,-443,138,-12,411,177,138,3888,2,-24,909,1736,1882,2174,2357,2027,1843,1877,1990
961053,-4912,57544,56367,56367,-3800,-549,142,-11,415,201,148,3832,5,-24,910,1736,1882,2174,2357,2027,1843,1877,1990
962054,-4896,57612,56432,56432,-3800,-444,145,-10,411,222,130,3857,-11,-37,906,1736,1882,2174,2357,2027,1843,1877,1990
963055,-4904,57672,56497,56497,-3800,-550,152,-9,416,162,204,3821,-5,-24,909,1736,1882,2174,2357,2027,1843,1877,1990
964056,-4900,57732,56562,56562,-3800,-555,146,1,419,242,161,3842,-4,-38,909,1736,1882,2174,2357,2027,1843,1877,1990
965057,-4892,57804,56627,56627,-3800,-397,141,10,417,278,127,3914,-6,-29,909,1736,1882,2174,2357,2027,1843,1877,1990
966058,-4908,57868,56692,56692,-3800,-498,132,1,411,263,147,3812,-1,-32,906,1738,1886,2182,2368,2012,1842,1876,1996
967059,-4900,57944,56757,56757,-3800,-334,125,1,419,355,172,3640,-1,-38,910,1738,1886,2182,2368,2012,1842,1876,1996
968060,-4896,58016,56822,56822,-3800,-375,119,-5,424,264,112,3839,-8,-32,909,1738,1886,2182,2368,2012,1842,1876,1996
969061,-4888,58076,56887,56887,-3800,-530,124,-23,416,85,173,3867,-12,-33,910,1738,1886,2182,2368,2012,1842,1876,1996
970062,-4892,58136,56952,56952,-3800,-536,133,-7,418,198,203,3793,-12,-24,909,1738,1886,2182,2368,2012,1842,1876,1996
971063,-4876,58212,57017,57017,-3800,-322,139,-8,424,202,255,3884,-30,-25,909,1738,1878,2177,2365,2031,1853,1886,2006
972064,-4872,58276,57082,57082,-3800,-473,141,5,430,333,218,3900,-2,-29,908,1738,1878,2177,2365,2031,1853,1886,2006
973065,-4872,58324,57147,57147,-3800,-693,141,16,434,286,274,3809,-2,-24,909,1738,1878,2177,2365,2031,1853,1886,2006
974066,-4868,58384,57212,57212,-3800,-549,142,26,446,145,328,3846,-10,-27,909,1738,1878,2177,2365,2031,1853,1886,2006
975067,-4872,58476,57277,57277,-3800,-115,149,32,444,309,313,3854,-6,-26,908,1738,1878,2177,2365,2031,1853,1886,2006
976068,-4864,58528,57342,57342,-3800,-631,155,25,443,144,277,3932,5,-29,909,1738,1878,2177,2365,2031,1853,1886,2006
977069,-4868,58600,57407,57407,-3800,-372,169,31,453,60,305,3970,-10,-35,911,1731,1877,2171,2359,2034,1853,1884,2005
978070,-4856,58672,57472,57472,-3800,-363,176,42,452,167,299,3885,-6,-34,908,1731,1877,2171,2359,2034,1853,1884,2005
979071,-4852,58720,57537,57537,-3800,-683,181,50,449,125,353,3868,1,-23,910,1731,1877,2171,2359,2034,1853,1884,2005
980072,-4848,58792,57602,57602,-3800,-374,181,45,449,126,385,3904,-1,-30,910,1731,1877,2171,2359,2034,1853,1884,2005
981073,-4856,58848,57667,57667,-3800,-585,179,49,441,82,254,3906,4,-34,908,1731,1877,2171,2359,2034,1853,1884,2005
982074,-4848,58912,57732,57732,-3800,-485,167,53,430,87,311,3958,4,-29,909,1730,1877,2172,2358,2031,1849,1881,2003
983075,-4844,58984,57797,57797,-3800,-377,165,68,430,160,258,3859,5,-27,909,1730,1877,2172,2358,2031,1849,1881,2003
984076,-4832,59024,57862,57862,-3800,-806,162,71,428,222,252,3838,0,-25,909,1730,1877,2172,2358,2031,1849,1881,2003
985077,-4836,59068,57927,57927,-3800,-782,156,69,418,92,209,3928,4,-28,910,1730,1877,2172,2358,2031,1849,1881,2003
986078,-4832,59136,57992,57992,-3800,-477,144,65,417,55,235,3860,3,-32,907,1730,1877,2172,2358,2031,1849,1881,2003
987079,-4824,59180,58057,58057,-3800,-803,142,57,417,243,204,3854,4,-25,907,1730,1877,2172,2358,2031,1849,1881,2003
988080,-4832,59248,58122,58122,-3800,-499,129,78,407,206,135,3918,2,0,909,1741,1887,2187,2371,2027,1841,1881,2005
989081,-4824,59304,58187,58187,-3800,-659,119,99,400,162,135,3917,2,-32,906,1741,1887,2187,2371,2027,1841,1881,2005
990082,-4816,59380,58252,58252,-3800,-396,110,87,413,258,189,3696,4,-27,908,1741,1887,2187,2371,2027,1841,1881,2005
991083,-4808,59416,58317,58317,-3800,-930,113,65,411,193,193,3878,4,-33,908,1741,1887,2187,2371,2027,1841,1881,2005
992084,-4816,59464,58382,58382,-3800,-801,113,73,397,169,239,3937,5,-24,910,1741,1887,2187,2371,2027,1841,1881,2005
993085,-4816,59536,58447,58447,-3800,-491,109,100,405,365,286,3715,-1,-39,906,1737,1883,2174,2364,2043,1862,1892,2017
994086,-4808,59608,58512,58512,-3800,-483,102,90,412,332,280,3849,-2,-27,907,1737,1883,2174,2364,2043,1862,1892,2017
995087,-4808,59684,58577,58577,-3800,-419,92,75,398,2,290,3904,5,-40,909,1737,1883,2174,2364,2043,1862,1892,2017
996088,-4804,59752,58642,58642,-3800,-515,82,97,386,30,337,3868,2,-30,909,1737,1883,2174,2364,2043,1862,1892,2017
997089,-4796,59808,58707,58707,-3800,-676,78,105,390,528,402,3759,2,-39,910,1737,1883,2174,2364,2043,1862,1892,2017
998090,-4792,59868,58772,58772,-3800,-631,80,79,390,322,433,3905,5,-40,909,1737,1883,2174,2364,2043,1862,1892,2017
999091,-4796,59932,58837,58837,-3800,-582,83,66,393,-30,504,3955,5,-41,902,1728,1874,2168,2352,2047,1866,1896,2016
1000092,-4800,60008,58902,58902,-3800,-418,91,84,381,150,452,3832,-4,-41,908,1728,1874,2168,2352,2047,1866,1896,2016
1001093,-4792,60088,58967,58967,-3800,-349,87,82,370,143,424,3988,0,-39,909,1728,1874,2168,2352,2047,1866,1896,2016
1002094,-4788,60152,59032,59032,-3800,-550,87,86,368,166,360,3923,2,-41,910,1728,1874,2168,2352,2047,1866,1896,2016
