%  Data file recorded 2016/3/16  19:47:14
%  Stride Frequency         = [7, 7]
%  Lead In /Lead Out        = 
%  Deltas (Fractional)      = [0.25, 0.25, 0.25],[0.25, 0.25, 0.25]
%  Phase                    = 32768
%  Experiment.py 
%  Motor Gains    = [100, 0, 100, 0, 0, 100, 0, 100, 0, 0]
% Columns: 
% time | Right Leg Pos | Left Leg Pos | Commanded Right Leg Pos | Commanded Left Leg Pos | DCR | DCL | GyroX | GyroY | GyroZ | AX | AY | AZ | RBEMF | LBEMF | VBatt | S1 | S2 | S3 | S4 | S5 | S6 | S7 | S8
435,27900,-22964,0,0,-732,585,18,-32,-17,29,99,-4280,-3,-3,852,1456,1495,1238,1472,1674,1570,1875,2139
1436,27888,-22964,0,0,-606,560,20,-34,-17,39,96,-4234,-5,-7,852,1456,1495,1238,1472,1674,1570,1875,2139
2437,27888,-22952,0,0,-681,485,21,-34,-18,30,72,-4190,7,4,851,1456,1495,1238,1472,1674,1570,1875,2139
3438,27904,-22960,0,0,-782,610,18,-33,-16,20,94,-4240,4,-3,851,1456,1495,1238,1472,1674,1570,1875,2139
4439,27896,-22960,0,0,-632,560,16,-34,-18,14,85,-4236,-5,4,852,1457,1496,1239,1472,1677,1573,1877,2141
5440,27896,-22972,0,0,-682,635,15,-36,-19,4,104,-4256,-8,0,852,1457,1496,1239,1472,1677,1573,1877,2141
6441,27892,-22960,0,0,-656,485,17,-34,-20,11,86,-4262,-4,-6,852,1457,1496,1239,1472,1677,1573,1877,2141
7442,27892,-22952,0,0,-681,510,19,-28,-20,29,90,-4261,7,3,851,1457,1496,1239,1472,1677,1573,1877,2141
8443,27888,-22960,0,0,-656,610,17,-28,-18,31,81,-4207,-4,-6,851,1457,1496,1239,1472,1677,1573,1877,2141
9444,27904,-22968,0,0,-782,610,18,-31,-18,17,99,-4221,-8,6,852,1460,1497,1240,1473,1678,1574,1879,2143
10445,27892,-22972,0,0,-606,585,18,-31,-18,0,97,-4234,6,-4,852,1460,1497,1240,1473,1678,1574,1879,2143
11446,27888,-22960,0,0,-656,485,20,-32,-20,16,119,-4296,0,6,852,1460,1497,1240,1473,1678,1574,1879,2143
12447,27896,-22952,0,0,-732,510,20,-31,-19,8,108,-4273,-6,7,852,1460,1497,1240,1473,1678,1574,1879,2143
13448,27892,-22968,0,0,-656,660,20,-31,-18,2,89,-4231,3,-7,852,1460,1497,1240,1473,1678,1574,1879,2143
14449,27892,-22960,0,0,-681,510,18,-30,-18,-1,98,-4251,1,1,852,1460,1497,1240,1473,1678,1574,1879,2143
15450,27888,-22964,0,0,-656,585,17,-32,-18,-1,117,-4240,-8,6,852,1459,1495,1241,1476,1680,1576,1880,2144
16451,27888,-22960,0,0,-681,535,19,-32,-17,19,114,-4254,5,0,852,1459,1495,1241,1476,1680,1576,1880,2144
17452,27884,-22956,0,0,-656,535,19,-32,-18,12,105,-4278,4,3,851,1459,1495,1241,1476,1680,1576,1880,2144
18453,27892,-22968,0,0,-731,635,20,-33,-18,4,82,-4259,-7,-5,852,1459,1495,1241,1476,1680,1576,1880,2144
19454,27884,-22972,0,0,-631,585,19,-33,-17,13,83,-4275,2,-5,841,1459,1495,1241,1476,1680,1576,1880,2144
20455,27888,-22968,0,0,-706,535,20,-34,-16,17,106,-4259,1,-7,840,1459,1499,1240,1474,1679,1573,1879,2146
21456,27900,-22956,0,0,-757,485,21,-34,-17,22,107,-4263,-7,5,852,1459,1499,1240,1474,1679,1573,1879,2146
22457,27892,-22964,0,0,-631,610,21,-32,-17,30,98,-4264,-1,6,852,1459,1499,1240,1474,1679,1573,1879,2146
23458,27884,-22964,0,0,-631,560,23,-32,-16,23,102,-4266,8,4,851,1459,1499,1240,1474,1679,1573,1879,2146
24460,27888,-22956,0,0,-706,510,23,-32,-18,19,78,-4270,5,6,851,1459,1499,1240,1474,1679,1573,1879,2146
25460,27884,-22968,0,0,-656,635,24,-32,-19,22,92,-4256,-8,-7,851,1459,1499,1240,1474,1679,1573,1879,2146
26461,27892,-22964,0,0,-731,535,23,-34,-17,7,77,-4265,2,-1,851,1459,1497,1239,1474,1678,1575,1879,2145
27462,27896,-22960,0,0,-707,535,20,-31,-18,-22,111,-4273,7,-7,851,1459,1497,1239,1474,1678,1575,1879,2145
28463,27892,-22952,0,0,-656,510,21,-30,-19,26,85,-4237,-7,5,851,1459,1497,1239,1474,1678,1575,1879,2145
29464,27888,-22968,0,0,-656,660,19,-31,-18,38,103,-4258,-3,3,851,1459,1497,1239,1474,1678,1575,1879,2145
30465,27888,-22960,0,0,-681,510,22,-34,-14,24,93,-4254,3,6,851,1459,1497,1239,1474,1678,1575,1879,2145
31466,27892,-22964,0,0,-706,585,24,-34,-12,33,119,-4251,5,0,851,1459,1498,1240,1473,1677,1572,1877,2142
32467,27888,-22960,0,0,-656,535,22,-34,-15,11,104,-4234,-8,-6,851,1459,1498,1240,1473,1677,1572,1877,2142
33468,27888,-22964,0,0,-681,585,21,-31,-16,22,91,-4256,-5,-6,850,1459,1498,1240,1473,1677,1572,1877,2142
34469,27880,-22964,0,0,-631,560,21,-30,-17,11,75,-4257,7,-2,850,1459,1498,1240,1473,1677,1572,1877,2142
35470,27892,-22968,0,0,-756,585,20,-32,-18,32,73,-4243,-3,4,840,1459,1498,1240,1473,1677,1572,1877,2142
36471,27896,-22952,0,0,-707,460,20,-34,-18,15,91,-4244,-7,-7,838,1459,1498,1240,1473,1677,1572,1877,2142
37472,27884,-22956,0,0,-606,585,23,-32,-18,19,72,-4221,7,-5,849,1459,1497,1239,1473,1676,1571,1876,2140
38473,27896,-22972,0,0,-757,660,23,-32,-18,31,97,-4201,-2,-3,849,1459,1497,1239,1473,1676,1571,1876,2140
39474,27888,-22960,0,0,-631,485,23,-30,-18,10,95,-4251,-6,-6,849,1459,1497,1239,1473,1676,1571,1876,2140
40475,27892,-22964,0,0,-706,585,23,-32,-19,22,99,-4257,8,4,849,1459,1497,1239,1473,1676,1571,1876,2140
41476,27900,-22960,0,0,-732,535,20,-36,-20,16,93,-4260,-5,7,849,1459,1497,1239,1473,1676,1571,1876,2140
42477,27888,-22960,0,0,-606,560,17,-34,-18,17,113,-4229,-6,-4,848,1458,1498,1240,1472,1674,1570,1874,2139
43478,27896,-22964,0,0,-732,585,18,-30,-16,14,99,-4201,7,7,848,1458,1498,1240,1472,1674,1570,1874,2139
44479,27900,-22960,0,0,-707,535,19,-32,-16,9,86,-4216,-6,-6,848,1458,1498,1240,1472,1674,1570,1874,2139
45480,27888,-22968,0,0,-606,610,21,-32,-18,4,76,-4226,-5,3,848,1458,1498,1240,1472,1674,1570,1874,2139
46481,27884,-22968,0,0,-656,560,22,-29,-19,0,79,-4232,7,-5,848,1458,1498,1240,1472,1674,1570,1874,2139
47482,27896,-22964,0,0,-757,535,20,-30,-19,5,61,-4206,-7,-1,849,1458,1498,1240,1472,1674,1570,1874,2139
48483,27904,-22964,0,0,-732,560,20,-31,-19,2,91,-4235,-6,2,848,1456,1497,1235,1470,1676,1572,1876,2138
49484,27888,-22952,0,0,-581,485,19,-32,-18,48,100,-4276,7,-1,847,1456,1497,1235,1470,1676,1572,1876,2138
50485,27884,-22968,0,0,-656,660,18,-30,-17,40,84,-4254,2,5,847,1456,1497,1235,1470,1676,1572,1876,2138
51486,27896,-22960,0,0,-757,510,19,-28,-17,30,95,-4262,-7,-7,846,1456,1497,1235,1470,1676,1572,1876,2138
52487,27888,-22960,0,0,-631,560,18,-26,-20,13,103,-4273,-1,-3,837,1456,1497,1235,1470,1676,1572,1876,2138
53488,27888,-22960,0,0,-681,560,16,-30,-18,-15,86,-4256,7,6,835,1457,1496,1239,1472,1674,1570,1875,2138
54489,27892,-22948,0,0,-706,485,17,-30,-17,-5,83,-4242,-4,2,846,1457,1496,1239,1472,1674,1570,1875,2138
55490,27892,-22968,0,0,-681,685,17,-29,-18,8,99,-4244,-5,-2,846,1457,1496,1239,1472,1674,1570,1875,2138
56491,27884,-22948,0,0,-631,435,18,-31,-21,9,94,-4228,7,6,846,1457,1496,1239,1472,1674,1570,1875,2138
57492,27892,-22960,0,0,-731,635,18,-32,-18,0,100,-4228,8,-2,845,1457,1496,1239,1472,1674,1570,1875,2138
58493,27888,-22964,0,0,-656,585,17,-29,-16,6,95,-4252,-1,-7,845,1457,1496,1239,1472,1674,1570,1875,2138
59494,27888,-22960,0,0,-681,535,19,-30,-15,-3,73,-4220,-8,6,845,1457,1496,1238,1472,1675,1572,1876,2142
60495,27892,-22956,0,0,-706,535,20,-30,-17,28,107,-4262,-6,-7,845,1457,1496,1238,1472,1675,1572,1876,2142
61496,27892,-22968,0,0,-681,635,19,-32,-19,38,83,-4277,8,6,844,1457,1496,1238,1472,1675,1572,1876,2142
62497,27888,-22956,0,0,-656,485,20,-29,-19,43,87,-4271,-3,3,844,1457,1496,1238,1472,1675,1572,1876,2142
63501,27896,-22952,0,0,-732,535,18,-30,-16,49,104,-4264,-4,6,845,1457,1496,1238,1472,1675,1572,1876,2142
65500,27892,-22960,0,0,-681,510,16,-29,-18,0,95,-4262,0,-1,844,1458,1497,1240,1473,1677,1573,1877,2142
66501,27892,-22964,0,0,-681,585,16,-27,-18,18,103,-4263,4,0,843,1458,1497,1240,1473,1677,1573,1877,2142
67502,27900,-22956,0,0,-732,510,18,-28,-19,36,109,-4297,4,1,844,1458,1497,1240,1473,1677,1573,1877,2142
68503,27896,-22960,0,0,-657,585,20,-28,-20,13,89,-4285,-8,-7,843,1458,1497,1240,1473,1677,1573,1877,2142
69504,27900,-22972,0,0,-707,635,20,-26,-20,6,95,-4265,-4,6,835,1458,1497,1240,1473,1677,1573,1877,2142
70505,27892,-22956,0,0,-631,460,17,-29,-19,11,109,-4279,8,-6,831,1459,1498,1240,1474,1678,1574,1878,2144
71506,27884,-22960,0,0,-631,585,18,-30,-16,33,112,-4272,-2,6,843,1459,1498,1240,1474,1678,1574,1878,2144
72507,27896,-22964,0,0,-757,585,17,-30,-17,18,105,-4266,-8,-6,843,1459,1498,1240,1474,1678,1574,1878,2144
73508,27896,-22964,0,0,-682,560,18,-28,-17,10,77,-4257,1,-4,843,1459,1498,1240,1474,1678,1574,1878,2144
74509,27888,-22972,0,0,-631,610,18,-28,-17,22,89,-4258,6,4,843,1459,1498,1240,1474,1678,1574,1878,2144
75510,27896,-22956,0,0,-732,460,20,-31,-17,24,85,-4276,-3,-6,841,1460,1500,1240,1473,1678,1574,1879,2143
76511,27888,-22968,0,0,-631,635,18,-30,-17,13,104,-4263,-5,-6,841,1460,1500,1240,1473,1678,1574,1879,2143
77512,27896,-22972,0,0,-732,585,16,-29,-16,46,108,-4285,7,-8,840,1460,1500,1240,1473,1678,1574,1879,2143
78513,27888,-22960,0,0,-631,485,19,-30,-15,15,80,-4292,7,6,840,1460,1500,1240,1473,1678,1574,1879,2143
79514,27888,-22964,0,0,-681,585,19,-29,-16,17,97,-4284,-5,-7,840,1460,1500,1240,1473,1678,1574,1879,2143
80515,27900,-22956,0,0,-757,510,20,-29,-17,4,86,-4284,-6,6,839,1460,1500,1240,1473,1678,1574,1879,2143
81516,27892,-22956,0,0,-631,560,21,-30,-17,2,87,-4264,-3,1,837,1459,1495,1241,1476,1680,1574,1878,2144
82517,27896,-22964,0,0,-707,610,19,-31,-16,16,108,-4266,7,-8,836,1459,1495,1241,1476,1680,1574,1878,2144
83518,27888,-22968,0,0,-631,585,19,-35,-17,-1,95,-4254,2,3,837,1459,1495,1241,1476,1680,1574,1878,2144
84519,27888,-22956,0,0,-681,485,19,-33,-17,19,96,-4252,-6,-8,837,1459,1495,1241,1476,1680,1574,1878,2144
85520,27888,-22960,0,0,-681,585,19,-32,-15,35,106,-4240,-4,7,836,1459,1495,1241,1476,1680,1574,1878,2144
86521,27892,-22952,0,0,-706,510,22,-31,-13,30,93,-4225,7,-7,830,1458,1498,1240,1473,1677,1571,1878,2142
87522,27884,-22960,0,0,-631,610,24,-30,-16,19,85,-4246,6,3,821,1458,1498,1240,1473,1677,1571,1878,2142
88523,27892,-22960,0,0,-731,560,22,-29,-18,27,105,-4223,-7,7,834,1458,1498,1240,1473,1677,1571,1878,2142
89524,27900,-22960,0,0,-732,560,19,-31,-17,33,84,-4252,-3,-4,834,1458,1498,1240,1473,1677,1571,1878,2142
90525,27892,-22972,0,0,-631,635,17,-32,-15,13,88,-4247,7,-7,833,1458,1498,1240,1473,1677,1571,1878,2142
91526,27892,-22964,0,0,-681,510,18,-32,-16,7,87,-4221,1,-5,834,1458,1498,1240,1473,1677,1571,1878,2142
92527,27892,-22960,0,0,-681,535,22,-29,-17,2,84,-4224,-6,2,833,1457,1496,1238,1472,1675,1572,1876,2141
93528,27892,-22964,0,0,-681,585,22,-29,-18,5,92,-4238,5,7,833,1457,1496,1238,1472,1675,1572,1876,2141
94529,27896,-22956,0,0,-707,510,20,-27,-18,0,103,-4221,4,6,833,1457,1496,1238,1472,1675,1572,1876,2141
95530,27892,-22956,0,0,-656,560,21,-31,-19,16,97,-4210,-8,-3,833,1457,1496,1238,1472,1675,1572,1876,2141
96531,27888,-22948,0,0,-656,510,22,-31,-18,21,107,-4215,-2,-6,833,1457,1496,1238,1472,1675,1572,1876,2141
97532,27900,-22964,0,0,-757,660,20,-33,-18,19,94,-4226,7,2,833,1457,1496,1238,1470,1674,1570,1875,2139
98533,27892,-22960,0,0,-631,535,19,-30,-16,38,92,-4218,-7,6,832,1457,1496,1238,1470,1674,1570,1875,2139
99534,27888,-22960,0,0,-656,560,15,-26,-17,34,80,-4212,-3,-7,834,1457,1496,1238,1470,1674,1570,1875,2139
100535,27896,-22960,0,0,-732,560,16,-30,-16,6,81,-4215,8,-7,834,1457,1496,1238,1470,1674,1570,1875,2139
101536,27884,-22964,0,0,-606,585,19,-31,-17,13,84,-4237,-7,0,833,1457,1496,1238,1470,1674,1570,1875,2139
102537,27888,-22956,0,0,-706,510,22,-28,-17,18,90,-4264,-6,6,834,1457,1496,1238,1470,1674,1570,1875,2139
103538,27892,-22960,0,0,-706,585,22,-27,-20,8,81,-4244,4,4,829,1456,1495,1238,1472,1675,1571,1874,2138
104539,27888,-22964,0,0,-656,585,20,-30,-18,24,98,-4247,6,-7,827,1456,1495,1238,1472,1675,1571,1874,2138
105540,27884,-22956,16384,16384,2669,3800,21,-33,-18,16,107,-4240,-5,1,836,1456,1495,1238,1472,1675,1571,1874,2138
106541,27904,-22924,16852,16852,2530,3696,19,-32,-18,14,109,-4198,-3,6,736,1456,1495,1238,1472,1675,1571,1874,2138
107542,27916,-22792,17320,17320,2591,3079,25,-32,-12,18,-6,-4156,11,-35,724,1456,1495,1238,1472,1675,1571,1874,2138
108543,27940,-22520,17788,17788,2527,2209,53,-14,-30,120,-299,-4300,25,-7,755,1456,1495,1238,1472,1675,1571,1874,2138
109544,28228,-22104,18256,18256,881,1310,80,-51,-54,15,-135,-3891,25,62,796,1456,1495,1238,1472,1675,1571,1874,2138
110545,28604,-21632,18724,18724,333,960,76,-137,-64,-380,-166,-4018,38,74,877,1456,1495,1238,1472,1675,1571,1874,2138
111546,28892,-21212,19192,19192,888,1286,33,-213,-68,-124,-378,-3882,74,80,895,1456,1495,1238,1472,1675,1571,1874,2138
112547,29216,-20808,19660,19660,666,1387,12,-107,-114,293,-1129,-3011,62,77,877,1456,1495,1238,1472,1675,1571,1874,2138
113548,29572,-20392,20128,20128,469,1314,-60,-3,-62,627,-700,-4012,73,69,881,1456,1495,1238,1472,1675,1571,1874,2138
114549,29916,-19892,20596,20596,547,788,-83,-114,42,-165,293,-3916,59,64,886,1456,1495,1238,1472,1675,1571,1874,2138
115550,30272,-19444,21064,21064,475,1113,-20,-134,-11,400,596,-4493,66,84,898,1456,1495,1238,1472,1675,1571,1874,2138
116551,30640,-18920,21532,21532,402,637,-13,-141,-136,-19,1336,-3452,72,97,893,1456,1495,1238,1472,1675,1571,1874,2138
117552,30984,-18448,22000,22000,555,962,-37,-84,-88,-821,605,-3947,78,82,903,1456,1495,1238,1472,1675,1571,1874,2138
118553,31316,-17952,22468,22468,633,811,-16,-204,46,-429,659,-4748,68,94,894,1456,1495,1238,1472,1675,1571,1874,2138
119554,31680,-17384,22936,22936,436,359,2,-101,87,-110,992,-4092,68,91,897,1456,1495,1238,1472,1675,1571,1874,2138
120555,32024,-16884,23404,23404,564,783,-6,-105,89,-332,1075,-4629,73,87,907,1456,1495,1238,1472,1675,1571,1874,2138
121556,32380,-16396,23872,23872,492,858,-8,-226,132,-399,410,-5033,77,82,896,1456,1495,1238,1472,1675,1571,1874,2138
122557,32716,-15888,24340,24340,620,732,-47,-193,192,333,595,-5063,77,95,899,1456,1495,1238,1472,1675,1571,1874,2138
123558,33068,-15324,24808,24808,523,379,-15,-115,205,1287,474,-4239,79,83,899,1456,1495,1238,1472,1675,1571,1874,2138
124559,33440,-14844,25276,25276,400,904,-45,-22,146,987,1544,-4084,76,94,906,1456,1495,1238,1472,1675,1571,1874,2138
125560,33784,-14340,25744,25744,578,753,-24,-73,68,55,879,-4710,77,100,899,1456,1495,1238,1472,1675,1571,1874,2138
126561,34148,-13856,26212,26212,456,878,59,-127,20,-624,-64,-5402,64,88,899,1456,1495,1238,1472,1675,1571,1874,2138
127562,34500,-13328,26680,26680,534,601,145,-120,37,-525,-358,-3963,75,80,899,1456,1495,1238,1472,1675,1571,1874,2138
128563,34840,-12768,27148,27148,612,399,213,-20,82,820,-60,-4734,70,108,904,1456,1495,1238,1472,1675,1571,1874,2138
129564,35188,-12276,27616,27616,565,823,267,4,89,988,-161,-4597,77,101,906,1456,1495,1238,1472,1675,1571,1874,2138
130565,35572,-11812,28084,28084,342,999,272,108,1,424,86,-4224,81,100,899,1456,1495,1238,1472,1675,1571,1874,2138
131566,35968,-11288,28552,28552,268,622,386,247,-128,573,394,-5141,72,96,898,1456,1495,1238,1472,1675,1571,1874,2138
132567,36316,-10788,29020,29020,571,771,467,109,-184,38,-94,-5530,77,105,907,1456,1495,1238,1472,1675,1571,1874,2138
133568,36636,-10248,29488,29488,750,520,461,74,-200,-405,-121,-4264,80,108,900,1456,1495,1238,1472,1675,1571,1874,2138
134569,36948,-9732,29956,29956,804,668,440,-4,-193,-379,-526,-5065,85,92,902,1456,1495,1238,1472,1675,1571,1874,2138
135570,37300,-9268,30424,30424,557,994,424,67,-202,-398,10,-4827,79,97,897,1456,1495,1238,1472,1675,1571,1874,2138
136571,37640,-8768,30892,30892,635,768,388,99,-250,-542,136,-4390,82,106,896,1456,1495,1238,1472,1675,1571,1874,2138
137572,38020,-8224,31360,31360,387,491,314,76,-247,-477,59,-4728,73,103,898,1456,1495,1238,1472,1675,1571,1874,2138
138573,38388,-7744,31828,31828,464,891,246,-72,-200,-814,192,-5422,73,88,904,1456,1495,1238,1472,1675,1571,1874,2138
139574,38752,-7280,32768,32768,503,1002,86,-29,-215,-228,713,-4221,66,100,900,1456,1495,1238,1472,1675,1571,1874,2138
140575,39128,-6792,33236,33236,431,852,-2,-200,-167,-850,-245,-5301,73,107,896,1456,1495,1238,1472,1675,1571,1874,2138
141576,39440,-6324,33704,33704,834,977,-114,-195,-98,-709,86,-4409,78,108,901,1456,1495,1238,1472,1675,1571,1874,2138
142577,39864,-5780,34172,34172,136,500,-149,-219,-19,-150,-236,-4797,83,86,891,1456,1495,1238,1472,1675,1571,1874,2138
143578,40184,-5308,34640,34640,789,950,-241,-96,40,312,-101,-3022,70,85,910,1456,1495,1238,1472,1675,1571,1874,2138
144579,40556,-4844,35108,35108,466,1000,-252,-95,71,-601,-557,-5324,77,108,893,1456,1495,1238,1472,1675,1571,1874,2138
145580,40920,-4400,35576,35576,519,1125,-281,-56,105,-358,-701,-3137,79,105,897,1456,1495,1238,1472,1675,1571,1874,2138
146581,41272,-3916,36044,36044,597,875,-234,-105,159,67,-1539,-4652,75,86,894,1456,1495,1238,1472,1675,1571,1874,2138
147582,41700,-3464,36512,36512,123,1075,-222,-57,192,618,-586,-3292,75,94,897,1456,1495,1238,1472,1675,1571,1874,2138
148583,42056,-3020,36980,36980,576,1126,-186,-17,204,425,-1424,-3581,68,107,899,1456,1495,1238,1472,1675,1571,1874,2138
149584,42416,-2572,37448,37448,553,1102,-144,83,177,281,-801,-3600,80,108,893,1456,1495,1238,1472,1675,1571,1874,2138
150585,42772,-2124,37916,37916,581,1102,-103,149,171,517,-515,-3258,77,97,894,1456,1495,1238,1472,1675,1571,1874,2138
151586,43116,-1612,38384,38384,659,701,-81,202,166,848,-916,-3701,70,87,893,1456,1495,1238,1472,1675,1571,1874,2138
152587,43496,-1144,38852,38852,436,976,-69,217,149,468,-571,-3790,84,104,900,1456,1495,1238,1472,1675,1571,1874,2138
153588,43848,-684,39320,39320,614,1026,-72,188,107,459,-49,-3274,82,111,898,1456,1495,1238,1472,1675,1571,1874,2138
154589,44176,-220,39788,39788,767,1001,-78,187,64,628,-563,-4023,80,100,894,1456,1495,1238,1472,1675,1571,1874,2138
155590,44532,312,40256,40256,595,575,-95,202,9,447,-348,-3976,67,94,887,1456,1495,1238,1472,1675,1571,1874,2138
156591,44904,780,40724,40724,497,975,-128,300,-65,211,-135,-3332,77,105,903,1456,1495,1238,1472,1675,1571,1874,2138
157592,45244,1280,41192,41192,701,774,-125,287,-103,147,73,-4153,70,102,897,1456,1495,1238,1472,1675,1571,1874,2138
158593,45620,1788,41660,41660,478,723,-154,305,-125,288,-64,-3961,72,94,898,1456,1495,1238,1472,1675,1571,1874,2138
159594,45968,2284,42128,42128,656,797,-164,257,-134,-301,-247,-4223,64,104,903,1456,1495,1238,1472,1675,1571,1874,2138
160595,46280,2796,42596,42596,885,696,-162,230,-151,-259,332,-3925,62,104,899,1456,1495,1238,1472,1675,1571,1874,2138
161596,46644,3320,43064,43064,562,620,-150,212,-172,5,296,-3935,64,108,895,1456,1495,1238,1472,1675,1571,1874,2138
162597,46988,3824,43532,43532,690,744,-156,191,-194,-318,411,-3712,75,97,903,1456,1495,1238,1472,1675,1571,1874,2138
163598,47352,4352,44000,44000,568,592,-135,129,-185,-794,806,-4699,77,115,900,1456,1495,1238,1472,1675,1571,1874,2138
164599,47688,4964,44468,44468,746,64,-136,91,-161,-372,336,-3879,72,119,904,1456,1495,1238,1472,1675,1571,1874,2138
165600,48024,5508,44936,44936,749,487,-125,10,-148,-612,972,-4718,68,98,907,1456,1495,1238,1472,1675,1571,1874,2138
166601,48340,6084,45404,45404,878,284,-136,-69,-140,-873,896,-4209,74,100,902,1456,1495,1238,1472,1675,1571,1874,2138
167602,48676,6632,45872,45872,756,458,-148,-125,-103,-744,675,-4588,72,111,902,1456,1495,1238,1472,1675,1571,1874,2138
168603,49056,7224,46340,46340,483,179,-144,-151,-54,-597,797,-4812,71,102,903,1456,1495,1238,1472,1675,1571,1874,2138
169604,49388,7888,46808,46808,787,-275,-140,-133,-49,-211,820,-4684,82,113,911,1456,1495,1238,1472,1675,1571,1874,2138
170605,49688,8496,47276,47276,991,71,-129,-140,-25,-365,648,-4716,81,100,905,1456,1495,1238,1472,1675,1571,1874,2138
171606,50040,9140,47744,47744,668,-158,-128,-139,27,-318,390,-4673,63,101,902,1456,1495,1238,1472,1675,1571,1874,2138
172607,50364,9732,48212,48212,847,164,-113,-127,62,187,770,-4545,72,106,903,1456,1495,1238,1472,1675,1571,1874,2138
173608,50732,10368,48680,48680,574,-115,-70,-127,55,459,968,-4172,76,108,904,1456,1495,1238,1472,1675,1571,1874,2138
175610,51372,11516,49620,49620,907,255,-38,-114,37,389,118,-4320,79,108,903,1456,1495,1238,1472,1675,1571,1874,2138
176611,51708,12148,50088,50088,785,-99,-12,-68,43,677,789,-4658,65,103,903,1456,1495,1238,1472,1675,1571,1874,2138
177612,52016,12680,50556,50556,964,524,38,3,-6,895,650,-4652,60,107,906,1456,1495,1238,1472,1675,1571,1874,2138
178613,52336,13332,51024,51024,892,-230,86,56,-24,756,426,-4723,65,92,898,1456,1495,1238,1472,1675,1571,1874,2138
179614,52664,13892,51492,51492,846,342,73,97,-17,540,87,-4442,73,112,902,1456,1495,1238,1472,1675,1571,1874,2138
180615,52964,14476,51960,51960,1025,190,65,156,-5,550,168,-4507,70,104,902,1456,1495,1238,1472,1675,1571,1874,2138
181616,53300,15052,52428,52428,803,237,96,165,-35,734,702,-4322,69,91,901,1456,1495,1238,1472,1675,1571,1874,2138
182617,53652,15624,52896,52896,706,259,134,106,-77,571,363,-4384,67,100,906,1456,1495,1238,1472,1675,1571,1874,2138
183618,53972,16176,53364,53364,910,382,154,34,-98,482,-681,-4438,82,113,907,1456,1495,1238,1472,1675,1571,1874,2138
184619,54324,16672,53832,53832,712,732,133,67,-42,-261,-831,-4175,85,94,902,1456,1495,1238,1472,1675,1571,1874,2138
185620,54676,17196,54300,54300,715,555,185,40,-6,-154,654,-3669,79,97,899,1456,1495,1238,1472,1675,1571,1874,2138
186621,55044,17680,54768,54768,618,805,263,59,-19,435,456,-3990,83,100,902,1456,1495,1238,1472,1675,1571,1874,2138
187622,55392,18288,55236,55236,746,27,319,9,-3,-185,130,-4341,84,109,901,1456,1495,1238,1472,1675,1571,1874,2138
188623,55744,18880,55704,55704,724,124,328,-37,20,-371,-48,-4243,92,101,910,1456,1495,1238,1472,1675,1571,1874,2138
189624,56188,19500,56172,56172,149,-55,335,-69,28,0,246,-4617,87,88,904,1456,1495,1238,1472,1675,1571,1874,2138
190625,56548,20008,56640,56640,677,644,336,-26,-2,580,334,-4258,79,116,917,1456,1495,1238,1472,1675,1571,1874,2138
191626,56920,20592,57108,57108,604,166,355,-53,1,85,-101,-4385,75,105,903,1456,1495,1238,1472,1675,1571,1874,2138
192627,57308,21212,57576,57576,506,-63,263,-66,13,-393,78,-4170,76,93,911,1456,1495,1238,1472,1675,1571,1874,2138
193628,57700,21720,58044,58044,483,636,201,-56,20,150,160,-4567,78,99,913,1456,1495,1238,1472,1675,1571,1874,2138
194629,58072,22256,58512,58512,610,460,165,-2,3,437,-160,-4298,81,99,906,1456,1495,1238,1472,1675,1571,1874,2138
195630,58520,22776,58980,58980,136,558,149,10,-19,-275,135,-4332,90,108,907,1456,1495,1238,1472,1675,1571,1874,2138
196631,58928,23388,59448,59448,387,-20,88,-66,-38,-340,-85,-4104,82,90,911,1456,1495,1238,1472,1675,1571,1874,2138
197632,59352,23924,59916,59916,288,453,39,-114,-50,182,-253,-4421,90,93,916,1456,1495,1238,1472,1675,1571,1874,2138
198633,59752,24432,60384,60384,440,627,-2,-150,-55,249,47,-4484,97,106,912,1456,1495,1238,1472,1675,1571,1874,2138
199634,60148,24928,60852,60852,467,702,-39,-158,-74,157,-44,-4212,93,107,907,1456,1495,1238,1472,1675,1571,1874,2138
200635,60600,25444,61320,61320,117,575,-122,-177,-69,-30,-438,-4364,87,86,905,1456,1495,1238,1472,1675,1571,1874,2138
201636,61016,25964,61788,61788,343,549,-240,-165,-59,31,-389,-4094,77,96,911,1456,1495,1238,1472,1675,1571,1874,2138
202637,61460,26436,62256,62256,169,849,-268,-107,-65,54,-774,-4422,99,103,909,1456,1495,1238,1472,1675,1571,1874,2138
203638,61868,26928,62724,62724,395,723,-294,-109,-74,-303,-824,-4365,92,94,906,1456,1495,1238,1472,1675,1571,1874,2138
204639,62308,27360,63192,63192,196,1099,-242,-151,-86,-361,-757,-3729,95,90,906,1456,1495,1238,1472,1675,1571,1874,2138
205640,62764,28040,63660,63660,96,-456,-259,-215,-47,-245,-1192,-4031,95,88,899,1456,1495,1238,1472,1675,1571,1874,2138
206641,63224,28448,64128,64128,72,1246,-249,-218,-14,128,-789,-3814,89,96,906,1456,1495,1238,1472,1675,1571,1874,2138
207642,63676,28944,64596,64596,122,695,-206,-205,-4,-269,-915,-4403,86,98,897,1456,1495,1238,1472,1675,1571,1874,2138
208643,64104,29412,65064,65064,273,870,-106,-300,18,-497,305,-3980,87,99,909,1456,1495,1238,1472,1675,1571,1874,2138
209644,64504,29916,65536,65536,450,644,-81,-302,88,-12,-809,-3838,95,93,904,1456,1495,1238,1472,1675,1571,1874,2138
210645,64948,30544,66004,66004,175,-135,-108,-261,104,638,-536,-3893,80,115,906,1456,1495,1238,1472,1675,1571,1874,2138
211646,65364,31008,66472,66472,352,890,-88,-234,93,-32,-568,-4464,84,117,916,1456,1495,1238,1472,1675,1571,1874,2138
212647,65792,31524,66940,66940,278,564,-27,-231,67,-171,-58,-3825,93,112,903,1456,1495,1238,1472,1675,1571,1874,2138
213648,66204,32016,67408,67408,379,714,42,-185,106,220,116,-4044,96,114,910,1456,1495,1238,1472,1675,1571,1874,2138
214649,66652,32588,67876,67876,154,211,3,-142,156,362,-189,-3351,95,108,907,1456,1495,1238,1472,1675,1571,1874,2138
215650,67056,33120,68344,68344,431,459,-15,-162,196,-704,323,-4302,84,110,916,1456,1495,1238,1472,1675,1571,1874,2138
216651,67532,33580,68812,68812,-19,910,2,-230,132,-124,1000,-3979,92,107,910,1456,1495,1238,1472,1675,1571,1874,2138
217652,67928,34056,69280,69280,483,809,40,-326,112,-17,991,-4614,98,115,907,1456,1495,1238,1472,1675,1571,1874,2138
218653,68312,34540,69748,69748,560,759,67,-354,112,448,1699,-3826,89,121,903,1456,1495,1238,1472,1675,1571,1874,2138
219654,68696,35132,70216,70216,562,81,36,-362,134,116,817,-4126,97,103,903,1456,1495,1238,1472,1675,1571,1874,2138
220655,69104,35668,70684,70684,413,429,-9,-331,72,-139,1823,-3953,84,121,911,1456,1495,1238,1472,1675,1571,1874,2138
221656,69540,36188,71152,71152,239,528,-14,-389,10,-650,1127,-4913,88,129,911,1456,1495,1238,1472,1675,1571,1874,2138
222657,69912,36704,71620,71620,641,552,56,-424,-36,-238,1635,-4544,100,113,911,1456,1495,1238,1472,1675,1571,1874,2138
223658,70308,37188,72088,72088,493,752,43,-363,-30,571,782,-3949,92,122,901,1456,1495,1238,1472,1675,1571,1874,2138
224659,70704,37784,72556,72556,495,48,65,-441,-22,9,1223,-4637,78,122,904,1456,1495,1238,1472,1675,1571,1874,2138
225660,71080,38384,73024,73024,622,20,62,-413,-79,-364,1316,-3923,93,114,913,1456,1495,1238,1472,1675,1571,1874,2138
226661,71520,38940,73492,73492,223,293,87,-399,-156,410,864,-4015,84,126,912,1456,1495,1238,1472,1675,1571,1874,2138
227662,71904,39524,73960,73960,575,115,111,-412,-165,452,1031,-4562,98,116,915,1456,1495,1238,1472,1675,1571,1874,2138
228663,72284,40180,74428,74428,602,-339,118,-445,-116,471,846,-3944,88,117,912,1456,1495,1238,1472,1675,1571,1874,2138
229664,72668,40728,74896,74896,579,334,138,-330,-84,713,672,-4990,79,118,907,1456,1495,1238,1472,1675,1571,1874,2138
230665,73072,41364,75364,75364,455,-220,160,-356,-96,477,569,-4893,86,109,909,1456,1495,1238,1472,1675,1571,1874,2138
231666,73452,41896,75832,75832,608,428,183,-194,-129,567,222,-4423,88,121,912,1456,1495,1238,1472,1675,1571,1874,2138
232667,73824,42540,76300,76300,660,-276,167,-115,-121,517,61,-4777,84,105,908,1456,1495,1238,1472,1675,1571,1874,2138
233668,74204,43140,76768,76768,612,-5,171,-102,-101,523,465,-4799,90,99,905,1456,1495,1238,1472,1675,1571,1874,2138
234669,74568,43680,77236,77236,715,369,112,-94,-62,181,-275,-4341,78,108,898,1456,1495,1238,1472,1675,1571,1874,2138
235670,74920,44328,77704,77704,792,-311,147,-110,-16,57,-242,-4871,83,109,893,1456,1495,1238,1472,1675,1571,1874,2138
236671,75308,44836,78172,78172,569,563,212,-33,29,231,-262,-4792,75,96,890,1456,1495,1238,1472,1675,1571,1874,2138
237672,75712,45420,78640,78640,471,86,269,-56,79,252,-310,-4679,89,93,892,1456,1495,1238,1472,1675,1571,1874,2138
238673,76128,46036,79108,79108,397,-118,320,58,121,83,-382,-4550,92,91,899,1456,1495,1238,1472,1675,1571,1874,2138
239674,76528,46628,79576,79576,499,29,311,119,149,348,-472,-5077,75,108,899,1456,1495,1238,1472,1675,1571,1874,2138
240675,76852,47124,80044,80044,977,628,307,224,176,-55,-604,-4229,87,106,895,1456,1495,1238,1472,1675,1571,1874,2138
241676,77236,47620,80512,80512,604,628,314,218,168,-370,-701,-5380,74,102,882,1456,1495,1238,1472,1675,1571,1874,2138
242677,77668,48268,80980,80980,305,-327,302,232,103,-562,-408,-4174,76,95,890,1456,1495,1238,1472,1675,1571,1874,2138
243678,78032,48744,81448,81448,733,748,339,104,89,-1231,-923,-4893,93,99,897,1456,1495,1238,1472,1675,1571,1874,2138
244679,78428,49212,81920,81920,535,798,319,5,62,-670,-803,-4389,86,99,885,1456,1495,1238,1472,1675,1571,1874,2138
245680,78828,49768,82388,82388,511,246,328,-25,81,-929,-1158,-4297,72,98,886,1456,1495,1238,1472,1675,1571,1874,2138
246681,79256,50272,82856,82856,337,570,320,-200,37,-1297,-694,-4744,73,88,896,1456,1495,1238,1472,1675,1571,1874,2138
247682,79688,50776,83324,83324,313,569,281,-243,-69,-1157,-517,-3787,72,92,895,1456,1495,1238,1472,1675,1571,1874,2138
248683,80128,51264,83792,83792,264,669,275,-269,-147,-321,-847,-4764,78,86,895,1456,1495,1238,1472,1675,1571,1874,2138
249684,80528,51740,84260,84260,516,743,213,-272,-151,150,-158,-4310,91,87,893,1456,1495,1238,1472,1675,1571,1874,2138
250685,80920,52252,84728,84728,567,517,135,-249,-173,-259,-100,-3762,89,102,889,1456,1495,1238,1472,1675,1571,1874,2138
251686,81316,52800,85196,85196,544,290,53,-188,-255,-265,80,-4286,73,101,892,1456,1495,1238,1472,1675,1571,1874,2138
252687,81816,53232,85664,85664,-107,1016,22,-166,-310,-184,48,-4274,78,98,895,1456,1495,1238,1472,1675,1571,1874,2138
253688,82304,53724,86132,86132,-32,641,-41,-15,-251,807,-625,-4121,91,97,887,1456,1495,1238,1472,1675,1571,1874,2138
254689,82732,54192,86600,86600,344,791,-146,66,-161,608,-760,-4411,84,95,896,1456,1495,1238,1472,1675,1571,1874,2138
255690,83116,54724,87068,87068,621,389,-253,164,-184,-419,253,-3350,82,102,890,1456,1495,1238,1472,1675,1571,1874,2138
256691,83552,55220,87536,87536,297,613,-294,265,-274,-170,794,-4014,78,104,893,1456,1495,1238,1472,1675,1571,1874,2138
257692,83972,55680,88004,88004,398,839,-370,297,-246,354,-2,-3812,90,99,890,1456,1495,1238,1472,1675,1571,1874,2138
258693,84468,56172,88472,88472,-78,638,-450,338,-131,402,-78,-3503,91,92,889,1456,1495,1238,1472,1675,1571,1874,2138
259694,84900,56672,88940,88940,323,587,-557,294,-35,-44,224,-3396,92,108,895,1456,1495,1238,1472,1675,1571,1874,2138
260695,85300,57200,89408,89408,525,411,-535,264,-5,-383,292,-4080,85,109,894,1456,1495,1238,1472,1675,1571,1874,2138
261696,85744,57648,89876,89876,250,911,-496,263,49,-44,275,-3478,85,99,894,1456,1495,1238,1472,1675,1571,1874,2138
262697,86164,58104,90344,90344,402,862,-504,408,88,392,-211,-3071,107,99,889,1456,1495,1238,1472,1675,1571,1874,2138
263698,86636,58560,90812,90812,76,862,-499,367,167,-608,-634,-3779,110,104,889,1456,1495,1238,1472,1675,1571,1874,2138
264699,87096,59064,91280,91280,152,561,-478,472,195,-268,-164,-2564,104,107,891,1456,1495,1238,1472,1675,1571,1874,2138
265700,87564,59520,91748,91748,102,861,-389,484,207,2,-214,-3477,101,93,896,1456,1495,1238,1472,1675,1571,1874,2138
266701,87992,59980,92216,92216,353,837,-266,479,236,-328,-454,-3226,89,84,891,1456,1495,1238,1472,1675,1571,1874,2138
267702,88472,60444,92684,92684,27,812,-163,428,248,-705,263,-3446,103,99,890,1456,1495,1238,1472,1675,1571,1874,2138
268703,88984,60888,93152,93152,-174,937,-83,359,224,-478,568,-3245,107,98,892,1456,1495,1238,1472,1675,1571,1874,2138
269704,89428,61360,93620,93620,252,762,-21,364,195,-11,-386,-4275,98,97,888,1456,1495,1238,1472,1675,1571,1874,2138
270705,89872,61816,94088,94088,252,862,31,363,174,-96,693,-3754,106,88,892,1456,1495,1238,1472,1675,1571,1874,2138
271706,90340,62232,94556,94556,102,1114,100,407,154,26,253,-4752,109,100,891,1456,1495,1238,1472,1675,1571,1874,2138
272707,90788,62680,95024,95024,228,914,105,447,64,406,350,-3861,111,89,887,1456,1495,1238,1472,1675,1571,1874,2138
273708,91296,63172,95492,95492,-148,639,155,489,-41,267,859,-4094,101,92,888,1456,1495,1238,1472,1675,1571,1874,2138
274709,91756,63632,95960,95960,152,839,201,441,-96,566,615,-5159,88,104,890,1456,1495,1238,1472,1675,1571,1874,2138
275710,92208,64080,96428,96428,203,914,238,351,-158,250,1042,-4525,102,96,892,1456,1495,1238,1472,1675,1571,1874,2138
276711,92680,64540,96896,96896,77,839,239,265,-247,-126,1524,-4813,104,90,890,1456,1495,1238,1472,1675,1571,1874,2138
277712,93160,64988,97364,97364,27,915,233,193,-318,-151,1331,-5165,97,106,891,1456,1495,1238,1472,1675,1571,1874,2138
278713,93636,65496,97832,97832,52,539,200,199,-360,-218,1137,-5132,101,102,890,1456,1495,1238,1472,1675,1571,1874,2138
279714,94144,65964,98304,98304,-149,789,182,249,-366,47,1188,-5328,87,105,898,1456,1495,1238,1472,1675,1571,1874,2138
280715,94572,66432,98772,98772,352,789,131,271,-378,-370,909,-5411,100,111,893,1456,1495,1238,1472,1675,1571,1874,2138
281716,95032,66916,99240,99240,152,689,87,279,-407,-728,961,-4880,101,107,890,1456,1495,1238,1472,1675,1571,1874,2138
282717,95592,67440,99708,99708,-475,437,73,298,-377,308,1105,-5069,91,107,894,1456,1495,1238,1472,1675,1571,1874,2138
283718,96020,67896,100176,100176,351,863,109,258,-365,988,1313,-4738,93,98,892,1456,1495,1238,1472,1675,1571,1874,2138
284719,96504,68388,100644,100644,1,637,139,65,-349,-476,1308,-5584,105,101,889,1456,1495,1238,1472,1675,1571,1874,2138
285720,96848,68896,101112,101112,879,536,177,0,-275,-345,279,-4770,97,101,896,1456,1495,1238,1472,1675,1571,1874,2138
286721,97328,69376,101580,101580,28,711,139,47,-134,160,-496,-4410,86,102,886,1456,1495,1238,1472,1675,1571,1874,2138
287722,97744,69956,102048,102048,430,83,128,179,29,389,-371,-4480,95,116,895,1456,1495,1238,1472,1675,1571,1874,2138
288723,98172,70492,102516,102516,356,356,122,245,185,377,-1610,-5671,83,110,899,1456,1495,1238,1472,1675,1571,1874,2138
289724,98656,71052,102984,102984,5,204,144,307,315,55,-982,-4441,98,106,898,1456,1495,1238,1472,1675,1571,1874,2138
290725,99076,71580,103452,103452,406,403,156,254,376,-107,-936,-4818,86,103,903,1456,1495,1238,1472,1675,1571,1874,2138
291726,99528,72104,103920,103920,207,426,203,241,387,217,-350,-4276,90,107,893,1456,1495,1238,1472,1675,1571,1874,2138
292727,99928,72788,104388,104388,533,-579,221,182,427,145,-1196,-4393,88,110,898,1456,1495,1238,1472,1675,1571,1874,2138
293728,100332,73336,104856,104856,510,269,225,185,447,194,-403,-4033,88,106,888,1456,1495,1238,1472,1675,1571,1874,2138
294729,100812,73864,105324,105324,35,393,201,147,442,801,-208,-4259,83,106,897,1456,1495,1238,1472,1675,1571,1874,2138
295730,101204,74484,105792,105792,587,-186,156,112,376,443,-285,-4742,81,108,901,1456,1495,1238,1472,1675,1571,1874,2138
296731,101628,75044,106260,106260,388,187,97,-55,235,-424,-234,-5136,79,103,895,1456,1495,1238,1472,1675,1571,1874,2138
297732,102024,75560,106728,106728,564,460,61,-142,155,-295,-979,-4627,81,102,899,1456,1495,1238,1472,1675,1571,1874,2138
298733,102400,76136,107196,107196,692,83,-58,-92,126,675,-1108,-4418,84,102,893,1456,1495,1238,1472,1675,1571,1874,2138
299734,102828,76704,107664,107664,368,130,-177,-91,53,557,-381,-4156,96,104,896,1456,1495,1238,1472,1675,1571,1874,2138
300735,103228,77264,108132,108132,544,178,-271,-128,-71,223,-598,-4151,89,104,900,1456,1495,1238,1472,1675,1571,1874,2138
301736,103608,77840,108600,108600,671,75,-311,-249,-184,75,-898,-4757,78,102,897,1456,1495,1238,1472,1675,1571,1874,2138
302737,104044,78416,109068,109068,322,73,-319,-309,-279,319,-758,-4000,84,95,895,1456,1495,1238,1472,1675,1571,1874,2138
303738,104464,78984,109536,109536,423,120,-282,-366,-330,563,-497,-3771,90,111,901,1456,1495,1238,1472,1675,1571,1874,2138
304739,104852,79488,110004,110004,625,520,-267,-375,-356,524,-256,-3218,86,107,900,1456,1495,1238,1472,1675,1571,1874,2138
305740,105296,79996,110472,110472,276,494,-273,-394,-354,646,-686,-3144,89,101,891,1456,1495,1238,1472,1675,1571,1874,2138
306741,105712,80472,110940,110940,452,693,-266,-405,-353,629,-369,-3891,93,94,896,1456,1495,1238,1472,1675,1571,1874,2138
307742,106132,80956,111408,111408,428,643,-239,-437,-349,319,-335,-3663,91,110,891,1456,1495,1238,1472,1675,1571,1874,2138
308743,106548,81612,111876,111876,455,-437,-215,-377,-330,470,-517,-3270,94,102,888,1456,1495,1238,1472,1675,1571,1874,2138
309744,106964,82132,112344,112344,456,412,-192,-341,-284,776,-331,-3607,99,101,892,1456,1495,1238,1472,1675,1571,1874,2138
310745,107424,82692,112812,112812,181,160,-149,-246,-217,1030,38,-3217,84,99,895,1456,1495,1238,1472,1675,1571,1874,2138
311746,107824,83232,113280,113280,558,283,-133,-301,-161,454,-271,-3514,78,108,902,1456,1495,1238,1472,1675,1571,1874,2138
312747,108228,83712,113748,113748,534,658,-122,-245,-139,260,576,-3096,85,97,895,1456,1495,1238,1472,1675,1571,1874,2138
313748,108640,84268,114216,114216,486,181,-135,-267,-69,632,965,-3268,80,94,891,1456,1495,1238,1472,1675,1571,1874,2138
314749,109040,84880,114688,114688,562,-173,-146,-247,49,502,1072,-3251,97,96,898,1456,1495,1238,1472,1675,1571,1874,2138
315750,109464,85400,115156,115156,413,401,-168,-159,121,45,1113,-3641,89,96,896,1456,1495,1238,1472,1675,1571,1874,2138
316751,109856,85896,115624,115624,615,550,-153,-131,152,-486,1020,-3994,79,109,896,1456,1495,1238,1472,1675,1571,1874,2138
317752,110260,86436,116092,116092,542,274,-97,-135,179,-567,881,-4096,89,98,890,1456,1495,1238,1472,1675,1571,1874,2138
318753,110660,86888,116560,116560,569,824,-67,-74,205,335,990,-3744,89,94,896,1456,1495,1238,1472,1675,1571,1874,2138
319754,111052,87488,117028,117028,620,-104,-15,-92,260,198,815,-4399,91,104,888,1456,1495,1238,1472,1675,1571,1874,2138
320755,111492,87976,117496,117496,321,595,8,-185,277,-315,725,-4423,86,105,895,1456,1495,1238,1472,1675,1571,1874,2138
321756,111856,88528,117964,117964,799,193,33,-183,293,-594,625,-4017,82,89,894,1456,1495,1238,1472,1675,1571,1874,2138
322757,112256,88984,118432,118432,575,793,66,-262,240,-300,1293,-4495,75,90,891,1456,1495,1238,1472,1675,1571,1874,2138
323758,112656,89516,118900,118900,577,317,122,-256,175,-344,1022,-4389,83,92,888,1456,1495,1238,1472,1675,1571,1874,2138
324759,113028,90044,119368,119368,754,340,146,-352,124,-325,1295,-4362,90,96,895,1456,1495,1238,1472,1675,1571,1874,2138
325760,113408,90512,119836,119836,706,715,159,-338,67,-438,1150,-4509,89,84,887,1456,1495,1238,1472,1675,1571,1874,2138
326761,113804,90940,120304,120304,608,966,191,-388,4,-208,1045,-5309,85,86,885,1456,1495,1238,1472,1675,1571,1874,2138
327762,114208,91420,120772,120772,560,641,250,-469,-62,-452,1139,-4658,73,96,882,1456,1495,1238,1472,1675,1571,1874,2138
328763,114580,91944,121240,121240,762,365,225,-410,-116,-376,385,-5281,84,102,888,1456,1495,1238,1472,1675,1571,1874,2138
329764,114940,92412,121708,121708,840,715,240,-413,-198,-463,1060,-5151,84,103,890,1456,1495,1238,1472,1675,1571,1874,2138
330765,115316,92832,122176,122176,742,1016,255,-419,-264,-589,583,-5390,88,91,884,1456,1495,1238,1472,1675,1571,1874,2138
331766,115736,93416,122644,122644,468,-12,266,-432,-265,-719,87,-5243,78,91,879,1456,1495,1238,1472,1675,1571,1874,2138
332767,116112,93924,123112,123112,745,462,263,-375,-265,-85,86,-4928,82,95,899,1456,1495,1238,1472,1675,1571,1874,2138
333768,116468,94340,123580,123580,873,1038,306,-387,-273,-121,155,-5307,73,98,889,1456,1495,1238,1472,1675,1571,1874,2138
334769,116832,94804,124048,124048,826,738,359,-489,-274,-448,497,-5009,80,99,879,1456,1495,1238,1472,1675,1571,1874,2138
335770,117216,95276,124516,124516,703,688,378,-470,-223,66,26,-4771,74,87,885,1456,1495,1238,1472,1675,1571,1874,2138
336771,117620,95752,124984,124984,579,663,348,-409,-191,460,-190,-4773,74,99,889,1456,1495,1238,1472,1675,1571,1874,2138
337772,117980,96300,125452,125452,857,211,321,-314,-189,229,111,-4347,73,111,891,1456,1495,1238,1472,1675,1571,1874,2138
338773,118304,96748,125920,125920,1085,837,322,-269,-183,539,-331,-4959,83,106,891,1456,1495,1238,1472,1675,1571,1874,2138
339774,118644,97232,126388,126388,989,611,278,-132,-95,675,-904,-4249,83,90,878,1456,1495,1238,1472,1675,1571,1874,2138
340775,119012,97704,126856,126856,816,686,262,-15,-33,549,269,-4531,87,109,885,1456,1495,1238,1472,1675,1571,1874,2138
341776,119420,98264,127324,127324,567,134,234,-17,-25,6,-131,-4277,82,107,887,1456,1495,1238,1472,1675,1571,1874,2138
342777,119780,98732,127792,127792,870,709,197,7,6,-732,-1297,-4502,75,102,894,1456,1495,1238,1472,1675,1571,1874,2138
343778,120156,99176,128260,128260,772,860,142,34,84,-158,-1132,-4360,87,112,885,1456,1495,1238,1472,1675,1571,1874,2138
344779,120524,99664,128728,128728,825,584,188,-16,174,333,-337,-4102,73,115,885,1456,1495,1238,1472,1675,1571,1874,2138
345780,120908,100156,129196,129196,727,558,214,-107,205,-136,-608,-3685,82,104,888,1456,1495,1238,1472,1675,1571,1874,2138
346781,121320,100708,129664,129664,553,181,186,-145,204,-619,-755,-3403,81,104,891,1456,1495,1238,1472,1675,1571,1874,2138
347782,121752,101196,130132,130132,429,581,145,-224,219,-367,-379,-4228,87,106,898,1456,1495,1238,1472,1675,1571,1874,2138
348783,122144,101728,130600,130600,681,304,153,-327,257,-140,-334,-3788,90,120,895,1456,1495,1238,1472,1675,1571,1874,2138
349784,122568,102228,131072,131072,482,504,149,-323,262,-286,-299,-3591,85,105,895,1456,1495,1238,1472,1675,1571,1874,2138
350785,122972,102800,131540,131540,609,51,96,-339,243,-97,-826,-3665,78,119,897,1456,1495,1238,1472,1675,1571,1874,2138
351786,123376,103336,132008,132008,610,275,57,-371,226,-128,-320,-3800,97,119,900,1456,1495,1238,1472,1675,1571,1874,2138
352787,123860,103916,132476,132476,110,-3,39,-383,192,-111,-948,-3634,100,106,897,1456,1495,1238,1472,1675,1571,1874,2138
353788,124288,104412,132944,132944,461,521,-4,-362,172,26,249,-3478,100,118,906,1456,1495,1238,1472,1675,1571,1874,2138
354789,124708,104988,133412,133412,512,18,-34,-312,129,159,-907,-3208,100,118,897,1456,1495,1238,1472,1675,1571,1874,2138
355790,125184,105588,133880,133880,162,-135,-51,-341,62,235,857,-4020,92,119,901,1456,1495,1238,1472,1675,1571,1874,2138
356791,125652,106120,134348,134348,212,289,-72,-284,60,379,-530,-3541,106,107,904,1456,1495,1238,1472,1675,1571,1874,2138
357792,126164,106720,134816,134816,-64,-140,-120,-285,23,749,572,-4203,104,110,903,1456,1495,1238,1472,1675,1571,1874,2138
358793,126620,107252,135284,135284,286,284,-166,-196,-15,491,-14,-4096,92,119,904,1456,1495,1238,1472,1675,1571,1874,2138
359794,127076,107844,135752,135752,286,-94,-234,-84,-52,524,-314,-4299,85,113,898,1456,1495,1238,1472,1675,1571,1874,2138
360795,127512,108440,136220,136220,412,-122,-290,-3,-101,408,287,-4311,100,108,903,1456,1495,1238,1472,1675,1571,1874,2138
361796,127964,109000,136688,136688,312,100,-332,74,-130,365,-317,-4095,97,105,901,1456,1495,1238,1472,1675,1571,1874,2138
362797,128452,109612,137156,137156,87,-228,-365,112,-123,468,-94,-4220,99,99,903,1456,1495,1238,1472,1675,1571,1874,2138
363798,128928,110116,137624,137624,162,446,-376,152,-120,420,14,-4148,100,102,903,1456,1495,1238,1472,1675,1571,1874,2138
364799,129412,110700,138092,138092,111,-57,-360,192,-127,171,119,-4399,96,95,901,1456,1495,1238,1472,1675,1571,1874,2138
365800,129856,111224,138560,138560,362,317,-333,176,-104,-124,321,-5065,104,102,906,1456,1495,1238,1472,1675,1571,1874,2138
366801,130296,111760,139028,139028,388,240,-316,285,-99,84,202,-3915,105,102,901,1456,1495,1238,1472,1675,1571,1874,2138
367802,130712,112344,139496,139496,539,-63,-309,314,-62,-360,-491,-5133,87,92,901,1456,1495,1238,1472,1675,1571,1874,2138
368803,131256,112840,139964,139964,-263,487,-283,429,-58,-417,-60,-4005,101,102,900,1456,1495,1238,1472,1675,1571,1874,2138
369804,131688,113440,140432,140432,438,-167,-249,363,-10,-1008,-352,-4969,93,102,897,1456,1495,1238,1472,1675,1571,1874,2138
370805,132132,113924,140900,140900,364,558,-143,411,-6,-687,-141,-4122,92,96,900,1456,1495,1238,1472,1675,1571,1874,2138
371806,132576,114388,141368,141368,364,683,-54,283,0,-1261,-528,-4563,101,104,897,1456,1495,1238,1472,1675,1571,1874,2138
372807,133068,114900,141836,141836,64,382,-3,247,-7,-1409,61,-3858,93,83,894,1456,1495,1238,1472,1675,1571,1874,2138
373808,133512,115428,142304,142304,364,281,45,95,6,-1211,-187,-4963,101,92,902,1456,1495,1238,1472,1675,1571,1874,2138
374809,133912,115876,142772,142772,641,781,125,-20,-26,-1202,886,-4221,96,101,901,1456,1495,1238,1472,1675,1571,1874,2138
375810,134348,116352,143240,143240,417,606,177,-12,-63,-732,663,-4501,88,99,889,1456,1495,1238,1472,1675,1571,1874,2138
376811,134792,116824,143708,143708,367,631,164,-14,-74,-11,365,-4340,85,83,890,1456,1495,1238,1472,1675,1571,1874,2138
377812,135232,117272,144176,144176,393,781,138,-55,-64,-1000,971,-5198,100,83,894,1456,1495,1238,1472,1675,1571,1874,2138
378813,135664,117808,144644,144644,444,230,187,-93,-85,-720,1036,-4875,90,86,892,1456,1495,1238,1472,1675,1571,1874,2138
379814,136088,118268,145112,145112,495,705,162,99,-119,355,846,-3939,100,99,900,1456,1495,1238,1472,1675,1571,1874,2138
380815,136516,118692,145580,145580,471,931,158,-12,-74,-355,1113,-5708,92,88,892,1456,1495,1238,1472,1675,1571,1874,2138
381816,136936,119140,146048,146048,522,781,96,163,-26,-139,1119,-3510,95,94,887,1456,1495,1238,1472,1675,1571,1874,2138
382817,137348,119648,146516,146516,573,405,99,151,-13,447,1080,-5678,90,84,890,1456,1495,1238,1472,1675,1571,1874,2138
383818,137792,120120,146984,146984,374,630,94,167,-29,316,1309,-4465,92,102,895,1456,1495,1238,1472,1675,1571,1874,2138
384819,138228,120588,147456,147456,425,655,1,231,-40,742,1521,-4129,100,103,895,1456,1495,1238,1472,1675,1571,1874,2138
385820,138656,121052,147924,147924,476,681,-51,247,0,351,724,-5500,82,99,893,1456,1495,1238,1472,1675,1571,1874,2138
386821,139032,121516,148392,148392,803,681,-165,364,32,608,562,-4188,94,97,892,1456,1495,1238,1472,1675,1571,1874,2138
387822,139440,122032,148860,148860,604,354,-175,365,83,349,-36,-4842,83,85,888,1456,1495,1238,1472,1675,1571,1874,2138
388823,139832,122508,149328,149328,706,604,-148,428,108,44,879,-3965,86,106,895,1456,1495,1238,1472,1675,1571,1874,2138
389824,140260,122940,149796,149796,482,880,-54,267,157,-165,-221,-4319,94,87,890,1456,1495,1238,1472,1675,1571,1874,2138
390825,140660,123364,150264,150264,659,931,-111,249,166,339,-270,-3493,83,86,886,1456,1495,1238,1472,1675,1571,1874,2138
391826,141076,123796,150732,150732,560,882,-24,161,193,435,-359,-4336,91,84,885,1456,1495,1238,1472,1675,1571,1874,2138
392827,141476,124296,151200,151200,662,456,42,109,191,473,424,-4353,91,100,887,1456,1495,1238,1472,1675,1571,1874,2138
393828,141900,124736,151668,151668,513,832,155,138,205,74,-920,-2774,86,91,888,1456,1495,1238,1472,1675,1571,1874,2138
394829,142320,125188,152136,152136,539,757,183,262,186,392,97,-4197,86,86,888,1456,1495,1238,1472,1675,1571,1874,2138
395830,142728,125640,152604,152604,616,758,205,290,198,451,-667,-3133,73,97,888,1456,1495,1238,1472,1675,1571,1874,2138
396831,143096,126100,153072,153072,868,708,239,335,163,304,-333,-3887,83,92,889,1456,1495,1238,1472,1675,1571,1874,2138
397832,143504,126532,153540,153540,620,884,274,317,117,32,-447,-3615,86,88,885,1456,1495,1238,1472,1675,1571,1874,2138
398833,143920,126920,154008,154008,571,1161,291,271,75,356,-1002,-3966,80,91,885,1456,1495,1238,1472,1675,1571,1874,2138
399834,144392,127348,154476,154476,221,912,274,306,40,519,-169,-3698,87,91,880,1456,1495,1238,1472,1675,1571,1874,2138
400835,144820,127780,154944,154944,497,888,260,298,7,476,-1037,-3763,91,97,891,1456,1495,1238,1472,1675,1571,1874,2138
401836,145216,128248,155412,155412,698,663,255,327,-84,87,106,-4247,79,91,888,1456,1495,1238,1472,1675,1571,1874,2138
402837,145672,128672,155880,155880,324,939,276,326,-161,384,72,-3762,90,85,889,1456,1495,1238,1472,1675,1571,1874,2138
403838,146092,129120,156348,156348,550,789,200,304,-191,1048,-18,-4277,87,99,888,1456,1495,1238,1472,1675,1571,1874,2138
404839,146532,129564,156816,156816,426,815,112,278,-232,451,-144,-3835,79,97,889,1456,1495,1238,1472,1675,1571,1874,2138
405840,146992,130052,157284,157284,301,539,24,176,-321,-286,701,-4195,80,101,891,1456,1495,1238,1472,1675,1571,1874,2138
406841,147432,130468,157752,157752,426,991,-25,163,-372,93,-358,-4425,88,87,897,1456,1495,1238,1472,1675,1571,1874,2138
407842,147904,130900,158220,158220,226,891,-94,159,-330,471,-864,-4350,93,102,886,1456,1495,1238,1472,1675,1571,1874,2138
408843,148388,131368,158688,158688,151,666,-155,196,-297,1,-79,-4077,89,90,891,1456,1495,1238,1472,1675,1571,1874,2138
409844,148916,131800,159156,159156,-125,892,-216,129,-310,-763,-533,-4214,84,100,896,1456,1495,1238,1472,1675,1571,1874,2138
410845,149332,132312,159624,159624,576,391,-240,129,-303,-331,29,-4059,96,102,887,1456,1495,1238,1472,1675,1571,1874,2138
411846,149784,132764,160092,160092,351,767,-270,92,-231,140,62,-4237,92,94,895,1456,1495,1238,1472,1675,1571,1874,2138
412847,150232,133224,160560,160560,377,717,-299,45,-152,-390,243,-3992,91,105,893,1456,1495,1238,1472,1675,1571,1874,2138
413848,150696,133700,161028,161028,277,617,-330,-6,-96,-470,221,-4090,90,99,894,1456,1495,1238,1472,1675,1571,1874,2138
414849,151120,134224,161496,161496,528,315,-309,-64,-15,-115,-364,-4710,97,101,895,1456,1495,1238,1472,1675,1571,1874,2138
415850,151592,134712,161964,161964,228,540,-262,-20,62,159,-100,-4237,97,105,898,1456,1495,1238,1472,1675,1571,1874,2138
416851,152024,135212,162432,162432,479,464,-238,39,110,-72,-263,-4189,109,95,898,1456,1495,1238,1472,1675,1571,1874,2138
417852,152508,135692,162900,162900,153,589,-237,57,135,-80,-443,-3920,103,111,897,1456,1495,1238,1472,1675,1571,1874,2138
418853,152996,136212,163368,163368,128,337,-185,55,133,410,-225,-4133,94,99,898,1456,1495,1238,1472,1675,1571,1874,2138
419854,153452,136808,163840,163840,328,-141,-75,17,148,291,-293,-4525,110,98,902,1456,1495,1238,1472,1675,1571,1874,2138
420855,153968,137324,164308,164308,-48,358,-33,-51,169,-56,267,-3940,106,102,902,1456,1495,1238,1472,1675,1571,1874,2138
421856,154468,137860,164776,164776,51,232,25,-74,160,246,701,-4392,102,113,903,1456,1495,1238,1472,1675,1571,1874,2138
422857,154932,138420,165244,165244,276,79,43,-57,125,551,608,-4480,104,95,905,1456,1495,1238,1472,1675,1571,1874,2138
423858,155380,139036,165712,165712,377,-274,55,-57,126,255,103,-4754,105,107,904,1456,1495,1238,1472,1675,1571,1874,2138
424859,155844,139540,166180,166180,277,425,62,-33,119,353,781,-4708,118,107,900,1456,1495,1238,1472,1675,1571,1874,2138
425860,156376,140088,166648,166648,-150,148,61,41,80,507,139,-4715,105,107,900,1456,1495,1238,1472,1675,1571,1874,2138
426861,156884,140648,167116,167116,-1,71,38,63,-22,-229,689,-4377,110,93,904,1456,1495,1238,1472,1675,1571,1874,2138
427862,157404,141172,167584,167584,-77,294,56,11,-112,-235,665,-4637,109,104,902,1456,1495,1238,1472,1675,1571,1874,2138
428863,157896,141716,168052,168052,97,167,68,-87,-158,263,920,-4550,101,105,903,1456,1495,1238,1472,1675,1571,1874,2138
429864,158384,142240,168520,168520,122,291,67,-142,-184,98,1110,-4728,114,96,905,1456,1495,1238,1472,1675,1571,1874,2138
430865,158932,142824,168988,168988,-255,-87,38,-153,-233,-381,947,-4749,112,104,903,1456,1495,1238,1472,1675,1571,1874,2138
431866,159368,143372,169456,169456,446,136,-19,-128,-299,-586,740,-5108,98,98,903,1456,1495,1238,1472,1675,1571,1874,2138
432867,159800,143988,169924,169924,472,-292,-16,-73,-344,90,753,-5091,96,98,902,1456,1495,1238,1472,1675,1571,1874,2138
433868,160300,144516,170392,170392,46,256,-1,-122,-320,-233,356,-5482,98,101,898,1456,1495,1238,1472,1675,1571,1874,2138
434869,160860,145020,170860,170860,-331,405,23,-177,-304,-756,124,-4309,109,93,905,1456,1495,1238,1472,1675,1571,1874,2138
435870,161372,145496,171328,171328,-32,580,21,-251,-286,-272,620,-4551,108,94,898,1456,1495,1238,1472,1675,1571,1874,2138
436871,161936,145996,171796,171796,-360,429,68,-287,-328,60,1049,-3731,93,97,900,1456,1495,1238,1472,1675,1571,1874,2138
437872,162304,146576,172264,172264,868,-73,163,-462,-351,-435,484,-5463,108,87,897,1456,1495,1238,1472,1675,1571,1874,2138
438873,162732,147104,172732,172732,494,250,187,-545,-276,-355,363,-4319,100,108,894,1456,1495,1238,1472,1675,1571,1874,2138
439874,163208,147608,173200,173200,193,399,237,-439,-172,159,-934,-3722,94,88,898,1456,1495,1238,1472,1675,1571,1874,2138
440875,163652,148100,173668,173668,394,474,218,-231,-42,656,-1023,-4037,88,98,900,1456,1495,1238,1472,1675,1571,1874,2138
441876,164164,148608,174136,174136,-32,373,193,-143,120,609,-967,-3867,95,88,898,1456,1495,1238,1472,1675,1571,1874,2138
442877,164624,149108,174604,174604,293,422,236,-98,225,465,-689,-4251,95,92,903,1456,1495,1238,1472,1675,1571,1874,2138
443878,165096,149524,175072,175072,218,948,227,-153,272,-3,-423,-3935,95,102,899,1456,1495,1238,1472,1675,1571,1874,2138
444879,165528,150136,175540,175540,469,-280,246,-190,346,39,-115,-4117,95,97,887,1456,1495,1238,1472,1675,1571,1874,2138
445880,165968,150608,176008,176008,420,595,215,-260,423,309,-179,-4417,92,92,897,1456,1495,1238,1472,1675,1571,1874,2138
446881,166440,151180,176476,176476,220,-33,209,-208,450,199,171,-3760,89,94,895,1456,1495,1238,1472,1675,1571,1874,2138
447882,166896,151704,176944,176944,320,266,213,-284,450,5,327,-4572,85,92,904,1456,1495,1238,1472,1675,1571,1874,2138
448883,167316,152216,177412,177412,546,340,160,-256,355,743,940,-3586,89,104,902,1456,1495,1238,1472,1675,1571,1874,2138
449884,167756,152740,177880,177880,422,263,105,-369,335,329,-166,-5331,84,100,898,1456,1495,1238,1472,1675,1571,1874,2138
450885,168128,153196,178348,178348,849,689,40,-322,291,235,19,-3735,85,94,900,1456,1495,1238,1472,1675,1571,1874,2138
451886,168588,153736,178816,178816,299,162,-33,-289,224,505,-538,-4598,103,104,887,1456,1495,1238,1472,1675,1571,1874,2138
452887,168992,154252,179284,179284,651,311,-82,-119,114,942,541,-3252,95,94,902,1456,1495,1238,1472,1675,1571,1874,2138
453888,169464,154764,179752,179752,226,335,-149,-154,23,576,-443,-4618,91,88,895,1456,1495,1238,1472,1675,1571,1874,2138
454889,169876,155208,180224,180224,602,760,-157,-73,-98,380,263,-3681,86,89,901,1456,1495,1238,1472,1675,1571,1874,2138
455890,170316,155788,180692,180692,428,-92,-155,-231,-217,237,186,-4639,95,90,890,1456,1495,1238,1472,1675,1571,1874,2138
456891,170712,156212,181160,181160,705,884,-119,-203,-304,374,27,-3768,93,83,900,1456,1495,1238,1472,1675,1571,1874,2138
457892,171208,156660,181628,181628,79,734,-72,-215,-325,289,-361,-4186,92,95,885,1456,1495,1238,1472,1675,1571,1874,2138
458893,171664,157136,182096,182096,329,559,-66,-128,-371,221,-46,-3561,93,94,895,1456,1495,1238,1472,1675,1571,1874,2138
459894,172076,157592,182564,182564,606,684,-64,-81,-379,-63,-996,-4135,92,93,897,1456,1495,1238,1472,1675,1571,1874,2138
460895,172508,158036,183032,183032,481,760,-24,-15,-421,-303,0,-4141,87,86,891,1456,1495,1238,1472,1675,1571,1874,2138
461896,172972,158564,183500,183500,282,233,-10,-20,-449,-515,-172,-3666,97,92,886,1456,1495,1238,1472,1675,1571,1874,2138
462897,173436,159048,183968,183968,282,508,45,-86,-406,-438,-359,-4477,97,97,901,1456,1495,1238,1472,1675,1571,1874,2138
463898,173872,159512,184436,184436,457,633,13,-48,-338,-85,-540,-3514,91,102,899,1456,1495,1238,1472,1675,1571,1874,2138
464899,174296,159984,184904,184904,533,583,43,-112,-291,-568,170,-3985,93,102,894,1456,1495,1238,1472,1675,1571,1874,2138
465900,174708,160448,185372,185372,610,633,70,-149,-245,-941,458,-4261,87,96,893,1456,1495,1238,1472,1675,1571,1874,2138
466901,175092,160900,185840,185840,787,708,43,-216,-157,-849,173,-3905,80,92,891,1456,1495,1238,1472,1675,1571,1874,2138
467902,175556,161368,186308,186308,287,608,2,-242,-56,-326,374,-4571,94,105,887,1456,1495,1238,1472,1675,1571,1874,2138
468903,175972,161800,186776,186776,588,834,-12,-231,10,-482,-263,-4200,85,96,895,1456,1495,1238,1472,1675,1571,1874,2138
469904,176404,162332,187244,187244,489,208,-8,-215,42,-549,699,-4090,97,89,888,1456,1495,1238,1472,1675,1571,1874,2138
470905,176816,162772,187712,187712,616,783,18,-193,119,-549,190,-4251,97,95,899,1456,1495,1238,1472,1675,1571,1874,2138
471906,177224,163204,188180,188180,642,834,-2,-215,217,-569,-236,-4384,85,98,889,1456,1495,1238,1472,1675,1571,1874,2138
472907,177636,163692,188648,188648,618,484,-14,-159,317,-1072,127,-4283,89,112,887,1456,1495,1238,1472,1675,1571,1874,2138
473908,178076,164196,189116,189116,444,383,35,-263,339,-371,854,-4585,73,105,892,1456,1495,1238,1472,1675,1571,1874,2138
474909,178460,164640,189584,189584,796,758,59,-279,352,5,270,-3708,91,99,898,1456,1495,1238,1472,1675,1571,1874,2138
475910,178860,165092,190052,190052,698,709,72,-373,385,-122,722,-4684,85,117,886,1456,1495,1238,1472,1675,1571,1874,2138
476911,179240,165556,190520,190520,825,634,60,-357,391,-142,760,-3686,73,114,888,1456,1495,1238,1472,1675,1571,1874,2138
477912,179644,166064,190988,190988,676,358,60,-402,369,94,549,-4784,69,103,887,1456,1495,1238,1472,1675,1571,1874,2138
478913,180056,166568,191456,191456,628,382,60,-305,307,187,373,-4230,68,114,889,1456,1495,1238,1472,1675,1571,1874,2138
479914,180460,167068,191924,191924,679,406,71,-373,249,-225,519,-4657,81,111,895,1456,1495,1238,1472,1675,1571,1874,2138
480915,180828,167548,192392,192392,907,531,62,-343,180,288,1271,-4101,91,111,894,1456,1495,1238,1472,1675,1571,1874,2138
481916,181228,168072,192860,192860,708,255,48,-331,150,392,-499,-4897,83,116,887,1456,1495,1238,1472,1675,1571,1874,2138
482917,181636,168608,193328,193328,660,178,76,-298,91,-179,305,-4332,84,105,894,1456,1495,1238,1472,1675,1571,1874,2138
483918,182056,169160,193796,193796,586,76,76,-265,-17,134,589,-4110,90,112,896,1456,1495,1238,1472,1675,1571,1874,2138
484919,182460,169696,194264,194264,688,174,141,-325,-105,844,699,-4543,89,100,899,1456,1495,1238,1472,1675,1571,1874,2138
485920,182852,170172,194732,194732,765,549,115,-213,-143,737,393,-4059,81,105,897,1456,1495,1238,1472,1675,1571,1874,2138
486921,183228,170772,195200,195200,867,-229,125,-239,-179,440,290,-4572,88,105,891,1456,1495,1238,1472,1675,1571,1874,2138
487922,183604,171320,195668,195668,869,94,110,-148,-225,881,707,-4290,78,115,891,1456,1495,1238,1472,1675,1571,1874,2138
488923,184004,171844,196136,196136,721,243,117,-106,-226,1028,-412,-4952,76,102,893,1456,1495,1238,1472,1675,1571,1874,2138
489924,184392,172388,196608,196608,798,116,112,105,-241,1028,513,-4214,90,109,895,1456,1495,1238,1472,1675,1571,1874,2138
490925,184784,172928,197076,197076,775,139,133,167,-240,614,-125,-4875,87,113,895,1456,1495,1238,1472,1675,1571,1874,2138
491926,185160,173444,197544,197544,877,288,93,199,-336,805,1027,-4199,97,99,895,1456,1495,1238,1472,1675,1571,1874,2138
492927,185532,174036,198012,198012,904,-190,36,242,-317,99,-1065,-4618,81,96,891,1456,1495,1238,1472,1675,1571,1874,2138
493928,185976,174608,198480,198480,455,-68,-18,383,-243,78,-125,-4352,93,106,891,1456,1495,1238,1472,1675,1571,1874,2138
494929,186404,175196,198948,198948,556,-171,33,357,-225,399,261,-4633,82,99,900,1456,1495,1238,1472,1675,1571,1874,2138
495930,186808,175708,199416,199416,707,303,73,322,-219,47,-437,-4617,90,101,895,1456,1495,1238,1472,1675,1571,1874,2138
496931,187204,176240,199884,199884,759,177,50,284,-126,-758,-188,-4327,88,99,895,1456,1495,1238,1472,1675,1571,1874,2138
497932,187624,176736,200352,200352,610,401,27,294,-9,-359,-276,-5051,83,99,895,1456,1495,1238,1472,1675,1571,1874,2138
498933,188048,177216,200820,200820,586,501,49,291,78,-84,-503,-5155,94,94,895,1456,1495,1238,1472,1675,1571,1874,2138
499934,188520,177764,201288,201288,286,74,45,316,104,-688,-664,-4509,96,98,895,1456,1495,1238,1472,1675,1571,1874,2138
500935,188940,178268,201756,201756,612,348,46,242,140,-1466,-789,-4760,93,97,903,1456,1495,1238,1472,1675,1571,1874,2138
501936,189416,178848,202224,202224,262,-130,43,182,173,-1217,-728,-4231,96,96,896,1456,1495,1238,1472,1675,1571,1874,2138
502937,189844,179348,202692,202692,563,369,81,123,247,-1046,-1154,-4680,95,91,902,1456,1495,1238,1472,1675,1571,1874,2138
503938,190328,179836,203160,203160,213,444,134,10,267,-1227,-748,-3843,102,100,897,1456,1495,1238,1472,1675,1571,1874,2138
504939,190864,180300,203628,203628,-114,594,158,-122,245,-1590,-575,-4444,96,96,900,1456,1495,1238,1472,1675,1571,1874,2138
505940,191352,180820,204096,204096,186,243,174,-270,201,-1117,-395,-4041,95,87,897,1456,1495,1238,1472,1675,1571,1874,2138
506941,191812,181256,204564,204564,361,769,182,-365,174,-625,-481,-4444,97,81,903,1456,1495,1238,1472,1675,1571,1874,2138
507942,192256,181724,205032,205032,461,569,168,-347,145,-613,-355,-4158,89,97,893,1456,1495,1238,1472,1675,1571,1874,2138
508943,192700,182176,205500,205500,462,669,116,-279,110,-153,-420,-3928,89,95,895,1456,1495,1238,1472,1675,1571,1874,2138
509944,193228,182628,205968,205968,-64,669,90,-214,65,275,-368,-4146,94,78,893,1456,1495,1238,1472,1675,1571,1874,2138
510945,193712,183136,206436,206436,210,318,48,-196,17,419,108,-4140,90,87,896,1456,1495,1238,1472,1675,1571,1874,2138
511946,194188,183608,206904,206904,260,543,22,-151,-33,660,264,-3521,90,98,901,1456,1495,1238,1472,1675,1571,1874,2138
512947,194640,184036,207372,207372,410,819,-67,-126,-58,608,529,-4154,101,88,894,1456,1495,1238,1472,1675,1571,1874,2138
513948,195128,184472,207840,207840,185,770,-126,-56,-88,738,646,-3440,103,93,891,1456,1495,1238,1472,1675,1571,1874,2138
514949,195632,184980,208308,208308,84,319,-222,72,-111,954,929,-4102,108,96,893,1456,1495,1238,1472,1675,1571,1874,2138
515950,196120,185408,208776,208776,183,820,-296,130,-121,1082,552,-4018,88,97,902,1456,1495,1238,1472,1675,1571,1874,2138
516951,196572,185880,209244,209244,409,545,-416,216,-148,1007,935,-3800,101,94,895,1456,1495,1238,1472,1675,1571,1874,2138
517952,197020,186324,209712,209712,434,720,-464,304,-133,693,226,-4191,98,88,895,1456,1495,1238,1472,1675,1571,1874,2138
518953,197508,186776,210180,210180,184,671,-517,408,-120,641,303,-3646,110,97,893,1456,1495,1238,1472,1675,1571,1874,2138
519954,197996,187296,210648,210648,183,245,-532,495,-82,604,-188,-3127,100,80,895,1456,1495,1238,1472,1675,1571,1874,2138
520955,198500,187772,211116,211116,83,519,-507,452,-61,276,355,-4002,88,104,902,1456,1495,1238,1472,1675,1571,1874,2138
521956,198956,188172,211584,211584,383,996,-454,357,-32,-289,234,-3157,87,105,900,1456,1495,1238,1472,1675,1571,1874,2138
522957,199412,188624,212052,212052,383,671,-364,269,-11,-306,68,-3983,104,88,888,1456,1495,1238,1472,1675,1571,1874,2138
523958,199788,189052,212520,212520,885,822,-322,279,17,-121,96,-4058,105,83,892,1456,1495,1238,1472,1675,1571,1874,2138
524959,200248,189532,212992,212992,361,497,-225,213,27,-429,-82,-3493,101,89,884,1456,1495,1238,1472,1675,1571,1874,2138
525960,200740,189972,213460,213460,160,748,-179,194,41,-697,45,-4492,89,98,896,1456,1495,1238,1472,1675,1571,1874,2138
526961,201168,190384,213928,213928,561,924,-65,143,64,-696,-198,-3819,96,96,895,1456,1495,1238,1472,1675,1571,1874,2138
527962,201620,190828,214396,214396,411,725,-28,230,108,-742,-255,-3906,109,95,886,1456,1495,1238,1472,1675,1571,1874,2138
528963,202044,191312,214864,214864,587,475,72,193,94,-489,-72,-4268,95,95,891,1456,1495,1238,1472,1675,1571,1874,2138
529964,202488,191736,215332,215332,463,851,133,121,105,-687,313,-4140,91,87,890,1456,1495,1238,1472,1675,1571,1874,2138
530965,202960,192140,215800,215800,288,977,155,69,116,-357,188,-4059,97,87,889,1456,1495,1238,1472,1675,1571,1874,2138
531966,203376,192528,216268,216268,639,1079,200,-7,113,-444,312,-4782,96,81,888,1456,1495,1238,1472,1675,1571,1874,2138
532967,203816,192960,216736,216736,490,805,259,54,90,-133,707,-4503,94,79,882,1456,1495,1238,1472,1675,1571,1874,2138
533968,204272,193436,217204,217204,390,530,294,98,59,193,405,-4775,85,94,888,1456,1495,1238,1472,1675,1571,1874,2138
534969,204656,193844,217672,217672,842,956,245,173,12,261,561,-4768,94,95,895,1456,1495,1238,1472,1675,1571,1874,2138
535970,205116,194268,218140,218140,367,857,264,189,7,149,559,-5117,91,94,881,1456,1495,1238,1472,1675,1571,1874,2138
536971,205528,194704,218608,218608,669,783,248,228,-41,422,987,-4971,93,94,888,1456,1495,1238,1472,1675,1571,1874,2138
537972,205940,195184,219076,219076,670,508,246,182,-100,180,608,-4348,80,94,888,1456,1495,1238,1472,1675,1571,1874,2138
538973,206336,195632,219544,219544,772,708,199,66,-139,200,803,-5165,80,88,891,1456,1495,1238,1472,1675,1571,1874,2138
539974,206764,196056,220012,220012,573,859,201,48,-155,410,1219,-4601,85,98,887,1456,1495,1238,1472,1675,1571,1874,2138
540975,207216,196456,220480,220480,423,1011,204,32,-153,227,780,-5122,88,94,887,1456,1495,1238,1472,1675,1571,1874,2138
541976,207664,196916,220948,220948,449,636,179,102,-176,184,605,-4785,96,86,886,1456,1495,1238,1472,1675,1571,1874,2138
542977,208060,197384,221416,221416,776,586,127,158,-178,75,764,-4948,88,91,892,1456,1495,1238,1472,1675,1571,1874,2138
543978,208464,197852,221884,221884,727,586,93,199,-150,486,450,-4960,85,91,888,1456,1495,1238,1472,1675,1571,1874,2138
544979,208888,198312,222352,222352,603,636,71,194,-106,292,508,-5130,83,97,890,1456,1495,1238,1472,1675,1571,1874,2138
545980,209312,198740,222820,222820,604,837,49,200,-110,48,385,-4341,93,87,890,1456,1495,1238,1472,1675,1571,1874,2138
546981,209772,199216,223288,223288,379,537,44,89,-77,155,-11,-4796,91,99,884,1456,1495,1238,1472,1675,1571,1874,2138
547982,210232,199724,223756,223756,380,336,-2,79,-16,793,-503,-4205,95,103,894,1456,1495,1238,1472,1675,1571,1874,2138
548983,210680,200180,224224,224224,455,662,0,54,41,43,-125,-4435,83,99,898,1456,1495,1238,1472,1675,1571,1874,2138
549984,211104,200656,224692,224692,606,536,22,0,49,-394,138,-4267,91,86,893,1456,1495,1238,1472,1675,1571,1874,2138
550985,211532,201164,225160,225160,582,335,85,27,44,525,-518,-4704,88,105,893,1456,1495,1238,1472,1675,1571,1874,2138
551986,211988,201668,225628,225628,408,359,28,54,90,597,-540,-3917,84,109,895,1456,1495,1238,1472,1675,1571,1874,2138
552987,212460,202212,226096,226096,307,108,-13,1,102,189,54,-4115,95,96,898,1456,1495,1238,1472,1675,1571,1874,2138
553988,212936,202728,226564,226564,282,281,-47,25,80,240,-868,-4500,83,93,902,1456,1495,1238,1472,1675,1571,1874,2138
554989,213412,203220,227032,227032,282,431,-31,24,107,500,-918,-4211,98,108,902,1456,1495,1238,1472,1675,1571,1874,2138
555990,213928,203928,227500,227500,31,-925,-49,14,122,451,-1165,-3872,101,102,899,1456,1495,1238,1472,1675,1571,1874,2138
556991,214412,204400,227968,227968,230,550,-39,24,41,-19,-676,-3754,100,93,886,1456,1495,1238,1472,1675,1571,1874,2138
557992,214856,204800,228436,228436,481,1002,2,-16,7,-33,-750,-3846,84,94,895,1456,1495,1238,1472,1675,1571,1874,2138
558993,215304,205376,228904,228904,457,-101,16,35,-52,486,-459,-3821,79,79,887,1456,1495,1238,1472,1675,1571,1874,2138
559994,215792,205896,229376,229376,206,248,-47,-37,-112,92,-856,-3374,95,86,899,1456,1495,1238,1472,1675,1571,1874,2138
560995,216248,206496,229844,229844,406,-255,-78,-48,-138,224,-85,-3540,89,88,902,1456,1495,1238,1472,1675,1571,1874,2138
561996,216668,206980,230312,230312,633,469,-99,-117,-111,474,-418,-3992,94,101,899,1456,1495,1238,1472,1675,1571,1874,2138
562997,217152,207512,230780,230780,232,168,-131,-28,-150,61,-305,-3217,90,88,895,1456,1495,1238,1472,1675,1571,1874,2138
563998,217620,207972,231248,231248,332,618,-129,11,-246,-511,-117,-3641,99,90,898,1456,1495,1238,1472,1675,1571,1874,2138
564999,218096,208508,231716,231716,282,141,-142,88,-330,77,-722,-3125,102,92,897,1456,1495,1238,1472,1675,1571,1874,2138
566000,218588,209040,232184,232184,181,165,-107,126,-330,256,-649,-3597,98,90,902,1456,1495,1238,1472,1675,1571,1874,2138
567001,219072,209584,232652,232652,231,88,-77,99,-285,96,-209,-3484,110,88,904,1456,1495,1238,1472,1675,1571,1874,2138
568002,219592,210128,233120,233120,5,86,-56,1,-238,-490,48,-3709,105,97,904,1456,1495,1238,1472,1675,1571,1874,2138
569003,220096,210580,233588,233588,104,661,-41,-144,-241,-467,612,-3780,105,102,906,1456,1495,1238,1472,1675,1571,1874,2138
570004,220576,211124,234056,234056,254,84,-27,-200,-233,-171,593,-3582,101,100,899,1456,1495,1238,1472,1675,1571,1874,2138
571005,221052,211604,234524,234524,278,484,-51,-236,-134,-139,208,-4031,107,98,903,1456,1495,1238,1472,1675,1571,1874,2138
572006,221560,212056,234992,234992,77,659,-81,-148,-48,-209,651,-3506,117,91,900,1456,1495,1238,1472,1675,1571,1874,2138
573007,222132,212608,235460,235460,-325,32,-85,-106,-29,-334,311,-4332,114,105,898,1456,1495,1238,1472,1675,1571,1874,2138
574008,222584,213064,235928,235928,425,633,-49,-84,-37,-216,675,-3737,104,102,901,1456,1495,1238,1472,1675,1571,1874,2138
575009,223040,213640,236396,236396,401,-120,-8,-117,-2,-152,584,-4336,106,103,895,1456,1495,1238,1472,1675,1571,1874,2138
576010,223528,214124,236864,236864,200,455,46,-246,61,57,1024,-4506,117,88,900,1456,1495,1238,1472,1675,1571,1874,2138
577011,224020,214668,237332,237332,175,78,21,-321,100,-37,1050,-4422,117,93,900,1456,1495,1238,1472,1675,1571,1874,2138
578012,224576,215172,237800,237800,-228,327,-15,-354,110,-541,1595,-4670,98,88,904,1456,1495,1238,1472,1675,1571,1874,2138
579013,225100,215748,238268,238268,-29,-126,-17,-339,122,-20,1094,-5280,101,96,901,1456,1495,1238,1472,1675,1571,1874,2138
580014,225608,216296,238736,238736,70,47,-24,-293,134,413,982,-5045,104,101,904,1456,1495,1238,1472,1675,1571,1874,2138
581015,226112,216720,239204,239204,94,823,-60,-216,142,-118,903,-4985,117,100,902,1456,1495,1238,1472,1675,1571,1874,2138
582016,226636,217232,239672,239672,-32,272,-26,-270,146,-393,525,-5339,107,91,896,1456,1495,1238,1472,1675,1571,1874,2138
583017,227168,217704,240140,240140,-84,522,-2,-225,87,568,1590,-4495,91,85,902,1456,1495,1238,1472,1675,1571,1874,2138
584018,227712,218252,240608,240608,-161,45,56,-265,-16,588,1381,-4715,109,88,900,1456,1495,1238,1472,1675,1571,1874,2138
585019,228152,218656,241076,241076,490,947,156,-390,-92,300,1463,-5775,114,104,904,1456,1495,1238,1472,1675,1571,1874,2138
586020,228600,219156,241544,241544,441,346,236,-376,-101,298,-99,-4757,98,100,890,1456,1495,1238,1472,1675,1571,1874,2138
587021,229060,219712,242012,242012,366,-6,202,-295,-40,776,-723,-4293,86,94,896,1456,1495,1238,1472,1675,1571,1874,2138
588022,229544,220212,242480,242480,215,343,205,-28,33,665,-1040,-4693,90,85,902,1456,1495,1238,1472,1675,1571,1874,2138
589023,230060,220696,242948,242948,14,443,230,111,44,689,-788,-5193,95,85,902,1456,1495,1238,1472,1675,1571,1874,2138
590024,230520,221124,243416,243416,364,794,361,272,-24,314,-20,-4175,99,89,902,1456,1495,1238,1472,1675,1571,1874,2138
591025,230948,221576,243884,243884,565,644,396,163,-50,-167,-226,-5263,95,82,893,1456,1495,1238,1472,1675,1571,1874,2138
592026,231404,222088,244352,244352,391,268,404,-68,-10,-374,-327,-5273,86,88,891,1456,1495,1238,1472,1675,1571,1874,2138
593027,231848,222548,244820,244820,466,593,421,-164,-12,-448,-310,-5226,105,83,899,1456,1495,1238,1472,1675,1571,1874,2138
594028,232352,223052,245288,245288,90,317,432,-156,-43,-434,-210,-5079,90,103,895,1456,1495,1238,1472,1675,1571,1874,2138
595029,232796,223480,245760,245760,466,793,441,-83,-86,152,908,-4548,89,90,901,1456,1495,1238,1472,1675,1571,1874,2138
596030,233228,223916,246228,246228,542,744,378,-203,-119,-125,490,-5033,90,82,893,1456,1495,1238,1472,1675,1571,1874,2138
597031,233600,224452,246696,246696,919,118,261,-283,-86,-988,-662,-5298,80,94,891,1456,1495,1238,1472,1675,1571,1874,2138
598032,234052,224896,247164,247164,420,693,197,-286,-66,-354,-402,-5068,97,91,889,1456,1495,1238,1472,1675,1571,1874,2138
599033,234492,225380,247632,247632,495,443,184,-158,-54,195,-354,-4186,90,106,893,1456,1495,1238,1472,1675,1571,1874,2138
601035,235428,226220,248568,248568,520,995,5,-181,-20,-560,-205,-3836,89,92,895,1456,1495,1238,1472,1675,1571,1874,2138
602036,235836,226728,249036,249036,697,294,-44,-285,-9,-185,-17,-4693,105,87,888,1456,1495,1238,1472,1675,1571,1874,2138
603037,236264,227236,249504,249504,573,293,-36,-364,16,-75,12,-4522,107,92,894,1456,1495,1238,1472,1675,1571,1874,2138
604038,236720,227652,249972,249972,398,869,-55,-304,2,86,-582,-3581,96,104,897,1456,1495,1238,1472,1675,1571,1874,2138
605039,237200,228136,250440,250440,248,444,-64,-219,-29,112,-223,-3637,97,103,891,1456,1495,1238,1472,1675,1571,1874,2138
606040,237648,228580,250908,250908,448,695,-77,-156,4,206,-193,-3548,99,98,898,1456,1495,1238,1472,1675,1571,1874,2138
607041,238096,229100,251376,251376,449,218,-149,-116,79,390,-1390,-3255,100,101,895,1456,1495,1238,1472,1675,1571,1874,2138
608042,238556,229536,251844,251844,374,744,-160,-48,122,-497,-541,-3854,102,97,899,1456,1495,1238,1472,1675,1571,1874,2138
609043,238992,229964,252312,252312,525,795,-96,-83,70,-172,-219,-3419,85,96,893,1456,1495,1238,1472,1675,1571,1874,2138
610044,239484,230408,252780,252780,174,696,-82,-84,70,329,-492,-2729,83,94,890,1456,1495,1238,1472,1675,1571,1874,2138
611045,239924,230924,253248,253248,500,245,-47,-96,74,471,-89,-3063,104,104,895,1456,1495,1238,1472,1675,1571,1874,2138
612046,240332,231412,253716,253716,701,419,-60,-189,91,-243,131,-2714,98,98,898,1456,1495,1238,1472,1675,1571,1874,2138
613047,240756,231896,254184,254184,602,444,-97,-220,79,-227,-8,-3201,86,105,894,1456,1495,1238,1472,1675,1571,1874,2138
614048,241212,232364,254652,254652,403,544,-110,-215,30,-99,-20,-3279,81,103,894,1456,1495,1238,1472,1675,1571,1874,2138
615049,241672,232840,255120,255120,378,493,-69,-226,9,-236,72,-3262,81,111,892,1456,1495,1238,1472,1675,1571,1874,2138
616050,242096,233368,255588,255588,604,167,-82,-211,6,100,251,-2788,96,106,896,1456,1495,1238,1472,1675,1571,1874,2138
617051,242504,233896,256056,256056,705,166,-112,-244,4,50,59,-3177,89,110,897,1456,1495,1238,1472,1675,1571,1874,2138
618052,242952,234404,256524,256524,456,290,-118,-251,0,-182,-360,-3596,80,120,896,1456,1495,1238,1472,1675,1571,1874,2138
619053,243364,234872,256992,256992,682,540,-70,-234,-6,-207,-155,-3551,90,108,898,1456,1495,1238,1472,1675,1571,1874,2138
620054,243796,235472,257460,257460,558,-289,-37,-251,-31,82,792,-3055,82,101,894,1456,1495,1238,1472,1675,1571,1874,2138
621055,244236,235980,257928,257928,509,285,-62,-235,-43,590,463,-3423,80,109,895,1456,1495,1238,1472,1675,1571,1874,2138
622056,244628,236496,258396,258396,811,234,-51,-286,-31,347,365,-3916,81,103,897,1456,1495,1238,1472,1675,1571,1874,2138
623057,245032,237000,258864,258864,737,308,-54,-281,-23,221,852,-4211,77,106,894,1456,1495,1238,1472,1675,1571,1874,2138
624058,245456,237504,259332,259332,613,307,-52,-231,-11,673,62,-4144,82,106,894,1456,1495,1238,1472,1675,1571,1874,2138
625059,245896,238072,259800,259800,514,-95,-52,-178,-7,512,475,-5069,82,95,895,1456,1495,1238,1472,1675,1571,1874,2138
626060,246272,238592,260268,260268,916,204,-70,-98,-20,215,674,-4619,82,95,899,1456,1495,1238,1472,1675,1571,1874,2138
627061,246680,239084,260736,260736,718,378,-78,-97,-44,127,293,-5254,76,94,894,1456,1495,1238,1472,1675,1571,1874,2138
628062,247092,239652,261204,261204,694,-99,-97,-57,-34,-117,242,-5469,78,103,893,1456,1495,1238,1472,1675,1571,1874,2138
629063,247476,240236,261672,261672,871,-202,-100,-33,-27,172,415,-4886,88,100,895,1456,1495,1238,1472,1675,1571,1874,2138
630064,247896,240776,262144,262144,647,71,-65,7,-8,426,515,-5571,90,97,893,1456,1495,1238,1472,1675,1571,1874,2138
631065,248332,241268,262612,262612,548,371,-23,31,-7,15,447,-5365,93,99,896,1456,1495,1238,1472,1675,1571,1874,2138
632066,248732,241728,263080,263080,775,571,4,43,-9,31,802,-5342,93,92,893,1456,1495,1238,1472,1675,1571,1874,2138
633067,249120,242260,263548,263548,852,119,41,40,39,245,170,-6023,75,92,890,1456,1495,1238,1472,1675,1571,1874,2138
634068,249496,242816,264016,264016,929,-33,88,73,52,288,439,-5753,90,106,892,1456,1495,1238,1472,1675,1571,1874,2138
635069,249880,243360,264484,264484,881,40,78,139,76,-301,-192,-5227,80,95,892,1456,1495,1238,1472,1675,1571,1874,2138
636070,250320,243848,264952,264952,532,390,98,247,55,-136,679,-5429,97,82,894,1456,1495,1238,1472,1675,1571,1874,2138
637071,250700,244328,265420,265420,909,439,161,171,-25,-221,604,-5554,91,93,895,1456,1495,1238,1472,1675,1571,1874,2138
638072,251104,244856,265888,265888,760,138,173,187,-52,-736,-494,-5080,78,86,891,1456,1495,1238,1472,1675,1571,1874,2138
639073,251504,245336,266356,266356,787,438,184,215,-20,-1048,-448,-5101,89,91,893,1456,1495,1238,1472,1675,1571,1874,2138
640074,251948,245804,266824,266824,513,513,240,112,-52,-1053,673,-5198,99,80,892,1456,1495,1238,1472,1675,1571,1874,2138
641075,252416,246288,267292,267292,363,412,302,-6,-134,-879,18,-4653,100,74,894,1456,1495,1238,1472,1675,1571,1874,2138
642076,252840,246712,267760,267760,639,788,303,-99,-183,-1115,-3,-5254,87,95,897,1456,1495,1238,1472,1675,1571,1874,2138
643077,253244,247192,268228,268228,765,438,311,-190,-169,-1220,368,-4664,82,85,891,1456,1495,1238,1472,1675,1571,1874,2138
644078,253676,247656,268696,268696,591,538,289,-176,-144,-300,-44,-4923,86,78,890,1456,1495,1238,1472,1675,1571,1874,2138
645079,254136,248064,269164,269164,416,890,272,-123,-130,-159,-10,-4380,98,92,893,1456,1495,1238,1472,1675,1571,1874,2138
646080,254584,248548,269632,269632,492,414,241,-91,-160,-473,242,-4308,87,79,890,1456,1495,1238,1472,1675,1571,1874,2138
647081,255080,248988,270100,270100,191,690,181,-64,-143,-234,-240,-4347,88,97,894,1456,1495,1238,1472,1675,1571,1874,2138
648082,255536,249464,270568,270568,441,465,150,-20,-79,92,-301,-3656,93,83,896,1456,1495,1238,1472,1675,1571,1874,2138
649083,256012,249896,271036,271036,316,741,105,19,-17,158,86,-4344,100,88,892,1456,1495,1238,1472,1675,1571,1874,2138
650084,256460,250320,271504,271504,492,792,98,72,0,533,425,-3470,96,82,894,1456,1495,1238,1472,1675,1571,1874,2138
651085,256932,250792,271972,271972,342,492,22,104,37,412,-304,-3920,92,90,891,1456,1495,1238,1472,1675,1571,1874,2138
652086,257472,251244,272440,272440,-85,617,-48,133,78,469,107,-4162,99,88,895,1456,1495,1238,1472,1675,1571,1874,2138
653087,257984,251712,272908,272908,89,517,-148,169,133,586,-104,-3715,110,85,897,1456,1495,1238,1472,1675,1571,1874,2138
654088,258428,252132,273376,273376,514,818,-209,240,163,782,-302,-3347,110,92,898,1456,1495,1238,1472,1675,1571,1874,2138
655089,258916,252600,273844,273844,239,518,-205,303,174,372,-642,-3519,103,92,892,1456,1495,1238,1472,1675,1571,1874,2138
656090,259388,253036,274312,274312,339,719,-194,450,188,492,-785,-2289,105,101,895,1456,1495,1238,1472,1675,1571,1874,2138
657091,259948,253584,274780,274780,-213,17,-125,345,245,-81,-797,-3011,104,86,895,1456,1495,1238,1472,1675,1571,1874,2138
658092,260452,253960,275248,275248,136,1094,-131,344,234,360,359,-2339,102,81,900,1456,1495,1238,1472,1675,1571,1874,2138
659093,260940,254396,275716,275716,235,720,-109,128,234,-18,-115,-3769,93,84,892,1456,1495,1238,1472,1675,1571,1874,2138
660094,261412,254816,276184,276184,335,821,-141,178,203,59,-62,-4047,98,91,892,1456,1495,1238,1472,1675,1571,1874,2138
661095,261860,255304,276652,276652,486,396,-120,63,183,-518,-557,-3814,90,89,893,1456,1495,1238,1472,1675,1571,1874,2138
662096,262376,255752,277120,277120,59,646,-156,108,134,-76,-162,-2835,100,97,895,1456,1495,1238,1472,1675,1571,1874,2138
663097,262812,256168,277588,277588,560,847,-149,143,113,-63,-146,-2761,98,89,897,1456,1495,1238,1472,1675,1571,1874,2138
664098,263344,256600,278056,278056,-41,748,-142,182,92,-26,-696,-2638,102,86,890,1456,1495,1238,1472,1675,1571,1874,2138
665099,263804,257024,278528,278528,409,800,-125,257,45,75,-109,-2522,105,93,893,1456,1495,1238,1472,1675,1571,1874,2138
666100,264244,257484,278996,278996,535,575,-60,116,16,-99,-136,-3630,113,82,890,1456,1495,1238,1472,1675,1571,1874,2138
667101,264736,257888,279464,279464,209,926,-85,98,-22,267,324,-3473,112,89,891,1456,1495,1238,1472,1675,1571,1874,2138
668102,265160,258292,279932,279932,635,928,-71,36,-86,169,423,-3689,107,84,892,1456,1495,1238,1472,1675,1571,1874,2138
669103,265608,258704,280400,280400,486,879,-69,107,-130,70,565,-4259,88,96,886,1456,1495,1238,1472,1675,1571,1874,2138
670104,266056,259156,280868,280868,486,630,-23,131,-167,69,64,-3995,98,98,886,1456,1495,1238,1472,1675,1571,1874,2138
671105,266508,259580,281336,281336,462,806,20,197,-255,25,620,-3475,98,84,890,1456,1495,1238,1472,1675,1571,1874,2138
672106,266964,259984,281804,281804,437,932,69,178,-292,-99,436,-4264,94,86,891,1456,1495,1238,1472,1675,1571,1874,2138
673107,267468,260420,282272,282272,136,733,68,126,-317,372,31,-4821,105,86,888,1456,1495,1238,1472,1675,1571,1874,2138
674108,267888,260832,282740,282740,662,884,66,44,-311,72,44,-5264,94,85,891,1456,1495,1238,1472,1675,1571,1874,2138
675109,268364,261284,283208,283208,312,635,61,-6,-316,74,682,-4434,95,96,891,1456,1495,1238,1472,1675,1571,1874,2138
676110,268772,261728,283676,283676,738,685,72,-95,-320,141,746,-5897,102,97,890,1456,1495,1238,1472,1675,1571,1874,2138
677111,269216,262140,284144,284144,514,887,62,59,-334,529,785,-3776,100,87,890,1456,1495,1238,1472,1675,1571,1874,2138
678112,269716,262560,284612,284612,163,838,-13,252,-281,281,399,-5070,86,92,887,1456,1495,1238,1472,1675,1571,1874,2138
679113,270120,263008,285080,285080,765,663,-70,310,-184,190,192,-5772,91,85,890,1456,1495,1238,1472,1675,1571,1874,2138
680114,270516,263504,285548,285548,816,363,-167,270,-86,-67,16,-6179,89,98,890,1456,1495,1238,1472,1675,1571,1874,2138
681115,270960,263928,286016,286016,517,814,-211,282,-16,-318,228,-5620,86,104,889,1456,1495,1238,1472,1675,1571,1874,2138
682116,271384,264392,286484,286484,643,564,-177,229,19,-824,264,-5420,94,104,889,1456,1495,1238,1472,1675,1571,1874,2138
683117,271832,264868,286952,286952,494,489,-166,131,94,-398,-173,-5239,86,102,886,1456,1495,1238,1472,1675,1571,1874,2138
684118,272272,265376,287420,287420,544,288,-163,36,203,-306,125,-5224,89,92,892,1456,1495,1238,1472,1675,1571,1874,2138
685119,272716,265828,287888,287888,520,638,-78,-13,294,-261,272,-5998,83,88,896,1456,1495,1238,1472,1675,1571,1874,2138
686120,273152,266340,288356,288356,571,262,-9,35,334,-148,226,-5160,86,105,895,1456,1495,1238,1472,1675,1571,1874,2138
687121,273540,266828,288824,288824,873,412,4,49,341,-180,-157,-5551,93,103,894,1456,1495,1238,1472,1675,1571,1874,2138
688122,274016,267288,289292,289292,322,587,5,41,329,-535,142,-5129,88,98,893,1456,1495,1238,1472,1675,1571,1874,2138
689123,274440,267936,289760,289760,649,-593,48,-48,309,-33,-229,-5660,86,91,893,1456,1495,1238,1472,1675,1571,1874,2138
690124,274856,268392,290228,290228,700,608,46,-33,249,545,-260,-4808,91,93,891,1456,1495,1238,1472,1675,1571,1874,2138
691125,275308,268908,290696,290696,475,231,114,-152,249,203,313,-5615,89,91,888,1456,1495,1238,1472,1675,1571,1874,2138
692126,275768,269444,291164,291164,425,105,53,-98,197,1148,-589,-3946,98,98,893,1456,1495,1238,1472,1675,1571,1874,2138
693127,276232,270008,291632,291632,400,-73,55,-94,109,-178,-43,-4935,91,100,900,1456,1495,1238,1472,1675,1571,1874,2138
694128,276688,270588,292100,292100,451,-175,105,-119,31,8,585,-4772,105,91,901,1456,1495,1238,1472,1675,1571,1874,2138
695129,277148,271112,292568,292568,426,173,100,-83,-16,1335,-277,-4261,84,97,901,1456,1495,1238,1472,1675,1571,1874,2138
696130,277568,271604,293036,293036,677,373,43,-78,-114,639,972,-4315,97,87,900,1456,1495,1238,1472,1675,1571,1874,2138
697131,278024,272116,293504,293504,452,247,-32,-84,-200,-90,83,-3952,89,98,897,1456,1495,1238,1472,1675,1571,1874,2138
698132,278508,272648,293972,293972,277,120,-51,-79,-298,531,95,-4345,99,93,897,1456,1495,1238,1472,1675,1571,1874,2138
699133,278988,273156,294440,294440,302,269,-99,-14,-288,803,-307,-3844,92,102,901,1456,1495,1238,1472,1675,1571,1874,2138
700134,279496,273692,294912,294912,126,93,-134,0,-290,703,-114,-3433,100,98,899,1456,1495,1238,1472,1675,1571,1874,2138
701135,280008,274176,295380,295380,100,417,-170,50,-364,189,-35,-3313,95,91,902,1456,1495,1238,1472,1675,1571,1874,2138
702136,280476,274704,295848,295848,375,141,-154,75,-386,186,-529,-3650,105,93,903,1456,1495,1238,1472,1675,1571,1874,2138
704138,281456,275768,296784,296784,249,188,-136,49,-327,243,222,-3032,93,94,903,1456,1495,1238,1472,1675,1571,1874,2138
705139,281900,276280,297252,297252,524,237,-147,-5,-298,-284,143,-3003,98,90,904,1456,1495,1238,1472,1675,1571,1874,2138
706140,282348,276776,297720,297720,500,336,-132,-57,-251,184,74,-3027,101,96,901,1456,1495,1238,1472,1675,1571,1874,2138
707141,282776,277300,298188,298188,626,159,-81,-30,-182,-39,-135,-2977,96,83,899,1456,1495,1238,1472,1675,1571,1874,2138
708142,283256,277712,298656,298656,300,861,-41,34,-134,-325,-43,-2690,100,100,899,1456,1495,1238,1472,1675,1571,1874,2138
709143,283772,278156,299124,299124,74,661,-19,60,-113,-220,-255,-2251,111,89,895,1456,1495,1238,1472,1675,1571,1874,2138
710144,284280,278588,299592,299592,123,737,54,54,-88,60,-96,-3008,110,100,894,1456,1495,1238,1472,1675,1571,1874,2138
711145,284748,279108,300060,300060,373,186,154,9,-32,-63,202,-2575,117,91,896,1456,1495,1238,1472,1675,1571,1874,2138
712146,285240,279656,300528,300528,223,9,197,-82,27,-334,419,-3089,108,98,898,1456,1495,1238,1472,1675,1571,1874,2138
713147,285732,280164,300996,300996,222,258,225,-152,54,-261,983,-2923,103,109,903,1456,1495,1238,1472,1675,1571,1874,2138
714148,286240,280648,301464,301464,121,408,201,-144,102,104,461,-3455,99,88,904,1456,1495,1238,1472,1675,1571,1874,2138
715149,286776,281160,301932,301932,-55,232,163,-195,178,101,478,-3490,114,96,903,1456,1495,1238,1472,1675,1571,1874,2138
716150,287268,281752,302400,302400,219,-271,103,-151,231,57,661,-3398,104,98,902,1456,1495,1238,1472,1675,1571,1874,2138
717151,287732,282192,302868,302868,394,679,72,-79,232,31,716,-3734,109,93,899,1456,1495,1238,1472,1675,1571,1874,2138
718152,288220,282680,303336,303336,244,379,54,-52,186,-195,868,-4008,110,86,899,1456,1495,1238,1472,1675,1571,1874,2138
719153,288712,283188,303804,303804,218,253,34,-119,128,-387,898,-4070,114,100,895,1456,1495,1238,1472,1675,1571,1874,2138
720154,289288,283688,304272,304272,-310,302,36,-233,117,-358,849,-4572,105,86,900,1456,1495,1238,1472,1675,1571,1874,2138
721155,289828,284216,304740,304740,-86,126,9,-323,108,-141,869,-4563,114,87,902,1456,1495,1238,1472,1675,1571,1874,2138
722156,290344,284636,305208,305208,62,802,16,-338,27,-144,918,-4694,102,91,899,1456,1495,1238,1472,1675,1571,1874,2138
723157,290864,285116,305676,305676,36,426,1,-232,-60,-113,380,-4942,112,96,904,1456,1495,1238,1472,1675,1571,1874,2138
724158,291328,285628,306144,306144,386,225,34,-189,-95,36,118,-5357,102,97,894,1456,1495,1238,1472,1675,1571,1874,2138
725159,291920,286100,306612,306612,-417,475,52,-179,-162,31,-91,-5203,109,91,902,1456,1495,1238,1472,1675,1571,1874,2138
726160,292448,286656,307080,307080,-18,-52,96,-115,-223,43,-40,-5138,102,83,901,1456,1495,1238,1472,1675,1571,1874,2138
727161,292916,287008,307548,307548,357,1226,167,-151,-324,478,936,-5174,109,81,894,1456,1495,1238,1472,1675,1571,1874,2138
728162,293400,287484,308016,308016,256,451,272,-308,-427,89,316,-6277,100,77,907,1456,1495,1238,1472,1675,1571,1874,2138
729163,293840,287900,308484,308484,532,827,364,-469,-459,-288,561,-5576,103,89,881,1456,1495,1238,1472,1675,1571,1874,2138
730164,294364,288412,308952,308952,6,226,366,-368,-422,256,-1190,-5044,87,98,899,1456,1495,1238,1472,1675,1571,1874,2138
731165,294824,288856,309420,309420,406,652,332,-194,-303,247,-1407,-5701,110,84,889,1456,1495,1238,1472,1675,1571,1874,2138
732166,295300,289272,309888,309888,306,828,289,-14,-177,378,-1256,-5538,109,93,904,1456,1495,1238,1472,1675,1571,1874,2138
733167,295788,289816,310356,310356,230,26,363,51,-79,-49,-964,-6402,101,85,894,1456,1495,1238,1472,1675,1571,1874,2138
734168,296260,290260,310824,310824,330,652,337,157,-58,161,-228,-4478,88,106,887,1456,1495,1238,1472,1675,1571,1874,2138
735169,296692,290764,311296,311296,581,276,309,91,1,-358,-1021,-6527,87,101,903,1456,1495,1238,1472,1675,1571,1874,2138
736170,297176,291172,311764,311764,256,877,287,-39,82,-155,-8,-5452,92,95,895,1456,1495,1238,1472,1675,1571,1874,2138
737171,297608,291612,312232,312232,582,678,264,-176,193,-317,-280,-6196,92,93,897,1456,1495,1238,1472,1675,1571,1874,2138
738172,298132,292116,312700,312700,5,277,216,-88,225,204,697,-4793,87,93,891,1456,1495,1238,1472,1675,1571,1874,2138
739173,298572,292584,313168,313168,531,502,135,-163,202,40,530,-5730,99,108,891,1456,1495,1238,1472,1675,1571,1874,2138
740174,298944,293008,313636,313636,958,778,56,-209,223,-555,-421,-5836,98,103,904,1456,1495,1238,1472,1675,1571,1874,2138
741175,299408,293472,314104,314104,383,528,-1,-274,284,-1280,-419,-5492,91,87,895,1456,1495,1238,1472,1675,1571,1874,2138
742176,299836,293928,314572,314572,609,579,-21,-245,302,233,18,-4796,104,103,882,1456,1495,1238,1472,1675,1571,1874,2138
743177,300292,294416,315040,315040,435,378,-112,-131,314,584,-579,-4172,102,102,897,1456,1495,1238,1472,1675,1571,1874,2138
744178,300736,294892,315508,315508,510,453,-235,-117,307,-752,170,-4184,102,100,891,1456,1495,1238,1472,1675,1571,1874,2138
745179,301188,295340,315976,315976,461,628,-235,-203,256,-479,314,-4909,92,98,898,1456,1495,1238,1472,1675,1571,1874,2138
746180,301652,295820,316444,316444,386,428,-205,-298,200,159,255,-3963,89,108,895,1456,1495,1238,1472,1675,1571,1874,2138
747181,302080,296268,316912,316912,612,629,-148,-432,163,61,2,-4204,93,102,894,1456,1495,1238,1472,1675,1571,1874,2138
748182,302548,296756,317380,317380,362,378,-143,-439,125,-272,59,-2997,97,108,898,1456,1495,1238,1472,1675,1571,1874,2138
749183,302984,297224,317848,317848,562,503,-102,-416,67,-111,-254,-3176,93,103,891,1456,1495,1238,1472,1675,1571,1874,2138
750184,303424,297684,318316,318316,538,553,-4,-321,41,176,-114,-2434,102,106,899,1456,1495,1238,1472,1675,1571,1874,2138
751185,303932,298140,318784,318784,112,579,92,-264,5,221,256,-2230,106,112,891,1456,1495,1238,1472,1675,1571,1874,2138
752186,304396,298648,319252,319252,387,253,79,-333,-56,472,433,-2604,102,104,891,1456,1495,1238,1472,1675,1571,1874,2138
753187,304848,299156,319720,319720,463,252,75,-343,-88,614,97,-3246,94,106,898,1456,1495,1238,1472,1675,1571,1874,2138
754188,305312,299640,320188,320188,388,401,69,-335,-117,733,424,-3266,90,108,900,1456,1495,1238,1472,1675,1571,1874,2138
755189,305740,300144,320656,320656,614,275,95,-322,-174,455,633,-3280,94,110,900,1456,1495,1238,1472,1675,1571,1874,2138
756190,306164,300636,321124,321124,640,350,109,-271,-242,317,912,-2278,95,111,898,1456,1495,1238,1472,1675,1571,1874,2138
757191,306668,301212,321592,321592,139,-178,42,-109,-253,719,244,-1767,84,98,897,1456,1495,1238,1472,1675,1571,1874,2138
758192,307096,301736,322060,322060,615,146,37,-28,-223,513,435,-2797,104,106,895,1456,1495,1238,1472,1675,1571,1874,2138
759193,307544,302296,322528,322528,490,-82,0,78,-213,787,582,-2217,102,94,903,1456,1495,1238,1472,1675,1571,1874,2138
760194,307972,302780,322996,322996,616,393,-12,3,-209,489,217,-4040,91,93,898,1456,1495,1238,1472,1675,1571,1874,2138
761195,308392,303320,323464,323464,667,41,26,61,-188,360,134,-2870,94,105,900,1456,1495,1238,1472,1675,1571,1874,2138
762196,308872,303836,323932,323932,292,190,39,149,-119,186,105,-3368,89,106,894,1456,1495,1238,1472,1675,1571,1874,2138
763197,309288,304336,324400,324400,693,289,53,260,-56,181,69,-3203,92,99,898,1456,1495,1238,1472,1675,1571,1874,2138
764198,309712,304872,324868,324868,645,63,74,252,-61,-147,692,-3670,81,93,903,1456,1495,1238,1472,1675,1571,1874,2138
765199,310128,305376,325336,325336,696,262,88,212,-34,-434,396,-3778,78,89,895,1456,1495,1238,1472,1675,1571,1874,2138
766200,310524,305944,325804,325804,823,-141,60,225,8,-443,252,-3821,87,97,897,1456,1495,1238,1472,1675,1571,1874,2138
767201,310992,306464,326272,326272,373,158,85,62,71,-678,85,-4114,79,89,895,1456,1495,1238,1472,1675,1571,1874,2138
768202,311396,306968,326740,326740,774,257,16,41,111,-676,-387,-4107,80,97,889,1456,1495,1238,1472,1675,1571,1874,2138
769203,311812,307460,327208,327208,700,332,-60,35,117,-39,-31,-4850,84,91,899,1456,1495,1238,1472,1675,1571,1874,2138
770204,312220,307996,327680,327680,752,55,-50,-41,155,-666,-256,-5773,92,94,894,1456,1495,1238,1472,1675,1571,1874,2138
771205,312612,308512,328148,328148,854,179,-21,-108,207,-1188,-970,-5033,91,92,893,1456,1495,1238,1472,1675,1571,1874,2138
772206,313068,309032,328616,328616,454,153,-33,-105,185,-549,-284,-4915,90,81,896,1456,1495,1238,1472,1675,1571,1874,2138
773207,313488,309508,329084,329084,680,427,-23,-156,163,-684,-502,-5726,83,91,892,1456,1495,1238,1472,1675,1571,1874,2138
774208,313896,310000,329552,329552,757,327,26,-222,122,-911,-285,-5446,89,79,901,1456,1495,1238,1472,1675,1571,1874,2138
775209,314268,310540,330020,330020,984,25,58,-234,60,-616,-416,-5444,90,86,894,1456,1495,1238,1472,1675,1571,1874,2138
776210,314664,310968,330488,330488,836,726,95,-289,21,-487,-587,-5902,88,92,892,1456,1495,1238,1472,1675,1571,1874,2138
777211,315044,311444,330956,330956,938,426,88,-337,-5,-544,-134,-5519,76,82,891,1456,1495,1238,1472,1675,1571,1874,2138
778212,315472,311944,331424,331424,639,275,80,-261,-2,-124,-1107,-5446,85,89,884,1456,1495,1238,1472,1675,1571,1874,2138
779213,315876,312344,331892,331892,791,902,65,-191,-54,227,-285,-5704,83,91,888,1456,1495,1238,1472,1675,1571,1874,2138
780214,316256,312840,332360,332360,943,301,100,-221,-201,256,588,-5304,94,86,896,1456,1495,1238,1472,1675,1571,1874,2138
781215,316668,313272,332828,332828,744,702,85,-143,-256,550,-809,-5467,80,90,881,1456,1495,1238,1472,1675,1571,1874,2138
782216,317080,313704,333296,333296,745,703,44,-31,-223,464,-655,-5258,94,90,889,1456,1495,1238,1472,1675,1571,1874,2138
783217,317560,314160,333764,333764,320,553,32,7,-247,523,977,-4960,91,88,886,1456,1495,1238,1472,1675,1571,1874,2138
784218,317956,314664,334232,334232,847,252,35,33,-313,914,714,-5071,91,95,888,1456,1495,1238,1472,1675,1571,1874,2138
785219,318416,315072,334700,334700,447,854,-31,15,-313,439,337,-5193,98,94,892,1456,1495,1238,1472,1675,1571,1874,2138
786220,318840,315516,335168,335168,673,629,-62,111,-261,122,532,-5012,91,76,889,1456,1495,1238,1472,1675,1571,1874,2138
787221,319268,315936,335636,335636,649,780,-104,127,-194,522,737,-5774,84,75,888,1456,1495,1238,1472,1675,1571,1874,2138
788222,319748,316364,336104,336104,324,731,-142,229,-122,716,159,-4128,97,81,890,1456,1495,1238,1472,1675,1571,1874,2138
789223,320216,316832,336572,336572,399,481,-135,272,-70,311,418,-5217,89,82,888,1456,1495,1238,1472,1675,1571,1874,2138
790224,320676,317260,337040,337040,449,732,-156,329,-8,-12,358,-4104,92,81,893,1456,1495,1238,1472,1675,1571,1874,2138
791225,321156,317708,337508,337508,324,608,-118,336,85,86,-99,-3994,101,84,896,1456,1495,1238,1472,1675,1571,1874,2138
792226,321668,318152,337976,337976,123,633,-132,391,151,20,947,-4247,97,87,891,1456,1495,1238,1472,1675,1571,1874,2138
793227,322184,318656,338444,338444,96,258,-83,356,217,-143,346,-3844,111,102,895,1456,1495,1238,1472,1675,1571,1874,2138
794228,322664,319084,338912,338912,321,734,-84,281,258,-450,725,-4041,100,98,897,1456,1495,1238,1472,1675,1571,1874,2138
795229,323140,319492,339380,339380,346,860,-66,187,302,-761,205,-4351,88,87,903,1456,1495,1238,1472,1675,1571,1874,2138
796230,323640,319944,339848,339848,195,585,-117,163,331,-428,56,-3792,105,80,893,1456,1495,1238,1472,1675,1571,1874,2138
797231,324140,320348,340316,340316,194,887,-107,176,375,-446,-350,-4032,109,95,890,1456,1495,1238,1472,1675,1571,1874,2138
798232,324596,320812,340784,340784,470,512,-78,177,350,-613,-6,-3252,103,97,898,1456,1495,1238,1472,1675,1571,1874,2138
799233,325112,321256,341252,341252,94,638,-80,196,332,-767,-644,-2487,95,96,892,1456,1495,1238,1472,1675,1571,1874,2138
800234,325588,321692,341720,341720,343,688,-86,137,320,-617,-548,-3369,100,97,895,1456,1495,1238,1472,1675,1571,1874,2138
801235,326092,322120,342188,342188,167,739,-70,17,297,-554,270,-3486,106,87,897,1456,1495,1238,1472,1675,1571,1874,2138
802236,326572,322588,342656,342656,317,489,-65,-70,248,-402,-76,-2882,103,90,890,1456,1495,1238,1472,1675,1571,1874,2138
803237,327084,323024,343124,343124,116,690,-31,-113,168,-325,195,-3023,93,86,891,1456,1495,1238,1472,1675,1571,1874,2138
804238,327616,323404,343592,343592,-10,1042,-66,-72,103,-176,-106,-3110,105,83,897,1456,1495,1238,1472,1675,1571,1874,2138
805239,328100,323824,344064,344064,289,794,-85,-24,60,-16,-584,-2792,100,91,896,1456,1495,1238,1472,1675,1571,1874,2138
806240,328544,324228,344532,344532,540,895,-95,105,10,147,-181,-3545,109,97,889,1456,1495,1238,1472,1675,1571,1874,2138
807241,329020,324664,345000,345000,340,696,-47,151,-66,466,-660,-2967,108,83,893,1456,1495,1238,1472,1675,1571,1874,2138
808242,329524,325092,345468,345468,164,747,-22,216,-155,508,-87,-2912,99,96,887,1456,1495,1238,1472,1675,1571,1874,2138
809243,330032,325500,345936,345936,138,873,-10,215,-214,782,91,-2980,110,99,892,1456,1495,1238,1472,1675,1571,1874,2138
810244,330468,325920,346404,346404,589,800,-17,214,-255,807,107,-3331,107,98,894,1456,1495,1238,1472,1675,1571,1874,2138
811245,330908,326372,346872,346872,564,600,-23,198,-305,627,238,-3406,95,100,893,1456,1495,1238,1472,1675,1571,1874,2138
812246,331400,326788,347340,347340,239,826,-32,208,-368,580,534,-3248,107,86,888,1456,1495,1238,1472,1675,1571,1874,2138
813247,331856,327220,347808,347808,464,727,-35,216,-399,507,380,-3986,109,96,892,1456,1495,1238,1472,1675,1571,1874,2138
814248,332336,327608,348276,348276,314,1004,-46,211,-385,92,-259,-4414,96,82,892,1456,1495,1238,1472,1675,1571,1874,2138
815249,332768,328052,348744,348744,615,655,-67,379,-401,277,10,-3495,91,96,891,1456,1495,1238,1472,1675,1571,1874,2138
816250,333204,328540,349212,349212,590,379,-57,315,-359,-49,-142,-5475,99,106,887,1456,1495,1238,1472,1675,1571,1874,2138
817251,333656,328980,349680,349680,491,680,-92,343,-326,302,363,-3024,96,101,889,1456,1495,1238,1472,1675,1571,1874,2138
818252,334104,329404,350148,350148,516,781,-73,259,-226,99,21,-5320,101,87,895,1456,1495,1238,1472,1675,1571,1874,2138
819253,334544,329856,350616,350616,567,606,-95,186,-123,162,805,-4365,101,99,888,1456,1495,1238,1472,1675,1571,1874,2138
820254,335044,330300,351084,351084,191,657,-119,165,-44,-115,372,-4543,86,93,885,1456,1495,1238,1472,1675,1571,1874,2138
821255,335464,330820,351552,351552,692,181,-92,130,23,-519,469,-5598,84,100,891,1456,1495,1238,1472,1675,1571,1874,2138
822256,335896,331268,352020,352020,618,631,-115,111,67,-528,16,-5190,95,89,896,1456,1495,1238,1472,1675,1571,1874,2138
823257,336328,331760,352488,352488,619,356,-65,108,160,-443,179,-5101,99,99,896,1456,1495,1238,1472,1675,1571,1874,2138
824258,336736,332224,352956,352956,770,531,-56,88,219,-266,475,-5475,97,90,891,1456,1495,1238,1472,1675,1571,1874,2138
825259,337204,332804,353424,353424,395,-197,-25,26,250,-439,219,-4537,90,95,895,1456,1495,1238,1472,1675,1571,1874,2138
826260,337644,333300,353892,353892,571,327,1,-30,286,-134,300,-5683,100,97,888,1456,1495,1238,1472,1675,1571,1874,2138
827261,338056,333796,354360,354360,748,327,65,-36,315,238,825,-5159,90,91,899,1456,1495,1238,1472,1675,1571,1874,2138
828262,338520,334332,354828,354828,423,75,90,-147,324,116,542,-5692,94,97,897,1456,1495,1238,1472,1675,1571,1874,2138
829263,338952,334884,355296,355296,624,-27,85,-81,288,37,569,-5012,98,89,893,1456,1495,1238,1472,1675,1571,1874,2138
830264,339420,335476,355764,355764,399,-280,111,-91,237,-472,572,-5548,90,98,901,1456,1495,1238,1472,1675,1571,1874,2138
831265,339832,336028,356232,356232,750,-32,134,-65,185,345,107,-6075,88,88,899,1456,1495,1238,1472,1675,1571,1874,2138
832266,340272,336452,356700,356700,576,769,158,-30,128,495,346,-5008,103,101,898,1456,1495,1238,1472,1675,1571,1874,2138
833267,340700,337020,357168,357168,652,-134,168,-70,69,256,244,-5489,97,87,897,1456,1495,1238,1472,1675,1571,1874,2138
834268,341156,337556,357636,357636,477,65,117,-61,-10,459,37,-4626,83,90,888,1456,1495,1238,1472,1675,1571,1874,2138
835269,341648,338048,358104,358104,251,339,98,-107,-89,164,133,-4789,87,84,896,1456,1495,1238,1472,1675,1571,1874,2138
836270,342116,338524,358572,358572,401,439,119,-140,-149,104,751,-4992,99,91,896,1456,1495,1238,1472,1675,1571,1874,2138
837271,342552,339072,359040,359040,602,-13,147,-155,-193,638,-193,-4801,98,96,897,1456,1495,1238,1472,1675,1571,1874,2138
838272,342976,339668,359508,359508,678,-316,48,-109,-192,667,391,-4420,81,98,897,1456,1495,1238,1472,1675,1571,1874,2138
839273,343452,340240,359976,359976,353,-169,-23,-94,-237,556,-35,-4412,82,84,899,1456,1495,1238,1472,1675,1571,1874,2138
840274,343896,340736,360448,360448,554,306,-43,-6,-312,442,458,-4529,89,91,892,1456,1495,1238,1472,1675,1571,1874,2138
841275,344408,341236,360916,360916,128,280,-19,38,-322,240,-663,-4713,96,84,901,1456,1495,1238,1472,1675,1571,1874,2138
842276,344908,341668,361384,361384,202,706,-41,29,-273,819,-560,-3708,102,96,897,1456,1495,1238,1472,1675,1571,1874,2138
843277,345428,342188,361852,361852,75,155,-69,-41,-249,607,-114,-3484,91,84,903,1456,1495,1238,1472,1675,1571,1874,2138
844278,345908,342644,362320,362320,325,555,-51,-110,-228,-388,-690,-3325,85,98,895,1456,1495,1238,1472,1675,1571,1874,2138
845279,346368,343088,362788,362788,450,630,10,-78,-229,-190,-55,-3473,92,96,904,1456,1495,1238,1472,1675,1571,1874,2138
846280,346880,343600,363256,363256,124,204,93,-100,-202,452,16,-3189,102,103,897,1456,1495,1238,1472,1675,1571,1874,2138
847281,347344,344060,363724,363724,424,530,112,-100,-167,-8,-14,-3143,104,89,894,1456,1495,1238,1472,1675,1571,1874,2138
849283,348216,345104,364660,364660,776,552,127,-98,-16,506,-485,-3639,104,97,895,1456,1495,1238,1472,1675,1571,1874,2138
850284,348700,345604,365128,365128,301,276,111,-43,57,437,-57,-2972,98,98,898,1456,1495,1238,1472,1675,1571,1874,2138
851285,349208,346104,365596,365596,150,275,129,9,47,-149,165,-2804,103,100,890,1456,1495,1238,1472,1675,1571,1874,2138
852286,349724,346648,366064,366064,98,-1,106,44,18,168,42,-2304,105,98,901,1456,1495,1238,1472,1675,1571,1874,2138
853287,350204,347116,366532,366532,323,474,118,17,72,275,-12,-2901,115,95,899,1456,1495,1238,1472,1675,1571,1874,2138
854288,350692,347572,367000,367000,273,549,97,17,125,-113,324,-3163,105,89,902,1456,1495,1238,1472,1675,1571,1874,2138
855289,351200,348064,367468,367468,147,323,94,-96,120,-550,1098,-3081,112,96,899,1456,1495,1238,1472,1675,1571,1874,2138
856290,351748,348592,367936,367936,-105,97,59,-115,76,-273,646,-3415,112,89,897,1456,1495,1238,1472,1675,1571,1874,2138
857291,352264,349008,368404,368404,94,798,-4,-172,106,163,69,-3833,115,90,902,1456,1495,1238,1472,1675,1571,1874,2138
858292,352752,349548,368872,368872,268,21,-46,-108,162,113,160,-3507,121,100,904,1456,1495,1238,1472,1675,1571,1874,2138
859293,353192,350032,369340,369340,569,371,-66,-141,137,-435,105,-3608,105,93,894,1456,1495,1238,1472,1675,1571,1874,2138
860294,353696,350444,369808,369808,168,822,-77,-63,51,-460,435,-2988,112,94,904,1456,1495,1238,1472,1675,1571,1874,2138
861295,354184,350980,370276,370276,267,46,-44,-81,-29,-317,39,-3979,107,81,896,1456,1495,1238,1472,1675,1571,1874,2138
862296,354768,351468,370744,370744,-335,345,-2,-193,-81,-255,260,-4372,117,93,893,1456,1495,1238,1472,1675,1571,1874,2138
863297,355312,351912,371212,371212,-87,621,32,-284,-90,-297,182,-4299,98,85,904,1456,1495,1238,1472,1675,1571,1874,2138
864298,355852,352396,371680,371680,-64,370,37,-290,-136,-305,453,-4282,107,93,898,1456,1495,1238,1472,1675,1571,1874,2138
865299,356384,352788,372148,372148,-16,947,30,-283,-200,-416,-79,-4987,106,95,897,1456,1495,1238,1472,1675,1571,1874,2138
866300,356848,353332,372616,372616,409,-5,54,-243,-245,-437,-92,-4938,115,86,901,1456,1495,1238,1472,1675,1571,1874,2138
867301,357376,353728,373084,373084,8,922,90,-244,-275,-518,-227,-5576,94,102,892,1456,1495,1238,1472,1675,1571,1874,2138
868302,357896,354196,373552,373552,57,472,126,-252,-289,-681,-566,-5145,101,100,902,1456,1495,1238,1472,1675,1571,1874,2138
869303,358476,354608,374020,374020,-321,823,132,-199,-333,211,1020,-4868,116,84,892,1456,1495,1238,1472,1675,1571,1874,2138
870304,358936,355124,374488,374488,429,172,213,-341,-377,-71,51,-5834,114,88,896,1456,1495,1238,1472,1675,1571,1874,2138
871305,359368,355620,374956,374956,605,297,274,-487,-380,-297,1213,-5820,106,87,885,1456,1495,1238,1472,1675,1571,1874,2138
872306,359892,356040,375424,375424,29,773,265,-452,-324,362,-611,-5206,103,94,900,1456,1495,1238,1472,1675,1571,1874,2138
873307,360364,356440,375892,375892,354,899,207,-253,-214,499,-1081,-5321,96,94,896,1456,1495,1238,1472,1675,1571,1874,2138
874308,360860,356912,376360,376360,203,449,104,-121,-38,411,-1056,-5324,104,91,895,1456,1495,1238,1472,1675,1571,1874,2138
875309,361336,357364,376832,376832,328,575,149,8,134,265,-501,-6112,102,88,890,1456,1495,1238,1472,1675,1571,1874,2138
876310,361800,357852,377300,377300,403,349,108,86,152,498,-496,-4835,104,96,899,1456,1495,1238,1472,1675,1571,1874,2138
877311,362316,358316,377768,377768,77,499,175,46,172,-445,163,-5998,93,92,895,1456,1495,1238,1472,1675,1571,1874,2138
878312,362776,358740,378236,378236,427,750,196,-26,241,89,202,-5550,105,98,899,1456,1495,1238,1472,1675,1571,1874,2138
879313,363208,359212,378704,378704,603,450,178,-29,321,238,49,-5215,88,94,900,1456,1495,1238,1472,1675,1571,1874,2138
880314,363716,359700,379172,379172,127,350,186,-20,378,-445,1312,-5249,93,96,891,1456,1495,1238,1472,1675,1571,1874,2138
881315,364136,360108,379640,379640,678,851,128,-103,339,-97,728,-5241,90,97,894,1456,1495,1238,1472,1675,1571,1874,2138
882316,364560,360596,380108,380108,654,351,127,-275,310,-433,443,-6202,91,89,902,1456,1495,1238,1472,1675,1571,1874,2138
883317,365004,361040,380576,380576,530,626,75,-286,324,-466,-517,-5025,104,92,887,1456,1495,1238,1472,1675,1571,1874,2138
884318,365464,361536,381044,381044,430,301,59,-265,338,-143,234,-4697,104,112,894,1456,1495,1238,1472,1675,1571,1874,2138
885319,365876,362008,381512,381512,731,451,38,-120,252,225,816,-3966,96,101,893,1456,1495,1238,1472,1675,1571,1874,2138
886320,366380,362464,381980,381980,155,551,-12,-223,234,-22,133,-4635,95,91,899,1456,1495,1238,1472,1675,1571,1874,2138
887321,366812,362944,382448,382448,606,401,-68,-265,173,-25,889,-4018,102,106,888,1456,1495,1238,1472,1675,1571,1874,2138
888322,367260,363420,382916,382916,507,425,-33,-427,77,-149,622,-4737,104,116,895,1456,1495,1238,1472,1675,1571,1874,2138
889323,367716,363928,383384,383384,457,225,-5,-455,22,-351,623,-3514,89,111,895,1456,1495,1238,1472,1675,1571,1874,2138
890324,368192,364388,383852,383852,332,525,9,-399,-51,175,518,-3316,90,97,895,1456,1495,1238,1472,1675,1571,1874,2138
891325,368616,364864,384320,384320,658,425,-12,-316,-80,428,236,-3264,95,112,899,1456,1495,1238,1472,1675,1571,1874,2138
892326,369088,365324,384788,384788,358,525,-28,-214,-94,269,-312,-3092,111,108,898,1456,1495,1238,1472,1675,1571,1874,2138
893327,369604,365848,385256,385256,82,123,-16,-246,-114,259,-93,-3803,92,110,894,1456,1495,1238,1472,1675,1571,1874,2138
894328,370060,366340,385724,385724,457,323,28,-187,-139,476,-535,-2768,101,99,897,1456,1495,1238,1472,1675,1571,1874,2138
895329,370520,366864,386192,386192,432,121,76,-122,-190,643,-308,-2936,85,98,905,1456,1495,1238,1472,1675,1571,1874,2138
896330,370968,367400,386660,386660,508,45,44,-95,-244,541,-2,-2283,104,109,899,1456,1495,1238,1472,1675,1571,1874,2138
897331,371400,367904,387128,387128,608,244,61,-88,-256,549,-89,-3017,88,99,901,1456,1495,1238,1472,1675,1571,1874,2138
898332,371864,368480,387596,387596,409,-209,1,-62,-235,916,-275,-2759,86,104,901,1456,1495,1238,1472,1675,1571,1874,2138
899333,372332,368968,388064,388064,384,341,-11,-59,-194,604,-124,-3609,99,92,897,1456,1495,1238,1472,1675,1571,1874,2138
900334,372756,369484,388532,388532,660,165,-10,9,-171,424,-104,-3158,104,94,899,1456,1495,1238,1472,1675,1571,1874,2138
901335,373196,369992,389000,389000,560,214,-53,122,-198,605,-627,-2866,102,89,900,1456,1495,1238,1472,1675,1571,1874,2138
902336,373644,370544,389468,389468,511,-63,-50,153,-193,171,-112,-3549,91,88,897,1456,1495,1238,1472,1675,1571,1874,2138
903337,374064,371088,389936,389936,687,-15,-63,138,-132,-1,-704,-3404,80,89,898,1456,1495,1238,1472,1675,1571,1874,2138
904338,374548,371592,390404,390404,287,234,-40,211,-49,-116,-536,-3116,77,102,896,1456,1495,1238,1472,1675,1571,1874,2138
905339,374964,372088,390872,390872,713,283,-1,164,10,-325,-199,-3957,90,98,894,1456,1495,1238,1472,1675,1571,1874,2138
906340,375404,372572,391340,391340,564,358,36,183,37,-74,-2,-2796,95,96,902,1456,1495,1238,1472,1675,1571,1874,2138
907341,375796,373092,391808,391808,865,131,61,148,91,-232,-304,-4378,78,78,894,1456,1495,1238,1472,1675,1571,1874,2138
908342,376220,373600,392276,392276,666,205,53,99,164,-200,321,-4048,89,98,896,1456,1495,1238,1472,1675,1571,1874,2138
909343,376676,374120,392744,392744,467,129,45,57,213,-531,-484,-4563,89,93,892,1456,1495,1238,1472,1675,1571,1874,2138
910344,377076,374608,393216,393216,819,329,43,22,231,-802,-54,-4632,81,97,896,1456,1495,1238,1472,1675,1571,1874,2138
911345,377468,375108,393684,393684,870,253,20,-4,227,-1203,95,-4660,82,90,900,1456,1495,1238,1472,1675,1571,1874,2138
912346,377892,375628,394152,394152,671,127,50,-85,203,-1078,-109,-4858,79,79,892,1456,1495,1238,1472,1675,1571,1874,2138
913347,378312,376112,394620,394620,698,351,46,-106,193,-1319,-693,-5155,79,93,891,1456,1495,1238,1472,1675,1571,1874,2138
914348,378752,376532,395088,395088,573,753,98,-215,151,-1474,491,-4671,88,76,896,1456,1495,1238,1472,1675,1571,1874,2138
915349,379168,377004,395556,395556,725,427,81,-286,86,-1122,138,-4853,96,84,894,1456,1495,1238,1472,1675,1571,1874,2138
916350,379572,377504,396024,396024,801,252,80,-341,41,-656,86,-5269,89,87,889,1456,1495,1238,1472,1675,1571,1874,2138
917351,379972,377936,396492,396492,828,678,79,-464,-29,-719,665,-5359,91,96,892,1456,1495,1238,1472,1675,1571,1874,2138
918352,380352,378380,396960,396960,955,603,63,-462,-91,-501,198,-4926,79,87,893,1456,1495,1238,1472,1675,1571,1874,2138
919353,380772,378828,397428,397428,706,579,27,-431,-158,333,539,-5767,77,78,885,1456,1495,1238,1472,1675,1571,1874,2138
920354,381188,379284,397896,397896,732,529,-13,-260,-173,605,100,-5041,83,84,884,1456,1495,1238,1472,1675,1571,1874,2138
921355,381580,379728,398364,398364,884,604,-39,-151,-225,894,1364,-5101,90,91,886,1456,1495,1238,1472,1675,1571,1874,2138
922356,381976,380188,398832,398832,861,505,-59,-114,-321,1116,863,-5136,93,80,885,1456,1495,1238,1472,1675,1571,1874,2138
923357,382396,380620,399300,399300,712,681,-110,17,-305,684,-165,-5274,95,94,886,1456,1495,1238,1472,1675,1571,1874,2138
924358,382820,381024,399768,399768,688,857,-124,178,-260,744,667,-4788,85,82,887,1456,1495,1238,1472,1675,1571,1874,2138
925359,383300,381512,400236,400236,338,332,-94,198,-270,1464,1156,-5306,95,76,888,1456,1495,1238,1472,1675,1571,1874,2138
926360,383720,381928,400704,400704,714,783,-114,266,-276,1091,594,-4824,88,80,883,1456,1495,1238,1472,1675,1571,1874,2138
927361,384144,382344,401172,401172,690,784,-123,280,-247,278,379,-5792,89,86,899,1456,1495,1238,1472,1675,1571,1874,2138
928362,384580,382804,401640,401640,616,509,-159,335,-175,289,259,-5037,99,88,886,1456,1495,1238,1472,1675,1571,1874,2138
929363,385020,383228,402108,402108,592,735,-178,342,-76,710,-188,-5292,101,93,885,1456,1495,1238,1472,1675,1571,1874,2138
930364,385564,383692,402576,402576,-60,486,-162,423,-5,324,-38,-4715,109,77,893,1456,1495,1238,1472,1675,1571,1874,2138
931365,386040,384156,403044,403044,365,486,-114,428,48,-41,-454,-4408,101,88,889,1456,1495,1238,1472,1675,1571,1874,2138
932366,386488,384612,403512,403512,540,536,-110,427,114,-328,-707,-4569,105,87,900,1456,1495,1238,1472,1675,1571,1874,2138
933367,386956,384976,403980,403980,415,1113,-60,370,196,-466,-83,-3882,87,94,896,1456,1495,1238,1472,1675,1571,1874,2138
934368,387468,385436,404448,404448,139,514,-18,338,271,-425,-678,-4318,97,83,893,1456,1495,1238,1472,1675,1571,1874,2138
935369,387980,385880,404916,404916,138,614,-6,343,305,-361,-551,-4011,101,91,881,1456,1495,1238,1472,1675,1571,1874,2138
936370,388476,386296,405384,405384,237,791,34,231,314,-880,-125,-4250,105,100,899,1456,1495,1238,1472,1675,1571,1874,2138
937371,388956,386708,405852,405852,337,817,41,106,319,-1100,-87,-4320,94,96,897,1456,1495,1238,1472,1675,1571,1874,2138
938372,389448,387136,406320,406320,261,718,32,86,365,-974,-1273,-3902,103,92,889,1456,1495,1238,1472,1675,1571,1874,2138
939373,389936,387616,406788,406788,286,393,15,120,365,-781,-52,-3657,100,78,887,1456,1495,1238,1472,1675,1571,1874,2138
940374,390488,388036,407256,407256,-116,769,40,73,353,-1032,-747,-3643,105,100,894,1456,1495,1238,1472,1675,1571,1874,2138
941375,390984,388460,407724,407724,233,745,52,20,286,-699,-120,-3320,108,95,899,1456,1495,1238,1472,1675,1571,1874,2138
942376,391464,388856,408192,408192,333,922,67,-99,239,-778,-203,-3525,102,94,893,1456,1495,1238,1472,1675,1571,1874,2138
943377,391936,389300,408660,408660,383,622,69,-119,184,-209,36,-3205,99,85,893,1456,1495,1238,1472,1675,1571,1874,2138
944378,392404,389692,409128,409128,408,949,58,-182,128,26,398,-3864,96,96,887,1456,1495,1238,1472,1675,1571,1874,2138
945379,392892,390092,409600,409600,282,901,24,-162,71,295,346,-3289,100,94,894,1456,1495,1238,1472,1675,1571,1874,2138
946380,393428,390524,410068,410068,-19,702,-34,-77,-25,633,352,-3578,106,97,887,1456,1495,1238,1472,1675,1571,1874,2138
947381,393884,390932,410536,410536,481,853,-61,11,-91,653,320,-3266,117,84,890,1456,1495,1238,1472,1675,1571,1874,2138
948382,394408,391372,411004,411004,55,654,-68,100,-147,1032,90,-3176,108,85,896,1456,1495,1238,1472,1675,1571,1874,2138
949383,394896,391776,411472,411472,279,880,-102,208,-220,1236,322,-2635,91,102,889,1456,1495,1238,1472,1675,1571,1874,2138
950384,395344,392200,411940,411940,530,756,-73,220,-281,733,477,-3051,99,101,897,1456,1495,1238,1472,1675,1571,1874,2138
951385,395860,392624,412408,412408,104,758,-92,259,-326,971,875,-2768,114,97,890,1456,1495,1238,1472,1675,1571,1874,2138
952386,396292,393068,412876,412876,629,633,-85,281,-359,939,652,-3225,102,98,889,1456,1495,1238,1472,1675,1571,1874,2138
953387,396728,393504,413344,413344,605,684,-105,267,-360,415,761,-3944,104,97,894,1456,1495,1238,1472,1675,1571,1874,2138
954388,397208,393924,413812,413812,330,785,-153,352,-369,505,674,-3250,100,93,890,1456,1495,1238,1472,1675,1571,1874,2138
955389,397640,394356,414280,414280,631,711,-166,340,-354,0,239,-4490,115,97,887,1456,1495,1238,1472,1675,1571,1874,2138
956390,398156,394784,414748,414748,105,737,-177,383,-318,-35,330,-3980,96,100,886,1456,1495,1238,1472,1675,1571,1874,2138
957391,398604,395284,415216,415216,530,286,-184,345,-260,-214,-331,-4163,102,99,888,1456,1495,1238,1472,1675,1571,1874,2138
958392,399036,395716,415684,415684,631,712,-153,297,-184,-396,-87,-4509,96,107,895,1456,1495,1238,1472,1675,1571,1874,2138
959393,399492,396176,416152,416152,481,537,-106,212,-90,-356,106,-4094,98,98,898,1456,1495,1238,1472,1675,1571,1874,2138
960394,399952,396636,416620,416620,456,537,-108,166,-10,-166,62,-4291,92,102,889,1456,1495,1238,1472,1675,1571,1874,2138
961395,400432,397172,417088,417088,331,61,-86,105,45,-217,-25,-4279,92,102,893,1456,1495,1238,1472,1675,1571,1874,2138
962396,400892,397648,417556,417556,456,436,-76,62,119,-585,54,-5499,89,96,894,1456,1495,1238,1472,1675,1571,1874,2138
963397,401288,398108,418024,418024,858,536,-69,47,151,-348,-451,-4379,94,94,903,1456,1495,1238,1472,1675,1571,1874,2138
964398,401728,398620,418492,418492,584,210,-58,34,210,-422,-591,-5730,91,93,896,1456,1495,1238,1472,1675,1571,1874,2138
965399,402164,399136,418960,418960,610,183,-63,60,234,-155,-195,-4646,87,85,887,1456,1495,1238,1472,1675,1571,1874,2138
966400,402564,399728,419428,419428,836,-295,-25,-10,227,-584,-208,-5020,88,95,897,1456,1495,1238,1472,1675,1571,1874,2138
967401,403056,400248,419896,419896,261,154,1,-45,251,-290,-240,-4990,97,98,897,1456,1495,1238,1472,1675,1571,1874,2138
968402,403480,400804,420364,420364,687,-73,53,-114,279,180,119,-5268,93,95,890,1456,1495,1238,1472,1675,1571,1874,2138
969403,403948,401300,420832,420832,412,301,116,-99,265,132,246,-5346,98,87,903,1456,1495,1238,1472,1675,1571,1874,2138
970404,404372,401900,421300,421300,688,-352,117,-149,188,42,193,-4785,91,87,896,1456,1495,1238,1472,1675,1571,1874,2138
971405,404816,402408,421768,421768,563,222,142,-130,117,-223,447,-5738,96,98,899,1456,1495,1238,1472,1675,1571,1874,2138
972406,405284,402924,422236,422236,413,171,131,-125,56,261,-35,-5452,92,92,888,1456,1495,1238,1472,1675,1571,1874,2138
973407,405712,403404,422704,422704,664,396,152,-96,17,184,523,-5327,105,83,893,1456,1495,1238,1472,1675,1571,1874,2138
974408,406152,403860,423172,423172,590,546,142,-105,-54,379,239,-5214,93,87,900,1456,1495,1238,1472,1675,1571,1874,2138
975409,406616,404420,423640,423640,440,-106,98,-139,-101,643,215,-5013,92,100,894,1456,1495,1238,1472,1675,1571,1874,2138
976410,407052,404940,424108,424108,616,142,50,-147,-138,580,280,-4733,98,90,893,1456,1495,1238,1472,1675,1571,1874,2138
977411,407552,405468,424576,424576,215,91,49,-137,-197,335,595,-5034,104,81,900,1456,1495,1238,1472,1675,1571,1874,2138
978412,408012,406008,425044,425044,465,14,30,-106,-265,576,442,-4984,103,89,898,1456,1495,1238,1472,1675,1571,1874,2138
979413,408452,406504,425512,425512,591,289,64,-76,-255,1054,609,-4833,89,88,903,1456,1495,1238,1472,1675,1571,1874,2138
980414,408892,407012,425984,425984,592,213,-19,-73,-220,888,724,-4633,84,98,901,1456,1495,1238,1472,1675,1571,1874,2138
981415,409384,407516,426452,426452,266,237,-73,-88,-241,91,452,-4239,85,92,896,1456,1495,1238,1472,1675,1571,1874,2138
982416,409840,407996,426920,426920,491,387,-86,-70,-303,179,665,-4645,89,97,897,1456,1495,1238,1472,1675,1571,1874,2138
983417,410348,408476,427388,427388,166,386,-21,-23,-241,653,-244,-4422,103,88,902,1456,1495,1238,1472,1675,1571,1874,2138
984418,410880,408948,427856,427856,14,436,-33,20,-147,909,323,-3378,92,97,897,1456,1495,1238,1472,1675,1571,1874,2138
985419,411368,409392,428324,428324,288,612,-12,-20,-129,-20,42,-3942,103,84,901,1456,1495,1238,1472,1675,1571,1874,2138
986420,411812,409832,428792,428792,564,637,23,-55,-123,-422,-115,-3608,101,82,901,1456,1495,1238,1472,1675,1571,1874,2138
987421,412284,410284,429260,429260,389,563,72,-56,-116,325,527,-3442,95,83,896,1456,1495,1238,1472,1675,1571,1874,2138
988422,412796,410828,429728,429728,138,-14,104,-95,-67,261,275,-3684,102,93,891,1456,1495,1238,1472,1675,1571,1874,2138
989423,413248,411364,430196,430196,513,34,58,-110,-4,241,525,-3133,102,108,892,1456,1495,1238,1472,1675,1571,1874,2138
990424,413692,411856,430664,430664,564,309,47,-78,90,371,-3,-3448,108,89,902,1456,1495,1238,1472,1675,1571,1874,2138
991425,414152,412340,431132,431132,464,358,12,-71,136,28,107,-3266,112,87,901,1456,1495,1238,1472,1675,1571,1874,2138
992426,414612,412852,431600,431600,464,182,14,5,100,-440,60,-2942,113,90,897,1456,1495,1238,1472,1675,1571,1874,2138
993427,415184,413336,432068,432068,-238,357,29,70,65,116,173,-2727,96,91,898,1456,1495,1238,1472,1675,1571,1874,2138
994428,415632,413828,432536,432536,537,306,90,129,81,486,-267,-3108,94,85,900,1456,1495,1238,1472,1675,1571,1874,2138
995429,416124,414328,433004,433004,262,255,108,33,84,-172,-88,-3264,120,89,899,1456,1495,1238,1472,1675,1571,1874,2138
996430,416664,414748,433472,433472,-40,757,144,-110,77,-1065,379,-3409,116,98,897,1456,1495,1238,1472,1675,1571,1874,2138
997431,417148,415232,433940,433940,309,356,165,-180,-13,310,-731,-3777,111,87,901,1456,1495,1238,1472,1675,1571,1874,2138
998432,417672,415756,434408,434408,58,105,159,-147,24,-88,204,-3110,106,87,895,1456,1495,1238,1472,1675,1571,1874,2138
999433,418180,416240,434876,434876,157,354,135,-129,2,-267,-316,-3650,117,88,900,1456,1495,1238,1472,1675,1571,1874,2138
1000434,418660,416708,435344,435344,332,454,101,-87,-84,-327,-269,-3222,104,79,905,1456,1495,1238,1472,1675,1571,1874,2138
1001435,419148,417152,435812,435812,281,605,131,-104,-161,-566,192,-3922,109,84,901,1456,1495,1238,1472,1675,1571,1874,2138
1002436,419660,417656,436280,436280,130,229,147,-189,-193,-212,-29,-3935,104,85,898,1456,1495,1238,1472,1675,1571,1874,2138
1003437,420236,418064,436748,436748,-272,831,138,-310,-187,-208,231,-4173,110,84,897,1456,1495,1238,1472,1675,1571,1874,2138
1004438,420764,418524,437216,437216,26,506,114,-350,-206,-494,424,-4348,101,92,903,1456,1495,1238,1472,1675,1571,1874,2138
1005439,421280,418944,437684,437684,100,757,90,-333,-237,-646,121,-5033,106,93,890,1456,1495,1238,1472,1675,1571,1874,2138
1006440,421812,419384,438152,438152,-2,633,69,-229,-288,-261,-223,-4526,103,99,897,1456,1495,1238,1472,1675,1571,1874,2138
1007441,422312,419900,438620,438620,198,157,81,-234,-285,-617,-14,-5325,120,95,890,1456,1495,1238,1472,1675,1571,1874,2138
1008442,422792,420268,439088,439088,322,1084,57,-288,-253,-805,-433,-4897,100,89,898,1456,1495,1238,1472,1675,1571,1874,2138
1009443,423368,420792,439556,439556,-280,108,58,-249,-227,166,642,-4518,107,91,903,1456,1495,1238,1472,1675,1571,1874,2138
1010444,423924,421280,440024,440024,-157,332,110,-351,-255,135,733,-5370,105,89,885,1456,1495,1238,1472,1675,1571,1874,2138
1011445,424460,421700,440492,440492,-34,758,172,-388,-277,-272,417,-5137,114,85,901,1456,1495,1238,1472,1675,1571,1874,2138
1012446,424856,422136,440960,440960,843,659,230,-567,-207,-138,666,-5920,111,94,901,1456,1495,1238,1472,1675,1571,1874,2138
1013447,425352,422536,441428,441428,217,886,196,-381,-76,613,-665,-3916,103,89,895,1456,1495,1238,1472,1675,1571,1874,2138
1014448,425852,423000,441896,441896,191,486,92,-162,79,1120,-1210,-5500,93,96,886,1456,1495,1238,1472,1675,1571,1874,2138
1015449,426332,423476,442368,442368,316,411,66,-13,177,405,-819,-5335,96,95,891,1456,1495,1238,1472,1675,1571,1874,2138
1016450,426836,423920,442836,442836,165,611,168,75,192,99,-823,-5207,102,107,899,1456,1495,1238,1472,1675,1571,1874,2138
