time,Right Leg Pos,Left Leg Pos,Commanded Right Leg Pos,Commanded Left Leg Pos,DCR,DCL,GyroX,GyroY,GyroZ,AX,AY,AZ,RBEMF,LBEMF,VBatt,S1,S2,S3,S4,S5,S6,S7,S8,PowerR,PowerL,Energy,TorqueR,TorqueL,VMotorR,VMotorL,AngleZ,A_mag,Gyro_mag,Fx,Fy,Fz,Mx,My,Mz,F_mag,M_mag
7.094048,0.782330555343,4.01902999372,44.8330815988,41.6914889204,1477,286,-0.303600364269,0.370712023739,-0.109722236911,0.0243954625584,5.84276093123e-05,5.84276093123e-05,0.53517578125,0.4846875,4.02712066906,2228,2403,2770,2790,2259,1966,1998,2275,1.53662760641,0.301848105209,14.7834333273,0.538013410348,0.105684895815,5948.0572282,1151.75651135,0.00756124696695,0.0243956024932,0.491568464206,-0.450668089039,0.270400281152,-0.214228126712,-10.2063873383,-11.7987563691,-4.52341992168,0.567548877895,16.243223884
7.095049,0.791150944943,4.02593290732,44.8393133958,41.6977207174,1144,228,-0.327036181862,0.31957933081,-0.148071756608,-0.0164344487994,-3.9360825849e-05,-3.9360825849e-05,0.3837109375,0.53517578125,4.02712066906,2228,2403,2770,2790,2259,1966,1998,2275,1.24180897308,0.237204532337,14.7849138198,0.434789716012,0.0830514946239,4607.0260454,918.183512545,0.00741317521034,0.0164345430691,0.480633808666,-0.45304886232,0.271707594869,-0.212873275418,-10.1657292959,-11.9395668844,-4.52593622685,0.56955537057,16.3211337913
7.09605,0.798820848943,4.03398630652,44.8455451928,41.7039525144,1276,54,-0.345145677274,0.300404570961,-0.199204449538,-0.0573922994046,-0.000137455678007,-0.000137455678007,0.47458984375,0.4644921875,4.04480286738,2194,2385,2737,2724,2272,1957,2001,2293,1.36322730592,0.0578546067725,14.7863363228,0.475214878048,0.0201678544601,5161.16845878,218.419354839,0.00721397076081,0.0573926286126,0.499049954925,-0.455338026185,0.273007603815,-0.211569137629,-10.1253779337,-12.0751634957,-4.52697515727,0.571513228043,16.3959249761
7.097051,0.805340267343,4.03935523932,44.8517769898,41.7101843114,1422,415,-0.370712023739,0.267381373444,-0.236488704799,-0.0983802216052,-0.000235622552223,-0.000235622552223,0.4241015625,0.47458984375,4.03596176822,2194,2385,2737,2724,2272,1957,2001,2293,1.53357028563,0.441304730837,14.7883131727,0.535766745803,0.154173826764,5739.13763441,1674.92413381,0.00697748205601,0.0983807859242,0.51463298661,-0.457533146767,0.274294455805,-0.210315624183,-10.0851224357,-12.2054033563,-4.52642987408,0.573416681526,16.4672442455
7.098052,0.812626676143,4.04510766732,44.8580087868,41.7164161084,1310,371,-0.38669099028,0.292947719909,-0.251402406903,-0.139301144888,-0.000333628962723,-0.000333628962723,0.5048828125,0.55537109375,4.02270011947,2194,2385,2737,2724,2272,1957,2001,2293,1.37147642729,0.382835969514,14.7900692394,0.48071735527,0.134188157452,5269.73715651,1492.42174432,0.0067260796491,0.139301943934,0.546398626243,-0.459632112638,0.275562535315,-0.20911262646,-10.0447572571,-12.3301686534,-4.52421819479,0.575260358779,16.5347741941
7.099053,0.820296580143,4.05162708572,44.8642405838,41.7226479054,1241,268,-0.404800485692,0.320644595246,-0.235423440363,-0.180056428775,-0.000431238663635,-0.000431238663635,0.55537109375,0.51498046875,4.02270011947,2194,2385,2737,2724,2272,1957,2001,2293,1.28059147754,0.279771480022,14.7916311627,0.448861195143,0.0980629366134,4992.17084827,1078.08363202,0.00649065620874,0.180057461598,0.567539061166,-0.461633177004,0.276806566187,-0.207960025042,-10.0040854246,-12.4493668555,-4.52028495415,0.577039372323,16.598235941
7.100054,0.826815998543,4.05814650412,44.8704723808,41.7288797024,1388,264,-0.425040509977,0.356863586071,-0.230097118183,-0.220540066221,-0.000528197766013,-0.000528197766013,0.40390625,0.63615234375,4.03596176822,2194,2385,2737,2724,2272,1957,2001,2293,1.50527240543,0.267998063601,14.7934062065,0.525880623639,0.0936275642286,5601.91493429,1065.49390681,0.00626055909056,0.220541331261,0.600795920409,-0.463534961894,0.27802163982,-0.206857684118,-9.96292063254,-12.562929843,-4.51460066602,0.578749336574,16.6573891395
7.101055,0.835252892943,4.06504941772,44.8767041778,41.7351114994,1110,206,-0.451672120877,0.363255172687,-0.230097118183,-0.260635045423,-0.000624226024309,-0.000624226024309,0.525078125,0.59576171875,4.02712066906,2172,2386,2721,2695,2283,1971,2020,2328,1.15815090728,0.210597944015,14.7947763241,0.405498844823,0.0737358339774,4470.10394265,829.586857826,0.00603046197238,0.260636540453,0.62362385222,-0.465336437982,0.27920318714,-0.205805460115,-9.9210868659,-12.670813009,-4.50715674977,0.580386343426,16.7120294661
7.102056,0.841005320943,4.07118534092,44.8829359748,41.7413432964,1467,306,-0.470846880726,0.387756254716,-0.221575002695,-0.300215126676,-0.000719021091958,-0.000719021091958,0.4846875,0.51498046875,4.04480286738,2172,2386,2721,2695,2283,1971,2020,2328,1.56285129834,0.323219648316,14.7966642811,0.544802899649,0.112672908685,5933.72580645,1237.70967742,0.00580888696968,0.300216848741,0.648958534869,-0.467036870441,0.280346859807,-0.204803262402,-9.87841236611,-12.7729952699,-4.49795421949,0.581946884557,16.7619817205
7.103057,0.847524739343,4.07885524492,44.8891677718,41.7475750934,1363,88,-0.478303731778,0.405865750128,-0.231162382619,-0.33915077589,-0.000812272732288,-0.000812272732288,0.37361328125,0.55537109375,4.02712066906,2172,2386,2721,2695,2283,1971,2020,2328,1.48363339719,0.091023141097,14.7982405123,0.519458755261,0.0318695761796,5488.96547192,354.386618877,0.00557772458706,0.339152721294,0.668533854115,-0.468635748091,0.281448367139,-0.203851139442,-9.83472076981,-12.8694795174,-4.48698930344,0.583427746003,16.8070910237
7.104058,0.857495614543,4.08575815852,44.8953995688,41.7538068904,866,179,-0.497478491627,0.396278370204,-0.223705531567,-0.377314554568,-0.000903675727608,-0.000903675727608,0.4241015625,0.5452734375,4.03596176822,2172,2386,2721,2695,2283,1971,2020,2328,0.933946460872,0.186568045093,14.7993621473,0.326282701734,0.0651792456639,3495.14289128,722.437156511,0.0053540190555,0.377316718883,0.674214773775,-0.470132745532,0.282503402821,-0.202949313508,-9.78982756437,-12.9602921576,-4.47424601796,0.584825952639,16.8472185829
7.105059,0.863631537743,4.09266107212,44.9016313658,41.7600386874,1367,170,-0.519849044783,0.334493032914,-0.226901324875,-0.41458434186,-0.000992937596099,-0.000992937596099,0.5048828125,0.63615234375,4.05806451613,2172,2386,2721,2695,2283,1971,2020,2328,1.4582466625,0.174647687462,14.8009966746,0.506676960397,0.0606824357628,5547.37419355,689.870967742,0.00512711773062,0.414586719958,0.658492847084,-0.471527725256,0.283507680119,-0.202098153265,-9.74354300624,-13.045481549,-4.45969708578,0.586138775312,16.8822426607
7.10606,0.871684936943,4.10224845212,44.9078631628,41.7662704844,1095,-222,-0.527305895836,0.246076084723,-0.253532935776,-0.450847235193,-0.00107978793389,-0.00107978793389,0.56546875,0.59576171875,4.03154121864,2172,2386,2721,2695,2283,1971,2020,2328,1.13200664036,0.227496895802,14.8023575376,0.395910466083,-0.079565259459,4414.53763441,-895.002150538,0.00487358479484,0.450849821298,0.634731357961,-0.472820750315,0.28445699609,-0.201298129809,-9.69567669222,-13.1251161465,-4.44330723974,0.587363755792,16.9120607735
7.107061,0.880121831343,4.10800088012,44.9140949598,41.7725022814,1016,284,-0.535828011324,0.13422331894,-0.289751926601,-0.486005045097,-0.00116399157529,-0.00116399157529,0.4241015625,0.5856640625,4.04480286738,2165,2388,2734,2699,2335,2007,2044,2364,1.10080369527,0.293974595621,14.8037537107,0.383735193339,0.102478215482,4109.51971326,1148.72401434,0.00458383286824,0.486007832871,0.62376577017,-0.47401210705,0.285347336955,-0.200549805174,-9.64604371609,-13.1992839562,-4.42503672976,0.58849877204,16.9365937068
7.108062,0.886257754543,4.11605427932,44.9203267568,41.7787340784,1318,-39,-0.545415391248,0.0543284862376,-0.312122479757,-0.519978755701,-0.00124535927573,-0.00124535927573,0.5048828125,0.56546875,4.04922341697,2165,2388,2734,2699,2335,2007,2044,2364,1.39942204892,0.0407014632221,14.8051952743,0.487299633976,-0.0141728566774,5336.87646356,-157.919713262,0.00427171038849,0.519981738352,0.630753498442,-0.475102361942,0.286175114351,-0.199853904583,-9.59447636701,-13.2680955609,-4.40484608233,0.589542223742,16.9557956339
7.109063,0.894311153743,4.12257369772,44.9265585538,41.7849658754,1044,157,-0.560329093353,-0.0159789665405,-0.347276206146,-0.552709015641,-0.00132374888755,-0.00132374888755,0.4644921875,0.5048828125,4.0403823178,2165,2388,2734,2699,2335,2007,2044,2364,1.11592045721,0.165920102441,14.8064783967,0.389430435266,0.0579022790519,4218.15913978,634.340023895,0.00392443418234,0.552712186036,0.659412453313,-0.476092433553,0.286937460943,-0.199211430736,-9.54083824498,-13.3316888925,-4.38270130576,0.590493273386,16.9696668759
7.110064,0.902748048143,4.13331156332,44.9327903508,41.7911976724,966,-451,-0.586960704253,-0.0798948327024,-0.394147841332,-0.584152127159,-0.00139905575376,-0.00139905575376,0.4241015625,0.61595703125,4.04922341697,2165,2388,2734,2699,2335,2007,2044,2364,1.04905338099,0.463854629292,14.8079928176,0.365296037013,-0.161521101691,3911.54982079,-1826.19976105,0.00353028634101,0.584155477915,0.711518498324,-0.476983624221,0.287632377827,-0.198623699929,-9.48503169634,-13.3902304787,-4.35857716927,0.591351956726,16.9782594365
7.111065,0.908883971343,4.14098146732,44.9390221478,41.7974294694,1269,-70,-0.613592315154,-0.106526443603,-0.447411063133,-0.614274232908,-0.00147119878536,-0.00147119878536,0.56546875,0.53517578125,4.04480286738,2165,2388,2734,2699,2335,2007,2044,2364,1.32123852982,0.0735161043369,14.809388967,0.460577780458,-0.0256273817325,5132.85483871,-283.136200717,0.00308287527788,0.614277756448,0.766824668237,-0.477777603999,0.288258705261,-0.19809228318,-9.42699733362,-13.4439124293,-4.33245824331,0.59211913725,16.9816740802
7.112066,0.916553875343,4.14826787612,44.9452539448,41.8036612664,1050,-33,-0.648746041543,-0.115048559091,-0.513457458167,-0.643046580072,-0.00154010911877,-0.00154010911877,0.47458984375,0.43419921875,4.0403823178,2154,2378,2722,2677,2353,2009,2055,2389,1.11916452889,0.0355721641313,14.8105448584,0.39056254127,-0.0124138627189,4242.40143369,-133.332616487,0.00256941781971,0.643050268653,0.835312012792,-0.478476384215,0.288816042231,-0.197618907232,-9.36671085944,-13.4929484139,-4.30434038287,0.59279641446,16.9800552224
7.113067,0.924607274543,4.15632127532,44.9514857418,41.8098930634,977,-156,-0.666855536956,-0.0628506017259,-0.537958540196,-0.670441886965,-0.00160572141385,-0.00160572141385,0.56546875,0.51498046875,4.05364396655,2154,2378,2722,2677,2353,2009,2055,2389,1.02203217856,0.165552437134,14.8117336306,0.35549875215,-0.0575849626373,3960.41015532,-632.368458781,0.00203145927951,0.670445732688,0.859095976173,-0.479082303764,0.289304674966,-0.197205318403,-9.30417928633,-13.5375702849,-4.27423560438,0.59338603484,16.9735868753
7.114068,0.933044168943,4.16169020812,44.9577175388,41.8161248604,899,205,-0.680703974624,0.00426105774413,-0.579503853201,-0.696430397617,-0.00166796440445,-0.00166796440445,0.59576171875,0.49478515625,4.05364396655,2154,2378,2722,2677,2353,2009,2055,2389,0.93226977807,0.218794466261,14.8128858459,0.324276230949,0.0761044137012,3644.22592593,830.997013142,0.00145195542631,0.696434392413,0.893980298193,-0.479598021916,0.289725511925,-0.196853132646,-9.23943690686,-13.5780251582,-4.24217853224,0.593890807067,16.9624892116
7.115069,0.940714072943,4.16590865532,44.9639493358,41.8223566574,981,379,-0.693487147857,0.0628506017259,-0.61465757959,-0.720975402875,-0.00172675017143,-0.00172675017143,0.5452734375,0.45439453125,4.04922341697,2154,2378,2722,2677,2353,2009,2055,2389,1.02973329922,0.408145755669,14.8143251629,0.358568496323,0.142122440832,3972.28817204,1534.65567503,0.000837297846721,0.720979538463,0.928804910908,-0.480026499633,0.290080018355,-0.196563740361,-9.17254202533,-13.614572429,-4.20822911996,0.594314025936,16.947014544
7.11607,0.948383976943,4.16974360732,44.9701811328,41.8285884544,962,460,-0.710531378833,0.121440145708,-0.630636546131,-0.744030390497,-0.00178196731708,-0.00178196731708,0.51498046875,0.43419921875,4.0403823178,2154,2378,2722,2677,2353,2009,2055,2389,1.01375328368,0.495854409102,14.8158362802,0.353776454197,0.173041722748,3886.84778973,1858.57586619,0.00020666130059,0.744034658331,0.957760409816,-0.480370966899,0.290370149374,-0.196338275075,-9.10357459596,-13.6474806371,-4.17247091999,0.594659404825,16.9274425636
7.117071,0.956053880943,4.17626302572,44.9764129298,41.8348202514,945,106,-0.720118758757,0.174703367509,-0.628506017259,-0.765539649905,-0.00183348241347,-0.00183348241347,0.444296875,0.525078125,4.04480286738,2154,2378,2722,2677,2353,2009,2055,2389,1.01816653565,0.111644681391,14.8169672212,0.354928252956,0.03891883138,3822.33870968,428.749103943,-0.000421844716669,0.765544041118,0.971654314591,-0.480634886846,0.290598285436,-0.196177604541,-9.03263417441,-13.6770244744,-4.13500806522,0.594931013207,16.904075553
7.118072,0.963340289743,4.18316593932,44.9826447268,41.8410520484,982,48,-0.722249287629,0.18535601187,-0.648746041543,-0.78544124343,-0.00188114711867,-0.00188114711867,0.40390625,0.53517578125,4.05364396655,2136,2368,2685,2628,2343,1997,2043,2369,1.07484256653,0.0506484990441,14.8180938378,0.373868063231,0.0176173300471,3980.67837515,194.574910394,-0.00107059075821,0.785445748802,0.988368509735,-0.480821912821,0.290767176061,-0.196082376678,-8.9598379371,-13.703482059,-4.09596196482,0.595133229594,16.8772338023
7.119073,0.971393688943,4.19198632892,44.9888765238,41.8472838454,858,-235,-0.73290193199,0.0980043281149,-0.67644291688,-0.803672711609,-0.00192481184104,-0.00192481184104,0.39380859375,0.5452734375,4.05806451613,2136,2368,2685,2628,2343,1997,2043,2369,0.943882959844,0.247836486059,14.8192867489,0.327958061803,-0.0861123434469,3481.81935484,-953.64516129,-0.00174703367509,0.803677321557,1.00216022174,-0.48093582222,0.290879899296,-0.196053215005,-8.88531882007,-13.7271324684,-4.05546687228,0.595270731704,16.8472510485
7.120074,0.978296602543,4.19850574732,44.9951083208,41.8535156424,1000,61,-0.741424047478,-0.00852211548825,-0.706270321089,-0.820181754736,-0.00196435132177,-0.00196435132177,0.40390625,0.45439453125,4.05364396655,2136,2368,2685,2628,2343,1997,2043,2369,1.0945443651,0.0658435888085,14.8204482973,0.380721041987,0.0229027169101,4053.64396655,247.272281959,-0.00245330399618,0.820186459382,1.02401172409,-0.480980440106,0.290939830617,-0.196090986867,-8.80922374573,-13.748253515,-4.01366499759,0.595348506284,16.8144700906
7.121075,0.985199516143,4.20502516572,45.0013401178,41.8597474394,991,56,-0.744619840786,-0.0830906260105,-0.714792436577,-0.834938407117,-0.00199969379244,-0.00199969379244,0.53517578125,0.49478515625,4.05364396655,2136,2368,2685,2628,2343,1997,2043,2369,1.04568046985,0.0597682444419,14.8215548514,0.363724459931,0.0207894983769,4017.16117085,227.004062127,-0.00316809643276,0.834943196409,1.03551484142,-0.48095959016,0.290950603442,-0.196196923202,-8.73171183546,-13.7671197452,-3.97070311269,0.595371828091,16.7792389835
7.122076,0.993636410543,4.21192807932,45.0075719148,41.8659792364,763,-2,-0.731836667554,-0.104395914731,-0.683899767932,-0.847940177031,-0.00203083328532,-0.00203083328532,0.5452734375,0.39380859375,4.05364396655,2136,2368,2685,2628,2343,1997,2043,2369,0.802789541605,0.00219514523815,14.8223606411,0.279238448913,-0.000763548750539,3092.93034648,-8.10728793309,-0.00385199620069,0.847945040903,1.00707611806,-0.480877078194,0.29091605865,-0.196372558967,-8.65295259726,-13.7840006483,-3.92673091724,0.595346201322,16.7419078429
7.123077,0.999388838543,4.21883099292,45.0138037118,41.8722110334,1119,-11,-0.712661907705,-0.135288583376,-0.659398685904,-0.859207326211,-0.00205781832767,-0.00205781832767,0.41400390625,0.53517578125,4.06690561529,2104,2344,2668,2622,2329,1988,2036,2356,1.22986736823,0.0116888117625,14.8236034388,0.426396172727,-0.00405252202637,4550.86738351,-44.7359617682,-0.00451139488659,0.859212254712,0.980304351953,-0.480736677456,0.290840229174,-0.196619590283,-8.57312583322,-13.7991584488,-3.88189963091,0.595277292731,16.7028262636
7.124078,1.00705874254,4.22458342092,45.0200355088,41.8784428304,852,145,-0.705205056653,-0.13954964112,-0.645550248235,-0.868775175459,-0.00208073351349,-0.00208073351349,0.3433203125,0.39380859375,4.04922341697,2104,2344,2668,2622,2329,1988,2036,2356,0.9458701206,0.158782458765,14.8247091961,0.32936608646,0.0552904208545,3449.93835125,587.13739546,-0.00515694513483,0.868780158842,0.9661901455,-0.480542090075,0.290727429904,-0.19693964424,-8.49242637798,-13.8128443345,-3.83635959596,0.59517086816,16.6623416525
7.125079,1.01549563694,4.23110283932,45.0262673058,41.8846746274,724,42,-0.694552412293,-0.112918030219,-0.625310223951,-0.876690379172,-0.00209969058098,-0.00209969058098,0.49478515625,0.4846875,4.05806451613,2104,2344,2668,2622,2329,1988,2036,2356,0.774521535624,0.0450581326808,14.8255295953,0.2691123714,0.0156557311564,2938.03870968,170.438709677,-0.00578225535878,0.876695407957,0.941364122509,-0.480296897067,0.290582399933,-0.197334012388,-8.4110711906,-13.8252940253,-3.79025743708,0.595032732653,16.6207979621
7.12608,1.02201505534,4.23723876252,45.0324991028,41.8909064244,970,93,-0.67644291688,-0.068176923906,-0.631701810567,-0.883009699678,-0.00211482547702,-0.00211482547702,0.49478515625,0.4846875,4.06690561529,2104,2344,2668,2622,2329,1988,2036,2356,1.04252873837,0.100236335231,14.8266735032,0.361445693643,0.0347520316538,3944.89844683,378.222222222,-0.00641395716935,0.883014764712,0.928046491413,-0.480004532779,0.290410344444,-0.19780349685,-8.3293016324,-13.8367253199,-3.74373435795,0.594868677117,16.5785337169
7.127081,1.02968495934,4.24337468572,45.0387308998,41.8971382214,802,93,-0.650876570415,-0.00213052887206,-0.615722844026,-0.88779660503,-0.00212629020883,-0.00212629020883,0.41400390625,0.3837109375,4.05806451613,2104,2344,2668,2622,2329,1988,2036,2356,0.877414928871,0.102590926889,14.827654489,0.304863327035,0.0356458617991,3254.56774194,377.4,-0.00702968001337,0.887801697522,0.895968453532,-0.479668288775,0.290216854896,-0.198348389144,-8.24737993739,-13.8473379779,-3.69692579386,0.594684431945,16.5358793304
7.128082,1.03812185374,4.24836012332,45.0449626968,41.9033700184,674,259,-0.637028132747,-0.0245010820287,-0.631701810567,-0.891115356967,-0.00213423868454,-0.00213423868454,0.55537109375,0.39380859375,4.06248506571,2104,2344,2668,2622,2329,1988,2036,2356,0.710440425462,0.285579525847,14.828651505,0.246578383354,0.0991184274973,2738.11493429,1052.18363202,-0.00766138182394,0.891120468496,0.897469956269,-0.479291325951,0.290007797965,-0.198968492152,-8.16558413605,-13.8573143528,-3.64996148155,0.594485625463,16.493154464
7.129083,1.04310729134,4.25526303692,45.0511944938,41.9096018154,1140,0,-0.658333421468,-0.103330650295,-0.674312388008,-0.893027332506,-0.0021388179033,-0.0021388179033,0.53517578125,0.444296875,4.06248506571,2123,2362,2680,2635,2289,1950,2003,2309,1.20855461876,0.0,14.8298612682,0.419462960452,0.0,4631.23297491,0.0,-0.00833569421195,0.893032455002,0.948038666792,-0.478876689969,0.289789244885,-0.199663131051,-8.08420465767,-13.8668193402,-3.60296616607,0.594277760435,16.4506659061
7.130084,1.05154418574,4.26024847452,45.0574262908,41.9158336124,662,266,-0.705205056653,-0.205596036154,-0.733967196426,-0.893594465935,-0.00214017619894,-0.00214017619894,0.4846875,0.5048828125,4.04922341697,2123,2362,2680,2635,2289,1950,2003,2309,0.706901391328,0.282432674516,14.8308515916,0.246153609997,0.09834727059,2680.58590203,1077.09342891,-0.00906966140837,0.893599591684,1.03840827589,-0.478427338963,0.289567495918,-0.20043112966,-8.00354491788,-13.8759983459,-3.55606214489,0.594066234603,16.4087062051
7.131085,1.05921408974,4.26561740732,45.0636580878,41.9220654094,743,227,-0.74888089853,-0.312122479757,-0.792556740408,-0.892886355084,-0.00213848025962,-0.00213848025962,0.37361328125,0.51498046875,4.06248506571,2123,2362,2680,2635,2289,1950,2003,2309,0.823759173365,0.24202861396,14.8319184451,0.285908850287,0.0840028554354,3018.42640382,922.184109916,-0.00986221814878,0.892891476771,1.13419100213,-0.477946176537,0.289349154935,-0.201270770734,-7.9239240033,-13.8849743117,-3.50937268761,0.593856383547,16.3675526548
7.132086,1.06611700334,4.27252032092,45.0698898848,41.9282972064,835,18,-0.790426211536,-0.33023197517,-0.82131888018,-0.890982565272,-0.00213392064584,-0.00213392064584,0.49478515625,0.40390625,4.05806451613,2123,2362,2680,2635,2289,1950,2003,2309,0.893267240671,0.0197471724025,14.8328323726,0.310371312319,0.00686127905971,3388.48387097,73.0451612903,-0.010683537029,0.890987676039,1.18675669631,-0.477436069543,0.289141124898,-0.202179794159,-7.84567602736,-13.8938468023,-3.46302354709,0.593653484597,16.3274659204
7.133087,1.07455389774,4.27942323452,45.0761216818,41.9345290034,607,9,-0.812796764692,-0.321709859682,-0.843689433337,-0.887968910273,-0.00212670288325,-0.00212670288325,0.49478515625,0.444296875,4.05806451613,2123,2362,2680,2635,2289,1950,2003,2309,0.649357143817,0.00976445017356,14.8334921533,0.225623217458,0.00339271953169,2463.24516129,36.5225806452,-0.0115272264623,0.887974003753,1.21488586889,-0.476899847901,0.288950505897,-0.203155440367,-7.76914539046,-13.9026935669,-3.41714217741,0.593462713856,16.288688381
7.134088,1.08260729694,4.28479216732,45.0823534788,41.9407608004,635,220,-0.837297846721,-0.27377296006,-0.839428375593,-0.883931731292,-0.00211703376074,-0.00211703376074,0.5452734375,0.41400390625,4.07132616487,2134,2368,2667,2617,2273,1942,2008,2329,0.67441083038,0.2423527312,14.8344098336,0.233564993893,0.0839326885524,2585.2921147,895.691756272,-0.0123666548379,0.883936801615,1.2168234529,-0.476340293611,0.288784366617,-0.204194495745,-7.69467606268,-13.9115727844,-3.37185508405,0.593289033956,16.2514400516
7.135089,1.08912671534,4.29169508092,45.0885852758,41.9469925974,831,12,-0.851146284389,-0.213052887206,-0.836232582285,-0.878952135242,-0.00210510753095,-0.00210510753095,0.40390625,0.49478515625,4.06248506571,2134,2368,2667,2617,2273,1942,2008,2329,0.913758287188,0.0128673007822,14.8353373858,0.317145580622,0.00446595958127,3375.92508961,48.7498207885,-0.0132028874202,0.878957177002,1.2120752707,-0.475760115164,0.288649230962,-0.205293305149,-7.62258702679,-13.9205251639,-3.3272818067,0.593136920833,16.2159075614
7.13609,1.09526263854,4.29859799452,45.0948170728,41.9532243944,882,3,-0.850081019953,-0.172572838637,-0.808535706948,-0.873101382812,-0.00209109486461,-0.00209109486461,0.3837109375,0.39380859375,4.06248506571,2134,2368,2667,2617,2273,1942,2008,2329,0.975190806343,0.00330787095576,14.836316863,0.33846746873,0.00114808989379,3583.11182796,12.1874551971,-0.0140114231271,0.873106391011,1.18581158475,-0.475161915062,0.288550434546,-0.2064477675,-7.55314136472,-13.9295759074,-3.28352735287,0.593010016364,16.1822304183
7.137091,1.10254904734,4.30741838412,45.1010488698,41.9594561914,719,-280,-0.850081019953,-0.124635939016,-0.787230418227,-0.866439103247,-0.00207513857492,-0.00207513857492,0.49478515625,0.4846875,4.05806451613,2134,2368,2667,2617,2273,1942,2008,2329,0.769172629991,0.300387551205,14.8373874927,0.267253860548,-0.104371541043,2917.7483871,-1136.25806452,-0.0147986535454,0.86644407323,1.16529120359,-0.474548172658,0.28849179966,-0.207653360704,-7.48653067086,-13.9387365538,-3.24067834564,0.592910958623,16.1504957925
7.138092,1.11136943694,4.31163683132,45.1072806668,41.9656879884,486,345,-0.817057822436,-0.0916127414987,-0.764859865071,-0.859015226471,-0.00205735824505,-0.00205735824505,0.5048828125,0.3837109375,4.05806451613,2134,2368,2667,2617,2273,1942,2008,2329,0.518440291131,0.380579244911,14.8382874113,0.180135334859,0.132234648609,1972.21935484,1400.03225806,-0.0155635134104,0.85902015387,1.12293677151,-0.473921245424,0.288475690381,-0.208905202292,-7.42287777855,-13.9480067096,-3.19880361226,0.592841424286,16.1207428562
7.139093,1.11865584574,4.31777275452,45.1135124638,41.9719197854,672,96,-0.763794600635,-0.0500674284935,-0.745685105222,-0.850874407663,-0.002037860825,-0.002037860825,0.4241015625,0.3837109375,4.07132616487,2134,2368,2667,2617,2273,1942,2008,2329,0.738233570098,0.10662986052,14.8391331196,0.25566837234,0.0369285331719,2735.9311828,390.847311828,-0.0163091985156,0.850879288366,1.06861368862,-0.473283375516,0.288503180148,-0.210198118263,-7.36224487295,-13.9573756631,-3.15795607774,0.592802232973,16.0929696314
7.140094,1.12325778814,4.32429217292,45.1197442608,41.9781515824,1043,42,-0.710531378833,-0.0521979573656,-0.713727172141,-0.842059731036,-0.00201674950232,-0.00201674950232,0.444296875,0.3837109375,4.06690561529,2108,2356,2656,2600,2325,1986,2045,2372,1.13683109645,0.0465440499917,14.8403176781,0.394140409841,0.0161368658868,4241.78255675,170.810035842,-0.0170229256878,0.842064561177,1.00845720946,-0.472636677064,0.288574233176,-0.211526753039,-7.3046421991,-13.9668242187,-3.11817384402,0.592793457968,16.067139899
7.141095,1.13207817774,4.33196207692,45.1259760578,41.9843833794,460,-126,-0.654072363723,-0.0809600971384,-0.704139792217,-0.832614539347,-0.00199412808375,-0.00199412808375,0.40390625,0.39380859375,4.05364396655,2108,2356,2656,2600,2325,1986,2045,2372,0.503490407945,0.138294150003,14.8409601045,0.175131679314,-0.048103571284,1864.67622461,-510.759139785,-0.01772706548,0.832619315309,0.964457381795,-0.471983070287,0.288687945637,-0.212885804293,-7.2500395346,-13.9763273669,-3.07947922247,0.592814569881,16.0431914593
7.142096,1.14089856734,4.33694751452,45.1322078548,41.9906151764,427,240,-0.585895439817,-0.174703367509,-0.693487147857,-0.822584674967,-0.00197010636266,-0.00197010636266,0.45439453125,0.39380859375,4.07132616487,2108,2356,2656,2600,2325,1986,2045,2372,0.465189799755,0.265844700091,14.84169187,0.161106624989,0.0920685329419,1738.4562724,977.11827957,-0.0184205526279,0.822589393396,0.924510225612,-0.471324189889,0.288842810365,-0.214270315378,-7.19837872557,-13.9858573011,-3.04187672568,0.592864595946,16.0210447456
7.143097,1.15010245214,4.34193295212,45.1384396518,41.9968469734,339,255,-0.493217433883,-0.270577166752,-0.705205056653,-0.812022519205,-0.00194480979332,-0.00194480979332,0.45439453125,0.3433203125,4.07132616487,2108,2356,2656,2600,2325,1986,2045,2372,0.369319302381,0.286337859644,14.8423481828,0.127904322884,0.0991658161859,1380.17956989,1038.18817204,-0.0191257576845,0.812027177049,0.902102883369,-0.470661346935,0.289036899484,-0.215675830651,-7.14958231941,-13.995385361,-3.00535291126,0.592942237228,16.0006088905
7.144098,1.15815585134,4.34768538012,45.1446714488,42.0030787704,466,161,-0.387756254716,-0.433562625465,-0.719053494321,-0.800992062858,-0.00191839163493,-0.00191839163493,0.31302734375,0.37361328125,4.07574671446,2108,2356,2656,2600,2325,1986,2045,2372,0.528714285812,0.179726138322,14.8430573317,0.182908113586,0.062176055773,1899.29796894,656.195221027,-0.0198448111788,0.800996657431,0.924861822635,-0.469995555286,0.289267950638,-0.217098386772,-7.10355762546,-14.0048827066,-2.96987848477,0.593045933124,15.9817849059
7.145099,1.16582575534,4.35497178892,45.1509032458,42.0093105674,498,-53,-0.274838224496,-0.46445529411,-0.784034624919,-0.7895753141,-0.00189104829867,-0.00189104829867,0.27263671875,0.45439453125,4.07574671446,2123,2380,2677,2643,2275,1935,1999,2276,0.571086019525,0.0578735244967,14.8436869202,0.197566567293,-0.0200212808247,2029.7218638,-216.014575866,-0.0206288458038,0.789579843185,0.951821970194,-0.469327537302,0.289533583635,-0.218534436453,-7.0602067857,-14.0143174966,-2.93541269065,0.593173948549,15.9644687484
7.1461,1.17196167854,4.36034072172,45.1571350428,42.0155423644,699,208,-0.199204449538,-0.437823683209,-0.849015755517,-0.777883584274,-0.00186304637738,-0.00186304637738,0.323125,0.47458984375,4.07574671446,2123,2380,2677,2643,2275,1935,1999,2276,0.790943137479,0.225859662278,14.8447047398,0.273625890414,0.078135896591,2848.94695341,847.755316607,-0.0214778615593,0.777888046294,0.975807226562,-0.468657616934,0.289831976841,-0.219980722415,-7.01945818222,-14.0236433069,-2.90191239717,0.593324578072,15.9485566849
7.147101,1.17886459214,4.36570965452,45.1633668398,42.0217741614,591,219,-0.176833896381,-0.461259500802,-0.891626332959,-0.766068737506,-0.00183474958862,-0.00183474958862,0.3837109375,0.4846875,4.06248506571,2123,2380,2677,2643,2275,1935,1999,2276,0.65344417976,0.235492873325,14.8455945658,0.226796229047,0.081734442347,2400.92867384,889.684229391,-0.0223694878922,0.766073131755,1.01932726424,-0.467985557097,0.290162761804,-0.221434129883,-6.98130796114,-14.032783347,-2.8693433194,0.593496405942,15.9339511859
7.148102,1.18538401054,4.37146208252,45.1695986368,42.0280059584,637,176,-0.200269713974,-0.484695318394,-0.878843159726,-0.754315211648,-0.00180659966462,-0.00180659966462,0.5048828125,0.4644921875,4.07132616487,2123,2380,2677,2643,2275,1935,1999,2276,0.684284607649,0.191205697193,14.8464709316,0.236984524873,0.0662192175534,2593.43476703,716.553405018,-0.023248331052,0.754319538477,1.02342699271,-0.467310505231,0.290527437658,-0.222891600187,-6.94583922379,-14.0416236447,-2.83768596808,0.593688441664,15.9205633932
7.149103,1.19228692414,4.37836499612,45.1758304338,42.0342377554,578,16,-0.259924522392,-0.562459622225,-0.864994722058,-0.742811502604,-0.00177904805678,-0.00177904805678,0.323125,0.5048828125,4.07132616487,2123,2380,2677,2643,2275,1935,1999,2276,0.652548413518,0.0171876824527,14.8471413374,0.225993503296,0.00595251553841,2353.2265233,65.141218638,-0.024113325774,0.742815763446,1.06401947969,-0.466631070009,0.290929208513,-0.224350116663,-6.91321438887,-14.0500170269,-2.80693530551,0.593900104992,15.9083122126
7.150104,1.19957333294,4.38488441452,45.1820622308,42.0404695524,515,62,-0.336623561786,-0.560329093353,-0.860733664314,-0.731728623383,-0.00175250434458,-0.00175250434458,0.47458984375,0.43419921875,4.06690561529,2123,2380,2677,2643,2275,1935,1999,2276,0.556636831894,0.0677660534042,14.8477663647,0.192986512895,0.0234945544201,2094.45639188,252.148148148,-0.0249740594383,0.731732820653,1.08080828831,-0.465945432132,0.291372658954,-0.225806713315,-6.88366001989,-14.057790073,-2.77709853129,0.594131167242,15.8971227981
7.151105,1.20685974174,4.38986985212,45.1882940278,42.0467013494,502,278,-0.41332260118,-0.525175366964,-0.855407342133,-0.721218585208,-0.00172733259788,-0.00172733259788,0.323125,0.37361328125,4.07132616487,2196,2433,2668,2671,2093,1810,1909,2148,0.566746199976,0.309627831239,14.8486436151,0.196278094558,0.107231703963,2043.80573477,1131.82867384,-0.0258294667805,0.721222722191,1.08552589084,-0.465251372979,0.291863300902,-0.22725838413,-6.85744556331,-14.0647447639,-2.74818964014,0.594381526992,15.8869176125
7.152106,1.21376265534,4.39523878492,45.1945258248,42.0529331464,543,239,-0.45380264975,-0.385625725843,-0.822384144616,-0.711415090764,-0.00170385303721,-0.00170385303721,0.39380859375,0.5048828125,4.07132616487,2196,2433,2668,2671,2093,1810,1909,2148,0.601473633955,0.256741006638,14.8495026879,0.208305055781,0.088915700855,2210.73010753,973.046953405,-0.0266518509251,0.711419171513,1.01536186981,-0.464546090008,0.292406700665,-0.228701710891,-6.83484228371,-14.0706462649,-2.72021450787,0.594650503153,15.8775855319
7.153107,1.22028207374,4.40060771772,45.2007576218,42.0591649434,589,250,-0.442084740953,-0.25779399352,-0.756337749583,-0.702423070911,-0.00168231697404,-0.00168231697404,0.4846875,0.45439453125,4.07132616487,2196,2433,2668,2671,2093,1810,1909,2148,0.636304404142,0.272359367538,14.8504122604,0.220367804864,0.0943247218907,2398.01111111,1017.83154122,-0.0274081886747,0.702427100081,0.913205044183,-0.463825905574,0.293007417997,-0.230132356119,-6.81607332085,-14.075203797,-2.69315152287,0.594935894879,15.8689408143
7.154108,1.22833547294,4.41019509772,45.2069894188,42.0653967404,366,-343,-0.399474163512,-0.125701203452,-0.699878734473,-0.694307398802,-0.00166287978083,-0.00166287978083,0.49478515625,0.3837109375,4.06690561529,2196,2433,2668,2671,2093,1810,1909,2148,0.393366513652,0.380109741599,14.8511865101,0.136380540076,-0.131784404742,1488.4874552,-1394.94862605,-0.0281080674091,0.69431138142,0.815604464695,-0.463086176244,0.293668430085,-0.231544845025,-6.8012865738,-14.0780646339,-2.66694227855,0.595233541322,15.8607056593
7.155109,1.23447139614,4.41518053532,45.2132212158,42.0716285374,617,272,-0.33555829735,-0.0383495196971,-0.673247123572,-0.68709244885,-0.00164559983478,-0.00164559983478,0.3433203125,0.4644921875,4.07132616487,2196,2433,2668,2671,2093,1810,1909,2148,0.692825330983,0.295499713844,14.8521758235,0.239942386614,0.102338790764,2512.00824373,1107.40071685,-0.0287813145327,0.687096390082,0.753214276272,-0.462321445717,0.294391132663,-0.232932695283,-6.79055475849,-14.0788240305,-2.64149433576,0.595537487227,15.8525206935
7.15611,1.24060731934,4.42093296332,45.2194530128,42.0778603344,619,178,-0.258859257956,-0.0106526443603,-0.677508181316,-0.680768035523,-0.00163045274134,-0.00163045274134,0.29283203125,0.444296875,4.06690561529,2146,2351,2595,2593,2127,1861,1931,2192,0.702896236599,0.19401336066,14.85307363,0.243694786001,0.067264614527,2517.41457587,723.909199522,-0.029458822714,0.680771940478,0.725354347896,-0.461525709123,0.295175341919,-0.23428871525,-6.78387665009,-14.0770432994,-2.61668533082,0.595840301382,15.8439632851
7.157111,1.24751023294,4.42745238172,45.2256848098,42.0840921314,510,75,-0.149137021044,-0.100134856987,-0.647680777107,-0.675294701652,-0.00161734399981,-0.00161734399981,0.4644921875,0.4846875,4.07132616487,2146,2351,2595,2593,2127,1861,1931,2192,0.554061963458,0.0810234810028,14.8537093505,0.191885232683,0.0280604165787,2076.37634409,305.349462366,-0.0301065034911,0.675298575211,0.672130366569,-0.460692796143,0.296018791654,-0.235605488014,-6.78115782534,-14.0722780696,-2.59236061855,0.596133310102,15.834564885
7.158112,1.25402965134,4.43435529532,45.2319166068,42.0903239284,556,16,-0.0905474770627,-0.204530771718,-0.629571281695,-0.670612072906,-0.00160612901251,-0.00160612901251,0.31302734375,0.40390625,4.07574671446,2146,2351,2595,2593,2127,1861,1931,2192,0.630826486934,0.0177148339359,14.8543585404,0.218233714922,0.00612842691156,2266.11517324,65.2119474313,-0.0307360747728,0.670615919606,0.66812549788,-0.459816801099,0.29691638376,-0.236875934889,-6.7821813494,-14.0641107819,-2.56832756852,0.596406772302,15.8238270478
7.159113,1.26093256494,4.44202519932,45.2381484038,42.0965557254,498,-102,-0.0383495196971,-0.19600865623,-0.630636546131,-0.666654584772,-0.00159665075113,-0.00159665075113,0.31302734375,0.444296875,4.07132616487,2146,2351,2595,2593,2127,1861,1931,2192,0.563744942759,0.111432851219,14.8550343934,0.195238685652,-0.0385919265262,2027.52043011,-415.275268817,-0.031366711319,0.66665840877,0.661507771907,-0.458892349908,0.297859937323,-0.23809364913,-6.786598562,-14.0521700853,-2.54435547284,0.596650079043,15.8112348955
7.160114,1.26821897374,4.44816112252,45.2443802008,42.1027875224,434,99,0.00852211548825,-0.120374881272,-0.643419719363,-0.663366838045,-0.00158877653351,-0.00158877653351,0.31302734375,0.45439453125,4.07574671446,2146,2351,2595,2593,2127,1861,1931,2192,0.492407725413,0.108103375947,14.855635505,0.170347899777,0.0373982415404,1768.87407407,403.498924731,-0.0320101310383,0.663370643185,0.654638582547,-0.457914675755,0.298838540102,-0.239252957727,-6.7939441632,-14.0361347899,-2.52018233156,0.596851992627,15.7962677908
7.161117,1.27627237294,4.45391355052,45.2506119978,42.1090193194,311,154,0.106526443603,-0.0639158661619,-0.637028132747,-0.66070680164,-0.00158240569436,-0.00158240569436,0.4241015625,0.40390625,4.07574671446,2146,2351,2595,2593,2127,1861,1931,2192,0.34243824035,0.170505276633,14.8561499873,0.118466124792,0.0589861090237,1267.5572282,627.664994026,-0.0326471591711,0.660710591522,0.649028476297,-0.456879630059,0.29983906005,-0.24034889652,-6.80365770939,-14.0157327859,-2.49552323525,0.597000879692,15.7784080302
7.162116,1.28087431534,4.46004947372,45.2568437948,42.1152511164,782,105,0.145941227736,-0.0564590151097,-0.595482819742,-0.65863808038,-0.00157745106654,-0.00157745106654,0.3029296875,0.40390625,4.08016726404,2111,2330,2652,2664,2282,1989,2030,2300,0.891630947168,0.11651979637,14.8571571299,0.308124533665,0.0402662200468,3190.69080048,428.417562724,-0.0332426419908,0.658641858395,0.61569980587,-0.455783687651,0.300846780549,-0.24137720645,-6.81511176643,-13.99074087,-2.47008012967,0.59708501161,15.7571531162
7.163117,1.28701023854,4.46656889212,45.2630755918,42.1214829134,583,52,0.156593872097,-0.0809600971384,-0.578438588765,-0.65712502827,-0.00157382727719,-0.00157382727719,0.4241015625,0.5048828125,4.06690561529,2111,2330,2652,2664,2282,1989,2030,2300,0.638990750048,0.0557301541786,14.8578525455,0.221538693738,0.019321696844,2371.00597372,211.479091995,-0.0338210805796,0.657128797606,0.604704373293,-0.454623946913,0.301846467821,-0.242334391794,-6.82766234886,-13.9609875543,-2.44355704746,0.597093108894,15.7320411163
7.164118,1.29468014254,4.47385530092,45.2693073888,42.1277147104,365,-62,0.113983294655,-0.188551805178,-0.575242795457,-0.656138263229,-0.00157146395564,-0.00157146395564,0.45439453125,0.41400390625,4.07574671446,2111,2330,2652,2664,2282,1989,2030,2300,0.398562951723,0.0684562060268,14.8583200317,0.137882405679,-0.0236823476188,1487.64755078,-252.696296296,-0.034396323375,0.656142026905,0.615993708102,-0.453398125189,0.302823625762,-0.243217807715,-6.84070921177,-13.9263572257,-2.41567759693,0.597015000008,15.7026821387
7.165119,1.30043257054,4.48037471932,45.2755391858,42.1339465074,621,35,0.066046395034,-0.312122479757,-0.588025968689,-0.655662316548,-0.00157032405404,-0.00157032405404,0.35341796875,0.47458984375,4.08016726404,2111,2330,2652,2664,2282,1989,2030,2300,0.698595618456,0.0380931554464,14.8590574572,0.241416529833,0.0131640066947,2533.78387097,142.805854241,-0.0349843493437,0.655666077494,0.668997091563,-0.452104549423,0.303765226766,-0.244025682493,-6.85372989342,-13.8867908993,-2.38619534452,0.596841997783,15.6687747815
7.16612,1.30695198894,4.48651064252,45.2817709828,42.1401783044,517,85,0.0,-0.432497361029,-0.568851208841,-0.655694113109,-0.00157040020743,-0.00157040020743,0.3029296875,0.47458984375,4.07132616487,2111,2330,2652,2664,2282,1989,2030,2300,0.586825720511,0.0920851361898,14.8597370469,0.203232124476,0.0318913387848,2104.87562724,346.062724014,-0.0355532005526,0.655697874238,0.714594755856,-0.450742142374,0.304659821495,-0.24475706141,-6.86628256782,-13.8422829242,-2.35489582693,0.596566932418,15.6301045169
7.167121,1.31385490254,4.49494753692,45.2880027798,42.1464101014,459,-243,-0.0745685105222,-0.549676448992,-0.560329093353,-0.65623412984,-0.00157169355804,-0.00157169355804,0.47458984375,0.4846875,4.06690561529,2206,2423,2750,2778,2343,2045,2090,2357,0.496109331727,0.261907843668,14.8604958221,0.172001571687,-0.0908036956116,1866.70967742,-988.258064516,-0.0361135296459,0.656237894065,0.788462652379,-0.449310359892,0.305497451905,-0.245411766612,-6.87799931797,-13.7928750946,-2.32159594769,0.596184055321,15.5865353987
7.168122,1.31999082574,4.50146695532,45.2942345768,42.1526418984,560,3,-0.162985458713,-0.564590151097,-0.537958540196,-0.657280053997,-0.00157419856683,-0.00157419856683,0.3837109375,0.40390625,4.07132616487,2206,2423,2750,2778,2343,2045,2090,2357,0.622007519699,0.00331393436102,14.8611217689,0.215416443503,0.00114769666193,2279.94265233,12.2139784946,-0.0366514881861,0.657283824223,0.796696736178,-0.447808996653,0.306269561723,-0.245990468523,-6.88857985374,-13.7386469166,-2.28614359878,0.59568888904,15.5379987146
7.169123,1.32804422494,4.50760287852,45.3004663738,42.1588736954,287,54,-0.242880291415,-0.513457458167,-0.523044838092,-0.658821814986,-0.00157789111451,-0.00157789111451,0.47458984375,0.3837109375,4.07574671446,2206,2423,2750,2778,2343,2045,2090,2357,0.311642899393,0.0601163992313,14.8614939,0.107812511162,0.020797200821,1169.73930705,220.090322581,-0.0371745330242,0.658825594055,0.772143315687,-0.446237927719,0.306968906557,-0.24649481265,-6.89778561602,-13.6797041095,-2.24841733573,0.595078054033,15.4844803414
7.170124,1.33456364334,4.51527278252,45.3066981708,42.1651054924,483,-164,-0.325970917426,-0.363255172687,-0.483630053958,-0.660829047543,-0.00158269847569,-0.00158269847569,0.363515625,0.39380859375,4.08458781362,2206,2423,2750,2778,2343,2045,2090,2357,0.543112221359,0.182909500708,14.8622206477,0.18748237694,-0.0631403724848,1972.85591398,-669.872401434,-0.0376581630782,0.660832838126,0.6871021675,-0.444596979941,0.307589469823,-0.246927439671,-6.90543411979,-13.6161713417,-2.20832558098,0.594349154101,15.4260119363
7.171125,1.34108306174,4.52102521052,45.3129299678,42.1713372894,479,91,-0.379234139227,-0.131027525632,-0.425040509977,-0.663233297536,-0.00158845670138,-0.00158845670138,0.4644921875,0.4846875,4.07574671446,2206,2423,2750,2778,2343,2045,2090,2357,0.521587184275,0.098536528566,14.8628413915,0.180442500811,0.0340886014298,1952.28267622,370.892951016,-0.0380832035881,0.66323710191,0.584505072647,-0.442885960409,0.308126385407,-0.247291876195,-6.91139350646,-13.548190036,-2.16580529418,0.593500729017,15.3626666313
7.172126,1.34760248014,4.52754462892,45.3191617648,42.1775690864,475,-12,-0.421844716669,0.0884169481906,-0.370712023739,-0.66591596462,-0.00159488174144,-0.00159488174144,0.49478515625,0.45439453125,4.08016726404,2206,2423,2750,2778,2343,2045,2090,2357,0.514082873535,0.0131336640724,14.8633691353,0.177653709953,-0.00453865372268,1938.07945042,-48.9620071685,-0.0384539156119,0.665919784382,0.568504992285,-0.441104727261,0.30857586355,-0.24759239234,-6.91557737622,-13.4759176894,-2.12082044308,0.592532224206,15.2945561351
7.173127,1.35412189854,4.53291356172,45.3253935618,42.1838008834,471,148,-0.415453130052,0.227966589311,-0.311057215321,-0.668707569408,-0.00160156768943,-0.00160156768943,0.4241015625,0.363515625,4.08016726404,2201,2414,2717,2709,2402,2103,2131,2423,0.519803235024,0.166041883561,14.8640556663,0.179630518543,0.0573797691787,1921.75878136,603.864755078,-0.0387649728272,0.668711405182,0.566856825235,-0.439253257026,0.308934993696,-0.247833984293,-6.91793423026,-13.3995296457,-2.07335846648,0.591443943166,15.2218272251
7.174128,1.36294228814,4.53828249452,45.3316253588,42.1900326804,138,159,-0.409061543436,0.278034017804,-0.258859257956,-0.671397521117,-0.00160801017631,-0.00160801017631,0.363515625,0.5048828125,4.07574671446,2201,2414,2717,2709,2402,2103,2131,2423,0.154471153374,0.171199984743,14.8643816631,0.0534391220841,0.0592264425145,562.453046595,648.043727599,-0.0390238320851,0.671401372321,0.558249385852,-0.437331721738,0.309201195536,-0.248022690621,-6.91842105344,-13.3192280698,-2.02342112601,0.590236960231,15.1446564603
7.175129,1.36984520174,4.54441841772,45.3378571558,42.1962644774,380,61,-0.388821519152,0.231162382619,-0.216248680514,-0.673750857654,-0.00161364646328,-0.00161364646328,0.41400390625,0.51498046875,4.08458781362,2201,2414,2717,2709,2402,2103,2131,2423,0.421495655246,0.065799808703,14.8648694458,0.14550032978,0.0227140985834,1552.14336918,249.159856631,-0.0392400807657,0.673754722358,0.501379808845,-0.435340566496,0.3093715027,-0.248166073279,-6.91696945252,-13.2352543288,-1.97101266748,0.588913011782,15.0632438236
7.17613,1.37483063934,4.55017084572,45.3440889528,42.2024962744,645,117,-0.378168874791,0.199204449538,-0.176833896381,-0.675527516813,-0.00161790159667,-0.00161790159667,0.3029296875,0.4846875,4.08016726404,2201,2414,2717,2709,2402,2103,2131,2423,0.73542450246,0.126983352814,14.8657327161,0.254143637102,0.043882153814,2631.7078853,477.379569892,-0.039416914662,0.675531391708,0.462562793019,-0.433280559111,0.309442212041,-0.248273375522,-6.91346869247,-13.1478937812,-1.91613371477,0.587474420285,14.9778078722
7.177131,1.38173355294,4.55745725452,45.3503207498,42.2087280714,387,-98,-0.354733057199,0.167246516457,-0.1448759633,-0.676500194598,-0.00162023117896,-0.00162023117896,0.3029296875,0.37361328125,4.07132616487,2201,2414,2717,2709,2402,2103,2131,2423,0.439267995818,0.109149379358,14.8662816819,0.152129269192,-0.0378011042746,1575.60322581,-398.989964158,-0.0395617906253,0.676504075073,0.418086096251,-0.431152808492,0.309408972565,-0.248355288639,-6.9077690009,-13.0574714604,-1.85878207234,0.585924061606,14.8885830186
7.178132,1.38786947614,4.56205919692,45.3565525468,42.2149598684,488,273,-0.308926686449,0.121440145708,-0.120374881272,-0.676466503702,-0.00162015048861,-0.00162015048861,0.49478515625,0.49478515625,4.08016726404,2098,2310,2655,2658,2458,2146,2138,2412,0.528152510074,0.295462367316,14.8671061204,0.182515811488,0.102104132247,1991.12162485,1113.88566308,-0.0396821655066,0.676470383983,0.353091374337,-0.428958785754,0.309267134094,-0.248423609248,-6.89969784151,-12.9643463043,-1.79895744369,0.584265427471,14.7958221565
7.179133,1.39400539934,4.56934560572,45.3627843438,42.2211916654,489,-90,-0.270577166752,0.0127831732324,-0.104395914731,-0.675253743277,-0.0016172459037,-0.0016172459037,0.41400390625,0.40390625,4.07132616487,2098,2310,2655,2658,2458,2146,2138,2412,0.538684025258,0.0994180308306,14.8677448605,0.186559475919,-0.0344308998578,1990.87849462,-366.419354839,-0.0397865614213,0.675257616601,0.290299706679,-0.426700386191,0.309012460996,-0.248490906414,-6.88909567331,-12.868908964,-1.73667144154,0.582502919475,14.6998124075
7.180134,1.40129180814,4.57624851932,45.3690161408,42.2274234624,326,-49,-0.265250844572,-0.113983294655,-0.0990695925509,-0.672721541846,-0.00161118123182,-0.00161118123182,0.45439453125,0.49478515625,4.07574671446,2098,2310,2655,2658,2458,2146,2138,2412,0.35597677332,0.052908937246,14.8681541551,0.123149765073,-0.0183037874391,1328.69342891,-199.711589008,-0.0398856310139,0.672725400646,0.305229399264,-0.424380008774,0.308642010184,-0.248570207836,-6.87586062551,-12.771581557,-1.67195996215,0.58064225692,14.6008974013
7.181135,1.40781122654,4.58391842332,45.3752479378,42.2336552594,422,-167,-0.26844663788,-0.18535601187,-0.111852765783,-0.668766590961,-0.0016017090472,-0.0016017090472,0.47458984375,0.35341796875,4.08016726404,2098,2310,2655,2658,2458,2146,2138,2412,0.459294617096,0.187867098683,14.868801964,0.158720309291,-0.0649219975557,1721.83058542,-681.387933094,-0.0399974837797,0.668770427074,0.344864451254,-0.422000584754,0.308154590551,-0.24867473488,-6.85997144481,-12.6728146649,-1.60488940898,0.578690650502,14.4994865347
7.182136,1.41394714974,4.58928735612,45.3814797348,42.2398870564,474,143,-0.298274042089,-0.238619233671,-0.138484376684,-0.663323940986,-0.00158867379421,-0.00158867379421,0.323125,0.3837109375,4.08016726404,2098,2310,2655,2658,2458,2146,2138,2412,0.537561926301,0.159560613,14.8694997837,0.185767461733,0.0551400101444,1933.99928315,583.463918757,-0.0401359681564,0.66332774588,0.406305876708,-0.419565546253,0.307550723977,-0.24881768929,-6.84148450056,-12.5730809112,-1.53555560507,0.57665668983,14.3960482351
7.183137,1.41931608254,4.59503978412,45.3877115318,42.2461188534,584,99,-0.318514066373,-0.286556133293,-0.158724400969,-0.656359009494,-0.00157199264726,-0.00157199264726,0.29283203125,0.40390625,4.07574671446,2098,2310,2655,2658,2458,2146,2138,2412,0.666151013645,0.109610534978,14.870276321,0.230454195278,0.0379196415153,2380.23608124,403.498924731,-0.0402946925573,0.656362774436,0.456901590573,-0.417078776215,0.306832456188,-0.249012071522,-6.82052312642,-12.4728678869,-1.46408049194,0.574550148815,14.2910986537
7.184138,1.42545200574,4.59925823132,45.3939433288,42.2523506504,486,325,-0.349406735018,-0.35153726389,-0.184290747433,-0.647856199886,-0.00155162825217,-0.00155162825217,0.43419921875,0.41400390625,4.07132616487,2130,2351,2702,2732,2416,2106,2128,2386,0.53242291289,0.358021080182,14.8711676554,0.184391099306,0.123991471725,1978.66451613,1323.18100358,-0.0404789833048,0.647859916055,0.528797308966,-0.414544522298,0.306003241979,-0.249270441413,-6.79727038159,-12.3726685083,-1.39060971265,0.572381776467,14.185189672
7.185139,1.43120443374,4.60692813532,45.4001751258,42.2585824474,542,-144,-0.357928850507,-0.428236303285,-0.237553969235,-0.637813838939,-0.00152757660157,-0.00152757660157,0.41400390625,0.35341796875,4.07132616487,2130,2351,2702,2732,2416,2106,2128,2386,0.59706900141,0.161258702956,14.8719267415,0.206779623616,-0.0558478397358,2206.65878136,-586.270967742,-0.040716537274,0.637817497504,0.60657339356,-0.41196720764,0.305068021626,-0.249604474358,-6.7719700727,-12.272962945,-1.31531244162,0.570163021958,14.0788935977
7.18614,1.43810734734,4.61268056332,45.4064069228,42.2648142444,383,112,-0.378168874791,-0.445280534261,-0.269511902316,-0.626243847466,-0.00149986624601,-0.00149986624601,0.41400390625,0.40390625,4.07574671446,2130,2351,2702,2732,2416,2106,2128,2386,0.422882692069,0.124003837551,14.8724741749,0.146295792548,0.0428989883809,1561.01099164,456.483632019,-0.0409860491763,0.626247439665,0.643368570528,-0.409351192897,0.304033393884,-0.250024428957,-6.74493207967,-12.1741967928,-1.23838236529,0.567905730556,13.9727866652
7.187141,1.44385977534,4.61996697212,45.4126387198,42.2710460414,539,-102,-0.387756254716,-0.41332260118,-0.287621397729,-0.613167833474,-0.00146854893711,-0.00146854893711,0.43419921875,0.39380859375,4.08016726404,2130,2351,2702,2732,2416,2106,2128,2386,0.593206228631,0.113501562274,14.8731815894,0.204996689656,-0.0392231966117,2199.21015532,-416.177060932,-0.041273670574,0.613171350667,0.63554429755,-0.406700646389,0.3029076127,-0.250538863829,-6.71653060905,-12.0767690572,-1.16003664437,0.565621923102,13.8674373732
7.188142,1.44884521294,4.62380192412,45.4188705168,42.2772778384,655,378,-0.38669099028,-0.317448801937,-0.25779399352,-0.5986085513,-0.00143367917194,-0.00143367917194,0.41400390625,0.33322265625,4.07574671446,2130,2351,2702,2732,2416,2106,2128,2386,0.723206692703,0.42656940183,14.8743325152,0.250192543392,0.147571205651,2669.61409797,1540.63225806,-0.0415314645676,0.59861198498,0.562815606491,-0.404019544252,0.301700369525,-0.251154649429,-6.68719376983,-11.9810318091,-1.08051241759,0.563323675198,13.7634004087
7.189143,1.45498113614,4.62763687612,45.4251023138,42.2835096354,506,409,-0.393082576896,-0.205596036154,-0.230097118183,-0.582581916714,-0.00139529506909,-0.00139529506909,0.3433203125,0.3029296875,4.06248506571,2199,2424,2727,2746,2337,2045,2091,2351,0.565605760315,0.462144388411,14.8753612931,0.196309428624,0.160400242,2055.61744325,1661.55639188,-0.0417615616858,0.582585258464,0.49972825229,-0.401311698481,0.300422423694,-0.251877093406,-6.65738590649,-11.8872925462,-1.00006056199,0.561022978298,13.6612090356
7.190144,1.46265104014,4.63530678012,45.4313341108,42.2897414324,287,-109,-0.387756254716,-0.121440145708,-0.205596036154,-0.565092656565,-0.00135340794945,-0.00135340794945,0.4644921875,0.40390625,4.07132616487,2199,2424,2727,2746,2337,2045,2091,2351,0.311795653946,0.120406281784,14.8757939273,0.107982474078,-0.0416996453833,1168.47060932,-443.774551971,-0.0419671577219,0.565095897994,0.455381545677,-0.39858075333,0.299084972924,-0.252710124346,-6.62757607297,-11.7958139372,-0.918933595605,0.558731460454,13.5613579702
7.191145,1.46878696334,4.64067571292,45.4375659078,42.2959732294,488,202,-0.370712023739,-0.0639158661619,-0.173638103073,-0.546133527854,-0.00130800046589,-0.00130800046589,0.4846875,0.33322265625,4.08016726404,2199,2424,2727,2746,2337,2045,2091,2351,0.529639967292,0.228471862218,14.8765527972,0.18302983813,0.0789539508752,1991.12162485,824.193787336,-0.042140795825,0.546136660532,0.414322137148,-0.395830164124,0.297698909738,-0.253656502589,-6.59820039638,-11.7068122326,-0.837370919471,0.556460044384,13.4642820521
7.192146,1.47415589614,4.64642814092,45.4437977048,42.3022050264,599,157,-0.339819355094,-0.0585895439817,-0.120374881272,-0.525687775908,-0.00125903249065,-0.00125903249065,0.282734375,0.29283203125,4.07574671446,2199,2424,2727,2746,2337,2045,2091,2351,0.685084871469,0.179085118394,14.8774178314,0.237004342136,0.0619542956485,2441.37228196,639.89223417,-0.0422611707062,0.525690791307,0.365239703211,-0.393063198212,0.296274386967,-0.254717968002,-6.56964083333,-11.6204580479,-0.755590655611,0.554218759502,13.3703456635
7.193147,1.48067531454,4.65218056892,45.4500295018,42.3084368234,446,163,-0.296143513217,-0.0713727172141,-0.0809600971384,-0.503735250979,-0.00120645576468,-0.00120645576468,0.40390625,0.323125,4.07132616487,2199,2424,2727,2746,2337,2045,2091,2351,0.492671575005,0.184023168518,14.8780952028,0.170624237073,0.0637317318983,1815.81146953,663.626164875,-0.0423421308034,0.503738140456,0.315197687986,-0.390282963934,0.294820750287,-0.25589531205,-6.54222339709,-11.5368800366,-0.67378935815,0.552016736581,13.2798448807
7.194148,1.48681123774,4.65448154012,45.4562612988,42.3146686204,497,663,-0.258859257956,-0.0830906260105,-0.0308926686449,-0.480261989838,-0.00115023684578,-0.00115023684578,0.444296875,0.41400390625,4.07574671446,2199,2424,2727,2746,2337,2045,2091,2351,0.544214034881,0.732039751545,14.8793727329,0.188270234375,0.253248330181,2025.64611708,2702.22007168,-0.042373023472,0.48026474467,0.273617478492,-0.387492444701,0.293346584952,-0.257188427297,-6.51622240238,-11.456169267,-0.592144083112,0.549862256151,13.1930134271
7.195149,1.49294716094,4.66100095852,45.4624930958,42.3209004174,498,109,-0.222640267131,-0.1182443524,-0.00106526443603,-0.45527061881,-0.00109038202406,-0.00109038202406,0.41400390625,0.4241015625,4.05806451613,2175,2401,2696,2706,2294,2016,2057,2310,0.544828721419,0.11891922027,14.8800371445,0.189304160677,0.0413192298727,2020.91612903,442.329032258,-0.0423740887365,0.455273230289,0.252094328002,-0.384694542213,0.291859738242,-0.25859637006,-6.49186360032,-11.3783837463,-0.510813053743,0.547762795582,13.1100282097
7.19615,1.49678211294,4.66752037692,45.4687248928,42.3271322144,829,106,-0.187486540742,-0.165115987585,0.0223705531567,-0.428788262265,-0.0010269562629,-0.0010269562629,0.47458984375,0.3433203125,4.07574671446,2175,2401,2696,2706,2294,2016,2057,2310,0.900181057828,0.119297245823,14.8810576423,0.311416626317,0.0412707482567,3378.79402628,432.029151732,-0.0423517181833,0.428790721838,0.25082849512,-0.381892155667,0.290367277917,-0.260117456591,-6.46932453115,-11.3035539348,-0.429932690515,0.545725082682,13.0310142953
7.197151,1.50368502654,4.67173882412,45.4749566898,42.3333640114,420,431,-0.166181252021,-0.237553969235,0.0468716351854,-0.400872223685,-0.000960096805267,-0.000960096805267,0.37361328125,0.323125,4.06248506571,2175,2401,2696,2706,2294,2016,2057,2310,0.465651215092,0.484386962594,14.8820086305,0.161617385088,0.168120154588,1706.2437276,1750.93106332,-0.0423048465481,0.400874523129,0.293675070456,-0.379088276146,0.288875418945,-0.261749375695,-6.44873345098,-11.2316885983,-0.34961282524,0.543755151202,12.9560495915
7.198152,1.51020444494,4.67749125212,45.4811884868,42.3395958084,466,236,-0.142745434428,-0.28442560442,0.0607200728538,-0.371615148293,-0.000890025538275,-0.000890025538275,0.49478515625,0.37361328125,4.07132616487,2175,2401,2696,2706,2294,2016,2057,2310,0.502008573367,0.2628495258,14.8827742535,0.173857868366,0.0910312307022,1897.23799283,960.83297491,-0.0422441264753,0.371617279915,0.323977021944,-0.376286035105,0.287389511482,-0.263489268998,-6.43017074401,-11.1627790895,-0.269935334609,0.541858382239,12.8851696878
7.199153,1.51634036814,4.68401067052,45.4874202838,42.3458276054,518,133,-0.111852765783,-0.352602528326,0.0426105774413,-0.341147016472,-0.000817053767483,-0.000817053767483,0.282734375,0.3837109375,4.07574671446,2175,2401,2696,2706,2294,2016,2057,2310,0.592444012389,0.148064464773,14.8835155025,0.204955340946,0.0512227353555,2111.23679809,542.074313023,-0.0422015158978,0.341148973326,0.372364398816,-0.373488698829,0.285914103095,-0.265333771832,-6.41367336697,-11.0968018069,-0.190956929081,0.540039529087,12.8183727886
7.200154,1.52055881534,4.69014659372,45.4936520808,42.3520594024,793,184,-0.0852211548825,-0.371777288175,0.0287621397729,-0.30963107115,-0.000741572462891,-0.000741572462891,0.29283203125,0.35341796875,4.08016726404,2148,2385,2688,2701,2295,2005,2056,2318,0.906590188444,0.206991294357,14.8846301975,0.313294059529,0.0715308236542,3235.57264038,750.750776583,-0.0421727537581,0.309632847225,0.382502624732,-0.370699650107,0.284453072566,-0.267278984908,-6.39924203454,-11.0337196519,-0.112713946916,0.53830273718,12.755625128
7.201155,1.52822871934,4.69513203132,45.4998838778,42.3582911994,325,350,-0.0607200728538,-0.383495196971,0.0,-0.277256153301,-0.000664033902321,-0.000664033902321,0.4241015625,0.444296875,4.05806451613,2148,2385,2688,2701,2295,2005,2056,2318,0.354575656767,0.379728617861,14.8853652361,0.123199538611,0.131939092899,1318.87096774,1420.32258065,-0.0421727537581,0.277257743671,0.38827244732,-0.36792238229,0.283009906095,-0.269320282744,-6.38685379967,-10.9734824152,-0.0352294672355,0.536651563899,12.696868074
7.202156,1.53244716654,4.70241844012,45.5061156748,42.3645229964,801,36,-0.0117179087963,-0.366450965995,-0.0223705531567,-0.244228703108,-0.000584932514039,-0.000584932514039,0.43419921875,0.39380859375,4.07574671446,2148,2385,2688,2701,2295,2005,2056,2318,0.879532301889,0.0399679879216,14.8862856559,0.304273212382,0.0138268805492,3264.67311828,146.72688172,-0.0421951243112,0.244230104029,0.36732010769,-0.36516049944,0.28158803883,-0.271452044662,-6.37647704874,-10.9160265882,0.0414786312157,0.535088989341,12.642025807
7.203157,1.53935008014,4.70702038252,45.5123474718,42.3707547934,442,407,0.0149137021044,-0.306796157577,-0.0479368996214,-0.210765135783,-0.00050478661671,-0.00050478661671,0.2625390625,0.4241015625,4.06690561529,2148,2385,2688,2701,2295,2005,2056,2318,0.505935122641,0.446087882109,14.8872386309,0.175408182634,0.154659088081,1797.57228196,1655.23058542,-0.0422430612108,0.210766344753,0.310876578661,-0.362417704051,0.280191038299,-0.273667557144,-6.36808027158,-10.8612760255,0.11739267668,0.533617411621,12.5910104554
7.204158,1.54433551774,4.71277281052,45.5185792688,42.3769865904,708,263,0.0628506017259,-0.219444473823,-0.068176923906,-0.177084352053,-0.000424120481849,-0.000424120481849,0.4846875,0.39380859375,4.07132616487,2148,2385,2688,2701,2295,2005,2056,2318,0.764861660667,0.291321483849,14.8882958703,0.264890332503,0.100891767349,2882.49892473,1070.75878136,-0.0423112381347,0.177085367827,0.238231333333,-0.359697769885,0.278822599001,-0.275959121804,-6.3616334183,-10.8091436595,0.192493816082,0.532238634712,12.5437243381
7.205159,1.55162192654,4.72005921932,45.5248110658,42.3832183874,395,49,0.0905474770627,-0.154463343225,-0.0852211548825,-0.143400358802,-0.000343446660122,-0.000343446660122,0.363515625,0.3433203125,4.06690561529,2148,2385,2688,2701,2295,2005,2056,2318,0.440135855463,0.0548968712173,14.888791398,0.152595514848,0.019032796858,1606.42771804,199.278375149,-0.0423964592896,0.143401181361,0.198293759968,-0.357004511161,0.277486481362,-0.278318220637,-6.35710699808,-10.7595334335,0.26676181721,0.530953858887,12.5000612382
7.20616,1.55699085934,4.72466116172,45.543889952,42.4022972736,819,583,0.1182443524,-0.0735032460862,-0.0948085348068,-0.109916372239,-0.00026325185832,-0.00026325185832,0.323125,0.525078125,4.08016726404,2158,2407,2680,2687,2312,2013,2083,2345,0.928825353673,0.625638013729,14.8903474159,0.320977956032,0.216204273568,3341.65698925,2378.73751493,-0.0424912678244,0.109917002731,0.168443202094,-0.354341704976,0.276186442423,-0.280735697623,-6.35447023327,-10.7123404954,0.340175260267,0.529763651814,12.4599056996
7.207161,1.56312678254,4.73233106572,45.550121749,42.4085290706,720,165,0.13422331894,-0.035153726389,-0.0894822126267,-0.0768218722207,-0.000183989884398,-0.000183989884398,0.45439453125,0.41400390625,4.05364396655,2158,2407,2680,2687,2312,2013,2083,2345,0.77717022856,0.180100158335,14.8913056435,0.270327150414,0.0626451719363,2918.62365591,668.85125448,-0.0425807500371,0.0768223128788,0.165102241665,-0.351712878294,0.274926132172,-0.283202007373,-6.35368630775,-10.6674467722,0.412712696342,0.528667857817,12.4231269053
7.208162,1.56849571534,4.73961747452,45.556353546,42.4147608676,831,201,0.145941227736,-0.0202400242846,-0.0756337749583,-0.0442926085178,-0.000106081662492,-0.000106081662492,0.31302734375,0.51498046875,4.06690561529,2158,2407,2680,2687,2312,2013,2083,2345,0.938580257502,0.214807810209,14.892460185,0.325406657608,0.0744740697341,3379.59856631,817.448028674,-0.042656383812,0.0442928625847,0.165616932862,-0.349121031014,0.273708976063,-0.285707490578,-6.35470627529,-10.6247142603,0.484354293695,0.527665488777,12.3895699699
7.209165,1.57539862894,4.74652038812,45.562585343,42.4209926646,623,243,0.141680169992,0.0106526443603,-0.0639158661619,-0.0124935197953,-2.99222239252e-05,-2.99222239252e-05,0.363515625,0.5048828125,4.06248506571,2158,2407,2680,2687,2312,2013,2083,2345,0.692606686006,0.259825370183,14.8934154743,0.240388681182,0.090179721533,2530.92819594,987.183870968,-0.0427202996782,0.0124935914595,0.155794696149,-0.346568501765,0.272538103546,-0.288242559332,-6.35746616796,-10.5839827736,0.555082601748,0.526754703169,12.3590527195
7.210164,1.58191804734,4.75188932092,45.56881714,42.4272244616,669,454,0.121440145708,0.035153726389,-0.0372842552611,0.0184167981835,4.41085913518e-05,4.41085913518e-05,0.45439453125,0.3837109375,4.07132616487,2158,2407,2680,2687,2312,2013,2083,2345,0.728833667531,0.504270382042,14.8946473453,0.25241295578,0.174641188125,2723.7172043,1848.38207885,-0.0427575839334,0.0184169038241,0.131808987398,-0.3440570051,0.271416330702,-0.290797776378,-6.36188792869,-10.5450730899,0.624882237052,0.525932879821,12.3313690359
7.211165,1.58805397054,4.75994272012,45.575048937,42.4334562586,720,81,0.0905474770627,0.0458063707494,0.00426105774413,0.0482835710049,0.000115640095595,0.000115640095595,0.363515625,0.40390625,4.06248506571,2165,2415,2681,2708,2310,2027,2095,2342,0.800444324116,0.089066692253,14.8955377458,0.2778167744,0.0309131071365,2924.98924731,329.061290323,-0.0427533228757,0.0482838479644,0.101563900165,-0.341587678488,0.270346144861,-0.293363916597,-6.36788104947,-10.5077904203,0.693740954234,0.525196694294,12.306292906
7.212166,1.59572387454,4.76607864332,45.581280734,42.4396880556,502,332,0.0490021640575,0.066046395034,0.0362189908251,0.0769560178753,0.000184311165859,0.000184311165859,0.41400390625,0.51498046875,4.07132616487,2165,2415,2681,2708,2310,2027,2095,2342,0.553004868465,0.355634645055,14.896447294,0.191519134788,0.123164990772,2043.80573477,1351.68028674,-0.0427171038849,0.0769564593029,0.0898618588484,-0.339161011224,0.26932964488,-0.295932076713,-6.37534291364,-10.4719243768,0.761655514595,0.524542127168,12.2835791422
7.213167,1.60224329294,4.77298155692,45.587512531,42.4459198526,648,223,0.0159789665405,0.031957933081,0.06711165947,0.104287771812,0.000249771250361,0.000249771250361,0.363515625,0.41400390625,4.07132616487,2165,2415,2681,2708,2310,2027,2095,2342,0.723693295038,0.245657541171,14.8974176141,0.250632718844,0.0850772252145,2638.21935484,907.905734767,-0.0426499922254,0.104288370017,0.0760303340472,-0.336776713297,0.268368460865,-0.298493806217,-6.38415845268,-10.437247068,0.828639890289,0.523964443217,12.2629625122
7.214168,1.60991319694,4.77988447052,45.593744328,42.4521516496,480,215,-0.0159789665405,0.0138484376684,0.0937432703708,0.130135994008,0.000311678247368,0.000311678247368,0.45439453125,0.39380859375,4.07132616487,2165,2415,2681,2708,2310,2027,2095,2342,0.522929985673,0.238152543831,14.8981794578,0.18110346603,0.0824780607604,1954.23655914,875.335125448,-0.042556248955,0.130136740481,0.0960984252596,-0.334433690908,0.267463722305,-0.301041181413,-6.39420087307,-10.4035139796,0.894728704276,0.523458240235,12.2441597255
7.215169,1.61489863454,4.78832136492,45.599976125,42.4583834466,846,-14,-0.0415453130052,-0.0181094954125,0.0990695925509,0.15435921657,0.000369693338515,0.000369693338515,0.53517578125,0.51498046875,4.07574671446,2165,2415,2681,2708,2310,2027,2095,2342,0.90318551097,0.015031585773,14.8990985931,0.312456013508,-0.00520016022211,3448.08172043,-57.0604540024,-0.0424571793625,0.15436010199,0.108943797552,-0.332130152186,0.266616084111,-0.303566811817,-6.40533370066,-10.3704683083,0.959974914195,0.523017574786,12.226874686
7.21617,1.62295203374,4.79330680252,45.606207922,42.4646152436,423,451,-0.0564590151097,-0.00213052887206,0.105461179167,0.176816651333,0.000423479333395,0.000423479333395,0.39380859375,0.41400390625,4.06690561529,2165,2415,2681,2708,2310,2027,2095,2342,0.467479932804,0.495683809715,14.90006272,0.162075732167,0.171854042806,1720.30107527,1834.1744325,-0.0423517181833,0.176817665572,0.119642048845,-0.329863744727,0.265825769418,-0.30606382545,-6.41741310643,-10.3378460125,1.0244459467,0.522636101911,12.2108042591
7.217171,1.62908795694,4.80059321132,45.612439719,42.4708470406,674,138,-0.0585895439817,-0.0138484376684,0.102265385859,0.19737231196,0.000472710542073,0.000472710542073,0.49478515625,0.53517578125,4.07132616487,2164,2407,2680,2699,2320,2032,2085,2338,0.726081069633,0.146984595319,14.9009366587,0.251459663688,0.0509043665398,2744.07383513,561.843010753,-0.0422494527975,0.197373444107,0.118670649424,-0.327631714146,0.265092617108,-0.308525874515,-6.43029044634,-10.3053820038,1.08821957953,0.522307238132,12.1956449326
7.218172,1.63637436574,4.80596214412,45.618671516,42.4770788376,511,399,-0.0468716351854,-0.0639158661619,0.0830906260105,0.215901237128,0.000517087679744,0.000517087679744,0.3837109375,0.49478515625,4.06248506571,2164,2407,2680,2699,2320,2032,2085,2338,0.564991498913,0.42783775101,14.9019304808,0.196096231883,0.148493156077,2075.92986858,1620.93154122,-0.0421663621714,0.215902475559,0.114831355748,-0.325431147193,0.264416146813,-0.310947198184,-6.44381577021,-10.2728205745,1.15137838448,0.522024415442,12.1811032514
7.219173,1.64289378414,4.81324855292,45.624903313,42.4833106346,607,136,-0.0468716351854,-0.0564590151097,0.0479368996214,0.232291782819,0.000556343356802,0.000556343356802,0.51498046875,0.53517578125,4.07132616487,2164,2407,2680,2699,2320,2032,2085,2338,0.650211534784,0.144854383793,14.9027263418,0.225184184936,0.0501666220972,2471.29498208,553.700358423,-0.0421184252718,0.232293115268,0.0876499681541,-0.323259249618,0.263795631241,-0.313322712758,-6.45784170664,-10.2399276232,1.21400364656,0.521781371702,12.1669076634
7.220174,1.64864621214,4.81938447612,45.63113511,42.4895424316,713,287,-0.0362189908251,-0.0766990393943,0.00958737992429,0.246444738709,0.000590239962586,0.000590239962586,0.525078125,0.40390625,4.07132616487,2164,2407,2680,2699,2320,2032,2085,2338,0.761588972533,0.317033053871,14.9038060424,0.26375692042,0.109796313991,2902.85555556,1168.47060932,-0.0421088378919,0.246446152341,0.0853608563348,-0.321113513332,0.263230146335,-0.315648043521,-6.47222599365,-10.2064975668,1.27617144783,0.52157232074,12.1528151248
7.221175,1.65516563054,4.82552039932,45.637366907,42.4957742286,609,288,-0.0276968753368,-0.0415453130052,-0.0255663464648,0.25827541616,0.000618574666148,0.000618574666148,0.3837109375,0.51498046875,4.06690561529,2164,2407,2680,2699,2320,2032,2085,2338,0.67488872488,0.307784325076,14.9047896981,0.233984555359,0.106709114843,2476.74551971,1171.2688172,-0.0421344042384,0.258276897654,0.0560960605362,-0.318991753288,0.262718595229,-0.317919486322,-6.48683242181,-10.1723539801,1.33795127144,0.521391981841,12.1386116986
7.222176,1.66091805854,4.83050583692,45.643598704,42.5020060256,715,454,-0.0276968753368,-0.0372842552611,-0.0649811305979,0.267719053663,0.000641192362415,0.000641192362415,0.35341796875,0.51498046875,4.07132616487,2104,2338,2607,2618,2304,2008,2070,2320,0.800694254261,0.486319665226,14.9060779991,0.277300037577,0.168424415092,2910.99820789,1848.38207885,-0.042199385369,0.267720589327,0.0798735245722,-0.316892100011,0.262259716661,-0.320133921568,-6.50153099769,-10.1373478109,1.3994040894,0.521235541546,12.1241105966
7.223177,1.66743747694,4.83817574092,45.649830501,42.5082378226,612,85,-0.0202400242846,-0.0372842552611,-0.104395914731,0.274733673867,0.000657992514808,0.000657992514808,0.4644921875,0.53517578125,4.06248506571,2104,2338,2607,2618,2304,2008,2070,2320,0.661804340419,0.090111528592,14.9068306669,0.229697858551,0.0312757470513,2486.24086022,345.311230585,-0.0423037812837,0.274735249768,0.112686650877,-0.314812985503,0.261852073206,-0.322288652255,-6.51619738261,-10.101354382,1.46057659201,0.521098550618,12.1091483046
7.224178,1.67395689534,4.84584564492,45.656062298,42.5144696196,608,66,-0.034088461953,-0.0202400242846,-0.12889699676,0.279297569638,0.000668923134318,0.000668923134318,0.363515625,0.5452734375,4.07132616487,2104,2338,2607,2618,2304,2008,2070,2320,0.679020869419,0.0700962437875,14.9075805331,0.23516156336,0.0242760466094,2475.36630824,268.707526882,-0.0424326782805,0.279299171717,0.134855914201,-0.312753125094,0.261494029616,-0.324381207484,-6.53071195488,-10.0642698059,1.52149362785,0.520976786958,12.0935796282
7.225179,1.68047631374,4.85351554892,45.662294095,42.5207014166,604,48,-0.0543284862376,-0.00426105774413,-0.159789665405,0.281405160909,0.000673970856577,0.000673970856577,0.41400390625,0.3837109375,4.07574671446,2104,2338,2607,2618,2304,2008,2070,2320,0.666895942584,0.0534367993167,14.9083015862,0.230711902609,0.0184864007298,2461.75101553,195.635842294,-0.0425924679459,0.281406775078,0.168826769797,-0.310711502223,0.261183750991,-0.326409231666,-6.54495949468,-10.0260085991,1.58215485628,0.520866178506,12.0772744113
7.22618,1.68661223694,4.85888448172,45.668525892,42.5269332136,656,359,-0.0735032460862,0.0511326929295,-0.174703367509,0.281067685926,0.0006731625974,0.0006731625974,0.323125,0.41400390625,4.07574671446,2104,2338,2607,2618,2304,2008,2070,2320,0.742287121869,0.396383515542,14.9094413955,0.25679339644,0.13712843218,2673.68984468,1463.19307049,-0.0427671713134,0.281069298159,0.196312368664,-0.308687357312,0.260919224925,-0.328370475958,-6.55882963333,-9.98650275202,1.64253643675,0.520762802032,12.0601164721
7.227181,1.69351515054,4.86693788092,45.674757689,42.5331650106,547,-14,-0.0948085348068,0.0149137021044,-0.170442309765,0.278318232451,0.000666577602628,0.000666577602628,0.5048828125,0.4241015625,4.06690561529,2104,2338,2607,2618,2304,2008,2070,2320,0.586238352609,0.0153445463133,14.91004358,0.203249387955,-0.00531996863179,2224.59737157,-56.9366786141,-0.0429376136231,0.278319828913,0.195605873482,-0.306680176968,0.260698289911,-0.330262820133,-6.57221747843,-9.94570120162,1.70259417206,0.520662904065,12.0420032341
7.228182,1.70003456894,4.87345729932,45.680989486,42.5393968076,593,182,-0.112918030219,-0.00532632218016,-0.176833896381,0.273211543908,0.000654346983828,0.000654346983828,0.5048828125,0.4846875,4.07574671446,2085,2319,2575,2610,2298,2012,2082,2328,0.638500572028,0.197073057132,14.9108799892,0.220888556045,0.0681772028597,2416.91780167,741.785902031,-0.0431144475195,0.273213111077,0.209878722518,-0.304689637606,0.260518630642,-0.332084265606,-6.58502278453,-9.90356800089,1.76226780593,0.520562860411,12.0228437585
7.229183,1.70693748254,4.88112720332,45.687221283,42.5456286046,535,14,-0.136353847812,-0.00852211548825,-0.183225482997,0.265815621327,0.000636633604794,0.000636633604794,0.3433203125,0.51498046875,4.07132616487,2085,2319,2575,2610,2298,2012,2082,2328,0.60074805847,0.0149966416589,14.9114963496,0.208053771214,0.00519370443015,2178.15949821,56.9985663082,-0.0432976730025,0.265817146072,0.22855322331,-0.302715422448,0.260377682845,-0.333832851573,-6.59714517526,-9.86007694437,1.821488964,0.520458968125,12.0025523893
7.230184,1.71268991054,4.88803011692,45.69345308,42.5518604016,691,105,-0.140614905556,0.0031957933081,-0.181094954125,0.256205391419,0.000613616916466,0.000613616916466,0.40390625,0.41400390625,4.08016726404,2085,2319,2575,2610,2298,2012,2082,2328,0.766811231348,0.116199749223,14.9123802436,0.264990076689,0.0401556200521,2819.39557945,428.417562724,-0.0434787679566,0.256206861039,0.229299252439,-0.300756977537,0.260272493981,-0.335506533174,-6.6084774361,-9.81520447226,1.88019074293,0.520347157639,11.9810404425
7.231185,1.71805884334,4.89416604012,45.699684877,42.5580921986,752,206,-0.152332814353,0.031957933081,-0.160854929841,0.244465453604,0.000585499536102,0.000585499536102,0.40390625,0.4241015625,4.07132616487,2085,2319,2575,2610,2298,2012,2082,2328,0.830692879829,0.226303743214,14.9134382972,0.287689296589,0.0783745308065,3061.63727599,838.693189964,-0.0436396228865,0.244466855882,0.223832312836,-0.298813396234,0.260199673469,-0.337103133807,-6.6189027027,-9.76892610261,1.93831317015,0.520222874031,11.958212581
7.232186,1.72381127134,4.90030196332,45.705916674,42.5643239956,708,207,-0.157659136533,0.0298274042089,-0.164050723149,0.230695296182,0.00055251974013,0.00055251974013,0.47458984375,0.35341796875,4.06248506571,2085,2319,2575,2610,2298,2012,2082,2328,0.763468106034,0.230755958929,14.9144335155,0.264983135223,0.0800903626295,2876.23942652,840.934408602,-0.0438036736096,0.230696619474,0.229474872567,-0.296883458626,0.260155451067,-0.33862038729,-6.62829635787,-9.72121712741,1.99580373709,0.520081160411,11.9339686443
7.233187,1.73186467054,4.90605439132,45.712148471,42.5705557926,385,263,-0.15020228548,0.0308926686449,-0.154463343225,0.215008608906,0.000514949817722,0.000514949817722,0.3433203125,0.4241015625,4.06690561529,2096,2335,2609,2631,2349,2058,2112,2375,0.431332559565,0.288258262886,14.9151538259,0.149543403884,0.0999394107257,1565.75866189,1069.59617682,-0.0439581369528,0.215009842217,0.217655709642,-0.294965742189,0.260135764275,-0.340056042354,-6.63652924406,-9.67205633909,2.05261678752,0.519916836486,11.9082085097
7.234188,1.73838408894,4.91219031452,45.718380268,42.5767875896,581,214,-0.141680169992,0.0234358175927,-0.156593872097,0.197527509101,0.000473082242262,0.000473082242262,0.33322265625,0.43419921875,4.08016726404,2096,2335,2609,2631,2349,2058,2112,2375,0.657139366083,0.235521582425,14.9160473795,0.227090324052,0.0813901513661,2370.57718041,873.155794504,-0.0441147308249,0.197528642139,0.2124715249,-0.293058804692,0.260136338673,-0.341408070528,-6.64347071571,-9.62143479981,2.10871397,0.519724781329,11.8808411051
7.235189,1.74452001214,4.91832623772,45.724612065,42.5830193866,632,215,-0.12357067458,0.0138484376684,-0.149137021044,0.178377339596,0.000427217212272,0.000427217212272,0.33322265625,0.4241015625,4.06690561529,2096,2335,2609,2631,2349,2058,2112,2375,0.709977722039,0.235648389812,14.9169939513,0.24614994366,0.0816995182739,2570.28434886,874.384707288,-0.044263867846,0.178378362787,0.194173483998,-0.291161397595,0.26015276128,-0.342674920143,-6.64899146152,-9.56936690439,2.16406524488,0.519500259428,11.8517951716
7.23619,1.74950544974,4.92407866572,45.730843862,42.5892511836,798,271,-0.0926780059348,0.0276968753368,-0.13954964112,0.157685150892,0.00037765901618,0.00037765901618,0.33322265625,0.37361328125,4.07132616487,2096,2335,2609,2631,2349,2058,2112,2375,0.898496154422,0.301831446999,14.9181954792,0.311171231788,0.104531625086,3248.91827957,1103.32939068,-0.0444034174871,0.15768605539,0.169795265023,-0.289272588103,0.260180546419,-0.343855650289,-6.65296585958,-9.5158957528,2.21864898716,0.519239111776,11.8210249147
7.237191,1.75564137294,4.92868060812,45.737075659,42.5954829806,650,442,-0.06711165947,0.00532632218016,-0.13422331894,0.135580255716,0.000324717360497,0.000324717360497,0.3837109375,0.4644921875,4.06248506571,2096,2335,2609,2631,2349,2058,2112,2375,0.718678031885,0.477969801413,14.9193933237,0.249437476955,0.165892897843,2640.61529271,1795.61839904,-0.044537640806,0.135581033418,0.150160726863,-0.28739177344,0.260215194326,-0.344949921959,-6.65527384737,-9.46109173938,2.27245097706,0.518937787658,11.7885096737
7.238192,1.76216079134,4.93596701692,45.743307456,42.6017147776,596,78,-0.0372842552611,-0.031957933081,-0.121440145708,0.112193532481,0.000268705701578,0.000268705701578,0.35341796875,0.4846875,4.06248506571,2096,2335,2609,2631,2349,2058,2112,2375,0.664398799621,0.0838741740611,14.9201423449,0.230598338779,0.0291108972743,2421.24109916,316.873835125,-0.0446590809518,0.112194176035,0.130992878305,-0.285518660552,0.260252243381,-0.345957945712,-6.65580247535,-9.40504913053,2.32546313359,0.518593324204,11.7542517637
7.239193,1.76906370494,4.94286993052,45.749539253,42.6079465746,537,119,-0.031957933081,-0.0415453130052,-0.115048559091,0.0876546333962,0.000209934558994,0.000209934558994,0.39380859375,0.4644921875,4.07574671446,2078,2318,2598,2599,2353,2047,2092,2360,0.596189153164,0.129580114674,14.92086884,0.206250968192,0.044828095191,2188.67598566,485.01385902,-0.0447741295108,0.0876551361921,0.126425841775,-0.283653287275,0.260287362628,-0.346880446935,-6.65444920441,-9.34788426889,2.37768080472,0.51820337995,11.7182763463
7.240194,1.77519962814,4.94900585372,45.75577105,42.6141783716,639,220,-0.0170442309765,-0.0436758418773,-0.112918030219,0.0620898918397,0.000148706503655,0.000148706503655,0.4846875,0.3837109375,4.07574671446,2078,2318,2598,2599,2353,2047,2092,2360,0.691921337953,0.244918663535,14.9218066168,0.23936941004,0.0847293366782,2604.40215054,896.66427718,-0.0448870475411,0.0620902479937,0.122264330538,-0.281796162393,0.260316569564,-0.34771867663,-6.65113058624,-9.28973803525,2.42909571008,0.517766425723,11.6806368323
7.241195,1.78248603694,4.95552527212,45.762002847,42.6204101686,475,167,-0.0127831732324,-0.0276968753368,-0.0969390636789,0.0356243109996,8.53209206369e-05,8.53209206369e-05,0.323125,0.39380859375,4.07132616487,2078,2318,2598,2599,2353,2047,2092,2360,0.536263834638,0.184983603813,14.9225285855,0.185721304612,0.064064354172,1933.87992832,679.911469534,-0.0449839866047,0.0356245153443,0.10162533389,-0.279948462506,0.26033650533,-0.348474445137,-6.64579342241,-9.23078044198,2.47968685916,0.517282008754,11.6414227954
7.242196,1.78823846494,4.96089420492,45.768234644,42.6266419656,681,328,-0.00958737992429,-0.0138484376684,-0.0958737992429,0.00838598130613,2.00845890223e-05,2.00845890223e-05,0.5048828125,0.4241015625,4.07574671446,2078,2318,2598,2599,2353,2047,2092,2360,0.733252764842,0.361156729373,14.9236240894,0.25366797077,0.124941765054,2775.58351254,1336.84492234,-0.045079860404,0.00838602940898,0.0973420898734,-0.278112106015,0.26034457055,-0.349150113618,-6.6384199785,-9.17121121965,2.52941617688,0.516750849798,11.6007620975
7.243197,1.79284040734,4.96664663292,45.774466441,42.6328737626,852,284,-0.0159789665405,-0.00852211548825,-0.0735032460862,-0.0194922949698,-4.66844271564e-05,-4.66844271564e-05,0.4644921875,0.444296875,4.06690561529,2078,2318,2598,2599,2353,2047,2092,2360,0.923471194305,0.309549406895,14.924858343,0.320168331193,0.107321070369,3465.00358423,1155.00119474,-0.0451533636501,0.0194924067796,0.0757012616097,-0.276289679361,0.260338894753,-0.349748534242,-6.6290260962,-9.11125554132,2.57822976388,0.516174741969,11.5588162559
7.244198,1.79859283534,4.97316605132,45.780698238,42.6391055596,708,180,-0.0362189908251,-0.00958737992429,-0.0639158661619,-0.0478756196881,-0.000114663044219,-0.000114663044219,0.51498046875,0.41400390625,4.05806451613,2049,2288,2560,2562,2315,2017,2075,2337,0.753112353844,0.196926043886,14.9258093314,0.261673616745,0.0684231906063,2873.10967742,730.451612903,-0.0452172795162,0.0478758943075,0.0740875907114,-0.27448430972,0.260318230741,-0.350272945722,-6.61765602794,-9.05115748928,2.62606114445,0.515556353896,11.5157726764
7.245199,1.80511225374,4.97968546972,45.786930035,42.6453373566,604,176,-0.0521979573656,0.00213052887206,-0.0703074527781,-0.0766295263777,-0.00018352921234,-0.00018352921234,0.5048828125,0.37361328125,4.06690561529,2049,2288,2560,2562,2315,2017,2075,2337,0.647327175459,0.195576449638,14.926653078,0.224428940265,0.0678065389453,2456.41099164,715.775388292,-0.045287586969,0.0766299659325,0.0875916880906,-0.272699509841,0.2602817802,-0.350726783335,-6.604374106,-8.99117103492,2.67283532341,0.514898926315,11.4718334444
7.2462,1.81163167214,4.98505440252,45.793161832,42.6515691536,601,336,-0.068176923906,0.0,-0.0585895439817,-0.10561811503,-0.000252957448346,-0.000252957448346,0.39380859375,0.444296875,4.07132616487,2049,2288,2560,2562,2315,2017,2075,2337,0.665719436477,0.367072921663,14.9276869031,0.230554951242,0.127126346204,2446.86702509,1367.9655914,-0.045346176513,0.105618720866,0.0898934236598,-0.270939013708,0.260228988898,-0.35111345044,-6.58925501599,-8.93155004382,2.71847312095,0.514205922653,11.4272028056
7.247201,1.81930157614,4.99080683052,45.799393629,42.6578009506,432,293,-0.0841558904465,0.0127831732324,-0.06711165947,-0.134700471017,-0.00032261025895,-0.00032261025895,0.525078125,0.43419921875,4.06690561529,2049,2288,2560,2562,2315,2017,2075,2337,0.460364002053,0.320249252378,14.928468297,0.159608632286,0.111030716856,1756.90322581,1191.60334528,-0.0454132881725,0.134701243673,0.1083955638,-0.269206657528,0.260159422564,-0.351436187856,-6.57237780424,-8.87254171361,2.76289423423,0.513480811464,11.3820793799
7.248202,1.82428701374,4.99886022972,45.805625426,42.6640327476,798,-31,-0.0926780059348,0.00852211548825,-0.066046395034,-0.163730154482,-0.000392136917834,-0.000392136917834,0.33322265625,0.444296875,4.07574671446,2049,2288,2560,2562,2315,2017,2075,2337,0.900535403863,0.0339449398014,14.9294037118,0.31153921193,-0.0117432138141,3252.44587814,-126.348148148,-0.0454793345675,0.163731093655,0.114122589935,-0.26750631337,0.260072738739,-0.351698059867,-6.55382432466,-8.81438403997,2.80601881791,0.512727005767,11.3366538665
7.249203,1.83234041294,5.00346217212,45.811857223,42.6702645446,375,440,-0.0948085348068,0.0117179087963,-0.0639158661619,-0.192557205578,-0.000461178268237,-0.000461178268237,0.37361328125,0.43419921875,4.07132616487,2049,2288,2560,2562,2315,2017,2075,2337,0.41766344142,0.482028974633,14.9303043039,0.144647082684,0.166938443816,1526.74731183,1791.38351254,-0.0455432504337,0.192558310105,0.114940008726,-0.265841842522,0.259968688254,-0.351901975514,-6.5336790649,-8.75730466253,2.84776851995,0.511947853281,11.2911085646
7.250204,1.83809284094,5.00959809532,45.81808902,42.6764963416,681,241,-0.0937432703708,0.0298274042089,-0.0766990393943,-0.221030314815,-0.000529371920975,-0.000529371920975,0.49478515625,0.37361328125,4.07132616487,2050,2287,2553,2567,2343,2047,2108,2376,0.73362197095,0.268418371686,14.9313073463,0.254071262569,0.0929598584713,2772.57311828,981.189605735,-0.0456199494731,0.221031582667,0.12474060055,-0.264217023004,0.259847074375,-0.352050711126,-6.5120271201,-8.70151950011,2.88806826723,0.511146593954,11.2456159075
7.251205,1.84307827854,5.01573401852,45.824320817,42.6827281386,797,243,-0.0884169481906,0.0596548084178,-0.0756337749583,-0.24899749837,-0.000596353871826,-0.000596353871826,0.3837109375,0.43419921875,4.07132616487,2050,2287,2553,2567,2343,2047,2108,2376,0.885249987858,0.266211456445,14.9324599592,0.306583759771,0.0921955496531,3244.84695341,989.332258065,-0.045695583248,0.248998926645,0.130754429405,-0.262635395463,0.259707593728,-0.352146940523,-6.48894697707,-8.64723050179,2.92685038351,0.510326222048,11.2003339856
7.252206,1.85074818254,5.02263693212,45.830552614,42.6889599356,429,134,-0.0894822126267,0.0894822126267,-0.0756337749583,-0.276305445368,-0.000661756938245,-0.000661756938245,0.49478515625,0.37361328125,4.05806451613,2050,2287,2553,2567,2343,2047,2108,2376,0.458936103291,0.148225413527,14.9330677279,0.15946023112,0.0515018507574,1740.90967742,543.780645161,-0.045771217023,0.276307030285,0.147426594167,-0.261100072055,0.259549620288,-0.352193267968,-6.46450080528,-8.59462304318,2.96405977402,0.509489304128,11.1554007664
7.253207,1.85688410574,5.02800586492,45.836784411,42.6951917326,630,344,-0.0820253615744,0.0948085348068,-0.0756337749583,-0.302800512171,-0.000725213140718,-0.000725213140718,0.4846875,0.4644921875,4.08016726404,2050,2287,2553,2567,2343,2047,2108,2376,0.683756515151,0.37544983466,14.9341279934,0.236288520537,0.129745726734,2570.50537634,1403.57753883,-0.0458468507979,0.302802249065,0.146414774282,-0.259613637529,0.259372109385,-0.352192249292,-6.43873004047,-8.54386451133,2.99965650832,0.508637899079,11.1109317562
7.254208,1.86302002894,5.03337479772,45.843016208,42.7014235296,631,355,-0.0703074527781,0.0703074527781,-0.0596548084178,-0.328332808893,-0.000786363490046,-0.000786363490046,0.39380859375,0.444296875,4.06690561529,2050,2287,2553,2567,2343,2047,2108,2376,0.697351861937,0.386936758619,14.9352133664,0.241772546094,0.134151337961,2566.21744325,1443.75149343,-0.0459065056063,0.328334692244,0.115952455772,-0.258178160319,0.259173646351,-0.352146399284,-6.4116573446,-8.49510428656,3.03361529646,0.507773599114,11.067021664
7.255209,1.87030643774,5.03836023532,45.849248005,42.7076553266,468,421,-0.0607200728538,0.0394147841332,-0.0553937506736,-0.352761760615,-0.000844871306547,-0.000844871306547,0.43419921875,0.4644921875,4.06690561529,2051,2285,2560,2575,2371,2072,2122,2385,0.511524403116,0.456316165261,14.9361821748,0.177345991429,0.158205243465,1903.31182796,1712.16726404,-0.045961899357,0.352763784092,0.0911532778858,-0.256795235765,0.258952555522,-0.352058220912,-6.3832915708,-8.4484745134,3.06592364101,0.506897632698,11.0237480311
7.25621,1.87644236094,5.04487965372,45.855479802,42.7138871236,619,217,-0.0223705531567,-0.0202400242846,-0.0521979573656,-0.375960094635,-0.000900431769619,-0.000900431769619,0.37361328125,0.31302734375,4.07132616487,2051,2285,2560,2575,2371,2072,2122,2385,0.689423120637,0.245647896744,14.9371181809,0.238764117816,0.0850738851133,2520.15089606,883.477777778,-0.0460140973144,0.375962251181,0.0602886969897,-0.255466024482,0.258707059419,-0.351930309507,-6.35363590155,-8.40409181944,3.09657893024,0.506011042377,10.9811770567
7.257211,1.88257828414,5.04986509132,45.861711599,42.7201189206,620,433,0.0,-0.066046395034,-0.0521979573656,-0.397816065569,-0.000952777246879,-0.000952777246879,0.4644921875,0.43419921875,4.07132616487,2051,2285,2560,2575,2371,2072,2122,2385,0.673565524204,0.474360331855,14.9382672546,0.233272243654,0.164282604937,2524.22222222,1762.88422939,-0.0460662952718,0.397818347482,0.0841828548466,-0.254191287166,0.258435457904,-0.351765492517,-6.32269733607,-8.36205950375,3.12558506714,0.505114895938,10.9393703091
7.258212,1.88833071214,5.05638450972,45.867943396,42.7263507176,676,229,0.0138484376684,-0.0692421883421,-0.0585895439817,-0.418237608781,-0.00100168724173,-0.00100168724173,0.323125,0.363515625,4.06248506571,2051,2285,2560,2575,2371,2072,2122,2385,0.759734539939,0.254585764198,14.9392825893,0.263687295827,0.0883611685244,2746.23990442,930.309080048,-0.0461248848157,0.418240007835,0.091755079076,-0.252971419331,0.258136239168,-0.351566890755,-6.29049221281,-8.32246881958,3.15295036109,0.504210408108,10.8983886658
7.259213,1.89446663534,5.06290392812,45.874175193,42.7325825146,628,226,0.0149137021044,-0.110787501347,-0.0468716351854,-0.437156087697,-0.00104699736824,-0.00104699736824,0.323125,0.4846875,4.06690561529,2051,2285,2560,2575,2371,2072,2122,2385,0.707392157274,0.243585072712,14.9402345175,0.245253525925,0.0844511736964,2554.0167264,919.120669056,-0.0461717564509,0.437158595269,0.121215672049,-0.251806486561,0.257808110698,-0.351337885368,-6.25704704664,-8.28539915743,3.17868691859,0.503298955205,10.8582930274
7.260214,1.90060255854,5.06827286092,45.88040699,42.7388143116,629,387,0.0170442309765,-0.13422331894,-0.0383495196971,-0.454523032026,-0.0010885915391,-0.0010885915391,0.4846875,0.43419921875,4.07132616487,2051,2285,2560,2575,2371,2072,2122,2385,0.679516927344,0.423966393598,14.9413391043,0.235333360373,0.146829949447,2560.86415771,1575.60322581,-0.0462101059706,0.454525639216,0.140631045,-0.250696258379,0.257450003329,-0.35108205842,-6.22239787015,-8.25091794073,3.20281050137,0.502382055734,10.8191440154
7.261215,1.90673848174,5.07440878412,45.886638787,42.7450461086,630,287,0.0106526443603,-0.143810698864,-0.031957933081,-0.470302915125,-0.00112638466733,-0.00112638466733,0.444296875,0.3433203125,4.06248506571,2039,2269,2535,2556,2334,2037,2097,2341,0.685093095889,0.320808010297,14.9423460113,0.237780877856,0.111345466433,2559.3655914,1165.93321386,-0.0462420639037,0.47030561283,0.147703437423,-0.249640220644,0.257061092922,-0.350803119191,-6.18659055357,-8.21907909479,3.22533965218,0.501461338182,10.781000868
7.262216,1.91210741454,5.08092820252,45.892870584,42.7512779056,740,233,-0.00532632218016,-0.1182443524,-0.0191747598486,-0.48446938851,-0.00116031364777,-0.00116031364777,0.35341796875,0.35341796875,4.06690561529,2039,2269,2535,2556,2334,2037,2097,2341,0.826806550656,0.260332332842,14.9434342373,0.286654608369,0.090257464527,3009.51015532,947.589008363,-0.0462612386635,0.484472167475,0.119907330875,-0.248637531153,0.256640876407,-0.350504780897,-6.14968394105,-8.18991730821,3.24629276067,0.50053847282,10.7439180366
7.263217,1.91824333774,5.08591364012,45.899102381,42.7575097026,641,449,-0.0234358175927,-0.0862864193186,-0.00852211548825,-0.497003759016,-0.00119033370995,-0.00119033370995,0.37361328125,0.39380859375,4.06248506571,2039,2269,2535,2556,2334,2037,2097,2341,0.710672449699,0.495078019712,14.9446411935,0.246658913908,0.171830787437,2604.05292712,1824.0557945,-0.046269760779,0.49700660988,0.0898176494763,-0.247686947095,0.256189272953,-0.35019061588,-6.11175433221,-8.16344031565,3.26568414053,0.499615086629,10.7079405915
7.264218,1.92284528014,5.09204956332,45.905334178,42.7637414996,862,300,-0.0436758418773,-0.0745685105222,0.00426105774413,-0.507891621751,-0.00121641035385,-0.00121641035385,0.39380859375,0.41400390625,4.06248506571,2039,2269,2535,2556,2334,2037,2097,2341,0.950461587955,0.328966180372,14.9459219007,0.329884496149,0.11417698941,3501.86212664,1218.74551971,-0.0462654997213,0.507894535069,0.0865228209104,-0.246786806903,0.255706665392,-0.349863970835,-6.07289704726,-8.1396256556,3.28352221116,0.498692715884,10.6731018205
7.265219,1.92974819374,5.09665150572,45.911565975,42.7699732966,553,521,-0.0521979573656,-0.0447411063133,0.00532632218016,-0.517120019587,-0.00123851254691,-0.00123851254691,0.444296875,0.47458984375,4.05806451613,2039,2269,2535,2556,2334,2037,2097,2341,0.59997121622,0.560514848624,14.9470835473,0.20846376678,0.194754404081,2244.10967742,2114.2516129,-0.0462601733991,0.51712298584,0.0689547899369,-0.245935078063,0.255193870279,-0.349527953229,-6.03322448776,-8.11842279419,3.29981021432,0.497772803736,10.6394235669
7.26622,1.93550062174,5.10393791452,45.917797772,42.7762050936,710,158,-0.0596548084178,-0.0479368996214,-0.00213052887206,-0.524678435915,-0.00125661510164,-0.00125661510164,0.525078125,0.49478515625,4.06690561529,2020,2246,2490,2517,2307,2017,2089,2337,0.756616762633,0.169813959446,14.9480109044,0.262319742878,0.0588746593769,2887.50298686,642.571087216,-0.046262303928,0.524681445524,0.076558354645,-0.245129402632,0.254652021539,-0.349185416971,-5.99286005685,-8.09975627296,3.31454866528,0.49685665089,10.6069154893
7.267221,1.94163654494,5.11045733292,45.924029569,42.7824368906,661,254,-0.0639158661619,-0.0362189908251,0.0,-0.530561701244,-0.00127070563701,-0.00127070563701,0.45439453125,0.45439453125,4.06690561529,2020,2246,2490,2517,2307,2017,2089,2337,0.718457120487,0.276078832986,14.9490064349,0.249089759073,0.0957167909297,2688.22461171,1032.99402628,-0.046262303928,0.5305647446,0.0734646394098,-0.244367082577,0.254082270403,-0.348838882272,-5.9519232799,-8.0835271961,3.32774059692,0.495945195526,10.5755690221
7.268222,1.94853945854,5.11697675132,45.930261366,42.7886686876,552,250,-0.0628506017259,-0.0404800485692,-0.0031957933081,-0.534771978548,-0.00128078933339,-0.00128078933339,0.37361328125,0.4846875,4.06690561529,2020,2246,2490,2517,2307,2017,2089,2337,0.613398864775,0.269452514062,14.9498901691,0.212665963056,0.0934194399296,2244.93189964,1016.72640382,-0.0462654997213,0.534775046055,0.0748267703722,-0.243645033764,0.253485398835,-0.348490423975,-5.91051081398,-8.06961380338,3.33939807231,0.495038711116,10.5453489512
7.269223,1.95429188654,5.12196218892,45.936493163,42.7949004846,708,466,-0.0490021640575,-0.0490021640575,-0.00532632218016,-0.537319557592,-0.00128689083496,-0.00128689083496,0.49478515625,0.41400390625,4.06248506571,2020,2246,2490,2517,2307,2017,2089,2337,0.759170746153,0.510994133511,14.9511616042,0.263491615295,0.17735492355,2876.23942652,1893.11804062,-0.0462708260435,0.537322639712,0.0695039126423,-0.242959791469,0.252861627392,-0.348141627323,-5.86868691133,-8.05787326747,3.34954554373,0.494136676997,10.5161905178
7.270224,1.96004431454,5.12886510252,45.94272496,42.8011322816,714,207,-0.0479368996214,-0.06711165947,-0.00213052887206,-0.538223910921,-0.00128905677884,-0.00128905677884,0.37361328125,0.40390625,4.06248506571,2020,2246,2490,2517,2307,2017,2089,2337,0.791607065656,0.227614880202,14.9521818454,0.27474955465,0.0790001626821,2900.61433692,840.934408602,-0.0462729565723,0.538226998228,0.0825012747502,-0.242307579107,0.252210656486,-0.34779362493,-5.82648521355,-8.04814502068,3.35821945098,0.493237857103,10.4880029605
7.271225,1.96656373294,5.13500102572,45.948956757,42.8073640786,611,308,-0.034088461953,-0.0926780059348,-0.00958737992429,-0.537514919004,-0.00128735872935,-0.00128735872935,0.3029296875,0.4644921875,4.06690561529,2020,2246,2490,2517,2307,2017,2089,2337,0.691955639289,0.333837004514,14.9532086638,0.239901670629,0.115741603295,2484.87933094,1252.60692951,-0.0462825439523,0.537518002245,0.0992126699378,-0.241684391397,0.251531774014,-0.347447156122,-5.78391380633,-8.04025435584,3.36546669871,0.492340435756,10.4606746974
7.272226,1.97346664654,5.13921947292,45.955188554,42.8135958756,552,584,-0.0255663464648,-0.0926780059348,-0.00426105774413,-0.535232425023,-0.00128189211169,-0.00128189211169,0.31302734375,0.33322265625,4.06690561529,2002,2235,2487,2511,2351,2055,2127,2386,0.623461254081,0.656055363403,14.9544894599,0.216154602887,0.22745501123,2244.93189964,2375.07287933,-0.04628680501,0.535235495171,0.0962341283989,-0.241086059499,0.250823951646,-0.347102630847,-5.74095978458,-8.0340159426,3.37134349513,0.491442142215,10.4340782236
7.273227,1.97960256974,5.14573889132,45.961420351,42.8198276726,653,280,-0.0276968753368,-0.1182443524,-0.0181094954125,-0.53142666521,-0.00127277724261,-0.00127277724261,0.3029296875,0.35341796875,4.06248506571,2002,2235,2487,2511,2351,2055,2127,2386,0.737849109126,0.312133664251,14.9555404927,0.256091339916,0.10833479003,2652.80274791,1137.4958184,-0.0463049145054,0.531429713528,0.122787611761,-0.240508279998,0.250085928785,-0.346760215313,-5.69759328997,-8.0292376656,3.37591503485,0.490540366787,10.4080751876
7.274228,1.98382101694,5.15149131932,45.967652148,42.8260594696,929,386,-0.0276968753368,-0.0905474770627,-0.0106526443603,-0.526161235563,-0.00126016643576,-0.00126016643576,0.40390625,0.444296875,4.06690561529,2002,2235,2487,2511,2351,2055,2127,2386,1.02386515497,0.42072560233,14.956986528,0.354975011734,0.145865961839,3778.15531661,1569.8255675,-0.0463155671498,0.526164253678,0.0952861025423,-0.239946623096,0.249316286067,-0.346419925947,-5.65377109674,-8.02572448218,3.37925563075,0.489632267653,10.3825213554
7.275229,1.99034043534,5.15801073772,45.973883945,42.8322912666,625,282,-0.0223705531567,-0.135288583376,-0.0159789665405,-0.519513152215,-0.0012442441463,-0.0012442441463,0.4644921875,0.4846875,4.05364396655,2002,2235,2487,2511,2351,2055,2127,2386,0.672734275779,0.301829769989,14.9579620666,0.234000651433,0.104987013955,2533.52747909,1143.12759857,-0.0463315461163,0.519516132196,0.13805350344,-0.239396563703,0.248513512668,-0.346081692443,-5.60943991768,-8.02328139957,3.38144816024,0.488714864247,10.3572705028
7.27623,1.99724334894,5.16337967052,45.980115742,42.8385230636,567,443,-0.0276968753368,-0.131027525632,-0.0106526443603,-0.5115689705,-0.00122521767593,-0.00122521767593,0.33322265625,0.37361328125,4.06690561529,2002,2235,2487,2511,2351,2055,2127,2386,0.636957861386,0.492274813579,14.9590924285,0.220833889328,0.170672140641,2305.93548387,1801.63918757,-0.0463421987607,0.511571904911,0.134345852964,-0.238853541789,0.24767606849,-0.34574538464,-5.56453947395,-8.02171545775,3.38258266557,0.48778511696,10.3321771148
7.277231,2.00299577694,5.17066607932,45.986347539,42.8447548606,723,180,-0.0245010820287,-0.147006492172,-0.00745685105222,-0.502422340491,-0.00120331131841,-0.00120331131841,0.3837109375,0.444296875,4.06690561529,2012,2251,2505,2527,2388,2079,2145,2406,0.801222574857,0.196193286061,14.9600908418,0.277784619909,0.0680203967127,2940.37275986,732.043010753,-0.0463496556117,0.502425222437,0.149220696919,-0.238313024582,0.246802486103,-0.34541085384,-5.51900730119,-8.02083759099,3.38275409389,0.486840038187,10.3070996168
7.278232,2.00951519534,5.17565151692,45.992579336,42.8509866576,619,496,-0.0372842552611,-0.159789665405,0.00639158661619,-0.492173675016,-0.00117876556443,-0.00117876556443,0.3029296875,0.4644921875,4.06690561529,2012,2251,2505,2527,2388,2079,2145,2406,0.701015614926,0.537607643633,14.9613307037,0.243042772699,0.186389075437,2517.41457587,2017.18518519,-0.0463432640251,0.492176498175,0.164206288674,-0.237770555253,0.245891597444,-0.345078049029,-5.47278901505,-8.0204652128,3.3820582289,0.485876912973,10.2819064233
7.279233,2.01335014734,5.18293792572,45.998811133,42.8572184546,1000,182,-0.0394147841332,-0.143810698864,0.0117179087963,-0.480928408992,-0.00115183293267,-0.00115183293267,0.40390625,0.4644921875,4.06248506571,2012,2251,2505,2527,2388,2079,2145,2406,1.09958879325,0.1968110947,14.9626284,0.381643297981,0.0683088402881,4062.48506571,739.372281959,-0.0463315461163,0.480931167647,0.149573900473,-0.237221791686,0.2449428169,-0.344747168238,-5.42585104247,-8.02042506469,3.38058681872,0.484893567713,10.2564830713
7.280234,2.01910257534,5.18677287772,46.00504293,42.8634502516,756,662,-0.0607200728538,-0.126766467888,0.0245010820287,-0.46879293744,-0.00112276824128,-0.00112276824128,0.4241015625,0.4846875,4.05364396655,2012,2251,2505,2527,2388,2079,2145,2406,0.822896820004,0.708550736642,14.964161379,0.286232467819,0.246458876732,3064.55483871,2683.51230585,-0.0463070450343,0.468795626485,0.142677845683,-0.236662544863,0.243956282199,-0.344418729895,-5.37818712541,-8.02055498195,3.37842481448,0.48388850913,10.2307357116
7.281235,2.02485500334,5.19137482012,46.011274727,42.8696820486,762,583,-0.0703074527781,-0.0756337749583,0.034088461953,-0.455870509529,-0.00109181877405,-0.00109181877405,0.363515625,0.40390625,4.04922341697,2012,2251,2505,2527,2388,2079,2145,2406,0.841344236512,0.636651442579,14.9656408527,0.292968614305,0.221691529856,3085.50824373,2360.69725209,-0.0462729565723,0.455873124449,0.108745708278,-0.236088818527,0.242932825972,-0.344093548272,-5.32981740719,-8.02070439738,3.37565011977,0.482860909715,10.204590455
7.282236,2.03175791694,5.19712724812,46.017506524,42.8759138456,603,439,-0.0830906260105,-0.0394147841332,0.035153726389,-0.442258755841,-0.00105921835811,-0.00105921835811,0.3433203125,0.41400390625,4.04922341697,2012,2251,2505,2527,2388,2079,2145,2406,0.669436247326,0.478071674525,14.9667895081,0.233107687952,0.166471688931,2441.68172043,1777.60908005,-0.046237802846,0.442261292682,0.0984548719877,-0.235496845174,0.241873896655,-0.343772681576,-5.28078529678,-8.02073439817,3.37233410998,0.481810546343,10.1779915006
7.283237,2.03751034494,5.20633113292,46.023738321,42.8821456426,761,-49,-0.0926780059348,-0.0287621397729,0.0447411063133,-0.428048915299,-0.00102518551248,-0.00102518551248,0.33322265625,0.5048828125,4.06690561529,2005,2243,2480,2498,2366,2056,2126,2384,0.854894060872,0.052514952976,14.9676978245,0.296392574565,-0.0182069835645,3094.91517324,-199.278375149,-0.0461930617396,0.428051370632,0.106856165299,-0.23488311474,0.240781472987,-0.343457391699,-5.23115386729,-8.02051763781,3.36854213276,0.480737740599,10.150898978
7.284238,2.04402976334,5.21323404652,46.029970118,42.8883774396,657,242,-0.0873516837546,0.0138484376684,0.0468716351854,-0.413326776523,-0.000989925702564,-0.000989925702564,0.323125,0.3837109375,4.06690561529,2005,2243,2480,2498,2366,2056,2126,2384,0.74005835562,0.268182383286,14.9687070735,0.2565789276,0.0929790843955,2671.95698925,984.191158901,-0.0461461901045,0.413329147407,0.100095185027,-0.234244393594,0.239657952593,-0.343149129098,-5.18100060507,-8.01993796551,3.36433401752,0.479643299726,10.1232858115
7.285239,2.04939869614,5.21745249372,46.036201915,42.8946092366,818,618,-0.0905474770627,0.0181094954125,0.0447411063133,-0.398174388798,-0.000953635438019,-0.000953635438019,0.5048828125,0.49478515625,4.07132616487,2005,2243,2480,2498,2366,2056,2126,2384,0.878720265396,0.6657538591,14.9702530921,0.304322356901,0.23056687264,3330.34480287,2516.07956989,-0.0461014489981,0.398176672767,0.102608800893,-0.233577736482,0.238506030239,-0.342849531596,-5.13041145611,-8.01888989346,3.35976457451,0.478528459714,10.0951342155
7.28624,2.05400063854,5.22282142652,46.042433712,42.9008410336,939,479,-0.0820253615744,0.0255663464648,0.034088461953,-0.382671050674,-0.000916504640412,-0.000916504640412,0.45439453125,0.363515625,4.04480286738,2005,2243,2480,2498,2366,2056,2126,2384,1.00886465755,0.527665489743,14.9717911588,0.351685660286,0.18394180506,3798.06989247,1937.46057348,-0.0460673605362,0.382673245714,0.0924327931597,-0.232880498343,0.237328610919,-0.342560405144,-5.07947691295,-8.0172782391,3.35488402371,0.477394833698,10.0664334739
7.287241,2.06013656174,5.23049133052,46.048665509,42.9070728306,740,161,-0.0809600971384,-0.0106526443603,0.0255663464648,-0.366894082897,-0.000878718494443,-0.000878718494443,0.323125,0.39380859375,4.04922341697,2005,2243,2480,2498,2366,2056,2126,2384,0.826007314844,0.176303281801,14.9727944717,0.287628069385,0.0613914328109,2996.42532855,651.924970131,-0.0460417941897,0.366896187439,0.0855666654258,-0.232150347273,0.236128763989,-0.342283681933,-5.02829051918,-8.01501799341,3.3497383467,0.476244365678,10.037179184
7.288242,2.06588898974,5.23662725372,46.054897306,42.9133046276,796,362,-0.0766990393943,-0.0308926686449,0.0181094954125,-0.35092102294,-0.000840462703871,-0.000840462703871,0.47458984375,0.3837109375,4.06690561529,1979,2218,2454,2472,2356,2046,2120,2380,0.860355180947,0.401165383262,14.9740572538,0.298285950029,0.139084415501,3237.25686977,1472.21983274,-0.0460236846943,0.350923035858,0.0846466387053,-0.231385274577,0.234909689587,-0.342021353682,-4.97694801878,-8.01203412055,3.34436959824,0.475079271204,10.0073727991
7.289243,2.07202491294,5.24314667212,46.061129103,42.9195364246,747,308,-0.0756337749583,-0.0607200728538,0.00426105774413,-0.334832772011,-0.000801931028673,-0.000801931028673,0.3837109375,0.49478515625,4.05806451613,1979,2218,2454,2472,2356,2046,2120,2380,0.824036799851,0.329492586978,14.9752119367,0.286316760902,0.114484268496,3031.37419355,1249.88387097,-0.0460194236366,0.334834692646,0.0970852809385,-0.230583599535,0.233674681615,-0.341775350254,-4.92554614449,-8.00826101522,3.33881619395,0.473901934205,9.97702074201
7.290244,2.07816083614,5.24851560492,46.0673609,42.9257682216,748,469,-0.0639158661619,-0.0841558904465,0.00106526443603,-0.318715118241,-0.000763328933098,-0.000763328933098,0.363515625,0.37361328125,4.06248506571,1979,2218,2454,2472,2356,2046,2120,2380,0.831572714499,0.519977190186,14.9765648381,0.288620760071,0.180472746682,3038.73882915,1905.30549582,-0.0460183583721,0.318716946424,0.105681534018,-0.22974396996,0.232427089944,-0.341547394251,-4.87418124925,-8.0036417737,3.3331131768,0.472714783345,9.9461333161
7.291245,2.08314627374,5.25350104252,46.073592697,42.9320000186,914,534,-0.0585895439817,-0.105461179167,-0.00639158661619,-0.302657447759,-0.000724870498667,-0.000724870498667,0.4241015625,0.49478515625,4.05806451613,1979,2218,2454,2472,2356,2046,2120,2380,0.997175847031,0.571263121579,14.9781348455,0.346475010125,0.198488959016,3709.07096774,2167.00645161,-0.0460247499587,0.302659183833,0.120812447019,-0.228865361034,0.231170289447,-0.341338920681,-4.82294836565,-7.99812771876,3.32729246785,0.471520216932,9.91472405617
7.292246,2.09158316814,5.26117094652,46.079824494,42.9382318156,436,166,-0.0585895439817,-0.112918030219,-0.0191747598486,-0.286749959757,-0.000686771754208,-0.000686771754208,0.49478515625,0.45439453125,4.04922341697,1979,2218,2454,2472,2356,2046,2120,2380,0.464253638642,0.178765687179,14.9787785079,0.161660042699,0.0622488790979,1765.4614098,672.171087216,-0.0460439247186,0.286751604584,0.12865025312,-0.227947073022,0.229907656925,-0.341151073831,-4.77194077596,-7.99167824376,3.3213831031,0.470320586397,9.88280960246
7.293247,2.09771909134,5.26730686972,46.086056291,42.9444636126,737,367,-0.0639158661619,-0.108656972475,-0.0213052887206,-0.271081077291,-0.00064924447467,-0.00064924447467,0.5452734375,0.41400390625,4.08016726404,1975,2210,2450,2470,2372,2061,2120,2380,0.786408032946,0.40614579014,14.9799722543,0.271762223139,0.140353452944,3007.0832736,1497.4213859,-0.0460652300073,0.27108263224,0.127849485498,-0.226988739942,0.22864256245,-0.340984750623,-4.72125045222,-7.98426177884,3.31541137198,0.469118225591,9.85041088235
7.294248,2.10423850974,5.27344279292,46.092288088,42.9506954096,684,368,-0.0830906260105,-0.0926780059348,-0.00852211548825,-0.255735685857,-0.000612491962472,-0.000612491962472,0.43419921875,0.43419921875,4.06248506571,1975,2210,2450,2470,2372,2061,2139,2403,0.745891204583,0.401298191939,14.9811205909,0.258882575924,0.139281853713,2778.73978495,1494.99450418,-0.0460737521228,0.255737152783,0.12476334144,-0.225990350427,0.227378358562,-0.340840677719,-4.67096882317,-7.97585840635,3.30940065504,0.467915509485,9.81755569176
7.295249,2.10999093774,5.27957871612,46.098519885,42.9569272066,790,369,-0.0788295682663,-0.0585895439817,0.0031957933081,-0.240793638233,-0.000576705466575,-0.000576705466575,0.4241015625,0.3029296875,4.06248506571,1975,2210,2450,2470,2372,2061,2139,2403,0.863880069961,0.416946893212,14.9824026986,0.299833938819,0.144713176767,3209.36320191,1499.05698925,-0.0460705563295,0.24079501945,0.0982702833613,-0.224952220583,0.226118287185,-0.340719435031,-4.62118374505,-7.96646018063,3.30337099222,0.466714810942,9.78427753732
7.29625,2.11727734654,5.28533114412,46.104751682,42.9631590036,576,426,-0.0830906260105,-0.034088461953,0.00958737992429,-0.226327422799,-0.000542058598068,-0.000542058598068,0.47458984375,0.3029296875,4.05806451613,1975,2210,2450,2470,2372,2061,2139,2403,0.61968628178,0.4802641768,14.9835037491,0.215313890116,0.166870804197,2337.44516129,1728.73548387,-0.0460609689496,0.226328721036,0.0903216099444,-0.223874896411,0.224865308425,-0.340621372818,-4.57197214786,-7.95606655911,3.29733881086,0.465518308766,9.75060857831
7.297251,2.12226278414,5.28954959132,46.110983479,42.9693908006,892,651,-0.0990695925509,-0.0106526443603,0.0106526443603,-0.212399222424,-0.000508700286135,-0.000508700286135,0.40390625,0.29283203125,4.06690561529,1975,2210,2450,2470,2372,2061,2139,2403,0.983086887227,0.7392333603,14.9852277916,0.340837147973,0.256292900948,3627.67980884,2647.55555556,-0.0460503163052,0.212400440768,0.100208491816,-0.222759074105,0.223621993236,-0.340546534872,-4.52339511822,-7.94467987684,3.29131707802,0.464327840398,9.71657397693
7.298252,2.12839870734,5.29453502892,46.117215276,42.9756225976,744,567,-0.116113823527,0.0127831732324,0.00426105774413,-0.199059054979,-0.000476750324555,-0.000476750324555,0.31302734375,0.41400390625,4.04480286738,1975,2210,2450,2470,2372,2061,2139,2403,0.830829521469,0.616039746813,14.9866761078,0.289623416438,0.214748671687,3009.33333333,2293.40322581,-0.0460460552475,0.199060196802,0.116893054307,-0.221605584937,0.222390528648,-0.340494662492,-4.47549820665,-7.93230432577,3.28531569745,0.463144899241,9.68219166027
7.299253,2.13453463054,5.30105444732,46.123447073,42.9818543946,745,363,-0.12889699676,0.0149137021044,0.0138484376684,-0.186344527703,-0.000446298783398,-0.000446298783398,0.5048828125,0.3433203125,4.05364396655,1982,2218,2450,2468,2390,2077,2155,2418,0.792875059882,0.403915141689,14.9878740948,0.275789843326,0.140495898131,3019.96475508,1471.47275986,-0.0460322068098,0.186345596594,0.130493806405,-0.220415388122,0.221172747412,-0.340465261705,-4.42831295493,-7.9189462418,3.27934226983,0.461970693817,9.6474738108
7.300254,2.14067055374,5.30642338012,46.12967887,42.9880861916,746,524,-0.131027525632,-0.0149137021044,0.0202400242846,-0.174281669419,-0.000417408002205,-0.000417408002205,0.4846875,0.363515625,4.06248506571,1982,2218,2450,2468,2390,2077,2155,2418,0.8021812032,0.58254559144,14.9892602063,0.278419607264,0.202188874702,3030.61385902,2128.74217443,-0.0460119667855,0.174282669117,0.133417725834,-0.219189517721,0.219970117936,-0.340457755908,-4.38185663939,-7.90461392639,3.27340378723,0.460806229364,9.61242743992
7.301255,2.14603948654,5.31140881772,46.135910667,42.9943179886,857,590,-0.12357067458,-0.0468716351854,0.0127831732324,-0.162887396694,-0.000390118496483,-0.000390118496483,0.4241015625,0.323125,4.05806451613,1982,2218,2450,2468,2390,2077,2155,2418,0.934988731845,0.661577374598,14.9908583689,0.32486770643,0.229869213384,3477.76129032,2394.25806452,-0.0459991836123,0.162888331032,0.132778278792,-0.217929006294,0.218783713589,-0.340471678271,-4.33613107622,-7.88931720927,3.26750875788,0.459652399995,9.57705446479
7.302256,2.15217540974,5.31716124572,46.142142464,43.0005497856,758,496,-0.121440145708,-0.0639158661619,0.00426105774413,-0.152174062515,-0.00036445985188,-0.00036445985188,0.444296875,0.323125,4.04922341697,1982,2218,2450,2468,2390,2077,2155,2418,0.81858442467,0.553648146166,14.9922319737,0.285043308292,0.192788543804,3069.31135006,2008.41481481,-0.0459949225545,0.152174935401,0.13729932101,-0.216634850323,0.21761421609,-0.340506771782,-4.29112291311,-7.87306733816,3.26166830102,0.458510051196,9.54135238174
7.303257,2.15716084734,5.32214668332,46.148374261,43.0067815826,924,611,-0.106526443603,-0.0862864193186,-0.0127831732324,-0.142153541691,-0.000340460508794,-0.000340460508794,0.31302734375,0.444296875,4.04922341697,1982,2218,2450,2468,2390,2077,2155,2418,1.03418797276,0.659835202472,14.9939276909,0.360119680104,0.229764460906,3741.48243728,2474.07550777,-0.0460077057278,0.142154357098,0.137683110306,-0.215308026668,0.216461960745,-0.340562978657,-4.24680575233,-7.85587728159,3.2558960108,0.457380005279,9.50531565991
7.304258,2.16176278974,5.32828260652,46.154606058,43.0130133796,995,462,-0.107591708039,-0.121440145708,0.00106526443603,-0.132837987982,-0.000318149575717,-0.000318149575717,0.3433203125,0.37361328125,4.04480286738,1961,2192,2419,2440,2388,2069,2149,2406,1.10210319124,0.507542320083,14.9955389461,0.384188191759,0.176926959058,4024.57885305,1868.69892473,-0.0460066404633,0.132838749954,0.162249250897,-0.213949513871,0.215327004238,-0.340640390858,-4.2031433455,-7.83776176457,3.25020658039,0.456263070085,9.46893691373
7.305259,2.16981618894,5.33365153932,46.160837855,43.0192451766,522,573,-0.0980043281149,-0.137419112248,-0.0149137021044,-0.124238936726,-0.000297554680009,-0.000297554680009,0.4846875,0.4644921875,4.04922341697,1961,2192,2419,2440,2388,2069,2149,2406,0.557405628811,0.615331394006,14.9967128559,0.194096955315,0.214267570891,2113.69462366,2320.20501792,-0.0460215541654,0.124239649373,0.169444029847,-0.212560286283,0.214209223904,-0.340739185229,-4.1600944305,-7.81873625656,3.24461197342,0.455160036977,9.43220701524
7.30626,2.17480162654,5.33863697692,46.167069652,43.0254769736,937,639,-0.0862864193186,-0.154463343225,-0.0223705531567,-0.116367005102,-0.000278701250021,-0.000278701250021,0.37361328125,0.43419921875,4.06248506571,1961,2192,2419,2440,2388,2069,2149,2406,1.038845687,0.696819414808,14.9984502566,0.360560690065,0.241850827507,3806.54850657,2595.92795699,-0.0460439247186,0.116367672595,0.178338756886,-0.211141293118,0.213108429741,-0.34085955324,-4.11761824166,-7.79881542385,3.23911644132,0.45407167223,9.39511454533
7.307261,2.17940356894,5.34438940492,46.173301449,43.0317087706,1008,545,-0.0809600971384,-0.169377045329,-0.0181094954125,-0.10923146659,-0.000261611495919,-0.000261611495919,0.35341796875,0.40390625,4.04480286738,1961,2192,2419,2440,2388,2069,2149,2406,1.11345670694,0.593783768897,15.0001592043,0.388145976025,0.206990338366,4077.16129032,2204.41756272,-0.046062034214,0.109232093153,0.188602955006,-0.209693456739,0.212024434374,-0.341001654553,-4.07567786518,-7.77801251426,3.23371414356,0.452998714103,9.35764585219
7.308262,2.18515599694,5.35014183292,46.179533246,43.0379405676,864,551,-0.0724379816502,-0.154463343225,-0.0298274042089,-0.102839212333,-0.000246301922125,-0.000246301922125,0.363515625,0.33322265625,4.0403823178,1961,2192,2419,2440,2388,2069,2149,2406,0.949598895842,0.610578438132,15.0017209419,0.331388056333,0.213077756026,3490.89032258,2226.25065711,-0.0460918616182,0.102839802229,0.173193128119,-0.208217695235,0.210957073599,-0.341165598285,-4.03424105895,-7.75633988285,3.22838989085,0.45194187786,9.31978597326
7.309263,2.19090842494,5.35551076572,46.185765043,43.0441723646,870,612,-0.0703074527781,-0.151267549917,-0.0266316109008,-0.0971932212137,-0.000232779663121,-0.000232779663121,0.35341796875,0.47458984375,4.05364396655,1961,2192,2419,2440,2388,2069,2149,2406,0.965426502428,0.65688811141,15.0033448788,0.335809306308,0.228488797914,3526.6702509,2480.83010753,-0.0461184932291,0.0971937787239,0.168920846177,-0.206714949429,0.209906210504,-0.341351434242,-3.99328023816,-7.73380979616,3.22312077625,0.450901862033,9.28151973342
7.310264,2.19781133854,5.36049620332,46.19199684,43.0504041616,712,678,-0.0703074527781,-0.12357067458,-0.0266316109008,-0.092291380553,-0.000221039659,-0.000221039659,0.363515625,0.444296875,4.04922341697,1951,2186,2412,2440,2380,2064,2151,2409,0.78613792178,0.732190290141,15.0048647253,0.273744951949,0.254959581823,2883.04707288,2745.3734767,-0.04614512484,0.0922919099457,0.144644710347,-0.205186190992,0.208871738588,-0.341559118602,-3.95277231919,-7.71043449168,3.21787811604,0.449879325659,9.24283228386
7.311265,2.20356376654,5.36624863132,46.198228637,43.0566359586,868,584,-0.0766990393943,-0.127831732324,-0.0223705531567,-0.0881264436624,-0.000211064553801,-0.000211064553801,0.37361328125,0.35341796875,4.05364396655,1951,2186,2412,2440,2380,2064,2151,2409,0.957950082257,0.648056410825,15.0064723378,0.333208744312,0.225416821705,3518.56296296,2367.32807646,-0.0461674953932,0.0881269491647,0.150745268853,-0.203632385642,0.20785358415,-0.341788403859,-3.91269824943,-7.68622434661,3.21263053491,0.448874786481,9.20370834237
7.312266,2.21046668014,5.37315154492,46.204460434,43.0628677556,709,426,-0.0809600971384,-0.129962261196,-0.0117179087963,-0.0846863918994,-0.00020282556264,-0.00020282556264,0.49478515625,0.40390625,4.04922341697,1951,2186,2412,2440,2380,2064,2151,2409,0.754944563755,0.465203283943,15.0076937058,0.262882959344,0.16199072336,2870.89940263,1724.96917563,-0.046179213302,0.0846868776692,0.153564436151,-0.202054433036,0.206851707934,-0.342038693233,-3.87304237089,-7.66118509417,3.20734753608,0.447888480152,9.16413075371
7.313267,2.21545211774,5.37583601132,46.210692231,43.0690995526,975,1021,-0.0884169481906,-0.108656972475,0.00639158661619,-0.0819557195393,-0.000196285549004,-0.000196285549004,0.3837109375,0.43419921875,4.06248506571,1951,2186,2412,2440,2380,2064,2151,2409,1.07801704783,1.11338438579,15.0098872987,0.374156215432,0.386431447395,3960.92293907,4147.79725209,-0.0461728217154,0.0819561896456,0.140231047826,-0.200453145136,0.205866105697,-0.342308975926,-3.8337920355,-7.63531678466,3.20200163721,0.446920296998,9.12408013217
7.314268,2.22312202174,5.38273892492,46.216924028,43.0753313496,607,462,-0.0884169481906,-0.0980043281149,0.0127831732324,-0.0799177164784,-0.000191404491869,-0.000191404491869,0.43419921875,0.3837109375,4.02712066906,1951,2186,2412,2440,2380,2064,2151,2409,0.649766278893,0.50149977759,15.011039716,0.227500124414,0.175588154543,2444.46224612,1860.5297491,-0.0461600385421,0.0799181748946,0.132611517503,-0.198829271899,0.204896807731,-0.342597859279,-3.79493753374,-7.60861487189,3.19656881148,0.445969813289,9.083535838
7.315269,2.23002493534,5.38772436252,46.223155825,43.0815631466,698,728,-0.0980043281149,-0.0820253615744,0.0287621397729,-0.0785554620454,-0.000188141865896,-0.000188141865896,0.49478515625,0.444296875,4.06248506571,1982,2220,2446,2481,2399,2082,2180,2438,0.748447995501,0.791663133027,15.0125813672,0.25976998231,0.274769014412,2835.61457587,2957.48912784,-0.0461312764024,0.0785559126476,0.130997209722,-0.19718350936,0.203943869875,-0.342903627587,-3.75647167712,-7.58107065809,3.19102855621,0.445036331366,9.04247615593
7.31627,2.23309289694,5.39424378092,46.229387622,43.0877949436,1239,525,-0.104395914731,-0.0862864193186,0.0532632218016,-0.0778514401341,-0.000186455719668,-0.000186455719668,0.33322265625,0.444296875,4.04922341697,1982,2220,2446,2481,2399,2082,2180,2438,1.37925622425,0.566961507852,15.0145295312,0.480277592993,0.197424454952,5016.98781362,2125.84229391,-0.0460780131806,0.0778518866979,0.145536332124,-0.195516420881,0.203007341861,-0.343224293947,-3.71838815781,-7.55266820984,3.1853644369,0.444118866565,9.00087518944
7.317271,2.23922882014,5.39961271372,46.235619419,43.0940267406,841,686,-0.104395914731,-0.0894822126267,0.0649811305979,-0.077787706928,-0.000186303077395,-0.000186303077395,0.47458984375,0.444296875,4.03154121864,1982,2220,2446,2481,2399,2082,2180,2438,0.89221832858,0.733976730797,15.0161573524,0.31204638005,0.256702619246,3390.52616487,2765.63727599,-0.04601303205,0.0777881531262,0.152079323785,-0.193828314465,0.202087224624,-0.34355764667,-3.68067930824,-7.52337949748,3.17956485421,0.443216108044,8.95869811386
7.318272,2.24613173374,5.40459815132,46.241851216,43.1002585376,732,752,-0.107591708039,-0.0990695925509,0.0809600971384,-0.0783472727101,-0.000187643248372,-0.000187643248372,0.45439453125,0.3433203125,4.04480286738,1982,2220,2446,2481,2399,2082,2180,2438,0.78646318352,0.832946331467,15.0177783813,0.274157511533,0.290361326837,2960.79569892,3041.69175627,-0.0459320719528,0.0783477221181,0.167168469323,-0.192119199317,0.201183450078,-0.343901294318,-3.64333505159,-7.49316279948,3.17362330143,0.442326426483,8.91589950017
7.319273,2.25341814254,5.41073407452,46.248083013,43.1064903346,669,603,-0.0958737992429,-0.103330650295,0.0862864193186,-0.0795158577015,-0.00019044203225,-0.00019044203225,0.3433203125,0.3029296875,4.04922341697,1982,2220,2446,2481,2399,2082,2180,2438,0.742707876387,0.676732430649,15.0191992411,0.258621962255,0.235648327829,2708.93046595,2441.68172043,-0.0458457855335,0.0795163138126,0.165270550403,-0.190388839087,0.200295888031,-0.344252710087,-3.60634329509,-7.46196508142,3.16753801213,0.441447937149,8.87242536721
7.320274,2.25725309454,5.41648650252,46.25431481,43.1127221316,1149,659,-0.0905474770627,-0.117179087963,0.110787501347,-0.081281878942,-0.000194671687614,-0.000194671687614,0.49478515625,0.41400390625,4.04922341697,1982,2220,2446,2481,2399,2082,2180,2438,1.22345741009,0.717652012555,15.0211422916,0.426026121701,0.249897136686,4652.55770609,2668.43823178,-0.0457349980321,0.0812823451832,0.184942301038,-0.18863682919,0.199424360477,-0.344609273379,-3.56969070817,-7.42972537345,3.16131143499,0.440578574351,8.82821617689
7.321275,2.26453950334,5.41955446412,46.260546607,43.1189539286,686,1049,-0.0820253615744,-0.125701203452,0.121440145708,-0.0836340956254,-0.000200305292512,-0.000200305292512,0.4846875,0.282734375,4.03154121864,2000,2234,2459,2493,2422,2104,2195,2453,0.725712510116,1.1729129163,15.0230428157,0.253812272719,0.41021711606,2765.63727599,4229.08673835,-0.0456135578864,0.0836345753591,0.193071648566,-0.186862663757,0.198568639582,-0.344968342709,-3.53336288495,-7.39637821004,3.1549498341,0.439716178009,8.7832096843
7.322276,2.27029193134,5.42645737772,46.266778404,43.1251857256,892,541,-0.0692421883421,-0.113983294655,0.110787501347,-0.0865586969151,-0.000207309769722,-0.000207309769722,0.37361328125,0.43419921875,4.03596176822,2000,2234,2459,2493,2422,2104,2195,2453,0.975433522725,0.581815783898,15.0246016222,0.340776584623,0.203262642812,3600.07789725,2183.45531661,-0.0455027703851,0.0865591934246,0.173379763991,-0.185065790542,0.197728402711,-0.34532742443,-3.49734295121,-7.36185793848,3.1484631912,0.438858631146,8.73734401813
