%  Data file recorded 2016/4/18  11:58:53
%  Stride Frequency         = [9, 9]
%  Lead In /Lead Out        = 
%  Deltas (Fractional)      = [0.25, 0.25, 0.25],[0.25, 0.25, 0.25]
%  Phase                    = 32768
%  Experiment.py 
%  Motor Gains    = [100, 0, 100, 0, 0, 100, 0, 100, 0, 0]
% Columns: 
% time | Right Leg Pos | Left Leg Pos | Commanded Right Leg Pos | Commanded Left Leg Pos | DCR | DCL | GyroX | GyroY | GyroZ | AX | AY | AZ | RBEMF | LBEMF | VBatt | S1 | S2 | S3 | S4 | S5 | S6 | S7 | S8
76,32344,-35096,3030,3030,-741,780,0,-64,-53,903,-153,3805,-9,-8,830,1263,1425,1119,1274,1345,1062,1315,1443
1077,32340,-35104,3030,3030,-691,981,2,-66,-55,894,-154,3814,-1,4,830,1263,1425,1119,1274,1345,1062,1315,1443
2078,32344,-35108,3030,3030,-741,956,4,-66,-55,886,-144,3835,5,-6,830,1263,1425,1119,1274,1345,1062,1315,1443
3079,32348,-35108,3030,3030,-741,931,3,-64,-56,890,-128,3842,-9,2,830,1263,1425,1119,1274,1345,1062,1315,1443
4080,32336,-35104,3030,3030,-641,906,2,-63,-55,891,-139,3868,0,1,830,1264,1425,1119,1273,1345,1062,1315,1446
5081,32340,-35112,3030,3030,-741,981,0,-64,-57,899,-134,3814,2,0,830,1264,1425,1119,1273,1345,1062,1315,1446
6082,32332,-35104,3030,3030,-666,881,2,-64,-56,897,-141,3824,-8,1,830,1264,1425,1119,1273,1345,1062,1315,1446
7083,32344,-35112,3030,3030,-791,981,3,-66,-54,882,-148,3827,2,-2,830,1264,1425,1119,1273,1345,1062,1315,1446
8084,32344,-35116,3030,3030,-716,956,2,-66,-53,887,-148,3825,1,-3,830,1264,1425,1119,1273,1345,1062,1315,1446
9085,32352,-35104,3030,3030,-766,856,0,-61,-52,895,-137,3817,-9,-1,830,1264,1425,1119,1273,1345,1062,1315,1446
10086,32344,-35112,3030,3030,-666,981,2,-62,-55,893,-149,3830,2,2,830,1263,1425,1119,1274,1345,1062,1315,1447
11087,32344,-35100,3030,3030,-716,855,2,-64,-54,919,-134,3835,3,1,830,1263,1425,1119,1274,1345,1062,1315,1447
12088,32352,-35104,3030,3030,-766,956,1,-64,-55,908,-142,3817,-9,2,830,1263,1425,1119,1274,1345,1062,1315,1447
13089,32340,-35112,3030,3030,-641,981,1,-65,-56,879,-141,3810,1,-6,830,1263,1425,1119,1274,1345,1062,1315,1447
14090,32352,-35116,3030,3030,-791,956,3,-65,-55,890,-125,3829,3,0,830,1263,1425,1119,1274,1345,1062,1315,1447
15091,32340,-35112,3030,3030,-641,906,5,-66,-55,917,-139,3801,-8,-6,830,1264,1425,1120,1274,1345,1062,1315,1446
16092,32348,-35108,3030,3030,-766,906,6,-65,-53,909,-147,3810,6,5,831,1264,1425,1120,1274,1345,1062,1315,1446
17093,32348,-35116,3030,3030,-716,981,2,-60,-51,904,-153,3807,-7,-2,830,1264,1425,1120,1274,1345,1062,1315,1446
18094,32340,-35108,3030,3030,-666,881,1,-60,-53,896,-135,3801,-2,4,830,1264,1425,1120,1274,1345,1062,1315,1446
19095,32340,-35116,3030,3030,-716,981,1,-61,-54,888,-118,3821,7,-2,830,1264,1425,1120,1274,1345,1062,1315,1446
20096,32344,-35112,3030,3030,-741,906,1,-64,-53,895,-147,3817,-8,1,827,1264,1425,1120,1274,1345,1062,1315,1446
21097,32336,-35108,3030,3030,-666,906,1,-63,-53,874,-138,3858,5,-7,827,1263,1422,1119,1276,1348,1064,1315,1447
22098,32348,-35112,3030,3030,-791,956,3,-64,-53,857,-141,3796,1,6,830,1263,1422,1119,1276,1348,1064,1315,1447
23099,32348,-35100,3030,3030,-716,855,3,-64,-54,897,-150,3789,-7,-8,831,1263,1422,1119,1276,1348,1064,1315,1447
24100,32336,-35116,3030,3030,-641,1031,2,-67,-53,903,-139,3847,6,7,830,1263,1422,1119,1276,1348,1064,1315,1447
25101,32336,-35112,3030,3030,-716,906,1,-66,-54,900,-133,3816,1,-7,830,1263,1422,1119,1276,1348,1064,1315,1447
26102,32340,-35112,3030,3030,-741,931,2,-66,-55,895,-150,3823,-8,7,830,1263,1425,1119,1274,1345,1059,1314,1447
27103,32340,-35116,3030,3030,-716,956,4,-64,-52,893,-133,3834,6,-4,831,1263,1425,1119,1274,1345,1059,1314,1447
28104,32356,-35104,3030,3030,-816,856,3,-62,-51,907,-115,3838,2,-4,830,1263,1425,1119,1274,1345,1059,1314,1447
29105,32344,-35112,3030,3030,-641,981,1,-61,-52,909,-147,3841,-6,-1,830,1263,1425,1119,1274,1345,1059,1314,1447
30106,32340,-35096,3030,3030,-691,830,3,-61,-52,910,-133,3819,2,-5,830,1263,1425,1119,1274,1345,1059,1314,1447
31107,32336,-35104,3030,3030,-691,981,6,-63,-53,895,-138,3812,-9,7,830,1263,1425,1119,1274,1345,1059,1314,1447
32108,32344,-35112,3030,3030,-766,981,5,-64,-53,890,-159,3837,7,-8,830,1263,1425,1119,1273,1345,1062,1315,1446
33109,32344,-35108,3030,3030,-716,906,3,-64,-53,898,-155,3847,-9,6,830,1263,1425,1119,1273,1345,1062,1315,1446
34110,32352,-35104,3030,3030,-766,906,3,-63,-54,883,-154,3817,-1,-3,831,1263,1425,1119,1273,1345,1062,1315,1446
35111,32344,-35112,3030,3030,-666,981,4,-63,-53,890,-150,3814,-2,2,830,1263,1425,1119,1273,1345,1062,1315,1446
36112,32352,-35116,3030,3030,-766,956,5,-64,-51,911,-121,3829,-5,3,830,1263,1425,1119,1273,1345,1062,1315,1446
37113,32344,-35104,3030,3030,-666,856,1,-65,-53,909,-146,3828,7,-8,828,1263,1425,1119,1273,1346,1062,1315,1446
38114,32344,-35100,3030,3030,-716,905,1,-61,-55,896,-141,3803,-9,6,828,1263,1425,1119,1273,1346,1062,1315,1446
39115,32344,-35112,3030,3030,-716,1006,5,-63,-53,893,-141,3815,-1,-4,830,1263,1425,1119,1273,1346,1062,1315,1446
40116,32344,-35104,3030,3030,-716,881,8,-63,-54,898,-129,3840,7,-3,830,1263,1425,1119,1273,1346,1062,1315,1446
41117,32352,-35124,3030,3030,-766,1056,4,-61,-55,899,-133,3865,-4,-4,830,1263,1425,1119,1273,1346,1062,1315,1446
42118,32340,-35108,3030,3030,-641,831,2,-59,-54,874,-162,3830,-6,-2,830,1263,1425,1119,1273,1346,1062,1315,1446
43119,32352,-35096,3030,3030,-791,855,4,-59,-54,882,-144,3816,7,6,830,1264,1426,1120,1273,1346,1063,1315,1446
44120,32340,-35104,3030,3030,-641,981,6,-63,-53,879,-139,3817,-8,-5,830,1264,1426,1120,1273,1346,1063,1315,1446
45121,32344,-35100,3030,3030,-741,905,6,-65,-55,890,-142,3843,6,7,830,1264,1426,1120,1273,1346,1063,1315,1446
46122,32336,-35116,3030,3030,-666,1031,4,-66,-56,902,-152,3874,-3,-7,830,1264,1426,1120,1273,1346,1063,1315,1446
47123,32340,-35120,3030,3030,-741,956,5,-64,-55,895,-155,3835,-4,7,830,1264,1426,1120,1273,1346,1063,1315,1446
48124,32352,-35120,3030,3030,-791,931,4,-62,-53,888,-148,3848,6,-7,830,1263,1425,1120,1274,1345,1059,1316,1448
49125,32340,-35100,3030,3030,-641,805,5,-61,-53,893,-129,3793,-4,4,830,1263,1425,1120,1274,1345,1059,1316,1448
50126,32348,-35116,3030,3030,-766,1031,4,-61,-54,884,-123,3807,-2,-7,830,1263,1425,1120,1274,1345,1059,1316,1448
51127,32336,-35112,3030,3030,-641,906,3,-62,-54,897,-123,3788,3,4,830,1263,1425,1120,1274,1345,1059,1316,1448
52128,32352,-35116,3030,3030,-816,956,4,-64,-54,907,-115,3829,-7,-2,830,1263,1425,1120,1274,1345,1059,1316,1448
53129,32352,-35104,3030,3030,-716,856,5,-64,-53,912,-146,3825,3,5,830,1263,1425,1120,1274,1345,1059,1316,1448
54130,32364,-35116,3030,3030,-792,1006,4,-63,-56,926,-143,3821,-3,3,828,1263,1425,1120,1274,1346,1062,1315,1446
55131,32348,-35104,3030,3030,-616,856,3,-62,-56,907,-136,3804,-6,-8,828,1263,1425,1120,1274,1346,1062,1315,1446
56132,32348,-35116,3030,3030,-716,1006,1,-61,-54,899,-136,3825,5,7,830,1263,1425,1120,1274,1346,1062,1315,1446
57133,32340,-35112,3030,3030,-666,906,3,-64,-52,884,-152,3803,-7,-6,830,1263,1425,1120,1274,1346,1062,1315,1446
58134,32360,-35108,3030,3030,-842,906,6,-64,-54,886,-168,3815,6,-2,830,1263,1425,1120,1274,1346,1062,1315,1446
59135,32348,-35104,3030,3030,-641,906,5,-65,-56,904,-148,3815,-6,-1,830,1263,1426,1120,1274,1345,1062,1315,1446
60136,32340,-35104,3030,3030,-666,931,4,-62,-56,886,-120,3803,0,-5,830,1263,1426,1120,1274,1345,1062,1315,1446
61137,32352,-35104,3030,3030,-791,931,3,-61,-55,899,-133,3782,-9,6,830,1263,1426,1120,1274,1345,1062,1315,1446
62138,32336,-35108,3030,3030,-616,956,3,-64,-52,900,-126,3794,6,-6,830,1263,1426,1120,1274,1345,1062,1315,1446
63139,32344,-35112,3030,3030,-766,956,5,-64,-51,896,-131,3785,-9,7,830,1263,1426,1120,1274,1345,1062,1315,1446
64140,32344,-35100,3030,3030,-716,855,4,-63,-53,878,-139,3819,2,-7,830,1263,1426,1120,1274,1345,1062,1315,1446
65141,32336,-35112,3030,3030,-666,1006,2,-65,-54,906,-149,3861,2,7,830,1264,1426,1120,1273,1345,1062,1315,1446
66142,32352,-35100,3030,3030,-816,855,4,-65,-54,917,-139,3844,-9,-7,830,1264,1426,1120,1273,1345,1062,1315,1446
67143,32332,-35108,3030,3030,-591,981,6,-64,-57,912,-127,3823,4,5,830,1264,1426,1120,1273,1345,1062,1315,1446
68144,32348,-35108,3030,3030,-816,931,6,-64,-57,893,-149,3825,-7,-8,830,1264,1426,1120,1273,1345,1062,1315,1446
69145,32340,-35100,3030,3030,-666,880,4,-66,-57,890,-158,3827,5,5,830,1264,1426,1120,1273,1345,1062,1315,1446
70146,32348,-35116,3030,3030,-766,1031,5,-65,-57,904,-155,3821,-2,-7,830,1263,1425,1121,1271,1343,1063,1316,1448
71147,32348,-35112,3030,3030,-716,906,6,-65,-55,890,-122,3799,-3,7,828,1263,1425,1121,1271,1343,1063,1316,1448
72148,32352,-35104,3030,3030,-741,881,6,-63,-54,894,-128,3821,-4,-5,827,1263,1425,1121,1271,1343,1063,1316,1448
73149,32348,-35120,3030,3030,-691,1031,5,-62,-56,914,-116,3806,-8,-1,830,1263,1425,1121,1271,1343,1063,1316,1448
74150,32348,-35104,3030,3030,-716,831,2,-64,-55,905,-130,3827,6,-6,830,1263,1425,1121,1271,1343,1063,1316,1448
75151,32344,-35116,3030,3030,-691,1006,4,-65,-53,908,-152,3841,-9,2,830,1263,1425,1121,1271,1343,1063,1316,1448
76152,32344,-35116,3030,3030,-716,931,5,-64,-53,897,-130,3840,6,2,830,1263,1425,1120,1274,1345,1063,1315,1446
77153,32352,-35120,3030,3030,-766,956,6,-63,-56,904,-128,3814,-6,-6,831,1263,1425,1120,1274,1345,1063,1315,1446
78154,32340,-35104,3030,3030,-641,831,4,-64,-55,885,-130,3781,-3,7,830,1263,1425,1120,1274,1345,1063,1315,1446
79155,32352,-35100,3030,3030,-791,905,4,-65,-55,880,-118,3771,7,-5,830,1263,1425,1120,1274,1345,1063,1315,1446
80156,32344,-35108,3030,3030,-666,981,4,-65,-53,912,-118,3797,-8,4,830,1263,1425,1120,1274,1345,1063,1315,1446
81157,32344,-35096,3030,3030,-716,855,2,-65,-54,900,-135,3772,4,-4,830,1263,1425,1121,1274,1345,1062,1315,1447
82158,32344,-35112,3030,3030,-716,1031,2,-65,-53,916,-138,3802,1,-5,830,1263,1425,1121,1274,1345,1062,1315,1447
83159,32344,-35116,3030,3030,-716,956,5,-65,-55,902,-123,3816,-8,2,830,1263,1425,1121,1274,1345,1062,1315,1447
84160,32352,-35112,3030,3030,-766,906,6,-65,-54,885,-123,3815,7,-7,830,1263,1425,1121,1274,1345,1062,1315,1447
85161,32348,-35104,3030,3030,-691,881,4,-66,-53,903,-124,3820,-1,5,830,1263,1425,1121,1274,1345,1062,1315,1447
86162,32336,-35100,3030,3030,-641,905,2,-66,-51,905,-131,3860,-7,-6,830,1263,1425,1121,1274,1345,1062,1315,1447
87163,32344,-35112,3030,3030,-766,1006,2,-65,-50,909,-149,3867,6,-3,830,1264,1425,1120,1273,1346,1062,1315,1447
88164,32348,-35112,3030,3030,-741,931,1,-65,-52,885,-155,3834,-7,7,828,1264,1425,1120,1273,1346,1062,1315,1447
89165,32344,-35096,3030,3030,-691,830,1,-63,-54,889,-136,3834,0,-7,828,1264,1425,1120,1273,1346,1062,1315,1447
90166,32332,-35124,3030,3030,-641,1106,3,-62,-55,900,-121,3818,-1,-2,831,1264,1425,1120,1273,1346,1062,1315,1447
91170,32352,-35112,3030,3030,-841,856,3,-63,-53,894,-129,3827,-4,6,830,1264,1425,1120,1273,1346,1062,1315,1447
92168,32340,-35108,3030,3030,-641,906,3,-65,-53,903,-159,3860,0,-8,830,1261,1423,1120,1276,1348,1064,1315,1447
93169,32356,-35108,3030,3030,-816,931,4,-63,-52,902,-140,3829,-5,0,830,1261,1423,1120,1276,1348,1064,1315,1447
94170,32348,-35104,3030,3030,-666,906,3,-61,-53,886,-132,3847,7,7,830,1261,1423,1120,1276,1348,1064,1315,1447
95171,32360,-35104,3030,3030,-792,931,3,-64,-51,909,-117,3813,-8,-7,830,1261,1423,1120,1276,1348,1064,1315,1447
96172,32336,-35108,3030,3030,-566,956,3,-66,-52,889,-107,3785,0,-3,830,1261,1423,1120,1276,1348,1064,1315,1447
97173,32340,-35092,3030,3030,-741,830,3,-67,-51,902,-123,3799,5,7,830,1261,1423,1120,1276,1348,1064,1315,1447
98174,32324,-35112,3030,3030,-616,1056,2,-65,-51,910,-135,3830,-9,-8,830,1263,1425,1120,1273,1346,1062,1314,1448
99175,32348,-35100,3030,3030,-866,855,1,-62,-52,895,-157,3837,7,-5,830,1263,1425,1120,1273,1346,1062,1314,1448
100176,32348,-35104,606,606,-144,1527,1,-61,-53,895,-149,3824,-1,6,830,1263,1425,1120,1273,1346,1062,1314,1448
101177,32348,-35092,1212,1212,-130,1442,2,-61,-54,891,-142,3823,-8,-5,830,1263,1425,1120,1273,1346,1062,1314,1448
102178,32340,-35068,1818,1818,-65,1381,2,-58,-58,925,-221,3831,7,-13,830,1263,1425,1120,1273,1346,1062,1314,1448
103179,32352,-34996,2424,2424,-175,1094,-5,-46,-81,1041,-458,3721,1,5,807,1263,1425,1120,1273,1345,1062,1314,1446
104180,32352,-34892,3030,3030,-85,906,6,-60,-91,870,-104,3731,-6,0,809,1263,1425,1120,1273,1345,1062,1314,1446
105181,32332,-34796,3636,3636,55,969,0,-53,-84,948,-125,3845,-4,22,806,1263,1425,1120,1273,1345,1062,1314,1446
106182,32344,-34668,4242,4242,-131,780,-27,-25,-101,1077,-355,3728,6,17,812,1263,1425,1120,1273,1345,1062,1314,1446
107183,32336,-34564,4848,4848,9,943,-42,-35,-129,917,-166,3713,2,23,819,1263,1425,1120,1273,1345,1062,1314,1446
108184,32328,-34432,5454,5454,24,779,-36,-64,-124,847,-212,3776,-6,21,818,1263,1425,1120,1273,1345,1062,1314,1446
109185,32340,-34308,6060,6060,-86,841,-21,-79,-117,1040,-12,3901,6,31,820,1263,1424,1119,1272,1345,1062,1316,1446
110186,32332,-34192,6666,6666,54,903,-23,-71,-120,830,-131,3994,-4,33,819,1263,1424,1119,1272,1345,1062,1316,1446
111187,32340,-34060,7272,7272,-32,815,-20,-90,-127,664,-197,3976,-6,24,821,1263,1424,1119,1272,1345,1062,1316,1446
112188,32340,-33928,7878,7878,33,826,-6,-121,-124,866,-141,3967,-3,32,820,1263,1424,1119,1272,1345,1062,1316,1446
113189,32340,-33792,8484,8484,48,813,21,-140,-102,907,-150,3929,1,22,820,1263,1424,1119,1272,1345,1062,1316,1446
114190,32344,-33672,9090,9090,38,924,64,-184,-74,675,262,4148,-2,38,821,1259,1421,1117,1271,1347,1064,1318,1449
115191,32336,-33528,9696,9696,128,786,82,-212,-51,686,-36,4198,-7,24,821,1259,1421,1117,1271,1347,1064,1318,1449
116192,32340,-33380,10302,10302,67,772,107,-265,-27,810,139,4266,-7,21,820,1259,1421,1117,1271,1347,1064,1318,1449
117193,32332,-33236,10908,10908,157,808,122,-268,-4,973,20,4272,9,27,819,1259,1421,1117,1271,1347,1064,1318,1449
118194,32328,-33096,11514,11514,147,845,160,-286,25,801,179,4152,1,37,820,1259,1421,1117,1271,1347,1064,1318,1449
119195,32336,-32964,12120,12120,87,906,181,-291,48,820,100,4279,4,24,821,1259,1421,1117,1271,1347,1064,1318,1449
120196,32328,-32840,12726,12726,202,968,196,-304,70,817,131,4220,-7,34,820,1270,1440,1129,1282,1344,1059,1314,1447
121197,32340,-32680,13332,13332,91,754,206,-318,91,888,154,4066,-8,28,818,1270,1440,1129,1282,1344,1059,1314,1447
122198,32324,-32528,13938,13938,282,815,193,-306,87,946,-228,4040,8,35,816,1270,1440,1129,1282,1344,1059,1314,1447
123199,32340,-32388,14544,14544,96,901,195,-332,84,783,154,3847,-6,30,815,1270,1440,1129,1282,1344,1059,1314,1447
124200,32328,-32252,15150,15150,286,938,202,-339,107,985,112,3985,4,28,821,1270,1440,1129,1282,1344,1059,1314,1447
125201,32336,-32112,15756,15756,176,924,200,-337,132,918,-120,3846,-4,39,818,1300,1471,1145,1298,1342,1058,1315,1450
126202,32324,-31956,16384,16384,3472,3800,196,-333,133,662,70,3854,8,37,819,1300,1471,1145,1298,1342,1058,1315,1450
127203,32328,-31752,16990,16990,3387,3701,205,-351,140,602,-137,3894,7,26,817,1300,1471,1145,1298,1342,1058,1315,1450
128204,32352,-31584,17596,17596,3276,3800,227,-384,161,695,-353,3934,-3,219,818,1300,1471,1145,1298,1342,1058,1315,1450
129205,32604,-31300,18202,18202,1860,3220,277,-290,169,846,-520,4266,-248,19,744,1300,1471,1145,1298,1342,1058,1315,1450
130206,32892,-30940,18808,18808,1643,2751,323,-88,185,1326,-1329,4493,-186,253,736,1300,1471,1145,1298,1342,1058,1315,1450
131207,33308,-30488,19414,19414,847,2180,338,-5,196,1128,-776,4755,-80,11,744,1283,1447,1059,1175,1261,1006,1245,1375
132208,33708,-30052,20020,20020,952,2284,320,-21,187,1404,-323,5533,74,53,756,1283,1447,1059,1175,1261,1006,1245,1375
133209,34080,-29616,20626,20626,1133,2288,293,-55,265,1002,167,5353,77,82,768,1283,1447,1059,1175,1261,1006,1245,1375
134210,34456,-29176,21232,21232,1114,2267,293,-177,357,1101,291,5351,87,76,792,1283,1447,1059,1175,1261,1006,1245,1375
135211,34836,-28692,21838,21838,1094,1995,273,-171,478,407,1118,4979,74,80,789,1283,1447,1059,1175,1261,1006,1245,1375
136212,35252,-28100,22444,22444,874,1320,260,-147,599,602,372,5029,87,95,788,1251,1435,1119,1275,1363,1073,1339,1469
137213,35660,-27600,23050,23050,929,1898,254,-83,712,24,1172,5095,82,93,788,1251,1435,1119,1275,1363,1073,1339,1469
138214,36056,-27020,23656,23656,1009,1399,236,-9,840,182,1102,4526,87,91,793,1251,1435,1119,1275,1363,1073,1339,1469
139215,36432,-26492,24262,24262,1139,1726,236,36,964,454,-21,3995,85,97,804,1251,1435,1119,1275,1363,1073,1339,1469
140216,36744,-25896,24868,24868,1547,1301,279,35,1091,87,580,3381,69,94,796,1251,1435,1119,1275,1363,1073,1339,1469
141219,37120,-25208,25474,25474,1152,724,267,62,1144,265,1119,3863,69,100,804,1251,1435,1119,1275,1363,1073,1339,1469
142218,37496,-24524,26080,26080,1158,747,276,227,1103,1003,69,4203,88,100,798,1280,1450,1144,1299,1404,1098,1345,1488
143219,37888,-23884,26686,26686,1063,1021,211,562,1069,1470,447,3934,80,108,800,1280,1450,1144,1299,1404,1098,1345,1488
144220,38276,-23148,27292,27292,1093,418,185,906,1095,1996,-541,3933,75,107,811,1280,1450,1144,1299,1404,1098,1345,1488
145221,38664,-22456,27898,27898,1099,691,125,1397,1005,2511,1174,4039,74,99,811,1280,1450,1144,1299,1404,1098,1345,1488
146222,39020,-21684,28504,28504,1305,187,94,1851,874,2268,-1098,3094,72,121,809,1280,1450,1144,1299,1404,1098,1345,1488
147223,39424,-20980,29110,29110,1010,609,15,2276,813,1580,-188,3061,92,108,816,1292,1440,1148,1289,1385,1086,1302,1431
148224,39788,-20268,29716,29716,1266,557,-73,2472,781,2088,162,2624,91,102,813,1292,1440,1148,1289,1385,1086,1302,1431
149225,40164,-19472,30322,30322,1196,27,-174,2691,817,1752,-431,2078,88,107,814,1292,1440,1148,1289,1385,1086,1302,1431
150226,40528,-18668,30928,30928,1277,-28,-255,2796,829,-70,-253,2271,77,115,815,1292,1440,1148,1289,1385,1086,1302,1431
151227,40900,-17876,31534,31534,1233,43,-312,2629,890,-953,1371,2755,82,118,812,1292,1440,1148,1289,1385,1086,1302,1431
152228,41264,-17100,32140,32140,1289,139,-346,2515,1032,145,1240,3936,83,117,817,1292,1440,1148,1289,1385,1086,1302,1431
153229,41640,-16412,32768,32768,1220,687,-388,2550,1264,-551,153,3677,75,108,816,1209,1315,1076,1241,1323,1056,1251,1351
154230,42012,-15724,33374,33374,1251,685,-452,2618,1332,-515,-602,3222,74,109,816,1209,1315,1076,1241,1323,1056,1251,1351
155231,42380,-15072,33980,33980,1281,909,-480,2543,1229,294,-524,3369,81,95,814,1209,1315,1076,1241,1323,1056,1251,1351
156232,42704,-14460,34586,34586,1563,1159,-453,2375,1141,819,330,4180,77,104,808,1209,1315,1076,1241,1323,1056,1251,1351
157233,43028,-13816,35192,35192,1570,958,-468,2713,1186,835,-334,5300,65,106,807,1209,1315,1076,1241,1323,1056,1251,1351
158234,43376,-13196,35798,35798,1426,1108,-340,3108,1219,2096,298,3684,77,100,808,1118,1229,1021,1184,1325,1048,1267,1385
159235,43684,-12568,36404,36404,1684,1057,-216,3550,1162,2737,1056,3476,67,118,800,1118,1229,1021,1184,1325,1048,1267,1385
160236,43976,-11880,37010,37010,1791,680,-102,3841,1092,2350,1965,2659,69,113,801,1118,1229,1021,1184,1325,1048,1267,1385
161237,44280,-11296,37616,37616,1724,1331,-95,4378,973,3134,255,3673,64,116,803,1118,1229,1021,1184,1325,1048,1267,1385
162238,44596,-10684,38222,38222,1656,1155,-63,4809,825,3001,1021,1710,63,121,798,1118,1229,1021,1184,1325,1048,1267,1385
163239,44880,-10100,38828,38828,1864,1331,27,5116,607,2957,989,2753,65,112,800,1118,1229,1021,1184,1325,1048,1267,1385
164240,45216,-9492,39434,39434,1545,1181,56,5378,438,2081,735,2857,55,123,796,1175,1339,1063,1227,1304,1024,1232,1344
165241,45476,-8852,40040,40040,2029,980,83,5333,304,1839,563,3090,63,113,798,1175,1339,1063,1227,1304,1024,1232,1344
166242,45704,-8248,40646,40646,2238,1205,159,5116,240,1564,1227,3063,50,124,793,1175,1339,1063,1227,1304,1024,1232,1344
167243,45972,-7748,41252,41252,1996,1858,267,4793,187,1361,763,3185,46,132,799,1175,1339,1063,1227,1304,1024,1232,1344
168244,46192,-7196,41858,41858,2306,1534,375,4627,57,1582,480,3476,50,119,790,1175,1339,1063,1227,1304,1024,1232,1344
169245,46464,-6720,42464,42464,1989,2012,593,4253,-62,1150,161,3043,40,114,784,1331,1476,1160,1334,1229,998,1228,1332
170246,46692,-6176,43070,43070,2273,1589,794,4021,-128,975,172,3911,38,135,781,1331,1476,1160,1334,1229,998,1228,1332
171247,46896,-5684,43676,43676,2433,1917,1018,3827,-179,1739,-56,4960,31,126,779,1331,1476,1160,1334,1229,998,1228,1332
172248,47112,-5236,44282,44282,2367,2195,1253,3905,-269,2605,1202,6195,45,133,779,1331,1476,1160,1334,1229,998,1228,1332
173249,47332,-4788,44888,44888,2352,2199,1530,4096,-404,3993,-20,6101,29,117,777,1331,1476,1160,1334,1229,998,1228,1332
174250,47492,-4352,45494,45494,2738,2278,1859,4367,-529,4327,-602,7139,34,118,770,1331,1476,1160,1334,1229,998,1228,1332
175251,47696,-3952,46100,46100,2473,2508,2210,4330,-655,4812,-577,5943,29,115,769,1319,1485,1143,1303,1191,967,1215,1331
176252,47900,-3488,46706,46706,2482,2112,2456,4405,-877,4280,-1010,6914,22,115,766,1319,1485,1143,1303,1191,967,1215,1331
177253,48040,-3132,47312,47312,2894,2793,2663,4107,-975,2191,1639,6967,18,99,758,1319,1485,1143,1303,1191,967,1215,1331
178254,48208,-2808,47918,47918,2729,3000,2846,3758,-983,1949,-1090,7400,33,98,759,1319,1485,1143,1303,1191,967,1215,1331
179255,48408,-2484,48524,48524,2539,3007,2904,3529,-1072,1985,2300,8495,18,70,763,1319,1485,1143,1303,1191,967,1215,1331
180256,48600,-2208,49152,49152,2600,3315,2939,2995,-1048,1263,-432,7358,-10,34,746,1315,1544,1128,1289,1179,934,1240,1390
181257,48748,-1964,49758,49758,2886,3524,2834,2571,-1032,1441,581,9447,8,20,744,1315,1544,1128,1289,1179,934,1240,1390
182258,48908,-1692,50364,50364,2822,3357,2866,2049,-1065,1419,439,7630,18,-39,743,1315,1544,1128,1289,1179,934,1240,1390
183259,49104,-1464,50970,50970,2607,3642,2924,1852,-1140,1683,-1116,7726,23,-170,729,1315,1544,1128,1289,1179,934,1240,1390
184260,49280,-1292,51576,51576,2743,3800,3155,1541,-1245,2065,-458,6286,5,-73,726,1315,1544,1128,1289,1179,934,1240,1390
185261,49416,-1084,52182,52182,3004,3787,3344,1414,-1318,3019,-1262,7424,-1,-121,728,1315,1544,1128,1289,1179,934,1240,1390
186262,49592,-892,52788,52788,2765,3800,3540,1257,-1292,3285,-786,7295,27,259,725,1383,1664,1152,1280,1310,1020,1428,1650
187263,49800,-712,53394,53394,2574,3800,3677,1188,-1317,3588,-1372,7836,10,239,740,1383,1664,1152,1280,1310,1020,1428,1650
188264,50016,-584,54000,54000,2534,3800,3811,1121,-1383,2803,-1724,7133,-20,269,736,1383,1664,1152,1280,1310,1020,1428,1650
189266,50200,-388,54606,54606,2744,3800,3938,1079,-1391,2423,-1798,7540,12,270,737,1383,1664,1152,1280,1310,1020,1428,1650
190266,50352,-200,55212,55212,2955,3800,3967,920,-1356,1903,-1385,6886,38,265,744,1383,1664,1152,1280,1310,1020,1428,1650
191267,50504,-60,55818,55818,2966,3800,3931,786,-1353,1232,-180,7662,26,255,740,1376,1632,1160,1268,1452,1096,1421,1616
192268,50724,72,56424,56424,2551,3800,3837,646,-1346,1100,-679,6724,3,263,738,1376,1632,1160,1268,1452,1096,1421,1616
193269,50932,196,57030,57030,2635,3800,3698,403,-1354,21,-718,6953,-4,246,736,1376,1632,1160,1268,1452,1096,1421,1616
194270,51120,324,57636,57636,2771,3800,3558,99,-1400,-624,376,6767,0,251,738,1376,1632,1160,1268,1452,1096,1421,1616
195271,51244,460,58242,58242,3182,3800,3375,-203,-1376,-427,-1037,6628,16,258,740,1376,1632,1160,1268,1452,1096,1421,1616
196272,51404,588,58848,58848,2968,3800,3197,-467,-1252,-1426,-917,7289,28,266,738,1265,1443,1076,1184,1398,1069,1344,1475
197273,51580,776,59454,59454,2879,3800,3041,-661,-1147,-1727,-712,7024,6,239,740,1265,1443,1076,1184,1398,1069,1344,1475
198274,51800,964,60060,60060,2613,3800,2953,-820,-1093,-1894,-965,7095,-96,247,740,1265,1443,1076,1184,1398,1069,1344,1475
199275,52008,1176,60666,60666,2698,3800,2883,-953,-1040,-2494,-213,6882,-10,258,740,1265,1443,1076,1184,1398,1069,1344,1475
200276,52176,1376,61272,61272,2959,3800,2868,-1093,-965,-2128,-800,6599,-2,257,738,1265,1443,1076,1184,1398,1069,1344,1475
201277,52380,1592,61878,61878,2743,3800,2829,-1134,-878,-1533,-1590,5792,30,266,737,1265,1443,1076,1184,1398,1069,1344,1475
202278,52584,1816,62484,62484,2753,3800,2853,-1174,-871,-1424,-74,5910,32,252,737,1114,1255,1003,1124,1363,1058,1291,1431
203279,52800,2072,63090,63090,2688,3676,2890,-1013,-828,-1529,-849,6326,-8,220,738,1114,1255,1003,1124,1363,1058,1291,1431
204280,53032,2384,63696,63696,2597,3333,2894,-704,-797,-243,155,6229,36,239,738,1114,1255,1003,1124,1363,1058,1291,1431
205281,53216,2692,64302,64302,2907,3366,2881,-414,-724,-693,432,4594,20,-51,736,1114,1255,1003,1124,1363,1058,1291,1431
206282,53424,2992,64908,64908,2767,3423,2837,-191,-622,-619,1431,3384,28,-83,728,1114,1255,1003,1124,1363,1058,1291,1431
207283,53664,3272,65536,65536,2576,3557,2725,-62,-501,-1432,100,3483,33,-93,729,1147,1311,1059,1199,1341,1068,1316,1427
208284,53936,3564,66142,66142,2384,3489,2572,128,-564,1025,2893,3586,14,-125,728,1147,1311,1059,1199,1341,1068,1316,1427
209285,54188,3912,66748,66748,2518,3146,2394,585,-520,134,2169,2820,34,-187,728,1147,1311,1059,1199,1341,1068,1316,1427
210287,54448,4284,67354,67354,2477,3001,2227,928,-414,-1907,4335,2197,46,-154,731,1147,1311,1059,1199,1341,1068,1316,1427
211287,54756,4584,67960,67960,2184,3459,2101,994,-381,-1813,2395,1581,60,-12,734,1147,1311,1059,1199,1341,1068,1316,1427
212288,55056,4888,68566,68566,2241,3441,1898,1185,-433,422,1188,2135,44,0,743,1147,1311,1059,1199,1341,1068,1316,1427
213289,55332,5200,69172,69172,2399,3398,1763,1464,-393,576,2368,2410,49,-189,736,1290,1439,1148,1296,1311,1051,1279,1399
214290,55596,5512,69778,69778,2483,3405,1772,1803,-387,214,2041,3582,68,-170,732,1290,1439,1148,1296,1311,1051,1279,1399
215291,55912,5836,70384,70384,2165,3337,1851,1981,-229,-2357,2795,1549,76,-103,732,1290,1439,1148,1296,1311,1051,1279,1399
216292,56304,6168,70990,70990,1695,3294,2013,1561,42,-2345,933,-346,67,-119,732,1290,1439,1148,1296,1311,1051,1279,1399
217293,56648,6496,71596,71596,2001,3326,2078,1250,183,-1331,2472,1007,64,-82,733,1290,1439,1148,1296,1311,1051,1279,1399
218294,57024,6788,72202,72202,1807,3559,2064,1366,143,-1176,2565,2583,74,-58,742,1171,1271,1051,1167,1271,1023,1191,1327
219295,57432,7144,72808,72808,1612,3165,1975,1581,12,-796,2030,996,90,-84,738,1171,1271,1051,1167,1271,1023,1191,1327
220296,57792,7512,73414,73414,1918,3095,1980,1725,164,-1539,154,1803,85,-196,737,1171,1271,1051,1167,1271,1023,1191,1327
221297,58180,7852,74020,74020,1748,3277,2089,1777,437,-940,692,2687,94,-46,753,1171,1271,1051,1167,1271,1023,1191,1327
222298,58640,8200,74626,74626,1302,3233,2243,1652,361,43,4359,4087,100,-29,748,1171,1271,1051,1167,1271,1023,1191,1327
223299,59100,8464,75232,75232,1305,3767,2304,1748,171,-1589,3769,3356,96,-56,741,1171,1271,1051,1167,1271,1023,1191,1327
224300,59516,8836,75838,75838,1585,3097,2165,1986,34,-1003,3083,1739,102,-56,749,1037,1120,976,1089,1196,953,1142,1259
225301,59948,9200,76444,76444,1489,3153,1958,2267,43,356,4885,1171,101,169,752,1037,1120,976,1089,1196,953,1142,1259
226302,60396,9540,77050,77050,1393,3310,1707,2488,167,-639,4922,738,106,-28,752,1037,1120,976,1089,1196,953,1142,1259
227303,60872,9812,77656,77656,1221,3743,1591,2379,-37,1742,3614,-699,90,-44,752,1037,1120,976,1089,1196,953,1142,1259
228304,61320,10060,78262,78262,1400,3800,1665,2325,470,-3398,1249,1963,99,-98,744,1037,1120,976,1089,1196,953,1142,1259
229305,61804,10404,78868,78868,1178,3308,1683,1925,846,-4060,252,-506,118,111,752,1118,1238,998,1111,1152,948,1176,1346
230306,62284,10972,79474,79474,1206,1909,1854,888,679,-5981,-389,1319,116,246,752,1118,1238,998,1111,1152,948,1176,1346
231307,62768,11564,80080,80080,1184,1759,1899,1009,619,-7151,3405,5483,112,-48,751,1118,1238,998,1111,1152,948,1176,1346
232308,63280,12092,80686,80686,1011,2161,1650,1466,229,1302,3448,3175,109,67,788,1118,1238,998,1111,1152,948,1176,1346
233309,63772,12704,81292,81292,1139,1636,1443,1578,168,426,2925,1328,99,64,792,1118,1238,998,1111,1152,948,1176,1346
234310,64256,13288,81920,81920,1193,1812,1272,1249,-4,3212,1759,61,90,58,788,1118,1238,998,1111,1152,948,1176,1346
235311,64792,13836,82526,82526,869,2039,943,1509,-99,1732,1155,285,88,80,795,1242,1433,1124,1236,1323,1044,1322,1540
236312,65308,14388,83132,83132,997,2015,743,1664,-52,975,2130,-371,103,77,791,1242,1433,1124,1236,1323,1044,1322,1540
237313,65788,14952,83738,83738,1225,1941,609,1839,-20,2048,1289,-39,95,69,791,1242,1433,1124,1236,1323,1044,1322,1540
238314,66328,15528,84344,84344,851,1867,559,1690,135,950,1205,1468,101,70,790,1242,1433,1124,1236,1323,1044,1322,1540
239315,66864,16064,84950,84950,878,2118,595,1393,285,-840,-61,2337,96,65,790,1242,1433,1124,1236,1323,1044,1322,1540
240316,67472,16680,85556,85556,428,1618,640,1322,407,-3713,1199,4253,115,73,794,1247,1406,1084,1169,1400,1091,1343,1559
241317,67980,17244,86162,86162,1055,1944,862,1104,515,-3756,1840,2825,101,72,788,1247,1406,1084,1169,1400,1091,1343,1559
242318,68516,17768,86768,86768,882,2196,1153,837,662,-2411,1305,2814,115,78,803,1247,1406,1084,1169,1400,1091,1343,1559
243319,69028,18392,87374,87374,1034,1571,1120,400,716,-1922,1571,2723,107,80,792,1247,1406,1084,1169,1400,1091,1343,1559
244320,69564,19016,87980,87980,886,1570,924,257,752,-3227,2414,3229,116,75,791,1247,1406,1084,1169,1400,1091,1343,1559
245321,70104,19532,88586,88586,863,2247,729,139,649,-2439,3133,1982,108,99,801,1247,1406,1084,1169,1400,1091,1343,1559
246322,70692,20196,89192,89192,563,1321,588,74,427,-1182,3292,2422,113,95,801,1123,1283,1024,1140,1332,1034,1247,1398
247323,71208,20812,89798,89798,1015,1621,356,-100,269,-1644,2826,1780,103,77,791,1123,1283,1024,1140,1332,1034,1247,1398
248324,71748,21456,90404,90404,867,1445,43,-294,138,-1687,3168,2174,116,107,810,1123,1283,1024,1140,1332,1034,1247,1398
249325,72276,22188,91010,91010,944,892,-232,-554,43,-2308,2344,661,116,123,801,1123,1283,1024,1140,1332,1034,1247,1398
250326,72836,23156,91616,91616,745,-592,-465,-426,-70,-1315,1775,1334,107,112,805,1123,1283,1024,1140,1332,1034,1247,1398
251327,73372,23680,92222,92222,897,2185,-535,-157,-152,-562,-427,-161,106,117,812,1199,1366,1081,1197,1268,1001,1229,1399
252328,73908,24300,92828,92828,898,1585,-548,-90,-185,-911,-806,1231,122,125,814,1199,1366,1081,1197,1268,1001,1229,1399
253329,74460,24932,93434,93434,800,1509,-566,-298,-127,-1733,228,895,122,114,795,1199,1366,1081,1197,1268,1001,1229,1399
254330,74980,25596,94040,94040,1002,1307,-629,-83,-179,1033,-2327,2499,116,118,804,1199,1366,1081,1197,1268,1001,1229,1399
255331,75528,26212,94646,94646,828,1607,-614,147,-195,678,-532,892,119,146,806,1199,1366,1081,1197,1268,1001,1229,1399
256332,76152,26904,95252,95252,353,1130,-513,288,-108,-48,-2089,-731,118,133,808,1199,1366,1081,1197,1268,1001,1229,1399
257333,76704,27512,95858,95858,804,1655,-391,29,32,-561,-931,-1208,115,139,805,1223,1375,1099,1215,1327,1055,1279,1431
258334,77240,28136,96464,96464,906,1555,-353,-332,121,-491,-1053,-1252,107,164,812,1223,1375,1099,1215,1327,1055,1279,1431
259335,77768,28884,97070,97070,958,776,-365,-558,192,-908,-30,-355,121,145,806,1223,1375,1099,1215,1327,1055,1279,1431
260336,78328,29488,97676,97676,759,1676,-553,-428,200,-979,606,1696,125,156,807,1223,1375,1099,1215,1327,1055,1279,1431
261337,78920,30140,98304,98304,560,1376,-537,-287,192,-363,239,-612,107,154,813,1223,1375,1099,1215,1327,1055,1279,1431
262338,79552,30800,98910,98910,309,1324,-640,-346,161,1723,507,264,115,154,807,1180,1314,1036,1186,1255,1008,1238,1337
263339,80088,31472,99516,99516,911,1248,-729,-506,34,1881,1582,847,106,160,811,1180,1314,1036,1186,1255,1008,1238,1337
264340,80632,32080,100122,100122,862,1648,-921,-615,-6,-1604,2051,525,112,151,814,1180,1314,1036,1186,1255,1008,1238,1337
265341,81208,32688,100728,100728,663,1648,-1153,-670,-158,-549,1776,260,109,170,809,1180,1314,1036,1186,1255,1008,1238,1337
266342,81748,33300,101334,101334,890,1622,-1148,-512,-226,-233,1287,200,117,143,805,1180,1314,1036,1186,1255,1008,1238,1337
267343,82396,33928,101940,101940,214,1522,-1125,-431,-238,-138,-1047,29,124,141,808,1180,1314,1036,1186,1255,1008,1238,1337
268344,82980,34628,102546,102546,614,1070,-1024,-351,-361,121,49,1137,126,160,805,1144,1272,993,1153,1219,973,1206,1321
269345,83512,35288,103152,103152,941,1318,-958,-500,-442,-182,-413,2471,119,141,811,1144,1272,993,1153,1219,973,1206,1321
270346,84104,35972,103758,103758,566,1166,-919,-674,-482,-243,-739,1620,111,157,814,1144,1272,993,1153,1219,973,1206,1321
271347,84660,36612,104364,104364,793,1441,-840,-887,-463,-1159,-778,1139,131,148,809,1144,1272,993,1153,1219,973,1206,1321
272348,85180,37396,104970,104970,1020,536,-706,-1034,-412,-587,-1565,794,112,159,814,1144,1272,993,1153,1219,973,1206,1321
273349,85808,38212,105576,105576,344,331,-592,-1021,-335,410,-1284,-14,112,165,808,1153,1299,1044,1188,1244,996,1212,1352
274350,86356,39032,106182,106182,846,301,-532,-921,-252,452,-1449,924,112,162,814,1153,1299,1044,1188,1244,996,1212,1352
275351,86940,39912,106788,106788,621,-81,-498,-809,-188,95,-213,930,123,169,820,1153,1299,1044,1188,1244,996,1212,1352
276352,87544,40800,107394,107394,496,-138,-501,-674,-158,446,-1178,169,120,147,819,1153,1299,1044,1188,1244,996,1212,1352
277353,88112,41796,108000,108000,722,-822,-496,-671,-154,-33,360,-513,126,151,822,1153,1299,1044,1188,1244,996,1212,1352
278354,88804,42860,108606,108606,-55,-1258,-516,-866,-82,-541,2180,260,137,154,823,1153,1299,1044,1188,1244,996,1212,1352
279355,89392,43916,109212,109212,595,-1219,-622,-1371,64,-1536,2856,-115,131,156,810,1275,1428,1130,1281,1246,1005,1234,1360
280356,89988,44844,109818,109818,546,-427,-914,-1184,199,-658,1020,503,124,158,806,1275,1428,1130,1281,1246,1005,1234,1360
281357,90636,45620,110424,110424,220,519,-1043,-846,171,445,361,-535,108,134,803,1275,1428,1130,1281,1246,1005,1234,1360
282358,91280,46452,111030,111030,244,163,-1072,-489,-59,2354,-446,599,128,123,818,1275,1428,1130,1281,1246,1005,1234,1360
283359,91912,47284,111636,111636,318,158,-1134,-516,-308,3326,1040,2009,129,133,822,1275,1428,1130,1281,1246,1005,1234,1360
284360,92588,48020,112242,112242,41,754,-1261,-694,-246,803,2327,1696,118,124,825,1276,1398,1086,1226,1280,1022,1264,1402
285361,93228,48768,112848,112848,266,676,-1304,-1023,-100,-445,2193,782,126,112,825,1276,1398,1086,1226,1280,1022,1264,1402
286362,93888,49476,113454,113454,139,923,-1191,-1348,-26,-1269,1191,-295,137,133,822,1276,1398,1086,1226,1280,1022,1264,1402
287363,94508,50284,114060,114060,389,294,-907,-830,-34,525,-487,1935,125,128,821,1276,1398,1086,1226,1280,1022,1264,1402
288364,95148,50960,114688,114688,264,1117,-580,-180,-241,3461,1757,2109,143,116,818,1276,1398,1086,1226,1280,1022,1264,1402
289365,95772,51636,115294,115294,363,1116,-207,-393,-324,-1109,209,-724,135,121,823,1276,1398,1086,1226,1280,1022,1264,1402
290366,96416,52276,115900,115900,237,1340,-137,-564,-300,-1608,335,4202,128,119,816,1122,1259,1007,1134,1299,1020,1238,1356
291367,97076,53000,116506,116506,136,812,-183,-905,-115,-1881,-401,178,142,110,814,1122,1259,1007,1134,1299,1020,1238,1356
292368,97692,53724,117112,117112,411,809,-157,-1140,189,-2362,-183,-587,137,130,812,1122,1259,1007,1134,1299,1020,1238,1356
293369,98304,54408,117718,117718,435,1057,-85,-968,311,-1104,-216,-1140,122,127,820,1122,1259,1007,1134,1299,1020,1238,1356
294370,98916,55016,118324,118324,435,1532,-46,-403,382,-588,-1208,-679,133,126,818,1122,1259,1007,1134,1299,1020,1238,1356
295371,99616,55672,118930,118930,-117,1231,-144,-44,398,-1142,-16,-164,144,135,817,1152,1298,1042,1208,1147,933,1133,1214
296372,100220,56288,119536,119536,483,1481,-234,89,247,-314,1452,1937,130,130,810,1152,1298,1042,1208,1147,933,1133,1214
297373,100844,56992,120142,120142,358,928,-398,62,59,1054,1115,827,131,133,815,1152,1298,1042,1208,1147,933,1133,1214
298374,101448,57648,120748,120748,483,1227,-579,-102,7,408,1364,-161,122,138,811,1152,1298,1042,1208,1147,933,1133,1214
299375,102040,58228,121354,121354,558,1703,-827,-360,-31,-1567,1811,208,136,148,818,1152,1298,1042,1208,1147,933,1133,1214
300376,102660,58828,121960,121960,383,1578,-1042,-660,-136,-1534,1608,-18,115,139,814,1152,1298,1042,1208,1147,933,1133,1214
301377,103216,59384,122566,122566,784,1854,-1116,-1063,-204,-1109,251,-270,136,148,808,1246,1360,1077,1245,1152,954,1168,1291
302378,103836,60000,123172,123172,384,1479,-1117,-1583,-202,-1989,328,1503,123,138,810,1246,1360,1077,1245,1152,954,1168,1291
303379,104416,60564,123778,123778,634,1805,-1028,-2347,-255,-1594,-1132,1337,118,133,804,1246,1360,1077,1245,1152,954,1168,1291
304380,104984,61084,124384,124384,710,2082,-896,-2615,-489,459,1921,2998,125,147,812,1246,1360,1077,1245,1152,954,1168,1291
305381,105576,61644,124990,124990,560,1833,-821,-2451,-613,1805,-1701,2698,133,156,803,1246,1360,1077,1245,1152,954,1168,1291
306382,106204,62168,125596,125596,335,2060,-851,-2446,-427,1955,-2294,2938,130,158,799,1174,1300,1049,1156,1394,1090,1354,1611
307383,106792,62740,126202,126202,585,1761,-1312,-2146,-110,2470,-822,5970,123,137,804,1174,1300,1049,1156,1394,1090,1354,1611
308384,107372,63252,126808,126808,636,2138,-1983,-1636,79,3801,-893,6936,122,143,801,1174,1300,1049,1156,1394,1090,1354,1611
309385,107912,63708,127414,127414,888,2492,-2741,-1001,5,5158,553,9333,112,143,804,1174,1300,1049,1156,1394,1090,1354,1611
310386,108452,64156,128020,128020,889,2546,-3355,-891,8,3564,-392,7313,121,132,797,1174,1300,1049,1156,1394,1090,1354,1611
311387,108996,64572,128626,128626,866,2750,-3909,-1290,94,2543,1295,10864,101,97,789,1174,1300,1049,1156,1394,1090,1354,1611
312388,109464,64972,129232,129232,1344,2855,-4418,-1279,360,750,-2118,12315,112,94,787,1164,1379,1084,1148,1762,1317,1700,2142
313389,109904,65332,129838,129838,1523,3111,-4652,-1485,831,-832,-2756,12600,94,68,776,1164,1379,1084,1148,1762,1317,1700,2142
314390,110372,65648,130444,130444,1352,3393,-4739,-1619,1141,-1822,-6103,12455,100,41,768,1164,1379,1084,1148,1762,1317,1700,2142
315391,110812,65872,131072,131072,1531,3800,-4477,-2618,1284,-3341,-1730,12372,99,17,758,1164,1379,1084,1148,1762,1317,1700,2142
316395,111192,66048,131678,131678,1912,3800,-4258,-3466,1446,-2164,-5420,13047,91,-23,748,1164,1379,1084,1148,1762,1317,1700,2142
317393,111636,66240,132284,132284,1516,3800,-4165,-4291,1586,-2246,-3948,12829,104,-145,752,1168,1426,1174,1254,2468,1671,2122,2495
318394,111992,66376,132890,132890,2072,3800,-4042,-4971,1616,-516,-815,14456,80,245,748,1168,1426,1174,1254,2468,1671,2122,2495
319395,112288,66480,133496,133496,2454,3800,-4030,-5038,1615,2327,-1631,14819,75,243,753,1168,1426,1174,1254,2468,1671,2122,2495
320396,112604,66540,134102,134102,2336,3800,-4031,-5137,1668,2834,447,13766,78,263,744,1168,1426,1174,1254,2468,1671,2122,2495
321397,112904,66556,134708,134708,2444,3800,-4191,-4729,1595,6002,379,16287,68,243,744,1168,1426,1174,1254,2468,1671,2122,2495
322398,113148,66560,135314,135314,2803,3800,-4341,-4188,1535,6142,2025,16503,64,230,744,1168,1426,1174,1254,2468,1671,2122,2495
323399,113344,66560,135920,135920,3113,3800,-4508,-3572,1547,6198,555,16516,60,251,744,1511,1864,1396,1632,1950,1383,1815,1855
324400,113484,66584,136526,136526,3474,3800,-4535,-3103,1625,5359,113,15693,34,238,740,1511,1864,1396,1632,1950,1383,1815,1855
325401,113652,66612,137132,137132,3310,3800,-4418,-2807,1784,3918,654,14382,16,238,746,1511,1864,1396,1632,1950,1383,1815,1855
326402,113888,66588,137738,137738,2894,3800,-4140,-2664,2003,3399,1064,15088,-34,225,754,1511,1864,1396,1632,1950,1383,1815,1855
327403,114012,66588,138344,138344,3606,3800,-3946,-2699,2223,2405,585,14331,-266,251,744,1511,1864,1396,1632,1950,1383,1815,1855
328404,114140,66584,138950,138950,3592,3800,-3698,-2985,2418,41,-232,14245,-132,251,738,2071,2203,1535,1931,1253,1035,1299,1259
329405,114220,66608,139556,139556,3800,3800,-3304,-3208,2450,-1996,189,13750,-6,251,752,2071,2203,1535,1931,1253,1035,1299,1259
330406,114300,66644,140162,140162,3800,3800,-2696,-3416,2371,-3078,-663,13004,-224,255,752,2071,2203,1535,1931,1253,1035,1299,1259
331407,114420,66696,140768,140768,3680,3800,-1925,-3719,2301,-3206,-601,12545,-244,233,770,2071,2203,1535,1931,1253,1035,1299,1259
332408,114552,66780,141374,141374,3616,3800,-1193,-3919,2279,-2346,-443,13679,247,215,770,2071,2203,1535,1931,1253,1035,1299,1259
333409,114644,66824,141980,141980,3800,3800,-560,-3920,2361,-1477,-205,14088,246,213,760,2071,2203,1535,1931,1253,1035,1299,1259
334410,114840,66916,142586,142586,3239,3800,31,-3792,2398,-930,-342,13588,-100,217,752,1743,1767,1279,1599,998,847,1058,1051
335411,115032,67080,143192,143192,3274,3800,565,-3402,2324,-220,311,13242,-218,215,768,1743,1767,1279,1599,998,847,1058,1051
336412,115184,67232,143798,143798,3535,3800,1104,-2851,2218,535,545,12311,214,245,744,1743,1767,1279,1599,998,847,1058,1051
337413,115336,67456,144404,144404,3546,3800,1597,-2267,2204,1130,737,11558,-118,273,744,1743,1767,1279,1599,998,847,1058,1051
338414,115468,67736,145010,145010,3683,3800,2025,-1616,2223,1814,1143,10743,-138,239,752,1743,1767,1279,1599,998,847,1058,1051
339415,115616,68044,145616,145616,3594,3755,2400,-1003,2175,1788,2073,9406,-280,235,752,1399,1551,1150,1367,981,839,1069,1134
340416,115792,68424,146222,146222,3429,3311,2802,-619,2110,1327,2954,7831,-264,233,768,1399,1551,1150,1367,981,839,1069,1134
341417,116000,68832,146828,146828,3239,3141,3183,-505,2075,1498,1681,5857,-84,269,748,1399,1551,1150,1367,981,839,1069,1134
342418,116208,69300,147456,147456,3249,2770,3517,-529,2048,993,2727,5650,-228,143,728,1399,1551,1150,1367,981,839,1069,1134
343419,116408,69856,148062,148062,3309,2221,3789,-560,2106,809,684,4424,-188,-18,728,1399,1551,1150,1367,981,839,1069,1134
344420,116608,70364,148668,148668,3319,2523,4041,-499,2107,1330,1665,3197,-66,29,729,1399,1551,1150,1367,981,839,1069,1134
345421,116852,70872,149274,149274,3053,2526,4421,-463,2074,-141,2187,2815,-93,69,736,1320,1456,1095,1279,1130,944,1236,1342
346422,117136,71368,149880,149880,2811,2603,4698,-260,1950,535,1034,2155,-142,92,733,1320,1456,1095,1279,1130,944,1236,1342
347423,117368,71916,150486,150486,3145,2280,4949,-78,1884,1701,1269,1726,-142,76,743,1320,1456,1095,1279,1130,944,1236,1342
348424,117624,72404,151092,151092,3004,2658,5150,110,1930,2144,1759,1495,-18,61,744,1320,1456,1095,1279,1130,944,1236,1342
349425,117912,73020,151698,151698,2811,1857,5279,271,1922,1699,540,948,21,73,745,1320,1456,1095,1279,1130,944,1236,1342
350426,118192,73608,152304,152304,2869,2033,5390,573,2051,-1729,398,2005,-20,75,744,1264,1447,1096,1232,1239,973,1200,1304
351427,118448,74248,152910,152910,3028,1707,5537,760,1976,-478,194,2018,4,64,758,1264,1447,1096,1232,1239,973,1200,1304
352428,118724,74944,153516,153516,2911,1355,5509,989,1795,459,-831,3403,23,96,757,1264,1447,1096,1232,1239,973,1200,1304
353429,119048,75560,154122,154122,2618,1855,5418,947,1715,160,1692,2978,21,89,755,1264,1447,1096,1232,1239,973,1200,1304
354430,119400,76284,154728,154728,2449,1177,5266,935,1608,728,-237,3596,0,109,765,1264,1447,1096,1232,1239,973,1200,1304
355431,119724,76976,155334,155334,2631,1375,5097,1001,1508,-626,-484,3695,13,107,765,1264,1447,1096,1232,1239,973,1200,1304
356432,120068,77612,155940,155940,2512,1724,4981,1000,1419,-296,2280,3917,44,100,776,1088,1216,994,1106,1200,960,1143,1251
357433,120388,78328,156546,156546,2669,1221,4839,933,1301,523,-67,2934,44,91,769,1088,1216,994,1106,1200,960,1143,1251
358434,120688,79024,157152,157152,2802,1344,4725,867,1304,-1040,-462,3679,43,108,769,1088,1216,994,1106,1200,960,1143,1251
359435,121012,79740,157758,157758,2659,1216,4794,532,1279,415,1354,2872,56,105,772,1088,1216,994,1106,1200,960,1143,1251
360436,121392,80468,158364,158364,2314,1138,4849,624,1261,662,-1326,5139,50,106,766,1088,1216,994,1106,1200,960,1143,1251
361437,121780,81156,158970,158970,2269,1386,4896,997,1389,-1828,899,4825,37,99,771,1040,1145,944,1095,1308,1031,1261,1418
362438,122128,81888,159576,159576,2526,1108,4793,1530,1553,-613,-533,4602,47,100,781,1040,1145,944,1095,1308,1031,1261,1418
363439,122536,82556,160182,160182,2156,1507,4698,1786,1938,244,-2330,2391,75,113,779,1040,1145,944,1095,1308,1031,1261,1418
364440,122952,83204,160788,160788,2110,1631,4788,1583,2238,958,280,2538,81,105,779,1040,1145,944,1095,1308,1031,1261,1418
365441,123436,83944,161394,161394,1688,1052,4814,1507,2195,-1614,338,2537,70,103,782,1040,1145,944,1095,1308,1031,1261,1418
366444,123884,84624,162000,162000,1917,1426,4652,1747,1966,-2193,1609,-162,94,112,783,1040,1145,944,1095,1308,1031,1261,1418
367443,124368,85364,162606,162606,1695,1047,4390,2198,1840,1864,932,150,81,109,796,1155,1328,1100,1265,1434,1113,1394,1544
368444,124876,86084,163212,163212,1547,1170,3953,2663,1870,3614,778,-974,87,122,788,1155,1328,1100,1265,1434,1113,1394,1544
369445,125380,86784,163840,163840,1575,1293,3520,3006,1875,1612,2019,-232,88,109,799,1155,1328,1100,1265,1434,1113,1394,1544
370446,125928,87600,164446,164446,1302,563,3109,3063,1761,-671,938,-594,106,127,799,1155,1328,1100,1265,1434,1113,1394,1544
371447,126528,88312,165052,165052,977,1210,2850,3172,1619,-608,-639,-1659,101,114,797,1155,1328,1100,1265,1434,1113,1394,1544
372448,127096,89044,165658,165658,1178,1082,2749,3075,1554,497,-632,-1051,113,127,809,1387,1536,1184,1320,1445,1120,1376,1512
373449,127672,89728,166264,166264,1129,1380,2743,3124,1520,120,-1083,-57,111,130,808,1387,1536,1184,1320,1445,1120,1376,1512
374450,128328,90420,166870,166870,627,1328,2833,3231,1420,-576,-1302,2085,122,121,807,1387,1536,1184,1320,1445,1120,1376,1512
375451,128924,91180,167476,167476,1003,899,3010,3417,1310,-947,-1649,1990,109,139,805,1387,1536,1184,1320,1445,1120,1376,1512
376452,129616,91776,168082,168082,401,1924,3269,3414,1232,227,-861,2540,131,147,810,1387,1536,1184,1320,1445,1120,1376,1512
377453,130200,92328,168688,168688,1076,2201,3413,3383,1221,910,-971,2196,129,133,808,1387,1536,1184,1320,1445,1120,1376,1512
378454,130836,92936,169294,169294,750,1851,3326,3251,1179,516,-48,1807,126,138,805,1141,1261,1007,1107,1317,1014,1224,1347
379455,131444,93544,169900,169900,925,1851,3184,3384,1198,-966,-876,2306,117,145,794,1141,1261,1007,1107,1317,1014,1224,1347
380456,132048,94112,170506,170506,950,2102,3089,3517,1172,-401,-760,1617,128,129,802,1141,1261,1007,1107,1317,1014,1224,1347
381457,132696,94680,171112,171112,674,2103,2938,3739,1182,-442,-1473,2196,136,141,803,1141,1261,1007,1107,1317,1014,1224,1347
382458,133364,95284,171718,171718,548,1878,2815,3460,1311,-884,75,1674,123,143,797,1141,1261,1007,1107,1317,1014,1224,1347
383459,133960,95864,172324,172324,998,2028,2582,3291,1474,-672,-623,1615,127,134,800,1039,1167,940,1079,1131,916,1131,1250
384460,134560,96512,172930,172930,973,1602,2322,3114,1633,-770,-616,-111,146,143,805,1039,1167,940,1079,1131,916,1131,1250
385461,135152,97128,173536,173536,1024,1802,2088,2958,1795,-758,507,185,124,131,797,1039,1167,940,1079,1131,916,1131,1250
386462,135748,97748,174142,174142,999,1777,1950,2988,1878,326,-960,-1232,135,138,805,1039,1167,940,1079,1131,916,1131,1250
387463,136424,98340,174748,174748,497,1952,1843,3088,1851,1599,-1012,350,141,159,801,1039,1167,940,1079,1131,916,1131,1250
388464,137012,98908,175354,175354,1048,2103,1936,3293,1653,3395,-180,-1043,119,147,800,1039,1167,940,1079,1131,916,1131,1250
389465,137616,99540,175960,175960,948,1702,2002,3668,1842,-33,-1697,-408,123,150,804,1174,1339,1052,1200,1234,999,1263,1419
390466,138228,100172,176566,176566,897,1702,2122,3659,1871,-412,1555,-2700,138,147,798,1174,1339,1052,1200,1234,999,1263,1419
391467,138820,100864,177172,177172,1023,1324,2191,3282,1731,1076,-372,-2120,140,143,805,1174,1339,1052,1200,1234,999,1263,1419
392468,139420,101592,177778,177778,973,1097,2276,2733,1680,1858,-162,-2107,126,162,805,1174,1339,1052,1200,1234,999,1263,1419
393469,140076,102368,178384,178384,622,792,2345,2600,1621,1481,-1099,-678,132,160,809,1174,1339,1052,1200,1234,999,1263,1419
394470,140704,103272,178990,178990,796,-15,2544,2807,1454,463,-362,76,137,174,808,1273,1433,1123,1260,1365,1065,1317,1454
395471,141312,104168,179596,179596,921,28,2698,2907,1297,739,1063,350,124,163,817,1273,1433,1123,1260,1365,1065,1317,1454
396472,141976,105132,180224,180224,570,-405,2818,2656,1214,1292,1016,-798,147,173,821,1273,1433,1123,1260,1365,1065,1317,1454
397473,142560,106128,180830,180830,1071,-615,2700,2120,1200,359,1136,-1217,131,170,819,1273,1433,1123,1260,1365,1065,1317,1454
398474,143232,107192,181436,181436,519,-1051,2587,1871,1246,-339,481,448,126,168,819,1273,1433,1123,1260,1365,1065,1317,1454
399475,143880,108320,182042,182042,668,-1464,2484,1852,1252,-968,795,-9,128,176,811,1273,1433,1123,1260,1365,1065,1317,1454
400476,144496,109332,182648,182648,868,-749,2389,1977,1273,-2334,2784,2313,132,156,807,1255,1392,1077,1220,1222,967,1197,1295
401477,145136,110316,183254,183254,717,-583,2291,1854,1447,-2066,2709,3137,117,168,796,1255,1392,1077,1220,1222,967,1197,1295
402478,145808,111176,183860,183860,516,186,2121,1939,1719,-673,1246,1170,114,150,810,1255,1392,1077,1220,1222,967,1197,1295
403479,146484,112028,184466,184466,489,230,2049,1968,2038,-188,-332,1311,128,139,814,1255,1392,1077,1220,1222,967,1197,1295
404480,147104,112924,185072,185072,838,-52,1886,1986,2111,475,-1269,-274,120,140,822,1255,1392,1077,1220,1222,967,1197,1295
405481,147752,113744,185678,185678,662,418,1843,1788,1926,1775,-296,1030,119,136,823,1150,1302,1012,1141,1165,939,1163,1314
406482,148384,114480,186284,186284,762,940,1687,1787,1959,1153,-1378,3614,140,136,821,1150,1302,1012,1141,1165,939,1163,1314
407483,149032,115216,186890,186890,661,936,1749,2131,2217,825,-2090,1979,121,125,820,1150,1302,1012,1141,1165,939,1163,1314
408484,149704,115956,187496,187496,509,908,2008,2532,2377,1060,-2206,1307,137,133,814,1150,1302,1012,1141,1165,939,1163,1314
409485,150428,116776,188102,188102,181,403,2379,2828,2430,488,-1343,1065,144,114,816,1150,1302,1012,1141,1165,939,1163,1314
410486,151048,117492,188708,188708,831,1050,2628,2919,2422,1244,-1243,-21,141,139,817,1150,1302,1012,1141,1165,939,1163,1314
411487,151592,118192,189314,189314,1307,1148,2785,2848,2413,1430,-1277,-1059,125,135,821,1120,1265,1017,1131,1299,1028,1258,1405
412488,152184,118916,189920,189920,1008,995,2820,2877,2379,23,-60,-267,128,137,813,1120,1265,1017,1131,1299,1028,1258,1405
413489,152848,119560,190526,190526,556,1494,2938,3029,2286,-935,87,-758,151,145,807,1120,1265,1017,1131,1299,1028,1258,1405
414491,153592,120332,191132,191132,53,690,2982,3175,2219,-1494,-127,-904,126,139,811,1120,1265,1017,1131,1299,1028,1258,1405
415491,154256,120940,191738,191738,552,1715,2941,3263,2151,-1482,1620,-1513,143,130,810,1120,1265,1017,1131,1299,1028,1258,1405
416492,154876,121616,192344,192344,826,1288,2812,2976,2114,-1627,2287,-2856,141,139,822,1216,1381,1098,1280,1232,1001,1227,1281
417493,155560,122260,192950,192950,424,1487,2590,2745,2081,-2025,2711,-2399,133,151,808,1216,1381,1098,1280,1232,1001,1227,1281
418494,156272,122956,193556,193556,247,1160,2302,2577,1961,-1718,2583,-282,129,147,812,1216,1381,1098,1280,1232,1001,1227,1281
419495,156948,123656,194162,194162,470,1133,2120,2576,1891,-1508,2395,-241,145,159,811,1216,1381,1098,1280,1232,1001,1227,1281
420496,157720,124312,194768,194768,-134,1407,1936,2619,1896,-444,1888,999,133,147,816,1216,1381,1098,1280,1232,1001,1227,1281
421497,158424,124916,195374,195374,289,1732,1917,2373,1926,212,1425,18,128,160,816,1281,1371,1069,1254,1184,969,1184,1284
422498,159112,125512,195980,195980,387,1782,1902,1958,1916,-17,1160,661,146,161,814,1281,1371,1069,1254,1184,969,1184,1284
423499,159780,126080,196608,196608,511,1958,2001,1730,1941,22,674,2474,143,143,810,1281,1371,1069,1254,1184,969,1184,1284
424500,160484,126696,197214,197214,283,1658,2140,1655,1990,313,-1368,2098,140,170,809,1281,1371,1069,1254,1184,969,1184,1284
425501,161392,127268,197820,197820,-999,1934,2186,1709,1916,11,-3695,2743,157,148,805,1281,1371,1069,1254,1184,969,1184,1284
426502,162092,127832,198426,198426,299,1985,2324,1738,1794,644,-1966,4868,132,157,812,1281,1371,1069,1254,1184,969,1184,1284
427503,162796,128376,199032,199032,271,2112,2081,1681,1563,1730,1649,3871,142,157,795,1131,1249,1007,1115,1281,1010,1231,1439
428504,163416,128928,199638,199638,796,2063,2012,1051,1430,-354,539,1525,134,144,805,1131,1249,1007,1115,1281,1010,1231,1439
429505,163976,129512,200244,200244,1172,1863,1787,720,1366,-1487,1175,3779,139,160,804,1131,1249,1007,1115,1281,1010,1231,1439
430506,164608,130072,200850,200850,721,2014,1515,331,1412,-3734,-2172,1040,129,140,800,1131,1249,1007,1115,1281,1010,1231,1439
431507,165360,130608,201456,201456,-32,2166,1177,139,1440,-2155,-2985,3196,132,149,800,1131,1249,1007,1115,1281,1010,1231,1439
432508,165988,131156,202062,202062,742,2093,879,118,1453,234,-2709,2668,129,126,799,1138,1335,1062,1140,1436,1094,1410,1745
433509,166692,131664,202668,202668,265,2345,581,197,1507,1417,-1245,3098,132,128,802,1138,1335,1062,1140,1436,1094,1410,1745
434510,167360,132256,203274,203274,488,1820,293,303,1357,733,1364,2624,140,120,799,1138,1335,1062,1140,1436,1094,1410,1745
435511,167940,132752,203880,203880,1039,2423,-92,109,1067,-1633,109,1486,127,117,796,1138,1335,1062,1140,1436,1094,1410,1745
436512,168648,133292,204486,204486,236,2150,-338,-314,935,-1900,2274,1916,143,99,803,1138,1335,1062,1140,1436,1094,1410,1745
437513,169284,133784,205092,205092,686,2452,-713,-504,798,814,-685,2155,146,114,788,1138,1335,1062,1140,1436,1094,1410,1745
438514,169968,134288,205698,205698,384,2380,-879,-914,779,-489,1801,3064,144,75,797,1227,1481,1115,1186,1647,1227,1624,1940
439515,170564,134780,206304,206304,934,2458,-1326,-1151,597,-949,863,3771,125,79,788,1227,1481,1115,1186,1647,1227,1624,1940
440516,171204,135180,206910,206910,658,3038,-1725,-1736,330,-4479,2328,2711,141,53,790,1227,1481,1115,1186,1647,1227,1624,1940
441517,171868,135540,207516,207516,507,3294,-2210,-2009,80,-2553,3003,5070,130,43,783,1227,1481,1115,1186,1647,1227,1624,1940
442518,172552,135896,208122,208122,380,3325,-2792,-1876,-170,1184,-686,3817,136,41,768,1227,1481,1115,1186,1647,1227,1624,1940
443519,173176,136240,208728,208728,754,3406,-3454,-1966,-310,-87,2467,6779,144,-28,759,1200,1408,1079,1164,1675,1250,1583,1887
444520,173800,136564,209334,209334,754,3538,-4153,-2015,-517,61,789,8717,144,-76,755,1200,1408,1079,1164,1675,1250,1583,1887
445521,174400,136864,209940,209940,904,3696,-4674,-2289,-675,261,983,7781,121,-92,749,1200,1408,1079,1164,1675,1250,1583,1887
446522,174996,137144,210546,210546,929,3800,-5062,-2606,-775,306,317,7370,141,-149,749,1200,1408,1079,1164,1675,1250,1583,1887
447523,175540,137388,211152,211152,1256,3800,-5350,-2971,-734,-1632,-1752,7340,123,-216,744,1200,1408,1079,1164,1675,1250,1583,1887
448524,176192,137664,211758,211758,580,3800,-5588,-2970,-688,-1635,-1788,8071,132,-59,758,1200,1408,1079,1164,1675,1250,1583,1887
449525,176724,137988,212364,212364,1332,3577,-5718,-2875,-650,-901,-2874,7264,128,261,754,1084,1253,1039,1100,1759,1288,1526,1855
450526,177264,138300,212992,212992,1284,3660,-5734,-2771,-578,-1874,-1615,6699,130,239,760,1084,1253,1039,1100,1759,1288,1526,1855
451527,177824,138552,213598,213598,1160,3800,-5761,-2909,-481,-2986,-1472,6074,111,254,739,1084,1253,1039,1100,1759,1288,1526,1855
452528,178308,138820,214204,214204,1638,3800,-5924,-3056,-468,-2592,-279,6023,107,-228,738,1084,1253,1039,1100,1759,1288,1526,1855
453529,178832,139052,214810,214810,1390,3800,-6225,-3426,-447,-3058,1539,5283,108,-101,756,1084,1253,1039,1100,1759,1288,1526,1855
454530,179348,139288,215416,215416,1442,3800,-6585,-3603,-472,-2786,3860,6182,119,236,752,1132,1306,1112,1220,1656,1218,1432,1621
455531,179800,139532,216022,216022,1846,3800,-6964,-3591,-556,-1945,3957,5347,99,266,752,1132,1306,1112,1220,1656,1218,1432,1621
456532,180260,139808,216628,216628,1799,3800,-7289,-3246,-644,-1144,4555,6812,104,263,749,1132,1306,1112,1220,1656,1218,1432,1621
457533,180708,140052,217234,217234,1878,3800,-7602,-2855,-839,-1028,6668,6406,103,249,750,1132,1306,1112,1220,1656,1218,1432,1621
458534,181140,140332,217840,217840,1982,3800,-7861,-2486,-1132,-114,6236,6946,94,234,750,1132,1306,1112,1220,1656,1218,1432,1621
459535,181528,140592,218446,218446,2263,3800,-7938,-2530,-1191,2213,4473,3327,92,269,748,1132,1306,1112,1220,1656,1218,1432,1621
460536,181916,140940,219052,219052,2268,3519,-8042,-3022,-824,936,7540,3929,86,268,746,1277,1423,1149,1309,1375,1087,1295,1383
461537,182396,141336,219658,219658,1696,3224,-8370,-3305,-536,2283,7114,6588,87,227,744,1277,1423,1149,1309,1375,1087,1295,1383
462538,182752,141692,220264,220264,2477,3480,-8728,-2853,-514,3401,6918,9053,88,251,734,1277,1423,1149,1309,1375,1087,1295,1383
463539,183072,142120,220870,220870,2709,3034,-8511,-2567,-484,1316,5973,5260,95,-200,749,1277,1423,1149,1309,1375,1087,1295,1383
464540,183388,142528,221476,221476,2741,3164,-8064,-2049,-385,681,3071,5301,76,-32,732,1277,1423,1149,1309,1375,1087,1295,1383
465541,183752,142852,222082,222082,2447,3696,-7439,-1705,84,765,3299,5658,64,-158,739,1211,1319,1097,1263,1286,1034,1181,1282
466542,184040,143168,222688,222688,2930,3753,-6939,-1288,336,5119,3317,8564,59,-13,737,1211,1319,1097,1263,1286,1034,1181,1282
467543,184296,143516,223294,223294,3139,3559,-6282,-745,474,4442,1951,11864,56,-34,736,1211,1319,1097,1263,1286,1034,1181,1282
468544,184588,143912,223900,223900,2921,3264,-5472,-400,888,-724,481,9295,72,-45,736,1211,1319,1097,1263,1286,1034,1181,1282
469545,184932,144360,224506,224506,2603,2943,-4594,-95,1181,-1233,2098,11820,32,126,729,1211,1319,1097,1263,1286,1034,1181,1282
470546,185156,144772,225112,225112,3362,3173,-3780,49,1457,-1998,2169,11490,-11,-199,729,1211,1319,1097,1263,1286,1034,1181,1282
471547,185356,145136,225718,225718,3522,3479,-3139,106,1729,-1495,4063,11587,30,-41,741,1200,1312,1098,1275,1032,848,1024,1045
472548,185568,145492,226324,226324,3457,3535,-2829,109,2042,-1826,3929,9939,47,15,728,1200,1312,1098,1275,1032,848,1024,1045
473549,185800,145936,226930,226930,3341,2989,-2676,105,2267,-2055,6415,9588,-148,-17,732,1200,1312,1098,1275,1032,848,1024,1045
474550,186004,146380,227536,227536,3525,2993,-2632,234,2361,-1260,6743,8062,-240,-161,736,1200,1312,1098,1275,1032,848,1024,1045
475551,186168,146784,228142,228142,3786,3248,-2558,357,2434,-157,8509,6832,-208,-186,722,1200,1312,1098,1275,1032,848,1024,1045
476552,186324,147160,228748,228748,3800,3428,-2521,543,2450,1434,7475,6911,-156,15,728,1760,1830,1373,1803,937,800,1041,1028
477553,186528,147676,229376,229376,3558,2556,-2465,668,2422,1426,7677,7453,-241,26,744,1760,1830,1373,1803,937,800,1041,1028
478554,186768,148152,229982,229982,3342,2809,-2316,852,2368,2056,7106,7471,214,-37,748,1760,1830,1373,1803,937,800,1041,1028
479555,186980,148604,230588,230588,3526,2963,-1890,1133,2376,2658,5889,7446,240,-113,725,1760,1830,1373,1803,937,800,1041,1028
480556,187160,149020,231194,231194,3737,3193,-1310,1477,2383,3773,4264,7627,-240,62,728,1760,1830,1373,1803,937,800,1041,1028
481557,187352,149572,231800,231800,3672,2344,-659,1716,2389,3399,3649,7820,-128,55,729,1760,1830,1373,1803,937,800,1041,1028
482558,187596,150200,232406,232406,3355,1868,-2,2065,2427,2725,1994,8766,-233,57,738,1863,1867,1344,1664,1202,995,1289,1351
483559,187836,150732,233012,233012,3389,2470,645,2728,2467,3800,2080,8457,74,27,730,1863,1867,1344,1664,1202,995,1289,1351
484560,188064,151380,233618,233618,3474,1744,1402,3103,2655,2465,-383,7266,-73,107,737,1863,1867,1344,1664,1202,995,1289,1351
485561,188276,151916,234224,234224,3583,2446,2033,3261,2790,1277,564,8268,-128,107,736,1863,1867,1344,1664,1202,995,1289,1351
486562,188572,152568,234830,234830,3066,1720,2496,3358,2841,1393,96,8495,-202,115,743,1863,1867,1344,1664,1202,995,1289,1351
487563,188852,153188,235436,235436,3174,1920,2761,3235,2985,-1067,-421,7145,-261,125,732,1403,1504,1158,1335,1307,1024,1248,1359
488564,189144,153964,236042,236042,3106,940,2906,2968,3128,-1358,-213,7270,-215,124,752,1403,1504,1158,1335,1307,1024,1248,1359
489565,189460,154824,236648,236648,2964,409,2946,2651,3195,-1688,-101,6803,5,129,752,1403,1504,1158,1335,1307,1024,1248,1359
490566,189808,155564,237254,237254,2770,1156,2846,2338,3145,-1843,-412,7426,-20,147,761,1403,1504,1158,1335,1307,1024,1248,1359
491567,190200,156240,237860,237860,2500,1554,2613,2219,3021,-1191,297,7296,-17,134,769,1403,1504,1158,1335,1307,1024,1248,1359
492568,190568,156840,238466,238466,2656,2029,2490,1465,3070,-2281,1792,6148,25,146,772,1403,1504,1158,1335,1307,1024,1248,1359
493569,191000,157604,239072,239072,2260,1000,2076,1181,2999,950,59,7266,37,143,775,1259,1411,1092,1237,1220,979,1224,1376
494570,191372,158068,239678,239678,2641,2879,1895,674,2863,779,15,5252,58,136,766,1259,1411,1092,1237,1220,979,1224,1376
495571,191768,158724,240284,240284,2496,1678,1746,886,2558,2548,379,5966,60,153,785,1259,1411,1092,1237,1220,979,1224,1376
496572,192224,159464,240890,240890,2125,1149,1928,693,2259,3133,-5,4011,70,157,757,1259,1411,1092,1237,1220,979,1224,1376
497573,192700,160192,241496,241496,2003,1221,1955,891,1910,5308,-1261,5128,67,138,777,1259,1411,1092,1237,1220,979,1224,1376
498574,193168,160964,242102,242102,2056,942,2095,649,1586,4768,-2407,3390,79,164,789,1227,1448,1104,1175,1407,1115,1447,1747
499575,193664,161648,242708,242708,1884,1491,2151,567,1356,4246,694,5266,89,155,790,1227,1448,1104,1175,1407,1115,1447,1747
500576,194160,162296,243314,243314,1887,1714,2158,726,1178,5322,-1061,4990,83,166,792,1227,1448,1104,1175,1407,1115,1447,1747
501577,194680,162932,243920,243920,1739,1789,2219,627,1027,5772,258,2325,85,147,789,1227,1448,1104,1175,1407,1115,1447,1747
502578,195188,163544,244526,244526,1816,1939,2010,753,897,3395,-264,2289,110,146,790,1227,1448,1104,1175,1407,1115,1447,1747
503579,195752,164192,245132,245132,1467,1713,1884,386,784,59,-323,-1205,111,143,789,1227,1448,1104,1175,1407,1115,1447,1747
504580,196280,164792,245760,245760,1695,2013,1846,-237,659,36,461,-962,102,152,787,1247,1493,1139,1239,1542,1175,1507,1715
505581,196824,165408,246366,246366,1596,1913,1799,-979,435,264,960,-1463,95,154,794,1247,1493,1139,1239,1542,1175,1507,1715
506582,197384,166040,246972,246972,1497,1812,1830,-1357,276,1551,415,973,108,139,787,1247,1493,1139,1239,1542,1175,1507,1715
507583,197932,166704,247578,247578,1574,1611,1694,-1474,297,3038,464,-219,109,140,791,1247,1493,1139,1239,1542,1175,1507,1715
508584,198572,167436,248184,248184,998,1183,1608,-1645,576,-1261,982,988,119,141,792,1247,1493,1139,1239,1542,1175,1507,1715
509585,199140,168136,248790,248790,1449,1381,1552,-2438,790,-1196,76,-352,122,140,794,1252,1442,1097,1215,1303,1019,1265,1384
510586,199708,168848,249396,249396,1450,1303,1654,-3349,878,-52,1623,2867,131,149,807,1252,1442,1097,1215,1303,1019,1265,1384
511587,200252,169492,250002,250002,1601,1727,1661,-3370,839,1913,2130,2803,128,139,798,1252,1442,1097,1215,1303,1019,1265,1384
512588,200796,170280,250608,250608,1603,823,1611,-3197,841,3136,85,1955,120,132,800,1252,1442,1097,1215,1303,1019,1265,1384
513589,201380,171060,251214,251214,1353,868,1512,-2843,899,2968,-1,5298,111,142,793,1252,1442,1097,1215,1303,1019,1265,1384
514590,202012,171840,251820,251820,1053,864,1325,-2835,810,2460,853,3602,126,151,804,1252,1442,1097,1215,1303,1019,1265,1384
515591,202620,172732,252426,252426,1202,157,1200,-2798,653,2234,1715,4104,115,152,807,1150,1303,1004,1111,1114,890,1105,1234
516592,203216,173772,253032,253032,1278,-778,1183,-3056,618,-913,3185,2912,124,157,811,1150,1303,1004,1111,1114,890,1105,1234
517593,203832,174764,253638,253638,1152,-488,965,-2828,500,655,1375,3688,131,161,814,1150,1303,1004,1111,1114,890,1105,1234
518594,204424,175656,254244,254244,1303,130,668,-2552,398,2411,-2800,-1466,125,153,804,1150,1303,1004,1111,1114,890,1105,1234
519595,205088,176540,254850,254850,851,173,413,-2595,316,235,-3289,-1991,126,143,810,1150,1303,1004,1111,1114,890,1105,1234
520596,205672,177484,255456,255456,1352,-210,350,-3272,80,-518,-1011,-1558,128,129,814,1170,1306,1048,1166,1236,1001,1221,1396
521597,206284,178340,256062,256062,1177,334,183,-3936,-95,-394,-2913,-786,135,139,818,1170,1306,1048,1166,1236,1001,1221,1396
522598,206900,179176,256668,256668,1152,453,123,-3811,-370,1582,266,946,120,133,811,1170,1306,1048,1166,1236,1001,1221,1396
523599,207556,180080,257274,257274,900,21,215,-2860,-566,1177,1968,2159,141,129,814,1170,1306,1048,1166,1236,1001,1221,1396
524600,208160,180864,257880,257880,1225,767,259,-2111,-95,435,-3879,299,139,145,813,1170,1306,1048,1166,1236,1001,1221,1396
525601,208844,181604,258486,258486,723,1039,226,-1930,847,-2067,-4232,-1966,121,134,818,1170,1306,1048,1166,1236,1001,1221,1396
526602,209484,182356,259092,259092,998,960,364,-2204,1381,-3632,-1946,-1781,118,137,811,1163,1300,1071,1208,1519,1196,1450,1573
527603,210112,183088,259698,259698,1072,1082,574,-1940,970,-835,685,1349,134,131,812,1163,1300,1071,1208,1519,1196,1450,1573
528604,210760,183908,260304,260304,946,527,856,-1343,751,-1096,-353,4124,131,131,811,1163,1300,1071,1208,1519,1196,1450,1573
529605,211408,184632,260910,260910,945,1124,854,-765,1208,283,-484,2718,131,130,810,1163,1300,1071,1208,1519,1196,1450,1573
530606,212104,185300,261516,261516,643,1472,588,-712,1860,-1081,1300,492,126,148,813,1163,1300,1071,1208,1519,1196,1450,1573
531607,212740,186024,262144,262144,1018,1120,530,-805,1956,-1534,4349,1764,130,130,810,1144,1258,1032,1228,1400,1098,1320,1356
532608,213372,186660,262750,262750,1042,1669,529,-420,1596,884,3426,1931,131,132,809,1144,1258,1032,1228,1400,1098,1320,1356
533609,214008,187404,263356,263356,1016,991,466,-62,1454,283,1634,2797,140,156,810,1144,1258,1032,1228,1400,1098,1320,1356
534610,214656,188104,263962,263962,940,1264,196,380,1297,562,2347,2544,136,142,802,1144,1258,1032,1228,1400,1098,1320,1356
535611,215288,188744,264568,264568,1040,1638,25,281,1194,-983,1102,2979,136,160,811,1144,1258,1032,1228,1400,1098,1320,1356
536612,215984,189396,265174,265174,637,1562,-174,145,1120,-2151,2389,1575,135,151,809,1144,1258,1032,1228,1400,1098,1320,1356
537613,216572,190116,265780,265780,1313,1134,-393,124,923,-538,1121,1432,137,155,804,1217,1312,1069,1283,1159,948,1138,1204
538614,217136,190780,266386,266386,1464,1482,-523,422,818,-1641,-470,997,134,161,808,1217,1312,1069,1283,1159,948,1138,1204
539615,217744,191408,266992,266992,1189,1707,-623,578,934,-2151,-21,1403,141,148,807,1217,1312,1069,1283,1159,948,1138,1204
540616,218296,191968,267598,267598,1540,2133,-636,807,1018,-1531,-2045,3007,128,165,801,1217,1312,1069,1283,1159,948,1138,1204
541619,218960,192572,268204,268204,839,1858,-632,1199,1032,-1101,-2995,2613,122,150,801,1217,1312,1069,1283,1159,948,1138,1204
542618,219548,193224,268810,268810,1314,1557,-386,1345,967,-997,-1624,171,120,165,793,1264,1355,1117,1262,1215,1003,1189,1335
543619,220172,193848,269416,269416,1089,1731,-37,1404,896,-1308,-2541,514,127,164,802,1264,1355,1117,1262,1215,1003,1189,1335
544620,220768,194488,270022,270022,1264,1631,343,1437,893,-700,-542,-411,124,154,801,1264,1355,1117,1262,1215,1003,1189,1335
545621,221412,195096,270628,270628,963,1831,402,1900,986,1169,-1771,1761,134,176,802,1264,1355,1117,1262,1215,1003,1189,1335
546622,222068,195740,271234,271234,887,1605,485,2309,1127,1057,-418,332,133,147,802,1264,1355,1117,1262,1215,1003,1189,1335
547623,222804,196448,271840,271840,384,1202,568,2802,1155,1818,-1332,1289,142,163,799,1264,1355,1117,1262,1215,1003,1189,1335
548624,223480,197096,272446,272446,757,1576,634,2993,1035,1369,399,-1329,124,147,805,1169,1291,1060,1184,1293,1035,1267,1382
549625,224208,197740,273052,273052,429,1600,650,2697,1053,-3003,4081,-21,137,150,815,1169,1291,1060,1184,1293,1035,1267,1382
550626,224912,198392,273658,273658,577,1549,482,2399,1101,-2359,4325,-63,138,151,807,1169,1291,1060,1184,1293,1035,1267,1382
551627,225688,199096,274264,274264,122,1222,127,2641,1240,-1292,2776,26,130,141,807,1169,1291,1060,1184,1293,1035,1267,1382
552628,226480,199896,274870,274870,18,617,-183,3146,1393,1333,4535,2097,147,146,808,1169,1291,1060,1184,1293,1035,1267,1382
553629,227124,200660,275476,275476,942,838,-388,3459,1327,3085,6455,3116,137,147,815,1160,1289,1004,1179,1228,990,1250,1346
554630,227824,201420,276082,276082,590,859,-636,2826,1200,803,6417,916,134,147,822,1160,1289,1004,1179,1228,990,1250,1346
555631,228492,202108,276688,276688,788,1307,-1032,1889,1251,-2255,4066,2736,139,140,814,1160,1289,1004,1179,1228,990,1250,1346
556632,229152,202756,277294,277294,837,1556,-1299,1198,1199,-3622,1096,141,143,134,816,1160,1289,1004,1179,1228,990,1250,1346
557633,229876,203536,277900,277900,434,727,-1402,955,1118,-3148,-489,2095,133,119,809,1160,1289,1004,1179,1228,990,1250,1346
558634,230652,204208,278528,278528,105,1401,-1418,930,1081,-1429,-3418,1409,137,110,805,1160,1289,1004,1179,1228,990,1250,1346
559635,231292,204872,279134,279134,955,1450,-1146,1225,988,1114,-1136,5398,148,114,817,1162,1306,1045,1163,1357,1068,1308,1536
560636,231992,205572,279740,279740,577,1222,-890,1648,827,315,-2676,4381,133,105,811,1162,1306,1045,1163,1357,1068,1308,1536
561637,232684,206172,280346,280346,625,1847,-631,1771,575,-1670,243,5110,151,89,804,1162,1306,1045,1163,1357,1068,1308,1536
562638,233308,206800,280952,280952,1050,1672,-530,1483,491,-1422,-1024,1271,135,80,810,1162,1306,1045,1163,1357,1068,1308,1536
563639,234004,207360,281558,281558,597,2098,-650,1303,438,-727,-2234,3466,137,77,800,1162,1306,1045,1163,1357,1068,1308,1536
564640,234640,207908,282164,282164,972,2174,-878,1059,364,-1377,-595,1313,143,77,795,1200,1387,1142,1217,1459,1116,1366,1596
565641,235312,208392,282770,282770,745,2577,-1042,782,260,-862,404,473,131,61,793,1200,1387,1142,1217,1459,1116,1366,1596
566642,235988,208980,283376,283376,718,1928,-1387,345,113,-1625,1709,743,129,62,788,1200,1387,1142,1217,1459,1116,1366,1596
567643,236644,209652,283982,283982,842,1401,-1866,-264,108,-2447,3633,-412,150,59,783,1200,1387,1142,1217,1459,1116,1366,1596
568644,237412,210192,284588,284588,138,2228,-2398,-720,59,-2125,5099,714,134,44,795,1200,1387,1142,1217,1459,1116,1366,1596
569645,238112,210716,285194,285194,561,2330,-2721,-1249,-31,-2728,3391,-1030,146,66,803,1200,1387,1142,1217,1459,1116,1366,1596
570646,238800,211288,285800,285800,634,2031,-2956,-1529,-62,-2918,2666,1981,144,67,793,1321,1514,1169,1269,1360,1064,1386,1592
571647,239548,211832,286406,286406,255,2207,-3257,-1738,12,-1924,2893,3962,148,62,787,1321,1514,1169,1269,1360,1064,1386,1592
572648,240232,212416,287012,287012,654,1958,-3568,-1936,119,-25,3263,5433,129,53,791,1321,1514,1169,1269,1360,1064,1386,1592
573649,240892,213008,287618,287618,802,1908,-3845,-2382,268,-352,1891,3656,158,63,794,1321,1514,1169,1269,1360,1064,1386,1592
574650,241644,213572,288224,288224,224,2084,-4193,-2493,289,-237,2910,5957,144,72,793,1321,1514,1169,1269,1360,1064,1386,1592
575651,242344,214096,288830,288830,546,2336,-4484,-2347,155,593,3068,4995,128,66,796,1153,1325,1010,1080,1435,1097,1413,1705
576652,243056,214708,289436,289436,469,1786,-4686,-2150,-101,583,2488,5667,139,75,794,1153,1325,1010,1080,1435,1097,1413,1705
577653,243756,215324,290042,290042,542,1761,-4805,-2117,-312,-238,843,6104,133,73,791,1153,1325,1010,1080,1435,1097,1413,1705
578654,244436,215820,290648,290648,665,2513,-5024,-2072,-369,-243,214,4914,137,85,803,1153,1325,1010,1080,1435,1097,1413,1705
579655,245112,216508,291254,291254,688,1311,-5187,-2373,-336,-1097,-661,4460,148,88,802,1153,1325,1010,1080,1435,1097,1413,1705
580656,245764,217132,291860,291860,837,1711,-5256,-2634,-387,-2179,-1269,3158,136,102,788,1153,1325,1010,1080,1435,1097,1413,1705
581657,246356,217804,292466,292466,1212,1409,-5299,-2484,-464,-1636,-1928,4733,116,86,806,1055,1258,1022,1078,1597,1185,1442,1742
582658,246908,218392,293072,293072,1464,1935,-5344,-2734,-391,-1735,-2821,613,138,115,803,1055,1258,1022,1078,1597,1185,1442,1742
583659,247448,219000,293678,293678,1540,1810,-5591,-2696,-138,-2201,-3926,4158,127,104,801,1055,1258,1022,1078,1597,1185,1442,1742
584660,247988,219724,294284,294284,1542,1082,-5603,-3165,-228,735,-691,3287,125,113,791,1055,1258,1022,1078,1597,1185,1442,1742
585661,248508,220300,294912,294912,1669,2008,-5635,-2542,-476,793,-779,7124,113,131,794,1055,1258,1022,1078,1597,1185,1442,1742
586662,248924,221076,295518,295518,2324,754,-5485,-2407,-460,-740,-2445,1557,111,129,801,1190,1381,1149,1263,1486,1147,1375,1493
587663,249292,221748,296124,296124,2630,1402,-5548,-2252,-257,1295,-2359,7421,90,136,786,1190,1381,1149,1263,1486,1147,1375,1493
588664,249600,222412,296730,296730,3012,1451,-5547,-2035,-70,2755,-2223,8182,90,135,787,1190,1381,1149,1263,1486,1147,1375,1493
589665,249924,223128,297336,297336,2919,1123,-5603,-1278,-9,953,-1928,9857,67,145,774,1190,1381,1149,1263,1486,1147,1375,1493
590666,250228,223740,297942,297942,3051,1773,-5406,-1153,-63,1257,-357,6465,40,137,763,1190,1381,1149,1263,1486,1147,1375,1493
591667,250444,224484,298548,298548,3611,945,-5118,-830,-12,1243,473,9572,6,165,767,1190,1381,1149,1263,1486,1147,1375,1493
592668,250664,225124,299154,299154,3595,1594,-4935,-321,-54,1734,-375,9744,5,140,756,1384,1502,1192,1482,1236,1032,1257,1214
593669,250836,225724,299760,299760,3800,1844,-4713,-4,-137,2459,345,10323,-22,141,743,1384,1502,1192,1482,1236,1032,1257,1214
594670,250968,226340,300366,300366,3800,1744,-4478,279,-119,1806,-95,11649,-197,147,737,1384,1502,1192,1482,1236,1032,1257,1214
595671,251084,226936,300972,300972,3800,1869,-4157,294,-64,-935,-1211,11532,-202,156,752,1384,1502,1192,1482,1236,1032,1257,1214
596672,251196,227460,301578,301578,3800,2321,-3888,502,-140,-1875,-1409,12383,255,161,760,1384,1502,1192,1482,1236,1032,1257,1214
597673,251276,228100,302184,302184,3800,1595,-3358,281,-200,-2349,-380,10956,248,143,752,1515,1521,1195,1639,1124,985,1213,1138
598674,251356,228688,302790,302790,3800,1921,-2828,130,-185,-1544,-2063,11632,236,141,752,1515,1521,1195,1639,1124,985,1213,1138
599675,251420,229240,303396,303396,3800,2147,-2342,229,-143,-925,-2734,13062,258,129,752,1515,1521,1195,1639,1124,985,1213,1138
600676,251504,229776,304002,304002,3800,2249,-1882,572,94,-574,-2068,12504,272,131,752,1515,1521,1195,1639,1124,985,1213,1138
601677,251544,230364,304608,304608,3800,1924,-1290,768,414,923,-3282,11353,247,141,748,1515,1521,1195,1639,1124,985,1213,1138
602678,251564,230940,305214,305214,3800,2000,-740,1026,562,462,-3279,11220,242,125,748,1515,1521,1195,1639,1124,985,1213,1138
603679,251616,231492,305820,305820,3800,2151,-261,1525,522,1495,-2745,11516,245,135,752,1669,1737,1314,1768,1174,1001,1288,1268
604680,251692,232156,306426,306426,3800,1450,78,2394,612,3541,-3002,11280,240,127,752,1669,1737,1314,1768,1174,1001,1288,1268
605681,251772,232776,307032,307032,3800,1724,529,2849,870,4891,-2611,9846,246,135,748,1669,1737,1314,1768,1174,1001,1288,1268
606682,251888,233348,307638,307638,3800,2025,945,3042,1143,4240,-2560,10084,258,125,754,1669,1737,1314,1768,1174,1001,1288,1268
607683,252028,234016,308244,308244,3800,1424,1374,3252,1383,3592,-2841,10639,242,137,752,1669,1737,1314,1768,1174,1001,1288,1268
608684,252192,234672,308850,308850,3800,1497,1805,3490,1553,4193,-1592,9853,266,139,750,1816,1960,1408,1723,1244,1012,1316,1344
609685,252412,235396,309456,309456,3800,1070,2263,3635,1680,3455,-2686,9923,264,131,754,1816,1960,1408,1723,1244,1012,1316,1344
610686,252648,236164,310062,310062,3713,791,2512,3997,1623,5168,89,9779,275,141,752,1816,1960,1408,1723,1244,1012,1316,1344
611687,252936,236900,310668,310668,3396,987,2843,4085,1617,5855,-856,9144,264,146,756,1816,1960,1408,1723,1244,1012,1316,1344
612688,253288,237640,311296,311296,3003,960,3234,4454,1719,3580,-102,11381,251,139,748,1816,1960,1408,1723,1244,1012,1316,1344
613689,253628,238432,311902,311902,3084,630,3652,4828,1711,3068,-119,9770,26,143,750,1816,1960,1408,1723,1244,1012,1316,1344
614690,253996,239220,312508,312508,2915,651,3989,5008,1719,1766,248,9856,-146,143,763,1580,1698,1240,1456,1227,989,1258,1302
615691,254376,240140,313114,313114,2846,-182,4262,4942,1916,-91,785,9706,15,142,765,1580,1698,1240,1456,1227,989,1258,1302
616692,254788,240952,313720,313720,2650,488,4354,4882,1977,1629,967,8783,-3,134,774,1580,1698,1240,1456,1227,989,1258,1302
617693,255260,241736,314326,314326,2279,659,4484,5042,2009,844,-109,7118,38,137,777,1580,1698,1240,1456,1227,989,1258,1302
618694,255744,242556,314932,314932,2207,428,4640,5250,1947,1267,275,3614,39,134,780,1580,1698,1240,1456,1227,989,1258,1302
619695,256228,243432,315538,315538,2209,72,4895,5040,1968,1066,1994,3740,73,134,788,1373,1494,1147,1382,1225,999,1244,1299
620696,256744,244360,316144,316144,2012,-261,4913,4722,2134,1465,1731,4393,97,135,795,1373,1494,1147,1382,1225,999,1244,1299
621697,257264,245196,316750,316750,1989,308,4799,4598,2431,624,-302,3680,105,126,797,1373,1494,1147,1382,1225,999,1244,1299
622698,257828,245940,317356,317356,1715,880,4788,5000,2718,-1028,-1682,2982,102,134,797,1373,1494,1147,1382,1225,999,1244,1299
623699,258452,246740,317962,317962,1339,525,5265,4947,2735,-1284,-1485,-1636,95,147,800,1373,1494,1147,1382,1225,999,1244,1299
624700,259056,247524,318568,318568,1464,621,5819,4338,2577,-249,-1091,-869,113,128,801,1373,1494,1147,1382,1225,999,1244,1299
625701,259660,248348,319174,319174,1464,366,6146,3891,2434,635,-2179,-145,125,143,808,1277,1382,1118,1307,1262,1031,1239,1315
626702,260272,249008,319780,319780,1414,1389,6264,3396,2327,336,521,823,115,140,806,1277,1382,1118,1307,1262,1031,1239,1315
627703,260872,249764,320386,320386,1489,786,6409,3185,2094,1653,916,1208,112,133,809,1277,1382,1118,1307,1262,1031,1239,1315
628704,261576,250424,320992,320992,837,1384,6518,3334,1972,2373,653,-33,123,151,801,1277,1382,1118,1307,1262,1031,1239,1315
629705,262220,251116,321598,321598,1211,1182,6532,3852,2015,1628,820,1599,121,131,805,1277,1382,1118,1307,1262,1031,1239,1315
630706,262880,251880,322204,322204,1110,728,6423,4491,1845,3603,789,1178,128,131,807,1187,1306,1050,1180,1150,933,1139,1244
631707,263528,252568,322810,322810,1184,1201,6269,4799,1730,3394,-539,1079,133,145,807,1187,1306,1050,1180,1150,933,1139,1244
632708,264204,253252,323416,323416,1007,1224,5937,5421,1946,2022,-535,3321,129,154,808,1187,1306,1050,1180,1150,933,1139,1244
633709,264844,253924,324022,324022,1231,1298,5769,5692,2202,2273,1260,2365,124,147,807,1187,1306,1050,1180,1150,933,1139,1244
634710,265548,254560,324628,324628,829,1522,5584,5599,2445,1970,181,1981,152,164,808,1187,1306,1050,1180,1150,933,1139,1244
635711,266204,255244,325234,325234,1128,1220,5310,5392,2686,595,-570,1166,146,146,804,1142,1281,997,1123,1150,933,1139,1244
636712,266880,255860,325840,325840,1001,1645,5169,5280,2965,-855,-2609,299,128,163,807,1142,1281,997,1123,1144,933,1171,1310
637713,267564,256452,326446,326446,949,1795,5140,5724,3072,-80,-2622,1895,147,155,807,1142,1281,997,1123,1144,933,1171,1310
638714,268228,257008,327052,327052,1073,2022,5275,5707,3114,-2035,-2197,545,154,150,804,1142,1281,997,1123,1144,933,1171,1310
639715,268960,257624,327680,327680,645,1647,5342,5474,2851,-2019,-698,832,136,150,802,1142,1281,997,1123,1144,933,1171,1310
640716,269640,258176,328286,328286,968,2048,5247,4757,2490,-3003,-1063,-1545,143,146,796,1142,1281,997,1123,1144,933,1171,1310
641717,270308,258720,328892,328892,1042,2100,4909,3707,2276,-3966,-959,-1395,153,143,806,1120,1263,1021,1155,1413,1100,1370,1556
642718,270972,259240,329498,329498,1065,2252,4607,2704,2191,-4169,-1522,-2078,145,147,798,1120,1263,1021,1155,1413,1100,1370,1556
643719,271636,259788,330104,330104,1064,2078,4233,2214,1961,-2387,-467,724,145,138,796,1120,1263,1021,1155,1413,1100,1370,1556
644720,272316,260372,330710,330710,962,1854,4024,1985,1685,-918,241,661,145,154,793,1120,1263,1021,1155,1413,1100,1370,1556
645721,273116,260916,331316,331316,207,2105,3790,1576,1536,-689,79,94,133,126,796,1120,1263,1021,1155,1413,1100,1370,1556
646722,273784,261464,331922,331922,1031,2082,3473,1130,1356,118,-604,1419,150,137,801,1163,1338,1080,1180,1604,1227,1531,1813
647723,274460,262056,332528,332528,979,1807,3141,830,1199,75,-1189,101,131,149,802,1163,1338,1080,1180,1604,1227,1531,1813
648724,275164,262564,333134,333134,802,2334,2785,832,1025,1276,-1290,1584,147,138,796,1163,1338,1080,1180,1604,1227,1531,1813
649725,275888,263192,333740,333740,674,1584,2499,996,912,1366,-1150,3281,159,124,797,1163,1338,1080,1180,1604,1227,1531,1813
650726,276672,263760,334346,334346,295,1960,2049,989,749,1434,-2369,2524,133,121,792,1163,1338,1080,1180,1604,1227,1531,1813
651727,277376,264320,334952,334952,792,2011,1624,768,752,-483,88,3730,134,105,804,1163,1338,1080,1180,1604,1227,1531,1813
652728,278060,264864,335558,335558,915,2112,1046,436,724,-659,-953,2657,156,117,802,1168,1371,1055,1126,1540,1151,1502,1816
653729,278744,265448,336164,336164,913,1863,566,120,632,-913,-58,3523,143,107,796,1168,1371,1055,1126,1540,1151,1502,1816
654730,279440,266068,336770,336770,836,1638,-22,-93,557,-685,-1785,4285,124,96,793,1168,1371,1055,1126,1540,1151,1502,1816
655731,280136,266576,337376,337376,834,2340,-591,-200,545,-1662,-734,6585,147,94,795,1168,1371,1055,1126,1540,1151,1502,1816
656732,280856,267012,337982,337982,681,2794,-1159,-314,454,-1242,-1558,6519,143,93,801,1168,1371,1055,1126,1540,1151,1502,1816
657733,281604,267464,338588,338588,503,2698,-1702,-510,298,-2340,-1216,6302,122,88,787,1105,1332,1021,1054,1557,1160,1507,1902
658734,282216,267880,339194,339194,1353,2928,-2065,-947,158,-3507,614,4068,138,51,775,1105,1332,1021,1054,1557,1160,1507,1902
659735,282908,268292,339800,339800,850,2957,-2392,-1324,-18,-2448,-1721,4942,139,28,777,1105,1332,1021,1054,1557,1160,1507,1902
660736,283612,268736,340406,340406,773,2761,-2661,-1533,-234,-2255,-762,4305,142,22,766,1105,1332,1021,1054,1557,1160,1507,1902
661737,284344,269184,341012,341012,595,2740,-2894,-1751,-466,-2978,-584,5478,155,10,767,1105,1332,1021,1054,1557,1160,1507,1902
662738,285072,269564,341618,341618,617,3171,-3006,-1943,-748,-2973,757,4631,149,-4,772,1105,1332,1021,1054,1557,1160,1507,1902
663739,285844,269948,342224,342224,338,3151,-3089,-2222,-1036,-3198,746,2475,142,4,773,1077,1319,1055,1100,1756,1276,1592,1903
664740,286592,270400,342830,342830,484,2730,-3203,-2685,-1264,-3980,1514,2330,155,21,764,1077,1319,1055,1100,1756,1276,1592,1903
665741,287324,270836,343436,343436,581,2834,-3449,-3153,-1392,-3884,1186,1329,143,-45,766,1077,1319,1055,1100,1756,1276,1592,1903
666742,288060,271236,344064,344064,554,3065,-3687,-3417,-1479,-3044,2607,2713,152,-32,771,1077,1319,1055,1100,1756,1276,1592,1903
667743,288824,271584,344670,344670,375,3396,-3953,-3451,-1671,-1815,1895,2486,160,17,772,1077,1319,1055,1100,1756,1276,1592,1903
668744,289592,271924,345276,345276,346,3452,-4196,-3707,-1851,-2390,3268,2074,136,-10,766,1204,1396,1131,1267,1501,1171,1403,1521
669745,290324,272360,345882,345882,568,2856,-4422,-4183,-1915,-3080,3577,1232,151,-31,755,1204,1396,1131,1267,1501,1171,1403,1521
670746,291076,272848,346488,346488,439,2534,-4729,-4430,-1903,-1756,2914,1400,151,-150,756,1204,1396,1131,1267,1501,1171,1403,1521
671747,291832,273300,347094,347094,411,2763,-4839,-4247,-1813,35,2763,2051,147,-182,772,1204,1396,1131,1267,1501,1171,1403,1521
672748,292628,273712,347700,347700,156,3018,-5044,-3559,-1934,2564,5196,5529,169,12,780,1204,1396,1131,1267,1501,1171,1403,1521
673749,293356,274128,348306,348306,578,2997,-5090,-3919,-2031,-976,3399,-503,153,36,775,1204,1396,1131,1267,1501,1171,1403,1521
674750,294128,274676,348912,348912,299,2174,-5241,-4185,-2037,-2362,3966,5301,148,8,769,1288,1393,1136,1293,1216,999,1186,1271
675751,294864,275148,349518,349518,521,2652,-5439,-4440,-1870,-2867,1561,999,152,0,769,1288,1393,1136,1293,1216,999,1186,1271
676752,295616,275660,350124,350124,417,2404,-5528,-3933,-1717,-686,1182,4259,152,-1,788,1288,1393,1136,1293,1216,999,1186,1271
677753,296372,276244,350730,350730,389,1955,-5437,-3438,-1645,1514,-4109,1587,166,56,781,1288,1393,1136,1293,1216,999,1186,1271
678754,297156,276776,351336,351336,209,2282,-5115,-3391,-1490,-331,-1109,2114,144,36,786,1288,1393,1136,1293,1216,999,1186,1271
679755,297912,277416,351942,351942,381,1606,-4872,-3321,-1384,-2215,697,5495,135,52,796,1184,1303,1059,1178,1160,950,1128,1252
680756,298624,278108,352548,352548,653,1279,-4738,-3520,-1606,1785,-786,2347,146,87,792,1184,1303,1059,1178,1160,950,1128,1252
681757,299296,278648,353154,353154,901,2230,-4524,-3708,-1481,161,1124,322,156,75,804,1184,1303,1059,1178,1160,950,1128,1252
682758,300024,279168,353760,353760,548,2358,-4207,-3646,-1231,-3900,881,3637,138,86,808,1184,1303,1059,1178,1160,950,1128,1252
683759,300792,279872,354366,354366,294,1205,-4229,-2885,-1536,-486,1170,5265,162,97,788,1184,1303,1059,1178,1160,950,1128,1252
684760,301532,280728,354972,354972,466,249,-4287,-2702,-1836,3810,-1687,-3490,150,81,791,1184,1303,1059,1178,1160,950,1128,1252
685761,302220,281612,355578,355578,789,67,-3989,-2846,-1912,3256,870,953,139,102,811,1138,1252,1019,1154,1163,943,1151,1260
686762,302960,282304,356184,356184,461,1265,-3886,-3175,-2016,2646,1083,-590,166,111,820,1138,1252,1019,1154,1163,943,1151,1260
687763,303688,282872,356790,356790,533,2041,-3987,-3643,-2217,3557,500,-1528,149,121,819,1138,1252,1019,1154,1163,943,1151,1260
688764,304452,283500,357396,357396,304,1666,-4084,-3551,-2287,1166,-1440,-294,150,118,813,1138,1252,1019,1154,1163,943,1151,1260
689765,305252,284116,358002,358002,74,1740,-4132,-2693,-2485,3885,-1339,2657,148,115,799,1138,1252,1019,1154,1163,943,1151,1260
690766,305984,284768,358608,358608,496,1514,-4295,-2027,-2756,8104,-718,428,138,100,806,1196,1307,1033,1182,1145,929,1152,1294
691767,306688,285432,359214,359214,669,1438,-4413,-1813,-2701,5928,-288,905,167,112,807,1196,1307,1033,1182,1145,929,1152,1294
692768,307436,286036,359820,359820,390,1813,-4613,-1685,-2744,6483,173,717,156,132,809,1196,1307,1033,1182,1145,929,1152,1294
693769,308148,286716,360448,360448,613,1337,-4610,-991,-2796,5494,-1894,1772,156,133,808,1196,1307,1033,1182,1145,929,1152,1294
694770,308960,287352,361054,361054,-17,1611,-4422,-281,-2888,6304,-2450,73,164,117,803,1196,1307,1033,1182,1145,929,1152,1294
695771,309668,287968,361660,361660,631,1736,-4081,14,-2888,5168,-3826,1716,144,123,810,1196,1307,1033,1182,1145,929,1152,1294
696772,310384,288504,362266,362266,578,2237,-3822,-72,-2737,3452,-3162,1036,149,123,809,1153,1243,1023,1151,1174,976,1157,1296
697773,311096,289124,362872,362872,601,1712,-3616,-92,-2611,3741,-4138,1648,152,121,804,1153,1243,1023,1151,1174,976,1157,1296
698774,311764,289764,363478,363478,874,1586,-3383,133,-2480,3719,-4859,330,148,130,798,1153,1243,1023,1151,1174,976,1157,1296
699775,312448,290332,364084,364084,772,2037,-3220,363,-2440,3408,-4739,402,131,126,805,1153,1243,1023,1151,1174,976,1157,1296
700776,313176,290928,364690,364690,494,1862,-3050,626,-2567,2174,-3473,2387,146,128,802,1153,1243,1023,1151,1174,976,1157,1296
701777,313840,291512,365296,365296,893,1938,-3023,423,-2761,1091,-2346,-76,136,133,798,1153,1245,1056,1204,1119,926,1080,1170
702778,314452,292116,365902,365902,1218,1813,-3132,142,-2943,1378,-1738,1426,125,125,803,1153,1245,1056,1204,1119,926,1080,1170
703779,315036,292724,366508,366508,1393,1788,-3256,-444,-3058,953,-899,-3317,142,137,801,1153,1245,1056,1204,1119,926,1080,1170
704780,315640,293336,367114,367114,1268,1763,-3414,-711,-3177,313,-1817,-741,131,140,798,1153,1245,1056,1204,1119,926,1080,1170
705781,316280,293936,367720,367720,1042,1838,-3595,-797,-3449,705,99,-1180,122,139,797,1153,1245,1056,1204,1119,926,1080,1170
706782,316932,294532,368326,368326,966,1863,-3726,-1026,-3729,1557,1046,-1501,128,160,800,1153,1245,1056,1204,1119,926,1080,1170
707783,317540,295096,368932,368932,1241,2064,-3932,-762,-3865,673,3,1425,141,146,800,1267,1351,1095,1273,1107,926,1134,1233
708784,318140,295784,369538,369538,1291,1287,-3983,-928,-3905,-1214,1073,-1772,119,154,802,1267,1351,1095,1273,1107,926,1134,1233
709785,318752,296548,370144,370144,1216,808,-3817,-1025,-4053,1214,1149,1094,136,160,797,1267,1351,1095,1273,1107,926,1134,1233
710786,319364,297296,370750,370750,1216,905,-3510,-1037,-4107,2472,71,1860,142,164,804,1267,1351,1095,1273,1107,926,1134,1233
711787,320056,298068,371356,371356,714,751,-3217,-474,-4005,2716,-1331,4437,126,187,810,1267,1351,1095,1273,1107,926,1134,1233
712788,320700,298848,371962,371962,1013,697,-2714,144,-3913,3456,-315,5801,147,163,810,1208,1332,1052,1184,1245,1004,1255,1397
713789,321312,299824,372568,372568,1213,-538,-2056,942,-3745,3943,-839,6375,144,192,816,1208,1332,1052,1184,1245,1004,1255,1397
714790,321936,300780,373174,373174,1137,-421,-1521,1676,-3585,2935,-1432,5975,130,177,814,1208,1332,1052,1184,1245,1004,1255,1397
715791,322556,301600,373780,373780,1162,424,-1091,2145,-3488,128,-574,5364,140,185,810,1208,1332,1052,1184,1245,1004,1255,1397
716795,323212,302600,374386,374386,936,-711,-821,2190,-3400,-658,1342,2744,126,162,811,1208,1332,1052,1184,1245,1004,1255,1397
717793,323808,303576,374992,374992,1311,-570,-582,2218,-3210,-116,833,2599,119,169,810,1208,1332,1052,1184,1245,1004,1255,1397
718794,324420,304772,375598,375598,1211,-1959,-692,2221,-2994,-821,3179,1975,119,186,810,1266,1448,1142,1356,1170,970,1202,1239
719795,325076,305816,376204,376204,935,-1020,-911,1913,-2868,-4012,4766,1910,126,172,807,1266,1448,1142,1356,1170,970,1202,1239
720796,325700,306672,376832,376832,1135,149,-1375,1648,-2795,-3975,2776,1870,122,168,779,1266,1448,1142,1356,1170,970,1202,1239
721797,326368,307488,377438,377438,858,394,-1595,1577,-2768,-1281,2337,-526,110,166,800,1266,1448,1142,1356,1170,970,1202,1239
722798,327104,308392,378044,378044,430,-163,-1774,1446,-2845,-96,-587,-1430,125,128,814,1266,1448,1142,1356,1170,970,1202,1239
723799,327772,309220,378650,378650,854,307,-1790,867,-3038,-1183,716,197,127,124,817,1532,1568,1220,1507,1131,972,1187,1262
724800,328408,309960,379256,379256,1053,853,-1806,660,-3263,322,485,3657,139,121,821,1532,1568,1220,1507,1131,972,1187,1262
725801,329024,310712,379862,379862,1178,775,-1536,848,-3363,2112,-1738,4285,143,127,819,1532,1568,1220,1507,1131,972,1187,1262
726802,329728,311416,380468,380468,625,1072,-884,1570,-3488,3015,-1399,5968,133,118,812,1532,1568,1220,1507,1131,972,1187,1262
727803,330516,312220,381074,381074,96,443,-85,2480,-3612,2498,-1701,6564,144,118,810,1532,1568,1220,1507,1131,972,1187,1262
728804,331168,312932,381680,381680,945,1015,689,3199,-3765,4769,-2356,4945,152,126,812,1532,1568,1220,1507,1131,972,1187,1262
729805,331800,313728,382286,382286,1069,485,1150,3424,-3738,3437,-2527,3010,154,112,822,1252,1332,1086,1223,1299,1044,1245,1344
730806,332464,314408,382892,382892,868,1208,1417,3555,-3613,834,-1979,3257,142,138,812,1252,1332,1086,1223,1299,1044,1245,1344
731807,333096,315044,383498,383498,1067,1483,1661,3713,-3484,-1354,-1607,2090,147,127,815,1252,1332,1086,1223,1299,1044,1245,1344
732808,333760,315776,384104,384104,866,880,1850,3871,-3404,-2376,216,1631,153,125,811,1252,1332,1086,1223,1299,1044,1245,1344
733809,334472,316428,384710,384710,563,1379,1926,4047,-3362,-1624,1593,1707,138,125,805,1252,1332,1086,1223,1299,1044,1245,1344
734810,335188,317084,385316,385316,535,1352,1774,3404,-3125,-4237,2462,-3407,164,132,810,1182,1303,1053,1278,1149,947,1155,1182
735811,335868,317772,385922,385922,759,1150,1377,3058,-2849,-6034,1024,1153,145,143,811,1182,1303,1053,1278,1149,947,1155,1182
736812,336540,318400,386528,386528,807,1525,1064,3030,-2792,-3272,-594,-1874,140,148,811,1182,1303,1053,1278,1149,947,1155,1182
737813,337208,319116,387134,387134,830,972,920,2982,-2606,-2135,-702,1179,158,142,812,1182,1303,1053,1278,1149,947,1155,1182
738814,337940,319700,387740,387740,427,1798,1076,2686,-2425,-2450,700,3665,137,150,808,1182,1303,1053,1278,1149,947,1155,1182
739815,338624,320296,388346,388346,725,1723,1362,1889,-2359,-1644,1174,3374,146,144,813,1182,1303,1053,1278,1149,947,1155,1182
740816,339256,320836,388952,388952,1050,2074,1573,1348,-2337,-617,-1145,4943,149,157,807,1264,1364,1063,1287,1120,938,1170,1253
741817,339856,321420,389558,389558,1250,1800,1901,1491,-2413,209,-1368,5942,128,147,806,1264,1364,1063,1287,1120,938,1170,1253
742818,340476,321984,390164,390164,1125,1926,2332,2237,-2629,1463,-1458,8915,127,144,798,1264,1364,1063,1287,1120,938,1170,1253
743819,341132,322484,390770,390770,898,2329,2888,2725,-2850,1682,-2978,8168,136,115,798,1264,1364,1063,1287,1120,938,1170,1253
744820,341772,322912,391376,391376,998,2783,3507,2890,-3107,2823,-4629,9131,121,137,796,1264,1364,1063,1287,1120,938,1170,1253
745821,342336,323328,391982,391982,1474,2863,4080,2953,-3392,2620,-3261,9234,121,121,792,1283,1453,1131,1295,1259,1019,1295,1457
746822,342904,323684,392588,392588,1449,3244,4535,2582,-3680,2022,-2851,7357,132,112,784,1283,1453,1131,1295,1259,1019,1295,1457
747823,343508,324064,393216,393216,1225,3100,4854,1825,-3789,-2553,-2595,7457,112,78,775,1283,1453,1131,1295,1259,1019,1295,1457
748824,344044,324380,393822,393822,1652,3507,4993,903,-4009,-2553,-2302,8579,107,75,761,1283,1453,1131,1295,1259,1019,1295,1457
749825,344728,324652,394428,394428,725,3790,4932,67,-4112,-3097,-1829,8797,112,10,765,1283,1453,1131,1295,1259,1019,1295,1457
750826,345328,324904,395034,395034,1250,3800,4823,-495,-4178,-3639,985,10870,124,32,750,1283,1453,1131,1295,1259,1019,1295,1457
751827,345908,325136,395640,395640,1376,3800,4656,-898,-4200,-4653,-1092,11085,119,-154,764,1674,1967,1381,1583,1285,1030,1459,1655
752828,346580,325368,396246,396246,799,3800,4598,-1363,-4085,-4525,1576,10960,127,229,754,1674,1967,1381,1583,1285,1030,1459,1655
753829,347236,325592,396852,396852,898,3800,4560,-1937,-3886,-2298,413,11358,136,250,754,1674,1967,1381,1583,1285,1030,1459,1655
754830,347860,325784,397458,397458,1097,3800,4496,-2436,-3925,-522,634,11116,130,249,758,1674,1967,1381,1583,1285,1030,1459,1655
755831,348568,325944,398064,398064,570,3800,4506,-2547,-4119,-140,2185,12490,135,243,756,1674,1967,1381,1583,1285,1030,1459,1655
756832,349212,326144,398670,398670,969,3800,4540,-2286,-4333,595,1321,13449,136,235,758,1960,2422,1464,1592,1508,1162,1764,2146
757833,349852,326276,399276,399276,993,3800,4588,-2239,-4507,1800,-270,12744,139,258,760,1960,2422,1464,1592,1508,1162,1764,2146
758834,350496,326424,399882,399882,967,3800,4631,-2355,-4555,1110,-514,13131,127,227,757,1960,2422,1464,1592,1508,1162,1764,2146
759835,351188,326524,400488,400488,665,3800,4809,-2566,-4695,394,1001,12016,138,229,757,1960,2422,1464,1592,1508,1162,1764,2146
760836,351836,326684,401094,401094,939,3800,5060,-2857,-5013,-135,-705,10729,156,247,760,1960,2422,1464,1592,1508,1162,1764,2146
761837,352516,326792,401700,401700,737,3800,5319,-3286,-5211,-2226,-2085,9791,132,241,760,1960,2422,1464,1592,1508,1162,1764,2146
762838,353296,326912,402306,402306,108,3800,5378,-3661,-5300,-3214,-3093,10862,139,257,758,1589,1925,1306,1360,1698,1257,1695,1958
763839,354064,327028,402912,402912,179,3800,5345,-4297,-5408,-5136,-3095,8358,152,238,760,1589,1925,1306,1360,1698,1257,1695,1958
764840,354768,327112,403518,403518,577,3800,5304,-5057,-5597,-5173,-2525,8133,142,245,762,1589,1925,1306,1360,1698,1257,1695,1958
765841,355512,327244,404124,404124,323,3800,5201,-6077,-5698,-6215,-1990,5128,150,266,762,1589,1925,1306,1360,1698,1257,1695,1958
766844,356252,327388,404730,404730,345,3800,4980,-7158,-5809,-5574,135,5508,159,251,760,1589,1925,1306,1360,1698,1257,1695,1958
767843,356996,327560,405336,405336,317,3800,4613,-7800,-5872,-4530,-962,5821,158,242,762,1276,1463,1138,1247,1412,1094,1322,1465
768844,357780,327740,405942,405942,62,3800,4343,-8081,-5829,-4662,-1080,4735,167,261,764,1276,1463,1138,1247,1412,1094,1322,1465
769845,358532,327992,406548,406548,259,3800,4095,-7931,-5906,-3066,-29,7031,152,247,761,1276,1463,1138,1247,1412,1094,1322,1465
770846,359264,328260,407154,407154,381,3800,4034,-7951,-6163,-2425,2103,6802,144,231,762,1276,1463,1138,1247,1412,1094,1322,1465
771847,359952,328580,407760,407760,654,3720,3900,-8033,-6243,-4547,1704,4582,170,270,768,1276,1463,1138,1247,1412,1094,1322,1465
772848,360668,328904,408366,408366,476,3701,3868,-8442,-6205,-3085,2184,4673,149,260,760,1276,1463,1138,1247,1412,1094,1322,1465
773849,361360,329228,408972,408972,624,3708,3732,-8406,-6330,-468,-1227,5349,152,239,752,1143,1262,1022,1149,1202,977,1177,1307
774850,362188,329696,409600,409600,-231,2812,3527,-8069,-6640,3579,-2076,6594,166,42,745,1143,1262,1022,1149,1202,977,1177,1307
775851,362916,330136,410206,410206,391,2991,3280,-7473,-6549,-1034,-2475,7263,162,7,752,1143,1262,1022,1149,1202,977,1177,1307
776852,363624,330532,410812,410812,514,3271,3182,-6566,-6595,-1975,2641,8773,160,31,768,1143,1262,1022,1149,1202,977,1177,1307
777853,364364,330976,411418,411418,310,2975,3211,-5952,-6326,-7902,-1675,965,161,25,770,1143,1262,1022,1149,1202,977,1177,1307
778854,365028,331484,412024,412024,784,2578,3357,-7260,-6301,-4364,978,-4616,133,7,762,1165,1306,1061,1222,1265,1029,1263,1393
779855,365692,332036,412630,412630,782,2304,3200,-9017,-6177,563,-1424,-2371,137,-14,769,1165,1306,1061,1222,1265,1029,1263,1393
780856,366424,332508,413236,413236,354,2807,2771,-9667,-6094,4900,1229,1040,153,28,780,1165,1306,1061,1222,1265,1029,1263,1393
781857,367076,332984,413842,413842,853,2786,2332,-8585,-6300,3931,848,3570,137,50,786,1165,1306,1061,1222,1265,1029,1263,1393
782858,367756,333460,414448,414448,676,2789,2374,-7967,-6171,-5189,4604,-1051,125,66,777,1165,1306,1061,1222,1265,1029,1263,1393
783859,368412,333904,415054,415054,825,2993,2578,-8413,-6494,2296,4436,-1670,142,19,772,1165,1306,1061,1222,1265,1029,1263,1393
784860,369084,334356,415660,415660,724,2946,2476,-8569,-6036,1106,-1188,848,135,32,774,1289,1448,1148,1298,1355,1091,1324,1452
785861,369804,334980,416266,416266,421,1871,2093,-7759,-5204,991,209,5987,149,26,766,1289,1448,1148,1298,1355,1091,1324,1452
786862,370468,335644,416872,416872,769,1620,1457,-7249,-4808,6761,-3184,3504,151,17,772,1289,1448,1148,1298,1355,1091,1324,1452
787863,371068,336260,417478,417478,1170,1919,1027,-7053,-4276,3491,937,6019,139,36,794,1289,1448,1148,1298,1355,1091,1324,1452
788864,371668,336928,418084,418084,1170,1593,648,-6758,-3633,253,1241,8799,115,87,799,1289,1448,1148,1298,1355,1091,1324,1452
789865,372236,337544,418690,418690,1371,1918,-173,-5934,-3611,2097,-125,10060,120,76,792,1207,1327,1083,1197,1459,1149,1359,1527
790866,372828,338236,419296,419296,1221,1441,-772,-5356,-3509,3716,433,7691,108,69,796,1207,1327,1083,1197,1459,1149,1359,1527
791867,373444,338900,419902,419902,1071,1614,-1159,-5273,-3372,7026,-6812,6300,106,87,791,1207,1327,1083,1197,1459,1149,1359,1527
792868,373976,339508,420508,420508,1598,1964,-1244,-5532,-3111,190,-1460,5707,109,75,796,1207,1327,1083,1197,1459,1149,1359,1527
793869,374544,340148,421114,421114,1373,1763,-1009,-5936,-2608,-1261,-4288,7254,105,90,796,1207,1327,1083,1197,1459,1149,1359,1527
794870,375040,340860,421720,421720,1826,1311,-1271,-5566,-2522,2831,-5434,8231,108,83,786,1207,1327,1083,1197,1459,1149,1359,1527
795871,375564,341420,422326,422326,1653,2262,-1386,-5199,-2281,2067,304,5104,103,78,791,1042,1123,1029,1157,1947,1447,1562,1719
796872,376112,342056,422932,422932,1505,1786,-1432,-4735,-1745,846,-3119,4999,107,91,791,1042,1123,1029,1157,1947,1447,1562,1719
797873,376628,342784,423538,423538,1707,1208,-1898,-4535,-1639,2923,-2597,2097,102,95,780,1042,1123,1029,1157,1947,1447,1562,1719
798874,377092,343528,424144,424144,2035,1105,-2495,-4678,-1748,1674,-3659,1169,108,86,787,1042,1123,1029,1157,1947,1447,1562,1719
799875,377568,344300,424750,424750,1963,926,-2893,-5480,-1601,-400,-2509,272,93,100,795,1042,1123,1029,1157,1947,1447,1562,1719
800876,378004,344968,425356,425356,2218,1574,-3201,-5885,-1192,-2350,-604,2774,101,104,791,1120,1199,1110,1331,1896,1455,1591,1641
801877,378472,345664,425984,425984,2021,1397,-3677,-5261,-650,-590,119,6024,98,111,792,1120,1199,1110,1331,1896,1455,1591,1641
802878,378968,346384,426590,426590,1849,1245,-4255,-4311,-188,4315,849,3286,95,101,781,1120,1199,1110,1331,1896,1455,1591,1641
803879,379364,347148,427196,427196,2479,966,-4724,-3654,319,4079,-294,1043,86,114,785,1120,1199,1110,1331,1896,1455,1591,1641
804880,379764,347972,427802,427802,2459,585,-5075,-3807,746,2177,-423,427,96,109,791,1120,1199,1110,1331,1896,1455,1591,1641
805881,380124,348600,428408,428408,2715,1810,-5392,-3810,753,1715,928,3156,96,115,781,1120,1199,1110,1331,1896,1455,1591,1641
806882,380440,349228,429014,429014,2997,1809,-5513,-3336,955,-1393,-433,4237,60,113,784,1217,1297,1130,1350,1568,1254,1436,1478
807883,380820,349804,429620,429620,2603,2135,-5300,-2473,1016,4737,-960,5162,57,135,770,1217,1297,1130,1350,1568,1254,1436,1478
808884,381128,350488,430226,430226,3060,1458,-5114,-1493,1021,7973,-3306,3986,42,109,760,1217,1297,1130,1350,1568,1254,1436,1478
809885,381428,351156,430832,430832,3118,1557,-4845,-1041,931,5172,-1574,4068,11,135,765,1217,1297,1130,1350,1568,1254,1436,1478
810886,381716,351840,431438,431438,3200,1455,-4706,-133,679,2293,-1603,7558,42,130,760,1217,1297,1130,1350,1568,1254,1436,1478
811887,381988,352440,432044,432044,3309,1980,-4526,426,522,2187,-2753,5558,-9,136,758,1114,1218,1021,1170,1232,1001,1171,1232
812888,382224,353028,432650,432650,3543,2055,-4293,1017,576,3189,-150,6465,-50,143,757,1114,1218,1021,1170,1232,1001,1171,1232
813889,382480,353640,433256,433256,3426,1905,-3967,1262,692,1847,-1916,4616,-98,144,744,1114,1218,1021,1170,1232,1001,1171,1232
814890,382756,354248,433862,433862,3309,1930,-3861,1682,712,-795,-1289,5355,-219,146,739,1114,1218,1021,1170,1232,1001,1171,1232
815891,382976,354856,434468,434468,3669,1930,-3687,1782,683,-1421,131,3162,-232,142,742,1114,1218,1021,1170,1232,1001,1171,1232
816892,383204,355500,435074,435074,3628,1704,-3590,1828,711,-876,99,3063,-135,143,742,1114,1218,1021,1170,1232,1001,1171,1232
817893,383468,356120,435680,435680,3411,1854,-3724,1948,826,-933,63,3670,-84,159,740,1212,1339,1075,1299,1053,899,1095,1131
818894,383744,356700,436286,436286,3344,2105,-3855,1940,964,-78,635,2871,-172,147,737,1212,1339,1075,1299,1053,899,1095,1131
819895,383960,357336,436892,436892,3729,1754,-3838,2027,1021,1305,1630,3466,-170,137,739,1212,1339,1075,1299,1053,899,1095,1131
820896,384280,357952,437498,437498,3086,1879,-3677,2164,1057,1512,727,2249,-131,145,739,1212,1339,1075,1299,1053,899,1095,1131
821897,384528,358600,438104,438104,3545,1678,-3454,2424,1018,1823,-71,3638,64,141,748,1212,1339,1075,1299,1053,899,1095,1131
822898,384732,359216,438710,438710,3800,1877,-3177,2496,936,1793,1139,2830,-18,143,747,1387,1480,1175,1455,1167,1017,1247,1303
823899,384976,359820,439316,439316,3588,1952,-2776,2427,854,2698,-721,2472,-241,149,743,1387,1480,1175,1455,1167,1017,1247,1303
824900,385244,360424,439922,439922,3446,1952,-2322,2573,688,4406,474,3934,255,157,753,1387,1480,1175,1455,1167,1017,1247,1303
825901,385492,361092,440528,440528,3580,1551,-1780,2875,520,4403,832,4125,-209,153,735,1387,1480,1175,1455,1167,1017,1247,1303
826902,385744,361892,441134,441134,3564,721,-1219,3268,412,4039,328,4256,-216,166,742,1387,1480,1175,1455,1167,1017,1247,1303
827903,386020,362580,441740,441740,3422,1419,-673,3460,371,2244,316,3846,-198,169,739,1387,1480,1175,1455,1167,1017,1247,1303
828904,386268,363320,442368,442368,3606,1091,-155,3437,322,1010,557,4544,-213,169,745,1335,1427,1171,1397,1339,1123,1343,1379
829905,386532,364184,442974,442974,3514,310,291,3387,321,1020,1556,3403,-172,179,745,1335,1427,1171,1397,1339,1123,1343,1379
830906,386832,364948,443580,443580,3297,931,633,3263,371,1933,1718,3826,-187,183,743,1335,1427,1171,1397,1339,1123,1343,1379
831907,387136,365784,444186,444186,3279,476,830,3143,400,450,2091,2931,-262,170,753,1335,1427,1171,1397,1339,1123,1343,1379
832908,387472,366808,444792,444792,3086,-710,915,3274,399,-470,2861,3129,-129,169,753,1335,1427,1171,1397,1339,1123,1343,1379
833909,387760,367736,445398,445398,3394,-117,1059,3232,453,-709,2383,1729,-103,182,758,1357,1488,1175,1429,1156,963,1175,1217
834910,388036,368648,446004,446004,3477,-25,1115,3248,477,-642,2706,2495,-17,162,760,1357,1488,1175,1429,1156,963,1175,1217
835911,388332,369584,446610,446610,3359,-183,1176,3303,546,-282,1677,3314,-160,170,756,1357,1488,1175,1429,1156,963,1175,1217
836912,388672,370636,447216,447216,3091,-919,1217,3328,638,799,3003,3486,-218,175,756,1357,1488,1175,1429,1156,963,1175,1217
837913,389008,371784,447822,447822,3122,-1532,1377,3298,794,-295,3133,4142,-109,178,753,1357,1488,1175,1429,1156,963,1175,1217
838914,389368,372740,448428,448428,2978,-341,1631,3354,990,-183,1528,4153,-5,166,758,1357,1488,1175,1429,1156,963,1175,1217
839915,389764,373532,449034,449034,2759,680,2015,3564,1043,2136,751,4243,-10,156,750,1352,1467,1108,1291,1048,889,1101,1194
840916,390120,374360,449640,449640,3015,449,2340,3782,745,4109,-441,2175,27,146,762,1352,1467,1108,1291,1048,889,1101,1194
841917,390496,375176,450246,450246,2895,519,2717,3576,406,3317,-721,3721,46,123,772,1352,1467,1108,1291,1048,889,1101,1194
842918,390868,376052,450852,450852,2926,138,2935,3517,335,4477,1256,5171,21,136,767,1352,1467,1108,1291,1048,889,1101,1194
843919,391272,376792,451458,451458,2731,984,3272,3872,380,4341,183,4796,22,130,772,1352,1467,1108,1291,1048,889,1101,1194
844920,391716,377588,452064,452064,2485,630,3695,4091,256,2044,2408,2329,33,137,776,1197,1328,1062,1188,1136,942,1151,1267
845921,392120,378332,452670,452670,2740,951,4173,4271,149,889,1826,2110,39,124,775,1197,1328,1062,1188,1136,942,1151,1267
846922,392560,379100,453276,453276,2519,797,4584,4345,29,1853,1401,-182,62,134,781,1197,1328,1062,1188,1136,942,1151,1267
847923,393016,379916,453882,453882,2422,492,4841,4324,-131,1852,3911,-261,55,124,776,1197,1328,1062,1188,1136,942,1151,1267
848924,393468,380608,454488,454488,2451,1265,5062,4109,-244,-193,2225,-768,79,144,779,1197,1328,1062,1188,1136,942,1151,1267
849925,393996,381280,455094,455094,1978,1389,5061,4125,-450,-341,3696,197,85,148,788,1197,1328,1062,1188,1136,942,1151,1267
850926,394496,381988,455700,455700,2156,1161,5237,4192,-544,193,2602,-95,86,127,781,1224,1376,1099,1279,1136,936,1171,1241
851927,395092,382696,456306,456306,1556,1159,5536,4689,-462,-3284,5444,111,98,130,785,1224,1376,1099,1279,1136,936,1171,1241
852928,395700,383528,456912,456912,1481,378,5456,4903,-546,-6259,5248,622,87,152,787,1224,1376,1099,1279,1136,936,1171,1241
853929,396404,384160,457518,457518,879,1627,4814,3806,-1182,3192,2522,-8811,118,139,794,1224,1376,1099,1279,1136,936,1171,1241
854930,396856,384888,458124,458124,2457,1024,4374,2986,-851,-428,4634,-1000,118,164,803,1224,1376,1099,1279,1136,936,1171,1241
855931,397360,385564,458752,458752,2135,1348,3918,2548,-111,-1934,-2829,-1792,125,153,807,1256,1424,1076,1250,1094,916,1136,1245
856932,397988,386268,459358,459358,1360,1171,3132,2358,675,-3433,-11769,-1204,119,145,795,1256,1424,1076,1250,1094,916,1136,1245
857933,398640,386924,459964,459964,1209,1470,2893,2976,824,-2301,2890,2282,119,169,791,1256,1424,1076,1250,1094,916,1136,1245
858934,399260,387532,460570,460570,1408,1770,3564,3855,408,12,-496,4994,130,162,797,1256,1424,1076,1250,1094,916,1136,1245
859935,399908,388152,461176,461176,1232,1694,4357,4246,182,3372,-6855,1858,156,170,802,1256,1424,1076,1250,1094,916,1136,1245
860936,400624,388728,461782,461782,805,1970,4801,4870,386,4257,-2269,7524,144,147,801,1256,1424,1076,1250,1094,916,1136,1245
861937,401236,389380,462388,462388,1454,1494,5176,5322,499,5859,-3468,6220,144,153,798,1056,1152,931,1011,1332,1048,1248,1444
862938,401880,389996,462994,462994,1254,1719,5573,4919,546,3075,-4575,761,158,158,801,1056,1152,931,1011,1332,1048,1248,1444
863939,402520,390604,463600,463600,1278,1769,5723,4884,277,2672,-289,5238,138,163,800,1056,1152,931,1011,1332,1048,1248,1444
864940,403216,391228,464206,464206,926,1668,5690,4857,-39,-789,-72,470,146,170,799,1056,1152,931,1011,1332,1048,1248,1444
865941,403968,391848,464812,464812,572,1693,5396,5086,-169,-932,815,-231,142,159,800,1056,1152,931,1011,1332,1048,1248,1444
866942,404736,392524,465418,465418,468,1341,5221,4799,-219,1152,2654,-3787,141,163,801,1040,1189,1013,1167,1379,1076,1311,1400
867943,405460,393168,466024,466024,740,1540,4824,4652,-226,2154,2135,-4393,143,167,806,1040,1189,1013,1167,1379,1076,1311,1400
868944,406228,393772,466630,466630,461,1790,4300,4655,-272,975,1599,-3922,163,148,808,1040,1189,1013,1167,1379,1076,1311,1400
869945,407024,394388,467236,467236,282,1715,3830,4512,-113,-4123,3429,-2418,156,151,809,1040,1189,1013,1167,1379,1076,1311,1400
870946,407792,395032,467842,467842,453,1539,3294,3942,43,-1256,1370,-1979,153,143,803,1040,1189,1013,1167,1379,1076,1311,1400
871947,408472,395780,468448,468448,1001,886,2537,3641,144,24,1892,-176,150,149,805,1363,1528,1184,1382,1276,1036,1308,1434
872948,409168,396468,469054,469054,899,1259,1912,3269,417,-1140,3987,-1190,147,144,808,1363,1528,1184,1382,1276,1036,1308,1434
873949,409844,397176,469660,469660,1022,1131,1510,2418,899,-2012,1878,-67,154,142,809,1363,1528,1184,1382,1276,1036,1308,1434
874950,410596,397896,470266,470266,543,1053,1011,1953,1319,-3090,-1862,1427,166,134,810,1363,1528,1184,1382,1276,1036,1308,1434
875951,411316,398568,470872,470872,741,1352,854,1784,1448,-3431,-2371,4693,142,133,808,1363,1528,1184,1382,1276,1036,1308,1434
876952,412008,399264,471478,471478,913,1200,1268,1730,1321,-2451,-4120,3179,144,123,810,1363,1528,1184,1382,1276,1036,1308,1434
877953,412800,399972,472084,472084,284,1122,1849,1928,1207,-435,-4292,4969,146,100,809,1171,1313,1050,1106,1505,1144,1377,1685
878954,413420,400628,472690,472690,1359,1446,2306,2135,1302,575,-3189,6003,139,94,807,1171,1313,1050,1106,1505,1144,1377,1685
879955,414056,401160,473296,473296,1258,2223,2462,2505,1347,1007,-2372,7949,139,94,810,1171,1313,1050,1106,1505,1144,1377,1685
880956,414720,401724,473902,473902,1081,2024,2407,3036,1062,1688,-2152,6571,149,74,805,1171,1313,1050,1106,1505,1144,1377,1685
881957,415372,402288,474508,474508,1155,2025,2304,3074,650,-1142,-19,5752,135,53,790,1171,1313,1050,1106,1505,1144,1377,1685
882958,416176,402676,475136,475136,201,3131,2076,2683,219,-2456,3029,5726,125,51,785,1016,1187,980,1052,1465,1110,1359,1580
883959,416828,403048,475742,475742,1150,3236,1469,2065,-157,-1900,2823,3834,154,41,789,1016,1187,980,1052,1465,1110,1359,1580
884960,417504,403508,476348,476348,998,2690,735,1423,-413,-2345,4256,4135,144,-44,778,1016,1187,980,1052,1465,1110,1359,1580
885961,418292,403964,476954,476954,294,2718,-45,931,-600,-3373,4729,1601,144,-36,763,1016,1187,980,1052,1465,1110,1359,1580
886962,419096,404404,477560,477560,189,2823,-806,609,-782,-3109,4435,3250,154,13,764,1016,1187,980,1052,1465,1110,1359,1580
887963,419836,404772,478166,478166,586,3278,-1482,309,-951,-3267,3249,1847,152,7,771,1016,1187,980,1052,1465,1110,1359,1580
888964,420664,405152,478772,478772,30,3209,-2103,-302,-1069,-4184,3234,1728,152,5,774,1253,1451,1132,1248,1424,1136,1488,1784
889965,421400,405656,479378,479378,602,2436,-2606,-1104,-1101,-4561,3626,1196,158,-67,765,1253,1451,1132,1248,1424,1136,1488,1784
890966,422168,406096,479984,479984,398,2840,-2980,-1657,-1072,-4162,2539,1213,147,-60,763,1253,1451,1132,1248,1424,1136,1488,1784
891967,422900,406580,480590,480590,620,2568,-3008,-1492,-1068,-958,2033,4160,153,38,773,1253,1451,1132,1248,1424,1136,1488,1784
892968,423652,406972,481196,481196,491,3149,-2963,-692,-1123,1846,2247,5416,145,-2,779,1253,1451,1132,1248,1424,1136,1488,1784
893969,424416,407396,481802,481802,413,2953,-2789,-995,-1076,-1221,-1883,2672,155,34,775,1287,1526,1190,1229,1746,1305,1605,2014
894970,425284,407872,482408,482408,-244,2631,-2774,-1244,-1092,-2528,-771,5989,171,-36,769,1287,1526,1190,1229,1746,1305,1605,2014
895971,426052,408324,483014,483014,377,2785,-2871,-1627,-1077,-4067,-1513,3248,149,2,767,1287,1526,1190,1229,1746,1305,1605,2014
896972,426784,408800,483620,483620,599,2638,-2898,-1619,-1063,-3136,-656,2810,153,22,774,1287,1526,1190,1229,1746,1305,1605,2014
897973,427516,409276,484226,484226,596,2641,-2831,-1359,-1296,-615,-105,4533,151,29,778,1287,1526,1190,1229,1746,1305,1605,2014
898974,428260,409796,484832,484832,518,2368,-2854,-1086,-1565,-1424,1219,6048,154,45,778,1287,1526,1190,1229,1746,1305,1605,2014
899975,429080,410308,485438,485438,37,2421,-3044,-1230,-1732,-1998,2669,6130,161,36,776,1145,1349,1087,1133,1465,1093,1314,1496
900976,429816,410792,486044,486044,559,2599,-3413,-1899,-1730,-3711,2400,4635,146,65,782,1145,1349,1087,1133,1465,1093,1314,1496
901977,430480,411376,486650,486650,1008,1974,-3870,-2424,-1779,-4352,3063,5014,154,55,788,1145,1349,1087,1133,1465,1093,1314,1496
902978,431264,411928,487256,487256,253,2176,-4182,-2689,-1963,-3973,3953,3753,158,64,787,1145,1349,1087,1133,1465,1093,1314,1496
903979,431980,412448,487862,487862,676,2378,-4401,-2748,-2244,-2756,4571,4602,152,89,780,1145,1349,1087,1133,1465,1093,1314,1496
904980,432720,413072,488468,488468,523,1727,-4571,-3089,-2399,-2472,4959,2792,147,76,792,1166,1314,1046,1186,1177,954,1169,1276
905981,433512,413644,489074,489074,193,2053,-4742,-3780,-2377,-4491,4319,1447,154,72,793,1166,1314,1046,1186,1177,954,1169,1276
906982,434200,414304,489680,489680,841,1502,-4775,-4327,-2303,-5096,4022,-38,143,115,790,1166,1314,1046,1186,1177,954,1169,1276
907983,434960,415008,490286,490286,387,1224,-4552,-4773,-2132,-3121,1362,-1205,159,104,803,1166,1314,1046,1186,1177,954,1169,1276
908984,435716,415876,490892,490892,409,193,-4224,-4725,-1848,-800,976,-1255,159,112,799,1166,1314,1046,1186,1177,954,1169,1276
909985,436480,416548,491520,491520,355,1417,-3946,-4477,-1619,1175,1541,1404,145,123,803,1166,1314,1046,1186,1177,954,1169,1276
910986,437288,417280,492126,492126,75,1039,-3897,-4015,-1419,2757,646,127,162,142,812,1259,1391,1114,1278,1187,979,1181,1292
911987,438044,417872,492732,492732,397,1914,-3589,-4499,-1059,472,2904,-1748,148,129,822,1259,1391,1114,1278,1187,979,1181,1292
912988,438812,418540,493338,493338,318,1438,-3551,-4207,-738,75,2209,1162,148,147,810,1259,1391,1114,1278,1187,979,1181,1292
913989,439572,419200,493944,493944,364,1486,-3379,-3404,-645,4390,701,1470,170,142,817,1259,1391,1114,1278,1187,979,1181,1292
914990,440288,419892,494550,494550,636,1284,-3311,-2657,-443,5260,1713,923,139,156,804,1259,1391,1114,1278,1187,979,1181,1292
915991,441092,420688,495156,495156,81,630,-3224,-2124,-225,5361,827,3635,136,170,811,1338,1467,1138,1288,1103,916,1099,1179
916992,441792,421424,495762,495762,729,1001,-3394,-1812,72,3892,1317,2167,151,169,812,1338,1467,1138,1288,1103,916,1099,1179
917993,442460,422144,496368,496368,928,1099,-3628,-1822,543,2117,632,1172,144,164,811,1338,1467,1138,1288,1103,916,1099,1179
918994,443104,422740,496974,496974,1077,1874,-3722,-1870,1000,2003,-61,1973,125,170,821,1338,1467,1138,1288,1103,916,1099,1179
919995,443712,423484,497580,497580,1302,945,-3587,-2192,1479,1545,-4,1436,140,158,814,1338,1467,1138,1288,1103,916,1099,1179
920996,444288,424240,498186,498186,1502,867,-3506,-2230,1865,1898,-910,7175,132,178,811,1338,1467,1138,1288,1103,916,1099,1179
921997,444908,424932,498792,498792,1227,1265,-3490,-2627,2164,1633,-187,4436,120,173,797,1229,1313,1051,1212,1116,955,1131,1221
922998,445436,425596,499398,499398,1804,1438,-3251,-2893,2162,5665,726,9036,125,185,807,1229,1313,1051,1212,1116,955,1131,1221
923999,445876,426244,500004,500004,2358,1537,-2961,-2689,2583,751,-1321,7347,117,163,804,1229,1313,1051,1212,1116,955,1131,1221
925000,446272,426916,500610,500610,2638,1386,-2556,-2671,2786,3324,793,8552,101,172,804,1229,1313,1051,1212,1116,955,1131,1221
926001,446680,427640,501216,501216,2568,1058,-2265,-2367,3004,4133,-352,12492,80,155,793,1229,1313,1051,1212,1116,955,1131,1221
927002,447072,428340,501822,501822,2673,1205,-2004,-1859,3344,2628,-1229,12830,54,166,781,1184,1310,1094,1294,1289,1094,1333,1423
928003,447408,429016,502428,502428,3030,1354,-1737,-1830,3550,1197,2810,11341,47,160,776,1184,1310,1094,1294,1289,1094,1333,1423
929004,447688,429644,503034,503034,3388,1653,-1368,-1814,3628,1469,-632,10714,47,139,777,1184,1310,1094,1294,1289,1094,1333,1423
930005,447916,430324,503640,503640,3722,1326,-887,-1693,3579,2394,3180,8779,-12,139,771,1184,1310,1094,1294,1289,1094,1333,1423
931006,448152,431048,504246,504246,3681,1049,-404,-1202,3676,2609,1634,9696,-160,146,758,1184,1310,1094,1294,1289,1094,1333,1423
932007,448380,431716,504852,504852,3740,1397,-128,-496,3874,1456,1584,10175,60,126,742,1184,1310,1094,1294,1289,1094,1333,1423
933008,448608,432360,505458,505458,3749,1546,20,38,3900,552,4832,9967,-80,143,746,1605,1840,1433,1784,1407,1144,1479,1514
934009,448800,432964,506064,506064,3800,1796,269,454,3873,119,2323,8973,96,125,744,1605,1840,1433,1784,1407,1144,1479,1514
935010,449036,433568,506670,506670,3719,1796,544,670,3813,-1190,3749,8022,102,117,748,1605,1840,1433,1784,1407,1144,1479,1514
936011,449216,434252,507276,507276,3800,1294,834,878,3770,-2183,3335,8659,256,122,752,1605,1840,1433,1784,1407,1144,1479,1514
937012,449400,434948,507904,507904,3800,1218,1021,1208,3651,-1513,3217,10393,46,127,752,1605,1840,1433,1784,1407,1144,1479,1514
938013,449624,435588,508510,508510,3800,1567,1176,1549,3426,-533,3595,9517,236,121,744,2084,2245,1587,1938,1296,1050,1332,1333
939014,449836,436236,509116,509116,3800,1516,1515,1548,3356,-1801,2328,11566,240,118,756,2084,2245,1587,1938,1296,1050,1332,1333
940015,450024,436936,509722,509722,3800,1189,1829,2054,3340,-826,2376,12501,248,107,754,2084,2245,1587,1938,1296,1050,1332,1333
941016,450192,437484,510328,510328,3800,2140,2185,2678,3248,311,-607,12121,232,114,753,2084,2245,1587,1938,1296,1050,1332,1333
942020,450416,438128,510934,510934,3800,1539,2539,3094,3215,142,563,12540,256,103,752,2084,2245,1587,1938,1296,1050,1332,1333
943018,450616,438772,511540,511540,3800,1538,2911,3157,3318,2036,167,12938,247,91,754,2084,2245,1587,1938,1296,1050,1332,1333
944019,450840,439412,512146,512146,3800,1562,3254,3307,3460,1545,-1056,12939,262,115,746,1615,1661,1273,1487,1188,986,1193,1227
945020,451096,440084,512752,512752,3692,1361,3700,3332,3576,-1811,-289,12425,264,114,752,1615,1661,1273,1487,1188,986,1193,1227
946021,451384,440740,513358,513358,3500,1459,4199,3470,3633,-1890,-403,12778,243,109,752,1615,1661,1273,1487,1188,986,1193,1227
947022,451696,441396,513964,513964,3357,1458,4629,3716,3768,437,-103,11475,-42,114,752,1615,1661,1273,1487,1188,986,1193,1227
948023,452016,442072,514570,514570,3314,1331,5031,3764,4091,1308,-1423,8706,-225,118,742,1615,1661,1273,1487,1188,986,1193,1227
949024,452376,442840,515176,515176,3070,753,5230,3892,4383,462,82,8280,-114,123,745,1239,1342,1101,1303,1211,1017,1247,1329
950025,452764,443464,515782,515782,2900,1652,5450,3789,4484,1487,1589,5670,-95,128,745,1239,1342,1101,1303,1211,1017,1247,1329
951026,453184,444172,516388,516388,2705,1125,5565,3725,4527,928,996,4674,4,134,751,1239,1342,1101,1303,1211,1017,1247,1329
952027,453576,444852,516994,516994,2885,1298,5613,3821,4643,372,1803,3465,43,127,765,1239,1342,1101,1303,1211,1017,1247,1329
953028,454064,445548,517600,517600,2288,1196,5651,3925,4652,1727,1583,2416,66,133,761,1239,1342,1101,1303,1211,1017,1247,1329
954029,454524,446296,518206,518206,2466,867,5539,4170,4438,2006,893,1280,55,124,770,1239,1342,1101,1303,1211,1017,1247,1329
955030,454992,446968,518812,518812,2420,1341,5349,4032,4010,2013,2113,-662,93,130,770,1391,1599,1199,1375,1261,1010,1307,1443
956031,455508,447576,519418,519418,2122,1740,4909,3789,3615,1694,1036,-463,92,125,782,1391,1599,1199,1375,1261,1010,1307,1443
957032,456032,448256,520024,520024,2074,1289,4350,3255,3203,1243,2440,196,91,123,780,1391,1599,1199,1375,1261,1010,1307,1443
958033,456576,448892,520630,520630,1950,1563,3814,2791,2829,1616,1861,1509,103,133,779,1391,1599,1199,1375,1261,1010,1307,1443
959034,457152,449616,521236,521236,1751,1010,3655,2439,2572,1965,1128,2657,98,134,781,1391,1599,1199,1375,1261,1010,1307,1443
960035,457712,450236,521842,521842,1852,1660,3855,2241,2575,503,404,5310,113,147,789,1327,1527,1125,1170,1407,1083,1376,1665
961036,458280,450828,522448,522448,1803,1835,4438,2322,2663,2165,104,4687,114,137,788,1327,1527,1125,1170,1407,1083,1376,1665
962037,458904,451428,523054,523054,1453,1785,4761,2822,2839,4321,-1122,3655,115,134,797,1327,1527,1125,1170,1407,1083,1376,1665
963038,459488,452040,523660,523660,1703,1710,4808,4143,3221,6148,-5630,5308,127,138,788,1327,1527,1125,1170,1407,1083,1376,1665
964039,460200,452700,524288,524288,901,1409,4639,4691,4062,3440,-7735,2800,129,137,789,1327,1527,1125,1170,1407,1083,1376,1665
965040,460868,453272,524894,524894,1175,1960,4655,4305,4596,2385,-6150,4603,135,135,793,1327,1527,1125,1170,1407,1083,1376,1665
966041,461492,453796,525500,525500,1449,2262,4790,3698,4561,-788,-3453,2678,142,147,792,1009,1186,961,1017,1434,1088,1297,1484
967042,462088,454320,526106,526106,1624,2264,4840,3812,4314,-2178,-2121,2406,150,128,806,1009,1186,961,1017,1434,1088,1297,1484
968043,462756,454864,526712,526712,1173,2141,4740,3967,4147,-1698,-2255,1346,145,127,793,1009,1186,961,1017,1434,1088,1297,1484
