%  Data file recorded 2016/4/18  11:55:32
%  Stride Frequency         = [9, 9]
%  Lead In /Lead Out        = 
%  Deltas (Fractional)      = [0.25, 0.25, 0.25],[0.25, 0.25, 0.25]
%  Phase                    = 32768
%  Experiment.py 
%  Motor Gains    = [100, 0, 100, 0, 0, 100, 0, 100, 0, 0]
% Columns: 
% time | Right Leg Pos | Left Leg Pos | Commanded Right Leg Pos | Commanded Left Leg Pos | DCR | DCL | GyroX | GyroY | GyroZ | AX | AY | AZ | RBEMF | LBEMF | VBatt | S1 | S2 | S3 | S4 | S5 | S6 | S7 | S8
449,31312,-12060,3030,3030,-766,293,4,-64,-52,389,-104,3912,6,4,840,1259,1436,1136,1279,1341,1063,1308,1443
1450,31312,-12072,3030,3030,-691,443,3,-66,-52,413,-93,3914,2,-4,840,1259,1436,1136,1279,1341,1063,1308,1443
2451,31304,-12072,3030,3030,-641,368,2,-66,-55,370,-81,3907,-7,-8,842,1259,1436,1136,1279,1341,1063,1308,1443
3452,31300,-12060,3030,3030,-666,293,2,-64,-54,363,-76,3903,-7,-6,841,1259,1436,1136,1279,1341,1063,1308,1443
4453,31308,-12060,3030,3030,-741,368,4,-63,-55,382,-104,3890,4,-7,840,1259,1436,1136,1279,1341,1063,1308,1443
5454,31304,-12068,3030,3030,-666,418,6,-64,-54,373,-62,3911,7,-8,840,1259,1436,1136,1279,1341,1063,1308,1443
6455,31300,-12072,3030,3030,-666,393,6,-64,-53,401,-76,3910,-5,-8,840,1259,1436,1136,1279,1341,1063,1308,1443
7456,31304,-12068,3030,3030,-716,343,5,-65,-55,386,-83,3927,-4,-5,840,1259,1436,1136,1279,1341,1063,1308,1443
8457,31296,-12072,3030,3030,-641,393,2,-64,-57,383,-60,3925,5,0,841,1259,1436,1136,1279,1341,1063,1308,1443
9458,31304,-12068,3030,3030,-741,343,2,-62,-57,392,-76,3892,3,-3,841,1259,1436,1136,1279,1341,1063,1308,1443
10459,31300,-12072,3030,3030,-666,393,4,-63,-56,402,-69,3867,-4,2,841,1259,1436,1136,1279,1341,1063,1308,1443
11460,31308,-12052,3030,3030,-741,243,4,-65,-54,394,-98,3899,-8,6,840,1259,1436,1136,1279,1341,1063,1308,1443
12461,31304,-12072,3030,3030,-666,493,5,-67,-53,395,-71,3906,0,6,840,1259,1436,1136,1279,1341,1063,1308,1443
13462,31304,-12064,3030,3030,-691,318,2,-64,-55,390,-75,3907,4,5,840,1259,1436,1136,1279,1341,1063,1308,1443
14463,31308,-12068,3030,3030,-716,393,1,-62,-54,369,-92,3917,-7,-4,841,1259,1436,1136,1279,1341,1063,1308,1443
15464,31308,-12072,3030,3030,-691,393,3,-62,-54,363,-95,3935,-1,-5,841,1259,1436,1136,1279,1341,1063,1308,1443
16465,31308,-12072,3030,3030,-691,368,4,-64,-54,378,-104,3923,7,-8,841,1259,1436,1136,1279,1341,1063,1308,1443
17466,31304,-12052,3030,3030,-666,243,6,-61,-56,382,-89,3892,3,-8,840,1259,1436,1136,1279,1341,1063,1308,1443
18467,31300,-12068,3030,3030,-666,468,6,-61,-56,388,-63,3877,-9,-7,840,1259,1436,1136,1279,1341,1063,1308,1443
19468,31300,-12080,3030,3030,-691,443,6,-64,-54,398,-101,3898,-4,-8,841,1259,1436,1136,1279,1341,1063,1308,1443
20469,31300,-12056,3030,3030,-691,218,4,-64,-53,405,-97,3898,7,-4,838,1259,1436,1136,1279,1341,1063,1308,1443
21470,31300,-12064,3030,3030,-691,418,3,-63,-55,398,-75,3886,-5,-2,838,1259,1436,1136,1279,1341,1063,1308,1443
22471,31304,-12076,3030,3030,-716,443,4,-61,-54,368,-98,3891,-7,2,840,1259,1436,1136,1279,1341,1063,1308,1443
23472,31296,-12064,3030,3030,-641,293,3,-63,-52,390,-96,3916,0,6,840,1259,1436,1136,1279,1341,1063,1308,1443
24473,31304,-12060,3030,3030,-741,343,2,-65,-53,393,-75,3928,6,7,840,1259,1436,1136,1279,1341,1063,1308,1443
25474,31300,-12076,3030,3030,-666,468,0,-65,-55,365,-76,3893,-8,1,840,1259,1436,1136,1279,1341,1063,1308,1443
26475,31300,-12068,3030,3030,-691,318,1,-62,-55,373,-93,3875,-8,-6,841,1259,1436,1136,1279,1341,1063,1308,1443
27476,31308,-12068,3030,3030,-741,368,1,-62,-55,351,-83,3887,0,-6,840,1259,1436,1136,1279,1341,1063,1308,1443
28477,31304,-12072,3030,3030,-666,393,1,-65,-55,367,-91,3911,5,-8,841,1259,1436,1136,1279,1341,1063,1308,1443
29478,31296,-12076,3030,3030,-641,393,3,-64,-54,396,-96,3905,-1,-6,840,1259,1436,1136,1279,1341,1063,1308,1443
30479,31296,-12064,3030,3030,-691,293,3,-61,-55,378,-90,3866,-9,-4,840,1259,1436,1136,1279,1341,1063,1308,1443
31480,31300,-12080,3030,3030,-716,468,3,-59,-54,380,-92,3890,-4,1,840,1259,1436,1136,1279,1341,1063,1308,1443
32481,31300,-12060,3030,3030,-691,243,2,-59,-51,378,-85,3909,1,5,841,1259,1436,1136,1279,1341,1063,1308,1443
33482,31312,-12064,3030,3030,-766,393,3,-61,-50,373,-96,3905,6,5,840,1259,1436,1136,1279,1341,1063,1308,1443
34483,31292,-12072,3030,3030,-565,418,6,-63,-52,368,-107,3900,-4,6,840,1259,1436,1136,1279,1341,1063,1308,1443
35484,31308,-12072,3030,3030,-791,368,4,-62,-53,360,-73,3890,-9,2,840,1259,1436,1136,1279,1341,1063,1308,1443
36485,31304,-12072,3030,3030,-666,368,3,-62,-52,349,-72,3923,-2,1,841,1259,1436,1136,1279,1341,1063,1308,1443
37486,31296,-12064,3030,3030,-641,318,2,-64,-51,373,-85,3913,5,-8,838,1259,1436,1136,1279,1341,1063,1308,1443
38487,31304,-12064,3030,3030,-741,368,3,-65,-51,382,-74,3894,-4,-2,837,1259,1436,1136,1279,1341,1063,1308,1443
39488,31308,-12064,3030,3030,-716,368,2,-65,-50,374,-91,3894,-9,-1,840,1259,1436,1136,1279,1341,1063,1308,1443
40489,31308,-12060,3030,3030,-691,343,3,-62,-53,356,-98,3920,4,6,841,1259,1436,1136,1279,1341,1063,1308,1443
41490,31308,-12064,3030,3030,-691,393,1,-62,-56,359,-106,3906,6,7,840,1259,1436,1136,1279,1341,1063,1308,1443
42491,31300,-12060,3030,3030,-641,343,-2,-63,-55,394,-100,3889,3,7,841,1259,1436,1136,1279,1341,1063,1308,1443
43492,31292,-12056,3030,3030,-640,343,-1,-64,-55,380,-85,3920,-9,6,840,1259,1436,1136,1279,1341,1063,1308,1443
44493,31300,-12064,3030,3030,-741,418,3,-63,-56,367,-68,3895,-1,2,840,1259,1436,1136,1279,1341,1063,1308,1443
45494,31296,-12068,3030,3030,-666,393,1,-62,-55,341,-74,3889,6,4,840,1259,1436,1136,1279,1341,1063,1308,1443
46495,31308,-12060,3030,3030,-766,318,0,-61,-53,362,-94,3913,-9,-2,840,1259,1436,1136,1279,1341,1063,1308,1443
47496,31308,-12064,3030,3030,-691,393,1,-62,-52,365,-80,3906,-6,-7,840,1259,1436,1136,1279,1341,1063,1308,1443
48497,31296,-12068,3030,3030,-616,393,1,-64,-52,398,-99,3926,7,-7,840,1259,1436,1136,1279,1341,1063,1308,1443
49498,31304,-12072,3030,3030,-741,393,2,-66,-52,395,-68,3891,-9,-7,840,1259,1436,1136,1279,1341,1063,1308,1443
50499,31296,-12064,3030,3030,-641,318,2,-67,-53,373,-86,3920,-4,-2,840,1259,1436,1136,1279,1341,1063,1308,1443
51500,31304,-12076,3030,3030,-741,443,2,-65,-52,371,-85,3889,6,-2,841,1259,1436,1136,1279,1341,1063,1308,1443
52501,31312,-12060,3030,3030,-741,268,3,-66,-53,362,-89,3885,3,3,840,1259,1436,1136,1279,1341,1063,1308,1443
53502,31304,-12088,3030,3030,-641,544,2,-67,-54,380,-90,3906,0,7,840,1259,1436,1136,1279,1341,1063,1308,1443
54503,31308,-12068,3030,3030,-716,243,1,-66,-54,392,-84,3901,-9,5,838,1259,1436,1136,1279,1341,1063,1308,1443
55504,31296,-12064,3030,3030,-616,343,1,-64,-51,405,-74,3905,-4,-5,838,1259,1436,1136,1279,1341,1063,1308,1443
56505,31308,-12064,3030,3030,-766,368,3,-63,-52,385,-76,3897,1,-8,840,1259,1436,1136,1279,1341,1063,1308,1443
57506,31312,-12060,3030,3030,-716,343,1,-63,-53,381,-86,3920,7,-8,840,1259,1436,1136,1279,1341,1063,1308,1443
58507,31304,-12064,3030,3030,-641,393,1,-63,-54,365,-75,3930,-2,-1,840,1259,1436,1136,1279,1341,1063,1308,1443
59508,31304,-12072,3030,3030,-691,418,3,-66,-54,380,-77,3895,-6,6,840,1259,1436,1136,1279,1341,1063,1308,1443
60509,31316,-12072,3030,3030,-766,368,1,-66,-54,379,-72,3940,-8,6,840,1259,1436,1136,1279,1341,1063,1308,1443
61510,31304,-12064,3030,3030,-616,318,1,-62,-54,357,-86,3927,4,6,840,1259,1436,1136,1279,1341,1063,1308,1443
62511,31304,-12072,3030,3030,-691,418,1,-60,-54,353,-85,3919,6,-2,840,1259,1436,1136,1279,1341,1063,1308,1443
63512,31304,-12056,3030,3030,-691,268,4,-62,-55,370,-82,3903,-8,-6,840,1259,1436,1136,1279,1341,1063,1308,1443
64513,31296,-12068,3030,3030,-641,443,5,-65,-54,389,-76,3895,-3,-6,841,1259,1436,1136,1279,1341,1063,1308,1443
65514,31300,-12072,3030,3030,-716,393,3,-65,-54,368,-75,3897,7,3,840,1259,1436,1136,1279,1341,1063,1308,1443
66515,31308,-12068,3030,3030,-741,343,4,-66,-56,379,-89,3930,-4,5,840,1259,1436,1136,1279,1341,1063,1308,1443
67516,31316,-12072,3030,3030,-741,393,4,-65,-55,395,-77,3913,-9,3,840,1259,1436,1136,1279,1341,1063,1308,1443
68517,31300,-12056,3030,3030,-591,268,5,-64,-53,388,-101,3898,-4,-7,841,1259,1436,1136,1279,1341,1063,1308,1443
69518,31304,-12052,3030,3030,-716,343,3,-66,-53,379,-90,3899,7,-7,840,1259,1436,1136,1279,1341,1063,1308,1443
70519,31308,-12072,3030,3030,-716,493,5,-67,-55,365,-58,3881,-6,-6,840,1259,1436,1136,1279,1341,1063,1308,1443
71520,31296,-12072,3030,3030,-616,368,6,-64,-57,374,-83,3901,-6,4,838,1259,1436,1136,1279,1341,1063,1308,1443
72521,31304,-12056,3030,3030,-741,268,5,-65,-58,390,-84,3907,7,7,837,1259,1436,1136,1279,1341,1063,1308,1443
73522,31304,-12076,3030,3030,-691,493,6,-65,-57,390,-95,3900,-5,2,840,1259,1436,1136,1279,1341,1063,1308,1443
74523,31312,-12076,3030,3030,-741,368,7,-65,-54,388,-81,3890,-9,-7,840,1259,1436,1136,1279,1341,1063,1308,1443
75524,31308,-12072,3030,3030,-666,343,7,-64,-53,385,-77,3897,2,-7,840,1259,1436,1136,1279,1341,1063,1308,1443
76525,31300,-12064,3030,3030,-641,318,6,-63,-54,384,-88,3929,5,-7,840,1259,1436,1136,1279,1341,1063,1308,1443
77526,31304,-12068,3030,3030,-716,393,4,-65,-53,373,-87,3900,-6,-1,840,1259,1436,1136,1279,1341,1063,1308,1443
78527,31304,-12064,3030,3030,-691,343,5,-64,-55,356,-64,3897,-9,1,840,1259,1436,1136,1279,1341,1063,1308,1443
79528,31300,-12064,3030,3030,-666,368,4,-64,-53,366,-69,3905,4,7,840,1259,1436,1136,1279,1341,1063,1308,1443
80529,31300,-12064,3030,3030,-691,368,4,-63,-54,393,-67,3896,6,0,841,1259,1436,1136,1279,1341,1063,1308,1443
81530,31296,-12064,3030,3030,-666,368,5,-63,-54,396,-79,3904,-7,-3,840,1259,1436,1136,1279,1341,1063,1308,1443
82531,31300,-12068,3030,3030,-716,393,5,-63,-56,384,-75,3881,-7,-8,840,1259,1436,1136,1279,1341,1063,1308,1443
83532,31292,-12068,3030,3030,-640,368,4,-63,-55,378,-77,3875,-1,-5,841,1259,1436,1136,1279,1341,1063,1308,1443
84533,31308,-12060,3030,3030,-791,318,5,-62,-53,409,-87,3907,7,-4,840,1259,1436,1136,1279,1341,1063,1308,1443
85534,31296,-12068,3030,3030,-616,418,6,-61,-54,408,-79,3895,0,4,840,1259,1436,1136,1279,1341,1063,1308,1443
86535,31292,-12064,3030,3030,-665,343,3,-61,-56,383,-96,3891,-5,6,840,1259,1436,1136,1279,1341,1063,1308,1443
87536,31304,-12052,3030,3030,-766,293,3,-62,-54,400,-70,3919,-9,3,840,1259,1436,1136,1279,1341,1063,1308,1443
88537,31304,-12060,3030,3030,-691,418,6,-63,-54,394,-82,3895,-3,-8,838,1259,1436,1136,1279,1341,1063,1308,1443
89538,31304,-12068,3030,3030,-691,418,8,-62,-53,400,-93,3919,5,0,838,1259,1436,1136,1279,1341,1063,1308,1443
90539,31316,-12064,3030,3030,-766,343,8,-61,-53,369,-92,3929,2,1,840,1259,1436,1136,1279,1341,1063,1308,1443
91540,31296,-12068,3030,3030,-566,393,5,-61,-51,396,-94,3939,-9,7,840,1259,1436,1136,1279,1341,1063,1308,1443
92541,31296,-12072,3030,3030,-691,393,4,-63,-50,397,-102,3905,-8,5,840,1259,1436,1136,1279,1341,1063,1308,1443
93542,31304,-12072,3030,3030,-741,368,4,-63,-50,391,-98,3904,4,5,840,1259,1436,1136,1279,1341,1063,1308,1443
94543,31296,-12060,3030,3030,-641,293,3,-62,-54,390,-76,3893,4,-1,841,1259,1436,1136,1279,1341,1063,1308,1443
95544,31304,-12068,3030,3030,-741,418,4,-63,-54,351,-96,3911,-5,-8,840,1259,1436,1136,1279,1341,1063,1308,1443
96545,31304,-12068,3030,3030,-691,368,2,-61,-51,371,-81,3941,-9,-7,840,1259,1436,1136,1279,1341,1063,1308,1443
97546,31304,-12064,3030,3030,-691,343,2,-60,-51,388,-85,3921,-3,-1,841,1259,1436,1136,1279,1341,1063,1308,1443
98547,31304,-12068,3030,3030,-691,393,1,-63,-53,406,-54,3893,3,6,841,1259,1436,1136,1279,1341,1063,1308,1443
99548,31304,-12068,3030,3030,-691,368,5,-61,-54,426,-80,3917,5,6,840,1259,1436,1136,1279,1341,1063,1308,1443
100549,31300,-12060,3030,3030,-666,318,4,-61,-55,407,-79,3903,-3,7,840,1259,1436,1136,1279,1341,1063,1308,1443
101550,31296,-12072,0,0,-666,443,1,-62,-53,394,-85,3860,-8,7,840,1259,1436,1136,1279,1341,1063,1308,1443
102551,31304,-12060,606,606,-169,865,1,-63,-49,378,-98,3898,-5,6,840,1259,1436,1136,1279,1341,1063,1308,1443
103552,31300,-12060,1212,1212,-79,955,2,-61,-51,373,-80,3912,6,7,840,1259,1436,1136,1279,1341,1063,1308,1443
104553,31300,-12048,1818,1818,-89,894,2,-63,-53,379,-81,3954,2,1,841,1259,1436,1136,1279,1341,1063,1308,1443
105554,31304,-11988,2424,2424,-100,607,4,-64,-54,383,-83,3931,7,8,827,1259,1436,1136,1279,1341,1063,1308,1443
106555,31300,-11948,3030,3030,-35,746,4,-72,-57,339,-115,3943,3,-2,826,1259,1436,1136,1279,1341,1063,1308,1443
107556,31308,-11880,3636,3636,-95,584,10,-85,-54,337,-56,3971,-6,9,829,1259,1436,1136,1279,1341,1063,1308,1443
108557,31304,-11816,4242,4242,-5,623,15,-92,-40,327,81,4041,-9,3,833,1259,1436,1136,1279,1341,1063,1308,1443
109558,31304,-11720,4848,4848,-15,435,18,-93,-28,363,-156,3933,-8,10,832,1259,1436,1136,1279,1341,1063,1308,1443
110559,31300,-11660,5454,5454,24,673,24,-105,-39,250,-85,3818,-8,6,834,1259,1436,1136,1279,1341,1063,1308,1443
111560,31304,-11568,6060,6060,-11,486,26,-116,-48,252,-87,3931,-8,9,834,1259,1436,1136,1279,1341,1063,1308,1443
112561,31304,-11472,6666,6666,29,473,21,-120,-42,398,-182,4014,-8,18,836,1259,1436,1136,1279,1341,1063,1308,1443
113562,31300,-11384,7272,7272,69,536,17,-110,-39,370,-51,4005,7,23,833,1259,1436,1136,1279,1341,1063,1308,1443
114563,31308,-11308,7878,7878,8,624,20,-109,-47,244,-121,3934,-4,11,835,1259,1436,1136,1279,1341,1063,1308,1443
115564,31304,-11224,8484,8484,98,587,21,-111,-57,257,-115,3962,-4,19,836,1259,1436,1136,1279,1341,1063,1308,1443
116565,31296,-11128,9090,9090,138,524,23,-133,-61,379,-152,3955,2,14,834,1259,1436,1136,1279,1341,1063,1308,1443
117566,31316,-11028,9696,9696,-22,511,23,-152,-53,298,-103,3956,-8,9,834,1259,1436,1136,1279,1341,1063,1308,1443
118567,31312,-10904,10302,10302,143,373,31,-167,-52,227,-108,3968,8,15,833,1259,1436,1136,1279,1341,1063,1308,1443
119568,31316,-10828,10908,10908,107,686,32,-162,-63,293,-188,4005,-6,17,834,1259,1436,1136,1279,1341,1063,1308,1443
120569,31308,-10728,11514,11514,197,549,38,-161,-57,390,-11,3978,3,23,835,1259,1436,1136,1279,1341,1063,1308,1443
121570,31308,-10640,12120,12120,162,636,46,-154,-47,396,-178,4056,-6,23,836,1259,1436,1136,1279,1341,1063,1308,1443
122571,31316,-10544,12726,12726,127,599,46,-159,-51,216,-127,3924,4,11,829,1259,1436,1136,1279,1341,1063,1308,1443
123572,31312,-10464,13332,13332,217,711,50,-177,-56,273,-169,3934,-1,11,831,1259,1436,1136,1279,1341,1063,1308,1443
124573,31304,-10376,13938,13938,257,674,53,-182,-49,430,-150,3943,-8,12,833,1259,1436,1136,1279,1341,1063,1308,1443
125574,31324,-10288,14544,14544,96,687,64,-190,-44,342,-86,3985,0,22,833,1259,1436,1136,1279,1341,1063,1308,1443
126575,31324,-10204,15150,15150,236,724,63,-172,-53,266,-121,4090,7,21,831,1259,1436,1136,1279,1341,1063,1308,1443
127576,31324,-10100,15756,15756,250,612,70,-185,-57,222,-142,3968,8,23,832,1259,1436,1136,1279,1341,1063,1308,1443
128577,31336,-10000,16384,16384,3346,3800,73,-214,-56,227,-123,3986,4,16,832,1259,1436,1136,1279,1341,1063,1308,1443
129578,31376,-9920,16990,16990,3185,3800,75,-241,-53,268,-101,3992,-1,23,831,1259,1436,1136,1279,1341,1063,1308,1443
130579,31400,-9724,17596,17596,3299,3228,79,-243,-53,286,-158,3976,5,239,832,1259,1436,1136,1279,1341,1063,1308,1443
131580,31640,-9436,18202,18202,1958,2661,109,-258,-51,249,-143,4017,-192,257,740,1259,1436,1136,1279,1341,1063,1308,1443
132581,31928,-9104,18808,18808,1666,2393,174,-332,-42,100,41,4618,-42,-17,744,1259,1436,1136,1279,1341,1063,1308,1443
133582,32328,-8744,19414,19414,971,2224,229,-324,-4,-80,-247,5300,-58,38,737,1259,1436,1136,1279,1341,1063,1308,1443
134583,32780,-8336,20020,20020,650,1929,216,-367,76,178,-241,4978,69,58,774,1259,1436,1136,1279,1341,1063,1308,1443
135584,33164,-8008,20626,20626,1080,2436,229,-300,113,601,-190,5331,76,80,785,1259,1436,1136,1279,1341,1063,1308,1443
136585,33560,-7672,21232,21232,1011,2392,233,-324,115,144,-81,4906,95,83,801,1259,1436,1136,1279,1341,1063,1308,1443
137586,33984,-7248,21838,21838,840,1847,257,-273,91,534,-293,5265,74,63,808,1259,1436,1136,1279,1341,1063,1308,1443
138587,34388,-6856,22444,22444,970,2052,254,-292,115,805,-1151,5014,89,78,790,1259,1436,1136,1279,1341,1063,1308,1443
139588,34808,-6488,23050,23050,874,2208,246,-319,121,431,317,5178,89,87,795,1259,1436,1136,1279,1341,1063,1308,1443
140589,35192,-6096,23656,23656,1105,2063,279,-361,103,881,404,5167,77,86,807,1259,1436,1136,1279,1341,1063,1308,1443
141590,35612,-5728,24262,24262,884,2219,270,-402,117,608,-723,4144,93,84,803,1259,1436,1136,1279,1341,1063,1308,1443
142591,36028,-5380,24868,24868,914,2350,282,-514,151,-638,-502,4600,73,84,802,1259,1436,1136,1279,1341,1063,1308,1443
143592,36416,-5032,25474,25474,1094,2356,300,-680,117,190,553,4982,84,69,803,1259,1436,1136,1279,1341,1063,1308,1443
144593,36740,-4728,26080,26080,1501,2639,386,-898,140,812,-2020,4227,74,56,802,1259,1436,1136,1279,1341,1063,1308,1443
145594,37144,-4444,26686,26686,1006,2772,504,-1186,252,114,-415,5902,67,69,797,1259,1436,1136,1279,1341,1063,1308,1443
146595,37500,-4172,27292,27292,1312,2855,684,-1210,372,164,-184,6680,86,35,795,1259,1436,1136,1279,1341,1063,1308,1443
147596,37860,-3868,27898,27898,1293,2662,767,-971,318,930,-1525,7144,75,26,783,1259,1436,1136,1279,1341,1063,1308,1443
148597,38232,-3628,28504,28504,1224,3071,855,-773,267,461,-451,7263,81,9,787,1259,1436,1136,1279,1341,1063,1308,1443
149598,38604,-3384,29110,29110,1230,3055,892,-462,357,1472,-381,7818,81,38,781,1259,1436,1136,1279,1341,1063,1308,1443
150599,39024,-3176,29716,29716,934,3290,975,-176,471,1688,-254,7394,81,-19,781,1259,1436,1136,1279,1341,1063,1308,1443
151600,39360,-2976,30322,30322,1466,3349,1037,-110,544,789,-256,6313,87,-21,771,1259,1436,1136,1279,1341,1063,1308,1443
152601,39740,-2788,30928,30928,1196,3435,1058,-110,616,-250,18,6852,84,-78,769,1259,1436,1136,1279,1341,1063,1308,1443
153602,40104,-2632,31534,31534,1302,3646,1078,-158,653,-296,690,6076,75,-126,759,1259,1436,1136,1279,1341,1063,1308,1443
154603,40464,-2428,32140,32140,1333,3355,1108,-150,651,-287,112,5828,91,-185,755,1259,1436,1136,1279,1341,1063,1308,1443
155604,40832,-2268,32768,32768,1290,3642,1141,-154,690,-784,274,5708,87,-123,753,1259,1436,1136,1279,1341,1063,1308,1443
156605,41236,-2136,33374,33374,1070,3800,1143,-108,724,-1169,64,6016,99,-104,741,1259,1436,1136,1279,1341,1063,1308,1443
157606,41572,-1984,33980,33980,1501,3715,1241,-138,707,-1034,1235,5983,81,-138,750,1259,1436,1136,1279,1341,1063,1308,1443
158607,41924,-1860,34586,34586,1407,3800,1351,-186,685,-37,-340,5261,79,242,740,1259,1436,1136,1279,1341,1063,1308,1443
159608,42284,-1728,35192,35192,1363,3800,1458,-301,711,-448,-240,5944,80,7,754,1259,1436,1136,1279,1341,1063,1308,1443
160609,42640,-1588,35798,35798,1394,3800,1682,-455,654,600,599,6230,74,241,740,1259,1436,1136,1279,1341,1063,1308,1443
161610,42968,-1456,36404,36404,1576,3800,1812,-332,651,377,470,6141,70,264,754,1259,1436,1136,1279,1341,1063,1308,1443
162611,43340,-1280,37010,37010,1307,3621,1948,-243,693,502,327,5637,79,255,752,1259,1436,1136,1279,1341,1063,1308,1443
163612,43668,-1116,37616,37616,1589,3707,2039,-36,718,478,944,6707,76,249,756,1259,1436,1136,1279,1341,1063,1308,1443
164613,43952,-968,38222,38222,1872,3800,2147,54,743,521,1753,5718,80,-164,750,1259,1436,1136,1279,1341,1063,1308,1443
165614,44304,-812,38828,38828,1453,3779,2183,321,762,762,294,6405,70,-7,740,1259,1436,1136,1279,1341,1063,1308,1443
166615,44632,-676,39434,39434,1610,3800,2269,433,797,507,1605,5809,79,264,738,1259,1436,1136,1279,1341,1063,1308,1443
167616,44964,-524,40040,40040,1591,3800,2306,570,800,1040,1821,6200,80,226,746,1259,1436,1136,1279,1341,1063,1308,1443
168617,45300,-352,40646,40646,1573,3712,2317,716,803,661,1238,5787,68,243,748,1259,1436,1136,1279,1341,1063,1308,1443
169618,45620,-212,41252,41252,1680,3800,2293,887,849,-73,1127,5659,62,239,756,1259,1436,1136,1279,1341,1063,1308,1443
170619,45864,-44,41858,41858,2164,3759,2282,1029,903,-131,1631,5429,78,26,750,1259,1436,1136,1279,1341,1063,1308,1443
171620,46108,88,42464,42464,2173,3800,2324,1120,922,365,1796,4906,72,252,738,1259,1436,1136,1279,1341,1063,1308,1443
172621,46412,212,43070,43070,1805,3800,2359,1163,910,77,1305,4457,66,159,752,1259,1436,1136,1279,1341,1063,1308,1443
173622,46720,344,43676,43676,1787,3800,2427,1084,908,-617,2266,4437,55,264,740,1259,1436,1136,1279,1341,1063,1308,1443
174623,47004,504,44282,44282,1945,3800,2448,1098,895,3,1785,4828,48,219,744,1259,1436,1136,1279,1341,1063,1308,1443
175624,47280,628,44888,44888,2003,3800,2461,1169,920,-119,1484,4582,64,266,744,1259,1436,1136,1279,1341,1063,1308,1443
176625,47580,768,45494,45494,1861,3800,2522,1257,856,337,2674,4916,72,267,746,1259,1436,1136,1279,1341,1063,1308,1443
177626,47828,972,46100,46100,2194,3613,2593,1316,818,189,1196,4017,66,230,746,1259,1436,1136,1279,1341,1063,1308,1443
178627,48040,1156,46706,46706,2429,3749,2649,1411,856,195,1086,4698,51,253,742,1259,1436,1136,1279,1341,1063,1308,1443
179628,48292,1360,47312,47312,2188,3633,2673,1608,966,13,1801,4654,60,-148,746,1259,1436,1136,1279,1341,1063,1308,1443
180629,48576,1548,47918,47918,1995,3744,2694,1735,900,1322,1305,4157,67,123,729,1259,1436,1136,1279,1341,1063,1308,1443
181630,48856,1708,48524,48524,2028,3800,2766,1617,790,281,2896,3250,42,-129,736,1259,1436,1136,1279,1341,1063,1308,1443
182631,49076,1852,49152,49152,2413,3800,2707,1563,706,466,2033,4274,67,129,728,1259,1436,1136,1279,1341,1063,1308,1443
183632,49348,2052,49758,49758,2097,3701,2591,1690,688,390,1825,4581,48,244,744,1259,1436,1136,1279,1341,1063,1308,1443
184633,49624,2252,50364,50364,2080,3711,2506,1689,611,1022,2358,3707,64,249,744,1259,1436,1136,1279,1341,1063,1308,1443
185634,49860,2464,50970,50970,2339,3646,2508,1656,590,-833,1857,4405,56,-21,740,1259,1436,1136,1279,1341,1063,1308,1443
186635,50092,2672,51576,51576,2373,3680,2568,1377,516,-776,2698,3176,58,-1,736,1259,1436,1136,1279,1341,1063,1308,1443
187636,50368,2868,52182,52182,2106,3765,2547,1454,403,966,749,4816,54,-145,736,1259,1436,1136,1279,1341,1063,1308,1443
188637,50644,3016,52788,52788,2114,3800,2534,1382,432,167,2813,3384,64,-57,728,1259,1436,1136,1279,1341,1063,1308,1443
189638,50904,3220,53394,53394,2222,3736,2446,1457,418,754,1513,4527,61,181,728,1259,1436,1136,1279,1341,1063,1308,1443
190639,51172,3432,54000,54000,2181,3696,2390,1608,529,-853,1244,4696,63,247,740,1259,1436,1136,1279,1341,1063,1308,1443
191640,51440,3656,54606,54606,2189,3630,2276,1665,642,-1180,1428,3630,64,85,748,1259,1436,1136,1279,1341,1063,1308,1443
192641,51680,3888,55212,55212,2373,3590,2215,1432,663,42,1832,3103,52,-29,736,1259,1436,1136,1279,1341,1063,1308,1443
193642,51876,4100,55818,55818,2658,3724,2208,1320,621,919,2809,3251,56,-145,732,1259,1436,1136,1279,1341,1063,1308,1443
194643,52128,4276,56424,56424,2316,3800,2111,1454,680,-268,-186,2575,67,-196,728,1259,1436,1136,1279,1341,1063,1308,1443
195644,52404,4480,57030,57030,2174,3794,2006,1306,699,-1210,3250,1772,60,63,729,1259,1436,1136,1279,1341,1063,1308,1443
196645,52688,4720,57636,57636,2132,3578,1895,1027,481,1224,2783,1431,52,253,728,1259,1436,1136,1279,1341,1063,1308,1443
197646,52912,4940,58242,58242,2517,3713,1897,1066,428,16,1406,3865,55,243,741,1259,1436,1136,1279,1341,1063,1308,1443
198647,53192,5204,58848,58848,2175,3446,1816,1065,353,-293,2385,2119,54,-218,744,1259,1436,1136,1279,1341,1063,1308,1443
199648,53484,5472,59454,59454,2107,3429,1795,760,195,796,2476,2646,74,13,735,1259,1436,1136,1279,1341,1063,1308,1443
200649,53716,5700,60060,60060,2491,3689,1743,639,121,1017,2282,2623,64,-166,732,1259,1436,1136,1279,1341,1063,1308,1443
201650,53940,5940,60666,60666,2551,3623,1696,569,76,1034,1464,2910,72,-154,740,1259,1436,1136,1279,1341,1063,1308,1443
202651,54220,6204,61272,61272,2209,3481,1620,463,12,397,2786,2247,63,-25,739,1259,1436,1136,1279,1341,1063,1308,1443
203652,54576,6464,61878,61878,1740,3514,1487,327,-123,595,3495,2481,54,-147,728,1259,1436,1136,1279,1341,1063,1308,1443
204654,54856,6720,62484,62484,2223,3548,1357,110,-187,-114,1843,1779,53,-177,739,1259,1436,1136,1279,1341,1063,1308,1443
205654,55136,7044,63090,63090,2231,3130,1180,164,-300,1062,3089,3071,58,-203,744,1259,1436,1136,1279,1341,1063,1308,1443
206655,55476,7348,63696,63696,1862,3262,1083,275,-354,120,3800,2861,72,-230,738,1259,1436,1136,1279,1341,1063,1308,1443
207656,55760,7656,64302,64302,2220,3244,995,312,-343,492,2785,2521,65,-47,748,1259,1436,1136,1279,1341,1063,1308,1443
208657,56028,7976,64908,64908,2328,3176,850,73,-240,-26,2088,1403,71,-79,751,1259,1436,1136,1279,1341,1063,1308,1443
209658,56324,8240,65536,65536,2161,3535,663,-154,-181,-126,3536,2445,63,-66,747,1259,1436,1136,1279,1341,1063,1308,1443
210659,56704,8532,66142,66142,1642,3368,452,-244,-172,227,2062,1183,75,-43,749,1259,1436,1136,1279,1341,1063,1308,1443
211660,57004,8856,66748,66748,2149,3175,335,-234,-177,408,2801,1618,72,-200,737,1259,1436,1136,1279,1341,1063,1308,1443
212661,57280,9148,67354,67354,2307,3383,277,-302,-146,-610,2554,547,75,-121,745,1259,1436,1136,1279,1341,1063,1308,1443
213662,57608,9440,67960,67960,1989,3390,224,-227,-149,291,1655,2557,85,-61,752,1259,1436,1136,1279,1341,1063,1308,1443
214663,57936,9736,68566,68566,1996,3373,222,-199,-230,764,2728,1806,71,-146,737,1259,1436,1136,1279,1341,1063,1308,1443
215664,58204,10004,69172,69172,2379,3556,220,-154,-362,117,2882,2753,74,-138,740,1259,1436,1136,1279,1341,1063,1308,1443
216665,58572,10308,69778,69778,1760,3338,204,-208,-490,524,2852,2325,80,-158,741,1259,1436,1136,1279,1341,1063,1308,1443
217666,58880,10620,70384,70384,2142,3296,202,-242,-559,572,2823,2229,78,-208,733,1259,1436,1136,1279,1341,1063,1308,1443
218667,59156,11000,70990,70990,2350,2876,162,-214,-707,649,4215,2357,67,-118,746,1259,1436,1136,1279,1341,1063,1308,1443
219668,59476,11444,71596,71596,2082,2480,78,-153,-842,564,4164,1733,68,-77,745,1259,1436,1136,1279,1341,1063,1308,1443
220669,59820,11800,72202,72202,1939,3036,-19,-123,-913,950,4047,1294,62,-4,757,1259,1436,1136,1279,1341,1063,1308,1443
221670,60156,12088,72808,72808,1995,3469,-155,-161,-962,62,3930,1114,66,35,769,1259,1436,1136,1279,1341,1063,1308,1443
222671,60428,12436,73414,73414,2404,3100,-340,-118,-1003,-267,3753,1958,72,-32,751,1259,1436,1136,1279,1341,1063,1308,1443
223672,60812,12812,74020,74020,1709,2931,-521,-109,-1020,311,4040,1295,63,-182,742,1259,1436,1136,1279,1341,1063,1308,1443
224673,61128,13240,74626,74626,2141,2610,-635,-20,-1015,535,3805,2171,75,-11,749,1259,1436,1136,1279,1341,1063,1308,1443
225674,61428,13700,75232,75232,2249,2414,-683,20,-940,74,3365,1377,54,-4,763,1259,1436,1136,1279,1341,1063,1308,1443
226675,61760,14084,75838,75838,2055,2894,-715,69,-881,575,2875,2047,77,30,769,1259,1436,1136,1279,1341,1063,1308,1443
227676,62104,14424,76444,76444,1987,3176,-736,222,-835,474,3093,2339,58,41,769,1259,1436,1136,1279,1341,1063,1308,1443
228677,62456,14884,77050,77050,1943,2429,-740,372,-816,629,3160,2331,72,3,761,1259,1436,1136,1279,1341,1063,1308,1443
229678,62824,15320,77656,77656,1849,2583,-747,611,-764,633,2573,2673,66,-33,755,1259,1436,1136,1279,1341,1063,1308,1443
230679,63176,15784,78262,78262,1955,2412,-657,753,-724,806,3356,1843,64,35,774,1259,1436,1136,1279,1341,1063,1308,1443
231680,63512,16180,78868,78868,2061,2842,-598,974,-755,1166,2352,2256,72,35,775,1259,1436,1136,1279,1341,1063,1308,1443
232681,63852,16664,79474,79474,2043,2295,-524,1055,-795,411,3772,2068,66,43,777,1259,1436,1136,1279,1341,1063,1308,1443
233682,64228,17156,80080,80080,1824,2248,-599,1260,-845,929,2841,2490,78,20,764,1259,1436,1136,1279,1341,1063,1308,1443
234683,64576,17624,80686,80686,2005,2401,-630,1307,-874,1259,3970,1301,67,56,776,1259,1436,1136,1279,1341,1063,1308,1443
235684,65000,18116,81292,81292,1534,2254,-696,1411,-963,959,3488,1261,64,56,782,1259,1436,1136,1279,1341,1063,1308,1443
236685,65396,18660,81920,81920,1715,1931,-791,1396,-1053,-283,3433,737,81,69,776,1259,1436,1136,1279,1341,1063,1308,1443
237686,65780,19148,82526,82526,1795,2284,-967,1472,-1155,714,4025,1240,78,67,787,1259,1436,1136,1279,1341,1063,1308,1443
238687,66172,19668,83132,83132,1751,2086,-1144,1566,-1206,1470,2929,671,81,82,792,1259,1436,1136,1279,1341,1063,1308,1443
239688,66584,20288,83738,83738,1630,1461,-1298,1672,-1266,1055,3653,1304,85,72,784,1259,1436,1136,1279,1341,1063,1308,1443
240689,67072,20868,84344,84344,1158,1711,-1396,1765,-1358,495,3305,605,78,90,788,1259,1436,1136,1279,1341,1063,1308,1443
241690,67484,21448,84950,84950,1638,1712,-1474,1814,-1410,1065,2512,662,90,104,800,1259,1436,1136,1279,1341,1063,1308,1443
242691,67916,22028,85556,85556,1517,1712,-1508,1870,-1447,1363,3037,551,86,102,806,1259,1436,1136,1279,1341,1063,1308,1443
243692,68348,22588,86162,86162,1521,1839,-1550,1999,-1479,1494,1707,285,86,94,800,1259,1436,1136,1279,1341,1063,1308,1443
244693,68812,23292,86768,86768,1325,936,-1540,2067,-1540,1138,2262,-265,86,120,802,1259,1436,1136,1279,1341,1063,1308,1443
245694,69284,23928,87374,87374,1278,1360,-1570,2342,-1684,1628,916,-933,98,111,800,1259,1436,1136,1279,1341,1063,1308,1443
246695,69792,24572,87980,87980,1056,1310,-1505,2342,-1805,1159,1472,-1113,102,126,816,1259,1436,1136,1279,1341,1063,1308,1443
247696,70288,25224,88586,88586,1133,1258,-1669,2580,-1901,1475,973,-773,106,133,813,1259,1436,1136,1279,1341,1063,1308,1443
248697,70784,25924,89192,89192,1136,956,-1672,2500,-1949,1259,547,-1454,117,126,815,1259,1436,1136,1279,1341,1063,1308,1443
249698,71268,26576,89798,89798,1214,1255,-1774,2632,-1977,355,808,-1104,99,138,815,1259,1436,1136,1279,1341,1063,1308,1443
250699,71820,27256,90404,90404,790,1078,-1751,2688,-2082,678,1009,-1703,115,132,819,1259,1436,1136,1279,1341,1063,1308,1443
251700,72384,27884,91010,91010,716,1403,-1831,2722,-2156,847,1480,-2440,113,149,815,1259,1436,1136,1279,1341,1063,1308,1443
252701,72924,28556,91616,91616,868,1126,-2110,2820,-2213,1071,429,-942,108,143,821,1259,1436,1136,1279,1341,1063,1308,1443
253702,73428,29148,92222,92222,1095,1626,-2412,2891,-2326,1268,1216,-1637,116,128,819,1259,1436,1136,1279,1341,1063,1308,1443
254703,73964,29712,92828,92828,897,1802,-2697,2962,-2446,1147,168,-160,108,155,820,1259,1436,1136,1279,1341,1063,1308,1443
255704,74512,30384,93434,93434,823,1126,-2888,2872,-2540,259,298,328,129,138,812,1259,1436,1136,1279,1341,1063,1308,1443
256705,75068,30920,94040,94040,775,1978,-3124,2605,-2753,534,-1282,365,117,147,812,1259,1436,1136,1279,1341,1063,1308,1443
257706,75688,31452,94646,94646,374,2004,-3272,2671,-2706,-1373,-35,2581,107,137,819,1259,1436,1136,1279,1341,1063,1308,1443
258707,76276,31952,95252,95252,575,2207,-2758,1795,-2284,-2049,-833,1819,133,132,808,1259,1436,1136,1279,1341,1063,1308,1443
259708,76800,32532,95858,95858,977,1708,-2360,11,-2138,-4122,-4429,3638,130,130,813,1259,1436,1136,1279,1341,1063,1308,1443
260709,77356,33212,96464,96464,778,1081,-2642,-417,-2494,-4242,181,5530,111,121,807,1259,1436,1136,1279,1341,1063,1308,1443
261710,77912,33752,97070,97070,779,1957,-2941,322,-2817,1873,-1029,1073,107,119,812,1259,1436,1136,1279,1341,1063,1308,1443
262711,78528,34300,97676,97676,404,1909,-2717,875,-2754,4860,476,-209,117,136,822,1259,1436,1136,1279,1341,1063,1308,1443
263712,79096,34868,98304,98304,705,1785,-2502,135,-2765,5699,1415,3405,125,125,810,1259,1436,1136,1279,1341,1063,1308,1443
264713,79628,35520,98910,98910,932,1259,-2744,-224,-2762,1724,954,4200,106,130,815,1259,1436,1136,1279,1341,1063,1308,1443
265714,80144,36156,99516,99516,1034,1358,-2914,-115,-2687,-52,127,2772,110,139,813,1259,1436,1136,1279,1341,1063,1308,1443
266715,80668,36756,100122,100122,986,1584,-2742,-80,-2678,1652,1190,534,108,141,817,1259,1436,1136,1279,1341,1063,1308,1443
267716,81252,37392,100728,100728,612,1358,-2427,-399,-2557,384,2713,163,100,125,816,1259,1436,1136,1279,1341,1063,1308,1443
268717,81720,38064,101334,101334,1340,1131,-2533,-564,-2406,55,1755,5488,95,132,812,1259,1436,1136,1279,1341,1063,1308,1443
269718,82264,38860,101940,101940,867,352,-2587,-408,-2535,2054,874,7310,104,136,820,1259,1436,1136,1279,1341,1063,1308,1443
270719,82780,39568,102546,102546,1044,899,-2565,-520,-2400,1544,322,3559,107,134,814,1259,1436,1136,1279,1341,1063,1308,1443
271720,83292,40320,103152,103152,1071,620,-2190,-353,-2228,-72,967,6351,112,131,827,1259,1436,1136,1279,1341,1063,1308,1443
272721,83824,41072,103758,103758,948,617,-2035,-239,-2175,-1696,2323,5968,109,137,820,1259,1436,1136,1279,1341,1063,1308,1443
273722,84424,41832,104364,104364,523,563,-1892,-313,-2226,-1109,1707,7214,114,131,823,1259,1436,1136,1279,1341,1063,1308,1443
274723,84976,42676,104970,104970,825,32,-1995,-498,-2154,-89,1468,6244,106,123,822,1259,1436,1136,1279,1341,1063,1308,1443
275724,85500,43428,105576,105576,1002,604,-1904,-590,-1990,-1337,1683,5658,109,127,826,1259,1436,1136,1279,1341,1063,1308,1443
276725,86124,44148,106182,106182,376,801,-1748,-604,-1938,-2212,1391,5480,107,113,830,1259,1436,1136,1279,1341,1063,1308,1443
277726,86688,44880,106788,106788,752,723,-1546,-784,-1952,-3878,3284,6604,115,120,825,1259,1436,1136,1279,1341,1063,1308,1443
278727,87300,45676,107394,107394,452,318,-1462,-990,-1869,-3548,2141,6033,129,105,828,1259,1436,1136,1279,1341,1063,1308,1443
279728,87880,46476,108000,108000,653,289,-1413,-1005,-1794,-1195,513,4779,107,123,826,1259,1436,1136,1279,1341,1063,1308,1443
280729,88436,47236,108606,108606,804,535,-1383,-1176,-1656,-2930,123,1774,111,119,832,1259,1436,1136,1279,1341,1063,1308,1443
281730,89056,48028,109212,109212,404,330,-1285,-1666,-1685,-2593,2302,2383,134,125,831,1259,1436,1136,1279,1341,1063,1308,1443
282731,89664,48776,109818,109818,479,602,-1466,-1606,-1681,-914,1043,1876,126,120,827,1259,1436,1136,1279,1341,1063,1308,1443
283732,90260,49508,110424,110424,554,699,-1482,-1792,-1509,-201,-376,-204,128,120,833,1259,1436,1136,1279,1341,1063,1308,1443
284733,90948,50276,111030,111030,-23,470,-1396,-1832,-1387,-778,-470,743,131,117,830,1259,1436,1136,1279,1341,1063,1308,1443
285734,91564,50940,111636,111636,427,1118,-1233,-1757,-1460,-260,-800,-216,134,118,828,1259,1436,1136,1279,1341,1063,1308,1443
286735,92236,51632,112242,112242,75,941,-1048,-1514,-1585,739,-486,298,125,114,834,1259,1436,1136,1279,1341,1063,1308,1443
287736,92908,52296,112848,112848,73,1115,-819,-1507,-1617,1588,-345,282,132,138,825,1259,1436,1136,1279,1341,1063,1308,1443
288737,93572,53048,113454,113454,122,561,-751,-1668,-1523,2707,210,-98,136,116,829,1259,1436,1136,1279,1341,1063,1308,1443
289738,94212,53688,114060,114060,271,1260,-758,-1449,-1601,3345,3080,2287,125,133,827,1259,1436,1136,1279,1341,1063,1308,1443
290739,94784,54316,114688,114688,697,1335,-589,-1105,-1796,975,1780,1147,130,138,832,1259,1436,1136,1279,1341,1063,1308,1443
291740,95436,54936,115294,115294,196,1385,-460,-271,-1961,1054,1900,5723,147,135,823,1259,1436,1136,1279,1341,1063,1308,1443
292741,96176,55600,115900,115900,-357,1109,-618,-216,-1927,-308,735,375,133,140,819,1259,1436,1136,1279,1341,1063,1308,1443
293742,96788,56348,116506,116506,443,580,-854,-1103,-1682,-3288,1613,-832,123,146,823,1259,1436,1136,1279,1341,1063,1308,1443
294743,97484,57016,117112,117112,-84,1079,-1073,-1606,-1537,-2465,-592,2053,133,134,824,1259,1436,1136,1279,1341,1063,1308,1443
295744,98128,57640,117718,117718,240,1353,-1159,-1883,-1433,-2727,507,-938,138,135,831,1259,1436,1136,1279,1341,1063,1308,1443
296745,98712,58188,118324,118324,615,1830,-1301,-1990,-1446,-3578,-61,2133,130,154,827,1259,1436,1136,1279,1341,1063,1308,1443
297746,99368,58712,118930,118930,164,1982,-1235,-1976,-1677,-4037,-536,1392,129,140,823,1259,1436,1136,1279,1341,1063,1308,1443
298747,99968,59276,119536,119536,514,1733,-1310,-2344,-2010,-2802,-116,2402,122,148,813,1259,1436,1136,1279,1341,1063,1308,1443
299748,100560,59780,120142,120142,565,2110,-1181,-3042,-2112,-1112,-2637,1522,115,127,814,1259,1436,1136,1279,1341,1063,1308,1443
300749,101248,60256,120748,120748,-37,2288,-941,-3714,-1940,-583,-4007,1692,137,129,816,1259,1436,1136,1279,1341,1063,1308,1443
301750,101892,60716,121354,121354,237,2392,-613,-4524,-1973,-1687,-2399,3174,121,145,811,1259,1436,1136,1279,1341,1063,1308,1443
302751,102428,61188,121960,121960,913,2320,-330,-5324,-2244,-688,-2853,2709,113,130,810,1259,1436,1136,1279,1341,1063,1308,1443
303752,102936,61644,122566,122566,1091,2424,69,-6132,-2431,533,-4241,2668,118,101,806,1259,1436,1136,1279,1341,1063,1308,1443
304753,103536,62028,123172,123172,516,2879,383,-6356,-2749,1554,-2787,4531,125,114,802,1259,1436,1136,1279,1341,1063,1308,1443
305754,104180,62392,123778,123778,240,3010,768,-6872,-3026,391,-1796,3878,128,101,796,1259,1436,1136,1279,1341,1063,1308,1443
306755,104780,62736,124384,124384,515,3142,923,-7060,-3038,1381,-2995,6538,125,78,792,1259,1436,1136,1279,1341,1063,1308,1443
307756,105332,63040,124990,124990,816,3399,769,-7080,-2642,5162,-3752,6498,123,42,789,1259,1436,1136,1279,1341,1063,1308,1443
308757,105868,63364,125596,125596,918,3281,67,-6374,-1897,7703,-5724,10461,119,26,781,1259,1436,1136,1279,1341,1063,1308,1443
309758,106448,63616,126202,126202,644,3739,-1001,-5505,-1261,8336,-1319,12613,122,2,762,1259,1436,1136,1279,1341,1063,1308,1443
310759,106960,63844,126808,126808,1071,3800,-2027,-5107,-845,5113,-564,12998,110,-110,761,1259,1436,1136,1279,1341,1063,1308,1443
311760,107504,64080,127414,127414,873,3800,-2594,-4760,-905,5338,-107,14668,128,-43,753,1259,1436,1136,1279,1341,1063,1308,1443
312761,107996,64312,128020,128020,1200,3800,-2695,-4559,-704,5334,-3465,15237,107,105,757,1259,1436,1136,1279,1341,1063,1308,1443
313762,108416,64516,128626,128626,1655,3800,-2588,-4398,-54,4218,-5714,19249,108,247,758,1259,1436,1136,1279,1341,1063,1308,1443
314763,108824,64680,129232,129232,1735,3800,-2278,-4750,436,143,-9123,18529,99,260,756,1259,1436,1136,1279,1341,1063,1308,1443
315764,109228,64864,129838,129838,1765,3800,-1757,-5395,834,-3166,-9668,17537,86,255,752,1259,1436,1136,1279,1341,1063,1308,1443
316765,109560,64992,130444,130444,2221,3800,-815,-6143,1197,-3882,-12400,13259,86,249,752,1259,1436,1136,1279,1341,1063,1308,1443
317766,110000,65096,131072,131072,1551,3800,144,-6604,1438,-3554,-12314,14227,79,252,748,1259,1436,1136,1279,1341,1063,1308,1443
318767,110296,65204,131678,131678,2459,3800,820,-6994,1606,-3775,-8857,14186,84,245,745,1259,1436,1136,1279,1341,1063,1308,1443
319768,110532,65296,132284,132284,2843,3800,940,-7348,1662,-2293,-9572,14860,72,250,752,1259,1436,1136,1279,1341,1063,1308,1443
320769,110784,65360,132890,132890,2751,3800,762,-7797,1788,-2898,-7079,13194,64,267,744,1259,1436,1136,1279,1341,1063,1308,1443
321770,111080,65488,133496,133496,2484,3800,386,-7959,2053,-2257,-6037,13923,56,237,744,1259,1436,1136,1279,1341,1063,1308,1443
322771,111296,65632,134102,134102,2993,3800,-123,-7831,2303,-1735,-5294,13967,21,258,740,1259,1436,1136,1279,1341,1063,1308,1443
323772,111476,65768,134708,134708,3229,3800,-584,-7595,2599,-851,-4038,12947,16,253,740,1259,1436,1136,1279,1341,1063,1308,1443
324773,111648,65964,135314,135314,3289,3800,-1007,-7260,3013,341,-4724,12768,44,242,740,1259,1436,1136,1279,1341,1063,1308,1443
325774,111904,66260,135920,135920,2773,3637,-1279,-6833,3502,335,-4192,12331,-2,261,744,1259,1436,1136,1279,1341,1063,1308,1443
326775,112136,66572,136526,136526,2932,3544,-1430,-6279,3801,1011,-4202,12126,-80,255,744,1259,1436,1136,1279,1341,1063,1308,1443
327776,112304,66844,137132,137132,3343,3800,-1426,-5575,4099,969,-4518,12263,-118,270,726,1259,1436,1136,1279,1341,1063,1308,1443
328777,112492,67192,137738,137738,3228,3334,-1120,-4907,4503,1244,-4799,12336,22,-115,733,1259,1436,1136,1279,1341,1063,1308,1443
329778,112720,67584,138344,138344,2987,3064,-756,-4382,4916,438,-4604,10746,-9,-156,746,1259,1436,1136,1279,1341,1063,1308,1443
330779,112956,67996,138950,138950,2946,2944,-176,-3902,5138,2144,-6626,11180,-162,262,736,1259,1436,1136,1279,1341,1063,1308,1443
331780,113160,68448,139556,139556,3156,2698,523,-3498,5510,920,-5656,10840,-87,-52,744,1259,1436,1136,1279,1341,1063,1308,1443
332781,113328,68880,140162,140162,3392,2827,1258,-3289,5780,2029,-5824,11776,-8,13,746,1259,1436,1136,1279,1341,1063,1308,1443
333782,113588,69352,140768,140768,2825,2580,1782,-2827,5995,667,-6669,12535,5,32,747,1259,1436,1136,1279,1341,1063,1308,1443
334783,113816,69836,141374,141374,3034,2508,2173,-2415,6181,107,-3720,10549,-54,52,736,1259,1436,1136,1279,1341,1063,1308,1443
335784,114000,70340,141980,141980,3320,2386,2428,-1958,6308,1368,-3148,9962,-176,59,757,1259,1436,1136,1279,1341,1063,1308,1443
336785,114196,70860,142586,142586,3255,2288,2620,-1582,6378,38,-3021,8085,10,70,750,1259,1436,1136,1279,1341,1063,1308,1443
337786,114428,71460,143192,143192,3039,1788,2653,-1193,6252,-1144,6,8362,-24,74,741,1259,1436,1136,1279,1341,1063,1308,1443
338787,114696,72004,143798,143798,2822,2139,2690,-1014,6154,82,884,6472,-109,84,749,1259,1436,1136,1279,1341,1063,1308,1443
339788,114940,72548,144404,144404,2981,2141,2724,-1044,6364,-1117,-1075,2464,-109,80,760,1259,1436,1136,1279,1341,1063,1308,1443
340789,115228,73188,145010,145010,2714,1540,2841,-1184,6332,-136,-178,2717,-20,80,765,1259,1436,1136,1279,1341,1063,1308,1443
341790,115520,73796,145616,145616,2696,1740,2914,-1134,6190,191,2270,2938,9,75,759,1259,1436,1136,1279,1341,1063,1308,1443
342791,115760,74520,146222,146222,3030,1012,3037,-1037,5934,2409,762,878,-1,82,771,1259,1436,1136,1279,1341,1063,1308,1443
343792,116028,75168,146828,146828,2863,1486,3071,-727,5644,2274,1696,1367,33,88,768,1259,1436,1136,1279,1341,1063,1308,1443
344793,116324,75740,147456,147456,2697,1962,3190,-382,5512,1473,2147,670,31,85,768,1259,1436,1136,1279,1341,1063,1308,1443
345794,116616,76420,148062,148062,2729,1286,3281,-32,5105,6334,1285,1390,-15,96,771,1259,1436,1136,1279,1341,1063,1308,1443
346795,116896,77068,148668,148668,2812,1485,3463,480,4908,6200,2814,2621,10,93,769,1259,1436,1136,1279,1341,1063,1308,1443
347796,117152,77692,149274,149274,2971,1634,3565,1164,4942,5457,-566,2043,35,77,776,1259,1436,1136,1279,1341,1063,1308,1443
348797,117412,78412,149880,149880,2954,1031,3733,1217,4693,5366,1221,-982,24,80,773,1259,1436,1136,1279,1341,1063,1308,1443
349798,117684,79040,150486,150486,2887,1606,3926,1155,4398,4536,1697,251,0,90,766,1259,1436,1136,1279,1341,1063,1308,1443
350799,118004,79676,151092,151092,2594,1555,4200,1387,4465,3969,-1333,985,0,92,772,1259,1436,1136,1279,1341,1063,1308,1443
351800,118260,80352,151698,151698,3003,1303,4397,1552,4390,2858,815,783,-9,84,769,1259,1436,1136,1279,1341,1063,1308,1443
352801,118556,80952,152304,152304,2760,1778,4527,1395,4145,2094,1060,426,7,99,777,1259,1436,1136,1279,1341,1063,1308,1443
353802,118864,81700,152910,152910,2693,850,4673,882,4036,2046,-2,-1769,33,83,771,1259,1436,1136,1279,1341,1063,1308,1443
354803,119196,82324,153516,153516,2549,1625,4686,633,3772,415,2822,-2027,5,98,773,1259,1436,1136,1279,1341,1063,1308,1443
355804,119508,82936,154122,154122,2682,1699,4649,611,3581,-1166,2092,-2648,41,89,785,1259,1436,1136,1279,1341,1063,1308,1443
356805,119884,83568,154728,154728,2287,1574,4395,324,3370,2166,449,-4617,43,96,777,1259,1436,1136,1279,1341,1063,1308,1443
357806,120212,84256,155334,155334,2594,1222,4156,-224,3218,1205,3588,-3559,45,97,775,1259,1436,1136,1279,1341,1063,1308,1443
358807,120504,84836,155940,155940,2827,1897,3838,-372,2829,885,2796,-5332,31,101,786,1259,1436,1136,1279,1341,1063,1308,1443
359808,120824,85548,156546,156546,2659,1070,3537,-281,2285,1843,4108,-5318,65,92,783,1259,1436,1136,1279,1341,1063,1308,1443
360809,121116,86128,157152,157152,2841,1895,3229,57,1871,3723,2152,-4861,46,102,768,1259,1436,1136,1279,1341,1063,1308,1443
361810,121424,86704,157758,157758,2749,1921,2806,662,1472,5864,3995,-3440,34,105,784,1259,1436,1136,1279,1341,1063,1308,1443
362811,121796,87312,158364,158364,2354,1721,2257,1388,1025,5673,2357,-2755,27,110,769,1259,1436,1136,1279,1341,1063,1308,1443
363812,122116,87900,158970,158970,2686,1847,1873,1919,510,7038,3724,-3854,37,103,770,1259,1436,1136,1279,1341,1063,1308,1443
364813,122416,88508,159576,159576,2819,1722,1681,2373,240,5443,345,-2933,41,95,782,1259,1436,1136,1279,1341,1063,1308,1443
365814,122732,88984,160182,160182,2726,2550,1664,3291,-255,8580,1072,-1269,53,118,773,1259,1436,1136,1279,1341,1063,1308,1443
366815,123064,89464,160788,160788,2632,2528,2737,3121,1171,-4791,-3067,2222,31,105,772,1259,1436,1136,1279,1341,1063,1308,1443
367816,123420,89936,161394,161394,2489,2581,4117,1341,1654,928,-4479,4446,21,116,766,1259,1436,1136,1279,1341,1063,1308,1443
368817,123768,90688,162000,162000,2545,828,5393,-98,1631,-16900,-7591,11266,50,110,770,1259,1436,1136,1279,1341,1063,1308,1443
369818,124092,91404,162606,162606,2702,1050,5457,689,407,-6204,809,10632,43,124,771,1259,1436,1136,1279,1341,1063,1308,1443
370819,124428,92008,163212,163212,2633,1750,4950,1123,38,1210,1221,-275,61,123,788,1259,1436,1136,1279,1341,1063,1308,1443
371820,124792,92492,163840,163840,2465,2503,4418,189,708,7076,4486,-4284,55,129,781,1259,1436,1136,1279,1341,1063,1308,1443
372821,125140,93100,164446,164446,2571,1728,3974,-1427,936,4180,4195,-3796,45,132,779,1259,1436,1136,1279,1341,1063,1308,1443
373822,125540,93740,165052,165052,2251,1528,3136,-727,-449,9735,4383,784,43,121,774,1259,1436,1136,1279,1341,1063,1308,1443
374823,125872,94244,165658,165658,2683,2380,2658,1601,-1155,8883,4878,506,51,118,780,1259,1436,1136,1279,1341,1063,1308,1443
375824,126220,94768,166264,166264,2589,2257,2475,2873,-788,14807,988,-4379,58,139,789,1259,1436,1136,1279,1341,1063,1308,1443
376825,126580,95292,166870,166870,2520,2259,2277,2167,-214,5303,2604,-1922,62,130,767,1259,1436,1136,1279,1341,1063,1308,1443
377826,126948,95856,167476,167476,2476,2010,1878,1723,-400,-2462,1432,2600,44,127,772,1259,1436,1136,1279,1341,1063,1308,1443
378827,127328,96604,168082,168082,2406,857,1757,1691,-1031,-3853,-629,-513,55,126,776,1259,1436,1136,1279,1341,1063,1308,1443
379828,127772,97248,168688,168688,2010,1506,2167,1839,-1566,1513,2497,-246,71,128,780,1259,1436,1136,1279,1341,1063,1308,1443
380829,128172,97852,169294,169294,2290,1756,2732,1866,-1742,4852,-835,350,68,148,794,1259,1436,1136,1279,1341,1063,1308,1443
381830,128548,98424,169900,169900,2446,1957,3037,2082,-1379,-39,-793,2819,66,143,794,1259,1436,1136,1279,1341,1063,1308,1443
382831,128968,99028,170506,170506,2176,1757,3187,2478,-1387,1168,1516,3804,78,133,788,1259,1436,1136,1279,1341,1063,1308,1443
383832,129372,99848,171112,171112,2281,401,3619,2316,-1364,109,-1424,2202,79,157,784,1259,1436,1136,1279,1341,1063,1308,1443
384833,129844,100580,171718,171718,1859,948,4139,1989,-1241,-242,-588,3452,77,152,792,1259,1436,1136,1279,1341,1063,1308,1443
385834,130284,101372,172324,172324,2063,569,4559,1519,-1095,-3096,-1202,4884,85,155,802,1259,1436,1136,1279,1341,1063,1308,1443
386835,130724,102212,172930,172930,2067,263,4617,1306,-1103,-2582,1418,5666,83,168,806,1259,1436,1136,1279,1341,1063,1308,1443
387836,131168,103008,173536,173536,2046,533,4469,1129,-1039,-379,-880,3903,93,160,804,1259,1436,1136,1279,1341,1063,1308,1443
388837,131648,103936,174142,174142,1824,-299,4130,1164,-902,771,1789,3753,98,170,809,1259,1436,1136,1279,1341,1063,1308,1443
389838,132140,104812,174748,174748,1752,19,3699,1290,-787,278,1860,4121,100,158,807,1259,1436,1136,1279,1341,1063,1308,1443
390839,132700,105728,175354,175354,1328,-239,3125,1530,-840,1553,3763,4184,97,168,811,1259,1436,1136,1279,1341,1063,1308,1443
391840,133196,106656,175960,175960,1731,-322,2473,1768,-842,2943,2064,4323,93,152,815,1259,1436,1136,1279,1341,1063,1308,1443
392841,133708,107732,176566,176566,1633,-1258,1954,1821,-873,5201,2369,2638,91,151,821,1259,1436,1136,1279,1341,1063,1308,1443
393842,134192,108688,177172,177172,1811,-517,1546,2327,-576,2033,977,4747,112,161,814,1259,1436,1136,1279,1341,1063,1308,1443
394843,134788,109560,177778,177778,1111,2,1392,3468,-883,3624,5139,6074,98,150,796,1259,1436,1136,1279,1341,1063,1308,1443
395844,135404,110536,178384,178384,986,-657,1011,3674,-1230,6584,-3242,-271,103,178,809,1259,1436,1136,1279,1341,1063,1308,1443
396845,135948,111448,178990,178990,1437,-265,811,3725,-534,2061,-2868,1064,120,143,826,1259,1436,1136,1279,1341,1063,1308,1443
397846,136460,112468,179596,179596,1640,-950,894,3907,249,-180,-5969,3203,129,150,819,1259,1436,1136,1279,1341,1063,1308,1443
398847,137072,113256,180224,180224,1015,496,782,3546,345,-422,-5662,-3840,111,139,819,1259,1436,1136,1279,1341,1063,1308,1443
399848,137676,114040,180830,180830,1065,517,851,3633,359,-4476,-7113,-444,119,148,807,1259,1436,1136,1279,1341,1063,1308,1443
400849,138304,114880,181436,181436,915,161,947,4022,410,-3078,-3530,-1356,126,150,825,1259,1436,1136,1279,1341,1063,1308,1443
401850,138980,115656,182042,182042,613,557,1005,3836,622,-307,-5159,-2513,126,138,824,1259,1436,1136,1279,1341,1063,1308,1443
402851,139548,116488,182648,182648,1289,202,1123,4124,823,2088,-3733,2252,131,128,829,1259,1436,1136,1279,1341,1063,1308,1443
403852,140164,117212,183254,183254,989,874,1348,4369,937,-352,137,1594,136,136,829,1259,1436,1136,1279,1341,1063,1308,1443
404853,140736,117924,183860,183860,1264,946,1430,4636,924,-1553,1058,4076,131,137,824,1259,1436,1136,1279,1341,1063,1308,1443
405854,141372,118632,184466,184466,864,969,1288,4803,920,312,3131,3408,123,136,822,1259,1436,1136,1279,1341,1063,1308,1443
406855,142088,119280,185072,185072,361,1343,885,5021,1020,1052,5668,2748,132,140,819,1259,1436,1136,1279,1341,1063,1308,1443
407856,142716,120028,185678,185678,910,714,382,5482,938,1430,5396,2639,134,126,822,1259,1436,1136,1279,1341,1063,1308,1443
408857,143324,120720,186284,186284,1035,1062,-81,5744,835,136,4367,1640,137,125,822,1259,1436,1136,1279,1341,1063,1308,1443
409858,143976,121396,186890,186890,759,1160,-454,5783,786,417,4316,2247,131,151,825,1259,1436,1136,1279,1341,1063,1308,1443
410859,144624,122024,187496,187496,783,1460,-812,5764,817,1713,2772,4707,133,146,820,1259,1436,1136,1279,1341,1063,1308,1443
411860,145324,122732,188102,188102,456,957,-1055,5771,847,1347,1387,5251,135,147,820,1259,1436,1136,1279,1341,1063,1308,1443
412861,145984,123388,188708,188708,705,1281,-1169,5735,892,149,1183,3552,126,145,818,1259,1436,1136,1279,1341,1063,1308,1443
413862,146596,124008,189314,189314,1004,1506,-1119,5598,999,-477,-29,1118,144,140,826,1259,1436,1136,1279,1341,1063,1308,1443
414863,147204,124636,189920,189920,1029,1455,-945,5456,1171,14,-2061,1189,131,150,822,1259,1436,1136,1279,1341,1063,1308,1443
415864,147836,125228,190526,190526,879,1681,-824,5524,1390,-230,-4564,379,122,146,815,1259,1436,1136,1279,1341,1063,1308,1443
416865,148460,125816,191132,191132,928,1706,-591,5556,1549,-385,-4247,445,130,141,816,1259,1436,1136,1279,1341,1063,1308,1443
417866,149140,126420,191738,191738,576,1606,-354,5891,1740,-878,-5710,1159,134,163,815,1259,1436,1136,1279,1341,1063,1308,1443
418867,149744,127000,192344,192344,1052,1757,-124,5898,1898,-625,-5114,-1365,117,149,814,1259,1436,1136,1279,1341,1063,1308,1443
419868,150384,127560,192950,192950,826,1883,66,5853,1905,35,-2636,-455,126,142,819,1259,1436,1136,1279,1341,1063,1308,1443
420869,150980,128148,193556,193556,1101,1708,167,5943,1997,0,-2287,-1269,132,152,812,1259,1436,1136,1279,1341,1063,1308,1443
421870,151544,128744,194162,194162,1302,1659,31,6491,2011,3570,-1531,221,132,152,813,1259,1436,1136,1279,1341,1063,1308,1443
422871,152236,129288,194768,194768,500,1985,-161,6836,1834,4820,-1026,-1603,136,163,814,1259,1436,1136,1279,1341,1063,1308,1443
423872,152844,129848,195374,195374,1025,1886,-272,6967,1759,-298,1672,639,128,141,810,1259,1436,1136,1279,1341,1063,1308,1443
424873,153492,130388,195980,195980,774,2013,-477,6776,1664,104,2245,881,135,142,814,1259,1436,1136,1279,1341,1063,1308,1443
425874,154132,130988,196608,196608,824,1639,-852,6521,1416,1477,4521,-293,138,143,810,1259,1436,1136,1279,1341,1063,1308,1443
426875,154812,131588,197214,197214,572,1639,-1296,6448,1274,-208,5526,857,141,134,810,1259,1436,1136,1279,1341,1063,1308,1443
427876,155448,132160,197820,197820,846,1815,-1635,6080,1272,-1456,5521,140,127,140,815,1259,1436,1136,1279,1341,1063,1308,1443
428877,156180,132720,198426,198426,243,1891,-2044,5950,1178,-1241,3430,2276,138,137,814,1259,1436,1136,1279,1341,1063,1308,1443
429878,156900,133316,199032,199032,315,1666,-2245,5861,1103,-2428,4418,3890,143,136,811,1259,1436,1136,1279,1341,1063,1308,1443
430879,157572,133864,199638,199638,614,1967,-2377,5636,1051,-3047,1972,2883,139,125,814,1259,1436,1136,1279,1341,1063,1308,1443
431880,158232,134488,200244,200244,687,1492,-2273,4951,1010,-4465,2647,3606,133,121,817,1259,1436,1136,1279,1341,1063,1308,1443
432881,158960,135048,200850,200850,259,1893,-2189,4228,899,-4484,-621,3187,150,111,809,1259,1436,1136,1279,1341,1063,1308,1443
433882,159720,135552,201456,201456,55,2245,-2060,3593,803,-5315,-168,4191,135,89,816,1259,1436,1136,1279,1341,1063,1308,1443
434883,160452,136032,202062,202062,227,2399,-2002,3196,861,-4321,-4175,4167,137,86,812,1259,1436,1136,1279,1341,1063,1308,1443
435884,161200,136492,202668,202668,124,2527,-2074,3373,825,-1821,-3504,8034,155,69,804,1259,1436,1136,1279,1341,1063,1308,1443
436885,161844,136912,203274,203274,773,2782,-2062,2658,850,-4112,-656,4385,136,47,799,1259,1436,1136,1279,1341,1063,1308,1443
437886,162652,137188,203880,203880,-257,3690,-2046,1853,631,-3421,-1206,5331,127,39,793,1259,1436,1136,1279,1341,1063,1308,1443
438887,163376,137524,204486,204486,265,3321,-2030,680,298,-3150,-1239,3458,151,33,785,1259,1436,1136,1279,1341,1063,1308,1443
439888,163976,137904,205092,205092,1040,3052,-2248,-350,242,-4156,-2058,3862,128,8,752,1259,1436,1136,1279,1341,1063,1308,1443
440889,164608,138236,205698,205698,840,3359,-2435,-1021,258,-2074,-1795,4712,136,-17,763,1259,1436,1136,1279,1341,1063,1308,1443
441890,165352,138564,206304,206304,136,3390,-2688,-890,88,832,-2858,8208,151,-108,771,1259,1436,1136,1279,1341,1063,1308,1443
442891,166000,138864,206910,206910,735,3573,-3062,-640,-38,1199,-1441,7994,142,-36,757,1259,1436,1136,1279,1341,1063,1308,1443
443892,166664,139144,207516,207516,634,3706,-3430,-782,-133,467,2879,6460,147,-116,761,1259,1436,1136,1279,1341,1063,1308,1443
444893,167520,139468,208122,208122,-572,3438,-3741,-924,-405,1121,4937,7166,144,-133,751,1259,1436,1136,1279,1341,1063,1308,1443
445894,168216,139784,208728,208728,426,3495,-4136,-1174,-650,937,5044,5894,137,-196,752,1259,1436,1136,1279,1341,1063,1308,1443
446895,168828,140008,209334,209334,950,3800,-4391,-1742,-645,-493,4329,5979,138,-5,754,1259,1436,1136,1279,1341,1063,1308,1443
447896,169380,140220,209940,209940,1327,3800,-4476,-2311,-680,-1286,2429,6443,140,-201,759,1259,1436,1136,1279,1341,1063,1308,1443
448897,170072,140436,210546,210546,450,3800,-4339,-3205,-702,-4248,3801,6818,142,-229,758,1259,1436,1136,1279,1341,1063,1308,1443
449898,170832,140668,211152,211152,21,3800,-3950,-3937,-764,-4681,4391,7271,138,267,757,1259,1436,1136,1279,1341,1063,1308,1443
450899,171516,140932,211758,211758,494,3800,-3491,-4895,-796,-4892,3324,5957,151,256,760,1259,1436,1136,1279,1341,1063,1308,1443
451900,172172,141228,212364,212364,668,3673,-3016,-5689,-711,-5595,1939,6457,150,254,762,1259,1436,1136,1279,1341,1063,1308,1443
452901,172860,141584,212992,212992,466,3305,-2724,-6269,-587,-4743,1658,7191,142,271,760,1259,1436,1136,1279,1341,1063,1308,1443
453902,173536,141968,213598,213598,540,3135,-2511,-6650,-545,-4032,1780,7441,160,271,746,1259,1436,1136,1279,1341,1063,1308,1443
454903,174284,142300,214204,214204,86,3467,-2442,-6929,-546,-4246,2805,8784,151,-73,763,1259,1436,1136,1279,1341,1063,1308,1443
455904,174984,142596,214810,214810,384,3700,-2381,-7476,-643,-3557,2719,6127,147,-96,771,1259,1436,1136,1279,1341,1063,1308,1443
456905,175688,142952,215416,215416,356,3331,-2429,-8066,-745,-3750,2073,5625,144,-51,761,1259,1436,1136,1279,1341,1063,1308,1443
457906,176364,143272,216022,216022,530,3563,-2589,-8492,-742,-3269,1768,5980,135,-195,752,1259,1436,1136,1279,1341,1063,1308,1443
458907,177072,143624,216628,216628,327,3369,-2735,-8519,-678,-2352,114,5745,138,3,757,1259,1436,1136,1279,1341,1063,1308,1443
459908,177744,144052,217234,217234,551,2898,-2831,-8373,-649,-1358,-238,6838,145,-112,755,1259,1436,1136,1279,1341,1063,1308,1443
460909,178428,144488,217840,217840,474,2852,-2791,-8147,-577,-1985,-236,6684,147,-208,765,1259,1436,1136,1279,1341,1063,1308,1443
461910,179120,144916,218446,218446,422,2907,-2577,-8057,-462,-2001,358,5824,135,-151,777,1259,1436,1136,1279,1341,1063,1308,1443
462911,179740,145288,219052,219052,871,3262,-2372,-7514,-374,-1259,-1681,8360,135,-4,781,1259,1436,1136,1279,1341,1063,1308,1443
463912,180368,145656,219658,219658,821,3293,-1937,-7588,-180,-1909,-1017,3015,126,-4,781,1259,1436,1136,1279,1341,1063,1308,1443
464913,180964,146104,220264,220264,1021,2797,-1603,-7116,63,-2988,-1111,9436,117,1,767,1259,1436,1136,1279,1341,1063,1308,1443
465914,181496,146588,220870,220870,1423,2575,-1187,-7017,424,-5581,-1890,4967,134,-59,765,1259,1436,1136,1279,1341,1063,1308,1443
466915,182064,147016,221476,221476,1199,2929,-816,-7267,424,-1494,3139,5565,118,-68,781,1259,1436,1136,1279,1341,1063,1308,1443
467916,182572,147468,222082,222082,1576,2783,-445,-7699,357,-895,1175,5227,113,9,782,1259,1436,1136,1279,1341,1063,1308,1443
468917,182992,147968,222688,222688,2131,2486,-257,-7116,335,-3109,4951,8446,103,37,777,1259,1436,1136,1279,1341,1063,1308,1443
469918,183384,148416,223294,223294,2311,2815,-86,-6069,426,-3801,2823,7401,111,14,774,1259,1436,1136,1279,1341,1063,1308,1443
470919,183772,148892,223900,223900,2341,2643,139,-5404,676,-3200,3700,5683,83,32,774,1259,1436,1136,1279,1341,1063,1308,1443
471920,184048,149496,224506,224506,3049,1843,156,-4649,963,-2819,3574,8285,80,60,764,1259,1436,1136,1279,1341,1063,1308,1443
472921,184380,150060,225112,225112,2706,2094,40,-3902,1194,-2619,2421,7659,79,51,769,1259,1436,1136,1279,1341,1063,1308,1443
473922,184688,150584,225718,225718,2863,2346,64,-3491,1497,-5486,3777,5673,69,68,762,1259,1436,1136,1279,1341,1063,1308,1443
474923,184916,151192,226324,226324,3372,1821,258,-3171,1461,-4461,2345,5740,-2,98,769,1259,1436,1136,1279,1341,1063,1308,1443
475924,185148,151740,226930,226930,3357,2197,510,-2490,1447,-4227,327,6872,35,88,763,1259,1436,1136,1279,1341,1063,1308,1443
476925,185400,152468,227536,227536,3240,1069,812,-1845,1697,-5467,44,8160,11,106,747,1259,1436,1136,1279,1341,1063,1308,1443
477926,185608,153076,228142,228142,3525,1819,1057,-1414,1633,-2597,253,6680,-163,129,744,1259,1436,1136,1279,1341,1063,1308,1443
478927,185800,153764,228748,228748,3635,1317,1319,-1078,1502,-1383,-2251,6512,-157,124,762,1259,1436,1136,1279,1341,1063,1308,1443
479928,186028,154540,229376,229376,3420,764,1557,-264,1495,-2033,-1952,7069,-82,132,747,1259,1436,1136,1279,1341,1063,1308,1443
480929,186240,155332,229982,229982,3529,659,1823,645,1408,661,-2778,5906,-239,136,741,1259,1436,1136,1279,1341,1063,1308,1443
481930,186444,156048,230588,230588,3589,1131,2116,1258,1381,2027,-3073,5810,-165,139,758,1259,1436,1136,1279,1341,1063,1308,1443
482931,186664,156668,231194,231194,3499,1731,2479,1759,1392,2912,-1967,7444,-234,133,759,1259,1436,1136,1279,1341,1063,1308,1443
483932,186904,157256,231800,231800,3383,1931,2924,2179,1362,-44,-1876,8147,-270,146,749,1259,1436,1136,1279,1341,1063,1308,1443
484933,187148,157756,232406,232406,3366,2484,3373,2525,1324,-1375,-3024,6492,-231,155,751,1259,1436,1136,1279,1341,1063,1308,1443
485934,187444,158460,233012,233012,3049,1207,3737,2553,1347,-359,-2017,4973,-234,161,747,1259,1436,1136,1279,1341,1063,1308,1443
486935,187700,159232,233618,233618,3308,778,3843,2746,1482,1304,-2516,4956,-162,158,745,1259,1436,1136,1279,1341,1063,1308,1443
487936,187964,159924,234224,234224,3266,1275,3656,3343,1644,3740,-1762,6386,-144,145,768,1259,1436,1136,1279,1341,1063,1308,1443
488937,188244,160548,234830,234830,3174,1700,3247,4000,1760,4648,560,6804,-14,154,762,1259,1436,1136,1279,1341,1063,1308,1443
489938,188528,161208,235436,235436,3157,1474,2781,4817,1895,4473,167,7748,-138,163,763,1259,1436,1136,1279,1341,1063,1308,1443
490939,188860,161824,236042,236042,2863,1748,2451,5610,1939,4083,2009,7737,-99,153,765,1259,1436,1136,1279,1341,1063,1308,1443
491940,189208,162480,236648,236648,2770,1497,2306,6041,1871,2369,349,7505,-55,142,766,1259,1436,1136,1279,1341,1063,1308,1443
492941,189540,163100,237254,237254,2876,1722,2221,6328,1742,1711,-32,8215,-24,139,773,1259,1436,1136,1279,1341,1063,1308,1443
493942,189888,163696,237860,237860,2783,1872,2225,6211,1638,1490,-1592,6277,18,151,776,1259,1436,1136,1279,1341,1063,1308,1443
494943,190288,164324,238466,238466,2463,1672,2421,5984,1585,1614,-769,5718,29,148,772,1259,1436,1136,1279,1341,1063,1308,1443
495944,190748,164908,239072,239072,2091,1947,2897,5763,1522,1386,-856,4188,26,137,776,1259,1436,1136,1279,1341,1063,1308,1443
496945,191184,165624,239678,239678,2245,1119,3403,5515,1443,-1082,-1561,2613,48,139,781,1259,1436,1136,1279,1341,1063,1308,1443
497946,191608,166288,240284,240284,2325,1443,4220,4614,1219,474,-2434,2572,72,148,789,1259,1436,1136,1279,1341,1063,1308,1443
498947,192076,166952,240890,240890,2053,1442,4803,4493,1262,-514,-2308,4190,90,152,796,1259,1436,1136,1279,1341,1063,1308,1443
499948,192580,167596,241496,241496,1831,1566,5363,4340,1090,3999,767,971,86,138,790,1259,1436,1136,1279,1341,1063,1308,1443
500949,193084,168292,242102,242102,1833,1239,5489,4613,1050,746,-583,2770,81,136,798,1259,1436,1136,1279,1341,1063,1308,1443
501950,193644,169084,242708,242708,1484,634,5214,4863,1202,3504,-1119,1562,93,138,800,1259,1436,1136,1279,1341,1063,1308,1443
502951,194204,169868,243314,243314,1485,680,5097,4202,1267,5576,2189,-467,106,130,803,1259,1436,1136,1279,1341,1063,1308,1443
503952,194744,170624,243920,243920,1612,851,4778,3830,1163,4543,3641,2055,92,134,815,1259,1436,1136,1279,1341,1063,1308,1443
504953,195296,171364,244526,244526,1538,948,4382,3807,836,4634,4440,-394,98,147,816,1259,1436,1136,1279,1341,1063,1308,1443
505954,195872,172200,245132,245132,1389,342,3678,4708,820,3053,4367,1579,116,150,813,1259,1436,1136,1279,1341,1063,1308,1443
506955,196536,173184,245760,245760,838,-592,2945,5109,1355,1802,501,-342,105,154,813,1259,1436,1136,1279,1341,1063,1308,1443
507956,197112,174168,246366,246366,1389,-601,2212,4790,2056,-2609,287,-1438,116,141,820,1259,1436,1136,1279,1341,1063,1308,1443
508957,197720,174996,246972,246972,1189,369,1962,4644,1833,1953,-1074,645,121,141,823,1259,1436,1136,1279,1341,1063,1308,1443
509958,198328,175792,247578,247578,1189,564,2089,5291,1474,915,-4741,1137,114,149,815,1259,1436,1136,1279,1341,1063,1308,1443
510959,198976,176624,248184,248184,938,334,2437,5616,1543,1064,-1931,1223,122,128,823,1259,1436,1136,1279,1341,1063,1308,1443
511960,199664,177600,248790,248790,686,-575,2816,5012,1731,2322,-3442,734,129,132,824,1259,1436,1136,1279,1341,1063,1308,1443
512961,200316,178396,249396,249396,910,545,2931,4910,1909,1217,-3450,5842,133,150,826,1259,1436,1136,1279,1341,1063,1308,1443
513962,200948,179216,250002,250002,1034,390,3147,5228,1982,-772,-3652,2147,143,121,822,1259,1436,1136,1279,1341,1063,1308,1443
514963,201596,179988,250608,250608,933,686,3632,5621,1968,-2003,-2085,3921,136,134,826,1259,1436,1136,1279,1341,1063,1308,1443
515964,202248,180840,251214,251214,907,180,4125,5482,1966,-3150,-1717,2510,155,141,825,1259,1436,1136,1279,1341,1063,1308,1443
516965,202872,181596,251820,251820,1082,776,4421,4995,2002,-3547,-673,940,130,132,824,1259,1436,1136,1279,1341,1063,1308,1443
517966,203580,182352,252426,252426,554,772,4407,4037,1955,-2362,632,-1740,138,123,829,1259,1436,1136,1279,1341,1063,1308,1443
518967,204248,183068,253032,253032,803,1020,4336,3136,2068,-3947,2494,-1985,151,129,822,1259,1436,1136,1279,1341,1063,1308,1443
519968,204900,183804,253638,253638,901,891,4087,2718,2125,-2590,2310,-2999,132,122,827,1259,1436,1136,1279,1341,1063,1308,1443
520969,205556,184504,254244,254244,875,1114,3814,2940,2118,-1629,1722,-2267,139,126,823,1259,1436,1136,1279,1341,1063,1308,1443
521970,206216,185212,254850,254850,849,1062,3564,3304,2097,-242,3007,-3528,148,128,823,1259,1436,1136,1279,1341,1063,1308,1443
522971,206988,185812,255456,255456,145,1737,3249,3895,2022,805,2344,-2161,132,138,821,1259,1436,1136,1279,1341,1063,1308,1443
523972,207692,186452,256062,256062,567,1486,2866,3828,1840,752,3407,-2659,139,130,823,1259,1436,1136,1279,1341,1063,1308,1443
524973,208352,187116,256668,256668,841,1335,2253,3511,1656,1074,1333,-2231,143,143,818,1259,1436,1136,1279,1341,1063,1308,1443
525974,209000,187840,257274,257274,915,957,1569,2739,1608,503,811,-1846,146,138,819,1259,1436,1136,1279,1341,1063,1308,1443
526975,209672,188452,257880,257880,763,1657,980,2187,1758,463,-545,1353,147,134,820,1259,1436,1136,1279,1341,1063,1308,1443
527976,210376,189040,258486,258486,561,1807,901,1790,1990,1070,-2520,3036,139,145,822,1259,1436,1136,1279,1341,1063,1308,1443
528977,211116,189636,259092,259092,333,1757,890,1717,1969,3014,-4229,4364,132,146,816,1259,1436,1136,1279,1341,1063,1308,1443
529978,211800,190264,259698,259698,681,1557,916,2107,1952,815,-4731,5893,151,149,817,1259,1436,1136,1279,1341,1063,1308,1443
530979,212496,190892,260304,260304,604,1556,1338,2008,1873,-488,-4954,3475,141,147,815,1259,1436,1136,1279,1341,1063,1308,1443
531980,213136,191452,260910,260910,953,1982,1678,1873,1773,-211,-6205,6279,131,156,819,1259,1436,1136,1279,1341,1063,1308,1443
532981,213856,191972,261516,261516,450,2234,1919,1805,1585,1508,-6329,5155,147,152,818,1259,1436,1136,1279,1341,1063,1308,1443
533982,214584,192504,262144,262144,398,2162,2094,1655,1407,820,-5731,4437,144,145,809,1259,1436,1136,1279,1341,1063,1308,1443
534983,215248,193020,262750,262750,796,2264,1999,1557,1223,-124,-3851,5851,131,153,811,1259,1436,1136,1279,1341,1063,1308,1443
535984,215972,193556,263356,263356,418,2141,1653,980,1063,-2355,-342,1543,138,132,810,1259,1436,1136,1279,1341,1063,1308,1443
536985,216572,194060,263962,263962,1193,2343,994,272,998,-3718,1080,3002,153,114,806,1259,1436,1136,1279,1341,1063,1308,1443
537986,217196,194528,264568,264568,1043,2571,163,-208,856,-3331,2316,3169,134,134,809,1259,1436,1136,1279,1341,1063,1308,1443
538987,217928,195020,265174,265174,365,2424,-577,-571,717,-3210,2827,1007,140,125,800,1259,1436,1136,1279,1341,1063,1308,1443
539988,218608,195540,265780,265780,688,2251,-1268,-804,552,-2625,1640,3218,152,119,798,1259,1436,1136,1279,1341,1063,1308,1443
540989,219276,196056,266386,266386,762,2279,-1889,-1289,469,-3546,1989,1189,146,100,804,1259,1436,1136,1279,1341,1063,1308,1443
541990,219984,196540,266992,266992,509,2482,-2531,-1997,337,-2027,2355,1679,129,111,805,1259,1436,1136,1279,1341,1063,1308,1443
542991,220672,196988,267598,267598,632,2710,-3155,-2495,331,-1815,1697,2065,143,105,803,1259,1436,1136,1279,1341,1063,1308,1443
543992,221344,197492,268204,268204,731,2363,-3555,-2820,234,-261,418,665,149,96,802,1259,1436,1136,1279,1341,1063,1308,1443
544993,222108,198004,268810,268810,152,2315,-3749,-2952,87,-253,-1517,2390,144,91,794,1259,1436,1136,1279,1341,1063,1308,1443
545994,222888,198500,269416,269416,47,2418,-3724,-3101,-42,541,-395,3370,157,66,796,1259,1436,1136,1279,1341,1063,1308,1443
546995,223592,198956,270022,270022,520,2672,-3785,-3143,-328,1901,-3371,3751,135,84,805,1259,1436,1136,1279,1341,1063,1308,1443
547996,224348,199388,270628,270628,191,2826,-3722,-3566,-529,-763,-736,2546,146,80,799,1259,1436,1136,1279,1341,1063,1308,1443
548997,225132,199836,271234,271234,12,2730,-3802,-3693,-676,599,-3152,3634,151,55,791,1259,1436,1136,1279,1341,1063,1308,1443
549998,225964,200320,271840,271840,-293,2508,-3910,-3987,-793,-1342,-3248,2353,131,36,791,1259,1436,1136,1279,1341,1063,1308,1443
550999,226672,200732,272446,272446,479,2962,-4086,-4156,-845,-2674,-174,5588,152,20,793,1259,1436,1136,1279,1341,1063,1308,1443
552000,227320,201108,273052,273052,853,3193,-4315,-4398,-997,80,-3292,3069,154,25,795,1259,1436,1136,1279,1341,1063,1308,1443
553001,228044,201484,273658,273658,375,3199,-4554,-4652,-1187,-577,624,4668,127,27,784,1259,1436,1136,1279,1341,1063,1308,1443
554002,228772,201892,274264,274264,347,3003,-4836,-5585,-1340,-4372,2149,2484,155,-19,771,1259,1436,1136,1279,1341,1063,1308,1443
555003,229532,202288,274870,274870,143,3084,-5158,-6099,-1538,-4276,2769,4782,144,-40,774,1259,1436,1136,1279,1341,1063,1308,1443
556004,230252,202632,275476,275476,391,3415,-5384,-6412,-1575,-4052,439,1731,133,-41,778,1259,1436,1136,1279,1341,1063,1308,1443
557005,230856,202952,276082,276082,1116,3572,-5655,-6708,-1397,-4346,-1078,3836,140,-20,771,1259,1436,1136,1279,1341,1063,1308,1443
558006,231608,203336,276688,276688,187,3177,-5933,-6851,-1208,-2308,-861,4176,139,-22,762,1259,1436,1136,1279,1341,1063,1308,1443
559007,232328,203748,277294,277294,384,3007,-6056,-7032,-909,-2004,-295,2949,144,-173,754,1259,1436,1136,1279,1341,1063,1308,1443
560008,233040,204204,277900,277900,432,2736,-6017,-6995,-645,-2771,1864,4225,161,-215,771,1259,1436,1136,1279,1341,1063,1308,1443
561009,233752,204564,278528,278528,430,3342,-5794,-6965,-677,-1290,1714,1842,137,-55,779,1259,1436,1136,1279,1341,1063,1308,1443
562010,234408,204864,279134,279134,778,3725,-5491,-7030,-722,-841,2150,3023,140,-24,785,1259,1436,1136,1279,1341,1063,1308,1443
563011,235080,205280,279740,279740,677,3004,-5172,-6912,-713,-7,1645,4002,143,0,761,1259,1436,1136,1279,1341,1063,1308,1443
564012,235824,205672,280346,280346,223,3160,-4814,-6904,-647,-541,1704,2961,147,-110,752,1259,1436,1136,1279,1341,1063,1308,1443
565013,236492,206028,280952,280952,697,3391,-4468,-7039,-539,-3292,6475,1943,140,39,772,1259,1436,1136,1279,1341,1063,1308,1443
566014,237184,206476,281558,281558,545,2820,-4354,-7606,-444,-2000,2881,-735,145,-14,772,1259,1436,1136,1279,1341,1063,1308,1443
567015,237940,207132,282164,282164,141,1518,-4542,-8521,-635,4484,-751,-4632,136,-38,771,1259,1436,1136,1279,1341,1063,1308,1443
568016,238640,207736,282770,282770,489,1843,-4303,-8904,-353,-2802,6227,764,142,-135,789,1259,1436,1136,1279,1341,1063,1308,1443
569017,239364,208272,283376,283376,336,2270,-4065,-9128,59,-4998,2653,3320,145,27,815,1259,1436,1136,1279,1341,1063,1308,1443
570018,240028,208860,283982,283982,710,1946,-4581,-8532,-207,2382,869,2651,146,82,809,1259,1436,1136,1279,1341,1063,1308,1443
571019,240688,209520,284588,284588,733,1494,-4876,-8024,-97,5034,5733,767,139,64,802,1259,1436,1136,1279,1341,1063,1308,1443
572020,241460,210168,285194,285194,29,1568,-5008,-7277,279,9438,1381,2222,137,71,807,1259,1436,1136,1279,1341,1063,1308,1443
573021,242144,210956,285800,285800,577,689,-5241,-6173,278,8908,-947,3158,135,94,814,1259,1436,1136,1279,1341,1063,1308,1443
574022,242812,211760,286406,286406,676,584,-5541,-5115,-10,4586,-2017,3872,134,90,818,1259,1436,1136,1279,1341,1063,1308,1443
575023,243444,212440,287012,287012,900,1357,-5620,-6332,352,-5178,-104,-3942,148,91,826,1259,1436,1136,1279,1341,1063,1308,1443
576024,244020,213108,287618,287618,1251,1431,-5584,-7393,967,-5725,-2406,5068,128,104,827,1259,1436,1136,1279,1341,1063,1308,1443
577025,244644,213736,288224,288224,950,1680,-5337,-6301,1054,4754,-288,9235,127,115,816,1259,1436,1136,1279,1341,1063,1308,1443
578026,245144,214392,288830,288830,1728,1504,-4863,-4511,925,10583,-944,7673,123,90,810,1259,1436,1136,1279,1341,1063,1308,1443
579027,245628,215164,289436,289436,1831,775,-4367,-3326,1405,1762,-5969,6552,104,102,810,1259,1436,1136,1279,1341,1063,1308,1443
580028,246068,215812,290042,290042,2110,1549,-3861,-3799,1849,-4574,-426,6539,109,105,801,1259,1436,1136,1279,1341,1063,1308,1443
581029,246460,216572,290648,290648,2415,845,-3910,-4504,1907,-5889,-2540,8507,100,110,808,1259,1436,1136,1279,1341,1063,1308,1443
582030,246808,217200,291254,291254,2697,1669,-3959,-4553,1961,-1338,-1317,7346,92,118,790,1259,1436,1136,1279,1341,1063,1308,1443
583031,247108,217872,291860,291860,3004,1393,-3604,-4848,2153,579,-378,8537,74,115,793,1259,1436,1136,1279,1341,1063,1308,1443
584032,247372,218548,292466,292466,3237,1366,-3626,-4484,2237,-1199,-1265,9613,44,119,774,1259,1436,1136,1279,1341,1063,1308,1443
585033,247572,219224,293072,293072,3647,1364,-3673,-3799,2144,412,2177,11200,21,108,767,1259,1436,1136,1279,1341,1063,1308,1443
586034,247712,219800,293678,293678,3800,1990,-3563,-2908,2158,3263,649,9496,-9,131,761,1259,1436,1136,1279,1341,1063,1308,1443
587035,247848,220448,294284,294284,3800,1539,-3518,-1993,2144,4340,1595,10283,-126,127,740,1259,1436,1136,1279,1341,1063,1308,1443
588036,247976,221024,294912,294912,3800,1990,-3579,-1219,2239,3044,1135,10792,-136,131,752,1259,1436,1136,1279,1341,1063,1308,1443
589037,248036,221708,295518,295518,3800,1314,-3745,-706,2314,3465,1970,9311,243,115,753,1259,1436,1136,1279,1341,1063,1308,1443
590038,248104,222320,296124,296124,3800,1763,-3774,-204,2286,2483,1244,8436,251,147,752,1259,1436,1136,1279,1341,1063,1308,1443
591039,248192,222916,296730,296730,3800,1864,-3620,205,2050,3028,1150,5846,256,129,756,1259,1436,1136,1279,1341,1063,1308,1443
592040,248244,223532,297336,297336,3800,1738,-3300,476,1608,4854,630,5195,256,127,752,1259,1436,1136,1279,1341,1063,1308,1443
593041,248268,224108,297942,297942,3800,1989,-3063,1140,1393,4343,-785,5930,277,148,752,1259,1436,1136,1279,1341,1063,1308,1443
594042,248296,224688,298548,298548,3800,1965,-2732,1474,1475,3722,-1311,5714,237,141,752,1259,1436,1136,1279,1341,1063,1308,1443
595043,248320,225304,299154,299154,3800,1739,-2406,1665,1626,2950,-2849,5955,236,149,752,1259,1436,1136,1279,1341,1063,1308,1443
596044,248292,225884,299760,299760,3800,1965,-2001,1617,1697,2664,-2597,6523,252,143,752,1259,1436,1136,1279,1341,1063,1308,1443
597045,248292,226468,300366,300366,3800,1941,-1526,1815,1722,2221,-3420,7852,238,143,752,1259,1436,1136,1279,1341,1063,1308,1443
598046,248316,227028,300972,300972,3800,2092,-957,2016,1744,1131,-3769,8582,246,137,752,1259,1436,1136,1279,1341,1063,1308,1443
599047,248320,227676,301578,301578,3800,1541,-428,2151,1708,1195,-3164,9970,256,159,752,1259,1436,1136,1279,1341,1063,1308,1443
600048,248304,228244,302184,302184,3800,2042,13,2226,1675,3367,-1819,10916,244,149,752,1259,1436,1136,1279,1341,1063,1308,1443
601049,248312,228892,302790,302790,3800,1541,263,2369,1717,5105,-2365,10652,244,143,756,1259,1436,1136,1279,1341,1063,1308,1443
602050,248344,229496,303396,303396,3800,1816,498,2615,1913,3321,-932,11241,256,139,752,1259,1436,1136,1279,1341,1063,1308,1443
603051,248392,230100,304002,304002,3800,1816,662,2853,2005,4190,200,10181,243,139,756,1259,1436,1136,1279,1341,1063,1308,1443
604052,248448,230728,304608,304608,3800,1665,803,3053,1985,3718,615,10219,255,169,752,1259,1436,1136,1279,1341,1063,1308,1443
605053,248576,231392,305214,305214,3800,1439,940,3094,1873,3926,1729,9548,250,155,752,1259,1436,1136,1279,1341,1063,1308,1443
606054,248736,232064,305820,305820,3800,1387,1137,3147,1755,4093,1802,8951,269,143,754,1259,1436,1136,1279,1341,1063,1308,1443
607055,248908,232808,306426,306426,3800,934,1431,3315,1643,3486,2195,7918,243,143,754,1259,1436,1136,1279,1341,1063,1308,1443
608056,249128,233496,307032,307032,3800,1282,1746,3435,1429,3962,822,6301,251,140,756,1259,1436,1136,1279,1341,1063,1308,1443
609057,249416,234260,307638,307638,3408,803,2080,3533,1203,4870,1444,4767,260,154,758,1259,1436,1136,1279,1341,1063,1308,1443
610058,249656,235000,308244,308244,3717,950,2400,3637,1050,4698,960,3139,264,153,754,1259,1436,1136,1279,1341,1063,1308,1443
611059,249944,235832,308850,308850,3425,369,2763,3463,784,4351,399,1663,266,162,759,1259,1436,1136,1279,1341,1063,1308,1443
612060,250268,236756,309456,309456,3207,-214,3034,3195,602,3498,62,1937,-206,163,752,1259,1436,1136,1279,1341,1063,1308,1443
613061,250588,237600,310062,310062,3239,281,3306,3054,629,3961,-757,1423,64,159,767,1259,1436,1136,1279,1341,1063,1308,1443
614062,250884,238500,310668,310668,3396,-77,3531,3284,721,4634,-1470,1953,-223,161,775,1259,1436,1136,1279,1341,1063,1308,1443
615063,251240,239368,311296,311296,3028,118,3740,3751,643,4348,25,2478,-33,167,773,1259,1436,1136,1279,1341,1063,1308,1443
616064,251532,240372,311902,311902,3435,-742,3944,4082,509,2324,520,1078,-67,157,761,1259,1436,1136,1279,1341,1063,1308,1443
617065,251836,241348,312508,312508,3368,-576,4129,4283,490,1199,-107,2836,-160,162,778,1259,1436,1136,1279,1341,1063,1308,1443
618066,252136,242196,313114,313114,3400,218,4369,4392,552,2304,226,1019,12,141,757,1259,1436,1136,1279,1341,1063,1308,1443
619067,252448,243112,313720,313720,3332,-215,4588,4424,559,2144,-2118,1150,-224,145,763,1259,1436,1136,1279,1341,1063,1308,1443
620068,252824,243940,314326,314326,2938,330,4862,3860,394,43,-1181,306,-195,146,766,1259,1436,1136,1279,1341,1063,1308,1443
621069,253176,244784,314932,314932,3094,224,5117,3232,89,633,1299,5292,-167,139,767,1259,1436,1136,1279,1341,1063,1308,1443
622070,253536,245664,315538,315538,3050,-8,5313,2839,-48,1657,249,5121,-106,130,782,1259,1436,1136,1279,1341,1063,1308,1443
623071,253872,246460,316144,316144,3207,513,5580,2706,-25,1408,1059,7120,16,136,780,1259,1436,1136,1279,1341,1063,1308,1443
624072,254244,247168,316750,316750,2988,1060,5851,2545,18,-56,209,5764,-6,133,786,1259,1436,1136,1279,1341,1063,1308,1443
625073,254648,247956,317356,317356,2792,556,6098,2513,-145,-67,292,5846,-3,140,779,1259,1436,1136,1279,1341,1063,1308,1443
626074,255036,248692,317962,317962,2898,878,6328,2438,-413,690,571,4773,-59,129,776,1259,1436,1136,1279,1341,1063,1308,1443
627075,255428,249484,318568,318568,2878,523,6552,2298,-568,1849,412,4237,20,133,786,1259,1436,1136,1279,1341,1063,1308,1443
628076,255820,250208,319174,319174,2883,945,6575,2497,-612,3617,1391,6138,42,142,781,1259,1436,1136,1279,1341,1063,1308,1443
629077,256248,250912,319780,319780,2663,1068,6582,2864,-644,4202,2135,4621,39,145,787,1259,1436,1136,1279,1341,1063,1308,1443
630078,256696,251592,320386,320386,2541,1216,6449,3315,-604,3544,498,3577,45,130,784,1259,1436,1136,1279,1341,1063,1308,1443
631079,257144,252312,320992,320992,2545,963,6369,3482,-572,3166,813,1625,31,131,787,1259,1436,1136,1279,1341,1063,1308,1443
632080,257596,252964,321598,321598,2524,1387,6177,3881,-619,4195,48,3048,52,154,788,1259,1436,1136,1279,1341,1063,1308,1443
633081,258076,253644,322204,322204,2352,1210,6018,3976,-656,3466,492,266,61,140,788,1259,1436,1136,1279,1341,1063,1308,1443
634082,258568,254288,322810,322810,2280,1434,5914,3690,-650,2363,-1256,97,78,151,790,1259,1436,1136,1279,1341,1063,1308,1443
635083,259084,254968,323416,323416,2132,1208,5853,3292,-628,1349,-972,169,85,152,794,1259,1436,1136,1279,1341,1063,1308,1443
636084,259676,255688,324022,324022,1657,955,5888,3245,-612,1746,-171,1248,95,148,793,1259,1436,1136,1279,1341,1063,1308,1443
637085,260248,256368,324628,324628,1783,1203,5873,3307,-528,2013,-1430,1929,102,155,799,1259,1436,1136,1279,1341,1063,1308,1443
638086,260792,256964,325234,325234,1960,1728,5859,3228,-341,1616,225,1418,102,156,810,1259,1436,1136,1279,1341,1063,1308,1443
639087,261352,257556,325840,325840,1861,1754,5718,3020,-133,2376,-1428,944,118,154,807,1259,1436,1136,1279,1341,1063,1308,1443
640088,261912,258168,326446,326446,1862,1628,5638,2862,-114,3232,-1813,665,110,153,798,1259,1436,1136,1279,1341,1063,1308,1443
641089,262496,258788,327052,327052,1713,1578,5439,2816,-247,2801,-1043,678,98,151,799,1259,1436,1136,1279,1341,1063,1308,1443
642090,263144,259348,327680,327680,1312,1955,5156,2779,-390,1877,-2139,1153,126,161,801,1259,1436,1136,1279,1341,1063,1308,1443
643091,263748,259892,328286,328286,1587,2056,4645,2408,-430,2251,-1348,1665,125,148,803,1259,1436,1136,1279,1341,1063,1308,1443
644092,264356,260404,328892,328892,1562,2259,4160,1862,-619,4576,230,2556,124,149,805,1259,1436,1136,1279,1341,1063,1308,1443
645093,264976,260948,329498,329498,1487,2060,3751,2344,-715,295,2863,8332,127,134,799,1259,1436,1136,1279,1341,1063,1308,1443
646094,265636,261520,330104,330104,1235,1886,3128,2822,-920,689,322,6362,118,137,797,1259,1436,1136,1279,1341,1063,1308,1443
647095,266296,262108,330710,330710,1234,1786,2178,2858,-743,1883,-3062,3833,120,133,799,1259,1436,1136,1279,1341,1063,1308,1443
648096,266912,262648,331316,331316,1509,2088,1273,2899,10,1197,-1288,8495,129,123,805,1259,1436,1136,1279,1341,1063,1308,1443
649097,267580,263192,331922,331922,1182,2064,491,2704,678,-461,-3909,5796,135,140,808,1259,1436,1136,1279,1341,1063,1308,1443
650098,268280,263748,332528,332528,980,1991,-131,2373,1044,-4595,-4538,5199,137,130,795,1259,1436,1136,1279,1341,1063,1308,1443
651099,268908,264392,333134,333134,1430,1440,-390,2651,1358,-6218,-5641,8024,142,109,802,1259,1436,1136,1279,1341,1063,1308,1443
652100,269680,264956,333740,333740,525,1941,-370,2909,1611,-3616,-3635,2742,150,120,806,1259,1436,1136,1279,1341,1063,1308,1443
653101,270332,265500,334346,334346,1274,2067,-259,2719,1735,-1940,-2173,3345,154,106,808,1259,1436,1136,1279,1341,1063,1308,1443
654102,271004,266032,334952,334952,1148,2144,-277,2738,1581,951,-3304,4437,140,107,809,1259,1436,1136,1279,1341,1063,1308,1443
655103,271660,266508,335558,335558,1247,2497,-490,2813,1514,-1740,-1933,3802,147,92,799,1259,1436,1136,1279,1341,1063,1308,1443
656104,272336,267036,336164,336164,1120,2174,-740,2570,1447,-2011,133,2543,146,77,798,1259,1436,1136,1279,1341,1063,1308,1443
657105,273036,267508,336770,336770,968,2527,-1131,2052,1256,-3204,38,-1231,132,77,787,1259,1436,1136,1279,1341,1063,1308,1443
658106,273748,267912,337376,337376,890,2957,-1549,1576,1058,-3230,4178,1453,157,45,795,1259,1436,1136,1279,1341,1063,1308,1443
659107,274432,268252,337982,337982,1063,3364,-2083,1536,878,-222,2339,-552,141,46,788,1259,1436,1136,1279,1341,1063,1308,1443
660108,275136,268684,338588,338588,936,2793,-2633,1507,755,-167,994,-716,133,26,778,1259,1436,1136,1279,1341,1063,1308,1443
661109,275844,269108,339194,339194,908,2848,-3082,1404,647,-1018,3385,1734,154,1,759,1259,1436,1136,1279,1341,1063,1308,1443
662110,276536,269520,339800,339800,1006,2927,-3329,1250,554,657,3130,1580,131,-128,781,1259,1436,1136,1279,1341,1063,1308,1443
663111,277260,269860,340406,340406,803,3384,-3490,1143,487,3262,3393,2536,124,0,781,1259,1436,1136,1279,1341,1063,1308,1443
664112,277928,270160,341012,341012,1152,3641,-3778,1117,618,1399,2455,4269,148,2,775,1259,1436,1136,1279,1341,1063,1308,1443
665113,278576,270620,341618,341618,1276,2645,-4085,979,820,-904,2061,4121,126,-20,752,1259,1436,1136,1279,1341,1063,1308,1443
666114,279244,270996,342224,342224,1149,3175,-4291,1121,993,-509,207,5162,131,-122,744,1259,1436,1136,1279,1341,1063,1308,1443
667115,279856,271316,342830,342830,1499,3532,-4085,1274,1238,-237,642,3923,145,-125,773,1259,1436,1136,1279,1341,1063,1308,1443
668116,280512,271624,343436,343436,1223,3615,-3775,1355,1564,-149,-2465,4371,121,16,766,1259,1436,1136,1279,1341,1063,1308,1443
669117,281172,271924,344064,344064,1197,3673,-3462,851,1939,-2692,519,4313,119,-60,751,1259,1436,1136,1279,1341,1063,1308,1443
670118,281812,272320,344670,344670,1321,3078,-3492,714,2205,-2320,324,6339,134,-236,743,1259,1436,1136,1279,1341,1063,1308,1443
671119,282376,272756,345276,345276,1797,2832,-3421,755,2420,-2280,-994,3967,141,-158,744,1259,1436,1136,1279,1341,1063,1308,1443
672120,282924,273212,345882,345882,1899,2711,-3072,1198,2548,-2981,1009,3046,121,-65,761,1259,1436,1136,1279,1341,1063,1308,1443
673121,283496,273584,346488,346488,1749,3241,-2435,1106,2504,-3858,2207,2700,131,-13,769,1259,1436,1136,1279,1341,1063,1308,1443
674122,284108,273940,347094,347094,1499,3347,-2124,1046,2292,-2745,1201,3369,128,17,769,1259,1436,1136,1279,1341,1063,1308,1443
675123,284752,274348,347700,347700,1298,3027,-2191,1041,2020,-2309,5189,5258,128,7,757,1259,1436,1136,1279,1341,1063,1308,1443
676124,285332,274804,348306,348306,1699,2731,-2342,1025,1741,-2152,5938,2153,124,-60,752,1259,1436,1136,1279,1341,1063,1308,1443
677125,285920,275216,348912,348912,1649,3011,-2406,1101,1411,-2007,6239,2027,137,-92,767,1259,1436,1136,1279,1341,1063,1308,1443
678126,286448,275684,349518,349518,2026,2664,-2464,979,1186,-1613,7104,487,118,-12,772,1259,1436,1136,1279,1341,1063,1308,1443
679127,287012,276060,350124,350124,1802,3245,-2649,1188,1000,-779,5428,2184,113,16,766,1259,1436,1136,1279,1341,1063,1308,1443
680128,287652,276520,350730,350730,1326,2723,-2788,1538,758,-1127,6959,2683,115,-6,771,1259,1436,1136,1279,1341,1063,1308,1443
681129,288216,276980,351336,351336,1803,2727,-2904,1660,617,-2387,3983,183,107,34,757,1259,1436,1136,1279,1341,1063,1308,1443
682130,288764,277416,351942,351942,1904,2881,-2892,1213,606,-3807,6831,-3519,123,-36,775,1259,1436,1136,1279,1341,1063,1308,1443
683131,289324,277868,352548,352548,1830,2785,-2655,587,592,-3635,4308,-1771,114,15,772,1259,1436,1136,1279,1341,1063,1308,1443
684132,289888,278356,353154,353154,1806,2563,-2367,488,526,-2159,4272,88,121,23,767,1259,1436,1136,1279,1341,1063,1308,1443
685133,290452,278892,353760,353760,1807,2264,-2195,132,672,-3142,2269,-987,107,23,771,1259,1436,1136,1279,1341,1063,1308,1443
686134,291060,279448,354366,354366,1532,2141,-1941,-13,904,-3707,1404,25,100,37,777,1259,1436,1136,1279,1341,1063,1308,1443
687135,291732,279900,354972,354972,1130,2794,-1553,-334,908,-2648,2831,748,126,54,784,1259,1436,1136,1279,1341,1063,1308,1443
688136,292372,280360,355578,355578,1330,2748,-1009,-703,810,-2730,210,1218,124,60,786,1259,1436,1136,1279,1341,1063,1308,1443
689137,293020,280884,356184,356184,1279,2350,-802,-1083,985,-1604,2481,6514,113,71,783,1259,1436,1136,1279,1341,1063,1308,1443
690138,293652,281424,356790,356790,1378,2251,-1189,-1204,1355,-1335,2923,5963,107,40,781,1259,1436,1136,1279,1341,1063,1308,1443
691139,294232,282036,357396,357396,1704,1801,-1875,-1940,1620,-2980,1027,-342,114,46,791,1259,1436,1136,1279,1341,1063,1308,1443
692140,294968,282612,358002,358002,725,2027,-2113,-2790,1644,-5015,363,-420,118,74,793,1259,1436,1136,1279,1341,1063,1308,1443
693141,295652,283232,358608,358608,1049,1752,-2037,-1495,1463,-2006,-1273,9303,113,91,797,1259,1436,1136,1279,1341,1063,1308,1443
694142,296332,284040,359214,359214,1072,572,-2031,-487,1626,823,-3507,5152,145,118,807,1259,1436,1136,1279,1341,1063,1308,1443
695143,297108,285024,359820,359820,468,-537,-2369,667,1961,1090,-172,10018,131,112,807,1259,1436,1136,1279,1341,1063,1308,1443
696144,297856,285600,360448,360448,640,2014,-2315,1758,1294,4315,7353,10839,141,114,821,1259,1436,1136,1279,1341,1063,1308,1443
697145,298516,286208,361054,361054,1188,1814,-1921,1474,628,-2009,4393,3645,156,128,825,1259,1436,1136,1279,1341,1063,1308,1443
698146,299268,286816,361660,361660,610,1814,-1805,1199,568,-4160,4456,5246,143,137,810,1259,1436,1136,1279,1341,1063,1308,1443
699147,300048,287488,362266,362266,430,1412,-1754,1226,382,2852,1499,2534,149,118,808,1259,1436,1136,1279,1341,1063,1308,1443
700148,300736,288196,362872,362872,1003,1185,-1681,2002,314,2329,1425,971,146,142,814,1259,1436,1136,1279,1341,1063,1308,1443
701149,301388,288852,363478,363478,1227,1508,-1509,1595,355,-1194,-179,-3015,156,138,817,1259,1436,1136,1279,1341,1063,1308,1443
702150,302144,289356,364084,364084,574,2461,-1383,-189,235,-5104,3496,-6944,149,151,819,1259,1436,1136,1279,1341,1063,1308,1443
703151,302920,290164,364690,364690,445,556,-1274,-2023,213,-5702,1313,-7633,155,163,813,1259,1436,1136,1279,1341,1063,1308,1443
704152,303696,290868,365296,365296,440,1204,-1041,-2788,217,-2695,1981,-5533,147,154,806,1259,1436,1136,1279,1341,1063,1308,1443
705153,304432,291604,365902,365902,687,1000,-1000,-1879,229,1293,-2707,-890,164,148,828,1259,1436,1136,1279,1341,1063,1308,1443
706154,305216,292304,366508,366508,383,1223,-856,-1574,441,555,-980,-2143,161,168,824,1259,1436,1136,1279,1341,1063,1308,1443
707155,306000,292924,367114,367114,379,1723,-1083,-1440,623,963,3554,3238,159,173,825,1259,1436,1136,1279,1341,1063,1308,1443
708156,306776,293548,367720,367720,424,1697,-1370,-2043,621,2251,1892,-2097,157,168,824,1259,1436,1136,1279,1341,1063,1308,1443
709157,307544,294188,368326,368326,470,1597,-1650,-2401,554,3684,2533,1309,158,160,819,1259,1436,1136,1279,1341,1063,1308,1443
710158,308264,294840,368932,368932,768,1520,-1853,-2233,592,3670,-1575,1485,161,156,819,1259,1436,1136,1279,1341,1063,1308,1443
711159,308984,295468,369538,369538,765,1670,-1809,-2014,773,1842,-312,1262,156,144,818,1259,1436,1136,1279,1341,1063,1308,1443
712160,309696,296100,370144,370144,812,1644,-1845,-2190,783,970,-808,4914,139,152,817,1259,1436,1136,1279,1341,1063,1308,1443
713161,310480,296732,370750,370750,358,1644,-1899,-2903,658,-1768,893,2211,152,150,815,1259,1436,1136,1279,1341,1063,1308,1443
714162,311172,297420,371356,371356,931,1292,-1931,-3709,512,-1912,727,3215,163,145,815,1259,1436,1136,1279,1341,1063,1308,1443
715163,311840,298112,371962,371962,1079,1264,-1707,-4186,584,-1096,-2450,3217,134,156,819,1259,1436,1136,1279,1341,1063,1308,1443
716164,312520,298760,372568,372568,1003,1538,-1281,-4564,729,-1922,-2317,2342,131,147,818,1259,1436,1136,1279,1341,1063,1308,1443
717165,313196,299488,373174,373174,1026,1035,-822,-5042,872,-2686,-1880,5518,149,146,817,1259,1436,1136,1279,1341,1063,1308,1443
718166,313844,300204,373780,373780,1200,1108,-434,-5721,918,-2029,-243,2543,128,151,811,1259,1436,1136,1279,1341,1063,1308,1443
719167,314508,301060,374386,374386,1098,227,-136,-5868,842,391,-357,6191,139,144,819,1259,1436,1136,1279,1341,1063,1308,1443
720168,315084,301808,374992,374992,1649,898,163,-5904,782,2775,55,-19,146,149,817,1259,1436,1136,1279,1341,1063,1308,1443
721169,315656,302624,375598,375598,1675,468,613,-5087,678,4824,-568,6169,118,145,824,1259,1436,1136,1279,1341,1063,1308,1443
722170,316212,303516,376204,376204,1776,-14,920,-3963,979,-974,1659,3452,124,145,814,1259,1436,1136,1279,1341,1063,1308,1443
723171,316748,304352,376832,376832,1903,331,1237,-4100,910,3264,3059,1253,115,146,815,1259,1436,1136,1279,1341,1063,1308,1443
724172,317348,305292,377438,377438,1504,-327,1085,-3622,861,3569,2557,4925,122,140,815,1259,1436,1136,1279,1341,1063,1308,1443
725173,317880,306120,378044,378044,1930,367,1180,-3354,899,1484,2697,-8,100,128,811,1259,1436,1136,1279,1341,1063,1308,1443
726174,318356,306916,378650,378650,2284,563,1038,-2300,759,3883,1506,1372,122,144,817,1259,1436,1136,1279,1341,1063,1308,1443
727175,318824,307736,379256,379256,2337,408,971,-1917,806,3972,1242,-627,116,137,811,1259,1436,1136,1279,1341,1063,1308,1443
728176,319316,308544,379862,379862,2190,478,731,-1311,907,4265,5150,5211,103,124,803,1259,1436,1136,1279,1341,1063,1308,1443
729177,319780,309424,380468,380468,2368,21,387,-369,954,2853,2733,7307,82,140,802,1259,1436,1136,1279,1341,1063,1308,1443
730178,320220,310216,381074,381074,2522,566,129,427,1073,-343,-1419,8313,87,135,805,1259,1436,1136,1279,1341,1063,1308,1443
731179,320624,310948,381680,381680,2752,938,379,982,1153,-656,1287,7980,90,113,802,1259,1436,1136,1279,1341,1063,1308,1443
732180,321008,311680,382286,382286,2883,935,880,1359,1319,-560,-1748,8757,84,126,796,1259,1436,1136,1279,1341,1063,1308,1443
733181,321408,312412,382892,382892,2788,932,1371,1268,1470,-2304,-4103,6941,54,117,786,1259,1436,1136,1279,1341,1063,1308,1443
734182,321824,313160,383498,383498,2692,829,1931,785,1534,-4605,-1695,9673,54,128,784,1259,1436,1136,1279,1341,1063,1308,1443
735183,322252,313872,384104,384104,2622,1051,2553,594,1553,-4913,-4240,9919,39,130,784,1259,1436,1136,1279,1341,1063,1308,1443
736184,322640,314624,384710,384710,2877,798,3308,655,1583,-4765,-3569,10533,46,132,788,1259,1436,1136,1279,1341,1063,1308,1443
737185,323044,315316,385316,385316,2782,1170,4019,1322,1670,-3542,-2128,12922,41,120,786,1259,1436,1136,1279,1341,1063,1308,1443
738186,323452,316032,385922,385922,2762,1018,4585,1968,1685,-1478,-1585,11038,61,130,783,1259,1436,1136,1279,1341,1063,1308,1443
739187,323864,316788,386528,386528,2741,764,4828,2777,1659,-317,-497,11930,28,128,785,1259,1436,1136,1279,1341,1063,1308,1443
740188,324364,317472,387134,387134,2194,1212,4895,3308,1746,150,142,9140,38,135,787,1259,1436,1136,1279,1341,1063,1308,1443
741189,324848,318120,387740,387740,2297,1436,4701,4074,1737,2341,2302,10093,62,141,789,1259,1436,1136,1279,1341,1063,1308,1443
742190,325352,318732,388346,388346,2174,1661,4376,4892,1765,2956,1498,8243,61,135,796,1259,1436,1136,1279,1341,1063,1308,1443
743191,325880,319492,388952,388952,2026,732,3959,5708,1814,2653,2123,7391,92,135,793,1259,1436,1136,1279,1341,1063,1308,1443
744192,326404,320120,389558,389558,2053,1557,3354,6467,1714,2519,3110,6937,83,144,793,1259,1436,1136,1279,1341,1063,1308,1443
745193,326956,320776,390164,390164,1880,1381,2647,6956,1736,990,1246,5375,90,140,804,1259,1436,1136,1279,1341,1063,1308,1443
746194,327632,321420,390770,390770,1103,1455,2096,7056,1861,442,2448,4541,107,143,798,1259,1436,1136,1279,1341,1063,1308,1443
747195,328292,322004,391376,391376,1202,1830,1670,6718,1955,2195,1603,4145,96,152,801,1259,1436,1136,1279,1341,1063,1308,1443
748196,328964,322632,391982,391982,1125,1555,1292,6841,2148,1464,-4381,6495,117,151,812,1259,1436,1136,1279,1341,1063,1308,1443
749197,329620,323216,392588,392588,1224,1830,1011,6793,2094,1602,-3811,4188,126,164,808,1259,1436,1136,1279,1341,1063,1308,1443
750198,330228,323792,393216,393216,1524,1881,1098,6407,1910,657,-6496,4067,132,145,811,1259,1436,1136,1279,1341,1063,1308,1443
751199,330884,324332,393822,393822,1223,2108,1378,5936,1576,1172,-5460,5475,135,155,810,1259,1436,1136,1279,1341,1063,1308,1443
752200,331516,324836,394428,394428,1372,2336,1630,5666,1395,-965,-4425,6014,139,144,800,1259,1436,1136,1279,1341,1063,1308,1443
753201,332144,325364,395034,395034,1397,2187,1535,5790,1313,1118,-3279,9058,144,141,803,1259,1436,1136,1279,1341,1063,1308,1443
754202,332820,325792,395640,395640,1095,2817,1415,5472,1246,2242,-4508,6054,144,147,801,1259,1436,1136,1279,1341,1063,1308,1443
755203,333516,326232,396246,396246,968,2746,1258,4650,1250,28,-3700,7022,154,127,799,1259,1436,1136,1279,1341,1063,1308,1443
756204,334284,326656,396852,396852,514,2850,1090,3472,1193,-1546,-4288,4623,156,117,792,1259,1436,1136,1279,1341,1063,1308,1443
757205,335028,327056,397458,397458,661,3005,681,2614,1190,-3545,-2708,6268,151,88,793,1259,1436,1136,1279,1341,1063,1308,1443
758206,335728,327476,398064,398064,933,2885,144,1747,1172,-958,-1281,4615,159,80,791,1259,1436,1136,1279,1341,1063,1308,1443
759207,336432,327804,398670,398670,906,3467,-422,1245,1189,-50,-2730,7763,139,63,786,1259,1436,1136,1279,1341,1063,1308,1443
760208,337100,328112,399276,399276,1129,3599,-1057,1116,1324,125,483,9923,166,31,787,1259,1436,1136,1279,1341,1063,1308,1443
761209,337816,328436,399882,399882,827,3506,-1690,1440,1304,3216,-1584,11927,149,35,773,1259,1436,1136,1279,1341,1063,1308,1443
762210,338612,328724,400488,400488,322,3739,-2388,1416,1488,2225,2164,8869,155,-138,751,1259,1436,1136,1279,1341,1063,1308,1443
763211,339276,329020,401094,401094,1146,3696,-2926,1120,1714,3272,1055,7550,158,-173,759,1259,1436,1136,1279,1341,1063,1308,1443
764212,339928,329312,401700,401700,1220,3729,-3434,684,1579,2741,-625,5438,141,-178,756,1259,1436,1136,1279,1341,1063,1308,1443
765213,340580,329588,402306,402306,1218,3800,-3564,278,1408,-967,870,4878,144,117,746,1259,1436,1136,1279,1341,1063,1308,1443
766214,341296,329832,402912,402912,816,3800,-3488,-82,1186,-328,106,4990,144,-21,748,1259,1436,1136,1279,1341,1063,1308,1443
767215,341988,330060,403518,403518,964,3800,-3185,-583,821,1123,-899,2726,144,45,756,1259,1436,1136,1279,1341,1063,1308,1443
768216,342736,330284,404124,404124,610,3800,-2844,-1445,461,-512,-366,3408,144,260,758,1259,1436,1136,1279,1341,1063,1308,1443
769217,343420,330496,404730,404730,1008,3800,-2581,-2405,144,-1389,-207,2925,141,259,760,1259,1436,1136,1279,1341,1063,1308,1443
770218,344076,330704,405336,405336,1182,3800,-2421,-3248,-117,-1247,-669,3417,132,233,760,1259,1436,1136,1279,1341,1063,1308,1443
771219,344784,330924,405942,405942,855,3800,-2287,-3865,-284,-1940,-803,4125,128,261,757,1259,1436,1136,1279,1341,1063,1308,1443
772220,345456,331112,406548,406548,1078,3800,-2261,-4377,-298,-2071,187,5128,132,231,756,1259,1436,1136,1279,1341,1063,1308,1443
773221,346136,331324,407154,407154,1026,3800,-2160,-4944,-305,-210,-746,4777,132,243,758,1259,1436,1136,1279,1341,1063,1308,1443
774222,346892,331520,407760,407760,548,3800,-2155,-5756,-218,-2268,449,4082,143,257,757,1259,1436,1136,1279,1341,1063,1308,1443
775223,347592,331752,408366,408366,895,3800,-2050,-6511,-97,-3738,1213,4758,156,239,756,1259,1436,1136,1279,1341,1063,1308,1443
776224,348208,332016,408972,408972,1420,3800,-1966,-7055,-40,-3923,-598,2300,154,252,760,1259,1436,1136,1279,1341,1063,1308,1443
777225,348860,332276,409600,409600,1194,3800,-1838,-7133,-74,-2602,1688,6189,144,274,756,1259,1436,1136,1279,1341,1063,1308,1443
778226,349556,332652,410206,410206,917,3330,-1736,-7053,-83,-2062,932,5727,152,264,754,1259,1436,1136,1279,1341,1063,1308,1443
779227,350220,333000,410812,410812,1116,3511,-1615,-6923,-21,-1434,1197,8015,143,241,756,1259,1436,1136,1279,1341,1063,1308,1443
780228,351004,333340,411418,411418,361,3568,-1484,-7072,158,-1629,2874,6495,138,268,754,1259,1436,1136,1279,1341,1063,1308,1443
781229,351692,333680,412024,412024,959,3574,-1240,-7254,245,-1541,2057,5173,147,-95,755,1259,1436,1136,1279,1341,1063,1308,1443
782230,352376,334000,412630,412630,983,3706,-983,-7332,142,-2036,2907,5434,154,-202,751,1259,1436,1136,1279,1341,1063,1308,1443
783231,353052,334464,413236,413236,1031,2810,-658,-7345,86,-1490,1663,4470,149,-188,751,1259,1436,1136,1279,1341,1063,1308,1443
784232,353816,334888,413842,413842,477,3064,-401,-7310,193,-759,1992,5551,154,-204,748,1259,1436,1136,1279,1341,1063,1308,1443
785233,354608,335296,414448,414448,297,3169,-30,-7406,405,-1374,3650,3399,142,2,770,1259,1436,1136,1279,1341,1063,1308,1443
786234,355396,335668,415054,415054,318,3400,214,-7360,520,-1174,2045,1903,148,11,773,1259,1436,1136,1279,1341,1063,1308,1443
787235,356160,336156,415660,415660,464,2678,354,-7569,447,-2541,3238,-1718,166,-13,774,1259,1436,1136,1279,1341,1063,1308,1443
788236,356948,336748,416266,416266,310,2028,460,-7877,175,-1414,3700,-799,157,-43,764,1259,1436,1136,1279,1341,1063,1308,1443
789237,357756,337208,416872,416872,180,2856,493,-7025,148,981,4059,3512,158,-111,782,1259,1436,1136,1279,1341,1063,1308,1443
790238,358536,337640,417478,417478,351,3036,620,-6699,200,-455,1844,-2358,150,36,798,1259,1436,1136,1279,1341,1063,1308,1443
791239,359336,338120,418084,418084,221,2739,939,-7235,177,-2133,4149,-2365,150,59,789,1259,1436,1136,1279,1341,1063,1308,1443
792240,360036,338652,418690,418690,843,2416,974,-7491,689,-3484,2314,-1947,152,13,785,1259,1436,1136,1279,1341,1063,1308,1443
793241,360752,339380,419296,419296,741,1188,451,-7204,788,2034,-949,-2343,151,6,790,1259,1436,1136,1279,1341,1063,1308,1443
794242,361520,340244,419902,419902,412,331,192,-6921,518,1198,343,-3320,140,53,794,1259,1436,1136,1279,1341,1063,1308,1443
795243,362260,340952,420508,420508,584,1304,159,-6515,781,-1045,-1941,-1630,158,82,815,1259,1436,1136,1279,1341,1063,1308,1443
796244,363056,341656,421114,421114,229,1326,376,-6359,1019,5474,-2963,1252,136,105,827,1259,1436,1136,1279,1341,1063,1308,1443
797245,363832,342380,421720,421720,350,1199,534,-6080,1188,652,657,1695,141,97,820,1259,1436,1136,1279,1341,1063,1308,1443
798246,364524,343144,422326,422326,873,945,570,-5951,786,-596,2446,1782,163,103,819,1259,1436,1136,1279,1341,1063,1308,1443
799247,365204,343884,422932,422932,946,1091,665,-5844,447,45,650,-621,140,103,821,1259,1436,1136,1279,1341,1063,1308,1443
800248,365896,344552,423538,423538,869,1540,788,-5554,526,1635,-1017,1816,143,101,821,1259,1436,1136,1279,1341,1063,1308,1443
801249,366688,345136,424144,424144,239,2065,932,-5287,833,-10,819,1456,152,109,818,1259,1436,1136,1279,1341,1063,1308,1443
802250,367428,345808,424750,424750,561,1514,1033,-5224,942,-2574,1194,461,139,99,811,1259,1436,1136,1279,1341,1063,1308,1443
803251,368156,346508,425356,425356,633,1337,1211,-5498,904,-3756,2083,-946,156,99,807,1259,1436,1136,1279,1341,1063,1308,1443
804252,368888,347108,425984,425984,605,1962,1334,-5317,1082,-3303,1233,-1079,152,101,814,1259,1436,1136,1279,1341,1063,1308,1443
805253,369652,347712,426590,426590,402,1937,1412,-4820,1234,542,3230,-2172,141,110,816,1259,1436,1136,1279,1341,1063,1308,1443
806254,370376,348316,427196,427196,649,1937,1738,-4243,1986,-1833,-260,2167,150,91,811,1259,1436,1136,1279,1341,1063,1308,1443
807255,371184,349192,427802,427802,119,231,1917,-4117,2273,-1882,-1227,1982,155,118,811,1259,1436,1136,1279,1341,1063,1308,1443
808256,371908,349932,428408,428408,641,1077,1643,-5104,1897,-6605,1267,-3734,153,106,809,1259,1436,1136,1279,1341,1063,1308,1443
809257,372692,350628,429014,429014,262,1350,1319,-5921,1526,-5845,2198,376,159,131,827,1259,1436,1136,1279,1341,1063,1308,1443
810258,373416,351248,429620,429620,634,1825,914,-5598,1255,603,2975,1279,150,127,825,1259,1436,1136,1279,1341,1063,1308,1443
811259,374156,351852,430226,430226,530,1925,495,-5386,1273,5309,939,-2264,143,127,822,1259,1436,1136,1279,1341,1063,1308,1443
812260,374956,352472,430832,430832,151,1825,149,-5511,999,8181,89,-2948,152,114,814,1259,1436,1136,1279,1341,1063,1308,1443
813261,375672,353004,431438,431438,673,2376,-302,-5013,623,5746,-1231,-1565,147,127,811,1259,1436,1136,1279,1341,1063,1308,1443
814262,376376,353580,432044,432044,746,2102,-312,-4820,445,2088,-1456,-2380,145,120,815,1259,1436,1136,1279,1341,1063,1308,1443
815263,377052,354128,432650,432650,919,2279,-149,-4957,588,2807,-4607,-4028,141,108,806,1259,1436,1136,1279,1341,1063,1308,1443
816264,377736,354676,433256,433256,867,2280,13,-4765,857,3776,-5784,-225,144,130,807,1259,1436,1136,1279,1341,1063,1308,1443
817265,378424,355312,433862,433862,840,1729,296,-4505,990,387,-3204,778,130,117,805,1259,1436,1136,1279,1341,1063,1308,1443
818266,379068,355924,434468,434468,1114,1879,332,-3882,814,140,-2031,4252,136,119,803,1259,1436,1136,1279,1341,1063,1308,1443
819267,379680,356480,435074,435074,1314,2230,612,-4116,417,2360,-1127,1489,146,149,811,1259,1436,1136,1279,1341,1063,1308,1443
820268,380192,357084,435680,435680,1941,1930,859,-3762,643,-262,-3110,5301,116,135,806,1259,1436,1136,1279,1341,1063,1308,1443
821269,380700,357728,436286,436286,1969,1679,1175,-3217,1143,1686,-3409,5516,123,121,797,1259,1436,1136,1279,1341,1063,1308,1443
822270,381196,358372,436892,436892,2046,1678,1269,-1989,1154,6886,-971,9692,110,139,795,1259,1436,1136,1279,1341,1063,1308,1443
823271,381672,358968,437498,437498,2174,1979,1234,-855,1423,4549,234,10068,110,130,796,1259,1436,1136,1279,1341,1063,1308,1443
824272,382112,359548,438104,438104,2403,2079,1076,210,1884,3347,-1928,11765,86,148,795,1259,1436,1136,1279,1341,1063,1308,1443
825273,382484,360104,438710,438710,2834,2231,858,987,2126,1930,2421,9230,75,143,790,1259,1436,1136,1279,1341,1063,1308,1443
826274,382844,360824,439316,439316,2915,1203,784,760,2306,-3183,2571,7360,70,134,782,1259,1436,1136,1279,1341,1063,1308,1443
827275,383164,361732,439922,439922,3172,20,453,1221,2310,-654,203,8973,46,162,774,1259,1436,1136,1279,1341,1063,1308,1443
828276,383472,362376,440528,440528,3254,1670,349,1210,2414,-2049,857,6104,19,155,776,1259,1436,1136,1279,1341,1063,1308,1443
829277,383812,363188,441134,441134,3061,614,199,1362,2490,-3724,-1107,7585,-50,181,780,1259,1436,1136,1279,1341,1063,1308,1443
830278,384108,363952,441740,441740,3344,911,251,1133,2493,-3398,407,6839,-67,164,767,1259,1436,1136,1279,1341,1063,1308,1443
831279,384392,364764,442368,442368,3427,606,396,1154,2416,-1341,-3,6473,0,170,772,1259,1436,1136,1279,1341,1063,1308,1443
832280,384652,365784,442974,442974,3585,-704,584,1290,2269,-890,-3117,6009,-137,175,763,1259,1436,1136,1279,1341,1063,1308,1443
833281,384928,366740,443580,443580,3493,-313,767,1454,2064,-268,-2003,6792,-230,183,760,1259,1436,1136,1279,1341,1063,1308,1443
834282,385200,367676,444186,444186,3527,-196,911,1964,2007,1330,-4509,8263,-215,188,751,1259,1436,1136,1279,1341,1063,1308,1443
835283,385460,368648,444792,444792,3610,-430,1019,2798,1989,2928,-3120,8492,-261,173,760,1259,1436,1136,1279,1341,1063,1308,1443
836284,385716,369504,445398,445398,3644,289,1208,3720,2047,3902,-3346,8659,-253,179,762,1259,1436,1136,1279,1341,1063,1308,1443
837285,385968,370676,446004,446004,3677,-1699,1316,4577,2125,4552,-2334,8177,-179,171,750,1259,1436,1136,1279,1341,1063,1308,1443
838286,386232,371816,446610,446610,3611,-1512,1458,5398,2365,2851,-1238,10095,-129,183,748,1259,1436,1136,1279,1341,1063,1308,1443
839287,386536,372840,447216,447216,3368,-798,1505,6367,2622,4837,-1130,9462,-56,191,736,1259,1436,1136,1279,1341,1063,1308,1443
840288,386856,373568,447822,447822,3275,1049,1572,7314,2912,5342,-668,8506,-181,172,729,1259,1436,1136,1279,1341,1063,1308,1443
841289,387160,374396,448428,448428,3382,419,1556,7793,3087,4685,-2364,7106,-174,140,749,1259,1436,1136,1279,1341,1063,1308,1443
842290,387492,375280,449034,449034,3214,62,1440,7838,3071,3019,-1113,7552,-109,130,763,1259,1436,1136,1279,1341,1063,1308,1443
843291,387812,376068,449640,449640,3296,658,1331,7802,3267,2088,-102,9589,-198,141,764,1259,1436,1136,1279,1341,1063,1308,1443
844292,388132,376812,450246,450246,3303,929,1389,8150,3712,2139,651,9005,-46,141,773,1259,1436,1136,1279,1341,1063,1308,1443
845293,388528,377576,450852,450852,2833,800,1531,8624,4082,907,1015,7948,-89,120,767,1259,1436,1136,1279,1341,1063,1308,1443
846294,388940,378308,451458,451458,2738,997,1770,8718,4289,77,2452,6590,-69,137,765,1259,1436,1136,1279,1341,1063,1308,1443
847295,389336,379128,452064,452064,2843,442,1875,8558,4418,966,355,6064,30,125,781,1259,1436,1136,1279,1341,1063,1308,1443
848296,389788,379888,452670,452670,2497,813,1890,8452,4423,2268,-99,4804,59,119,787,1259,1436,1136,1279,1341,1063,1308,1443
849297,390280,380600,453276,453276,2249,1111,2043,8587,4266,3682,1775,5581,41,138,786,1259,1436,1136,1279,1341,1063,1308,1443
850298,390776,381320,453882,453882,2227,1058,2447,8896,4203,1840,736,5963,85,133,793,1259,1436,1136,1279,1341,1063,1308,1443
851299,391352,382076,454488,454488,1728,829,2784,9225,3912,3666,17,3519,80,128,794,1259,1436,1136,1279,1341,1063,1308,1443
852300,391880,382856,455094,455094,2030,675,3251,9352,3532,3511,1559,1202,87,144,798,1259,1436,1136,1279,1341,1063,1308,1443
853301,392424,383504,455700,455700,1931,1499,3583,9553,3294,1701,1354,-544,97,150,805,1259,1436,1136,1279,1341,1063,1308,1443
854302,392972,384148,456306,456306,1908,1523,3741,9495,2986,1014,124,-836,107,146,805,1259,1436,1136,1279,1341,1063,1308,1443
855303,393552,384876,456912,456912,1708,995,3701,8901,2466,1010,2092,-2059,98,131,801,1259,1436,1136,1279,1341,1063,1308,1443
856304,394184,385584,457518,457518,1383,1118,3611,8501,1981,2550,1208,-958,117,137,801,1259,1436,1136,1279,1341,1063,1308,1443
857305,394796,386180,458124,458124,1508,1818,3353,8481,1864,3651,1662,-449,118,151,805,1259,1436,1136,1279,1341,1063,1308,1443
858306,395408,386828,458752,458752,1508,1492,3044,8645,1867,4650,2412,1102,118,152,811,1259,1436,1136,1279,1341,1063,1308,1443
859307,396000,387456,459358,459358,1633,1617,2661,8518,1884,3869,2077,-285,122,144,809,1259,1436,1136,1279,1341,1063,1308,1443
860308,396596,388072,459964,459964,1609,1692,2344,8365,2123,-596,3327,412,124,157,806,1259,1436,1136,1279,1341,1063,1308,1443
861309,397228,388720,460570,460570,1383,1491,2075,8421,2029,2095,2589,537,135,151,807,1259,1436,1136,1279,1341,1063,1308,1443
862310,397908,389316,461176,461176,1081,1816,1821,8582,2189,2789,-4552,-72,147,153,804,1259,1436,1136,1279,1341,1063,1308,1443
863311,398580,389892,461782,461782,1130,1942,1781,8703,2796,660,-4738,312,146,156,809,1259,1436,1136,1279,1341,1063,1308,1443
864312,399252,390452,462388,462388,1128,2043,1929,7994,3082,-1636,-5472,-1998,144,148,810,1259,1436,1136,1279,1341,1063,1308,1443
865313,399928,391040,462994,462994,1101,1868,2256,7472,3182,-6268,-3777,2676,158,152,808,1259,1436,1136,1279,1341,1063,1308,1443
866314,400628,391624,463600,463600,949,1894,2699,6929,3055,-2662,-2055,1287,134,153,809,1259,1436,1136,1279,1341,1063,1308,1443
867315,401340,392208,464206,464206,871,1894,2907,7175,2985,5,-1952,4856,132,153,807,1259,1436,1136,1279,1341,1063,1308,1443
868316,401992,392768,464812,464812,1245,2045,3010,7344,3006,1363,-1535,1454,158,156,810,1259,1436,1136,1279,1341,1063,1308,1443
869317,402636,393356,465418,465418,1294,1871,3040,7733,2937,-471,928,5330,137,145,810,1259,1436,1136,1279,1341,1063,1308,1443
870318,403324,393896,466024,466024,1017,2172,2910,7853,2693,-2500,2633,3219,128,119,806,1259,1436,1136,1279,1341,1063,1308,1443
871319,404020,394524,466630,466630,965,1622,2553,6624,2412,-3963,4090,-2520,146,140,803,1259,1436,1136,1279,1341,1063,1308,1443
872320,404752,395068,467236,467236,737,2148,1984,5144,2126,-6353,2757,-1343,148,118,803,1259,1436,1136,1279,1341,1063,1308,1443
873321,405464,395624,467842,467842,859,2075,1458,4360,1728,-5993,4940,663,130,127,805,1259,1436,1136,1279,1341,1063,1308,1443
874322,406192,396132,468448,468448,756,2377,919,3986,1258,-3270,2347,-2375,139,105,808,1259,1436,1136,1279,1341,1063,1308,1443
875323,406928,396680,469054,469054,703,2128,488,3817,729,-2962,2897,1496,150,90,803,1259,1436,1136,1279,1341,1063,1308,1443
876324,407656,397136,469660,469660,750,2707,-51,3612,337,-4314,-1028,-4,130,56,799,1259,1436,1136,1279,1341,1063,1308,1443
877325,408428,397532,470266,470266,471,3087,-443,2754,133,-3731,1275,2416,139,63,799,1259,1436,1136,1279,1341,1063,1308,1443
878326,409280,397888,470872,470872,-35,3343,-797,2085,-19,580,-1359,2555,133,23,795,1259,1436,1136,1279,1341,1063,1308,1443
879327,410048,398220,471478,471478,486,3500,-1032,1369,-122,2581,-4613,3114,137,-33,784,1259,1436,1136,1279,1341,1063,1308,1443
880328,410776,398544,472084,472084,733,3557,-1218,871,-48,795,-3952,5869,151,-89,770,1259,1436,1136,1279,1341,1063,1308,1443
881329,411412,398804,472690,472690,1308,3800,-1269,633,11,1583,-5378,6593,152,-211,764,1259,1436,1136,1279,1341,1063,1308,1443
882330,412044,399052,473296,473296,1332,3800,-1217,613,-41,2298,-3969,8342,146,-216,755,1259,1436,1136,1279,1341,1063,1308,1443
883331,412852,399300,473902,473902,227,3800,-1219,449,42,999,-3519,8258,158,237,751,1259,1436,1136,1279,1341,1063,1308,1443
884332,413512,399572,474508,474508,1151,3800,-1357,-30,232,71,-3565,7195,144,266,754,1259,1436,1136,1279,1341,1063,1308,1443
885333,414228,399900,475136,475136,799,3573,-1621,-243,370,-64,-3866,8524,155,239,764,1259,1436,1136,1279,1341,1063,1308,1443
886334,414916,400192,475742,475742,972,3800,-1890,-486,412,-879,-2563,7718,166,247,760,1259,1436,1136,1279,1341,1063,1308,1443
887335,415656,400432,476348,476348,643,3800,-2201,-671,337,-1337,-1085,9547,153,-220,743,1259,1436,1136,1279,1341,1063,1308,1443
888336,416376,400644,476954,476954,765,3800,-2589,-1043,122,-2275,410,7715,167,233,749,1259,1436,1136,1279,1341,1063,1308,1443
889337,417160,400852,477560,477560,361,3800,-3026,-1956,-92,-4705,3195,6062,161,251,758,1259,1436,1136,1279,1341,1063,1308,1443
890338,417876,401080,478166,478166,783,3800,-3496,-2920,-333,-5388,3271,5185,146,261,760,1259,1436,1136,1279,1341,1063,1308,1443
891339,418588,401296,478772,478772,806,3800,-3850,-3778,-726,-4871,3012,5050,148,239,760,1259,1436,1136,1279,1341,1063,1308,1443
892340,419316,401520,479378,479378,703,3800,-4101,-4275,-1132,-4133,4241,6615,154,248,762,1259,1436,1136,1279,1341,1063,1308,1443
893341,420072,401720,479984,479984,524,3800,-4204,-4818,-1561,-3510,3121,5496,160,253,760,1259,1436,1136,1279,1341,1063,1308,1443
894342,420852,401936,480590,480590,370,3800,-4250,-5465,-1883,-4471,4693,5021,170,258,760,1259,1436,1136,1279,1341,1063,1308,1443
895343,421664,402112,481196,481196,165,3800,-4134,-6101,-2232,-3301,3631,2833,143,233,760,1259,1436,1136,1279,1341,1063,1308,1443
896344,422456,402344,481802,481802,285,3800,-3907,-6517,-2488,-3055,1721,1758,140,258,760,1259,1436,1136,1279,1341,1063,1308,1443
897345,423164,402568,482408,482408,808,3800,-3680,-6742,-2570,-3152,1645,4167,152,243,761,1259,1436,1136,1279,1341,1063,1308,1443
898346,424056,402828,483014,483014,-349,3800,-3365,-6696,-2541,-979,219,4054,155,251,762,1259,1436,1136,1279,1341,1063,1308,1443
899347,424828,403120,483620,483620,397,3800,-3231,-6534,-2516,477,2956,5713,164,257,760,1259,1436,1136,1279,1341,1063,1308,1443
900348,425504,403432,484226,484226,995,3800,-3001,-7172,-2472,-1573,3082,1087,160,235,760,1259,1436,1136,1279,1341,1063,1308,1443
901349,426236,403904,484832,484832,642,2812,-2763,-7448,-2391,-3377,3359,2774,140,257,760,1259,1436,1136,1279,1341,1063,1308,1443
902350,426992,404344,485438,485438,488,3016,-2654,-7431,-2143,-3951,846,1878,160,274,760,1259,1436,1136,1279,1341,1063,1308,1443
903351,427688,404732,486044,486044,861,3347,-2657,-7043,-1785,-1387,523,4708,150,14,758,1259,1436,1136,1279,1341,1063,1308,1443
904352,428476,405140,486650,486650,282,3226,-2824,-7007,-1388,433,-2032,2649,151,-12,781,1259,1436,1136,1279,1341,1063,1308,1443
905353,429252,405628,487256,487256,353,2729,-2887,-7208,-1052,-624,-1678,2297,158,-86,773,1259,1436,1136,1279,1341,1063,1308,1443
906354,429964,406196,487862,487862,750,2230,-2836,-7233,-652,-3117,1741,2952,158,-41,761,1259,1436,1136,1279,1341,1063,1308,1443
907355,430656,406744,488468,488468,873,2357,-2904,-6991,-537,-1138,3682,3974,139,28,777,1259,1436,1136,1279,1341,1063,1308,1443
908356,431440,407348,489074,489074,294,2007,-3299,-7004,-756,1829,2153,1891,156,76,791,1259,1436,1136,1279,1341,1063,1308,1443
909357,432096,407956,489680,489680,1092,1982,-3659,-7095,-733,-2367,1688,5007,143,70,798,1259,1436,1136,1279,1341,1063,1308,1443
910358,432804,408816,490286,490286,765,401,-3890,-7581,-726,-1380,238,525,161,100,795,1259,1436,1136,1279,1341,1063,1308,1443
911359,433536,409760,490892,490892,612,-133,-3804,-8056,-1058,1206,-362,1236,145,96,809,1259,1436,1136,1279,1341,1063,1308,1443
912360,434372,410544,491520,491520,-43,863,-3422,-8516,-1333,919,-596,-410,157,124,804,1259,1436,1136,1279,1341,1063,1308,1443
913361,435112,411304,492126,492126,553,1010,-2893,-8962,-1605,177,-461,-702,171,124,826,1259,1436,1136,1279,1341,1063,1308,1443
914362,435876,411972,492732,492732,400,1583,-2472,-8783,-1874,-481,47,1982,150,114,829,1259,1436,1136,1279,1341,1063,1308,1443
915363,436616,412716,493338,493338,546,1105,-2199,-8258,-2000,1010,-50,1010,143,113,827,1259,1436,1136,1279,1341,1063,1308,1443
916364,437348,413408,493944,493944,593,1428,-2065,-7760,-1916,2085,910,-736,168,104,823,1259,1436,1136,1279,1341,1063,1308,1443
917365,438172,414052,494550,494550,13,1727,-1985,-7792,-1727,474,-991,-3118,137,116,816,1259,1436,1136,1279,1341,1063,1308,1443
918366,438912,414736,495156,495156,535,1475,-2030,-7954,-1763,-2374,94,-2667,152,124,822,1259,1436,1136,1279,1341,1063,1308,1443
919367,439640,415356,495762,495762,607,1875,-2127,-7966,-1816,-4376,2033,-1516,152,122,816,1259,1436,1136,1279,1341,1063,1308,1443
920368,440388,416084,496368,496368,478,1197,-2238,-7717,-1660,-1740,2087,-2537,152,125,816,1259,1436,1136,1279,1341,1063,1308,1443
921369,441140,416692,496974,496974,450,1947,-2338,-7928,-1381,463,1868,-3863,151,119,817,1259,1436,1136,1279,1341,1063,1308,1443
922370,441796,417340,497580,497580,1048,1695,-2617,-8103,-964,-1029,-41,-2352,156,123,809,1259,1436,1136,1279,1341,1063,1308,1443
923371,442516,417980,498186,498186,646,1745,-2900,-8286,-557,668,-1251,-800,149,119,820,1259,1436,1136,1279,1341,1063,1308,1443
924372,443180,418540,498792,498792,994,2246,-3216,-7603,-425,5968,-2021,1534,141,125,811,1259,1436,1136,1279,1341,1063,1308,1443
925373,443804,419200,499398,499398,1244,1619,-2974,-6599,-353,4657,-2707,2772,134,121,811,1259,1436,1136,1279,1341,1063,1308,1443
926374,444368,419808,500004,500004,1620,1944,-2532,-5381,-207,464,-3538,6525,133,109,812,1259,1436,1136,1279,1341,1063,1308,1443
927375,444864,420356,500610,500610,2047,2321,-2076,-5416,-534,4473,-4229,2043,109,135,802,1259,1436,1136,1279,1341,1063,1308,1443
928376,445336,420984,501216,501216,2201,1820,-1780,-5547,-704,3896,-3059,6244,115,135,808,1259,1436,1136,1279,1341,1063,1308,1443
929377,445736,421588,501822,501822,2656,1970,-1325,-5170,-747,2724,-4231,8066,83,129,797,1259,1436,1136,1279,1341,1063,1308,1443
930378,446064,422268,502428,502428,3113,1494,-912,-4014,-1072,3455,-4095,9185,78,143,785,1259,1436,1136,1279,1341,1063,1308,1443
931379,446320,422848,503034,503034,3571,2119,-546,-2918,-1283,3162,-5003,11091,41,143,787,1259,1436,1136,1279,1341,1063,1308,1443
932380,446600,423436,503640,503640,3429,2070,-332,-1952,-1188,3342,-4551,9668,-28,143,773,1259,1436,1136,1279,1341,1063,1308,1443
933381,446840,424028,504246,504246,3688,2045,-240,-1583,-1153,1224,-708,8189,-219,148,766,1259,1436,1136,1279,1341,1063,1308,1443
934382,447060,424664,504852,504852,3800,1769,-201,-1402,-1231,-2377,-433,8232,-248,155,743,1259,1436,1136,1279,1341,1063,1308,1443
935383,447288,425368,505458,505458,3782,1342,-284,-1134,-1370,-2767,909,7825,-49,159,747,1259,1436,1136,1279,1341,1063,1308,1443
936384,447460,426024,506064,506064,3800,1641,-369,-821,-1363,-1916,1919,8788,266,158,738,1259,1436,1136,1279,1341,1063,1308,1443
937385,447596,426748,506670,506670,3800,1213,-456,-280,-1161,-2255,1462,8970,208,175,752,1259,1436,1136,1279,1341,1063,1308,1443
938386,447740,427560,507276,507276,3800,658,-432,-28,-818,-4043,100,8357,244,179,754,1259,1436,1136,1279,1341,1063,1308,1443
939387,447868,428384,507904,507904,3800,578,-257,157,-535,-4849,-211,8317,243,183,757,1259,1436,1136,1279,1341,1063,1308,1443
940388,447980,429268,508510,508510,3800,196,136,202,-350,-4577,-363,7789,255,189,756,1259,1436,1136,1279,1341,1063,1308,1443
941389,448084,430068,509116,509116,3800,716,683,437,-195,-2176,-443,8066,270,169,760,1259,1436,1136,1279,1341,1063,1308,1443
942390,448176,430888,509722,509722,3800,586,1237,1008,-2,1115,-1862,9252,243,191,762,1259,1436,1136,1279,1341,1063,1308,1443
943391,448264,431728,510328,510328,3800,455,1769,1922,183,2984,-1569,9746,252,171,768,1259,1436,1136,1279,1341,1063,1308,1443
944392,448364,432716,510934,510934,3800,-479,2271,3016,275,3671,-1360,10169,266,185,760,1259,1436,1136,1279,1341,1063,1308,1443
945393,448500,433744,511540,511540,3800,-739,2733,4114,285,3948,-2273,10311,244,167,762,1259,1436,1136,1279,1341,1063,1308,1443
946394,448656,434704,512146,512146,3800,-323,3148,4922,271,4669,-2328,9461,252,174,762,1259,1436,1136,1279,1341,1063,1308,1443
947395,448804,435736,512752,512752,3800,-783,3412,5784,349,5356,-549,9801,240,183,760,1259,1436,1136,1279,1341,1063,1308,1443
948396,448992,436832,513358,513358,3800,-1195,3575,6304,736,3825,-639,9832,240,170,756,1259,1436,1136,1279,1341,1063,1308,1443
949397,449224,437788,513964,513964,3800,-329,3449,6937,1093,3589,-956,9743,240,169,760,1259,1436,1136,1279,1341,1063,1308,1443
950398,449472,438668,514570,514570,3800,140,3352,7390,1277,3317,-1924,7336,246,171,754,1259,1436,1136,1279,1341,1063,1308,1443
951399,449768,439644,515176,515176,3533,-469,3224,7541,1205,3673,-2724,5527,244,155,746,1259,1436,1136,1279,1341,1063,1308,1443
952400,450108,440504,515782,515782,3265,249,3023,7342,1094,3411,-2368,6483,262,142,760,1259,1436,1136,1279,1341,1063,1308,1443
953401,450432,441312,516388,516388,3372,569,2801,7415,1146,3157,-913,9033,-223,131,764,1259,1436,1136,1279,1341,1063,1308,1443
954402,450736,442084,516994,516994,3504,790,2713,7557,1390,874,-2227,8175,-85,139,759,1259,1436,1136,1279,1341,1063,1308,1443
955403,451096,442864,517600,517600,3160,736,2825,7677,1615,181,-2306,8375,-170,138,773,1259,1436,1136,1279,1341,1063,1308,1443
956404,451464,443720,518206,518206,3116,255,3191,7745,1749,1053,-2127,6612,-227,126,759,1259,1436,1136,1279,1341,1063,1308,1443
957405,451840,444484,518812,518812,3072,826,3634,7873,1855,2493,-3399,5459,-5,130,758,1259,1436,1136,1279,1341,1063,1308,1443
958406,452300,445280,519418,519418,2550,622,3976,7814,2015,2258,-2640,3837,0,131,774,1259,1436,1136,1279,1341,1063,1308,1443
959407,452752,445984,520024,520024,2604,1194,4200,7963,2016,2536,-261,4937,21,128,780,1259,1436,1136,1279,1341,1063,1308,1443
960408,453204,446772,520630,520630,2608,665,4373,8333,1827,3046,1780,3739,61,139,781,1259,1436,1136,1279,1341,1063,1308,1443
961409,453680,447476,521236,521236,2461,1187,4598,8680,1705,4206,-621,1072,79,133,794,1259,1436,1136,1279,1341,1063,1308,1443
962410,454156,448196,521842,521842,2464,1084,5031,8468,1721,3248,1739,-671,69,142,785,1259,1436,1136,1279,1341,1063,1308,1443
963411,454712,448884,522448,522448,1965,1282,5185,8317,1489,4337,3347,56,87,142,792,1259,1436,1136,1279,1341,1063,1308,1443
964412,455248,449540,523054,523054,2092,1481,5118,7929,1240,4069,1590,-1606,98,146,793,1259,1436,1136,1279,1341,1063,1308,1443
965413,455784,450248,523660,523660,2094,1154,4867,7453,1127,4273,2405,-1990,103,151,794,1259,1436,1136,1279,1341,1063,1308,1443
966414,456340,450972,524288,524288,1970,1051,4650,6948,1049,4323,3259,-2414,101,147,800,1259,1436,1136,1279,1341,1063,1308,1443
