%  Data file recorded 2016/4/18  12:34:30
%  Stride Frequency         = [9, 9]
%  Lead In /Lead Out        = 
%  Deltas (Fractional)      = [0.25, 0.25, 0.25],[0.25, 0.25, 0.25]
%  Phase                    = 32768
%  Experiment.py 
%  Motor Gains    = [100, 0, 100, 0, 0, 100, 0, 100, 0, 0]
% Columns: 
% time | Right Leg Pos | Left Leg Pos | Commanded Right Leg Pos | Commanded Left Leg Pos | DCR | DCL | GyroX | GyroY | GyroZ | AX | AY | AZ | RBEMF | LBEMF | VBatt | S1 | S2 | S3 | S4 | S5 | S6 | S7 | S8
607,33116,-43544,3030,3030,-685,1087,-42,268,-196,630,-163,3868,6,6,899,1254,1416,1135,1280,1347,1066,1305,1439
1608,33112,-43540,3030,3030,-710,1111,-41,269,-197,641,-167,3874,3,-4,899,1254,1416,1135,1280,1347,1066,1305,1439
2609,33120,-43540,3030,3030,-785,1136,-42,269,-197,639,-159,3900,-3,0,899,1254,1416,1135,1280,1347,1066,1305,1439
3610,33116,-43540,3030,3030,-710,1136,-45,268,-198,659,-179,3894,-4,6,899,1254,1416,1135,1280,1347,1066,1305,1439
4611,33116,-43516,3030,3030,-735,986,-45,268,-198,629,-173,3903,-6,-7,899,1254,1416,1135,1280,1347,1066,1305,1439
5612,33112,-43536,3030,3030,-710,1261,-44,269,-196,610,-162,3908,-8,-1,899,1254,1416,1135,1280,1347,1066,1305,1439
6613,33100,-43524,3030,3030,-660,1061,-42,269,-197,662,-178,3905,-8,7,899,1254,1416,1135,1280,1347,1066,1305,1439
7614,33116,-43544,3030,3030,-835,1262,-43,268,-198,659,-177,3878,-8,-7,899,1254,1416,1135,1280,1347,1066,1305,1439
8615,33116,-43552,3030,3030,-735,1187,-44,268,-200,644,-190,3866,3,0,899,1254,1416,1135,1280,1347,1066,1305,1439
9616,33120,-43544,3030,3030,-760,1087,-45,269,-200,634,-180,3883,5,7,899,1254,1416,1135,1280,1347,1066,1305,1439
10617,33128,-43540,3030,3030,-785,1111,-45,267,-200,643,-147,3879,8,-7,899,1254,1416,1135,1280,1347,1066,1305,1439
11618,33120,-43544,3030,3030,-685,1162,-43,266,-198,658,-151,3903,4,2,899,1254,1416,1135,1280,1347,1066,1305,1439
12619,33112,-43548,3030,3030,-685,1162,-42,263,-197,633,-169,3911,-2,7,899,1254,1416,1135,1280,1347,1066,1305,1439
13620,33112,-43520,3030,3030,-735,961,-43,265,-199,634,-144,3902,-8,-4,899,1254,1416,1135,1280,1347,1066,1305,1439
14621,33112,-43544,3030,3030,-735,1287,-45,265,-201,640,-155,3882,1,-4,899,1254,1416,1135,1280,1347,1066,1305,1439
15622,33112,-43536,3030,3030,-735,1086,-45,265,-198,629,-197,3846,6,7,899,1254,1416,1135,1280,1347,1066,1305,1439
16623,33116,-43532,3030,3030,-760,1111,-45,266,-199,636,-192,3884,7,-5,899,1254,1416,1135,1280,1347,1066,1305,1439
17624,33116,-43544,3030,3030,-735,1212,-44,265,-197,651,-178,3884,-6,-2,899,1254,1416,1135,1280,1347,1066,1305,1439
18625,33104,-43536,3030,3030,-660,1086,-44,264,-197,626,-163,3879,-8,7,899,1254,1416,1135,1280,1347,1066,1305,1439
19626,33116,-43552,3030,3030,-810,1237,-45,265,-198,631,-155,3881,-8,-8,895,1254,1416,1135,1280,1347,1066,1305,1439
20627,33112,-43556,3030,3030,-710,1162,-46,265,-201,643,-180,3857,-2,7,898,1254,1416,1135,1280,1347,1066,1305,1439
21628,33116,-43552,3030,3030,-760,1112,-46,263,-200,635,-157,3880,4,0,899,1254,1416,1135,1280,1347,1066,1305,1439
22629,33124,-43532,3030,3030,-785,1011,-45,262,-199,621,-176,3879,7,-7,899,1254,1416,1135,1280,1347,1066,1305,1439
23630,33116,-43532,3030,3030,-685,1136,-43,267,-200,606,-165,3862,5,6,899,1254,1416,1135,1280,1347,1066,1305,1439
24631,33120,-43528,3030,3030,-760,1111,-44,269,-201,619,-151,3840,3,0,899,1254,1416,1135,1280,1347,1066,1305,1439
25632,33120,-43528,3030,3030,-735,1136,-47,268,-201,621,-148,3881,-2,-5,899,1254,1416,1135,1280,1347,1066,1305,1439
26633,33104,-43560,3030,3030,-635,1337,-45,266,-202,635,-177,3873,-8,6,899,1254,1416,1135,1280,1347,1066,1305,1439
27634,33116,-43552,3030,3030,-810,1087,-43,264,-200,616,-169,3834,-8,-3,899,1254,1416,1135,1280,1347,1066,1305,1439
28635,33116,-43548,3030,3030,-735,1112,-39,264,-200,619,-137,3876,-6,-3,899,1254,1416,1135,1280,1347,1066,1305,1439
29636,33120,-43536,3030,3030,-760,1061,-44,265,-197,632,-146,3879,4,6,899,1254,1416,1135,1280,1347,1066,1305,1439
30637,33120,-43540,3030,3030,-735,1161,-48,265,-199,637,-169,3882,8,-4,899,1254,1416,1135,1280,1347,1066,1305,1439
31638,33112,-43536,3030,3030,-685,1111,-43,267,-201,646,-179,3880,6,-5,899,1254,1416,1135,1280,1347,1066,1305,1439
32639,33112,-43536,3030,3030,-735,1136,-41,267,-200,669,-168,3836,-8,6,899,1254,1416,1135,1280,1347,1066,1305,1439
33640,33124,-43540,3030,3030,-810,1161,-42,265,-201,659,-163,3831,-5,-3,899,1254,1416,1135,1280,1347,1066,1305,1439
34641,33100,-43532,3030,3030,-585,1086,-41,266,-203,654,-168,3845,2,-1,899,1254,1416,1135,1280,1347,1066,1305,1439
35642,33120,-43556,3030,3030,-860,1287,-41,268,-201,639,-168,3886,8,7,899,1254,1416,1135,1280,1347,1066,1305,1439
36643,33120,-43536,3030,3030,-735,1011,-43,268,-200,633,-181,3866,7,-5,896,1254,1416,1135,1280,1347,1066,1305,1439
37644,33120,-43532,3030,3030,-735,1111,-45,268,-200,630,-175,3814,5,0,898,1254,1416,1135,1280,1347,1066,1305,1439
38645,33112,-43536,3030,3030,-685,1161,-44,266,-201,628,-180,3864,-8,7,899,1254,1416,1135,1280,1347,1066,1305,1439
39646,33112,-43536,3030,3030,-735,1136,-42,266,-198,645,-184,3880,-4,6,899,1254,1416,1135,1280,1347,1066,1305,1439
40647,33116,-43536,3030,3030,-760,1136,-44,265,-200,645,-183,3863,6,-6,899,1254,1416,1135,1280,1347,1066,1305,1439
41648,33120,-43544,3030,3030,-760,1187,-41,265,-202,645,-182,3863,-1,-2,899,1254,1416,1135,1280,1347,1066,1305,1439
42649,33116,-43548,3030,3030,-710,1162,-42,265,-201,640,-184,3868,-7,5,899,1254,1416,1135,1280,1347,1066,1305,1439
43650,33116,-43532,3030,3030,-735,1036,-42,267,-201,642,-183,3878,-8,6,899,1254,1416,1135,1280,1347,1066,1305,1439
44651,33112,-43536,3030,3030,-710,1161,-42,269,-199,630,-179,3882,6,-3,899,1254,1416,1135,1280,1347,1066,1305,1439
45652,33112,-43532,3030,3030,-735,1111,-43,269,-200,647,-172,3877,6,-6,899,1254,1416,1135,1280,1347,1066,1305,1439
46653,33100,-43532,3030,3030,-660,1136,-46,270,-201,619,-185,3851,-1,-7,899,1254,1416,1135,1280,1347,1066,1305,1439
47654,33108,-43540,3030,3030,-785,1186,-46,269,-199,628,-177,3871,-8,2,899,1254,1416,1135,1280,1347,1066,1305,1439
48655,33120,-43548,3030,3030,-810,1187,-43,268,-197,637,-177,3871,-5,6,899,1254,1416,1135,1280,1347,1066,1305,1439
49656,33120,-43532,3030,3030,-735,1036,-42,268,-196,637,-175,3850,0,4,899,1254,1416,1135,1280,1347,1066,1305,1439
50657,33116,-43544,3030,3030,-710,1212,-44,268,-197,638,-164,3841,7,-6,899,1254,1416,1135,1280,1347,1066,1305,1439
51658,33124,-43540,3030,3030,-785,1111,-43,268,-198,663,-172,3837,8,-8,899,1254,1416,1135,1280,1347,1066,1305,1439
52659,33116,-43544,3030,3030,-685,1162,-43,267,-200,665,-165,3854,8,-2,899,1254,1416,1135,1280,1347,1066,1305,1439
53660,33108,-43540,3030,3030,-685,1111,-45,269,-202,649,-199,3855,6,5,896,1254,1416,1135,1280,1347,1066,1305,1439
54661,33116,-43536,3030,3030,-785,1111,-46,270,-199,655,-197,3839,7,-4,897,1254,1416,1135,1280,1347,1066,1305,1439
55662,33120,-43532,3030,3030,-760,1111,-44,270,-198,649,-179,3878,4,-6,899,1254,1416,1135,1280,1347,1066,1305,1439
56663,33120,-43544,3030,3030,-735,1212,-42,268,-198,658,-161,3849,-6,6,899,1254,1416,1135,1280,1347,1066,1305,1439
57664,33112,-43548,3030,3030,-685,1162,-43,268,-200,648,-174,3839,-8,4,899,1254,1416,1135,1280,1347,1066,1305,1439
58665,33124,-43540,3030,3030,-810,1086,-45,266,-199,636,-177,3893,-3,-8,899,1254,1416,1135,1280,1347,1066,1305,1439
59666,33112,-43536,3030,3030,-660,1111,-46,266,-198,636,-173,3908,8,3,899,1254,1416,1135,1280,1347,1066,1305,1439
60667,33108,-43540,3030,3030,-710,1161,-45,265,-198,640,-169,3876,6,7,899,1254,1416,1135,1280,1347,1066,1305,1439
61668,33108,-43544,3030,3030,-735,1162,-47,268,-198,636,-180,3851,2,-8,899,1254,1416,1135,1280,1347,1066,1305,1439
62669,33120,-43548,3030,3030,-810,1162,-43,267,-199,655,-159,3847,-7,0,899,1254,1416,1135,1280,1347,1066,1305,1439
63670,33108,-43544,3030,3030,-660,1112,-40,267,-201,653,-178,3866,-8,6,899,1254,1416,1135,1280,1347,1066,1305,1439
64671,33116,-43540,3030,3030,-785,1111,-42,270,-200,616,-171,3895,-7,-2,899,1254,1416,1135,1280,1347,1066,1305,1439
65672,33116,-43528,3030,3030,-735,1061,-45,271,-199,609,-180,3855,4,-4,899,1254,1416,1135,1280,1347,1066,1305,1439
66673,33120,-43540,3030,3030,-760,1211,-44,270,-199,609,-188,3867,6,3,899,1254,1416,1135,1280,1347,1066,1305,1439
67674,33116,-43544,3030,3030,-710,1162,-43,269,-199,640,-165,3873,8,2,899,1254,1416,1135,1280,1347,1066,1305,1439
68675,33112,-43544,3030,3030,-710,1137,-44,269,-200,640,-167,3868,1,-8,899,1254,1416,1135,1280,1347,1066,1305,1439
69676,33108,-43552,3030,3030,-710,1187,-43,266,-197,631,-163,3870,-2,-2,899,1254,1416,1135,1280,1347,1066,1305,1439
70677,33112,-43548,3030,3030,-760,1112,-42,266,-196,633,-165,3859,-5,5,895,1254,1416,1135,1280,1347,1066,1305,1439
71678,33120,-43536,3030,3030,-785,1061,-43,266,-198,674,-179,3889,-8,-8,897,1254,1416,1135,1280,1347,1066,1305,1439
72679,33116,-43556,3030,3030,-710,1262,-41,268,-197,626,-161,3884,-7,-4,899,1254,1416,1135,1280,1347,1066,1305,1439
73680,33108,-43524,3030,3030,-685,936,-42,267,-198,628,-165,3863,-1,7,899,1254,1416,1135,1280,1347,1066,1305,1439
74681,33116,-43536,3030,3030,-785,1211,-45,266,-200,641,-169,3890,8,-4,899,1254,1416,1135,1280,1347,1066,1305,1439
75682,33112,-43540,3030,3030,-710,1161,-42,265,-200,641,-181,3862,1,-7,899,1254,1416,1135,1280,1347,1066,1305,1439
76683,33112,-43544,3030,3030,-735,1162,-40,265,-200,648,-168,3865,-4,-4,899,1254,1416,1135,1280,1347,1066,1305,1439
77684,33112,-43540,3030,3030,-735,1111,-42,266,-200,621,-196,3867,-8,5,899,1254,1416,1135,1280,1347,1066,1305,1439
78685,33116,-43544,3030,3030,-760,1162,-44,267,-200,634,-191,3876,-4,7,899,1254,1416,1135,1280,1347,1066,1305,1439
79686,33120,-43552,3030,3030,-760,1187,-45,267,-201,639,-156,3863,3,2,899,1254,1416,1135,1280,1347,1066,1305,1439
80687,33128,-43536,3030,3030,-785,1036,-44,267,-201,636,-180,3879,5,-8,899,1254,1416,1135,1280,1347,1066,1305,1439
81688,33112,-43536,3030,3030,-635,1136,-44,266,-201,631,-160,3906,-4,-6,899,1254,1416,1135,1280,1347,1066,1305,1439
82689,33120,-43532,3030,3030,-785,1111,-44,268,-198,611,-184,3836,-8,6,899,1254,1416,1135,1280,1347,1066,1305,1439
83690,33124,-43540,3030,3030,-760,1186,-44,267,-199,626,-188,3857,4,2,899,1254,1416,1135,1280,1347,1066,1305,1439
84691,33120,-43520,3030,3030,-710,1011,-45,267,-198,636,-193,3857,8,-4,899,1254,1416,1135,1280,1347,1066,1305,1439
85692,33116,-43540,3030,3030,-710,1261,-43,268,-197,639,-171,3857,2,-6,899,1254,1416,1135,1280,1347,1066,1305,1439
86693,33112,-43544,3030,3030,-710,1162,-43,266,-200,624,-166,3877,-8,7,899,1254,1416,1135,1280,1347,1066,1305,1439
87694,33120,-43548,3030,3030,-785,1162,-45,265,-201,603,-167,3887,-3,-5,896,1254,1416,1135,1280,1347,1066,1305,1439
88695,33112,-43548,3030,3030,-685,1137,-46,265,-201,640,-161,3885,5,3,896,1254,1416,1135,1280,1347,1066,1305,1439
89696,33116,-43544,3030,3030,-760,1112,-46,267,-201,636,-160,3882,2,-1,899,1254,1416,1135,1280,1347,1066,1305,1439
90697,33120,-43532,3030,3030,-760,1061,-45,267,-200,654,-167,3878,-5,-8,899,1254,1416,1135,1280,1347,1066,1305,1439
91698,33108,-43544,3030,3030,-660,1212,-44,266,-202,639,-214,3885,-8,3,899,1254,1416,1135,1280,1347,1066,1305,1439
92699,33112,-43544,3030,3030,-760,1137,-42,266,-202,631,-207,3894,-3,4,899,1254,1416,1135,1280,1347,1066,1305,1439
93700,33116,-43536,3030,3030,-760,1086,-43,267,-201,646,-157,3873,6,-3,899,1254,1416,1135,1280,1347,1066,1305,1439
94701,33116,-43536,3030,3030,-735,1136,-43,267,-202,634,-163,3879,7,-6,899,1254,1416,1135,1280,1347,1066,1305,1439
95702,33108,-43552,3030,3030,-685,1237,-45,265,-203,636,-176,3873,0,6,899,1254,1416,1135,1280,1347,1066,1305,1439
96703,33116,-43536,3030,3030,-785,1036,-45,269,-200,626,-192,3853,-5,6,899,1254,1416,1135,1280,1347,1066,1305,1439
97704,33120,-43548,3030,3030,-760,1212,-44,267,-198,624,-175,3831,-8,-8,899,1254,1416,1135,1280,1347,1066,1305,1439
98705,33120,-43548,0,0,-735,1137,-43,263,-197,623,-172,3870,0,3,899,1254,1416,1135,1280,1347,1066,1305,1439
99706,33108,-43544,606,606,-88,1683,-45,265,-199,643,-168,3858,8,6,899,1254,1416,1135,1280,1347,1066,1305,1439
100707,33108,-43524,1212,1212,-148,1598,-46,266,-202,650,-157,3858,8,-15,899,1254,1416,1135,1280,1347,1066,1305,1439
101708,33112,-43432,1818,1818,-159,1160,-47,272,-208,665,-248,3832,8,-6,869,1254,1416,1135,1280,1347,1066,1305,1439
102709,33100,-43312,2424,2424,-43,997,-49,297,-218,779,-375,3740,8,7,872,1254,1416,1135,1280,1347,1066,1305,1439
103710,33112,-43144,3030,3030,-179,708,-31,289,-214,690,-110,3656,7,15,881,1254,1416,1135,1280,1347,1066,1305,1439
104711,33120,-42976,3636,3636,-139,718,-16,281,-201,685,-212,3741,4,33,881,1254,1416,1135,1280,1347,1066,1305,1439
105712,33116,-42796,4242,4242,-49,654,-31,325,-213,813,-118,3912,8,33,886,1254,1416,1135,1280,1347,1066,1305,1439
106713,33104,-42600,4848,4848,16,564,-41,331,-224,649,-222,3889,9,22,889,1254,1416,1135,1280,1347,1066,1305,1439
107714,33112,-42428,5454,5454,-95,724,-67,313,-243,693,-256,3705,7,29,891,1254,1416,1135,1280,1347,1066,1305,1439
108715,33116,-42208,6060,6060,-55,434,-61,291,-241,683,-266,3903,9,27,893,1254,1416,1135,1280,1347,1066,1305,1439
109716,33120,-42016,6666,6666,-40,619,-78,313,-257,809,-289,3840,-6,30,889,1254,1416,1135,1280,1347,1066,1305,1439
110717,33100,-41848,7272,7272,125,780,-80,329,-270,622,-324,3852,-5,20,894,1254,1416,1135,1280,1347,1066,1305,1439
111718,33116,-41636,7878,7878,-86,514,-80,293,-274,600,-173,3836,-4,17,892,1254,1416,1135,1280,1347,1066,1305,1439
112719,33104,-41468,8484,8484,104,800,-87,289,-270,841,-364,4067,10,23,888,1254,1416,1135,1280,1347,1066,1305,1439
113720,33116,-41296,9090,9090,-31,786,-82,272,-269,796,-240,3759,9,32,893,1254,1416,1135,1280,1347,1066,1305,1439
114721,33100,-41124,9696,9696,159,796,-88,304,-295,760,-254,4006,-7,23,887,1254,1416,1135,1280,1347,1066,1305,1439
115722,33112,-40944,10302,10302,-1,757,-69,315,-306,725,-434,3775,-3,31,890,1254,1416,1135,1280,1347,1066,1305,1439
116723,33112,-40772,10908,10908,88,817,-71,312,-313,745,-208,3800,9,23,888,1254,1416,1135,1280,1347,1066,1305,1439
117724,33100,-40572,11514,11514,178,652,-73,263,-316,508,-285,4033,8,34,890,1254,1416,1135,1280,1347,1066,1305,1439
118725,33112,-40428,12120,12120,43,1013,-113,314,-339,656,-328,3823,-4,22,888,1254,1416,1135,1280,1347,1066,1305,1439
119726,33120,-40256,12726,12726,83,849,-81,269,-335,680,-209,3965,-3,28,889,1254,1416,1135,1280,1347,1066,1305,1439
120727,33100,-40088,13332,13332,273,885,-80,272,-336,722,-137,3921,5,20,885,1254,1416,1135,1280,1347,1066,1305,1439
121728,33104,-39920,13938,13938,138,895,-88,293,-357,802,-328,4174,-5,22,884,1254,1416,1135,1280,1347,1066,1305,1439
122729,33108,-39744,14544,14544,152,856,-85,282,-375,667,-179,3897,-6,18,882,1254,1416,1135,1280,1347,1066,1305,1439
123730,33116,-39588,15150,15150,142,992,-84,273,-384,712,-360,3837,-4,20,886,1254,1416,1135,1280,1347,1066,1305,1439
124731,33108,-39384,15756,15756,257,702,-75,235,-390,577,-336,4061,-6,17,887,1254,1416,1135,1280,1347,1066,1305,1439
125732,33108,-39228,16384,16384,3378,3800,-106,241,-407,345,-184,4061,9,32,882,1254,1416,1135,1280,1347,1066,1305,1439
126733,33116,-39012,16990,16990,3343,3800,-70,157,-401,828,-55,4132,-303,270,889,1254,1416,1135,1280,1347,1066,1305,1439
127734,33136,-38780,17596,17596,3282,3713,-82,191,-405,962,-311,4082,-227,285,752,1254,1416,1135,1280,1347,1066,1305,1439
128735,33416,-38384,18202,18202,1665,2693,-68,327,-435,513,-790,4395,-94,29,753,1254,1416,1135,1280,1347,1066,1305,1439
129736,33784,-37944,18808,18808,1121,2422,-66,553,-488,1188,-1628,4354,74,41,759,1254,1416,1135,1280,1347,1066,1305,1439
130737,34184,-37460,19414,19414,926,2150,-77,603,-500,1751,-861,4320,79,72,827,1254,1416,1135,1280,1347,1066,1305,1439
131738,34568,-36928,20020,20020,1031,1852,-66,559,-512,2224,-249,4995,71,71,846,1254,1416,1135,1280,1347,1066,1305,1439
132739,34944,-36412,20626,20626,1087,1954,-252,597,-554,993,-678,4678,80,84,858,1254,1416,1135,1280,1347,1066,1305,1439
133740,35352,-35952,21232,21232,892,2308,-242,415,-562,368,401,4899,86,80,864,1254,1416,1135,1280,1347,1066,1305,1439
134741,35792,-35480,21838,21838,696,2236,-309,486,-544,325,-437,4427,76,64,858,1254,1416,1135,1280,1347,1066,1305,1439
135742,36184,-35016,22444,22444,1001,2289,-240,363,-424,-651,-185,5077,80,73,853,1254,1416,1135,1280,1347,1066,1305,1439
136743,36552,-34536,23050,23050,1157,2192,-205,187,-338,-1410,-1229,4474,88,81,856,1254,1416,1135,1280,1347,1066,1305,1439
137744,36948,-34140,23656,23656,987,2723,-172,-188,-278,-2622,-804,4782,93,70,852,1254,1416,1135,1280,1347,1066,1305,1439
138745,37336,-33732,24262,24262,1042,2652,-13,-447,-209,-1284,-416,5623,97,35,849,1254,1416,1135,1280,1347,1066,1305,1439
139746,37732,-33340,24868,24868,997,2758,113,-593,-99,175,-988,5684,85,51,839,1254,1416,1135,1280,1347,1066,1305,1439
140747,38136,-32892,25474,25474,952,2411,213,-559,-41,546,-1510,6386,89,49,843,1254,1416,1135,1280,1347,1066,1305,1439
141748,38516,-32516,26080,26080,1108,2867,384,-534,124,-1241,-336,6786,79,69,841,1254,1416,1135,1280,1347,1066,1305,1439
142749,38932,-32148,26686,26686,888,2923,471,-462,112,1681,854,5607,85,36,850,1254,1416,1135,1280,1347,1066,1305,1439
143750,39296,-31728,27292,27292,1218,2602,507,-490,55,3120,-713,5500,79,37,838,1254,1416,1135,1280,1347,1066,1305,1439
144751,39680,-31308,27898,27898,1099,2607,436,-386,129,1414,1007,6552,88,65,838,1254,1416,1135,1280,1347,1066,1305,1439
145752,40044,-30840,28504,28504,1230,2310,363,-214,34,2755,674,6061,87,60,843,1254,1416,1135,1280,1347,1066,1305,1439
146753,40424,-30416,29110,29110,1135,2590,503,-409,121,1760,-48,5916,83,78,844,1254,1416,1135,1280,1347,1066,1305,1439
147754,40792,-29996,29716,29716,1216,2619,522,-471,325,135,340,7061,89,77,848,1254,1416,1135,1280,1347,1066,1305,1439
148755,41176,-29528,30322,30322,1122,2323,504,-522,368,405,1052,6176,71,60,847,1254,1416,1135,1280,1347,1066,1305,1439
149756,41532,-29128,30928,30928,1303,2753,515,-459,356,797,775,6226,82,91,845,1254,1416,1135,1280,1347,1066,1305,1439
150757,41892,-28588,31534,31534,1284,1879,566,-314,553,536,336,6250,76,52,850,1254,1416,1135,1280,1347,1066,1305,1439
151758,42244,-28156,32140,32140,1340,2559,727,-409,709,917,338,5841,62,94,838,1254,1416,1135,1280,1347,1066,1305,1439
152759,42584,-27668,32768,32768,1422,2212,851,-607,840,-979,1606,6261,71,68,857,1254,1416,1135,1280,1347,1066,1305,1439
153760,42940,-27184,33374,33374,1328,2240,1012,-792,924,-762,102,7007,64,82,842,1254,1416,1135,1280,1347,1066,1305,1439
154761,43264,-26684,33980,33980,1535,2143,1146,-975,995,-721,502,5073,78,81,847,1254,1416,1135,1280,1347,1066,1305,1439
155762,43572,-26200,34586,34586,1642,2246,1339,-1051,1120,-676,1571,7388,65,92,845,1254,1416,1135,1280,1347,1066,1305,1439
156763,43872,-25720,35192,35192,1700,2274,1488,-999,1189,808,990,5316,64,73,845,1254,1416,1135,1280,1347,1066,1305,1439
157764,44184,-25232,35798,35798,1632,2226,1690,-912,1294,375,1093,6532,52,78,841,1254,1416,1135,1280,1347,1066,1305,1439
158765,44528,-24780,36404,36404,1438,2455,1886,-877,1358,335,1809,6427,52,64,839,1254,1416,1135,1280,1347,1066,1305,1439
159766,44836,-24236,37010,37010,1670,1882,2074,-813,1379,-318,1120,7007,55,71,841,1254,1416,1135,1280,1347,1066,1305,1439
160767,45116,-23748,37616,37616,1853,2235,2234,-675,1431,-139,2421,7060,63,92,838,1254,1416,1135,1280,1347,1066,1305,1439
161768,45392,-23256,38222,38222,1886,2212,2384,-500,1513,946,82,6023,61,61,848,1254,1416,1135,1280,1347,1066,1305,1439
162769,45676,-22736,38828,38828,1844,2040,2522,-424,1655,-146,3820,6042,44,60,836,1254,1416,1135,1280,1347,1066,1305,1439
163770,45944,-22212,39434,39434,1953,2017,2620,-264,1734,422,542,6527,49,84,836,1254,1416,1135,1280,1347,1066,1305,1439
164771,46232,-21640,40040,40040,1835,1717,2653,-101,1719,-406,3549,5785,40,73,841,1254,1416,1135,1280,1347,1066,1305,1439
165772,46484,-21180,40646,40646,2069,2421,2742,-29,1805,-409,2717,5793,47,72,836,1254,1416,1135,1280,1347,1066,1305,1439
166773,46752,-20652,41252,41252,1977,1998,2836,223,1969,859,1946,4704,48,67,845,1254,1416,1135,1280,1347,1066,1305,1439
167774,47008,-20168,41858,41858,2061,2276,3021,233,2112,318,2553,3732,54,70,827,1254,1416,1135,1280,1347,1066,1305,1439
168775,47256,-19628,42464,42464,2120,1927,3142,442,2155,-855,1981,5756,50,73,840,1254,1416,1135,1280,1347,1066,1305,1439
169776,47492,-18992,43070,43070,2204,1327,3298,510,2131,-1035,2094,4218,38,87,832,1254,1416,1135,1280,1347,1066,1305,1439
170777,47728,-18404,43676,43676,2213,1627,3410,491,2157,-916,1566,4593,29,90,834,1254,1416,1135,1280,1347,1066,1305,1439
171778,47976,-17836,44282,44282,2146,1753,3576,596,2264,-418,2100,4076,30,90,844,1254,1416,1135,1280,1347,1066,1305,1439
172779,48208,-17232,44888,44888,2255,1528,3728,801,2317,-198,494,4241,30,101,837,1254,1416,1135,1280,1347,1066,1305,1439
173780,48448,-16680,45494,45494,2214,1854,3947,1102,2276,-579,3077,3418,40,100,833,1254,1416,1135,1280,1347,1066,1305,1439
174781,48688,-16012,46100,46100,2223,1128,4140,1250,2234,1406,812,4030,33,95,839,1254,1416,1135,1280,1347,1066,1305,1439
175782,48948,-15436,46706,46706,2107,1704,4252,1475,2261,615,1473,4145,40,110,835,1254,1416,1135,1280,1347,1066,1305,1439
176783,49184,-14820,47312,47312,2266,1453,4341,1673,2289,-201,2411,4407,41,109,849,1254,1416,1135,1280,1347,1066,1305,1439
177784,49416,-14196,47918,47918,2300,1403,4416,2026,2331,752,260,4682,29,92,842,1254,1416,1135,1280,1347,1066,1305,1439
178785,49672,-13572,48524,48524,2158,1403,4514,2363,2397,725,2530,4303,38,98,843,1254,1416,1135,1280,1347,1066,1305,1439
179786,49932,-12880,49152,49152,2142,976,4563,2740,2455,862,1324,4421,49,116,842,1254,1416,1135,1280,1347,1066,1305,1439
180787,50192,-12256,49758,49758,2151,1401,4535,2908,2429,1576,1712,2983,34,118,846,1254,1416,1135,1280,1347,1066,1305,1439
181788,50440,-11608,50364,50364,2235,1249,4474,3040,2411,1719,2185,3836,35,117,851,1254,1416,1135,1280,1347,1066,1305,1439
182789,50680,-10948,50970,50970,2294,1173,4381,3057,2472,772,1822,1640,30,113,845,1254,1416,1135,1280,1347,1066,1305,1439
183790,50932,-10240,51576,51576,2227,871,4281,3262,2466,617,1728,3136,45,130,845,1254,1416,1135,1280,1347,1066,1305,1439
184791,51184,-9588,52182,52182,2236,1220,4255,3438,2290,1752,620,1262,33,129,846,1254,1416,1135,1280,1347,1066,1305,1439
185792,51432,-8896,52788,52788,2270,967,4221,3425,2043,2374,1438,2355,44,126,851,1254,1416,1135,1280,1347,1066,1305,1439
186793,51672,-8212,53394,53394,2329,1016,4070,3297,2006,952,-868,2319,35,130,849,1254,1416,1135,1280,1347,1066,1305,1439
187794,51908,-7548,54000,54000,2363,1139,3947,3244,1943,798,-594,2224,27,127,847,1254,1416,1135,1280,1347,1066,1305,1439
188795,52132,-6832,54606,54606,2447,811,3992,3077,1829,754,-519,517,40,127,846,1254,1416,1135,1280,1347,1066,1305,1439
189796,52388,-6188,55212,55212,2255,1261,4038,3116,1780,1178,-433,2045,24,141,841,1254,1416,1135,1280,1347,1066,1305,1439
190797,52632,-5540,55818,55818,2339,1234,3965,3300,1892,360,625,144,42,129,843,1254,1416,1135,1280,1347,1066,1305,1439
191798,52868,-4956,56424,56424,2398,1635,3887,3678,1982,788,313,2756,37,125,845,1254,1416,1135,1280,1347,1066,1305,1439
192799,53116,-4392,57030,57030,2332,1761,3658,4139,1909,2118,846,743,38,126,845,1254,1416,1135,1280,1347,1066,1305,1439
193800,53380,-3812,57636,57636,2240,1662,3514,4380,1892,2092,-76,-18,37,118,837,1254,1416,1135,1280,1347,1066,1305,1439
194801,53620,-3276,58242,58242,2399,1938,3420,4469,1982,702,558,1037,47,119,837,1254,1416,1135,1280,1347,1066,1305,1439
195802,53860,-2768,58848,58848,2408,2116,3360,4626,1956,1625,-1537,924,30,127,840,1254,1416,1135,1280,1347,1066,1305,1439
196803,54140,-2256,59454,59454,2166,2093,3294,4510,1759,1935,79,555,45,122,832,1254,1416,1135,1280,1347,1066,1305,1439
197804,54404,-1760,60060,60060,2275,2196,3203,4078,1627,1589,1023,1165,44,115,828,1254,1416,1135,1280,1347,1066,1305,1439
198805,54632,-1200,60666,60666,2509,1797,2939,3509,1581,1267,1117,764,31,121,833,1254,1416,1135,1280,1347,1066,1305,1439
199806,54868,-732,61272,61272,2468,2375,2561,3299,1537,290,635,2889,26,127,829,1254,1416,1135,1280,1347,1066,1305,1439
200807,55116,-224,61878,61878,2402,2128,2233,3199,1278,1422,2262,1273,41,127,832,1254,1416,1135,1280,1347,1066,1305,1439
201808,55376,264,62484,62484,2335,2256,2158,3181,946,3662,1563,1905,29,113,824,1254,1416,1135,1280,1347,1066,1305,1439
202809,55648,804,63090,63090,2268,1932,2162,3801,975,1942,451,6367,35,106,830,1254,1416,1135,1280,1347,1066,1305,1439
203810,55932,1340,63696,63696,2201,1959,2120,4263,1102,1880,-117,4936,40,139,829,1254,1416,1135,1280,1347,1066,1305,1439
204811,56196,1888,64302,64302,2334,1885,2096,4189,1339,350,-911,5954,44,113,837,1254,1416,1135,1280,1347,1066,1305,1439
205812,56484,2408,64908,64908,2192,2062,2002,3743,1325,1525,-17,3177,52,112,837,1254,1416,1135,1280,1347,1066,1305,1439
206813,56776,2968,65536,65536,2175,1814,1815,3195,1281,413,966,3523,56,112,832,1254,1416,1135,1280,1347,1066,1305,1439
207814,57092,3552,66142,66142,2032,1665,1406,2905,1127,1035,1406,1273,58,116,833,1254,1416,1135,1280,1347,1066,1305,1439
208815,57360,4132,66748,66748,2341,1690,1092,2672,988,-165,1511,347,63,108,840,1254,1416,1135,1280,1347,1066,1305,1439
209816,57644,4672,67354,67354,2249,1942,799,2711,759,449,1110,2253,35,105,845,1254,1416,1135,1280,1347,1066,1305,1439
210817,57908,5132,67960,67960,2382,2445,684,2717,570,643,1695,2304,51,93,837,1254,1416,1135,1280,1347,1066,1305,1439
211818,58192,5596,68566,68566,2265,2424,576,2720,440,1468,204,3150,47,63,832,1254,1416,1135,1280,1347,1066,1305,1439
212819,58476,6112,69172,69172,2273,2101,487,2326,338,195,1712,2613,53,61,816,1254,1416,1135,1280,1347,1066,1305,1439
213820,58760,6524,69778,69778,2280,2756,330,1856,317,350,1505,3350,49,64,816,1254,1416,1135,1280,1347,1066,1305,1439
214821,59064,6984,70384,70384,2163,2459,118,1672,157,2067,1961,3819,41,22,827,1254,1416,1135,1280,1347,1066,1305,1439
215822,59340,7440,70990,70990,2346,2488,38,1708,55,1493,2407,3981,56,46,811,1254,1416,1135,1280,1347,1066,1305,1439
216823,59612,7800,71596,71596,2379,3094,63,1860,102,1546,1951,4166,47,32,821,1254,1416,1135,1280,1347,1066,1305,1439
217824,59904,8256,72202,72202,2262,2498,7,2002,-1,1342,2089,5371,43,-21,813,1254,1416,1135,1280,1347,1066,1305,1439
218825,60212,8704,72808,72808,2169,2552,-50,1888,-136,-955,2648,5465,49,40,796,1254,1416,1135,1280,1347,1066,1305,1439
219826,60484,9096,73414,73414,2402,2907,-72,1551,-169,-591,3087,5785,37,14,815,1254,1416,1135,1280,1347,1066,1305,1439
220827,60780,9452,74020,74020,2260,3138,-200,1290,-260,937,3084,5313,46,-10,817,1254,1416,1135,1280,1347,1066,1305,1439
221828,61068,9800,74626,74626,2318,3194,-362,1069,-359,-631,3144,6640,39,-35,801,1254,1416,1135,1280,1347,1066,1305,1439
222829,61356,10304,75232,75232,2325,2222,-586,813,-445,-1334,2752,5513,59,-46,798,1254,1416,1135,1280,1347,1066,1305,1439
223830,61688,10740,75838,75838,2057,2651,-698,629,-501,-1406,3206,5527,45,37,793,1254,1416,1135,1280,1347,1066,1305,1439
224831,61996,11128,76444,76444,2214,2956,-665,481,-606,-716,3578,4700,41,19,819,1254,1416,1135,1280,1347,1066,1305,1439
225832,62312,11512,77050,77050,2171,2987,-660,245,-776,-970,2187,4894,46,-18,811,1254,1416,1135,1280,1347,1066,1305,1439
226833,62640,12012,77656,77656,2103,2264,-730,0,-896,-1167,2629,5771,59,-15,804,1254,1416,1135,1280,1347,1066,1305,1439
227834,62960,12536,78262,78262,2160,2116,-829,-200,-1017,-113,2962,5106,47,48,806,1254,1416,1135,1280,1347,1066,1305,1439
228835,63276,12992,78868,78868,2192,2545,-792,-173,-1080,-66,2672,5270,56,39,827,1254,1416,1135,1280,1347,1066,1305,1439
229836,63644,13436,79474,79474,1873,2624,-666,-196,-1244,321,3020,3522,45,25,829,1254,1416,1135,1280,1347,1066,1305,1439
230837,63968,13932,80080,80080,2155,2301,-528,-147,-1412,-162,2704,4619,63,24,818,1254,1416,1135,1280,1347,1066,1305,1439
231838,64296,14436,80686,80686,2137,2254,-520,-42,-1509,117,2627,4410,55,51,822,1254,1416,1135,1280,1347,1066,1305,1439
232839,64632,14972,81292,81292,2093,2056,-507,72,-1546,789,3828,4348,51,55,825,1254,1416,1135,1280,1347,1066,1305,1439
233840,64992,15444,81920,81920,1950,2459,-449,110,-1575,600,3190,3441,58,53,828,1254,1416,1135,1280,1347,1066,1305,1439
234841,65408,16020,82526,82526,1604,1810,-351,-9,-1614,-763,3223,3258,58,38,833,1254,1416,1135,1280,1347,1066,1305,1439
235842,65768,16564,83132,83132,1960,2012,-293,-110,-1682,-568,3830,3342,74,59,828,1254,1416,1135,1280,1347,1066,1305,1439
236843,66128,17128,83738,83738,1966,1888,-226,-128,-1690,-504,2916,3037,68,69,850,1254,1416,1135,1280,1347,1066,1305,1439
237844,66520,17676,84344,84344,1772,1989,-148,-131,-1736,-617,4522,3733,65,62,837,1254,1416,1135,1280,1347,1066,1305,1439
238845,66920,18256,84950,84950,1727,1790,-78,-325,-1769,-1282,4398,3175,78,66,842,1254,1416,1135,1280,1347,1066,1305,1439
239846,67344,18864,85556,85556,1581,1615,-76,-436,-1748,-1207,3857,4550,68,80,844,1254,1416,1135,1280,1347,1066,1305,1439
240847,67800,19460,86162,86162,1385,1690,-42,-497,-1797,-536,5167,3716,89,86,847,1254,1416,1135,1280,1347,1066,1305,1439
241848,68196,20236,86768,86768,1765,561,49,-561,-1842,-817,3233,3447,92,99,854,1254,1416,1135,1280,1347,1066,1305,1439
242849,68624,20840,87374,87374,1569,1636,113,-625,-1929,-492,4803,3379,91,103,859,1254,1416,1135,1280,1347,1066,1305,1439
243850,69112,21564,87980,87980,1197,883,91,-834,-1960,-597,2993,2761,82,100,868,1254,1416,1135,1280,1347,1066,1305,1439
244851,69548,22564,88586,88586,1526,-852,66,-911,-1986,-947,2806,1373,92,106,857,1254,1416,1135,1280,1347,1066,1305,1439
245852,70076,23276,89192,89192,953,946,87,-704,-2016,-266,1486,2478,98,115,875,1254,1416,1135,1280,1347,1066,1305,1439
246853,70544,23956,89798,89798,1332,1144,148,-878,-2018,-348,83,-855,91,123,866,1254,1416,1135,1280,1347,1066,1305,1439
247854,70996,24556,90404,90404,1435,1644,433,-1342,-2025,-1026,2698,3252,109,117,879,1254,1416,1135,1280,1347,1066,1305,1439
248855,71524,25160,91010,91010,962,1619,280,-924,-2081,1081,203,3528,118,115,870,1254,1416,1135,1280,1347,1066,1305,1439
249856,72056,25872,91616,91616,939,942,315,-723,-2112,950,1345,1115,109,122,864,1254,1416,1135,1280,1347,1066,1305,1439
250857,72600,26496,92222,92222,866,1491,190,-440,-2064,1791,-98,771,105,138,868,1254,1416,1135,1280,1347,1066,1305,1439
251858,73132,27208,92828,92828,942,939,219,-420,-2084,2179,-327,-1074,118,143,880,1254,1416,1135,1280,1347,1066,1305,1439
252859,73648,27804,93434,93434,1045,1664,116,-656,-2055,431,494,-820,115,148,875,1254,1416,1135,1280,1347,1066,1305,1439
253860,74188,28360,94040,94040,896,1915,-31,-654,-2049,612,-1209,-120,127,141,881,1254,1416,1135,1280,1347,1066,1305,1439
254861,74744,29180,94646,94646,797,260,-126,-729,-2057,-80,1273,9,125,147,869,1254,1416,1135,1280,1347,1066,1305,1439
255862,75296,29852,95252,95252,824,1183,-314,-597,-2025,-4,-345,581,126,161,868,1254,1416,1135,1280,1347,1066,1305,1439
256863,75884,30584,95858,95858,599,805,-472,-754,-2004,569,374,-231,135,143,889,1254,1416,1135,1280,1347,1066,1305,1439
257864,76472,31224,96464,96464,600,1379,-652,-1120,-1912,1056,842,-211,116,158,878,1254,1416,1135,1280,1347,1066,1305,1439
258865,77024,31872,97070,97070,826,1328,-952,-1255,-1802,1759,-485,-585,114,156,883,1254,1416,1135,1280,1347,1066,1305,1439
259866,77548,32432,97676,97676,1003,1879,-1135,-1326,-1722,229,296,269,117,160,879,1254,1416,1135,1280,1347,1066,1305,1439
260867,78124,32988,98304,98304,679,1906,-1338,-1241,-1904,938,854,-487,115,149,878,1254,1416,1135,1280,1347,1066,1305,1439
261868,78736,33604,98910,98910,454,1531,-1351,-1228,-2009,1202,-1666,-431,105,135,866,1254,1416,1135,1280,1347,1066,1305,1439
262869,79276,34192,99516,99516,906,1706,-1306,-896,-2366,5218,3815,3557,123,158,870,1254,1416,1135,1280,1347,1066,1305,1439
263870,79828,34744,100122,100122,832,1933,-1272,-568,-2513,5375,-2598,2861,117,155,878,1254,1416,1135,1280,1347,1066,1305,1439
264871,80328,35332,100728,100728,1160,1708,-1322,-313,-1934,793,-5815,3236,115,162,871,1254,1416,1135,1280,1347,1066,1305,1439
265872,80868,36048,101334,101334,911,905,-1326,-307,-1442,-3178,-1559,418,98,161,869,1254,1416,1135,1280,1347,1066,1305,1439
266873,81412,36736,101940,101940,888,1078,-1372,-415,-1598,-3920,1869,1206,99,169,867,1254,1416,1135,1280,1347,1066,1305,1439
267874,81968,37416,102546,102546,814,1127,-1195,-208,-1949,-320,-756,395,114,164,882,1254,1416,1135,1280,1347,1066,1305,1439
268875,82516,38068,103152,103152,865,1300,-1190,-143,-1773,1000,-1905,2598,104,158,880,1254,1416,1135,1280,1347,1066,1305,1439
269876,83032,38852,103758,103758,1068,471,-1082,402,-1426,539,-1590,3241,110,168,880,1254,1416,1135,1280,1347,1066,1305,1439
270877,83556,39768,104364,104364,1020,-361,-1095,693,-1290,-425,-253,3829,101,164,877,1254,1416,1135,1280,1347,1066,1305,1439
271878,84092,40636,104970,104970,946,-68,-956,552,-1429,-1686,2016,324,111,153,884,1254,1416,1135,1280,1347,1066,1305,1439
272879,84728,41540,105576,105576,320,-300,-1027,291,-1730,-967,1845,501,119,152,883,1254,1416,1135,1280,1347,1066,1305,1439
273880,85228,42472,106182,106182,1173,-483,-1194,374,-1807,-1327,2420,527,106,157,887,1254,1416,1135,1280,1347,1066,1305,1439
274881,85724,43580,106788,106788,1201,-1595,-1405,250,-1543,-2382,3436,2527,105,160,889,1254,1416,1135,1280,1347,1066,1305,1439
275882,86272,44680,107394,107394,877,-1557,-1851,434,-1389,-1610,2759,2188,114,160,876,1254,1416,1135,1280,1347,1066,1305,1439
276883,86844,45468,108000,108000,728,388,-1932,813,-1432,-1684,639,1625,112,142,849,1254,1416,1135,1280,1347,1066,1305,1439
277884,87496,46248,108606,108606,227,434,-1934,1038,-1781,1042,-1401,-380,115,121,858,1254,1416,1135,1280,1347,1066,1305,1439
278885,88072,47008,109212,109212,703,555,-1907,602,-1962,993,-172,38,126,113,889,1254,1416,1135,1280,1347,1066,1305,1439
279886,88624,47816,109818,109818,854,250,-2095,-235,-1810,-1364,1612,928,116,120,893,1254,1416,1135,1280,1347,1066,1305,1439
280887,89236,48640,110424,110424,479,145,-2152,-278,-1635,-1534,1892,3917,126,128,888,1254,1416,1135,1280,1347,1066,1305,1439
281888,89832,49356,111030,111030,579,817,-2007,44,-1561,-579,-259,529,129,123,888,1254,1416,1135,1280,1347,1066,1305,1439
282889,90388,50100,111636,111636,830,639,-1773,997,-1497,952,-2084,401,131,106,894,1254,1416,1135,1280,1347,1066,1305,1439
283890,91080,50788,112242,112242,-22,987,-1330,1381,-1449,2116,-2125,-323,134,123,885,1254,1416,1135,1280,1347,1066,1305,1439
284891,91776,51516,112848,112848,-49,734,-943,1387,-1485,1876,-779,678,121,110,885,1254,1416,1135,1280,1347,1066,1305,1439
285892,92400,52272,113454,113454,401,555,-755,1193,-1415,-332,-1123,1677,132,117,886,1254,1416,1135,1280,1347,1066,1305,1439
286893,93108,53048,114060,114060,-127,426,-699,976,-1313,-1315,570,1271,125,126,891,1254,1416,1135,1280,1347,1066,1305,1439
287894,93788,53748,114688,114688,47,899,-530,1169,-1133,-373,-302,800,139,126,891,1254,1416,1135,1280,1347,1066,1305,1439
288895,94536,54464,115294,115294,-382,797,-484,1785,-1022,1879,2902,206,138,121,893,1254,1416,1135,1280,1347,1066,1305,1439
289896,95236,55208,115900,115900,-84,618,-562,2525,-1141,1227,3584,1228,130,132,888,1254,1416,1135,1280,1347,1066,1305,1439
290897,95844,55836,116506,116506,491,1343,-630,2646,-1289,-1873,2957,-1601,115,143,887,1254,1416,1135,1280,1347,1066,1305,1439
291898,96368,56460,117112,117112,1018,1367,-912,2869,-1479,38,2485,4133,137,132,889,1254,1416,1135,1280,1347,1066,1305,1439
292899,96932,57108,117718,117718,769,1216,-1284,2418,-1474,168,1414,-1903,127,137,877,1254,1416,1135,1280,1347,1066,1305,1439
293900,97676,57780,118324,118324,-359,1065,-1549,1982,-1304,-77,1420,906,129,149,874,1254,1416,1135,1280,1347,1066,1305,1439
294901,98296,58448,118930,118930,415,1088,-1815,1791,-1192,-591,-380,-321,132,136,879,1254,1416,1135,1280,1347,1066,1305,1439
295902,98916,59080,119536,119536,415,1312,-1918,1962,-1259,-1067,290,-585,132,162,883,1254,1416,1135,1280,1347,1066,1305,1439
296903,99560,59748,120142,120142,264,1086,-1834,2251,-1498,599,685,1876,116,142,885,1254,1416,1135,1280,1347,1066,1305,1439
297904,100152,60432,120748,120748,589,984,-1622,2317,-1629,369,-795,1673,121,143,882,1254,1416,1135,1280,1347,1066,1305,1439
298905,100788,61052,121354,121354,314,1384,-1431,2159,-1633,76,-577,2049,128,163,887,1254,1416,1135,1280,1347,1066,1305,1439
299906,101448,61676,121960,121960,162,1358,-1195,1843,-1635,-132,-2022,-664,126,145,885,1254,1416,1135,1280,1347,1066,1305,1439
300907,102068,62268,122566,122566,412,1559,-920,1850,-1748,110,-2357,-989,118,148,879,1254,1416,1135,1280,1347,1066,1305,1439
301908,102600,62780,123172,123172,964,2061,-639,1519,-1919,-1652,-1505,-2017,134,146,882,1254,1416,1135,1280,1347,1066,1305,1439
302909,103176,63324,123778,123778,689,1862,-699,1102,-1973,-1836,-1509,-676,123,133,878,1254,1416,1135,1280,1347,1066,1305,1439
303910,103788,63860,124384,124384,464,1914,-765,1062,-2055,-405,-736,1386,119,136,864,1254,1416,1135,1280,1347,1066,1305,1439
304911,104416,64392,124990,124990,364,1941,-959,926,-2147,1158,393,-967,116,137,869,1254,1416,1135,1280,1347,1066,1305,1439
305912,104988,64852,125596,125596,715,2395,-890,388,-2130,-227,2915,327,131,129,870,1254,1416,1135,1280,1347,1066,1305,1439
306913,105600,65284,126202,126202,464,2574,-871,-361,-2085,-2316,130,1305,119,117,871,1254,1416,1135,1280,1347,1066,1305,1439
307914,106204,65752,126808,126808,515,2352,-801,-1642,-2125,-4096,-23,1177,134,88,857,1254,1416,1135,1280,1347,1066,1305,1439
308915,106848,66172,127414,127414,264,2657,-659,-2946,-2141,-2490,135,4090,126,94,851,1254,1416,1135,1280,1347,1066,1305,1439
309916,107464,66608,128020,128020,438,2561,-426,-3416,-2067,934,-1549,7957,124,76,857,1254,1416,1135,1280,1347,1066,1305,1439
310917,108160,66996,128626,128626,-64,2866,-412,-3566,-1734,1527,-1323,8798,121,64,847,1254,1416,1135,1280,1347,1066,1305,1439
311918,108740,67344,129232,129232,662,3122,-846,-3094,-1432,4107,-904,14219,131,35,850,1254,1416,1135,1280,1347,1066,1305,1439
312919,109268,67644,129838,129838,989,3430,-1487,-2746,-1011,4966,2482,13333,127,-12,835,1254,1416,1135,1280,1347,1066,1305,1439
313920,109812,67988,130444,130444,890,3161,-2300,-1983,-683,6434,-1794,15779,102,-180,831,1254,1416,1135,1280,1347,1066,1305,1439
314921,110328,68260,131072,131072,1068,3620,-2861,-1950,-330,1734,3243,12455,115,-53,806,1254,1416,1135,1280,1347,1066,1305,1439
315922,110936,68488,131678,131678,493,3800,-3102,-1764,-116,3640,438,14268,113,-179,824,1254,1416,1135,1280,1347,1066,1305,1439
316923,111380,68688,132284,132284,1522,3800,-3096,-1324,-34,6182,-5193,14210,94,267,803,1254,1416,1135,1280,1347,1066,1305,1439
317924,111848,68896,132890,132890,1375,3800,-2986,-1294,281,3260,-6079,13980,102,256,800,1254,1416,1135,1280,1347,1066,1305,1439
318925,112280,69108,133496,133496,1604,3800,-2855,-2459,528,1034,-6166,13593,83,263,785,1254,1416,1135,1280,1347,1066,1305,1439
319926,112696,69220,134102,134102,1709,3800,-2767,-2953,601,-696,-6199,16404,94,277,776,1254,1416,1135,1280,1347,1066,1305,1439
320927,113104,69376,134708,134708,1764,3800,-2346,-3879,788,-1941,-6516,11763,88,248,780,1254,1416,1135,1280,1347,1066,1305,1439
321928,113448,69456,135314,135314,2170,3800,-1850,-4966,887,-1109,-6487,12113,66,234,776,1254,1416,1135,1280,1347,1066,1305,1439
322929,113716,69544,135920,135920,2654,3800,-1468,-6147,1031,-1540,-5572,12828,76,242,758,1254,1416,1135,1280,1347,1066,1305,1439
323930,114012,69640,136526,136526,2486,3800,-1448,-6481,1106,-550,-4979,14732,46,279,756,1254,1416,1135,1280,1347,1066,1305,1439
324931,114264,69732,137132,137132,2770,3800,-1441,-6413,1175,-188,-2592,14414,37,240,755,1254,1416,1135,1280,1347,1066,1305,1439
325932,114452,69864,137738,137738,3180,3800,-1530,-6345,1415,243,-2156,14224,42,256,752,1254,1416,1135,1280,1347,1066,1305,1439
326933,114728,69956,138344,138344,2638,3800,-1754,-6093,1783,429,-1337,15218,6,267,742,1254,1416,1135,1280,1347,1066,1305,1439
327934,114904,70116,138950,138950,3274,3800,-2067,-5839,2178,435,-112,15625,-85,271,759,1254,1416,1135,1280,1347,1066,1305,1439
328935,115064,70296,139556,139556,3384,3800,-2248,-5407,2532,473,694,16479,17,278,745,1254,1416,1135,1280,1347,1066,1305,1439
329936,115280,70492,140162,140162,3044,3800,-2406,-4821,2895,1157,223,16616,-105,275,744,1254,1416,1135,1280,1347,1066,1305,1439
330937,115444,70752,140768,140768,3380,3800,-2504,-4267,3303,903,20,16218,-199,253,745,1254,1416,1135,1280,1347,1066,1305,1439
331938,115572,71000,141374,141374,3616,3800,-2399,-4011,3688,279,389,15533,-21,251,744,1254,1416,1135,1280,1347,1066,1305,1439
332939,115716,71236,141980,141980,3528,3800,-2189,-3600,3903,-384,-1356,15395,-197,271,748,1254,1416,1135,1280,1347,1066,1305,1439
333940,115908,71512,142586,142586,3238,3797,-1787,-3391,4072,-1672,-1481,14442,-203,230,748,1254,1416,1135,1280,1347,1066,1305,1439
334941,116056,71872,143192,143192,3524,3278,-1251,-3160,4243,-1486,-2192,13899,-255,255,748,1254,1416,1135,1280,1347,1066,1305,1439
335942,116228,72260,143798,143798,3385,3108,-598,-2983,4439,-2192,-3472,12883,-90,-62,761,1254,1416,1135,1280,1347,1066,1305,1439
336943,116424,72676,144404,144404,3245,2938,62,-2582,4663,-2530,-2666,12707,-252,-19,768,1254,1416,1135,1280,1347,1066,1305,1439
337944,116592,73088,145010,145010,3430,2967,742,-2297,4798,-931,-2286,10954,-238,5,778,1254,1416,1135,1280,1347,1066,1305,1439
338945,116748,73516,145616,145616,3516,2872,1205,-1864,4875,-1458,-3482,10518,-152,-3,769,1254,1416,1135,1280,1347,1066,1305,1439
339946,116944,74044,146222,146222,3276,2249,1450,-1468,5035,-2267,-1108,9522,-285,25,774,1254,1416,1135,1280,1347,1066,1305,1439
340947,117124,74616,146828,146828,3387,1974,1500,-1025,5103,-1170,-183,7672,-288,55,794,1254,1416,1135,1280,1347,1066,1305,1439
341948,117332,75064,147456,147456,3222,2754,1489,-522,5134,-889,-101,6469,-170,73,793,1254,1416,1135,1280,1347,1066,1305,1439
342949,117556,75592,148062,148062,3131,2256,1399,-13,4942,330,666,4995,-220,24,784,1254,1416,1135,1280,1347,1066,1305,1439
343950,117776,76136,148668,148668,3166,2157,1304,424,4736,404,1236,5001,-82,63,798,1254,1416,1135,1280,1347,1066,1305,1439
344951,118024,76684,149274,149274,2999,2134,1282,866,4631,1494,1491,3672,-38,62,799,1254,1416,1135,1280,1347,1066,1305,1439
345952,118296,77324,149880,149880,2858,1558,1333,1322,4496,1317,823,2401,-50,66,807,1254,1416,1135,1280,1347,1066,1305,1439
346953,118564,77952,150486,150486,2891,1632,1469,1662,4282,1012,1829,1779,-4,89,825,1254,1416,1135,1280,1347,1066,1305,1439
347954,118840,78624,151092,151092,2849,1356,1667,1771,4153,1880,2031,1242,9,82,821,1254,1416,1135,1280,1347,1066,1305,1439
348955,119132,79412,151698,151698,2757,626,1779,1885,4153,1869,1725,2776,4,100,827,1254,1416,1135,1280,1347,1066,1305,1439
349956,119428,80324,152304,152304,2739,-156,2063,2170,4128,2336,191,1976,15,106,839,1254,1416,1135,1280,1347,1066,1305,1439
350957,119776,81092,152910,152910,2420,740,2649,2337,4126,2034,-2485,404,14,108,843,1254,1416,1135,1280,1347,1066,1305,1439
351958,120088,81796,153516,153516,2653,1137,3459,2157,4081,2939,782,123,30,96,847,1254,1416,1135,1280,1347,1066,1305,1439
352959,120392,82420,154122,154122,2710,1637,4065,1918,3959,2305,-567,555,44,107,833,1254,1416,1135,1280,1347,1066,1305,1439
353960,120704,83068,154728,154728,2667,1486,4424,1534,3759,1538,-1617,2296,24,102,830,1254,1416,1135,1280,1347,1066,1305,1439
354961,121040,83780,155334,155334,2524,1083,4463,1358,3352,1306,2526,1700,22,118,834,1254,1416,1135,1280,1347,1066,1305,1439
355962,121392,84484,155940,155940,2430,1131,4404,1725,2946,2329,1130,3229,32,106,842,1254,1416,1135,1280,1347,1066,1305,1439
356963,121736,85232,156546,156546,2486,853,4241,1804,2776,2892,3406,-169,55,126,845,1254,1416,1135,1280,1347,1066,1305,1439
357964,122092,85888,157152,157152,2417,1426,3934,1842,2747,1028,4619,2023,57,128,845,1254,1416,1135,1280,1347,1066,1305,1439
358965,122472,86612,157758,157758,2273,998,3625,1587,2518,-293,4426,-525,63,118,841,1254,1416,1135,1280,1347,1066,1305,1439
359966,122852,87384,158364,158364,2278,694,3348,1360,2143,-451,2418,-471,71,131,849,1254,1416,1135,1280,1347,1066,1305,1439
360967,123220,88144,158970,158970,2359,766,3306,1053,1890,-607,1189,-1441,71,122,854,1254,1416,1135,1280,1347,1066,1305,1439
361968,123640,88784,159576,159576,2039,1515,3313,825,1504,2850,1884,-730,72,126,851,1254,1416,1135,1280,1347,1066,1305,1439
362969,124076,89564,160182,160182,1943,636,3589,676,1185,3222,583,680,55,128,849,1254,1416,1135,1280,1347,1066,1305,1439
363970,124508,90372,160788,160788,1972,456,3871,1546,1078,302,205,4495,67,139,864,1254,1416,1135,1280,1347,1066,1305,1439
364971,124940,91196,161394,161394,1976,350,3915,3339,1354,-1081,-6034,5501,96,129,866,1254,1416,1135,1280,1347,1066,1305,1439
365972,125416,91880,162000,162000,1705,1223,4465,3008,1575,4068,-5650,-821,86,122,866,1254,1416,1135,1280,1347,1066,1305,1439
366973,125920,92588,162606,162606,1532,1071,4980,2656,1585,4336,-2974,3969,86,133,863,1254,1416,1135,1280,1347,1066,1305,1439
367974,126432,93316,163212,163212,1484,943,5389,2026,1426,1562,-957,-131,88,125,867,1254,1416,1135,1280,1347,1066,1305,1439
368975,126940,94036,163840,163840,1512,991,5341,1667,1266,-632,-734,-1102,101,122,870,1254,1416,1135,1280,1347,1066,1305,1439
369976,127468,94736,164446,164446,1389,1113,5175,1435,906,1527,1577,-1527,119,125,870,1254,1416,1135,1280,1347,1066,1305,1439
370977,127988,95280,165052,165052,1441,2090,4845,1639,662,1161,1951,-1777,101,126,870,1254,1416,1135,1280,1347,1066,1305,1439
371978,128560,95880,165658,165658,1117,1740,4705,1714,408,1016,2093,-2976,95,119,853,1254,1416,1135,1280,1347,1066,1305,1439
372979,129176,96524,166264,166264,842,1464,4648,1355,239,541,3848,-2539,121,131,867,1254,1416,1135,1280,1347,1066,1305,1439
373980,129700,97124,166870,166870,1419,1739,4424,1021,61,2500,2175,-3702,111,141,873,1254,1416,1135,1280,1347,1066,1305,1439
374981,130252,97832,167476,167476,1245,1062,4331,330,-133,1968,4043,-2923,105,119,861,1254,1416,1135,1280,1347,1066,1305,1439
375982,130836,98472,168082,168082,1046,1486,4312,494,-312,-1136,5003,1552,103,152,872,1254,1416,1135,1280,1347,1066,1305,1439
376983,131476,99032,168688,168688,695,1987,4253,799,-799,2885,2556,306,128,142,868,1254,1416,1135,1280,1347,1066,1305,1439
377984,132140,99644,169294,169294,544,1662,4223,1582,-472,-716,-2705,2071,124,132,867,1254,1416,1135,1280,1347,1066,1305,1439
378985,132756,100324,169900,169900,843,1235,4389,1857,89,-1249,-619,2152,116,158,874,1254,1416,1135,1280,1347,1066,1305,1439
379986,133348,101000,170506,170506,994,1258,4550,1751,153,-1589,-901,1195,121,147,879,1254,1416,1135,1280,1347,1066,1305,1439
380987,133864,101668,171112,171112,1471,1307,4732,1671,95,-2004,-143,2366,138,175,876,1254,1416,1135,1280,1347,1066,1305,1439
381988,134444,102320,171718,171718,1072,1406,4901,1626,315,-2892,-1265,1311,117,172,869,1254,1416,1135,1280,1347,1066,1305,1439
382989,135056,102932,172324,172324,871,1656,4949,1493,574,-1095,-3194,964,135,182,875,1254,1416,1135,1280,1347,1066,1305,1439
383990,135720,103748,172930,172930,545,376,4865,1278,788,-2028,-3954,366,146,173,872,1254,1416,1135,1280,1347,1066,1305,1439
384991,136348,104476,173536,173536,769,923,4896,1126,886,-1914,-1914,761,129,167,890,1254,1416,1135,1280,1347,1066,1305,1439
385992,136948,105268,174142,174142,945,518,5029,1291,798,-214,-1670,2290,149,166,884,1254,1416,1135,1280,1347,1066,1305,1439
386993,137576,106072,174748,174748,769,438,5028,1351,648,1010,-230,-43,149,170,885,1254,1416,1135,1280,1347,1066,1305,1439
387994,138260,106944,175354,175354,417,7,4860,1041,628,1234,1028,-545,149,189,887,1254,1416,1135,1280,1347,1066,1305,1439
388995,138956,108016,175960,175960,340,-1255,4402,905,685,1737,622,385,137,175,894,1254,1416,1135,1280,1347,1066,1305,1439
389996,139592,109032,176566,176566,714,-915,3957,900,625,2038,730,-1186,146,194,870,1254,1416,1135,1280,1347,1066,1305,1439
390997,140228,110112,177172,177172,713,-1326,3698,1257,583,537,2278,745,128,161,875,1254,1416,1135,1280,1347,1066,1305,1439
391998,140864,111104,177778,177778,713,-786,3616,1134,607,-397,5314,1858,131,159,864,1254,1416,1135,1280,1347,1066,1305,1439
392999,141496,111960,178384,178384,737,58,3327,1441,641,1940,333,1769,130,141,876,1254,1416,1135,1280,1347,1066,1305,1439
394000,142216,112832,178990,178990,184,-48,3172,1598,663,1709,-1721,-675,137,132,887,1254,1416,1135,1280,1347,1066,1305,1439
395001,142852,113608,179596,179596,709,548,3108,1418,532,2359,-2082,-2380,131,130,895,1254,1416,1135,1280,1347,1066,1305,1439
396002,143496,114348,180224,180224,658,770,3305,662,560,2481,-542,-197,134,122,887,1254,1416,1135,1280,1347,1066,1305,1439
397003,144148,115108,180830,180830,607,641,3328,736,867,1787,-760,2544,141,133,885,1254,1416,1135,1280,1347,1066,1305,1439
398004,144808,115840,181436,181436,556,813,3357,1260,1284,-348,-1762,4013,130,127,887,1254,1416,1135,1280,1347,1066,1305,1439
399005,145444,116684,182042,182042,705,107,3388,1937,1448,198,-91,3135,133,137,886,1254,1416,1135,1280,1347,1066,1305,1439
400006,146156,117476,182648,182648,227,428,3605,2386,1675,1451,-833,1587,122,136,890,1254,1416,1135,1280,1347,1066,1305,1439
401007,146800,118240,183254,183254,651,599,3663,2599,1915,2841,-1192,1405,139,125,892,1254,1416,1135,1280,1347,1066,1305,1439
402008,147396,118972,183860,183860,952,796,3537,2438,2126,65,-375,824,128,137,887,1254,1416,1135,1280,1347,1066,1305,1439
403009,148032,119784,184466,184466,701,291,3433,2359,2250,-808,-29,1805,133,139,880,1254,1416,1135,1280,1347,1066,1305,1439
404010,148640,120536,185072,185072,876,662,3320,2505,2345,93,70,1693,127,125,889,1254,1416,1135,1280,1347,1066,1305,1439
405011,149324,121240,185678,185678,399,960,3360,2804,2405,-234,412,2178,122,146,884,1254,1416,1135,1280,1347,1066,1305,1439
406012,149912,121852,186284,186284,999,1535,3239,2814,2442,-1747,1658,-179,132,133,885,1254,1416,1135,1280,1347,1066,1305,1439
407013,150528,122612,186890,186890,824,606,3076,2893,2339,-2026,2252,697,129,136,871,1254,1416,1135,1280,1347,1066,1305,1439
408014,151076,123332,187496,187496,1251,853,2786,2721,2268,-847,69,-1803,108,137,884,1254,1416,1135,1280,1347,1066,1305,1439
409015,151612,123940,188102,188102,1327,1553,2648,2414,2191,-1291,575,-734,119,134,876,1254,1416,1135,1280,1347,1066,1305,1439
410016,152236,124640,188708,188708,777,976,2640,2471,2004,-2222,1850,235,115,140,865,1254,1416,1135,1280,1347,1066,1305,1439
411017,152768,125284,189314,189314,1354,1325,2587,2745,1830,-1000,-1205,2251,116,143,879,1254,1416,1135,1280,1347,1066,1305,1439
412018,153336,125944,189920,189920,1130,1223,2445,2953,1807,-223,30,3045,120,140,870,1254,1416,1135,1280,1347,1066,1305,1439
413019,153912,126572,190526,190526,1080,1423,2385,2859,1933,-628,1236,363,135,163,874,1254,1416,1135,1280,1347,1066,1305,1439
414020,154532,127160,191132,191132,805,1673,2433,2568,2011,377,67,841,128,143,870,1254,1416,1135,1280,1347,1066,1305,1439
415021,155152,127732,191738,191738,805,1774,2452,2554,2035,597,-1138,-1209,136,158,871,1254,1416,1135,1280,1347,1066,1305,1439
416022,155820,128316,192344,192344,503,1700,2531,2250,2138,409,-1533,-502,147,156,870,1254,1416,1135,1280,1347,1066,1305,1439
417023,156552,128884,192950,192950,100,1801,2616,2128,2307,-208,-2022,-119,128,135,875,1254,1416,1135,1280,1347,1066,1305,1439
418024,157344,129480,193556,193556,-279,1626,2758,2246,2242,2548,-2881,743,124,164,875,1254,1416,1135,1280,1347,1066,1305,1439
419025,158056,130012,194162,194162,218,2028,2831,2451,2108,2129,-649,601,154,160,875,1254,1416,1135,1280,1347,1066,1305,1439
420026,158708,130576,194768,194768,592,1829,2757,2372,2264,179,773,-590,135,167,872,1254,1416,1135,1280,1347,1066,1305,1439
421027,159408,131116,195374,195374,290,1980,2588,1962,2381,375,-11,-1948,125,151,871,1254,1416,1135,1280,1347,1066,1305,1439
422028,160080,131668,195980,195980,463,1907,2337,1868,2221,38,1620,1079,136,146,872,1254,1416,1135,1280,1347,1066,1305,1439
423029,160788,132268,196608,196608,236,1607,1994,2173,2094,2037,3256,3020,137,146,870,1254,1416,1135,1280,1347,1066,1305,1439
424030,161452,132824,197214,197214,510,1884,1531,2045,1914,2698,5897,2820,132,128,874,1254,1416,1135,1280,1347,1066,1305,1439
425031,162132,133436,197820,197820,408,1533,1100,1676,1775,-2926,2446,2861,151,127,871,1254,1416,1135,1280,1347,1066,1305,1439
426032,162844,134020,198426,198426,205,1709,618,1621,1675,-3947,4207,7792,136,140,876,1254,1416,1135,1280,1347,1066,1305,1439
427033,163628,134700,199032,199032,-249,1107,151,1275,1653,-1980,-798,857,143,122,873,1254,1416,1135,1280,1347,1066,1305,1439
428034,164344,135324,199638,199638,173,1457,-2,857,1690,-1099,-1333,3173,155,119,880,1254,1416,1135,1280,1347,1066,1305,1439
429035,165008,135908,200244,200244,497,1707,42,556,1777,-2492,-2359,2035,135,113,877,1254,1416,1135,1280,1347,1066,1305,1439
430036,165600,136476,200850,200850,947,1808,229,431,1765,-2153,-1096,3023,127,105,870,1254,1416,1135,1280,1347,1066,1305,1439
431037,166232,137004,201456,201456,696,2060,332,577,1503,-903,-2042,3852,134,86,864,1254,1416,1135,1280,1347,1066,1305,1439
432038,166984,137600,202062,202062,-57,1635,403,232,1290,-1644,-239,3401,141,86,858,1254,1416,1135,1280,1347,1066,1305,1439
433039,167656,138140,202668,202668,441,1987,205,54,1162,-1732,-1957,4129,130,75,872,1254,1416,1135,1280,1347,1066,1305,1439
434040,168288,138624,203274,203274,691,2340,-172,-398,1198,-736,-255,2084,151,76,862,1254,1416,1135,1280,1347,1066,1305,1439
435041,168900,139156,203880,203880,816,2042,-498,-432,1119,1893,355,5030,145,66,850,1254,1416,1135,1280,1347,1066,1305,1439
436042,169524,139628,204486,204486,740,2420,-1069,-440,717,633,4239,4498,125,32,856,1254,1416,1135,1280,1347,1066,1305,1439
437043,170228,140052,205092,205092,238,2724,-1498,-781,282,-2914,6007,6374,131,40,849,1254,1416,1135,1280,1347,1066,1305,1439
438044,170836,140420,205698,205698,838,3080,-2063,-1272,-95,-1595,528,3395,139,30,842,1254,1416,1135,1280,1347,1066,1305,1439
439045,171464,140788,206304,206304,712,3086,-2514,-2062,-44,-2725,743,2052,122,-3,827,1254,1416,1135,1280,1347,1066,1305,1439
440046,172112,141248,206910,206910,586,2515,-3119,-2550,32,-2980,2712,3111,120,-42,826,1254,1416,1135,1280,1347,1066,1305,1439
441047,172724,141660,207516,207516,811,2819,-3661,-2588,-178,-1741,1550,4685,144,-40,844,1254,1416,1135,1280,1347,1066,1305,1439
442048,173356,142088,208122,208122,685,2724,-4120,-2412,-319,-1025,2873,4038,122,23,833,1254,1416,1135,1280,1347,1066,1305,1439
443049,174028,142476,208728,208728,434,2979,-4457,-2256,-405,-212,1506,5740,128,-17,838,1254,1416,1135,1280,1347,1066,1305,1439
444050,174604,142872,209334,209334,1034,2934,-4782,-2383,-496,-1512,3371,6626,115,-1,833,1254,1416,1135,1280,1347,1066,1305,1439
445051,175156,143360,209940,209940,1186,2362,-5136,-2581,-491,-1793,1977,6189,117,-33,827,1254,1416,1135,1280,1347,1066,1305,1439
446052,175736,143824,210546,210546,1011,2515,-5479,-2554,-380,-1011,1452,6628,117,-30,843,1254,1416,1135,1280,1347,1066,1305,1439
447053,176252,144292,211152,211152,1414,2494,-5663,-2243,-279,82,1584,7719,115,32,841,1254,1416,1135,1280,1347,1066,1305,1439
448054,176852,144696,211758,211758,889,2899,-5852,-1864,-314,1013,1226,8374,111,28,835,1254,1416,1135,1280,1347,1066,1305,1439
449055,177420,145156,212364,212364,1090,2552,-5923,-1789,-329,-804,2356,7337,93,21,830,1254,1416,1135,1280,1347,1066,1305,1439
450056,177920,145636,212992,212992,1518,2431,-6003,-1630,-323,-1382,598,8283,92,-11,838,1254,1416,1135,1280,1347,1066,1305,1439
451057,178420,146088,213598,213598,1520,2610,-6033,-1610,-304,-1443,2552,6823,94,33,838,1254,1416,1135,1280,1347,1066,1305,1439
452058,178900,146564,214204,214204,1648,2463,-6107,-1499,-342,-674,2409,7044,106,44,833,1254,1416,1135,1280,1347,1066,1305,1439
453059,179360,147072,214810,214810,1777,2265,-6338,-1651,-373,-1375,3602,6156,84,22,833,1254,1416,1135,1280,1347,1066,1305,1439
454060,179848,147592,215416,215416,1605,2192,-6593,-1818,-324,-2036,4104,5521,78,39,835,1254,1416,1135,1280,1347,1066,1305,1439
455061,180276,148088,216022,216022,1984,2345,-6949,-1691,-276,-1157,3668,6447,75,49,841,1254,1416,1135,1280,1347,1066,1305,1439
456062,180684,148628,216628,216628,2114,2072,-7217,-1680,-233,-1602,4507,4517,77,54,832,1254,1416,1135,1280,1347,1066,1305,1439
457063,181108,149200,217234,217234,2018,1872,-7393,-1550,-233,-1782,4103,5521,68,59,833,1254,1416,1135,1280,1347,1066,1305,1439
458064,181500,149788,217840,217840,2224,1773,-7562,-1582,-258,-236,5634,5850,64,72,841,1254,1416,1135,1280,1347,1066,1305,1439
459065,181924,150380,218446,218446,2028,1748,-7775,-1594,-224,905,4663,5314,71,76,838,1254,1416,1135,1280,1347,1066,1305,1439
460066,182288,151024,219052,219052,2409,1422,-7899,-1673,9,319,4767,4709,70,85,845,1254,1416,1135,1280,1347,1066,1305,1439
461067,182632,151660,219658,219658,2540,1472,-7929,-1246,73,2834,5637,6325,68,93,842,1254,1416,1135,1280,1347,1066,1305,1439
462068,182968,152400,220264,220264,2597,818,-7797,-1076,68,2450,4034,2429,61,113,833,1254,1416,1135,1280,1347,1066,1305,1439
463069,183260,153420,220870,220870,2880,-942,-7721,-602,67,1613,4320,5217,46,103,841,1254,1416,1135,1280,1347,1066,1305,1439
464070,183588,154148,221476,221476,2662,880,-7496,-232,-115,4162,3974,3346,37,117,826,1254,1416,1135,1280,1347,1066,1305,1439
465071,183856,154756,222082,222082,3045,1630,-7298,764,-183,3442,2376,7507,-3,110,838,1254,1416,1135,1280,1347,1066,1305,1439
466072,184104,155476,222688,222688,3178,927,-6951,838,-31,2286,4011,7555,16,119,818,1254,1416,1135,1280,1347,1066,1305,1439
467073,184332,156064,223294,223294,3313,1753,-6987,1523,151,3961,1400,9418,-40,114,822,1254,1416,1135,1280,1347,1066,1305,1439
468074,184596,156736,223900,223900,3096,1226,-6497,1806,576,2925,1348,9368,-102,137,810,1254,1416,1135,1280,1347,1066,1305,1439
469075,184840,157336,224506,224506,3230,1676,-5995,2592,755,2412,1836,6315,-186,129,821,1254,1416,1135,1280,1347,1066,1305,1439
470076,185084,158012,225112,225112,3239,1200,-5267,3213,872,859,-493,6576,-35,127,811,1254,1416,1135,1280,1347,1066,1305,1439
471077,185292,158720,225718,225718,3473,997,-4553,3477,1020,1534,2572,5596,-103,140,815,1254,1416,1135,1280,1347,1066,1305,1439
472078,185476,159416,226324,226324,3634,1070,-4214,3753,1135,2229,1489,7879,-107,138,808,1254,1416,1135,1280,1347,1066,1305,1439
473079,185652,159936,226930,226930,3694,2172,-3972,3815,1264,805,2953,5796,-288,153,801,1254,1416,1135,1280,1347,1066,1305,1439
474080,185836,160732,227536,227536,3655,442,-3720,3815,1500,-1317,1692,6758,-182,147,784,1254,1416,1135,1280,1347,1066,1305,1439
475081,186028,161452,228142,228142,3615,915,-3341,3637,1617,-747,4380,6212,-55,148,807,1254,1416,1135,1280,1347,1066,1305,1439
476082,186240,162240,228748,228748,3499,485,-3048,3783,1533,2220,2291,8381,-144,168,806,1254,1416,1135,1280,1347,1066,1305,1439
477083,186436,162936,229376,229376,3610,1059,-2815,3948,1460,3416,3206,6937,-210,162,814,1254,1416,1135,1280,1347,1066,1305,1439
478084,186636,163628,229982,229982,3595,1081,-2594,4190,1343,3312,3445,9039,-317,159,806,1254,1416,1135,1280,1347,1066,1305,1439
479085,186872,164268,230588,230588,3379,1406,-2360,4187,1047,4456,3160,6156,-216,138,803,1254,1416,1135,1280,1347,1066,1305,1439
480086,187104,164960,231194,231194,3413,1079,-2120,4097,870,2744,2611,8304,-234,146,804,1254,1416,1135,1280,1347,1066,1305,1439
481087,187368,165560,231800,231800,3221,1654,-1846,4052,621,3195,2592,8128,-191,150,813,1254,1416,1135,1280,1347,1066,1305,1439
482088,187628,166184,232406,232406,3255,1503,-1535,4020,373,4170,299,8346,-218,139,811,1254,1416,1135,1280,1347,1066,1305,1439
483089,187876,166804,233012,233012,3338,1528,-1115,4280,329,4103,-85,9635,-79,135,812,1254,1416,1135,1280,1347,1066,1305,1439
484090,188092,167416,233618,233618,3548,1578,-497,4509,447,4626,-1582,8678,-94,131,809,1254,1416,1135,1280,1347,1066,1305,1439
485091,188336,168056,234224,234224,3382,1402,210,4458,633,3189,-3691,7063,-190,125,803,1254,1416,1135,1280,1347,1066,1305,1439
486092,188632,168576,234830,234830,3064,2154,866,4554,652,2283,-1256,8821,-288,114,812,1254,1416,1135,1280,1347,1066,1305,1439
487093,188916,169172,235436,235436,3147,1679,1528,4544,665,3533,-2125,8084,-229,115,810,1254,1416,1135,1280,1347,1066,1305,1439
488094,189216,169744,236042,236042,3055,1830,2090,4767,913,3354,-1084,8849,-24,109,813,1254,1416,1135,1280,1347,1066,1305,1439
489095,189504,170332,236648,236648,3137,1731,2532,4823,1214,2510,-709,8061,-43,126,815,1254,1416,1135,1280,1347,1066,1305,1439
490096,189820,171036,237254,237254,2970,1003,2824,4860,1580,681,-734,7426,-5,128,816,1254,1416,1135,1280,1347,1066,1305,1439
491097,190200,171640,237860,237860,2575,1628,3102,4898,1878,639,1267,6004,-19,128,832,1254,1416,1135,1280,1347,1066,1305,1439
492098,190564,172236,238466,238466,2681,1678,3391,4795,1847,2129,3308,5458,1,128,836,1254,1416,1135,1280,1347,1066,1305,1439
493099,190944,172908,239072,239072,2587,1202,3611,4641,1869,769,2703,5309,58,121,832,1254,1416,1135,1280,1347,1066,1305,1439
494100,191336,173568,239678,239678,2517,1276,3635,4482,1837,1180,4017,5545,56,123,841,1254,1416,1135,1280,1347,1066,1305,1439
495101,191736,174372,240284,240284,2472,371,3650,4273,1767,-268,4975,6394,50,125,842,1254,1416,1135,1280,1347,1066,1305,1439
496102,192176,175088,240890,240890,2226,918,3633,4261,1620,288,3492,5346,59,135,851,1254,1416,1135,1280,1347,1066,1305,1439
497103,192688,175752,241496,241496,1778,1242,3795,4197,1384,768,3062,4059,80,134,856,1254,1416,1135,1280,1347,1066,1305,1439
498104,193176,176464,242102,242102,1931,939,3984,4146,1129,1294,1686,3435,83,132,861,1254,1416,1135,1280,1347,1066,1305,1439
499105,193712,177204,242708,242708,1633,761,4247,3589,902,2549,2683,3750,102,134,862,1254,1416,1135,1280,1347,1066,1305,1439
500106,194228,177988,243314,243314,1760,481,4351,3193,722,2242,652,4916,89,120,870,1254,1416,1135,1280,1347,1066,1305,1439
501107,194808,178756,243920,243920,1361,577,4576,2702,530,-242,1775,4383,101,138,872,1254,1416,1135,1280,1347,1066,1305,1439
502108,195404,179488,244526,244526,1261,799,4880,2364,422,-660,1363,4245,114,128,877,1254,1416,1135,1280,1347,1066,1305,1439
503109,195956,180256,245132,245132,1537,570,5220,2352,409,23,-815,2924,104,121,876,1254,1416,1135,1280,1347,1066,1305,1439
504110,196528,181052,245760,245760,1413,391,5540,2504,477,161,50,2126,119,138,875,1254,1416,1135,1280,1347,1066,1305,1439
505111,197108,181828,246366,246366,1364,512,5780,2333,611,1010,-2558,-190,117,130,879,1254,1416,1135,1280,1347,1066,1305,1439
506112,197728,182592,246972,246972,1114,583,5961,1915,734,1489,-1127,894,116,125,878,1254,1416,1135,1280,1347,1066,1305,1439
507113,198372,183340,247578,247578,963,680,6020,1555,548,3481,-247,1353,113,136,882,1254,1416,1135,1280,1347,1066,1305,1439
508114,199068,184112,248184,248184,636,526,5655,2058,352,2866,-256,1681,138,134,883,1254,1416,1135,1280,1347,1066,1305,1439
509115,199672,184924,248790,248790,1211,271,5011,2660,707,-603,-2736,340,131,124,888,1254,1416,1135,1280,1347,1066,1305,1439
510116,200276,185596,249396,249396,1211,1144,4199,2457,1140,-1571,-2023,-1570,137,144,883,1254,1416,1135,1280,1347,1066,1305,1439
511117,200888,186272,250002,250002,1161,1117,3471,1671,1249,629,91,-332,132,147,875,1254,1416,1135,1280,1347,1066,1305,1439
512118,201564,186928,250608,250608,759,1241,3165,958,1400,-772,-574,1860,154,136,875,1254,1416,1135,1280,1347,1066,1305,1439
513119,202268,187596,251214,251214,581,1165,3353,690,1662,-3293,-1351,5632,148,127,876,1254,1416,1135,1280,1347,1066,1305,1439
514120,202964,188284,251820,251820,629,1038,3776,875,2095,-1649,-2784,6511,155,134,881,1254,1416,1135,1280,1347,1066,1305,1439
515121,203596,188904,252426,252426,1029,1462,3925,1692,2645,2179,-1427,4804,146,132,882,1254,1416,1135,1280,1347,1066,1305,1439
516122,204252,189524,253032,253032,877,1462,4211,2023,2970,3760,-4167,1862,141,139,873,1254,1416,1135,1280,1347,1066,1305,1439
517123,204876,190100,253638,253638,1077,1738,4318,2054,2794,2827,-1925,49,157,146,874,1254,1416,1135,1280,1347,1066,1305,1439
518124,205624,190696,254244,254244,299,1613,4392,1738,2382,1344,-1143,922,140,139,867,1254,1416,1135,1280,1347,1066,1305,1439
519125,206272,191304,254850,254850,922,1538,4341,1547,2026,-781,420,-169,149,130,877,1254,1416,1135,1280,1347,1066,1305,1439
520126,206960,191852,255456,255456,670,1914,4037,1698,1502,276,1608,2111,155,133,873,1254,1416,1135,1280,1347,1066,1305,1439
521127,207672,192396,256062,256062,518,1941,3644,1780,1066,-1510,1673,-1837,133,139,869,1254,1416,1135,1280,1347,1066,1305,1439
522128,208344,192924,256668,256668,766,2043,3102,1680,797,-927,3156,-2795,143,137,871,1254,1416,1135,1280,1347,1066,1305,1439
523129,209020,193436,257274,257274,740,2145,2482,1214,638,18,1063,-2961,156,134,866,1254,1416,1135,1280,1347,1066,1305,1439
524130,209776,193992,257880,257880,236,1871,1820,629,705,-3302,2228,-866,136,115,864,1254,1416,1135,1280,1347,1066,1305,1439
525131,210500,194508,258486,258486,433,2123,1158,83,731,-2456,1851,2861,145,134,872,1254,1416,1135,1280,1347,1066,1305,1439
526132,211224,195024,259092,259092,430,2126,723,-527,868,-1246,-218,1482,143,134,867,1254,1416,1135,1280,1347,1066,1305,1439
527133,211896,195564,259698,259698,754,1977,418,-1092,1096,110,-1537,645,143,130,869,1254,1416,1135,1280,1347,1066,1305,1439
528134,212540,196160,260304,260304,928,1628,260,-1424,1290,-235,-2789,1050,144,146,867,1254,1416,1135,1280,1347,1066,1305,1439
529135,213268,196728,260910,260910,400,1803,249,-1494,1343,-579,-2280,2247,152,131,871,1254,1416,1135,1280,1347,1066,1305,1439
530136,213968,197252,261516,261516,572,2080,330,-1363,1338,-274,-3625,2601,131,135,871,1254,1416,1135,1280,1347,1066,1305,1439
531137,214612,197812,262144,262144,922,1857,395,-1176,1380,159,-3405,4091,145,129,865,1254,1416,1135,1280,1347,1066,1305,1439
532138,215288,198344,262750,262750,720,2034,287,-972,1436,501,-3772,5662,151,127,867,1254,1416,1135,1280,1347,1066,1305,1439
533139,215968,199012,263356,263356,693,1182,135,-1121,1478,-1399,-815,5400,130,126,866,1254,1416,1135,1280,1347,1066,1305,1439
534140,216596,199596,263962,263962,1018,1708,-70,-1332,1514,-2184,-2778,4345,143,109,878,1254,1416,1135,1280,1347,1066,1305,1439
535141,217264,200220,264568,264568,766,1457,-299,-1475,1578,-1496,-1309,5291,135,125,867,1254,1416,1135,1280,1347,1066,1305,1439
536142,217916,200768,265174,265174,865,1934,-650,-1017,1521,-1226,-1386,5415,140,112,874,1254,1416,1135,1280,1347,1066,1305,1439
537143,218540,201332,265780,265780,1040,1835,-987,-773,1396,-2599,181,4625,142,101,862,1254,1416,1135,1280,1347,1066,1305,1439
538144,219240,201892,266386,266386,563,1861,-1412,-800,1067,-1893,188,3952,132,75,862,1254,1416,1135,1280,1347,1066,1305,1439
539145,219892,202360,266992,266992,861,2439,-1926,-1414,762,-3485,3239,2176,150,79,865,1254,1416,1135,1280,1347,1066,1305,1439
540146,220608,202824,267598,267598,459,2468,-2472,-2308,572,-3238,2964,1743,133,70,849,1254,1416,1135,1280,1347,1066,1305,1439
541147,221280,203340,268204,268204,732,2145,-3146,-2929,303,-2230,1840,1191,151,52,852,1254,1416,1135,1280,1347,1066,1305,1439
542148,222032,203784,268810,268810,229,2599,-3561,-3146,53,-2213,3451,2711,138,44,855,1254,1416,1135,1280,1347,1066,1305,1439
543149,222804,204208,269416,269416,99,2728,-3850,-2929,-226,-241,1164,2399,139,50,846,1254,1416,1135,1280,1347,1066,1305,1439
544150,223612,204664,270022,270022,-130,2532,-3973,-2629,-592,376,1154,3560,157,27,843,1254,1416,1135,1280,1347,1066,1305,1439
545151,224364,205104,270628,270628,216,2636,-4063,-2765,-765,-1533,2684,2587,150,11,847,1254,1416,1135,1280,1347,1066,1305,1439
546152,225028,205476,271234,271234,765,3067,-4137,-2921,-850,-792,2100,2911,139,18,843,1254,1416,1135,1280,1347,1066,1305,1439
547153,225740,205816,271840,271840,462,3273,-4306,-2997,-937,-275,-587,1701,143,12,825,1254,1416,1135,1280,1347,1066,1305,1439
548154,226472,206204,272446,272446,334,2979,-4280,-2936,-922,-1213,40,2725,148,-36,826,1254,1416,1135,1280,1347,1066,1305,1439
549155,227200,206656,273052,273052,356,2582,-4327,-2703,-840,173,521,4384,131,-102,833,1254,1416,1135,1280,1347,1066,1305,1439
550156,227992,207088,273658,273658,-49,2712,-4344,-2726,-900,90,3322,5129,145,-7,845,1254,1416,1135,1280,1347,1066,1305,1439
551157,228720,207484,274264,274264,348,2942,-4371,-3033,-1020,-2141,5196,2686,151,18,844,1254,1416,1135,1280,1347,1066,1305,1439
552158,229360,207900,274870,274870,898,2822,-4522,-3394,-1054,-2935,1279,2380,140,18,833,1254,1416,1135,1280,1347,1066,1305,1439
553159,230068,208348,275476,275476,470,2625,-4881,-3642,-844,-5217,649,2627,145,-12,836,1254,1416,1135,1280,1347,1066,1305,1439
554160,230876,208836,276082,276082,-160,2378,-5128,-3983,-668,-4371,-530,2851,150,2,846,1254,1416,1135,1280,1347,1066,1305,1439
555161,231616,209324,276688,276688,262,2381,-5352,-3955,-597,-2378,220,3714,138,21,854,1254,1416,1135,1280,1347,1066,1305,1439
556162,232352,209788,277294,277294,284,2535,-5290,-3793,-537,-1392,1569,3944,145,51,853,1254,1416,1135,1280,1347,1066,1305,1439
557163,233108,210316,277900,277900,155,2137,-5282,-3668,-550,-2581,2080,4161,143,41,849,1254,1416,1135,1280,1347,1066,1305,1439
558164,233792,210824,278528,278528,604,2264,-5344,-4030,-681,-3611,3221,3505,138,40,860,1254,1416,1135,1280,1347,1066,1305,1439
559165,234444,211332,279134,279134,803,2267,-5416,-4024,-835,-2068,2269,4441,145,51,856,1254,1416,1135,1280,1347,1066,1305,1439
560166,235112,211832,279740,279740,701,2319,-5250,-4019,-882,-1353,1427,1766,134,61,854,1254,1416,1135,1280,1347,1066,1305,1439
561167,235888,212436,280346,280346,22,1669,-4921,-3854,-947,-1876,2137,3872,129,66,853,1254,1416,1135,1280,1347,1066,1305,1439
562168,236568,213032,280952,280952,620,1720,-4650,-3761,-1080,-1877,3452,2863,158,64,872,1254,1416,1135,1280,1347,1066,1305,1439
563169,237296,213576,281558,281558,317,2046,-4496,-3707,-1142,-1086,3104,1248,154,82,865,1254,1416,1135,1280,1347,1066,1305,1439
564170,238000,214160,282164,282164,465,1797,-4423,-3515,-1159,34,2229,-226,154,88,862,1254,1416,1135,1280,1347,1066,1305,1439
565171,238752,214800,282770,282770,161,1446,-4285,-3253,-1149,-1227,2613,-360,142,74,869,1254,1416,1135,1280,1347,1066,1305,1439
566172,239476,215380,283376,283376,333,1822,-4111,-3004,-1186,-1643,4499,-271,142,87,877,1254,1416,1135,1280,1347,1066,1305,1439
567173,240244,216152,283982,283982,54,618,-3959,-2883,-1145,78,3509,-85,148,104,869,1254,1416,1135,1280,1347,1066,1305,1439
568174,240924,216800,284588,284588,603,1391,-3949,-2589,-969,1238,4415,-740,142,96,891,1254,1416,1135,1280,1347,1066,1305,1439
569175,241664,217408,285194,285194,224,1641,-3990,-2419,-759,-102,3292,-2216,144,112,878,1254,1416,1135,1280,1347,1066,1305,1439
570176,242356,218100,285800,285800,522,1114,-3918,-2367,-610,-2094,2301,-2674,144,102,874,1254,1416,1135,1280,1347,1066,1305,1439
571177,243076,218808,286406,286406,344,1012,-3732,-1912,-551,-1516,2068,-462,150,106,881,1254,1416,1135,1280,1347,1066,1305,1439
572178,243852,219684,287012,287012,-10,-45,-3450,-1463,-498,487,2547,972,151,120,885,1254,1416,1135,1280,1347,1066,1305,1439
573179,244576,220584,287618,287618,312,-202,-3450,-1297,-370,872,2557,-6,156,132,896,1254,1416,1135,1280,1347,1066,1305,1439
574180,245252,221244,288224,288224,611,1297,-3420,-1262,-171,84,591,702,133,121,893,1254,1416,1135,1280,1347,1066,1305,1439
575181,245928,221860,288830,288830,609,1572,-3235,-1341,13,-1063,-381,-2118,136,130,880,1254,1416,1135,1280,1347,1066,1305,1439
576182,246572,222544,289436,289436,808,1145,-2893,-1348,104,-957,-674,1338,133,139,874,1254,1416,1135,1280,1347,1066,1305,1439
577183,247204,223124,290042,290042,882,1795,-2515,-815,115,445,-2016,2065,129,114,879,1254,1416,1135,1280,1347,1066,1305,1439
578184,247872,223724,290648,290648,656,1670,-2240,-175,-45,2133,-1208,4674,125,130,870,1254,1416,1135,1280,1347,1066,1305,1439
579185,248480,224264,291254,291254,1031,2047,-1867,-227,-195,1333,-98,1017,141,145,873,1254,1416,1135,1280,1347,1066,1305,1439
580186,249040,225056,291860,291860,1332,467,-1541,-259,-359,1939,-1734,4445,118,147,862,1254,1416,1135,1280,1347,1066,1305,1439
581187,249576,225900,292466,292466,1484,137,-1161,-144,-85,-3632,-3617,2637,124,150,876,1254,1416,1135,1280,1347,1066,1305,1439
582188,250092,226616,293072,293072,1611,934,-847,504,-254,1345,-951,3844,118,155,879,1254,1416,1135,1280,1347,1066,1305,1439
583189,250616,227360,293678,293678,1563,756,-464,752,-474,1482,-941,3583,122,136,870,1254,1416,1135,1280,1347,1066,1305,1439
584190,251096,227992,294284,294284,1841,1455,-25,796,-429,-891,-30,5108,113,145,871,1254,1416,1135,1280,1347,1066,1305,1439
585191,251536,228580,294912,294912,2095,1731,-16,1647,-512,-197,1854,8392,103,137,857,1254,1416,1135,1280,1347,1066,1305,1439
586192,251960,229200,295518,295518,2200,1531,-5,2154,-445,-1284,1309,4895,100,136,849,1254,1416,1135,1280,1347,1066,1305,1439
587193,252344,229788,296124,296124,2455,1731,-175,3307,-432,195,514,7360,86,143,848,1254,1416,1135,1280,1347,1066,1305,1439
588194,252732,230420,296730,296730,2436,1455,-93,3636,-366,47,850,2787,73,149,835,1254,1416,1135,1280,1347,1066,1305,1439
589195,253156,231092,297336,297336,2215,1204,41,3719,-265,1303,-1694,2923,60,150,842,1254,1416,1135,1280,1347,1066,1305,1439
590196,253516,231732,297942,297942,2621,1403,290,3441,-150,547,211,1594,67,137,849,1254,1416,1135,1280,1347,1066,1305,1439
591197,253844,232416,298548,298548,2828,1126,594,3189,17,-1233,-1164,3562,64,128,838,1254,1416,1135,1280,1347,1066,1305,1439
592198,254184,233076,299154,299154,2759,1275,914,2934,194,-939,-1182,5902,34,134,835,1254,1416,1135,1280,1347,1066,1305,1439
593199,254516,233732,299760,299760,2816,1299,1060,3259,352,1948,-323,11000,31,134,834,1254,1416,1135,1280,1347,1066,1305,1439
594200,254892,234348,300366,300366,2547,1548,1338,3638,469,3944,-928,9908,32,135,832,1254,1416,1135,1280,1347,1066,1305,1439
595201,255228,235012,300972,300972,2803,1247,1741,3896,647,3373,-1673,11993,31,141,835,1254,1416,1135,1280,1347,1066,1305,1439
596202,255564,235764,301578,301578,2810,693,2209,4085,797,3036,-2383,11544,42,137,832,1254,1416,1135,1280,1347,1066,1305,1439
597203,255924,236484,302184,302184,2666,891,2671,4410,774,3452,-900,13445,18,144,840,1254,1416,1135,1280,1347,1066,1305,1439
598204,256292,237144,302790,302790,2622,1264,3170,4469,676,3164,-254,11751,34,135,840,1254,1416,1135,1280,1347,1066,1305,1439
599205,256704,237816,303396,303396,2351,1188,3535,4601,655,3072,-1835,12424,32,127,838,1254,1416,1135,1280,1347,1066,1305,1439
600206,257056,238628,304002,304002,2733,308,3704,4936,747,2434,249,12022,42,147,847,1254,1416,1135,1280,1347,1066,1305,1439
601207,257452,239396,304608,304608,2463,579,3738,5683,929,2290,513,12100,67,142,845,1254,1416,1135,1280,1347,1066,1305,1439
602208,257852,240208,305214,305214,2443,299,3679,6034,1028,1961,230,10186,35,144,852,1254,1416,1135,1280,1347,1066,1305,1439
603209,258228,240928,305820,305820,2598,871,3479,6588,1141,-576,-727,11048,73,145,855,1254,1416,1135,1280,1347,1066,1305,1439
604210,258684,241648,306426,306426,2102,868,3181,6893,1206,317,-1173,7178,74,134,846,1254,1416,1135,1280,1347,1066,1305,1439
605211,259208,242404,307032,307032,1679,639,2996,6890,1361,2118,1246,7892,70,130,858,1254,1416,1135,1280,1347,1066,1305,1439
606212,259688,243172,307638,307638,1957,560,2814,6678,1621,3084,-45,7252,80,145,869,1254,1416,1135,1280,1347,1066,1305,1439
607213,260192,243924,308244,308244,1810,657,2599,6417,1825,-507,-241,8900,86,134,865,1254,1416,1135,1280,1347,1066,1305,1439
608214,260680,244648,308850,308850,1913,829,2774,6136,1868,-3622,1510,7331,101,122,867,1254,1416,1135,1280,1347,1066,1305,1439
609215,261204,245400,309456,309456,1690,650,3607,5693,1903,-2640,-1772,3453,110,147,864,1254,1416,1135,1280,1347,1066,1305,1439
610216,261820,246276,310062,310062,1114,-131,4608,5491,1965,-1367,-1208,3259,100,127,869,1254,1416,1135,1280,1347,1066,1305,1439
611217,262360,247064,310668,310668,1591,414,5270,5443,1996,502,-736,4625,105,138,884,1254,1416,1135,1280,1347,1066,1305,1439
612218,262948,247824,311296,311296,1292,586,5397,5540,1959,1156,-1291,5455,129,143,875,1254,1416,1135,1280,1347,1066,1305,1439
613219,263536,248592,311902,311902,1292,532,5539,5495,1841,1232,-1319,5937,109,133,878,1254,1416,1135,1280,1347,1066,1305,1439
614220,264140,249296,312508,312508,1192,930,5520,5254,1538,2922,326,4373,123,147,880,1254,1416,1135,1280,1347,1066,1305,1439
615221,264776,250140,313114,313114,992,49,5142,4943,1215,4942,1604,2165,129,131,874,1254,1416,1135,1280,1347,1066,1305,1439
616222,265372,250824,313720,313720,1242,1047,4147,4167,941,4915,4082,1239,128,140,887,1254,1416,1135,1280,1347,1066,1305,1439
617223,265976,251584,314326,314326,1192,568,2523,3699,910,1394,5263,3804,139,151,875,1254,1416,1135,1280,1347,1066,1305,1439
618224,266564,252292,314932,314932,1292,891,667,3871,1271,-1635,3024,6345,131,146,882,1254,1416,1135,1280,1347,1066,1305,1439
619225,267240,252976,315538,315538,741,1039,-187,3506,1561,653,-19,4124,137,129,875,1254,1416,1135,1280,1347,1066,1305,1439
620226,267876,253708,316144,316144,990,736,-81,3533,2124,1333,-3471,5834,140,148,881,1254,1416,1135,1280,1347,1066,1305,1439
621227,268572,254328,316750,316750,613,1435,920,3352,2694,2809,-3380,6408,151,145,883,1254,1416,1135,1280,1347,1066,1305,1439
622228,269232,254936,317356,317356,836,1510,1730,3973,3271,2672,-7326,6152,147,123,877,1254,1416,1135,1280,1347,1066,1305,1439
623229,269892,255508,317962,317962,835,1736,2159,4690,3702,4323,-9275,6307,133,133,873,1254,1416,1135,1280,1347,1066,1305,1439
624230,270528,256128,318568,318568,984,1436,2468,4962,3576,5421,-8525,2524,142,138,870,1254,1416,1135,1280,1347,1066,1305,1439
625231,271188,256652,319174,319174,833,2038,2839,5101,3362,1076,-5815,3446,147,131,874,1254,1416,1135,1280,1347,1066,1305,1439
626232,271824,257160,319780,319780,982,2140,3253,4741,3035,206,-2841,-209,135,147,864,1254,1416,1135,1280,1347,1066,1305,1439
627233,272564,257620,320386,320386,329,2444,2956,4439,2635,-2554,-2964,-12,148,117,861,1254,1416,1135,1280,1347,1066,1305,1439
628234,273272,258104,320992,320992,527,2297,2219,3473,2312,-6757,1647,-3540,142,129,862,1254,1416,1135,1280,1347,1066,1305,1439
629235,273908,258652,321598,321598,976,1898,1088,2315,2019,-7358,3267,-1899,131,119,862,1254,1416,1135,1280,1347,1066,1305,1439
630236,274556,259136,322204,322204,900,2301,-11,787,1657,-6652,3539,-884,146,114,865,1254,1416,1135,1280,1347,1066,1305,1439
631237,275232,259616,322810,322810,723,2329,-1035,-210,1529,-6328,3266,1170,137,115,859,1254,1416,1135,1280,1347,1066,1305,1439
632238,275996,260080,323416,323416,169,2433,-1693,-810,1523,-4321,2873,1849,139,124,855,1254,1416,1135,1280,1347,1066,1305,1439
633239,276708,260524,324022,324022,492,2562,-2138,-1049,1402,-742,1943,1858,149,103,858,1254,1416,1135,1280,1347,1066,1305,1439
634240,277372,261056,324628,324628,790,2014,-2527,-1289,1307,1684,1494,2138,138,111,856,1254,1416,1135,1280,1347,1066,1305,1439
635241,277992,261496,325234,325234,1065,2593,-2660,-1427,1275,2757,-227,1068,125,96,864,1254,1416,1135,1280,1347,1066,1305,1439
636242,278644,261988,325840,325840,864,2270,-2612,-1275,1204,2823,317,4317,119,118,845,1254,1416,1135,1280,1347,1066,1305,1439
637243,279368,262448,326446,326446,411,2474,-2377,-1275,1048,3638,-2199,2554,145,79,858,1254,1416,1135,1280,1347,1066,1305,1439
638244,280056,262884,327052,327052,634,2628,-2328,-1186,1011,2427,-2519,6787,141,107,855,1254,1416,1135,1280,1347,1066,1305,1439
639245,280716,263384,327680,327680,808,2231,-2464,-1103,1063,2143,-2714,4606,126,76,850,1254,1416,1135,1280,1347,1066,1305,1439
640246,281400,263832,328286,328286,656,2560,-2403,-1053,1120,592,-3448,6153,141,70,856,1254,1416,1135,1280,1347,1066,1305,1439
641247,282028,264276,328892,328892,1006,2589,-2433,-867,1357,-3368,-2076,5485,127,86,846,1254,1416,1135,1280,1347,1066,1305,1439
642248,282620,264676,329498,329498,1231,2869,-2358,-1011,1462,-3555,-3846,4718,124,54,843,1254,1416,1135,1280,1347,1066,1305,1439
643249,283328,265048,330104,330104,503,3050,-2382,-1223,1522,-4286,-987,7574,133,42,832,1254,1416,1135,1280,1347,1066,1305,1439
644250,283952,265476,330710,330710,1028,2704,-2641,-1795,1656,-5079,-4907,4970,125,12,832,1254,1416,1135,1280,1347,1066,1305,1439
645251,284636,265852,331316,331316,651,3035,-3011,-2620,1719,-5636,-738,5297,134,-11,836,1254,1416,1135,1280,1347,1066,1305,1439
646252,285268,266180,331922,331922,976,3342,-3352,-3570,1732,-4988,1355,4339,144,10,832,1254,1416,1135,1280,1347,1066,1305,1439
647253,285916,266512,332528,332528,874,3323,-3775,-4205,1481,-2120,-385,3080,128,-25,819,1254,1416,1135,1280,1347,1066,1305,1439
648254,286664,266912,333134,333134,246,2903,-4160,-4598,1365,-5542,3445,1890,139,-104,819,1254,1416,1135,1280,1347,1066,1305,1439
649255,287320,267284,333740,333740,820,3084,-4348,-4607,1122,-3793,2109,1855,142,-94,833,1254,1416,1135,1280,1347,1066,1305,1439
650256,288040,267624,334346,334346,417,3290,-4269,-4220,732,537,2356,1574,144,-4,826,1254,1416,1135,1280,1347,1066,1305,1439
651257,288752,267948,334952,334952,464,3397,-3945,-4047,544,1819,2384,1560,144,-43,824,1254,1416,1135,1280,1347,1066,1305,1439
652258,289460,268392,335558,335558,487,2651,-3767,-4143,523,1388,2368,4141,148,-74,822,1254,1416,1135,1280,1347,1066,1305,1439
653259,290180,268928,336164,336164,409,2078,-3678,-4468,572,207,3116,3067,132,-162,844,1254,1416,1135,1280,1347,1066,1305,1439
654260,291004,269352,336770,336770,-246,2782,-3588,-4529,780,-51,3648,2657,131,24,858,1254,1416,1135,1280,1347,1066,1305,1439
655261,291776,269712,337376,337376,75,3188,-3466,-4160,685,1713,1822,2700,144,37,839,1254,1416,1135,1280,1347,1066,1305,1439
656262,292572,270128,337982,337982,-80,2843,-3232,-3757,509,1074,1409,3241,146,3,827,1254,1416,1135,1280,1347,1066,1305,1439
657263,293288,270576,338588,338588,417,2647,-2834,-3828,424,213,5222,3975,155,-49,836,1254,1416,1135,1280,1347,1066,1305,1439
658264,293972,271012,339194,339194,616,2726,-2532,-4438,415,-630,6206,4752,152,-14,842,1254,1416,1135,1280,1347,1066,1305,1439
659265,294740,271312,339800,339800,87,3584,-2413,-4940,464,-744,5632,4317,146,-6,839,1254,1416,1135,1280,1347,1066,1305,1439
660266,295400,271624,340406,340406,760,3516,-2475,-5107,753,-3228,1777,2829,150,-7,815,1254,1416,1135,1280,1347,1066,1305,1439
661267,296112,272032,341012,341012,433,2921,-2449,-5392,1046,-4433,1129,2520,155,-224,815,1254,1416,1135,1280,1347,1066,1305,1439
662268,296812,272556,341618,341618,505,2198,-2380,-5458,1393,-3534,-1569,1427,149,-206,836,1254,1416,1135,1280,1347,1066,1305,1439
663269,297488,273072,342224,342224,654,2250,-2129,-5660,1660,-2895,2261,-204,155,17,857,1254,1416,1135,1280,1347,1066,1305,1439
664270,298276,273520,342830,342830,-51,2679,-1948,-5683,1720,-2375,1785,2794,133,65,855,1254,1416,1135,1280,1347,1066,1305,1439
665271,298976,274152,343436,343436,497,1528,-2036,-5816,1733,-2976,1226,519,130,63,851,1254,1416,1135,1280,1347,1066,1305,1439
666272,299604,274852,344064,344064,947,1101,-2282,-5976,1875,-1144,1144,1068,145,58,871,1254,1416,1135,1280,1347,1066,1305,1439
667273,300260,275528,344670,344670,771,1250,-2318,-6031,2099,-25,-2250,-1463,135,94,876,1254,1416,1135,1280,1347,1066,1305,1439
668274,301004,276308,345276,345276,217,595,-1959,-5998,2180,-1538,-186,1962,142,96,876,1254,1416,1135,1280,1347,1066,1305,1439
669275,301676,277036,345882,345882,666,917,-1613,-6020,1862,92,-1706,1382,145,95,890,1254,1416,1135,1280,1347,1066,1305,1439
670276,302436,277808,346488,346488,112,638,-1397,-6173,1597,1573,484,1492,141,107,882,1254,1416,1135,1280,1347,1066,1305,1439
671277,303100,278472,347094,347094,711,1312,-1252,-6053,1623,1952,435,954,147,105,890,1254,1416,1135,1280,1347,1066,1305,1439
672278,303844,279212,347700,347700,207,834,-1060,-5748,1650,1628,1061,212,160,103,876,1254,1416,1135,1280,1347,1066,1305,1439
673279,304536,279896,348306,348306,530,1182,-864,-5074,1536,591,288,1330,152,116,888,1254,1416,1135,1280,1347,1066,1305,1439
674280,305244,280584,348912,348912,428,1155,-765,-4541,1494,367,1401,399,152,109,880,1254,1416,1135,1280,1347,1066,1305,1439
675281,306008,281272,349518,349518,74,1153,-748,-4248,1626,1693,2195,93,158,99,881,1254,1416,1135,1280,1347,1066,1305,1439
676282,306700,281924,350124,350124,522,1377,-866,-4246,1819,1695,2108,-2085,150,103,882,1254,1416,1135,1280,1347,1066,1305,1439
677283,307408,282648,350730,350730,419,924,-1076,-4263,1948,507,2156,-2521,143,123,878,1254,1416,1135,1280,1347,1066,1305,1439
678284,308112,283360,351336,351336,442,996,-1238,-3941,2012,-519,1981,-1007,155,103,884,1254,1416,1135,1280,1347,1066,1305,1439
679285,308848,283992,351942,351942,239,1495,-1483,-3499,2028,-883,1690,-1461,140,122,883,1254,1416,1135,1280,1347,1066,1305,1439
680286,309552,284732,352548,352548,436,817,-1553,-3326,2230,-839,944,-257,142,116,878,1254,1416,1135,1280,1347,1066,1305,1439
681287,310276,285368,353154,353154,308,1466,-1747,-3523,2616,-682,-351,-2432,152,123,886,1254,1416,1135,1280,1347,1066,1305,1439
682288,310908,286128,353760,353760,883,688,-1985,-3425,2941,-305,-474,576,126,106,878,1254,1416,1135,1280,1347,1066,1305,1439
683289,311540,286824,354366,354366,882,1085,-2127,-3212,3119,-875,-1967,319,132,119,881,1254,1416,1135,1280,1347,1066,1305,1439
684290,312164,287564,354972,354972,932,807,-2110,-3342,3052,-835,-3083,-1841,139,119,879,1254,1416,1135,1280,1347,1066,1305,1439
685291,312724,288076,355578,355578,1333,2234,-1671,-3278,2964,-1033,-3848,5702,125,121,881,1254,1416,1135,1280,1347,1066,1305,1439
686292,313328,288748,356184,356184,1058,1233,-1443,-2253,2836,1309,-4566,2759,114,112,852,1254,1416,1135,1280,1347,1066,1305,1439
687293,313792,289316,356790,356790,1936,1884,-1092,-1580,3245,-1115,-1238,2951,105,113,873,1254,1416,1135,1280,1347,1066,1305,1439
688294,314244,289884,357396,357396,2015,1885,-866,-1275,3284,970,-1271,5077,110,127,846,1254,1416,1135,1280,1347,1066,1305,1439
689295,314652,290552,358002,358002,2295,1258,-478,-1371,2808,-692,-4848,7144,81,122,845,1254,1416,1135,1280,1347,1066,1305,1439
690296,315004,291140,358608,358608,2651,1759,-620,-111,2369,1240,-4519,9581,77,134,847,1254,1416,1135,1280,1347,1066,1305,1439
691297,315372,291684,359214,359214,2557,2035,-601,1263,2344,3986,-3416,6964,57,135,832,1254,1416,1135,1280,1347,1066,1305,1439
692298,315696,292316,359820,359820,2839,1485,-382,1429,2599,1208,-2098,5308,33,134,829,1254,1416,1135,1280,1347,1066,1305,1439
693299,315988,292948,360448,360448,3047,1484,-378,793,2612,-2201,-1102,5117,53,134,828,1254,1416,1135,1280,1347,1066,1305,1439
694300,316268,293512,361054,361054,3130,1910,-692,1082,2332,-1462,-2175,6212,23,133,820,1254,1416,1135,1280,1347,1066,1305,1439
695301,316512,294160,361660,361660,3364,1384,-776,1677,2186,1309,-788,3651,-20,131,811,1254,1416,1135,1280,1347,1066,1305,1439
696302,316728,294868,362266,362266,3548,1007,-639,2163,2370,2555,444,6886,-49,126,808,1254,1416,1135,1280,1347,1066,1305,1439
697303,316960,295500,362872,362872,3457,1481,-618,2535,2690,-306,-1382,8921,-184,125,805,1254,1416,1135,1280,1347,1066,1305,1439
698304,317172,296136,363478,363478,3592,1456,-691,2856,2788,-768,241,10482,-264,133,806,1254,1416,1135,1280,1347,1066,1305,1439
699305,317356,296800,364084,364084,3777,1279,-507,3197,2781,2035,-709,9794,-305,143,799,1254,1416,1135,1280,1347,1066,1305,1439
700306,317544,297448,364690,364690,3763,1378,21,3585,3092,776,-2735,8354,-252,138,789,1254,1416,1135,1280,1347,1066,1305,1439
701307,317748,298212,365296,365296,3672,649,531,3829,3353,1194,-940,10097,212,136,793,1254,1416,1135,1280,1347,1066,1305,1439
702308,317988,298884,365902,365902,3456,1223,1009,3799,3630,1250,-1942,10279,138,149,804,1254,1416,1135,1280,1347,1066,1305,1439
703309,318216,299556,366508,366508,3541,1221,1419,4047,3929,2618,-2635,12209,-111,135,808,1254,1416,1135,1280,1347,1066,1305,1439
704310,318452,300228,367114,367114,3500,1219,2018,4693,4027,3585,-2613,11769,-255,153,805,1254,1416,1135,1280,1347,1066,1305,1439
705311,318696,300964,367720,367720,3458,816,2762,5363,4024,2869,-2788,10573,-283,130,805,1254,1416,1135,1280,1347,1066,1305,1439
706312,318924,301772,368326,368326,3568,361,3345,5797,3962,3107,-1403,10944,-269,125,810,1254,1416,1135,1280,1347,1066,1305,1439
707313,319144,302492,368932,368932,3627,909,3569,6080,3853,3268,-1096,12504,-267,143,813,1254,1416,1135,1280,1347,1066,1305,1439
708314,319416,303108,369538,369538,3310,1558,3502,6461,3847,3258,-2541,11098,-274,145,806,1254,1416,1135,1280,1347,1066,1305,1439
709315,319676,303764,370144,370144,3394,1307,3535,6762,3946,2523,-1275,10987,-197,120,812,1254,1416,1135,1280,1347,1066,1305,1439
710316,319960,304444,370750,370750,3251,1155,3644,7001,3895,3089,-33,9021,-174,141,811,1254,1416,1135,1280,1347,1066,1305,1439
711317,320240,305232,371356,371356,3284,476,3654,7271,3816,2583,-988,10330,-201,133,817,1254,1416,1135,1280,1347,1066,1305,1439
712318,320560,305928,371962,371962,3041,1049,3495,7621,3759,1819,404,9416,-100,142,824,1254,1416,1135,1280,1347,1066,1305,1439
713319,320912,306636,372568,372568,2848,971,3301,7802,3797,809,461,8270,-101,151,826,1254,1416,1135,1280,1347,1066,1305,1439
714320,321272,307348,373174,373174,2804,944,3193,7715,3989,-25,111,8359,3,128,835,1254,1416,1135,1280,1347,1066,1305,1439
715321,321652,308068,373780,373780,2684,891,3176,7714,4134,750,1090,6438,18,139,838,1254,1416,1135,1280,1347,1066,1305,1439
716322,322040,308904,374386,374386,2639,160,3403,7521,4299,914,-1920,5294,26,148,840,1254,1416,1135,1280,1347,1066,1305,1439
717323,322436,309676,374992,374992,2595,556,3648,7110,4366,978,-1424,4956,44,129,845,1254,1416,1135,1280,1347,1066,1305,1439
718324,322880,310400,375598,375598,2299,853,3949,6873,4474,1160,210,6834,56,140,846,1254,1416,1135,1280,1347,1066,1305,1439
719325,323328,311184,376204,376204,2277,474,4255,6922,4690,2431,-2430,7373,53,126,853,1254,1416,1135,1280,1347,1066,1305,1439
720326,323760,312088,376832,376832,2382,-283,4784,6747,4813,1736,-95,4052,79,140,858,1254,1416,1135,1280,1347,1066,1305,1439
721327,324256,312852,377438,377438,1985,588,5416,6572,4839,1141,-2451,4632,88,148,856,1254,1416,1135,1280,1347,1066,1305,1439
722328,324776,313636,378044,378044,1837,459,6043,6354,4775,2293,725,2567,79,140,863,1254,1416,1135,1280,1347,1066,1305,1439
723329,325304,314492,378650,378650,1789,3,6582,5976,4671,2883,705,3706,86,130,868,1254,1416,1135,1280,1347,1066,1305,1439
724330,325908,315244,379256,379256,1314,649,6739,5603,4379,3554,1630,3466,102,137,873,1254,1416,1135,1280,1347,1066,1305,1439
725331,326440,316108,379862,379862,1766,-57,6742,5195,3890,2815,3006,1900,105,132,876,1254,1416,1135,1280,1347,1066,1305,1439
726332,327012,316816,380468,380468,1517,916,6492,4921,3283,2795,2503,629,108,138,873,1254,1416,1135,1280,1347,1066,1305,1439
727333,327588,317472,381074,381074,1492,1239,6066,4726,2716,2509,4862,487,98,143,871,1254,1416,1135,1280,1347,1066,1305,1439
728334,328188,318188,381680,381680,1342,862,5064,4527,2251,2364,4381,1252,125,144,868,1254,1416,1135,1280,1347,1066,1305,1439
729335,328816,318908,382286,382286,1167,834,3967,4486,2288,-1277,54,2561,120,145,874,1254,1416,1135,1280,1347,1066,1305,1439
730336,329424,319592,382892,382892,1292,1057,3119,3386,2540,-2032,2844,2187,129,152,877,1254,1416,1135,1280,1347,1066,1305,1439
731337,330032,320224,383498,383498,1292,1381,3061,1830,2385,4249,2585,2000,126,134,874,1254,1416,1135,1280,1347,1066,1305,1439
732338,330632,320840,384104,384104,1342,1481,3110,1419,2014,5050,5406,5012,134,144,869,1254,1416,1135,1280,1347,1066,1305,1439
733339,331248,321448,384710,384710,1242,1531,2721,2205,2083,2833,-1897,3618,123,140,866,1254,1416,1135,1280,1347,1066,1305,1439
734340,331888,321996,385316,385316,1091,1907,1888,3973,2622,4107,-9630,3714,139,126,865,1254,1416,1135,1280,1347,1066,1305,1439
735341,332540,322552,385922,385922,1015,1859,1687,3985,3355,2406,-9801,374,148,138,865,1254,1416,1135,1280,1347,1066,1305,1439
736342,333200,323060,386528,386528,963,2161,2108,2823,3702,-3363,-9768,-2964,140,131,865,1254,1416,1135,1280,1347,1066,1305,1439
737343,333880,323596,387134,387134,837,1988,2911,2059,3084,-5012,-4625,4806,147,121,861,1254,1416,1135,1280,1347,1066,1305,1439
738344,334536,324108,387740,387740,985,2140,3529,2052,2438,-1572,-7070,6598,139,124,865,1254,1416,1135,1280,1347,1066,1305,1439
739345,335220,324664,388346,388346,809,1866,3522,2229,2619,2531,-7894,4531,147,130,860,1254,1416,1135,1280,1347,1066,1305,1439
740346,335932,325136,388952,388952,631,2395,3045,1977,3077,2422,-4771,4907,138,127,868,1254,1416,1135,1280,1347,1066,1305,1439
741347,336572,325612,389558,389558,1080,2373,2624,2059,2849,-3093,-263,7039,147,121,857,1254,1416,1135,1280,1347,1066,1305,1439
742348,337192,326068,390164,390164,1205,2501,2325,1934,2141,-5631,2037,3605,140,113,853,1254,1416,1135,1280,1347,1066,1305,1439
743349,337872,326540,390770,390770,828,2405,1821,1235,1606,-3215,1066,1056,130,103,851,1254,1416,1135,1280,1347,1066,1305,1439
744350,338572,327024,391376,391376,701,2333,786,-395,1467,-3708,3352,-3723,154,107,855,1254,1416,1135,1280,1347,1066,1305,1439
745351,339300,327528,391982,391982,523,2210,-529,-1725,1308,-5736,4636,180,128,96,857,1254,1416,1135,1280,1347,1066,1305,1439
746352,339984,328000,392588,392588,796,2413,-1598,-2285,853,-4291,6555,-170,145,103,861,1254,1416,1135,1280,1347,1066,1305,1439
747353,340680,328440,393216,393216,719,2618,-2362,-2787,297,-1542,4280,-1274,143,107,856,1254,1416,1135,1280,1347,1066,1305,1439
748354,341376,328920,393822,393822,717,2371,-2849,-3064,-89,-112,3509,-317,137,85,849,1254,1416,1135,1280,1347,1066,1305,1439
749355,342088,329460,394428,394428,614,1998,-3193,-3458,-270,421,-233,1152,143,76,856,1254,1416,1135,1280,1347,1066,1305,1439
750356,342796,329972,395034,395034,637,2175,-3248,-3839,-284,176,2413,2546,155,90,863,1254,1416,1135,1280,1347,1066,1305,1439
751357,343508,330460,395640,395640,609,2328,-3186,-3676,-470,3258,-2161,2329,143,101,857,1254,1416,1135,1280,1347,1066,1305,1439
752358,344140,330980,396246,396246,1109,2130,-3007,-3360,-423,1402,498,4747,128,94,856,1254,1416,1135,1280,1347,1066,1305,1439
753359,344840,331512,396852,396852,681,2057,-2932,-2722,-306,2590,-3899,5602,140,75,852,1254,1416,1135,1280,1347,1066,1305,1439
754360,345480,332036,397458,397458,1055,2109,-2848,-1978,-262,2030,-3799,4939,124,86,861,1254,1416,1135,1280,1347,1066,1305,1439
755361,346116,332540,398064,398064,1080,2236,-2590,-1790,-24,-1667,-4546,5361,121,84,854,1254,1416,1135,1280,1347,1066,1305,1439
757363,347392,333460,399276,399276,1328,2718,-2386,-2009,126,-2918,666,6071,115,57,849,1254,1416,1135,1280,1347,1066,1305,1439
758364,347920,333920,399882,399882,1755,2522,-2624,-2092,140,-2613,-2970,3528,112,51,835,1254,1416,1135,1280,1347,1066,1305,1439
759365,348460,334428,400488,400488,1682,2224,-3010,-1879,29,-3426,1142,5108,129,28,829,1254,1416,1135,1280,1347,1066,1305,1439
760366,349024,334876,401094,401094,1533,2603,-3303,-1807,-47,-4745,4325,5402,109,37,839,1254,1416,1135,1280,1347,1066,1305,1439
761367,349604,335244,401700,401700,1433,3109,-3652,-1626,-153,-2623,935,5305,106,42,831,1254,1416,1135,1280,1347,1066,1305,1439
762368,350152,335688,402306,402306,1635,2638,-3999,-1656,-382,-3513,4481,7130,114,26,818,1254,1416,1135,1280,1347,1066,1305,1439
763369,350652,336164,402912,402912,1937,2441,-4305,-1800,-761,-4238,6508,6498,109,-43,824,1254,1416,1135,1280,1347,1066,1305,1439
764370,351228,336572,403518,403518,1463,2871,-4470,-1981,-1088,-2592,5691,5170,118,19,828,1254,1416,1135,1280,1347,1066,1305,1439
765371,351728,336920,404124,404124,1941,3252,-4477,-1967,-1335,-586,6924,2057,101,13,824,1254,1416,1135,1280,1347,1066,1305,1439
766372,352272,337232,404730,404730,1667,3484,-4313,-1744,-1597,-1083,3815,3421,106,-26,806,1254,1416,1135,1280,1347,1066,1305,1439
767373,352880,337672,405336,405336,1267,2688,-3895,-1321,-1945,-2756,7259,4292,109,-78,803,1254,1416,1135,1280,1347,1066,1305,1439
768374,353388,338208,405942,405942,1895,2090,-3675,-1051,-2226,-1704,3936,4123,104,-188,828,1254,1416,1135,1280,1347,1066,1305,1439
769375,353956,338636,406548,406548,1520,2770,-3302,-1110,-2241,-2287,6174,529,107,25,838,1254,1416,1135,1280,1347,1066,1305,1439
770376,354484,339040,407154,407154,1772,2924,-2993,-1342,-2280,-1687,5775,-40,100,47,821,1254,1416,1135,1280,1347,1066,1305,1439
771377,355028,339488,407760,407760,1674,2653,-2642,-1453,-2394,-1968,3252,511,98,10,817,1254,1416,1135,1280,1347,1066,1305,1439
772378,355648,340000,408366,408366,1199,2256,-2293,-1238,-2453,-2322,7544,392,94,-7,829,1254,1416,1135,1280,1347,1066,1305,1439
773379,356216,340528,408972,408972,1524,2157,-2005,-1345,-2338,-2065,2055,-2062,108,15,847,1254,1416,1135,1280,1347,1066,1305,1439
774380,356812,340996,409600,409600,1350,2536,-1687,-1683,-2213,-3604,5214,-2564,105,51,844,1254,1416,1135,1280,1347,1066,1305,1439
775381,357468,341424,410206,410206,974,2791,-1706,-2293,-2076,-3565,2089,468,116,50,836,1254,1416,1135,1280,1347,1066,1305,1439
776382,358140,341904,410812,410812,872,2469,-1993,-2800,-1615,-3131,1088,-571,123,26,833,1254,1416,1135,1280,1347,1066,1305,1439
777383,358828,342384,411418,411418,770,2472,-2608,-2414,-1364,1244,2426,2217,133,27,842,1254,1416,1135,1280,1347,1066,1305,1439
778384,359580,342988,412024,412024,367,1697,-3070,-3402,-1158,-2011,324,-10144,138,60,849,1254,1416,1135,1280,1347,1066,1305,1439
779385,360268,343552,412630,412630,765,1948,-2833,-3621,-1105,-2089,-1106,3269,128,61,869,1254,1416,1135,1280,1347,1066,1305,1439
780386,360912,344180,413236,413236,1039,1547,-2779,-2074,-1033,-1175,2123,6966,120,80,862,1254,1416,1135,1280,1347,1066,1305,1439
781387,361552,344944,413842,413842,1063,694,-3103,-1085,-393,-358,-3272,2755,150,96,867,1254,1416,1135,1280,1347,1066,1305,1439
782388,362164,345644,414448,414448,1238,1091,-3193,243,-779,9157,1414,7169,136,117,879,1254,1416,1135,1280,1347,1066,1305,1439
783389,362976,346528,415054,415054,-17,-66,-2726,1116,-1554,7440,2966,5767,143,113,874,1254,1416,1135,1280,1347,1066,1305,1439
784390,363660,347268,415660,415660,781,831,-2022,99,-1549,1991,-4813,2236,143,115,894,1254,1416,1135,1280,1347,1066,1305,1439
785391,364348,347940,416266,416266,754,1255,-2004,-144,-1864,3899,-468,7819,141,121,880,1254,1416,1135,1280,1347,1066,1305,1439
786392,365004,348516,416872,416872,953,1855,-2043,-276,-2309,2758,-3774,3907,133,120,878,1254,1416,1135,1280,1347,1066,1305,1439
787393,365676,348888,417478,417478,851,3136,-2245,536,-2472,1220,-4105,4144,162,123,865,1254,1416,1135,1280,1347,1066,1305,1439
788394,366468,349508,418084,418084,97,1586,-2198,395,-2337,-2379,846,-1044,136,103,838,1254,1416,1135,1280,1347,1066,1305,1439
789395,367124,350424,418690,418690,945,-272,-2115,-241,-2485,-987,2666,456,145,48,877,1254,1416,1135,1280,1347,1066,1305,1439
790396,367852,351376,419296,419296,492,-505,-2234,-743,-2638,-2130,2247,-4290,165,142,885,1254,1416,1135,1280,1347,1066,1305,1439
791397,368592,352224,419902,419902,414,139,-2317,-979,-2503,-4487,1505,-4789,153,122,886,1254,1416,1135,1280,1347,1066,1305,1439
792398,369312,353016,420508,420508,536,484,-2375,-1301,-2162,-4570,-534,-7687,150,143,893,1254,1416,1135,1280,1347,1066,1305,1439
793399,370036,353668,421114,421114,509,1358,-2156,-1356,-1816,-5064,-587,-3674,163,121,889,1254,1416,1135,1280,1347,1066,1305,1439
794400,370848,354332,421720,421720,-47,1282,-2021,-824,-1485,-2412,-376,-971,153,120,878,1254,1416,1135,1280,1347,1066,1305,1439
795401,371548,354968,422326,422326,651,1456,-1972,-435,-1149,1532,955,-1711,150,109,882,1254,1416,1135,1280,1347,1066,1305,1439
796402,372272,355568,422932,422932,498,1681,-2087,-492,-818,3141,1855,-2424,152,119,874,1254,1416,1135,1280,1347,1066,1305,1439
797403,372968,356196,423538,423538,671,1506,-2078,-599,-709,1712,1818,-2294,138,107,872,1254,1416,1135,1280,1347,1066,1305,1439
798404,373716,356776,424144,424144,343,1806,-2202,-495,-923,912,827,1028,148,120,875,1254,1416,1135,1280,1347,1066,1305,1439
799405,374516,357288,424750,424750,13,2234,-2365,-393,-1375,1351,1434,-37,148,119,870,1254,1416,1135,1280,1347,1066,1305,1439
800406,375236,357848,425356,425356,510,1935,-2480,-538,-1791,2656,371,2426,143,119,864,1254,1416,1135,1280,1347,1066,1305,1439
801407,375908,358464,425984,425984,809,1585,-2521,-884,-2150,3331,150,-33,162,113,868,1254,1416,1135,1280,1347,1066,1305,1439
802408,376616,359184,426590,426590,582,932,-2580,-1523,-2365,2458,-867,1140,138,137,870,1254,1416,1135,1280,1347,1066,1305,1439
803409,377256,359748,427196,427196,1006,1908,-2530,-2220,-2614,1425,-1937,-1272,129,140,883,1254,1416,1135,1280,1347,1066,1305,1439
804410,377944,360320,427802,427802,704,1859,-2372,-2359,-2877,-476,-1879,2906,157,132,866,1254,1416,1135,1280,1347,1066,1305,1439
805411,378632,360896,428408,428408,702,1835,-2039,-1812,-2979,-1013,-2730,4093,125,123,867,1254,1416,1135,1280,1347,1066,1305,1439
806412,379240,361452,429014,429014,1202,1961,-1427,-1667,-3355,5286,-2309,4968,136,127,869,1254,1416,1135,1280,1347,1066,1305,1439
807413,379796,362164,429620,429620,1528,983,-1037,-1212,-3030,-2012,-5715,7280,120,146,863,1254,1416,1135,1280,1347,1066,1305,1439
808414,380308,362788,430226,430226,1805,1533,-707,-1466,-2630,-2261,-1865,3769,112,146,869,1254,1416,1135,1280,1347,1066,1305,1439
809415,380780,363424,430832,430832,2058,1457,-334,-1535,-2212,-3970,-4483,6808,111,145,857,1254,1416,1135,1280,1347,1066,1305,1439
810416,381300,364060,431438,431438,1761,1456,129,-1434,-1849,-3759,-14,6647,112,150,855,1254,1416,1135,1280,1347,1066,1305,1439
811417,381752,364720,432044,432044,2189,1305,442,-1306,-1535,-2895,-391,5993,103,146,859,1254,1416,1135,1280,1347,1066,1305,1439
812418,382184,365428,432650,432650,2319,1003,519,-1114,-1168,-1909,952,7976,93,142,851,1254,1416,1135,1280,1347,1066,1305,1439
813419,382580,366136,433256,433256,2549,1000,494,-543,-874,787,2338,8013,72,139,849,1254,1416,1135,1280,1347,1066,1305,1439
814420,382972,366776,433862,433862,2579,1424,617,-260,-528,5,3863,7664,77,135,844,1254,1416,1135,1280,1347,1066,1305,1439
815421,383340,367372,434468,434468,2735,1700,667,857,-229,506,2960,12978,55,120,840,1254,1416,1135,1280,1347,1066,1305,1439
816422,383680,368020,435074,435074,2916,1374,717,1736,-27,2154,2176,9916,42,126,829,1254,1416,1135,1280,1347,1066,1305,1439
817423,384008,368640,435680,435680,2998,1548,830,2438,85,4324,648,10515,43,106,826,1254,1416,1135,1280,1347,1066,1305,1439
818424,384352,369264,436286,436286,2904,1523,1076,2381,238,3415,3637,7652,15,120,821,1254,1416,1135,1280,1347,1066,1305,1439
819425,384652,369880,436892,436892,3187,1573,1461,1754,284,133,1080,6079,8,104,819,1254,1416,1135,1280,1347,1066,1305,1439
820426,384952,370484,437498,437498,3194,1648,1847,1231,104,-896,1885,7982,12,113,816,1254,1416,1135,1280,1347,1066,1305,1439
821427,385272,371124,438104,438104,3076,1422,2240,946,50,-1259,-516,9634,-74,97,814,1254,1416,1135,1280,1347,1066,1305,1439
822428,385564,371740,438710,438710,3259,1572,2613,1238,59,87,-1140,12026,-86,114,819,1254,1416,1135,1280,1347,1066,1305,1439
823429,385864,372284,439316,439316,3216,2023,3061,1531,13,52,-774,12751,-26,97,810,1254,1416,1135,1280,1347,1066,1305,1439
824430,386172,372872,439922,439922,3174,1748,3532,1815,150,136,-964,14052,-104,90,804,1254,1416,1135,1280,1347,1066,1305,1439
825431,386468,373408,440528,440528,3256,2075,4022,1964,534,1531,-3646,11753,-61,87,811,1254,1416,1135,1280,1347,1066,1305,1439
826432,386856,374080,441134,441134,2687,1224,4417,2132,886,576,-3217,11351,-40,102,807,1254,1416,1135,1280,1347,1066,1305,1439
827433,387196,374660,441740,441740,2993,1799,4685,2103,1051,-1239,-416,11656,-88,88,833,1254,1416,1135,1280,1347,1066,1305,1439
828434,387568,375292,442368,442368,2799,1474,4663,2512,1268,-628,-1316,14536,29,113,820,1254,1416,1135,1280,1347,1066,1305,1439
829435,387932,375916,442974,442974,2855,1524,4490,3273,1733,1619,-737,14248,-1,100,828,1254,1416,1135,1280,1347,1066,1305,1439
830436,388300,376548,443580,443580,2836,1473,4380,4090,2324,527,-929,14480,25,123,826,1254,1416,1135,1280,1347,1066,1305,1439
831437,388712,377264,444186,444186,2566,945,4327,5029,2842,-1903,-26,12898,21,104,828,1254,1416,1135,1280,1347,1066,1305,1439
832438,389156,377948,444792,444792,2370,1143,4510,5459,3189,-2125,-422,11199,30,123,845,1254,1416,1135,1280,1347,1066,1305,1439
833439,389612,378628,445398,445398,2298,1167,4628,5652,3439,-2321,-312,11113,65,126,848,1254,1416,1135,1280,1347,1066,1305,1439
834440,390104,379304,446004,446004,2076,1190,4796,5435,3673,-1538,-47,10265,67,114,848,1254,1416,1135,1280,1347,1066,1305,1439
835441,390636,380052,446610,446610,1828,736,4961,5396,3725,-753,1573,10579,76,119,854,1254,1416,1135,1280,1347,1066,1305,1439
836442,391148,380852,447216,447216,1955,407,5283,5475,3624,-992,-332,8243,88,120,862,1254,1416,1135,1280,1347,1066,1305,1439
837443,391752,381604,447822,447822,1380,703,5593,5383,3526,-804,797,6122,105,132,868,1254,1416,1135,1280,1347,1066,1305,1439
838444,392340,382316,448428,448428,1481,951,5911,5261,3501,-792,217,4074,112,135,874,1254,1416,1135,1280,1347,1066,1305,1439
839445,392900,383036,449034,449034,1657,898,5894,5015,3263,116,19,2423,122,130,870,1254,1416,1135,1280,1347,1066,1305,1439
840446,393488,383708,449640,449640,1482,1196,5746,4817,2750,2412,1930,1740,119,136,869,1254,1416,1135,1280,1347,1066,1305,1439
841447,394084,384484,450246,450246,1433,542,5291,4321,2510,1239,198,1336,132,135,869,1254,1416,1135,1280,1347,1066,1305,1439
842448,394768,385136,450852,450852,881,1316,4582,4361,2373,2208,970,4672,120,148,876,1254,1416,1135,1280,1347,1066,1305,1439
843449,395424,385804,451458,451458,1055,1214,3829,4490,2342,3801,1333,3122,119,146,874,1254,1416,1135,1280,1347,1066,1305,1439
844450,396020,386440,452064,452064,1430,1414,3257,4487,2534,4358,-753,1813,141,146,875,1254,1416,1135,1280,1347,1066,1305,1439
845451,396656,387136,452670,452670,1179,1036,2817,4335,2783,2897,-1963,1710,144,150,866,1254,1416,1135,1280,1347,1066,1305,1439
846452,397268,387732,453276,453276,1329,1662,2645,3913,2834,2848,515,1226,135,144,875,1254,1416,1135,1280,1347,1066,1305,1439
847453,397912,388284,453882,453882,1128,1938,2481,3184,2960,1428,-1849,1917,137,151,867,1254,1416,1135,1280,1347,1066,1305,1439
848454,398596,388768,454488,454488,876,2366,2376,3214,3183,2223,-2740,3853,137,128,862,1254,1416,1135,1280,1347,1066,1305,1439
849455,399244,389260,455094,455094,1100,2319,2562,3278,3495,3343,-3127,1368,128,133,857,1254,1416,1135,1280,1347,1066,1305,1439
850456,399908,389780,455700,455700,999,2146,3101,3389,3675,4224,-3810,1083,149,120,857,1254,1416,1135,1280,1347,1066,1305,1439
851457,400584,390292,456306,456306,922,2198,3486,2894,3579,2394,-3325,-2135,143,123,860,1254,1416,1135,1280,1347,1066,1305,1439
852458,401228,390768,456912,456912,1121,2426,3522,2072,3268,389,-1964,-1318,129,138,862,1254,1416,1135,1280,1347,1066,1305,1439
853459,401940,391216,457518,457518,693,2605,3104,876,2788,1067,-3751,-7185,148,130,851,1254,1416,1135,1280,1347,1066,1305,1439
854460,402600,391656,458124,458124,1017,2659,2478,615,2121,-296,3964,829,136,125,849,1254,1416,1135,1280,1347,1066,1305,1439
855461,403296,392212,458752,458752,790,1936,1631,960,1106,1859,7224,41,139,106,850,1254,1416,1135,1280,1347,1066,1305,1439
856462,403948,392768,459358,459358,1064,1937,787,1348,987,-180,-2848,7095,154,117,862,1254,1416,1135,1280,1347,1066,1305,1439
857463,404600,393340,459964,459964,1063,1838,-129,1077,1730,-1255,-319,6525,145,126,863,1254,1416,1135,1280,1347,1066,1305,1439
858464,405248,393888,460570,460570,1087,1989,-1204,60,2609,-6752,-2696,2414,125,137,866,1254,1416,1135,1280,1347,1066,1305,1439
859465,405996,394456,461176,461176,459,1865,-1710,-244,2206,-3764,3630,4644,150,128,861,1254,1416,1135,1280,1347,1066,1305,1439
860466,406672,395080,461782,461782,907,1515,-1421,-126,1390,-933,-1345,56,131,104,868,1254,1416,1135,1280,1347,1066,1305,1439
861467,407308,395664,462388,462388,1156,1766,-1034,386,1524,-1706,-2830,5211,121,115,871,1254,1416,1135,1280,1347,1066,1305,1439
862468,407976,396236,462994,462994,955,1841,-960,782,2045,-1576,-3644,1763,135,109,862,1254,1416,1135,1280,1347,1066,1305,1439
863469,408628,396816,463600,463600,1054,1792,-888,393,2054,-2590,2442,1471,125,109,863,1254,1416,1135,1280,1347,1066,1305,1439
864470,409344,397380,464206,464206,651,1893,-732,-159,1435,-1000,-168,442,124,100,863,1254,1416,1135,1280,1347,1066,1305,1439
865471,410032,397988,464812,464812,824,1618,-628,-897,1120,-438,2023,215,139,99,864,1254,1416,1135,1280,1347,1066,1305,1439
866472,410732,398528,465418,465418,747,2045,-833,-1383,1293,2375,-2687,1275,136,83,866,1254,1416,1135,1280,1347,1066,1305,1439
867473,411404,398968,466024,466024,920,2674,-1282,-1658,1358,881,358,1196,126,73,858,1254,1416,1135,1280,1347,1066,1305,1439
868474,412168,399392,466630,466630,341,2778,-1591,-1758,1144,-3091,3385,1813,148,63,842,1254,1416,1135,1280,1347,1066,1305,1439
869475,412976,399940,467236,467236,61,2004,-1817,-1798,706,-4522,1243,772,139,28,843,1254,1416,1135,1280,1347,1066,1305,1439
870476,413588,400444,467842,467842,1286,2282,-2044,-2171,556,-6274,3366,1565,138,22,859,1254,1416,1135,1280,1347,1066,1305,1439
871477,414156,400860,468448,468448,1562,2837,-2468,-2625,584,-3589,2630,1602,147,64,848,1254,1416,1135,1280,1347,1066,1305,1439
872478,414824,401380,469054,469054,935,2189,-2993,-2832,472,-2563,567,1897,143,46,829,1254,1416,1135,1280,1347,1066,1305,1439
873479,415516,401856,469660,469660,783,2467,-3404,-3141,403,-5417,2162,2597,132,3,848,1254,1416,1135,1280,1347,1066,1305,1439
874480,416228,402304,470266,470266,656,2646,-3651,-3598,439,-4878,1143,3018,162,51,847,1254,1416,1135,1280,1347,1066,1305,1439
875481,417036,402684,470872,470872,51,3076,-3809,-3826,445,-2200,-335,2281,143,35,843,1254,1416,1135,1280,1347,1066,1305,1439
876482,417760,403144,471478,471478,573,2580,-3757,-3905,486,-2132,482,2365,137,15,835,1254,1416,1135,1280,1347,1066,1305,1439
877483,418460,403624,472084,472084,721,2458,-3671,-3749,491,-1641,565,4577,150,-42,843,1254,1416,1135,1280,1347,1066,1305,1439
878484,419244,404088,472690,472690,191,2561,-3505,-3188,459,-7,821,5930,157,35,846,1254,1416,1135,1280,1347,1066,1305,1439
879485,420028,404576,473296,473296,187,2414,-3398,-2618,535,1602,1004,6348,145,41,847,1254,1416,1135,1280,1347,1066,1305,1439
880486,420852,405068,473902,473902,-68,2392,-3275,-2176,545,1874,604,5055,168,37,851,1254,1416,1135,1280,1347,1066,1305,1439
881487,421564,405596,474508,474508,629,2169,-3102,-2012,533,162,2986,4483,148,46,855,1254,1416,1135,1280,1347,1066,1305,1439
882488,422336,406120,475136,475136,251,2196,-2851,-1716,482,-221,1755,3174,152,46,857,1254,1416,1135,1280,1347,1066,1305,1439
883489,423236,406588,475742,475742,-557,2550,-2689,-1406,490,-16,1466,3014,143,57,857,1254,1416,1135,1280,1347,1066,1305,1439
884490,424060,407204,476348,476348,-87,1625,-2629,-1164,642,-138,2584,3743,154,50,846,1254,1416,1135,1280,1347,1066,1305,1439
885491,424832,407732,476954,476954,234,2176,-2822,-1240,718,306,4701,2668,152,33,868,1254,1416,1135,1280,1347,1066,1305,1439
886492,425568,408192,477560,477560,456,2605,-3047,-1757,632,-1046,6923,1174,152,79,862,1254,1416,1135,1280,1347,1066,1305,1439
887493,426160,408724,478166,478166,1356,2157,-3241,-2272,612,-3184,5039,-1216,131,58,848,1254,1416,1135,1280,1347,1066,1305,1439
888494,426932,409280,478772,478772,227,2008,-3431,-2357,801,-5521,824,-1005,142,51,850,1254,1416,1135,1280,1347,1066,1305,1439
889495,427656,409932,479378,479378,524,1407,-3684,-2301,901,-2380,1685,652,144,72,863,1254,1416,1135,1280,1347,1066,1305,1439
890496,428360,410556,479984,479984,647,1582,-3756,-2491,1092,-1246,1220,-1266,140,85,874,1254,1416,1135,1280,1347,1066,1305,1439
891497,429192,411240,480590,480590,-159,1205,-3707,-2476,1078,-1152,1813,654,158,98,871,1254,1416,1135,1280,1347,1066,1305,1439
892498,429892,411840,481196,481196,664,1730,-3527,-2297,1001,-2763,1365,1206,137,94,880,1254,1416,1135,1280,1347,1066,1305,1439
893499,430572,412624,481802,481802,787,575,-3268,-2291,1062,-1630,-481,-1421,137,107,870,1254,1416,1135,1280,1347,1066,1305,1439
894500,431284,413360,482408,482408,585,872,-2906,-2150,1161,-967,-613,852,162,109,883,1254,1416,1135,1280,1347,1066,1305,1439
895501,431988,414104,483014,483014,632,819,-2506,-1650,1151,404,193,1130,145,112,884,1254,1416,1135,1280,1347,1066,1305,1439
896502,432688,414776,483620,483620,655,1267,-1990,-1563,1020,468,955,259,136,116,884,1254,1416,1135,1280,1347,1066,1305,1439
897503,433384,415420,484226,484226,678,1441,-1601,-1656,860,220,2185,-530,147,110,878,1254,1416,1135,1280,1347,1066,1305,1439
898504,434096,416364,484832,484832,575,-442,-1327,-1951,822,572,1957,-109,140,116,876,1254,1416,1135,1280,1347,1066,1305,1439
899505,434796,417096,485438,485438,648,880,-1239,-1955,797,1658,1771,-1086,150,133,886,1254,1416,1135,1280,1347,1066,1305,1439
900506,435540,417796,486044,486044,370,1078,-1135,-1231,594,4845,1438,1979,157,126,884,1254,1416,1135,1280,1347,1066,1305,1439
901507,436284,418444,486650,486650,366,1402,-812,-725,306,4378,3111,2822,137,128,884,1254,1416,1135,1280,1347,1066,1305,1439
902508,437092,419008,487256,487256,-39,1928,-598,-220,70,4727,1997,4060,159,141,879,1254,1416,1135,1280,1347,1066,1305,1439
903509,437840,419764,487862,487862,333,724,-439,176,-81,5762,838,4726,148,129,872,1254,1416,1135,1280,1347,1066,1305,1439
904510,438524,420460,488468,488468,731,1097,-418,799,-212,7959,-765,5186,141,123,884,1254,1416,1135,1280,1347,1066,1305,1439
905511,439272,421172,489074,489074,327,994,-319,1596,-341,9026,-4339,4074,161,154,881,1254,1416,1135,1280,1347,1066,1305,1439
906512,439996,421968,489680,489680,474,465,31,2536,-588,9779,-4467,4900,143,139,884,1254,1416,1135,1280,1347,1066,1305,1439
907513,440788,422680,490286,490286,45,987,477,3274,-864,9999,-3624,4882,138,139,890,1254,1416,1135,1280,1347,1066,1305,1439
908514,441524,423364,490892,490892,392,1160,672,3767,-1151,10754,-5101,3420,154,147,887,1254,1416,1135,1280,1347,1066,1305,1439
909515,442228,424044,491520,491520,590,1184,737,3744,-1224,9768,-6366,3039,143,145,883,1254,1416,1135,1280,1347,1066,1305,1439
910516,442888,424680,492126,492126,864,1458,793,3846,-1186,7762,-7231,897,146,158,882,1254,1416,1135,1280,1347,1066,1305,1439
911517,443596,425328,492732,492732,561,1382,882,4174,-1293,7588,-8772,2510,142,140,875,1254,1416,1135,1280,1347,1066,1305,1439
912518,444280,425964,493338,493338,709,1456,1136,4568,-1498,6516,-8127,2555,128,138,878,1254,1416,1135,1280,1347,1066,1305,1439
913519,445020,426608,493944,493944,356,1405,1323,4635,-1682,5978,-7087,1853,129,145,875,1254,1416,1135,1280,1347,1066,1305,1439
914520,445716,427192,494550,494550,629,1781,1355,4068,-1742,4172,-7378,632,152,147,879,1254,1416,1135,1280,1347,1066,1305,1439
915521,446364,427788,495156,495156,928,1706,1213,3172,-1772,2006,-5056,-1100,127,150,874,1254,1416,1135,1280,1347,1066,1305,1439
916522,446956,428340,495762,495762,1278,1983,1124,2252,-1830,2078,-6068,-1531,140,137,870,1254,1416,1135,1280,1347,1066,1305,1439
917523,447604,428888,496368,496368,927,2009,946,1925,-1936,2615,-6393,146,138,140,862,1254,1416,1135,1280,1347,1066,1305,1439
918524,448312,429480,496974,496974,550,1734,997,1568,-2033,1987,-3032,-353,125,133,864,1254,1416,1135,1280,1347,1066,1305,1439
919525,448936,430088,497580,497580,1074,1634,1168,1472,-2184,2878,-2693,2271,132,137,870,1254,1416,1135,1280,1347,1066,1305,1439
920526,449588,430680,498186,498186,898,1735,1531,1276,-2263,4422,-574,431,156,124,869,1254,1416,1135,1280,1347,1066,1305,1439
921527,450240,431292,498792,498792,897,1609,1858,1402,-2224,6203,1292,1422,142,147,866,1254,1416,1135,1280,1347,1066,1305,1439
922528,450832,431964,499398,499398,1272,1233,2250,1325,-2133,6977,1725,-378,144,127,870,1254,1416,1135,1280,1347,1066,1305,1439
923529,451532,432612,500004,500004,595,1382,2387,1536,-1998,5037,1400,4313,152,131,872,1254,1416,1135,1280,1347,1066,1305,1439
924530,452180,433228,500610,500610,919,1582,2344,1991,-1987,3165,1889,4613,126,121,875,1254,1416,1135,1280,1347,1066,1305,1439
925531,452792,433868,501216,501216,1144,1431,2439,2089,-2122,3308,3052,4911,127,121,872,1254,1416,1135,1280,1347,1066,1305,1439
926532,453400,434512,501822,501822,1169,1405,2564,1650,-2057,2025,2575,3240,124,126,870,1254,1416,1135,1280,1347,1066,1305,1439
927533,454000,435176,502428,502428,1219,1278,2623,1060,-1922,2559,2017,3821,110,113,869,1254,1416,1135,1280,1347,1066,1305,1439
928534,454616,435840,503034,503034,1119,1277,2708,631,-1873,1322,3358,3268,133,109,870,1254,1416,1135,1280,1347,1066,1305,1439
929535,455284,436444,503640,503640,792,1652,2707,306,-1861,-2544,2950,7749,128,107,872,1254,1416,1135,1280,1347,1066,1305,1439
930536,455916,437008,504246,504246,1016,1903,2618,501,-1811,-4769,1635,8086,122,97,870,1254,1416,1135,1280,1347,1066,1305,1439
931537,456556,437508,504852,504852,966,2306,2611,803,-1779,-1950,148,7903,111,86,861,1254,1416,1135,1280,1347,1066,1305,1439
932538,457156,438084,505458,505458,1216,1831,2689,532,-1596,-209,60,5940,122,72,850,1254,1416,1135,1280,1347,1066,1305,1439
933539,457752,438660,506064,506064,1241,1832,2872,-186,-1373,1292,-1560,8036,121,97,859,1254,1416,1135,1280,1347,1066,1305,1439
934540,458424,439264,506670,506670,764,1657,2825,-804,-1141,-1365,-345,9079,116,85,859,1254,1416,1135,1280,1347,1066,1305,1439
935541,459072,439800,507276,507276,913,2084,2912,-1076,-1064,-4259,-730,10355,125,88,865,1254,1416,1135,1280,1347,1066,1305,1439
937543,460324,441004,508510,508510,988,1660,3724,-1282,-632,-4332,-2764,10919,131,89,863,1254,1416,1135,1280,1347,1066,1305,1439
938544,460976,441544,509116,509116,887,2061,4145,-1020,-253,-4220,-2063,11584,131,92,864,1254,1416,1135,1280,1347,1066,1305,1439
939545,461612,442080,509722,509722,986,2088,4626,-1073,31,-3141,-368,9152,134,91,860,1254,1416,1135,1280,1347,1066,1305,1439
940546,462296,442632,510328,510328,684,1989,5057,-977,263,-462,-2432,7723,123,89,853,1254,1416,1135,1280,1347,1066,1305,1439
941547,462912,443168,510934,510934,1109,2091,5303,-1408,408,-2104,1359,7557,139,91,863,1254,1416,1135,1280,1347,1066,1305,1439
942548,463532,443824,511540,511540,1084,1340,5030,-1699,462,-2164,2510,8847,130,89,859,1254,1416,1135,1280,1347,1066,1305,1439
943549,464164,444364,512146,512146,1008,2066,4364,-1868,603,-2066,1336,9901,141,105,866,1254,1416,1135,1280,1347,1066,1305,1439
944550,464784,444964,512752,512752,1083,1691,3770,-2079,736,-2618,5390,8874,149,92,861,1254,1416,1135,1280,1347,1066,1305,1439
945551,465512,445528,513358,513358,405,1918,3310,-2452,979,-3293,3801,7192,144,100,865,1254,1416,1135,1280,1347,1066,1305,1439
946552,466160,446068,513964,513964,904,2069,2895,-2835,1086,-2069,3040,6701,139,94,865,1254,1416,1135,1280,1347,1066,1305,1439
947553,466788,446728,514570,514570,1028,1318,2565,-2762,1455,-1907,2132,6099,153,96,861,1254,1416,1135,1280,1347,1066,1305,1439
948554,467420,447300,515176,515176,1002,1869,2412,-2509,1982,922,-499,4913,145,108,869,1254,1416,1135,1280,1347,1066,1305,1439
949555,468052,447900,515782,515782,1002,1694,2382,-1894,2335,1670,-221,8155,120,98,863,1254,1416,1135,1280,1347,1066,1305,1439
950556,468684,448484,516388,516388,1001,1794,2575,-1543,2643,656,-241,7411,132,97,865,1254,1416,1135,1280,1347,1066,1305,1439
951557,469384,449120,516994,516994,574,1469,2805,-1188,2650,1890,-1411,9227,123,109,865,1254,1416,1135,1280,1347,1066,1305,1439
952558,470024,449692,517600,517600,948,1869,2969,-795,2352,1113,-1337,9448,128,112,873,1254,1416,1135,1280,1347,1066,1305,1439
953559,470616,450252,518206,518206,1248,1946,3057,-849,2175,-3022,-1309,7591,140,106,864,1254,1416,1135,1280,1347,1066,1305,1439
954560,471232,450784,518812,518812,1098,2122,3013,-868,1996,-2769,-1738,9197,138,92,860,1254,1416,1135,1280,1347,1066,1305,1439
955561,471860,451316,519418,519418,1023,2124,2953,-745,1814,-3449,-1596,7061,123,101,854,1254,1416,1135,1280,1347,1066,1305,1439
956562,472544,451856,520024,520024,671,2076,2927,-752,1783,-5169,186,9347,129,94,856,1254,1416,1135,1280,1347,1066,1305,1439
957563,473180,452408,520630,520630,970,2002,2707,-667,1883,-4740,-651,10068,139,110,861,1254,1416,1135,1280,1347,1066,1305,1439
958564,473780,452940,521236,521236,1195,2129,2340,-884,2068,-5729,1055,8699,115,110,861,1254,1416,1135,1280,1347,1066,1305,1439
959565,474396,453432,521842,521842,1095,2382,1947,-991,2259,-5439,201,8681,110,112,857,1254,1416,1135,1280,1347,1066,1305,1439
960566,474968,453916,522448,522448,1371,2435,1688,-875,2409,-3899,787,7764,127,96,853,1254,1416,1135,1280,1347,1066,1305,1439
961567,475648,454428,523054,523054,694,2262,1439,-342,2582,-2824,-948,8597,113,104,847,1254,1416,1135,1280,1347,1066,1305,1439
962568,476276,454892,523660,523660,1018,2565,1158,232,2678,-2048,378,8463,114,101,857,1254,1416,1135,1280,1347,1066,1305,1439
963569,476864,455356,524288,524288,1269,2569,910,570,2670,-1640,595,6036,117,95,852,1254,1416,1135,1280,1347,1066,1305,1439
964570,477432,455804,524894,524894,1395,2673,642,691,2593,-1071,461,5066,128,96,847,1254,1416,1135,1280,1347,1066,1305,1439
