%  Data file recorded 2016/4/18  11:40:14
%  Stride Frequency         = [9, 9]
%  Lead In /Lead Out        = 
%  Deltas (Fractional)      = [0.25, 0.25, 0.25],[0.25, 0.25, 0.25]
%  Phase                    = 32768
%  Experiment.py 
%  Motor Gains    = [100, 0, 100, 0, 0, 100, 0, 100, 0, 0]
% Columns: 
% time | Right Leg Pos | Left Leg Pos | Commanded Right Leg Pos | Commanded Left Leg Pos | DCR | DCL | GyroX | GyroY | GyroZ | AX | AY | AZ | RBEMF | LBEMF | VBatt | S1 | S2 | S3 | S4 | S5 | S6 | S7 | S8
395,31892,-8316,3030,3030,-780,302,-42,1,39,506,46,3879,0,-8,815,1245,1425,1126,1264,1345,1061,1314,1459
1396,31888,-8316,3030,3030,-680,277,-42,2,40,534,34,3888,-8,3,814,1245,1425,1126,1264,1345,1061,1314,1459
2397,31888,-8316,3030,3030,-705,277,-44,2,41,515,51,3877,4,7,814,1245,1425,1126,1264,1345,1061,1314,1459
3398,31888,-8324,3030,3030,-705,327,-43,-2,41,538,72,3905,8,3,815,1245,1425,1126,1264,1345,1061,1314,1459
4399,31892,-8316,3030,3030,-730,227,-43,-3,41,533,60,3903,-2,-8,815,1246,1426,1126,1264,1345,1062,1315,1460
5400,31888,-8332,3030,3030,-680,377,-42,0,38,515,57,3885,-8,-3,814,1246,1426,1126,1264,1345,1062,1315,1460
6401,31888,-8328,3030,3030,-705,252,-41,3,38,500,48,3863,-8,6,814,1246,1426,1126,1264,1345,1062,1315,1460
7402,31888,-8316,3030,3030,-705,202,-42,3,38,491,38,3869,-8,-1,814,1246,1426,1126,1264,1345,1062,1315,1460
8403,31896,-8324,3030,3030,-755,327,-42,5,41,485,68,3863,5,-7,814,1246,1426,1126,1264,1345,1062,1315,1460
9404,31892,-8324,3030,3030,-680,277,-46,4,42,500,84,3893,8,-8,814,1246,1425,1126,1265,1345,1059,1315,1462
10405,31888,-8320,3030,3030,-680,252,-46,2,39,510,51,3920,-5,5,814,1246,1425,1126,1265,1345,1059,1315,1462
11406,31892,-8312,3030,3030,-730,226,-43,2,38,507,42,3916,-7,5,814,1246,1425,1126,1265,1345,1059,1315,1462
12407,31884,-8316,3030,3030,-655,302,-45,-3,38,505,53,3927,-5,-2,814,1246,1425,1126,1265,1345,1059,1315,1462
13408,31888,-8328,3030,3030,-730,352,-45,-2,38,522,59,3895,6,-8,814,1246,1425,1126,1265,1345,1059,1315,1462
14409,31884,-8300,3030,3030,-680,101,-44,1,37,515,50,3899,4,-4,814,1246,1425,1126,1265,1345,1059,1315,1462
15410,31880,-8316,3030,3030,-680,377,-44,2,38,549,63,3887,-3,6,814,1246,1425,1126,1264,1346,1062,1316,1460
16411,31880,-8312,3030,3030,-705,251,-43,2,39,530,34,3876,-6,0,814,1246,1425,1126,1264,1346,1062,1316,1460
17412,31888,-8316,3030,3030,-755,302,-43,0,40,517,62,3871,6,-7,814,1246,1425,1126,1264,1346,1062,1316,1460
18413,31888,-8324,3030,3030,-705,327,-42,1,40,524,52,3907,7,-7,813,1246,1425,1126,1264,1346,1062,1316,1460
19414,31888,-8316,3030,3030,-705,227,-42,-1,37,525,48,3912,-8,4,812,1246,1425,1126,1264,1346,1062,1316,1460
20415,31884,-8308,3030,3030,-680,226,-43,-2,36,516,67,3930,0,7,814,1246,1426,1127,1265,1347,1062,1316,1460
21416,31900,-8312,3030,3030,-805,301,-43,0,36,519,51,3903,6,3,814,1246,1426,1127,1265,1347,1062,1316,1460
22417,31884,-8320,3030,3030,-605,327,-43,3,38,511,53,3900,5,-8,814,1246,1426,1127,1265,1347,1062,1316,1460
23418,31892,-8312,3030,3030,-755,226,-42,4,39,496,66,3907,-5,3,814,1246,1426,1127,1265,1347,1062,1316,1460
24419,31884,-8320,3030,3030,-655,327,-42,2,40,493,46,3898,-8,6,814,1246,1426,1127,1265,1347,1062,1316,1460
25420,31892,-8320,3030,3030,-755,277,-43,-2,40,514,53,3897,0,-8,814,1246,1426,1127,1265,1347,1062,1316,1460
26421,31888,-8316,3030,3030,-680,252,-42,-3,39,516,60,3925,7,4,814,1246,1426,1128,1266,1346,1062,1315,1460
27422,31892,-8312,3030,3030,-730,251,-42,-2,36,482,83,3936,1,5,814,1246,1426,1128,1266,1346,1062,1315,1460
28423,31884,-8320,3030,3030,-655,327,-41,0,37,534,76,3893,-8,-8,814,1246,1426,1128,1266,1346,1062,1315,1460
29427,31896,-8316,3030,3030,-780,252,-40,0,40,518,59,3874,-8,-4,814,1246,1426,1128,1266,1346,1062,1315,1460
30425,31884,-8312,3030,3030,-630,251,-41,-2,41,507,40,3880,-7,5,814,1246,1426,1128,1266,1346,1062,1315,1460
31426,31884,-8312,3030,3030,-705,276,-43,-4,41,512,30,3910,2,-3,814,1245,1426,1126,1265,1345,1061,1313,1460
32427,31892,-8324,3030,3030,-755,352,-41,-1,39,490,49,3897,7,-7,814,1245,1426,1126,1265,1345,1061,1313,1460
33428,31892,-8320,3030,3030,-705,252,-42,0,40,506,33,3886,3,-1,814,1245,1426,1126,1265,1345,1061,1313,1460
34429,31888,-8332,3030,3030,-680,352,-44,-3,40,493,43,3860,-8,5,814,1245,1426,1126,1265,1345,1061,1313,1460
35430,31888,-8312,3030,3030,-705,151,-42,-7,37,501,58,3911,-5,-5,812,1245,1426,1126,1265,1345,1061,1313,1460
36431,31888,-8316,3030,3030,-705,302,-40,-5,38,514,52,3908,-2,-7,812,1245,1426,1126,1265,1345,1061,1313,1460
37432,31896,-8316,3030,3030,-755,277,-37,-4,39,490,43,3879,8,5,814,1246,1426,1126,1264,1345,1061,1315,1460
38433,31876,-8324,3030,3030,-580,327,-38,-5,41,510,64,3875,0,4,814,1246,1426,1126,1264,1345,1061,1315,1460
39434,31884,-8320,3030,3030,-755,252,-39,-6,40,494,85,3910,-8,-4,814,1246,1426,1126,1264,1345,1061,1315,1460
40435,31888,-8312,3030,3030,-730,226,-41,-7,40,496,87,3864,1,-7,814,1246,1426,1126,1264,1345,1061,1315,1460
41436,31896,-8332,3030,3030,-755,402,-40,-4,41,515,46,3880,6,-1,814,1246,1426,1126,1264,1345,1061,1315,1460
42437,31888,-8324,3030,3030,-655,227,-39,-2,41,523,47,3881,-4,7,814,1246,1425,1126,1265,1345,1062,1316,1460
43438,31892,-8316,3030,3030,-730,227,-38,-3,41,525,53,3895,-8,-5,814,1246,1425,1126,1265,1345,1062,1316,1460
44439,31888,-8324,3030,3030,-680,327,-39,-3,42,536,60,3913,3,-7,814,1246,1425,1126,1265,1345,1062,1316,1460
45440,31892,-8308,3030,3030,-730,176,-42,-3,41,543,62,3887,7,-2,814,1246,1425,1126,1265,1345,1062,1316,1460
46441,31876,-8324,3030,3030,-605,377,-41,-1,42,529,57,3860,7,6,814,1246,1425,1126,1265,1345,1062,1316,1460
47442,31880,-8316,3030,3030,-730,227,-39,-1,43,525,46,3855,4,3,814,1246,1425,1126,1265,1345,1062,1316,1460
48443,31892,-8308,3030,3030,-780,226,-38,-2,43,528,33,3872,4,-4,814,1245,1426,1127,1266,1348,1062,1316,1460
49444,31880,-8312,3030,3030,-630,301,-38,-3,41,517,58,3893,-2,-3,814,1245,1426,1127,1266,1348,1062,1316,1460
50445,31884,-8324,3030,3030,-730,352,-40,-5,40,524,58,3899,-6,7,814,1245,1426,1127,1266,1348,1062,1316,1460
51446,31884,-8316,3030,3030,-705,227,-43,-2,42,522,33,3872,-4,2,814,1245,1426,1127,1266,1348,1062,1316,1460
52447,31888,-8308,3030,3030,-730,226,-43,-3,46,537,16,3915,-4,-5,813,1245,1426,1127,1266,1348,1062,1316,1460
53448,31880,-8316,3030,3030,-655,327,-38,0,42,524,47,3906,-7,6,811,1246,1425,1125,1265,1346,1062,1315,1460
54449,31888,-8304,3030,3030,-755,201,-39,3,38,504,60,3896,-8,6,814,1246,1425,1125,1265,1346,1062,1315,1460
55450,31880,-8336,3030,3030,-655,477,-42,4,39,524,62,3891,-5,-8,814,1246,1425,1125,1265,1346,1062,1315,1460
56451,31884,-8324,3030,3030,-730,202,-43,1,42,517,62,3862,-1,3,814,1246,1425,1125,1265,1346,1062,1315,1460
57452,31884,-8332,3030,3030,-705,327,-44,-1,43,500,39,3924,1,5,813,1246,1425,1125,1265,1346,1062,1315,1460
58453,31888,-8332,3030,3030,-730,277,-42,-1,43,479,41,3889,6,-8,814,1246,1425,1125,1265,1346,1062,1315,1460
59454,31888,-8316,3030,3030,-705,177,-41,2,41,511,22,3867,8,2,814,1245,1425,1126,1265,1346,1062,1316,1460
60455,31888,-8312,3030,3030,-705,251,-39,2,40,499,17,3912,8,7,814,1245,1425,1126,1265,1346,1062,1316,1460
61456,31888,-8320,3030,3030,-705,327,-38,1,41,510,45,3868,4,-8,814,1245,1425,1126,1265,1346,1062,1316,1460
62457,31892,-8320,3030,3030,-730,277,-40,2,38,518,58,3880,-7,-2,814,1245,1425,1126,1265,1346,1062,1316,1460
63458,31876,-8320,3030,3030,-605,277,-44,3,38,510,36,3895,-8,6,814,1245,1425,1126,1265,1346,1062,1316,1460
64459,31884,-8320,3030,3030,-755,277,-43,4,39,519,57,3883,-8,-4,814,1244,1425,1127,1266,1346,1062,1315,1460
65460,31880,-8316,3030,3030,-680,252,-42,2,37,502,39,3876,-2,-7,814,1244,1425,1127,1266,1346,1062,1315,1460
66461,31888,-8308,3030,3030,-755,226,-43,1,37,497,48,3874,-5,-1,814,1244,1425,1127,1266,1346,1062,1315,1460
67462,31896,-8328,3030,3030,-755,402,-45,2,39,503,65,3877,2,2,814,1244,1425,1127,1266,1346,1062,1315,1460
68463,31896,-8316,3030,3030,-705,202,-44,3,38,513,68,3906,7,-7,814,1244,1425,1127,1266,1346,1062,1315,1460
69464,31884,-8316,3030,3030,-630,277,-43,3,39,525,60,3916,8,-6,814,1244,1425,1127,1266,1346,1062,1315,1460
70465,31880,-8320,3030,3030,-680,302,-44,-1,39,540,54,3921,-4,4,812,1246,1425,1126,1265,1346,1061,1316,1458
71466,31892,-8312,3030,3030,-780,226,-43,-1,39,521,54,3911,-2,6,814,1246,1425,1126,1265,1346,1061,1316,1458
72467,31876,-8316,3030,3030,-605,302,-45,1,37,500,58,3929,6,7,814,1246,1425,1126,1265,1346,1061,1316,1458
73468,31880,-8312,3030,3030,-730,251,-44,3,38,497,77,3919,5,-5,814,1246,1425,1126,1265,1346,1061,1316,1458
74469,31884,-8324,3030,3030,-730,352,-42,1,42,505,46,3895,-8,-8,814,1246,1425,1126,1265,1346,1061,1316,1458
75470,31884,-8328,3030,3030,-705,302,-42,-1,39,510,58,3880,-3,-4,814,1246,1426,1126,1265,1346,1061,1315,1460
76471,31876,-8312,3030,3030,-655,176,-41,1,38,526,38,3891,8,7,814,1246,1426,1126,1265,1346,1061,1315,1460
77472,31896,-8312,3030,3030,-830,276,-42,3,38,531,10,3885,-2,2,814,1246,1426,1126,1265,1346,1061,1315,1460
78473,31884,-8316,3030,3030,-630,302,-44,4,38,519,34,3870,-5,-7,814,1246,1426,1126,1265,1346,1061,1315,1460
79475,31884,-8312,3030,3030,-705,251,-46,4,37,532,24,3894,-6,3,814,1246,1426,1126,1265,1346,1061,1315,1460
80475,31884,-8320,3030,3030,-705,327,-46,1,38,527,45,3892,7,7,814,1246,1426,1126,1265,1346,1061,1315,1460
81476,31888,-8316,3030,3030,-730,252,-43,-2,39,526,56,3908,5,4,814,1248,1425,1126,1265,1346,1061,1315,1460
82477,31880,-8316,3030,3030,-655,277,-43,-4,38,537,51,3901,-7,-8,814,1248,1425,1126,1265,1346,1061,1315,1460
83478,31896,-8316,3030,3030,-805,277,-42,-4,37,521,68,3919,-4,-5,814,1248,1425,1126,1265,1346,1061,1315,1460
84479,31896,-8308,3030,3030,-705,226,-43,-2,37,506,31,3916,1,1,814,1248,1425,1126,1265,1346,1061,1315,1460
85480,31876,-8316,3030,3030,-580,327,-42,-1,38,524,38,3897,8,5,814,1248,1425,1126,1265,1346,1061,1315,1460
86481,31884,-8320,3030,3030,-755,302,-40,-1,38,522,49,3879,-3,-2,814,1248,1425,1123,1263,1347,1062,1316,1460
87482,31888,-8312,3030,3030,-730,226,-39,-2,39,513,53,3924,-8,-6,812,1248,1425,1123,1263,1347,1062,1316,1460
88483,31888,-8324,3030,3030,-705,352,-40,-3,42,512,67,3896,1,-6,814,1248,1425,1123,1263,1347,1062,1316,1460
89484,31884,-8324,3030,3030,-680,277,-41,-5,41,515,39,3926,8,2,814,1248,1425,1123,1263,1347,1062,1316,1460
90485,31896,-8312,3030,3030,-780,201,-42,-4,40,515,45,3890,6,7,814,1248,1425,1123,1263,1347,1062,1316,1460
91486,31880,-8324,3030,3030,-605,352,-41,-3,38,527,70,3887,-2,0,814,1248,1425,1123,1263,1347,1062,1316,1460
92487,31896,-8320,3030,3030,-805,252,-39,-5,39,508,67,3911,-8,-6,814,1246,1426,1126,1265,1346,1062,1316,1461
93488,31884,-8320,3030,3030,-630,277,-40,-4,40,510,72,3888,-8,-7,814,1246,1426,1126,1265,1346,1062,1316,1461
94489,31880,-8316,3030,3030,-680,252,-40,-4,36,514,57,3893,-3,6,814,1246,1426,1126,1265,1346,1062,1316,1461
95490,31884,-8324,3030,3030,-730,327,-40,-3,39,509,56,3919,6,5,814,1246,1426,1126,1265,1346,1062,1316,1461
96491,31880,-8324,3030,3030,-680,277,-40,-1,42,493,38,3924,7,-2,814,1246,1426,1126,1265,1346,1062,1316,1461
97492,31888,-8320,3030,3030,-755,252,-39,0,43,517,50,3908,5,-8,814,1246,1426,1127,1264,1346,1062,1315,1460
98493,31888,-8316,0,0,-705,252,-39,-2,40,517,60,3901,-4,-6,814,1246,1426,1127,1264,1346,1062,1315,1460
99494,31888,-8328,606,606,-133,924,-43,-6,38,520,51,3903,-6,3,814,1246,1426,1127,1264,1346,1062,1315,1460
100495,31888,-8320,1212,1212,-118,813,-44,-9,40,522,44,3912,-7,0,804,1246,1426,1127,1264,1346,1062,1315,1460
101496,31880,-8292,1818,1818,-53,702,-42,-7,41,514,34,3902,1,3,806,1246,1426,1127,1264,1346,1062,1315,1460
102497,31884,-8256,2424,2424,-114,666,-40,-5,41,499,17,3897,-6,10,808,1246,1426,1127,1264,1346,1062,1315,1460
103498,31900,-8212,3030,3030,-174,630,-35,-12,39,458,24,3908,0,6,808,1248,1425,1125,1264,1346,1062,1315,1460
104499,31896,-8168,3636,3636,-34,644,-32,-16,40,479,43,3963,-8,5,804,1248,1425,1125,1264,1346,1062,1315,1460
105500,31876,-8112,4242,4242,81,582,-30,-24,46,525,130,3965,8,13,808,1248,1425,1125,1264,1346,1062,1315,1460
106501,31884,-8068,4848,4848,-80,671,-29,-28,52,461,129,3929,4,3,809,1248,1425,1125,1264,1346,1062,1315,1460
107502,31884,-8000,5454,5454,-15,534,-29,-27,54,465,24,3892,-4,4,807,1248,1425,1125,1264,1346,1062,1315,1460
108503,31892,-7936,6060,6060,-50,572,-23,-35,55,512,32,3850,8,10,810,1246,1426,1127,1263,1343,1059,1316,1462
109504,31896,-7884,6666,6666,-10,661,-25,-40,58,487,56,3953,8,4,809,1246,1426,1127,1263,1343,1059,1316,1462
110505,31896,-7804,7272,7272,29,499,-27,-41,58,411,56,3981,-5,14,808,1246,1426,1127,1263,1343,1059,1316,1462
111506,31896,-7744,7878,7878,44,637,-27,-34,60,470,30,3942,-7,15,810,1246,1426,1127,1263,1343,1059,1316,1462
112507,31892,-7676,8484,8484,84,600,-25,-17,57,436,51,4037,9,15,809,1246,1426,1127,1263,1343,1059,1316,1462
113508,31892,-7604,9090,9090,74,588,-27,-22,55,404,-10,3931,7,9,808,1246,1426,1127,1263,1343,1059,1316,1462
114509,31884,-7540,9696,9696,139,651,-13,-51,59,517,5,3955,-7,11,809,1250,1429,1129,1266,1345,1061,1315,1460
115510,31876,-7480,10302,10302,154,690,4,-74,63,440,-23,3934,2,3,808,1250,1429,1129,1266,1345,1061,1315,1460
116511,31892,-7432,10908,10908,18,778,10,-86,65,295,14,4034,-2,17,807,1250,1429,1129,1266,1345,1061,1315,1460
117512,31900,-7352,11514,11514,83,591,12,-92,64,504,22,3950,1,17,807,1250,1429,1129,1266,1345,1061,1315,1460
118513,31896,-7280,12120,12120,173,654,15,-81,66,583,32,4009,-7,8,808,1250,1429,1129,1266,1345,1061,1315,1460
119514,31880,-7224,12726,12726,263,768,19,-77,73,416,132,4011,6,4,807,1253,1434,1130,1268,1346,1062,1318,1464
120515,31900,-7152,13332,13332,52,681,20,-72,76,508,43,4027,7,17,805,1253,1434,1130,1268,1346,1062,1318,1464
121516,31896,-7088,13938,13938,217,744,23,-82,80,444,40,3926,1,7,805,1253,1434,1130,1268,1346,1062,1318,1464
122517,31896,-7036,14544,14544,207,832,30,-102,84,415,35,3902,-3,17,806,1253,1434,1130,1268,1346,1062,1318,1464
123518,31892,-6968,15150,15150,247,745,36,-116,89,445,-18,3900,-7,12,805,1253,1434,1130,1268,1346,1062,1318,1464
124519,31900,-6904,15756,15756,186,784,45,-128,91,391,93,3917,-1,3,806,1253,1434,1130,1268,1346,1062,1318,1464
125520,31896,-6860,16384,16384,3433,3800,52,-126,94,447,13,3967,-7,3,806,1247,1419,1132,1272,1343,1055,1304,1449
126521,31912,-6756,16990,16990,3322,3716,65,-126,95,500,16,3960,-2,12,748,1247,1419,1132,1272,1343,1055,1304,1449
127522,31924,-6592,17596,17596,3362,3352,71,-127,90,503,-4,3988,-263,235,736,1247,1419,1132,1272,1343,1055,1304,1449
128523,32148,-6332,18202,18202,2046,2760,87,-168,101,341,42,3995,-111,67,728,1247,1419,1132,1272,1343,1055,1304,1449
129524,32496,-6004,18808,18808,1277,2342,188,-215,136,105,409,4512,-99,-53,754,1247,1419,1132,1272,1343,1055,1304,1449
130525,32828,-5632,19414,19414,1384,2073,234,-223,201,595,-218,5085,74,42,773,1254,1303,1035,1167,1223,999,1237,1423
131526,33200,-5280,20020,20020,1140,2204,260,-132,253,764,-72,5558,85,59,777,1254,1303,1035,1167,1223,999,1237,1423
132527,33636,-4904,20626,20626,744,2060,287,-183,286,351,330,5342,80,71,779,1254,1303,1035,1167,1223,999,1237,1423
133528,34056,-4536,21232,21232,848,2116,349,-144,292,697,209,6062,83,62,785,1254,1303,1035,1167,1223,999,1237,1423
134529,34460,-4192,21838,21838,953,2272,374,-116,323,1241,-740,5917,89,70,782,1254,1303,1035,1167,1223,999,1237,1423
135530,34836,-3888,22444,22444,1134,2529,361,-131,337,672,-144,5525,79,69,778,1254,1303,1035,1167,1223,999,1237,1423
136531,35220,-3560,23050,23050,1089,2386,363,-206,354,807,709,5675,88,57,772,1250,1440,1139,1282,1350,1066,1332,1475
137532,35636,-3228,23656,23656,894,2368,351,-156,389,1270,-852,4957,88,58,775,1250,1440,1139,1282,1350,1066,1332,1475
138533,36036,-2948,24262,24262,999,2701,359,-191,455,-31,-12,5305,86,61,774,1250,1440,1139,1282,1350,1066,1332,1475
139534,36432,-2668,24868,24868,1029,2709,365,-305,480,-540,709,5117,71,59,767,1250,1440,1139,1282,1350,1066,1332,1475
140535,36736,-2416,25474,25474,1612,2892,371,-351,502,548,-939,5145,89,37,767,1250,1440,1139,1282,1350,1066,1332,1475
141536,37120,-2180,26080,26080,1117,3001,387,-361,564,333,-913,5231,77,29,757,1309,1508,1176,1326,1387,1085,1362,1512
142537,37464,-1960,26686,26686,1373,3111,431,-320,575,196,8,6092,80,6,753,1309,1508,1176,1326,1387,1085,1362,1512
143538,37808,-1756,27292,27292,1380,3221,526,-275,555,274,263,5951,95,-14,753,1309,1508,1176,1326,1387,1085,1362,1512
144539,38180,-1548,27898,27898,1210,3205,636,-219,597,947,-1263,5986,78,-27,750,1309,1508,1176,1326,1387,1085,1362,1512
145540,38592,-1372,28504,28504,965,3416,751,-115,653,853,-481,6459,86,-62,747,1309,1508,1176,1326,1387,1085,1362,1512
146541,38928,-1204,29110,29110,1447,3477,837,-85,657,744,651,6739,90,-44,746,1309,1508,1176,1326,1387,1085,1362,1512
147542,39300,-1040,29716,29716,1228,3512,916,-78,678,496,348,6324,87,-155,741,1299,1490,1152,1292,1376,1073,1353,1475
148543,39652,-912,30322,30322,1359,3749,966,-31,761,941,-228,6141,90,-187,741,1299,1490,1152,1292,1376,1073,1353,1475
149544,40000,-772,30928,30928,1390,3685,970,98,822,530,431,6432,85,-213,752,1299,1490,1152,1292,1376,1073,1353,1475
150545,40360,-632,31534,31534,1321,3697,990,160,808,129,901,5777,75,79,740,1299,1490,1152,1292,1376,1073,1353,1475
151546,40728,-492,32140,32140,1277,3708,982,167,821,250,-75,5709,87,-49,744,1299,1490,1152,1292,1376,1073,1353,1475
152547,41096,-360,32768,32768,1283,3770,984,167,892,356,285,5970,87,-37,742,1267,1461,1131,1278,1282,1021,1280,1396
153548,41436,-204,33374,33374,1465,3631,951,163,931,53,697,6391,91,-11,752,1267,1461,1131,1278,1282,1021,1280,1396
154549,41792,-48,33980,33980,1371,3642,944,173,920,-264,1035,6219,88,122,733,1267,1461,1131,1278,1282,1021,1280,1396
155550,42160,72,34586,34586,1302,3800,1000,88,916,123,70,6010,84,-147,736,1267,1461,1131,1278,1282,1021,1280,1396
156551,42500,216,35192,35192,1483,3740,1085,56,908,217,126,5939,89,-119,752,1267,1461,1131,1278,1282,1021,1280,1396
157552,42808,324,35798,35798,1690,3800,1190,-16,892,-230,1134,6064,83,226,744,1267,1461,1131,1278,1282,1021,1280,1396
158553,43160,460,36404,36404,1422,3800,1267,34,817,10,374,6100,89,47,749,1248,1408,1094,1248,1294,1010,1264,1392
159554,43532,596,37010,37010,1302,3800,1368,34,797,67,353,5137,89,235,752,1248,1408,1094,1248,1294,1010,1264,1392
160555,43840,740,37616,37616,1710,3787,1473,71,804,233,350,5659,81,247,752,1248,1408,1094,1248,1294,1010,1264,1392
161556,44160,860,38222,38222,1642,3800,1544,75,807,122,1883,4961,69,242,748,1248,1408,1094,1248,1294,1010,1264,1392
162557,44504,1000,38828,38828,1498,3800,1625,165,799,693,1052,5266,80,223,748,1248,1408,1094,1248,1294,1010,1264,1392
163558,44840,1132,39434,39434,1555,3800,1655,397,743,1637,588,5079,77,250,748,1255,1447,1139,1271,1332,1036,1292,1433
164559,45140,1252,40040,40040,1787,3800,1726,404,769,1200,2132,4706,85,243,750,1255,1447,1139,1271,1332,1036,1292,1433
165560,45452,1380,40646,40646,1719,3800,1765,442,812,1502,1515,4566,84,261,748,1255,1447,1139,1271,1332,1036,1292,1433
166561,45800,1608,41252,41252,1500,3329,1839,465,871,1393,1489,3848,77,271,748,1255,1447,1139,1271,1332,1036,1292,1433
167562,46064,1796,41858,41858,2034,3590,1951,291,1036,779,2033,3170,76,249,738,1255,1447,1139,1271,1332,1036,1292,1433
168563,46332,1980,42464,42464,2017,3625,2036,220,1154,224,2940,5139,68,-82,728,1255,1447,1139,1271,1332,1036,1292,1433
169564,46672,2164,43070,43070,1574,3635,2010,299,1140,-134,3988,5522,71,-191,728,1255,1439,1127,1235,1295,1020,1279,1423
170565,46976,2348,43676,43676,1806,3645,1989,328,1016,67,2547,4951,75,-131,736,1255,1439,1127,1235,1295,1020,1279,1423
171566,47244,2504,44282,44282,2039,3800,2002,287,910,-238,2722,4310,69,-145,731,1255,1439,1127,1235,1295,1020,1279,1423
172567,47480,2696,44888,44888,2248,3617,2079,190,820,554,3134,4302,68,-137,746,1255,1439,1127,1235,1295,1020,1279,1423
173568,47780,2932,45494,45494,1856,3351,2133,201,714,1624,2507,4422,49,266,726,1255,1439,1127,1235,1295,1020,1279,1423
174569,48056,3096,46100,46100,2014,3800,2166,204,709,1183,2571,3728,72,-160,731,1184,1366,1063,1179,1239,965,1191,1343
175570,48252,3272,46706,46706,2524,3747,2219,248,759,534,3080,4118,74,-130,744,1184,1366,1063,1179,1239,965,1191,1343
176571,48472,3460,47312,47312,2383,3682,2204,514,680,1841,1813,4481,59,239,736,1184,1366,1063,1179,1239,965,1191,1343
177572,48724,3628,47918,47918,2192,3800,2227,622,672,793,2500,3608,47,127,728,1184,1366,1063,1179,1239,965,1191,1343
178573,48992,3796,48524,48524,2100,3800,2294,519,688,490,2434,3194,61,-37,742,1184,1366,1063,1179,1239,965,1191,1343
179576,49228,4060,49152,49152,2310,3237,2299,496,705,339,1558,4152,45,271,744,1184,1366,1063,1179,1239,965,1191,1343
180575,49412,4260,49758,49758,2645,3647,2342,473,805,-864,1304,3268,47,247,733,1156,1313,1038,1130,1236,966,1202,1354
181576,49720,4416,50364,50364,1877,3800,2423,298,931,-927,2795,2360,48,-54,720,1156,1313,1038,1130,1236,966,1202,1354
182577,49944,4620,50970,50970,2412,3643,2475,220,968,963,2386,3970,47,-134,744,1156,1313,1038,1130,1236,966,1202,1354
183578,50148,4800,51576,51576,2546,3800,2432,286,1015,448,1906,3396,55,259,723,1156,1313,1038,1130,1236,966,1202,1354
184579,50332,5012,52182,52182,2682,3613,2411,255,1054,-417,2941,3149,52,-119,740,1156,1313,1038,1130,1236,966,1202,1354
185580,50540,5256,52788,52788,2541,3422,2328,243,1054,363,2161,3727,44,258,721,1128,1260,986,1144,1259,968,1193,1332
186581,50800,5548,53394,53394,2225,3130,2381,-56,862,3878,4623,2673,47,-134,728,1128,1260,986,1144,1259,968,1193,1332
187582,51036,5824,54000,54000,2384,3238,2419,-61,923,2899,2163,4679,43,-114,740,1128,1260,986,1144,1259,968,1193,1332
188583,51216,6112,54606,54606,2744,3170,2343,599,1298,-4285,633,6279,53,-9,729,1128,1260,986,1144,1259,968,1193,1332
189584,51428,6504,55212,55212,2554,2526,2200,978,1157,-3113,1591,4654,52,-8,735,1128,1260,986,1144,1259,968,1193,1332
190585,51648,6968,55818,55818,2513,2079,1974,1016,1094,-459,-332,2247,21,10,748,1144,1316,1024,1142,1288,992,1284,1332
191586,51856,7392,56424,56424,2598,2334,1730,987,1187,1659,2357,3912,32,61,756,1144,1316,1024,1142,1288,992,1284,1454
192587,52036,7860,57030,57030,2783,2062,1321,1357,1140,0,1962,4820,40,71,750,1144,1316,1024,1142,1288,992,1284,1454
193588,52232,8376,57636,57636,2693,1764,887,1801,892,-154,1980,2516,33,63,750,1144,1316,1024,1142,1288,992,1284,1454
194589,52496,8800,58242,58242,2277,2344,631,2178,648,1363,1425,1569,28,77,753,1144,1316,1024,1142,1288,992,1284,1454
195590,52708,9164,58848,58848,2611,2724,634,2081,788,-817,1655,724,34,68,756,1144,1316,1024,1142,1288,992,1284,1454
196591,52916,9584,59454,59454,2646,2379,709,1861,894,-392,-67,2780,43,59,746,1179,1335,1072,1182,1493,1118,1360,1592
197592,53220,9996,60060,60060,2053,2434,884,1538,989,-2617,-848,3712,39,45,750,1179,1335,1072,1182,1493,1118,1360,1592
198593,53488,10472,60666,60666,2287,2037,1209,1104,1078,-4265,-369,3660,48,61,759,1179,1335,1072,1182,1493,1118,1360,1592
199594,53712,10888,61272,61272,2571,2417,1437,1041,1116,-2918,618,5157,57,48,757,1179,1335,1072,1182,1493,1118,1360,1592
200595,53956,11320,61878,61878,2455,2321,1542,1133,1352,-1825,-215,4011,50,71,751,1179,1335,1072,1182,1493,1118,1360,1592
201596,54276,11784,62484,62484,1987,2124,1460,1172,1815,-2644,-533,5280,59,59,755,1087,1255,1048,1171,1422,1087,1311,1443
202597,54576,12260,63090,63090,2119,2052,1425,981,1963,-1349,2515,4999,55,53,765,1087,1255,1048,1171,1422,1087,1311,1443
203598,54824,12712,63696,63696,2453,2206,1275,1157,1856,-50,3045,4450,70,53,763,1087,1255,1048,1171,1422,1087,1311,1443
204599,55140,13200,64302,64302,2035,1984,1096,1406,1895,775,1104,2787,65,53,757,1087,1255,1048,1171,1422,1087,1311,1443
205600,55396,13664,64908,64908,2419,2138,735,1943,1965,2616,4141,5008,47,65,766,1087,1255,1048,1171,1422,1087,1311,1443
206604,55644,14140,65536,65536,2478,2066,372,2320,1927,2612,3444,3387,70,68,754,1087,1255,1048,1171,1422,1087,1311,1443
207602,55896,14612,66142,66142,2462,2095,71,2567,1901,936,3075,3007,50,62,759,1265,1455,1137,1271,1255,999,1259,1407
208603,56252,15160,66748,66748,1818,1621,-81,2569,1720,845,3244,2318,48,80,759,1265,1455,1137,1271,1255,999,1259,1407
209604,56536,15716,67354,67354,2276,1572,-254,2713,1447,79,3286,3130,63,64,775,1265,1455,1137,1271,1255,999,1259,1407
210605,56820,16216,67960,67960,2283,1925,-260,2532,1257,-801,2954,1264,61,67,768,1265,1455,1137,1271,1255,999,1259,1407
211606,57128,16716,68566,68566,2141,1927,-198,2464,1112,-321,1601,2434,52,80,765,1265,1455,1137,1271,1255,999,1259,1407
212607,57444,17256,69172,69172,2098,1679,-88,2304,1040,-1347,1113,977,60,82,769,1271,1423,1131,1253,1327,1047,1275,1447
213608,57740,17800,69778,69778,2230,1655,144,1991,1077,-2771,62,2070,61,90,772,1271,1423,1131,1253,1327,1047,1275,1447
214609,58084,18360,70384,70384,1937,1557,340,1736,1056,-1469,1073,1381,64,80,768,1271,1423,1131,1253,1327,1047,1275,1447
215610,58468,19044,70990,70990,1692,780,564,1605,1077,-601,410,1902,72,97,776,1271,1423,1131,1253,1327,1047,1275,1447
216611,58780,19680,71596,71596,2149,1079,761,1470,1156,-1450,1489,1088,74,101,788,1271,1423,1131,1253,1327,1047,1275,1447
217612,59116,20268,72202,72202,2006,1379,909,1267,1251,-1704,1705,2017,60,93,779,1271,1423,1131,1253,1327,1047,1275,1447
218613,59476,20952,72808,72808,1862,778,1009,1279,1377,-854,1794,3107,73,93,779,1145,1297,1049,1154,1279,1010,1245,1400
219614,59828,21636,73414,73414,1918,776,1100,1377,1486,25,2248,2498,66,97,785,1145,1297,1049,1154,1279,1010,1245,1400
220615,60208,22296,74020,74020,1749,924,1159,1576,1602,449,2158,3163,71,110,785,1145,1297,1049,1154,1279,1010,1245,1400
221616,60548,23024,74626,74626,2005,496,1148,1454,1691,476,2319,1947,62,110,787,1145,1297,1049,1154,1279,1010,1245,1400
222617,60912,23704,75232,75232,1861,795,963,1656,1729,1401,1285,3339,75,113,786,1145,1297,1049,1154,1279,1010,1245,1400
223618,61272,24296,75838,75838,1892,1345,845,1617,1672,2288,2916,909,77,109,785,1142,1322,1037,1164,1174,946,1181,1318
224619,61644,24936,76444,76444,1823,1044,754,1578,1510,2171,2911,1653,74,113,783,1142,1322,1037,1164,1174,946,1181,1318
225620,62020,25424,77050,77050,1803,1997,621,1474,1369,1885,2485,965,70,112,785,1142,1322,1037,1164,1174,946,1181,1318
226621,62468,26096,77656,77656,1357,845,421,1484,1173,2061,2324,2332,68,124,775,1142,1322,1037,1164,1174,946,1181,1318
227622,62852,26720,78262,78262,1763,1145,353,1374,914,1333,2356,487,73,113,794,1142,1322,1037,1164,1174,946,1181,1318
228623,63244,27396,78868,78868,1718,818,417,1379,596,1154,1107,505,74,128,786,1142,1322,1037,1164,1174,946,1181,1318
229624,63632,28148,79474,79474,1748,340,581,1128,335,675,306,-880,88,119,790,1194,1366,1072,1197,1221,974,1246,1409
230625,64024,28844,80080,80080,1728,687,706,825,208,433,629,398,85,121,793,1194,1366,1072,1197,1221,974,1246,1409
231626,64460,29492,80686,80686,1458,986,774,527,63,-379,617,-403,74,132,790,1194,1366,1072,1197,1221,974,1246,1409
232627,64860,30108,81292,81292,1688,1186,787,552,-148,-534,373,108,72,124,792,1194,1366,1072,1197,1221,974,1246,1409
233628,65272,30696,81920,81920,1618,1362,854,415,-295,-530,165,-1572,80,114,787,1194,1366,1072,1197,1221,974,1246,1409
234629,65688,31368,82526,82526,1598,835,913,292,-327,-40,-289,-822,82,133,788,1189,1375,1087,1195,1307,1026,1268,1422
235630,66120,31888,83132,83132,1502,1788,916,108,-303,993,-605,-866,85,123,792,1189,1375,1087,1195,1307,1026,1268,1422
236631,66556,32452,83738,83738,1481,1514,891,-21,-259,494,-349,233,88,113,783,1189,1375,1087,1195,1307,1026,1268,1422
237632,67052,33016,84344,84344,1109,1515,870,-36,-222,736,412,1350,84,129,787,1189,1375,1087,1195,1307,1026,1268,1422
238633,67500,33532,84950,84950,1413,1817,780,82,-164,1719,96,1333,87,118,791,1189,1375,1087,1195,1307,1026,1268,1422
239634,67924,34112,85556,85556,1567,1417,652,269,-80,2570,-136,2449,97,118,784,1189,1375,1087,1195,1307,1026,1268,1422
240635,68336,34636,86162,86162,1647,1769,600,335,25,2481,1137,1202,103,133,785,1104,1280,992,1104,1216,960,1210,1359
241636,68788,35176,86768,86768,1400,1671,489,436,156,3421,477,2380,88,126,782,1104,1280,992,1104,1216,960,1210,1359
242637,69296,35716,87374,87374,1053,1673,385,505,242,3029,1441,1619,100,137,786,1104,1280,992,1104,1216,960,1210,1359
243638,69732,36248,87980,87980,1507,1724,260,464,220,1912,1454,1924,101,141,791,1104,1280,992,1104,1216,960,1210,1359
244639,70208,36856,88586,88586,1260,1249,105,348,148,1522,1587,2528,110,125,785,1104,1280,992,1104,1216,960,1210,1359
245640,70680,37476,89192,89192,1288,1174,-34,279,52,2168,1311,1943,99,141,794,1103,1258,1006,1135,1307,1024,1264,1435
246641,71152,38012,89798,89798,1292,1701,-103,223,54,624,-127,2136,103,158,794,1103,1258,1006,1135,1307,1024,1264,1435
247642,71656,38660,90404,90404,1094,1000,-180,167,14,-4,682,1178,103,150,790,1103,1258,1006,1135,1307,1024,1264,1435
248643,72204,39304,91010,91010,821,1024,-229,-9,-58,47,534,985,109,141,799,1103,1258,1006,1135,1307,1024,1264,1435
249644,72732,40108,91616,91616,948,19,-367,-469,-147,864,42,853,111,161,801,1103,1258,1006,1135,1307,1024,1264,1435
250645,73240,40760,92222,92222,1075,968,-512,-800,-230,488,-667,-356,109,147,806,1103,1258,1006,1135,1307,1024,1264,1435
251646,73748,41524,92828,92828,1077,264,-700,-1076,-238,102,-659,419,120,163,801,1173,1339,1095,1227,1443,1113,1363,1555
252647,74252,42284,93434,93434,1105,285,-921,-968,-261,2293,-1134,228,127,158,804,1173,1339,1095,1227,1443,1113,1363,1555
253648,74812,43064,94040,94040,756,156,-1056,-749,-227,3614,19,609,119,157,803,1173,1339,1095,1227,1443,1113,1363,1555
254651,75352,43992,94646,94646,883,-777,-1336,121,-480,4849,3061,4200,116,160,808,1173,1339,1095,1227,1443,1113,1363,1555
255650,75860,44808,95252,95252,1085,-82,-1738,886,-279,695,-1233,3161,116,149,798,1173,1339,1095,1227,1443,1113,1363,1555
256651,76424,45672,95858,95858,736,-388,-2198,1228,495,-1763,-3456,5101,116,156,804,1212,1381,1113,1227,1499,1160,1404,1570
257652,76904,46516,96464,96464,1264,-269,-2639,1708,1323,232,-4390,1769,117,136,802,1212,1381,1113,1227,1499,1160,1404,1570
258653,77404,47356,97070,97070,1142,-250,-2597,1981,1624,1741,-2673,219,116,146,802,1212,1381,1113,1227,1499,1160,1404,1570
259654,77972,48200,97676,97676,718,-281,-2538,2452,1502,1233,-2227,5262,105,143,803,1212,1381,1113,1227,1499,1160,1404,1570
260655,78496,49024,98304,98304,995,-160,-2563,2448,1600,879,-1708,5249,114,144,806,1212,1381,1113,1227,1499,1160,1404,1570
261656,79016,49808,98910,98910,1022,85,-2934,2609,2032,1495,-1542,7955,105,132,805,1212,1381,1113,1227,1499,1160,1404,1570
262657,79540,50648,99516,99516,999,-270,-2897,3640,2347,-193,-1611,6933,98,136,806,1097,1205,1021,1173,1577,1208,1411,1503
263658,80088,51412,100122,100122,851,201,-2552,4388,2269,-522,1091,2437,105,138,804,1097,1205,1021,1173,1577,1208,1411,1503
264659,80636,52320,100728,100728,852,-707,-2014,4074,2014,-2634,1804,-1263,114,113,806,1097,1205,1021,1173,1577,1208,1411,1503
265660,81132,53024,101334,101334,1180,566,-1903,3366,1718,-2022,3132,5380,108,138,800,1097,1205,1021,1173,1577,1208,1411,1503
266661,81656,53732,101940,101940,1007,538,-2279,2970,1562,261,2917,3846,100,122,801,1097,1205,1021,1173,1577,1208,1411,1503
267662,82172,54436,102546,102546,1059,561,-2728,2883,1550,414,433,1442,116,114,803,1125,1226,1058,1304,1360,1076,1262,1300
268663,82724,55136,103152,103152,835,584,-2777,3259,1419,-648,2296,319,108,134,802,1125,1226,1058,1304,1360,1076,1262,1300
269664,83284,55876,103758,103758,786,330,-2589,3513,1214,-1755,1769,-1083,103,118,804,1125,1226,1058,1304,1360,1076,1262,1300
270665,83804,56496,104364,104364,1038,1080,-2780,4063,1205,-1348,-340,21,109,122,807,1125,1226,1058,1304,1360,1076,1262,1300
271666,84316,57140,104970,104970,1091,929,-3078,4140,1275,-158,2257,-130,109,128,799,1125,1226,1058,1304,1360,1076,1262,1300
272667,84868,57776,105576,105576,842,978,-3430,4356,1242,10,2051,235,117,119,798,1125,1226,1058,1304,1360,1076,1262,1300
273668,85376,58428,106182,106182,1119,877,-3549,4520,1195,-414,114,-530,112,134,801,1342,1450,1176,1392,1156,960,1141,1235
274669,85836,59044,106788,106788,1423,1102,-3557,4707,1196,-1091,-1441,2033,107,142,797,1342,1450,1176,1392,1156,960,1141,1235
275670,86428,59624,107394,107394,598,1328,-3645,4915,1289,-249,-1600,2441,108,128,794,1342,1450,1176,1392,1156,960,1141,1235
276671,86936,60208,108000,108000,1126,1303,-3690,4851,1476,2390,334,4871,107,124,799,1342,1450,1176,1392,1156,960,1141,1235
277672,87468,60732,108606,108606,978,1680,-3751,5144,1715,1996,-1012,4423,117,130,795,1342,1450,1176,1392,1156,960,1141,1235
278673,88016,61280,109212,109212,879,1532,-3735,5290,1799,15,-1478,6477,120,130,792,1185,1299,1043,1131,1216,985,1206,1419
279674,88544,61764,109818,109818,1006,1935,-3699,5643,1683,-570,-329,5308,126,125,795,1185,1299,1043,1131,1216,985,1206,1419
280675,89140,62228,110424,110424,581,2063,-3552,5488,1503,1161,-1346,5710,105,129,787,1185,1299,1043,1131,1216,985,1206,1419
281676,89716,62652,111030,111030,707,2318,-3566,5486,1638,-834,-2378,5543,122,120,789,1185,1299,1043,1131,1216,985,1206,1419
282677,90252,63064,111636,111636,959,2397,-3847,5176,1824,-283,901,7479,120,99,782,1185,1299,1043,1131,1216,985,1206,1419
283678,90852,63476,112242,112242,559,2402,-3636,3721,1582,2289,1803,4054,119,91,780,1185,1299,1043,1131,1216,985,1206,1419
284679,91472,63832,112848,112848,433,2758,-3221,2478,1379,-3747,-3047,5556,125,93,778,1030,1208,979,1066,1498,1138,1447,1729
285680,92096,64156,113454,113454,408,2965,-2573,999,826,-5309,1622,3519,124,65,772,1030,1208,979,1066,1498,1138,1447,1729
286681,92716,64420,114060,114060,433,3348,-2090,-131,311,-5900,-2000,4228,122,45,762,1030,1208,979,1066,1498,1138,1447,1729
287682,93352,64640,114688,114688,332,3633,-1649,-1375,17,-4314,555,4646,124,22,752,1030,1208,979,1066,1498,1138,1447,1729
288683,93932,64856,115294,115294,683,3668,-1599,-2186,-123,-1401,653,5904,132,-99,747,1030,1208,979,1066,1498,1138,1447,1729
289684,94532,65024,115900,115900,558,3800,-1742,-2868,-138,-135,1037,4503,129,-136,745,1329,1696,1217,1353,1415,1045,1537,1779
290685,95212,65184,116506,116506,56,3800,-1887,-3366,-38,1077,2758,5327,124,-85,760,1329,1696,1217,1353,1415,1045,1537,1779
291686,95852,65312,117112,117112,306,3800,-2072,-3646,7,3398,684,4111,125,258,761,1329,1696,1217,1353,1415,1045,1537,1779
292687,96520,65440,117718,117718,129,3800,-2351,-3448,-17,5399,1457,7598,125,239,762,1329,1696,1217,1353,1415,1045,1537,1779
293688,97084,65568,118324,118324,780,3800,-2501,-3684,-120,5854,4348,5026,138,255,764,1329,1696,1217,1353,1415,1045,1537,1779
294689,97684,65672,118930,118930,555,3800,-2592,-3512,-255,4750,3306,8930,127,255,758,1329,1696,1217,1353,1415,1045,1537,1779
295690,98236,65740,119536,119536,857,3800,-2425,-3872,-252,1599,2518,5260,113,258,760,1957,2511,1415,1509,1200,927,1375,1621
296691,98828,65796,120142,120142,607,3800,-2191,-3938,-352,1981,-1660,7453,125,244,760,1957,2511,1415,1509,1200,927,1375,1621
297692,99456,65808,120748,120748,381,3800,-1767,-4457,-429,1130,-3655,6023,133,235,760,1957,2511,1415,1509,1200,927,1375,1621
298693,100108,65832,121354,121354,230,3800,-1302,-5187,-279,196,-4901,7632,117,223,760,1957,2511,1415,1509,1200,927,1375,1621
299694,100676,65860,121960,121960,756,3800,-917,-6095,-109,-987,-4872,8045,113,221,762,1957,2511,1415,1509,1200,927,1375,1621
300695,101320,65868,122566,122566,280,3800,-520,-7002,-150,-3189,-1843,8863,125,233,760,1632,1914,1240,1292,1164,908,1212,1389
301696,101940,65916,123172,123172,430,3800,-125,-7834,-396,-4183,-2458,7999,116,218,762,1632,1914,1240,1292,1164,908,1212,1389
302697,102464,65924,123778,123778,1032,3800,315,-8645,-629,-4658,-2549,6907,132,222,760,1632,1914,1240,1292,1164,908,1212,1389
303698,103052,65960,124384,124384,632,3800,637,-9473,-789,-4638,-2246,6651,136,265,757,1632,1914,1240,1292,1164,908,1212,1389
304699,103708,66032,124990,124990,206,3800,873,-10020,-953,-3908,-661,8673,139,235,760,1632,1914,1240,1292,1164,908,1212,1389
305700,104324,66144,125596,125596,456,3800,1068,-10574,-1142,-3900,841,6973,133,217,758,1632,1914,1240,1292,1164,908,1212,1389
306701,104868,66320,126202,126202,907,3800,1403,-11605,-1304,-4533,1845,4930,137,263,761,1226,1392,1021,1149,1106,892,1149,1244
307702,105480,66512,126808,126808,482,3800,1661,-12588,-1306,-4523,2733,4188,141,233,757,1226,1392,1021,1149,1106,892,1149,1244
308703,106124,66800,127414,127414,281,3466,1847,-13288,-1175,-2534,1602,3460,137,239,762,1226,1392,1021,1149,1106,892,1149,1244
309704,106708,67124,128020,128020,657,3248,1854,-13439,-928,-1111,894,3475,133,273,752,1226,1392,1021,1149,1106,892,1149,1244
310705,107276,67460,128626,128626,758,3180,1891,-13188,-497,-18,-2194,3087,149,-152,756,1226,1392,1021,1149,1106,892,1149,1244
311706,107952,67820,129232,129232,81,3036,1861,-12117,10,2868,-1797,6144,123,-18,760,1241,1403,1053,1242,1153,950,1235,1351
312707,108528,68248,129838,129838,707,2615,1728,-10891,297,6725,-548,5500,119,-4,765,1241,1403,1053,1242,1153,950,1235,1351
313708,109108,68636,130444,130444,682,2870,1293,-9397,594,4712,839,10694,125,8,773,1241,1403,1053,1242,1153,950,1235,1351
314709,109592,68984,131072,131072,1286,3127,844,-8698,806,2600,2614,8040,108,43,767,1241,1403,1053,1242,1153,950,1235,1351
315710,110120,69372,131678,131678,1013,2883,455,-7783,1396,2502,-2859,7549,107,32,756,1241,1403,1053,1242,1153,950,1235,1351
316711,110568,69812,132284,132284,1517,2562,629,-7184,1735,989,-3336,9242,100,-1,765,1241,1403,1053,1242,1153,950,1235,1351
317712,111108,70212,132890,132890,943,2817,971,-7128,2105,-2363,-4373,7367,107,26,767,1359,1507,1187,1364,1469,1169,1395,1513
318713,111488,70600,133496,133496,1949,2897,1447,-7237,2350,-5486,-4425,6908,86,51,767,1359,1507,1187,1364,1469,1169,1395,1513
319714,111856,70988,134102,134102,2030,2902,1881,-7168,2466,-7010,-5427,7698,91,27,753,1359,1507,1187,1364,1469,1169,1395,1513
320715,112256,71360,134708,134708,1835,3008,2112,-7029,2660,-7854,-2577,7363,72,25,751,1359,1507,1187,1364,1469,1169,1395,1513
321716,112592,71796,135314,135314,2241,2612,2206,-7051,2810,-4403,-2323,7187,65,33,750,1359,1507,1187,1364,1469,1169,1395,1513
322717,112856,72264,135920,135920,2700,2416,2155,-6865,3030,-3712,-2682,8382,67,19,756,1248,1304,1182,1456,1723,1356,1459,1438
323718,113164,72724,136526,136526,2432,2469,2060,-6249,3407,-4217,791,10074,66,58,749,1248,1304,1182,1456,1723,1356,1459,1438
324719,113380,73248,137132,137132,3016,2071,1753,-5265,3895,-1389,506,9678,38,78,753,1248,1304,1182,1456,1723,1356,1459,1438
325720,113560,73964,137738,137738,3252,868,1159,-4223,4179,1120,-273,7595,43,83,742,1248,1304,1182,1456,1723,1356,1459,1438
326721,113784,74636,138344,138344,2986,1142,601,-3606,4160,3149,1186,5884,-15,102,749,1248,1304,1182,1456,1723,1356,1459,1438
327722,114000,75372,138950,138950,3046,739,80,-2713,4033,5264,373,7516,-82,118,754,1248,1304,1182,1456,1723,1356,1459,1438
328723,114212,76160,139556,139556,3080,409,-466,-1539,3876,4311,-993,6639,-20,111,756,1315,1343,1183,1527,1549,1271,1440,1419
329724,114436,76980,140162,140162,3015,204,-917,-464,3627,2727,-339,6603,-20,102,760,1315,1343,1183,1527,1549,1271,1440,1419
330725,114628,77812,140768,140768,3225,124,-1046,153,3605,2910,-2215,5846,-56,101,762,1315,1343,1183,1527,1549,1271,1440,1419
331726,114820,78524,141374,141374,3235,871,-1086,1046,3760,4074,-3192,5875,-39,106,759,1315,1343,1183,1527,1549,1271,1440,1419
332727,115032,79232,141980,141980,3119,893,-830,1920,3854,3456,-4359,5378,-112,109,753,1315,1343,1183,1527,1549,1271,1440,1419
333728,115260,79952,142586,142586,3029,816,-472,2456,3934,699,-6738,5246,-118,106,756,1231,1272,1100,1318,1639,1286,1475,1565
334729,115476,80612,143192,143192,3113,1189,-189,2729,3982,-3199,-6197,5872,-51,105,757,1231,1272,1100,1318,1639,1286,1475,1565
335730,115668,81228,143798,143798,3273,1464,204,2852,4196,-2519,-4781,6070,-29,121,753,1231,1272,1100,1318,1639,1286,1475,1565
336731,115872,81844,144404,144404,3208,1464,519,3048,4564,203,-4692,4995,-49,121,743,1231,1272,1100,1318,1639,1286,1475,1565
337732,116080,82384,145010,145010,3193,1940,634,3237,4868,-1791,-2669,4843,-104,117,747,1231,1272,1100,1318,1639,1286,1475,1565
338733,116252,83212,145616,145616,3428,135,625,3552,4917,-1629,-657,5180,-73,142,745,1231,1272,1100,1318,1639,1286,1475,1565
339734,116472,83884,146222,146222,3138,1108,339,4142,5039,-1839,-1010,4930,-51,119,752,1053,1189,1014,1169,1303,1011,1209,1287
340735,116680,84612,146828,146828,3223,755,76,4450,5080,484,1208,3919,-248,132,756,1053,1189,1014,1169,1303,1011,1209,1287
341736,116880,85256,147456,147456,3283,1280,-187,4599,4897,3078,629,4517,-66,130,755,1053,1189,1014,1169,1303,1011,1209,1287
342737,117068,85960,148062,148062,3368,903,-453,4804,4619,2786,2245,4853,-118,140,744,1053,1189,1014,1169,1303,1011,1209,1287
343738,117308,86720,148668,148668,3052,549,-545,5086,4148,4401,1920,3687,-146,143,746,1053,1189,1014,1169,1303,1011,1209,1287
344739,117504,87484,149274,149274,3337,520,-537,5556,3639,5828,923,3148,-172,141,760,1184,1340,1020,1164,1041,832,1067,1216
345740,117716,88156,149880,149880,3247,1093,-467,5831,3075,6875,874,1210,-31,130,748,1184,1340,1020,1164,1041,832,1067,1216
346741,117972,88896,150486,150486,2980,665,-351,6096,2477,6002,2232,1609,-142,138,749,1184,1340,1020,1164,1041,832,1067,1216
347742,118208,89644,151092,151092,3114,612,-169,6071,1961,5418,1461,3,-73,128,759,1184,1340,1020,1164,1041,832,1067,1216
348743,118444,90392,151698,151698,3123,608,81,6119,1508,5010,1321,1002,5,141,759,1184,1340,1020,1164,1041,832,1067,1216
349744,118676,91272,152304,152304,3157,-223,284,6229,1148,4741,1001,1299,-23,134,760,1184,1340,1020,1164,1041,832,1067,1216
350745,118916,91940,152910,152910,3116,1100,472,6309,966,3841,628,888,-43,127,762,1267,1459,1087,1204,1152,930,1185,1353
351746,119156,92632,153516,153516,3125,948,772,6133,896,2764,1298,-354,-67,129,757,1267,1459,1087,1204,1152,930,1185,1353
352747,119428,93360,154122,154122,2934,720,1128,5852,945,680,-24,-157,-27,125,758,1267,1459,1087,1204,1152,930,1185,1353
353748,119736,94088,154728,154728,2716,717,1439,5431,1017,-648,952,-254,-32,138,762,1267,1459,1087,1204,1152,930,1185,1353
354749,119988,94812,155334,155334,3074,739,1667,5144,970,-184,1273,689,8,135,766,1267,1459,1087,1204,1152,930,1185,1353
355750,120256,95496,155940,155940,2983,987,1932,4747,1040,-109,630,-446,25,121,758,1216,1379,1070,1208,1174,951,1203,1340
356751,120480,96128,156546,156546,3267,1312,2119,4604,1225,541,1476,1647,-11,126,757,1216,1379,1070,1208,1174,951,1203,1340
357752,120732,96796,157152,157152,3101,1085,2201,4318,1292,796,1371,230,-14,134,749,1216,1379,1070,1208,1174,951,1203,1340
358753,120980,97480,157758,157758,3134,983,2258,4070,1192,578,1839,1957,-110,143,758,1216,1379,1070,1208,1174,951,1203,1340
359754,121280,98180,158364,158364,2817,881,2264,3842,934,1830,2795,2067,-35,140,757,1216,1379,1070,1208,1174,951,1203,1340
360755,121532,98804,158970,158970,3126,1355,2295,3673,654,2818,2268,1532,-31,133,765,1216,1379,1070,1208,1174,951,1203,1340
361756,121792,99404,159576,159576,3084,1506,2321,3829,185,4647,3971,3970,21,126,755,1159,1339,1010,1136,1115,891,1142,1280
362757,122104,100020,160182,160182,2766,1405,2481,3939,-386,4655,3579,2296,-21,137,753,1159,1339,1010,1136,1115,891,1142,1280
363758,122392,100628,160788,160788,2924,1455,2649,4054,-992,4614,3308,3979,6,148,761,1159,1339,1010,1136,1115,891,1142,1280
364759,122656,101240,161394,161394,3082,1430,2830,3878,-1535,3565,2398,3214,29,141,759,1159,1339,1010,1136,1115,891,1142,1280
365760,122980,101832,162000,162000,2714,1555,3073,3615,-1926,3008,398,3631,22,143,756,1159,1339,1010,1136,1115,891,1142,1280
366761,123260,102416,162606,162606,2997,1606,3337,3349,-2249,3219,1906,2731,-23,153,760,1170,1371,1043,1151,1214,950,1215,1386
367762,123528,103052,163212,163212,3080,1280,3685,3020,-2536,2956,663,2251,30,148,752,1170,1371,1043,1151,1214,950,1215,1386
368763,123828,103708,163840,163840,2888,1155,3996,2566,-2737,2175,1596,574,9,143,755,1170,1371,1043,1151,1214,950,1215,1386
369764,124112,104416,164446,164446,2996,827,4247,2045,-2775,1523,572,780,-16,145,760,1170,1371,1043,1151,1214,950,1215,1386
370765,124416,105072,165052,165052,2879,1151,4436,1823,-2728,1325,1342,1446,28,142,759,1170,1371,1043,1151,1214,950,1215,1386
371766,124776,105772,165658,165658,2535,874,4585,1664,-2721,1601,2820,937,2,150,765,1170,1371,1043,1151,1214,950,1215,1386
372767,125100,106404,166264,166264,2766,1298,4677,1731,-2684,2294,1429,1883,25,145,773,1279,1503,1167,1299,1230,991,1271,1431
373768,125428,107064,166870,166870,2748,1122,4665,1866,-2531,2698,1833,710,52,133,764,1279,1503,1167,1299,1230,991,1271,1431
374769,125744,107776,167476,167476,2830,794,4627,1957,-2280,2894,1416,947,30,151,764,1279,1503,1167,1299,1230,991,1271,1431
375770,126064,108560,168082,168082,2812,340,4550,2228,-2105,3590,1559,2271,40,147,767,1279,1503,1167,1299,1230,991,1271,1431
376771,126400,109380,168688,168688,2719,109,4382,2514,-2115,3770,2094,2346,21,154,768,1279,1503,1167,1299,1230,991,1271,1431
377772,126792,110108,169294,169294,2374,681,4316,2682,-2208,3172,2149,2861,28,151,773,1364,1567,1167,1286,1189,966,1215,1371
378773,127144,110824,169900,169900,2630,754,4257,2835,-2335,2480,1409,2131,51,155,778,1364,1567,1167,1286,1189,966,1215,1371
379774,127524,111668,170506,170506,2461,-52,4454,2786,-2448,1379,2681,3691,60,157,772,1364,1567,1167,1286,1189,966,1215,1371
380775,127908,112508,171112,171112,2441,-33,4602,3094,-2594,2058,2035,3871,63,148,779,1364,1567,1167,1286,1189,966,1215,1371
381776,128328,113304,171718,171718,2221,238,4835,3368,-2750,2469,-871,4678,70,156,779,1364,1567,1167,1286,1189,966,1215,1371
382777,128780,114112,172324,172324,2025,158,4872,3412,-3066,1867,-14,2268,62,153,783,1364,1567,1167,1286,1189,966,1215,1371
383778,129208,114920,172930,172930,2179,153,4872,3090,-3356,42,595,4716,69,148,789,1155,1299,1017,1120,1292,1009,1229,1377
384779,129624,115708,173536,173536,2259,273,4662,2788,-3406,766,628,4667,75,145,785,1155,1299,1017,1120,1292,1009,1229,1377
385780,130052,116540,174142,174142,2188,-7,4449,2806,-3312,2286,-693,4839,74,150,783,1155,1299,1017,1120,1292,1009,1229,1377
386781,130552,117336,174748,174748,1741,213,4328,2881,-3181,-139,1687,4092,83,149,786,1155,1299,1017,1120,1292,1009,1229,1377
387782,131148,118108,175354,175354,1141,359,3946,3727,-3026,-272,-1183,3701,96,156,795,1155,1299,1017,1120,1292,1009,1229,1377
388783,131748,119012,175960,175960,1116,-473,3612,4143,-2946,3896,-4909,-1105,104,140,802,1058,1184,1000,1140,1428,1110,1332,1495
389784,132352,119952,176566,176566,1091,-706,3260,4223,-2418,-32,-3597,1290,112,131,799,1058,1184,1000,1140,1428,1110,1332,1495
390785,132996,120832,177172,177172,840,-338,2912,4212,-1860,-2367,-3991,2616,112,138,796,1058,1184,1000,1140,1428,1110,1332,1495
391786,133604,121612,177778,177778,1065,283,2445,4416,-1630,-182,-3214,2469,125,129,804,1058,1184,1000,1140,1428,1110,1332,1495
392787,134184,122280,178384,178384,1241,981,2138,4745,-1300,-2136,-4095,3714,130,143,804,1058,1184,1000,1140,1428,1110,1332,1495
393788,134828,122892,178990,178990,840,1331,1899,4690,-1002,-2490,-5374,1286,128,135,794,1058,1184,1000,1140,1428,1110,1332,1495
394789,135352,123572,179596,179596,1592,904,1814,4264,-879,-642,-3543,3384,121,133,797,1108,1236,1059,1207,1678,1283,1522,1716
395790,135876,124176,180224,180224,1594,1380,1567,4141,-792,390,-639,5022,132,125,795,1108,1236,1059,1207,1678,1283,1522,1716
396791,136492,124768,180830,180830,1019,1455,1089,4314,-753,-617,-1010,4476,130,132,789,1108,1236,1059,1207,1678,1283,1522,1716
397792,137128,125352,181436,181436,893,1506,647,3970,-626,-1430,-1026,3150,132,122,794,1108,1236,1059,1207,1678,1283,1522,1716
398793,137724,125864,182042,182042,1143,1958,96,3958,-639,812,318,5785,157,134,796,1108,1236,1059,1207,1678,1283,1522,1716
399794,138476,126424,182648,182648,165,1659,-443,3705,-613,785,925,3084,149,124,785,1129,1276,1079,1198,1822,1333,1625,1870
400795,139156,126876,183254,183254,613,2338,-1039,3817,-870,2540,1370,3097,133,110,797,1129,1276,1079,1198,1822,1333,1625,1870
401796,139800,127324,183860,183860,837,2367,-1279,4258,-1114,1734,-702,3908,145,112,786,1129,1276,1079,1198,1822,1333,1625,1870
402797,140432,127744,184466,184466,912,2546,-1544,4743,-1331,1142,-188,3789,134,101,783,1129,1276,1079,1198,1822,1333,1625,1870
403798,141072,128152,185072,185072,861,2626,-1806,4889,-1446,1198,239,6750,129,104,778,1129,1276,1079,1198,1822,1333,1625,1870
404800,141808,128584,185678,185678,258,2480,-2172,4654,-1374,848,49,5461,149,92,777,1129,1276,1079,1198,1822,1333,1625,1870
405800,142460,129004,186284,186284,781,2560,-2571,4282,-1172,141,59,5197,134,85,783,1160,1351,1085,1167,1738,1255,1546,1845
406801,143072,129408,186890,186890,1031,2665,-2900,3774,-926,-1704,-1422,3800,142,94,778,1160,1351,1085,1167,1738,1255,1546,1845
407802,143732,129752,187496,187496,730,3046,-3112,3422,-642,-3658,-2204,3833,137,83,770,1160,1351,1085,1167,1738,1255,1546,1845
408803,144368,130152,188102,188102,879,2701,-3247,3291,-401,-3492,-1839,4578,141,67,766,1160,1351,1085,1167,1738,1255,1546,1845
409804,145060,130532,188708,188708,527,2832,-3370,3296,-257,-4002,-3374,4782,127,39,772,1160,1351,1085,1167,1738,1255,1546,1845
410805,145680,130880,189314,189314,977,3038,-3327,2946,-120,-4740,1077,3384,124,60,767,1172,1399,1112,1196,1518,1110,1391,1680
411806,146276,131216,189920,189920,1127,3120,-3446,2727,-78,-3161,-2000,3832,136,42,760,1172,1399,1112,1196,1518,1110,1391,1680
412807,146876,131540,190526,190526,1102,3202,-3509,2468,-107,-4143,2266,4132,131,29,758,1172,1399,1112,1196,1518,1110,1391,1680
413808,147408,131812,191132,191132,1529,3535,-3792,2387,-153,-2047,704,5059,114,1,758,1172,1399,1112,1196,1518,1110,1391,1680
414809,148064,132136,191738,191738,753,3217,-4123,2747,-248,2,-39,6096,125,-19,742,1172,1399,1112,1196,1518,1110,1391,1680
415810,148676,132420,192344,192344,1028,3474,-4312,2755,-323,-339,3888,6533,129,-160,755,1229,1447,1103,1197,1279,1003,1263,1461
416811,149272,132664,192950,192950,1128,3733,-4385,2912,-159,-3378,1144,9150,127,-34,747,1229,1447,1103,1197,1279,1003,1263,1461
417812,149848,132872,193556,193556,1254,3800,-4367,2496,-295,-1916,3557,5292,125,-159,752,1229,1447,1103,1197,1279,1003,1263,1461
418813,150492,133080,194162,194162,828,3800,-4225,1521,-526,-2167,2405,7306,137,94,756,1229,1447,1103,1197,1279,1003,1263,1461
419814,151056,133304,194768,194768,1329,3800,-4152,523,-538,-3640,1506,6449,119,235,758,1229,1447,1103,1197,1279,1003,1263,1461
420815,151644,133496,195374,195374,1179,3800,-4096,345,-570,-2455,1749,7390,120,255,756,1229,1447,1103,1197,1279,1003,1263,1461
421816,152240,133636,195980,195980,1129,3800,-3786,403,-661,-3203,651,4820,140,261,756,1208,1360,1049,1216,1232,992,1263,1384
422817,152924,133756,196608,196608,578,3800,-3440,141,-758,-5500,1881,4313,129,249,756,1208,1360,1049,1216,1232,992,1263,1384
423818,153536,133856,197214,197214,1028,3800,-3179,-709,-784,-5559,2096,2874,142,257,760,1208,1360,1049,1216,1232,992,1263,1384
424819,154204,133904,197820,197820,676,3800,-3128,-1243,-775,-2956,2042,3718,137,251,757,1208,1360,1049,1216,1232,992,1263,1384
425820,154888,133972,198426,198426,574,3800,-3066,-1820,-653,-2689,2244,1203,153,245,760,1208,1360,1049,1216,1232,992,1263,1384
426821,155508,134020,199032,199032,974,3800,-2923,-2163,-595,-2727,1479,2139,145,254,761,1458,1661,1250,1442,1292,1027,1336,1483
427822,156156,134048,199638,199638,798,3800,-2729,-2260,-596,-1651,2062,2911,159,233,764,1458,1661,1250,1442,1292,1027,1336,1483
428823,156860,134124,200244,200244,446,3800,-2499,-2162,-558,-776,2175,4034,149,219,756,1458,1661,1250,1442,1292,1027,1336,1483
429824,157592,134152,200850,200850,268,3800,-2221,-2053,-442,-1229,2339,4668,151,249,760,1458,1661,1250,1442,1292,1027,1336,1483
430825,158272,134212,201456,201456,591,3800,-2050,-1867,-318,-602,2970,6238,145,245,762,1458,1661,1250,1442,1292,1027,1336,1483
431828,159024,134264,202062,202062,137,3800,-1854,-1822,-190,-903,2087,4328,143,219,760,1458,1661,1250,1442,1292,1027,1336,1483
432827,159736,134324,202668,202668,385,3800,-1628,-1867,-17,-1658,1752,3832,149,261,764,1500,1707,1222,1358,1175,932,1199,1321
433828,160452,134360,203274,203274,357,3800,-1387,-1930,103,-1657,1824,5725,141,231,760,1500,1707,1222,1358,1175,932,1199,1321
434829,161192,134412,203880,203880,204,3800,-1053,-2216,243,-1811,1747,4332,153,259,762,1500,1707,1222,1358,1175,932,1199,1321
435830,162020,134480,204486,204486,-352,3800,-759,-2373,392,-1977,3224,7532,136,247,762,1500,1707,1222,1358,1175,932,1199,1321
436831,162848,134520,205092,205092,-357,3800,-414,-2748,320,-1881,3975,6220,141,247,760,1500,1707,1222,1358,1175,932,1199,1321
437832,163364,134576,205698,205698,1595,3800,-108,-3148,218,-2332,3072,4374,152,237,760,1296,1430,1071,1207,1068,875,1074,1162
438833,163996,134644,206304,206304,869,3800,67,-3477,413,-3785,-74,4887,141,231,754,1296,1430,1071,1207,1068,875,1074,1162
439834,164708,134680,206910,206910,367,3800,47,-3559,660,-3876,347,5308,149,255,758,1296,1430,1071,1207,1068,875,1074,1162
440835,165352,134744,207516,207516,791,3800,110,-3631,695,-2345,1249,3751,145,239,760,1296,1430,1071,1207,1068,875,1074,1162
441836,166048,134836,208122,208122,464,3800,304,-3522,609,-735,860,3986,137,257,768,1296,1430,1071,1207,1068,875,1074,1162
442837,166828,134956,208728,208728,-66,3800,557,-3547,616,-1805,1927,2665,148,239,760,1296,1430,1071,1207,1068,875,1074,1162
443838,167536,135128,209334,209334,382,3800,672,-3903,698,-2691,1469,1846,156,228,762,1184,1307,1045,1220,1116,928,1140,1252
444839,168156,135320,209940,209940,932,3800,742,-4241,736,-2325,1802,291,141,255,768,1184,1307,1045,1220,1116,928,1140,1252
445840,168780,135544,210546,210546,906,3800,853,-4238,754,-1379,583,437,161,234,758,1184,1307,1045,1220,1116,928,1140,1252
446841,169484,135780,211152,211152,404,3800,1118,-4014,736,-729,1594,940,140,239,757,1184,1307,1045,1220,1116,928,1140,1252
447842,170144,136084,211758,211758,677,3734,1417,-3963,718,-540,2446,226,153,277,760,1184,1307,1045,1220,1116,928,1140,1252
448843,170816,136420,212364,212364,601,3541,1694,-4129,726,-681,2814,-832,155,247,752,1279,1405,1127,1281,1272,1032,1280,1395
449844,171520,136812,212992,212992,399,3196,1869,-4176,868,-1426,3293,-388,153,103,747,1279,1405,1127,1281,1272,1032,1280,1395
450845,172208,137164,213598,213598,497,3453,1977,-4247,1054,-1953,3443,-1214,143,-187,757,1279,1405,1127,1281,1272,1032,1280,1395
451846,172896,137516,214204,214204,495,3459,2040,-4287,1089,-1948,2124,-1597,157,-16,752,1279,1405,1127,1281,1272,1032,1280,1395
452847,173604,137948,214810,214810,368,2963,2046,-4294,1050,-2209,3160,524,155,-164,753,1279,1405,1127,1281,1272,1032,1280,1395
453848,174280,138380,215416,215416,566,2967,2041,-4193,1101,-2480,4674,2162,153,-162,765,1279,1405,1127,1281,1272,1032,1280,1395
454849,174972,138788,216022,216022,464,3122,1889,-4188,1084,-1111,4049,1918,145,19,763,1297,1448,1117,1268,1226,978,1193,1299
455850,175664,139260,216628,216628,462,2725,1729,-4246,1005,-2091,2410,2434,133,12,762,1297,1448,1117,1268,1226,978,1193,1299
456851,176364,139712,217234,217234,409,2854,1593,-4294,977,-3680,3273,2806,135,-6,768,1297,1448,1117,1268,1226,978,1193,1299
457852,177032,140108,217840,217840,608,3209,1498,-4226,933,-2139,2627,4412,155,19,767,1297,1448,1117,1268,1226,978,1193,1299
458853,177700,140460,218446,218446,606,3490,1474,-4065,795,189,410,4621,128,0,759,1297,1448,1117,1268,1226,978,1193,1299
459854,178368,140928,219052,219052,605,2769,1480,-4214,784,-1907,1245,4862,134,-47,751,1155,1280,1016,1123,1166,948,1142,1298
460855,179056,141400,219658,219658,478,2747,1522,-4468,774,-2998,729,4906,132,-157,767,1155,1280,1016,1123,1166,948,1142,1298
461856,179692,141844,220264,220264,802,2926,1576,-4678,762,-1860,889,3235,127,16,766,1155,1280,1016,1123,1166,948,1142,1298
462857,180312,142248,220870,220870,902,3181,1671,-4731,774,-465,-1277,3091,117,30,759,1155,1280,1016,1123,1166,948,1142,1298
463858,180940,142704,221476,221476,851,2860,1643,-4758,943,-1507,-1405,2275,130,4,757,1155,1280,1016,1123,1166,948,1142,1298
464859,181576,143244,222082,222082,800,2336,1514,-4640,1073,-545,-203,4798,127,-22,766,1155,1280,1016,1123,1166,948,1142,1298
465860,182176,143744,222688,222688,1026,2589,1275,-4356,1107,-251,1559,2499,122,21,775,1090,1236,1026,1130,1317,1060,1271,1485
466861,182876,144188,223294,223294,398,2943,1131,-4295,1144,-790,1118,2376,123,45,770,1090,1236,1026,1130,1317,1060,1271,1485
467862,183472,144672,223900,223900,1049,2696,781,-4174,1174,-1631,1951,2006,138,33,765,1090,1236,1026,1130,1317,1060,1271,1485
468863,184052,145168,224506,224506,1149,2623,313,-4273,1253,-1936,2346,1724,119,14,765,1090,1236,1026,1130,1317,1060,1271,1485
469864,184604,145732,225112,225112,1325,2199,-136,-4206,1331,-1308,2385,1619,126,32,769,1090,1236,1026,1130,1317,1060,1271,1485
470865,185132,146288,225718,225718,1477,2251,-442,-3914,1335,-1249,1254,2215,124,40,776,1207,1383,1117,1220,1524,1195,1472,1699
471866,185656,146860,226324,226324,1504,2152,-587,-3073,1298,-1247,1316,7168,135,71,773,1207,1383,1117,1220,1524,1195,1472,1699
472867,186312,147416,226930,226930,678,2253,-714,-2078,1199,414,2578,7411,118,68,774,1207,1383,1117,1220,1524,1195,1472,1699
473868,186888,147936,227536,227536,1179,2480,-754,-2056,1075,1170,3261,3896,136,68,777,1207,1383,1117,1220,1524,1195,1472,1699
474869,187412,148568,228142,228142,1506,1779,-841,-2340,1113,-1505,650,5283,124,62,773,1207,1383,1117,1220,1524,1195,1472,1699
475870,187952,149208,228748,228748,1407,1728,-938,-2653,1294,-3273,-1769,4785,128,75,781,1207,1383,1117,1220,1524,1195,1472,1699
476871,188500,149808,229376,229376,1359,1979,-1082,-2493,1289,-1225,438,6780,111,93,783,1164,1321,1088,1195,1666,1252,1488,1616
477872,189060,150536,229982,229982,1286,1176,-1023,-2280,1180,-1266,301,5076,113,90,780,1164,1321,1088,1195,1666,1252,1488,1616
478873,189572,151188,230588,230588,1588,1650,-973,-1755,1170,-1636,-694,8146,120,99,788,1164,1321,1088,1195,1666,1252,1488,1616
479876,190032,151844,231194,231194,1916,1624,-958,-1359,1245,-802,304,8631,95,110,783,1164,1321,1088,1195,1666,1252,1488,1616
480875,190512,152680,231800,231800,1795,493,-1099,-916,1307,-628,59,9503,103,115,779,1164,1321,1088,1195,1666,1252,1488,1616
481876,190992,153568,232406,232406,1798,161,-1282,-518,1366,-115,728,8271,91,119,790,1155,1280,1088,1309,1430,1104,1287,1320
482877,191460,154456,233012,233012,1876,154,-1389,-415,1504,-720,-206,5360,99,118,792,1155,1280,1088,1309,1430,1104,1287,1320
483878,191980,155152,233618,233618,1553,1352,-1507,-169,1586,-531,-304,5648,94,133,791,1155,1280,1088,1309,1430,1104,1287,1320
484879,192484,155692,234224,234224,1656,2329,-1571,-140,1594,-452,153,5217,89,115,788,1155,1280,1088,1309,1430,1104,1287,1320
485880,192956,156352,234830,234830,1859,1577,-1664,223,1727,274,-306,6093,97,118,776,1155,1280,1088,1309,1430,1104,1287,1320
486881,193444,156800,235436,235436,1762,2906,-1681,515,2006,777,-1868,4956,106,120,780,1155,1280,1088,1309,1430,1104,1287,1320
487882,193972,157588,236042,236042,1514,777,-1530,625,1973,2133,859,4872,93,135,763,1331,1417,1199,1461,1280,1064,1279,1317
488883,194512,158304,236648,236648,1440,1224,-1392,721,1867,1950,-1170,4559,101,97,792,1331,1417,1199,1461,1280,1064,1279,1317
489884,195020,159016,237254,237254,1643,1247,-1086,1075,1742,2584,-1359,4068,113,146,791,1331,1417,1199,1461,1280,1064,1279,1317
490885,195516,159996,237860,237860,1720,-438,-865,1361,1586,1978,1202,4361,101,149,788,1331,1417,1199,1461,1280,1064,1279,1317
491886,196000,160596,238466,238466,1798,1938,-725,1991,1375,1668,1040,4786,104,146,790,1331,1417,1199,1461,1280,1064,1279,1317
492887,196540,161256,239072,239072,1450,1561,-655,2089,1145,1556,2371,4409,108,146,780,1355,1449,1171,1419,1303,1053,1300,1343
493888,197044,161896,239678,239678,1677,1685,-725,2550,911,1893,1247,3943,112,137,787,1355,1449,1171,1419,1303,1053,1300,1343
494889,197660,162548,240284,240284,977,1609,-639,2670,690,2282,78,3193,122,145,784,1355,1449,1171,1419,1303,1053,1300,1343
495890,198212,163244,240890,240890,1378,1332,-607,2622,484,1981,606,3508,116,141,789,1355,1449,1171,1419,1303,1053,1300,1343
496891,198748,163868,241496,241496,1480,1782,-400,2415,418,1177,1300,2625,108,143,792,1355,1449,1171,1419,1303,1053,1300,1343
497892,199292,164444,242102,242102,1432,2082,-428,2213,335,1550,1007,4378,113,152,785,1355,1449,1171,1419,1303,1053,1300,1343
498893,199812,164992,242708,242708,1584,2259,-400,2225,327,1647,1347,3417,115,123,781,1263,1395,1087,1275,1263,1018,1272,1380
499894,200376,165556,243314,243314,1310,2160,-304,2323,415,2449,-300,3054,119,130,779,1263,1395,1087,1275,1263,1018,1272,1380
500895,200980,166244,243920,243920,1060,1383,-107,2476,537,2572,-1363,2731,122,138,782,1263,1395,1087,1275,1263,1018,1272,1380
501896,201552,166812,244526,244526,1261,2134,62,2642,707,2173,-489,4959,134,131,793,1263,1395,1087,1275,1263,1018,1272,1380
502897,202108,167424,245132,245132,1362,1859,208,2489,893,1050,-1074,3496,115,160,786,1263,1395,1087,1275,1263,1018,1272,1380
503898,202684,168016,245760,245760,1238,1985,329,2302,1031,825,83,3721,130,149,787,1169,1324,1046,1183,1249,1004,1245,1390
504899,203272,168532,246366,246366,1164,2462,500,2004,1000,3448,-632,1726,124,149,788,1169,1324,1046,1183,1249,1004,1245,1390
505900,203908,169188,246972,246972,863,1586,746,1824,993,3786,-568,2054,123,158,782,1169,1324,1046,1183,1249,1004,1245,1390
506901,204488,169876,247578,247578,1214,1384,816,1688,864,4104,-203,1142,118,147,794,1169,1324,1046,1183,1249,1004,1245,1390
507902,205076,170756,248184,248184,1164,177,805,1774,707,3718,-1113,3092,141,184,794,1169,1324,1046,1183,1249,1004,1245,1390
508903,205632,171556,248790,248790,1365,672,678,1957,548,3358,1268,1533,126,175,802,1169,1324,1046,1183,1249,1004,1245,1390
509904,206200,172536,249396,249396,1291,-462,538,2114,337,5102,1001,639,120,186,799,1217,1405,1101,1225,1239,986,1230,1371
510905,206796,173536,250002,250002,1116,-597,165,2250,355,3665,2547,-305,130,183,799,1217,1405,1101,1225,1239,986,1230,1371
511906,207464,174660,250608,250608,665,-1384,-250,2135,594,-1507,2522,677,124,166,798,1217,1405,1101,1225,1239,986,1230,1371
512907,208024,175648,251214,251214,1341,-544,-711,2074,547,551,1433,1216,120,157,785,1217,1405,1101,1225,1239,986,1230,1371
513908,208580,176572,251820,251820,1367,-151,-902,2135,737,60,-1304,-2010,120,160,794,1217,1405,1101,1225,1239,986,1230,1371
514909,209168,177572,252426,252426,1168,-636,-850,2222,846,1675,-2856,-1469,120,149,800,1290,1443,1117,1243,1312,1025,1278,1453
515910,209760,178468,253032,253032,1143,7,-688,2026,600,2244,-421,3444,125,148,797,1290,1443,1117,1243,1312,1025,1278,1453
516911,210408,179224,253638,253638,792,878,-643,2103,542,1159,-947,6089,112,138,803,1290,1443,1117,1243,1312,1025,1278,1453
517912,211032,180016,254244,254244,941,649,-619,2286,844,-347,-2410,5781,111,149,803,1290,1443,1117,1243,1312,1025,1278,1453
518913,211616,180892,254850,254850,1192,117,-409,2733,1210,-1723,-2072,3197,123,145,802,1290,1443,1117,1243,1312,1025,1278,1453
519914,212228,181804,255456,255456,1017,-115,31,2898,1381,-1530,-945,53,121,129,803,1290,1443,1117,1243,1312,1025,1278,1453
520915,212820,182624,256062,256062,1142,454,366,2912,1401,-9,-62,652,115,143,805,1100,1225,1019,1151,1474,1134,1361,1476
521916,213504,183456,256668,256668,565,374,506,2553,1420,68,-355,2281,138,136,803,1100,1225,1019,1151,1474,1134,1361,1476
522917,214116,184260,257274,257274,1015,544,384,2185,1602,-1717,211,2988,125,149,807,1100,1225,1019,1151,1474,1134,1361,1476
523918,214720,185072,257880,257880,1065,489,229,2116,1850,-2222,174,2040,118,138,803,1100,1225,1019,1151,1474,1134,1361,1476
524919,215308,185892,258486,258486,1166,434,169,2210,2086,-1253,1465,-640,123,145,803,1100,1225,1019,1151,1474,1134,1361,1476
525920,215948,186640,259092,259092,840,880,6,2333,2243,-149,1732,-1333,129,153,802,1146,1276,1069,1280,1292,1034,1245,1294
526921,216524,187340,259698,259698,1241,1178,-238,1902,2460,-107,675,-1475,133,135,802,1146,1276,1069,1280,1292,1034,1245,1294
527922,217164,188024,260304,260304,840,1276,-475,1629,2485,502,578,-1058,121,127,797,1146,1276,1069,1280,1292,1034,1245,1294
528923,217792,188756,260910,260910,914,973,-582,1673,2333,126,718,-1122,133,139,797,1146,1276,1069,1280,1292,1034,1245,1294
529924,218424,189508,261516,261516,889,845,-643,2151,2108,0,-376,-1624,123,139,797,1146,1276,1069,1280,1292,1034,1245,1294
530925,219048,190204,262144,262144,939,1193,-642,2321,1976,-303,-411,-11,141,157,802,1146,1276,1069,1280,1292,1034,1245,1294
531926,219704,190924,262750,262750,737,1040,-627,2456,1855,0,1487,1766,148,165,799,1282,1400,1132,1306,1152,938,1123,1231
532927,220396,191644,263356,263356,510,1037,-621,2314,1807,472,597,1302,145,147,801,1282,1400,1132,1306,1152,938,1123,1231
533928,221072,192304,263962,263962,609,1411,-611,2399,1794,2153,273,2382,139,164,804,1282,1400,1132,1306,1152,938,1123,1231
534929,221676,192964,264568,264568,1059,1410,-674,2614,1860,1787,-1518,1685,145,154,799,1282,1400,1132,1306,1152,938,1123,1231
535930,222368,193556,265174,265174,507,1835,-657,3344,1788,2577,-1357,3265,136,155,796,1282,1400,1132,1306,1152,938,1123,1231
536931,223080,194140,265780,265780,379,1886,-590,3407,1714,1287,-1535,1328,126,167,795,1187,1311,1039,1137,1195,962,1184,1359
537932,223756,194712,266386,266386,602,1961,-654,3284,1690,-633,38,2268,152,138,795,1187,1311,1039,1137,1195,962,1184,1359
538933,224532,195256,266992,266992,-27,2138,-610,3206,1696,310,236,1942,135,143,794,1187,1311,1039,1137,1195,962,1184,1359
539934,225232,195820,267598,267598,446,2014,-504,3275,1718,337,-848,553,127,136,792,1187,1311,1039,1137,1195,962,1184,1359
540935,225900,196344,268204,268204,644,2266,-452,3388,1819,-1105,-1259,1828,152,137,793,1187,1311,1039,1137,1195,962,1184,1359
541936,226664,196808,268810,268810,40,2644,-534,3163,1855,-1754,-1262,1527,147,135,788,1187,1311,1039,1137,1195,962,1184,1359
542937,227392,197284,269416,269416,262,2573,-566,2998,1936,-1203,1032,4058,125,125,784,1086,1250,1009,1118,1342,1059,1324,1516
543938,228104,197720,270022,270022,360,2827,-604,2146,2032,136,4699,1358,149,100,783,1086,1250,1009,1118,1342,1059,1324,1516
544939,228760,198168,270628,270628,709,2756,-406,539,1917,-3992,3509,2647,140,88,778,1086,1250,1009,1118,1342,1059,1324,1516
545940,229392,198556,271234,271234,858,3136,-362,-188,1588,-8391,1578,6129,138,60,772,1086,1250,1009,1118,1342,1059,1324,1516
546941,230032,198868,271840,271840,807,3618,-340,-1177,1391,-6525,956,3774,135,51,761,1086,1250,1009,1118,1342,1059,1324,1516
547942,230696,199216,272446,272446,656,3399,-361,-2072,1397,-2473,-2264,5464,142,17,747,1167,1378,1097,1228,1428,1103,1423,1627
548943,231360,199528,273052,273052,654,3632,-421,-2615,1337,-263,-1766,5963,132,-128,750,1167,1378,1097,1228,1428,1103,1423,1627
549944,232056,199812,273658,273658,452,3800,-149,-3195,1311,-1189,2115,5299,137,-124,745,1167,1378,1097,1228,1428,1103,1423,1627
550945,232804,200056,274264,274264,124,3800,56,-3668,942,117,-435,3654,145,-135,761,1167,1378,1097,1228,1428,1103,1423,1627
551946,233396,200296,274870,274870,1099,3800,285,-4478,399,-1133,2638,4901,129,238,762,1167,1378,1097,1228,1428,1103,1423,1627
552947,233936,200520,275476,275476,1426,3800,154,-5159,211,-257,1002,3485,124,239,758,1167,1378,1097,1228,1428,1103,1423,1627
553948,234580,200728,276082,276082,775,3800,54,-5275,64,3469,1593,7081,153,247,756,1469,1789,1275,1378,1350,1019,1441,1708
554949,235260,200924,276688,276688,548,3800,-109,-5187,-66,4781,-170,3928,139,250,758,1469,1789,1275,1378,1350,1019,1441,1708
555950,235960,201080,277294,277294,421,3800,-39,-5324,-241,4180,2185,4952,136,237,760,1469,1789,1275,1378,1350,1019,1441,1708
556951,236580,201272,277900,277900,920,3800,-61,-5873,-368,1851,1267,3322,143,246,761,1469,1789,1275,1378,1350,1019,1441,1708
557952,237216,201424,278528,278528,820,3800,-134,-6548,-482,1549,1058,4406,131,233,758,1469,1789,1275,1378,1350,1019,1441,1708
558953,237952,201588,279134,279134,192,3800,-251,-7037,-345,1873,-1072,4481,150,247,760,1640,2026,1298,1347,1231,943,1334,1579
559954,238616,201760,279740,279740,641,3800,-441,-7017,-47,1996,-1015,7912,161,249,761,1640,2026,1298,1347,1231,943,1334,1579
560955,239320,201908,280346,280346,388,3800,-903,-6390,95,2566,447,11764,136,241,760,1640,2026,1298,1347,1231,943,1334,1579
561956,239984,202056,280952,280952,637,3800,-1480,-6305,205,528,-59,11202,140,229,760,1640,2026,1298,1347,1231,943,1334,1579
562957,240684,202208,281558,281558,409,3800,-1912,-6851,357,-821,1628,11214,125,249,760,1640,2026,1298,1347,1231,943,1334,1579
563958,241308,202372,282164,282164,884,3800,-2119,-7570,471,-1542,-361,10848,135,255,762,1640,2026,1298,1347,1231,943,1334,1579
564959,241900,202552,282770,282770,1084,3800,-2087,-8064,607,-2662,-206,12294,140,235,760,1291,1522,1062,1097,1341,1043,1359,1638
565960,242516,202756,283376,283376,934,3800,-1915,-8506,787,-3670,-955,11879,137,259,756,1291,1522,1062,1097,1341,1043,1359,1638
566961,243084,203032,283982,283982,1235,3800,-1669,-8396,912,-4294,-3063,14808,127,248,756,1291,1522,1062,1097,1341,1043,1359,1638
567962,243652,203332,284588,284588,1236,3800,-1383,-8443,990,-4097,-3118,8951,117,222,756,1291,1522,1062,1097,1341,1043,1359,1638
568963,244228,203652,285194,285194,1187,3777,-694,-8805,1125,-4235,-3103,9843,117,254,754,1291,1522,1062,1097,1341,1043,1359,1638
569964,244732,203996,285800,285800,1639,3634,-268,-8231,1251,-3219,-4686,11757,108,225,752,991,1144,973,1081,1818,1324,1554,1752
570965,245168,204336,286406,286406,2068,3665,-133,-9349,1490,-5596,2962,298,99,-139,736,991,1144,973,1081,1818,1324,1554,1752
571966,245620,204760,287012,287012,1972,3145,-485,-9543,1533,-1800,-101,10679,109,-57,736,991,1144,973,1081,1818,1324,1554,1752
572967,246028,205228,287618,287618,2252,2873,-943,-9569,1535,1032,2843,4618,99,-19,741,991,1144,973,1081,1818,1324,1554,1752
573968,246384,205556,288224,288224,2583,3755,-1605,-8852,1745,3242,3284,8371,83,20,748,991,1144,973,1081,1818,1324,1554,1752
574969,246668,205896,288830,288830,3041,3686,-2335,-7718,1913,1774,1929,7924,45,162,744,991,1144,973,1081,1818,1324,1554,1752
575970,247016,206380,289436,289436,2647,2789,-2782,-6870,1902,306,3031,7493,9,-17,728,1311,1487,1288,1559,1647,1319,1546,1519
576971,247296,206808,290042,290042,3080,3144,-3153,-6233,2176,155,-733,7490,54,42,734,1311,1487,1288,1559,1647,1319,1546,1519
577972,247492,207244,290648,290648,3615,3098,-3135,-5658,2593,736,1900,8897,0,13,733,1311,1487,1288,1559,1647,1319,1546,1519
578973,247656,207680,291254,291254,3800,3102,-3157,-4627,2923,119,-2655,9544,-171,20,724,1311,1487,1288,1559,1647,1319,1546,1519
579974,247832,208136,291860,291860,3761,2981,-3009,-4060,3135,-719,-403,8825,250,-3,744,1311,1487,1288,1559,1647,1319,1546,1519
580975,248020,208628,292466,292466,3697,2758,-2770,-3413,3355,-371,-2378,9734,169,29,736,1535,1591,1359,1647,1431,1191,1335,1275
581976,248200,209096,293072,293072,3757,2912,-2299,-2795,3592,-770,-1066,8524,-27,43,728,1535,1591,1359,1647,1431,1191,1335,1275
582977,248352,209552,293678,293678,3800,2990,-1749,-1968,3844,-1636,-2470,10010,113,31,740,1535,1591,1359,1647,1431,1191,1335,1275
583978,248472,210040,294284,294284,3800,2793,-1166,-1507,4037,-2175,-1881,8562,279,19,740,1535,1591,1359,1647,1431,1191,1335,1275
584979,248648,210500,294912,294912,3800,2972,-699,-1090,4192,-1334,-658,9929,233,37,740,1535,1591,1359,1647,1431,1191,1335,1275
585980,248812,210960,295518,295518,3800,2976,-404,-399,4544,-1857,-1211,8940,253,31,744,1535,1591,1359,1647,1431,1191,1335,1275
586981,249008,211668,296124,296124,3712,1423,-215,187,4839,-3001,-892,7891,262,55,742,1200,1216,1056,1298,1184,966,1120,1096
587982,249164,212288,296730,296730,3800,1973,-121,408,4819,-1648,976,7547,-15,111,736,1200,1216,1056,1298,1184,966,1120,1096
588983,249344,212848,297336,297336,3800,2349,-124,807,4767,174,1078,8857,265,95,752,1200,1216,1056,1298,1184,966,1120,1096
589984,249532,213544,297942,297942,3793,1497,-252,1664,4618,2913,1498,8481,273,99,748,1200,1216,1056,1298,1184,966,1120,1096
590985,249768,214244,298548,298548,3502,1470,-315,2428,4469,2846,1650,6419,233,119,752,1200,1216,1056,1298,1184,966,1120,1096
591986,250012,214892,299154,299154,3461,1794,-372,3115,4411,2766,1534,4518,-253,125,737,1144,1295,1040,1260,1047,858,1076,1144
592987,250272,215684,299760,299760,3370,889,-298,3541,4369,2158,1068,3120,-247,110,740,1144,1295,1040,1260,1047,858,1076,1144
593988,250528,216320,300366,300366,3403,1863,-135,3991,4263,3590,-63,4021,-143,126,744,1144,1295,1040,1260,1047,858,1076,1144
594989,250796,217036,300972,300972,3337,1361,224,4122,4256,4054,-1014,3448,-167,124,740,1144,1295,1040,1260,1047,858,1076,1144
595990,251016,217724,301578,301578,3646,1534,630,4627,4199,2844,-888,5817,-117,131,739,1144,1295,1040,1260,1047,858,1076,1144
596991,251280,218496,302184,302184,3379,1005,1148,4985,4078,1522,-1285,3353,-119,131,738,1144,1295,1040,1260,1047,858,1076,1144
597992,251564,219168,302790,302790,3262,1628,1652,5218,3998,1538,-2694,3088,-119,126,742,1258,1394,1109,1291,1151,944,1213,1321
598993,251880,219960,303396,303396,3069,874,2203,5425,3911,3075,-356,2295,-88,124,746,1258,1394,1109,1291,1151,944,1213,1321
599994,252156,220672,304002,304002,3327,1371,2676,5594,3823,3941,-1810,1533,-5,139,756,1258,1394,1109,1291,1151,944,1213,1321
600995,252504,221388,304608,304608,2884,1343,2945,5722,3710,4577,-1112,448,-89,136,747,1258,1394,1109,1291,1151,944,1213,1321
601996,252832,222124,305214,305214,3015,1215,3246,5602,3566,2701,1280,-651,39,122,756,1258,1394,1109,1291,1151,944,1213,1321
602997,253152,222848,305820,305820,3072,1287,3347,5721,3253,3355,2899,1055,28,136,756,1294,1472,1125,1315,1159,919,1166,1260
603998,253516,223652,306426,306426,2803,782,3372,5814,3034,3213,1373,-115,21,141,756,1294,1472,1125,1315,1159,919,1166,1260
604999,253924,224296,307032,307032,2533,1781,3145,5937,2795,3008,2361,1600,36,124,764,1294,1472,1125,1315,1159,919,1166,1260
606000,254272,225024,307638,307638,2914,1253,3064,5749,2640,1504,1005,717,74,115,769,1294,1472,1125,1315,1159,919,1166,1260
607004,254664,225748,308244,308244,2645,1276,3025,5510,2314,2770,2567,272,42,130,763,1294,1472,1125,1315,1159,919,1166,1260
608002,255072,226396,308850,308850,2549,1750,3206,4859,2029,1796,2243,1474,53,120,763,1294,1472,1125,1315,1159,919,1166,1260
609003,255448,227108,309456,309456,2755,1347,3302,4421,1618,2510,2133,968,78,117,765,1257,1408,1067,1214,1075,877,1100,1205
610004,255848,227784,310062,310062,2610,1570,3463,4170,1190,2687,2788,2783,59,145,765,1257,1408,1067,1214,1075,877,1100,1205
611005,256344,228424,310668,310668,2013,1794,3709,4082,768,4933,1384,2536,74,129,767,1257,1408,1067,1214,1075,877,1100,1205
612006,256764,229044,311296,311296,2493,1920,4015,3985,448,4840,966,2702,80,120,770,1257,1408,1067,1214,1075,877,1100,1205
613007,257196,229644,311902,311902,2422,2045,4470,4200,392,2841,178,4426,70,135,771,1257,1408,1067,1214,1075,877,1100,1205
614008,257652,230308,312508,312508,2276,1643,4879,4657,337,3782,-1299,5355,83,140,765,1103,1278,987,1079,1183,939,1199,1390
615009,258156,230896,313114,313114,1978,2119,5256,4745,284,3584,-940,3042,89,145,767,1103,1278,987,1079,1183,939,1199,1390
616010,258672,231480,313720,313720,1905,2144,5350,5047,380,1777,743,4321,104,136,774,1103,1278,987,1079,1183,939,1199,1390
617011,259264,232000,314326,314326,1431,2546,5136,6094,903,-1694,-4544,5094,120,148,772,1103,1278,987,1079,1183,939,1199,1390
618012,259844,232600,314932,314932,1506,2047,5117,5627,1078,1674,-2228,-1468,107,143,774,1103,1278,987,1079,1183,939,1199,1390
619013,260420,233344,315538,315538,1532,1143,5219,4709,1334,-3257,-31,382,118,143,780,1103,1278,987,1079,1183,939,1199,1390
620014,261008,234040,316144,316144,1458,1441,5000,3655,1283,258,1306,-2450,132,163,786,1159,1375,1075,1205,1247,1007,1293,1443
621015,261596,234660,316750,316750,1458,1916,4834,2413,1028,1779,1912,-4581,122,163,791,1159,1375,1075,1205,1247,1007,1293,1443
622016,262268,235296,317356,317356,931,1815,4672,1921,721,2382,3683,-2779,129,150,787,1159,1375,1075,1205,1247,1007,1293,1443
623017,262892,235940,317962,317962,1231,1764,4457,1953,380,4152,3013,-2075,138,174,789,1159,1375,1075,1205,1247,1007,1293,1443
624018,263536,236696,318568,318568,1105,1060,4206,2615,-176,5541,3368,185,130,163,791,1159,1375,1075,1205,1247,1007,1293,1443
625019,264180,237460,319174,319174,1104,1006,3914,3475,-349,3087,1313,1564,136,181,793,1339,1535,1171,1296,1352,1067,1356,1515
626020,264784,238268,319780,319780,1354,727,3548,4471,-68,1921,213,2156,137,179,799,1339,1535,1171,1296,1352,1067,1356,1515
627021,265404,239312,320386,320386,1254,-759,3411,4091,237,713,499,-314,131,188,797,1339,1535,1171,1296,1352,1067,1356,1515
628022,266144,240408,320992,320992,501,-1096,3471,3576,414,-2451,743,3501,138,172,796,1339,1535,1171,1296,1352,1067,1356,1515
629023,266808,241516,321598,321598,974,-1183,3744,3269,446,-1395,-962,3890,151,180,794,1339,1535,1171,1296,1352,1067,1356,1515
630025,267464,242324,322204,322204,1023,687,4168,3832,621,1665,-5163,3030,145,176,791,1339,1535,1171,1296,1352,1067,1356,1515
631025,268100,243204,322810,322810,1147,230,4531,4255,928,937,-8240,-488,156,151,795,1156,1276,1025,1116,1422,1092,1301,1451
632026,268760,244048,323416,323416,996,449,4627,3980,1025,6,-2086,4198,153,152,800,1156,1276,1025,1116,1422,1092,1301,1451
633027,269496,244908,324022,324022,518,343,4440,3388,1183,-528,-389,4088,141,144,802,1156,1276,1025,1116,1422,1092,1301,1451
634028,270160,245976,324628,324628,966,-968,3917,3194,1494,-2171,-167,4009,152,148,806,1156,1276,1025,1116,1422,1092,1301,1451
635029,270812,246872,325234,325234,1040,100,3519,3321,1757,-3057,81,1244,139,160,801,1156,1276,1025,1116,1422,1092,1301,1451
636030,271480,247800,325840,325840,939,-108,3280,3542,1995,-2426,-306,-676,143,146,799,1057,1186,988,1133,1289,1005,1231,1327
637031,272164,248660,326446,326446,837,311,3220,3751,2052,-366,307,-515,154,137,805,1057,1186,988,1133,1289,1005,1231,1327
638032,272880,249464,327052,327052,634,656,2939,3707,2115,-659,1619,1843,144,153,806,1057,1186,988,1133,1289,1005,1231,1327
639033,273612,250332,327680,327680,532,250,2487,3789,2057,1420,2441,1612,139,133,805,1057,1186,988,1133,1289,1005,1231,1327
640034,274292,251052,328286,328286,855,1172,2207,3638,2093,1492,361,-206,149,144,807,1057,1186,988,1133,1289,1005,1231,1327
641035,274988,251760,328892,328892,753,1245,2061,3824,2158,1828,251,492,153,150,804,1180,1326,1069,1232,1324,1046,1303,1439
642036,275688,252500,329498,329498,725,1041,1991,4210,2214,2490,-1094,-1169,137,141,799,1180,1326,1069,1232,1324,1046,1303,1439
643037,276416,253240,330104,330104,547,1038,1978,4418,2105,2147,-1335,-991,154,163,800,1180,1326,1069,1232,1324,1046,1303,1439
644038,277180,254096,330710,330710,318,307,2017,4281,1775,1181,-433,-2086,143,152,802,1180,1326,1069,1232,1324,1046,1303,1439
645039,277848,254792,331316,331316,917,1305,2173,3645,1444,-1211,-1581,-4336,145,139,806,1180,1326,1069,1232,1324,1046,1303,1439
646040,278488,255444,331922,331922,1091,1579,2235,3099,1218,-3062,-944,-1583,143,146,804,1180,1326,1069,1232,1324,1046,1303,1439
647041,279196,256092,332528,332528,664,1603,1993,2577,1232,-3234,-2755,-784,134,137,795,1196,1327,1085,1216,1383,1086,1309,1464
648042,279884,256764,333134,333134,787,1451,1639,1962,1498,-1718,-34,2461,125,152,794,1196,1327,1085,1216,1383,1086,1309,1464
649043,280536,257460,333740,333740,1010,1299,1376,1847,1841,-1721,-661,4427,139,143,794,1196,1327,1085,1216,1383,1086,1309,1464
650044,281292,258060,334346,334346,357,1899,1440,2008,2024,290,570,2532,131,141,796,1196,1327,1085,1216,1383,1086,1309,1464
651045,281944,258668,334952,334952,1006,1849,1536,2673,2287,2164,-201,2905,137,143,795,1196,1327,1085,1216,1383,1086,1309,1464
652046,282532,259236,335558,335558,1406,2100,1662,3079,2577,4140,-2272,3571,140,137,793,1104,1268,1004,1088,1296,992,1286,1513
653047,283172,259808,336164,336164,1080,2076,1528,3469,2647,4386,-1056,5963,142,150,788,1104,1268,1004,1088,1296,992,1286,1513
654048,283816,260392,336770,336770,1054,2001,1406,3611,2452,3084,-368,5010,144,147,785,1104,1268,1004,1088,1296,992,1286,1513
655049,284544,260848,337376,337376,526,2805,1309,3793,2211,219,-295,4345,142,133,785,1104,1268,1004,1088,1296,992,1286,1513
656050,285188,261360,337982,337982,1050,2457,1059,3603,1796,-1438,2751,1394,142,107,789,1104,1268,1004,1088,1296,992,1286,1513
657053,285868,261848,338588,338588,824,2610,568,2789,1284,-2723,2792,1951,138,124,781,1104,1268,1004,1088,1296,992,1286,1513
658052,286512,262388,339194,339194,1048,2287,-169,1603,960,-4870,4047,2824,141,102,778,1162,1375,1067,1171,1319,1022,1332,1583
659053,287208,262924,339800,339800,720,2313,-896,553,775,-4025,1153,3498,146,119,777,1162,1375,1067,1171,1319,1022,1332,1583
660054,287980,263392,340406,340406,241,2742,-1499,-114,824,-4452,-1103,3615,144,106,782,1162,1375,1067,1171,1319,1022,1332,1583
661055,288776,263868,341012,341012,87,2695,-1962,-199,664,-2491,-2125,3683,145,78,782,1162,1375,1067,1171,1319,1022,1332,1583
662056,289560,264300,341618,341618,157,2974,-2084,-489,337,-2549,-1793,43,140,68,776,1162,1375,1067,1171,1319,1022,1332,1583
663057,290260,264792,342224,342224,680,2602,-2140,-1091,35,-3768,-3249,-602,131,44,777,1253,1497,1159,1227,1666,1255,1637,2059
664058,290960,265188,342830,342830,678,3207,-2181,-1937,-170,-4694,-2896,-49,158,63,767,1253,1497,1159,1227,1666,1255,1637,2059
665059,291700,265612,343436,343436,425,3037,-2335,-2384,-181,-994,-1328,3414,156,-3,774,1253,1497,1159,1227,1666,1255,1637,2059
666060,292500,265980,344064,344064,45,3393,-2645,-2164,-548,5726,-119,8243,141,9,755,1253,1497,1159,1227,1666,1255,1637,2059
667061,293136,266300,344670,344670,1070,3700,-2561,-2736,-716,-143,3210,1819,168,-133,759,1253,1497,1159,1227,1666,1255,1637,2059
668062,293816,266596,345276,345276,793,3800,-2686,-2719,-785,-1585,-2486,7489,156,6,752,1253,1497,1159,1227,1666,1255,1637,2059
669063,294636,266920,345882,345882,-87,3689,-2858,-2959,-876,-4145,-2160,1715,147,253,746,1151,1376,1071,1103,1775,1290,1615,1954
670064,295452,267240,346488,346488,-68,3721,-3129,-3364,-1001,-3315,30,5193,169,-41,760,1151,1376,1071,1103,1775,1290,1615,1954
671065,296172,267528,347094,347094,530,3800,-3446,-3454,-1179,141,-404,5030,159,39,748,1151,1376,1071,1103,1775,1290,1615,1954
672066,296908,267784,347700,347700,427,3800,-3777,-3562,-1264,587,1818,5112,148,239,752,1151,1376,1071,1103,1775,1290,1615,1954
673067,297580,268020,348306,348306,825,3800,-4235,-3844,-1301,-2793,1001,5068,163,243,762,1151,1376,1071,1103,1775,1290,1615,1954
674068,298400,268300,348912,348912,-105,3800,-4776,-4542,-1569,-2962,3909,5682,145,257,760,1108,1329,1028,1112,1386,1046,1336,1543
675069,299112,268588,349518,349518,567,3800,-5289,-5057,-1813,-1412,2266,5689,143,276,760,1108,1329,1028,1112,1386,1046,1336,1543
676070,299676,268876,350124,350124,1493,3800,-5549,-5636,-1791,-4056,1284,3007,151,226,762,1108,1329,1028,1112,1386,1046,1336,1543
677071,300400,269140,350730,350730,490,3800,-5592,-6034,-1831,-4169,1229,5020,151,271,760,1108,1329,1028,1112,1386,1046,1336,1543
678072,301156,269388,351336,351336,287,3800,-5576,-6488,-1965,-2733,192,4219,165,261,754,1108,1329,1028,1112,1386,1046,1336,1543
679073,301872,269656,351942,351942,534,3800,-5399,-7092,-1978,-4089,2132,5078,162,239,761,1108,1329,1028,1112,1386,1046,1336,1543
680074,302572,269936,352548,352548,632,3800,-5095,-7640,-1903,-4387,677,2969,145,271,764,1184,1387,1057,1164,1235,961,1238,1419
681075,303320,270260,353154,353154,328,3785,-4686,-8020,-1787,-2950,-434,2335,171,271,760,1184,1387,1057,1164,1235,961,1238,1419
682076,304028,270580,353760,353760,576,3800,-4442,-7867,-1616,-1615,-778,2626,152,228,760,1184,1387,1057,1164,1235,961,1238,1419
683077,304760,270880,354366,354366,423,3800,-4338,-7528,-1327,-648,38,3739,153,249,760,1184,1387,1057,1164,1235,961,1238,1419
684078,305456,271152,354972,354972,645,3800,-4423,-7146,-1291,1740,2650,5997,153,238,758,1184,1387,1057,1164,1235,961,1238,1419
685079,306228,271504,355578,355578,166,3639,-4632,-6728,-1463,1684,5162,5370,141,271,761,1341,1540,1166,1302,1132,911,1140,1255
686080,306932,271876,356184,356184,589,3520,-4824,-6687,-1580,1358,4049,2174,159,-141,760,1341,1540,1166,1302,1132,911,1140,1255
687081,307624,272284,356790,356790,662,3300,-5031,-7032,-1289,-1845,3973,1019,160,-179,746,1341,1540,1166,1302,1132,911,1140,1255
688082,308316,272668,357396,357396,660,3455,-5270,-7012,-1073,-676,5653,4112,150,-36,749,1341,1540,1166,1302,1132,911,1140,1255
689083,309024,273132,358002,358002,557,2959,-5561,-6980,-957,1410,2482,5390,141,-129,751,1341,1540,1166,1302,1132,911,1140,1255
690084,309672,273832,358608,358608,931,1481,-5738,-7500,-642,694,1012,4038,138,32,752,1341,1540,1166,1302,1132,911,1140,1255
691085,310324,274272,359214,359214,905,3110,-5629,-8127,-253,-1950,2244,4543,136,91,765,1422,1509,1161,1337,1205,1005,1225,1339
692086,310856,274660,359820,359820,1657,3441,-5199,-7797,68,-4526,5148,9857,114,21,790,1422,1509,1161,1337,1205,1005,1225,1339
693087,311420,275344,360448,360448,1458,1589,-5240,-6139,-41,4497,-3857,13319,121,-65,760,1422,1509,1161,1337,1205,1005,1225,1339
694088,311956,276148,361054,361054,1635,834,-5292,-5923,-64,4290,-1153,-1110,120,107,746,1422,1509,1161,1337,1205,1005,1225,1339
695089,312424,276924,361660,361660,2064,1005,-4499,-6121,458,-1691,-1614,10289,90,130,784,1422,1509,1161,1337,1205,1005,1225,1339
696090,312912,277748,362266,362266,1941,700,-3913,-5894,601,2101,-7933,6830,89,114,789,1172,1250,1056,1207,1551,1227,1439,1536
697091,313308,278460,362872,362872,2522,1397,-3740,-5259,515,-143,-635,10099,84,116,780,1172,1250,1056,1207,1551,1227,1439,1536
698092,313648,279192,363478,363478,2878,1269,-3775,-4794,537,711,-2285,7922,45,128,785,1172,1250,1056,1207,1551,1227,1439,1536
699093,313920,279876,364084,364084,3311,1567,-3598,-4658,695,2003,-89,4340,21,130,767,1172,1250,1056,1207,1551,1227,1439,1536
700094,314156,280716,364690,364690,3545,587,-3723,-3471,876,4204,548,8652,-112,130,757,1172,1250,1056,1207,1551,1227,1439,1536
701095,314408,281520,365296,365296,3454,807,-3844,-1991,1338,-860,-2304,6954,-234,147,738,1172,1250,1056,1207,1551,1227,1439,1536
702096,314636,282272,365902,365902,3613,1128,-3828,-1239,1644,-2999,1084,6851,-223,136,747,1231,1349,1163,1445,1487,1211,1403,1355
703097,314812,282912,366508,366508,3800,1827,-3810,-1248,1618,-3467,-450,6397,-165,142,747,1231,1349,1163,1445,1487,1211,1403,1355
704098,314988,283636,367114,367114,3800,1300,-3628,-1397,1632,-2088,-884,7872,269,127,737,1231,1349,1163,1445,1487,1211,1403,1355
705100,315128,284300,367720,367720,3800,1673,-3339,-1466,1776,-1228,-641,7983,259,137,748,1231,1349,1163,1445,1487,1211,1403,1355
706100,315276,285024,368326,368326,3800,1295,-3080,-1000,1733,-332,-1469,9795,241,139,756,1231,1349,1163,1445,1487,1211,1403,1355
707101,315388,285804,368932,368932,3800,941,-2866,-470,1582,1539,252,8670,265,147,752,1367,1391,1191,1543,1201,1035,1216,1127
708102,315516,286532,369538,369538,3800,1263,-2614,181,1541,2374,-2137,9250,254,131,756,1367,1391,1191,1543,1201,1035,1216,1127
709103,315648,287192,370144,370144,3800,1687,-2336,718,1478,3545,-1176,8911,267,125,758,1367,1391,1191,1543,1201,1035,1216,1127
710104,315776,287840,370750,370750,3800,1761,-1945,1342,1399,3926,-1528,9681,241,117,754,1367,1391,1191,1543,1201,1035,1216,1127
711105,315896,288552,371356,371356,3800,1358,-1591,2003,1241,4073,-2490,9418,236,131,752,1367,1391,1191,1543,1201,1035,1216,1127
712106,316016,289196,371962,371962,3800,1782,-1215,2575,1055,3321,-1874,10444,235,138,752,1367,1391,1191,1543,1201,1035,1216,1127
713107,316164,289956,372568,372568,3800,1053,-877,3178,907,4106,-2337,10224,255,124,754,1466,1482,1207,1586,1112,958,1160,1133
714108,316244,290692,373174,373174,3800,1200,-525,3776,831,4366,-1910,9304,217,135,752,1466,1482,1207,1586,1112,958,1160,1133
715109,316340,291320,373780,373780,3800,1875,-149,4342,808,3293,-2581,8685,267,119,756,1466,1482,1207,1586,1112,958,1160,1133
716110,316456,291964,374386,374386,3800,1774,208,4848,721,2783,-1963,7686,245,121,756,1466,1482,1207,1586,1112,958,1160,1133
717111,316552,292636,374992,374992,3800,1597,588,5161,716,2385,-1479,6893,255,124,752,1466,1482,1207,1586,1112,958,1160,1133
718112,316636,293256,375598,375598,3800,1922,1014,5289,824,1313,-1779,5468,249,139,752,1443,1550,1200,1486,1093,909,1145,1182
719113,316764,293932,376204,376204,3800,1570,1313,5334,932,270,-511,4989,257,131,752,1443,1550,1200,1486,1093,909,1145,1182
720114,316968,294624,376832,376832,3800,1469,1663,5125,1009,-221,286,5145,262,139,748,1443,1550,1200,1486,1093,909,1145,1182
721115,317172,295264,377438,377438,3800,1793,1960,4848,1034,654,1349,5550,259,127,754,1443,1550,1200,1486,1093,909,1145,1182
722116,317416,295840,378044,378044,3742,2193,2196,4702,1085,1102,710,6035,262,125,753,1443,1550,1200,1486,1093,909,1145,1182
723117,317660,296448,378650,378650,3751,1993,2546,4798,1149,703,1714,7470,111,135,752,1443,1550,1200,1486,1093,909,1145,1182
724118,318020,297100,379256,379256,3032,1717,2904,5107,1133,1680,393,7682,155,135,744,1342,1499,1117,1317,1120,910,1178,1273
725119,318348,297784,379862,379862,3238,1515,3329,5355,1116,2589,-440,6383,25,134,744,1342,1499,1117,1317,1120,910,1178,1273
726120,318672,298464,380468,380468,3270,1539,3764,5601,1033,3488,1426,7612,-33,144,752,1342,1499,1117,1317,1120,910,1178,1273
727121,319052,299104,381074,381074,2926,1788,4226,5505,912,3433,437,5614,-45,138,749,1342,1499,1117,1317,1120,910,1178,1273
728122,319432,299768,381680,381680,2931,1636,4532,5497,685,4505,315,6508,37,138,749,1342,1499,1117,1317,1120,910,1178,1273
729123,319824,300400,382286,382286,2861,1836,4933,5424,565,3708,-235,5341,50,147,759,1284,1492,1106,1244,1172,932,1212,1344
730124,320272,301072,382892,382892,2515,1584,5263,5544,419,4253,559,5329,60,127,758,1284,1492,1106,1244,1172,932,1212,1344
731125,320688,301752,383498,383498,2720,1532,5616,5432,267,4182,495,4060,68,132,758,1284,1492,1106,1244,1172,932,1212,1344
732126,321100,302460,384104,384104,2750,1355,5818,5288,135,2939,1701,3413,63,139,767,1284,1492,1106,1244,1172,932,1212,1344
733127,321568,303040,384710,384710,2403,2155,5938,4875,38,2451,1276,2270,60,139,764,1284,1492,1106,1244,1172,932,1212,1344
734128,322060,303656,385316,385316,2256,1930,5992,4399,-24,1324,2682,580,87,135,763,1284,1492,1106,1244,1172,932,1212,1344
735129,322524,304336,385922,385922,2434,1528,6039,4344,-9,1420,2761,1160,105,145,763,1407,1607,1215,1387,1167,964,1226,1318
736130,323100,305064,386528,386528,1735,1225,5985,4417,217,-373,-1031,-146,103,142,769,1407,1607,1215,1387,1167,964,1226,1318
737131,323648,305820,387134,387134,1911,1047,5897,4121,196,372,2513,-998,124,160,773,1407,1607,1215,1387,1167,964,1226,1318
738132,324184,306572,387740,387740,1988,1068,5881,3425,113,546,3039,-880,102,153,787,1407,1607,1215,1387,1167,964,1226,1318
739133,324760,307388,388346,388346,1739,663,5779,2769,168,1272,1438,46,112,163,784,1407,1607,1215,1387,1167,964,1226,1318
740134,325352,308196,388952,388952,1639,708,5700,2796,191,2727,1455,271,118,159,784,1383,1547,1166,1299,1199,981,1231,1375
741135,326008,309132,389558,389558,1238,-100,5912,2682,122,2354,251,-1360,113,164,792,1383,1547,1166,1299,1199,981,1231,1375
742136,326572,309968,390164,390164,1814,519,6261,2434,-119,2696,81,938,118,164,793,1383,1547,1166,1299,1199,981,1231,1375
743137,327192,310792,390770,390770,1464,589,6397,2613,-385,3685,3020,4603,110,162,801,1383,1547,1166,1299,1199,981,1231,1375
744138,327880,311584,391376,391376,1037,785,6168,3362,-475,5545,21,4354,133,155,791,1383,1547,1166,1299,1199,981,1231,1375
745139,328520,312580,391982,391982,1336,-500,5993,4543,-144,2658,-3415,2634,142,164,798,1383,1547,1166,1299,1199,981,1231,1375
746140,329216,313548,392588,392588,984,-334,6044,5479,411,-841,-3361,2295,139,165,800,1082,1229,966,1033,1275,987,1227,1402
747141,330024,314432,393216,393216,279,185,6323,5532,609,-1000,-2329,2535,151,166,796,1082,1229,966,1033,1275,987,1227,1402
748142,330732,315264,393822,393822,902,504,6432,4925,694,-1504,-1665,2090,153,158,803,1082,1229,966,1033,1275,987,1227,1402
749143,331384,316104,394428,394428,1251,449,6326,4241,967,-1754,-3429,3114,139,161,810,1082,1229,966,1033,1275,987,1227,1402
750144,331924,317076,395034,395034,1952,-385,6167,3549,1447,-1779,-5975,949,146,154,803,1082,1229,966,1033,1275,987,1227,1402
751145,332528,317928,395640,395640,1552,359,5915,3761,1773,-1147,-1581,5469,152,145,799,995,1122,947,1094,1339,1055,1281,1389
752146,333288,318728,396246,396246,574,679,5742,4097,1745,-3063,381,636,155,158,788,995,1122,947,1094,1339,1055,1281,1389
753147,333960,319476,396852,396852,1122,1001,5613,3991,1346,-3505,-984,-186,165,142,798,995,1122,947,1094,1339,1055,1281,1389
754148,334652,320096,397458,397458,995,1800,5152,3916,1018,-1916,2029,1692,156,147,805,995,1122,947,1094,1339,1055,1281,1389
755149,335368,320812,398064,398064,842,1198,4476,2819,1063,-1692,482,-4458,153,146,798,995,1122,947,1094,1339,1055,1281,1389
756150,336068,321460,398670,398670,940,1622,3662,1758,1052,-1560,-441,-1956,156,154,792,995,1122,947,1094,1339,1055,1281,1389
757151,336784,322104,399276,399276,837,1646,3122,1185,851,-2804,1272,-1225,145,137,799,1220,1352,1128,1349,1465,1168,1437,1568
758152,337612,322716,399882,399882,132,1845,2662,991,479,647,1904,1434,153,145,794,1220,1352,1128,1349,1465,1168,1437,1568
759153,338392,323304,400488,400488,428,1996,2248,899,311,4325,204,2025,161,135,794,1220,1352,1128,1349,1465,1168,1437,1568
760154,339148,323932,401094,401094,574,1745,1805,941,451,4342,-1659,1616,153,136,793,1220,1352,1128,1349,1465,1168,1437,1568
761155,339816,324476,401700,401700,1122,2272,1598,576,721,1506,-2234,-824,165,142,791,1220,1352,1128,1349,1465,1168,1437,1568
762156,340600,325032,402306,402306,393,2198,1672,1117,733,2360,-4164,5157,143,138,793,1260,1408,1143,1221,1771,1318,1618,2002
763157,341424,325536,402912,402912,138,2526,1884,1683,546,4110,-3635,2848,148,142,783,1260,1408,1143,1221,1771,1318,1618,2002
764158,342168,325996,403518,403518,634,2804,2140,1597,508,639,-5948,576,158,131,790,1260,1408,1143,1221,1771,1318,1618,2002
765159,342920,326508,404124,404124,581,2481,2442,1261,402,-2015,-1325,1496,156,108,785,1260,1408,1143,1221,1771,1318,1618,2002
766160,343668,327024,404730,404730,602,2459,2480,1144,215,-3061,-2807,973,157,137,780,1260,1408,1143,1221,1771,1318,1618,2002
767161,344388,327556,405336,405336,774,2360,2267,750,114,-931,-2507,-35,151,115,783,1260,1408,1143,1221,1771,1318,1618,2002
768162,345216,328068,405942,405942,94,2488,1709,773,304,-1062,-694,4539,139,116,779,1078,1300,1030,1057,1501,1079,1380,1630
769163,345924,328576,406548,406548,842,2515,869,830,385,-657,192,5056,146,116,782,1078,1300,1030,1057,1501,1079,1380,1630
770164,346688,329164,407154,407154,488,2016,-114,946,340,595,2267,6654,153,101,784,1078,1300,1030,1057,1501,1079,1380,1630
771165,347396,329672,407760,407760,835,2518,-1053,806,546,-68,1057,4878,140,114,777,1078,1300,1030,1057,1501,1079,1380,1630
772166,348068,330196,408366,408366,1059,2420,-1785,242,774,-2575,3080,4848,146,90,789,1078,1300,1030,1057,1501,1079,1380,1630
773167,348772,330676,408972,408972,856,2698,-2419,-36,572,-2371,1308,5576,151,91,777,1074,1291,968,1041,1234,973,1300,1529
774168,349592,331184,409600,409600,127,2526,-2748,-306,198,-2826,1778,5599,156,62,775,1074,1291,968,1041,1234,973,1300,1529
775169,350324,331696,410206,410206,673,2503,-2951,-544,-132,-3427,-978,5491,158,61,770,1074,1291,968,1041,1234,973,1300,1529
776170,351072,332128,410812,410812,570,3007,-2922,-1272,-373,-2262,2923,5189,164,49,779,1074,1291,968,1041,1234,973,1300,1529
777171,351812,332544,411418,411418,617,3112,-3018,-1878,-634,-906,-982,3900,148,17,772,1074,1291,968,1041,1234,973,1300,1529
778172,352572,332944,412024,412024,488,3217,-2972,-2431,-808,-2352,-1375,1944,169,-10,762,1074,1291,968,1041,1234,973,1300,1529
779173,353368,333312,412630,412630,258,3423,-2808,-2640,-884,-2921,-1218,1192,160,-37,760,1081,1273,1045,1143,1666,1285,1581,1894
780174,354120,333700,413236,413236,530,3303,-2588,-2541,-1183,-297,-2185,1636,154,-138,758,1081,1273,1045,1143,1666,1285,1581,1894
781175,354872,334096,413842,413842,526,3258,-2429,-2564,-1422,-985,-797,1161,177,-72,753,1081,1273,1045,1143,1666,1285,1581,1894
782176,355688,334488,414448,414448,121,3289,-2409,-2971,-1420,-2595,487,-1,164,-63,748,1081,1273,1045,1143,1666,1285,1581,1894
783177,356468,334856,415054,415054,342,3444,-2462,-3358,-1387,-3135,1260,-872,180,-60,753,1081,1273,1045,1143,1666,1285,1581,1894
784178,357236,335184,415660,415660,413,3701,-2639,-3480,-1481,-1987,-102,-1810,173,-137,753,1302,1481,1239,1405,1639,1275,1519,1623
785179,358120,335636,416266,416266,-319,2930,-2943,-3539,-1547,-2638,2504,-10,149,-17,750,1302,1481,1239,1405,1639,1275,1519,1623
786180,358968,336008,416872,416872,-100,3436,-3334,-3831,-1476,-2667,4226,613,176,-8,748,1302,1481,1239,1405,1639,1275,1519,1623
787181,359736,336348,417478,417478,396,3642,-3737,-4075,-1380,-846,6544,1905,157,-183,762,1302,1481,1239,1405,1639,1275,1519,1623
788182,360436,336672,418084,418084,819,3749,-4111,-4416,-1464,-676,5500,682,162,-134,752,1302,1481,1239,1405,1639,1275,1519,1623
789183,361152,336996,418690,418690,716,3756,-4348,-4746,-1535,-2706,7713,3036,163,147,745,1302,1481,1239,1405,1639,1275,1519,1623
790184,361852,337444,419296,419296,814,2985,-4590,-4690,-1446,-3095,3387,4242,151,163,752,1344,1453,1165,1312,1143,937,1136,1215
791185,362704,337860,419902,419902,-142,3189,-4816,-4295,-1296,-542,1646,7998,172,4,756,1344,1453,1165,1312,1143,937,1136,1215
792186,363476,338284,420508,420508,354,3144,-4777,-4044,-941,-64,1664,5482,149,-30,759,1344,1453,1165,1312,1143,937,1136,1215
793187,364268,338672,421114,421114,224,3374,-4556,-3897,-720,258,1042,6122,144,-17,757,1344,1453,1165,1312,1143,937,1136,1215
794188,364980,339092,421720,421720,722,3179,-4301,-3623,-695,-975,1234,6258,172,-131,760,1344,1453,1165,1312,1143,937,1136,1215
795189,365672,339584,422326,422326,845,2732,-3975,-3367,-759,-866,1028,5224,158,-35,752,1074,1176,935,1003,1089,872,1072,1248
796190,366332,340036,422932,422932,1043,2985,-3619,-3265,-736,-1014,576,4124,159,26,759,1074,1176,935,1003,1089,872,1072,1248
797191,367088,340480,423538,423538,440,3039,-3186,-3459,-576,-1887,131,3753,165,1,766,1074,1176,935,1003,1089,872,1072,1248
798192,367836,340940,424144,424144,486,2943,-2840,-3789,-514,-3107,1299,2657,153,7,756,1074,1176,935,1003,1089,872,1072,1248
799193,368616,341468,424750,424750,282,2520,-2488,-4246,-388,-4798,2000,705,157,4,761,1074,1176,935,1003,1089,872,1072,1248
800194,369328,341992,425356,425356,704,2547,-2356,-4400,-298,-3243,1329,-264,171,42,765,1074,1176,935,1003,1089,872,1072,1248
801195,370116,342472,425984,425984,225,2825,-2178,-4299,-238,-2406,2521,-497,149,47,777,1056,1192,1021,1156,1210,973,1195,1307
802196,370856,343024,426590,426590,522,2377,-1960,-4440,-71,-2196,2207,-1939,172,33,772,1056,1192,1021,1156,1210,973,1195,1307
803197,371668,343576,427196,427196,67,2378,-1834,-4384,69,-1258,6061,-299,162,58,768,1056,1192,1021,1156,1210,973,1195,1307
804198,372428,344112,427802,427802,388,2480,-1925,-4358,235,-1199,5990,-2534,142,68,777,1056,1192,1021,1156,1210,973,1195,1307
805199,373192,344692,428408,428408,360,2205,-2063,-4427,492,-1350,4358,-3890,153,55,780,1056,1192,1021,1156,1210,973,1195,1307
806200,373940,345312,429014,429014,456,1955,-2310,-4353,709,-1167,5348,-1366,154,71,779,1463,1618,1254,1518,1166,978,1222,1255
807201,374672,345916,429620,429620,553,2055,-2472,-4110,765,-27,6100,-1038,137,79,784,1463,1618,1254,1518,1166,978,1222,1255
808202,375492,346528,430226,430226,-2,2005,-2488,-4164,836,973,5725,-463,154,81,786,1463,1618,1254,1518,1166,978,1222,1255
809203,376172,347252,430832,430832,871,1302,-2364,-4121,1012,146,3620,-347,138,94,785,1463,1618,1254,1518,1166,978,1222,1255
810204,376860,347904,431438,431438,819,1751,-2294,-4153,1361,-1179,1787,-196,128,116,790,1463,1618,1254,1518,1166,978,1222,1255
811205,377540,348848,432044,432044,867,-82,-2106,-3954,1586,856,1051,2742,139,103,796,1463,1618,1254,1518,1166,978,1222,1255
812206,378216,350028,432650,432650,890,-1571,-1792,-3711,1536,1420,1435,1346,138,109,789,1453,1503,1160,1337,1179,975,1167,1257
813207,378876,350608,433256,433256,989,2179,-1435,-3174,1442,1449,347,4647,131,134,805,1453,1503,1160,1337,1179,975,1167,1257
814208,379632,351212,433862,433862,385,2029,-937,-3303,1656,-1047,-879,2089,144,101,781,1453,1503,1160,1337,1179,975,1167,1257
815209,380268,351944,434468,434468,1135,1226,-782,-3405,1912,-1466,2563,4834,128,116,781,1453,1503,1160,1337,1179,975,1167,1257
816210,380828,352636,435074,435074,1611,1474,-732,-3170,1899,305,-1831,4282,127,137,789,1453,1503,1160,1337,1179,975,1167,1257
817211,381360,353392,435680,435680,1788,1070,-562,-2371,2027,163,-2374,3999,125,148,795,1097,1175,971,1078,1180,953,1135,1248
818212,381900,354108,436286,436286,1739,1318,-497,-1008,2255,1950,-2715,7999,137,134,787,1097,1175,971,1078,1180,953,1135,1248
819213,382568,354880,436892,436892,938,964,-283,-230,2331,3193,973,6809,125,146,784,1097,1175,971,1078,1180,953,1135,1248
820214,383108,355636,437498,437498,1739,1060,-211,65,2359,1116,2012,8419,122,151,784,1097,1175,971,1078,1180,953,1135,1248
821215,383608,356336,438104,438104,1992,1408,-291,468,2713,-1020,-3685,10183,118,143,799,1097,1175,971,1078,1180,953,1135,1248
822216,384100,356992,438710,438710,2045,1682,-592,875,3011,764,867,8736,99,164,787,1097,1175,971,1078,1180,953,1135,1248
823217,384572,357616,439316,439316,2173,1881,-704,699,3147,1092,-1130,4690,103,158,780,1099,1235,1033,1219,1286,1051,1295,1375
824218,385000,358424,439922,439922,2452,726,-649,394,3306,-1718,1933,4968,101,149,778,1099,1235,1033,1219,1286,1051,1295,1375
825219,385464,359228,440528,440528,2231,746,-683,559,3429,-3077,-2104,4766,86,152,774,1099,1235,1033,1219,1286,1051,1295,1375
826220,385872,359944,441134,441134,2586,1294,-894,657,3388,-969,625,6062,70,158,776,1099,1235,1033,1219,1286,1051,1295,1375
827221,386228,360680,441740,441740,2917,1166,-924,343,3361,-1386,1803,4695,56,159,780,1099,1235,1033,1219,1286,1051,1295,1375
828222,386608,361292,442368,442368,2773,1941,-930,199,3319,-607,-1053,6935,27,163,769,1383,1511,1273,1646,1611,1335,1643,1635
829223,386976,361980,442974,442974,2854,1464,-830,346,3110,1768,512,7260,55,162,762,1383,1511,1273,1646,1611,1335,1643,1635
830224,387352,362692,443580,443580,2809,1311,-586,528,2915,3709,212,7333,41,156,760,1383,1511,1273,1646,1611,1335,1643,1635
831225,387696,363344,444186,444186,3016,1685,-319,845,2770,4903,-1956,8662,40,139,760,1383,1511,1273,1646,1611,1335,1643,1635
832229,387988,363992,444792,444792,3348,1709,-57,1198,2723,4809,-371,10062,13,153,762,1383,1511,1273,1646,1611,1335,1643,1635
833227,388288,364548,445398,445398,3306,2285,129,1900,2643,6172,-1090,11819,-117,145,753,1383,1511,1273,1646,1611,1335,1643,1635
834228,388632,365168,446004,446004,3037,1885,267,2598,2503,6626,-968,12107,-76,119,740,1536,1642,1364,1651,1687,1344,1600,1619
835229,388960,365792,446610,446610,3144,1860,421,3140,2502,6728,-1673,11992,7,127,737,1536,1642,1364,1651,1687,1344,1600,1619
836230,389312,366368,447216,447216,3000,2160,632,3411,2687,5270,-2131,11520,-9,120,750,1536,1642,1364,1651,1687,1344,1600,1619
837231,389664,366984,447822,447822,3006,1910,1018,3548,2986,4868,-2682,12729,16,118,749,1536,1642,1364,1651,1687,1344,1600,1619
838232,390012,367628,448428,448428,3038,1734,1394,3823,3285,3106,624,10045,24,133,748,1536,1642,1364,1651,1687,1344,1600,1619
839233,390392,368216,449034,449034,2843,2085,1747,3780,3626,-806,-1162,10610,10,142,752,1412,1552,1224,1450,1301,1024,1248,1312
840234,390776,368852,449640,449640,2824,1784,1798,3781,3774,-952,1517,10800,37,125,752,1412,1552,1224,1450,1301,1024,1248,1312
841235,391176,369532,450246,450246,2729,1507,1850,3771,3945,-1775,2347,9591,48,142,756,1412,1552,1224,1450,1301,1024,1248,1312
842236,391592,370252,450852,450852,2633,1254,1867,3592,4131,-1492,2944,8776,51,139,761,1412,1552,1224,1450,1301,1024,1248,1312
843237,392028,371044,451458,451458,2512,800,1862,3024,4403,-2195,3569,10273,73,150,763,1412,1552,1224,1450,1301,1024,1248,1312
844238,392480,371840,452064,452064,2416,770,1504,3304,4456,2331,898,9368,83,164,768,1412,1552,1224,1450,1301,1024,1248,1312
845239,392932,372568,452670,452670,2420,1192,1406,3599,4201,4829,1666,5740,75,151,774,1396,1574,1194,1403,1123,906,1168,1253
846240,393368,373372,453276,453276,2524,712,1401,3493,3795,4797,-668,2680,83,145,776,1396,1574,1194,1403,1123,906,1168,1253
847241,393856,374112,453882,453882,2202,1109,1361,2989,3467,6825,668,3474,83,155,774,1396,1574,1194,1403,1123,906,1168,1253
848242,394384,374912,454488,454488,1954,729,1147,3127,3144,10783,-2286,6236,91,150,775,1396,1574,1194,1403,1123,906,1168,1253
849243,394904,375720,455094,455094,2006,674,1097,3570,2751,10339,-1387,4252,92,159,778,1396,1574,1194,1403,1123,906,1168,1253
850244,395424,376500,455700,455700,2008,845,1502,3697,2443,9313,-2446,2280,99,152,787,1498,1551,1261,1481,1287,1075,1272,1380
851245,395940,377384,456306,456306,2035,188,2271,3266,2141,8603,-1506,496,116,152,788,1498,1551,1261,1481,1287,1075,1272,1380
852246,396460,378232,456912,456912,2012,407,2794,2982,1787,8367,-3327,711,114,169,786,1498,1551,1261,1481,1287,1075,1272,1380
853247,397036,379020,457518,457518,1663,778,3232,2842,1375,8937,-3993,-2654,108,161,786,1498,1551,1261,1481,1287,1075,1272,1380
854248,397640,379868,458124,458124,1488,397,3494,2105,989,8822,-3493,-4135,131,155,788,1498,1551,1261,1481,1287,1075,1272,1380
855249,398236,380752,458752,458752,1539,166,3542,1772,614,9477,-2805,-2205,134,160,792,1498,1551,1261,1481,1287,1075,1272,1380
856250,398808,381776,459358,459358,1690,-719,3408,1536,368,8905,-1352,-1330,132,150,797,1563,1527,1396,1719,1195,1071,1165,1177
857251,399436,382644,459964,459964,1339,249,3095,2052,106,7336,-394,592,147,160,798,1563,1527,1396,1719,1195,1071,1165,1177
858252,400036,383476,460570,460570,1514,469,2646,2296,-128,5607,-1231,-1954,124,149,789,1563,1527,1396,1719,1195,1071,1165,1177
859253,400732,384288,461176,461176,912,589,2034,2130,-439,5269,-712,-638,135,159,800,1563,1527,1396,1719,1195,1071,1165,1177
860254,401344,385124,461782,461782,1437,433,1008,1020,-766,6979,191,-5101,145,153,797,1563,1527,1396,1719,1195,1071,1165,1177
861255,401976,385832,462388,462388,1311,1231,-265,147,-89,-1758,-3830,-969,139,141,803,1692,1544,1320,1667,943,867,1009,1062
862256,402600,386456,462994,462994,1361,1755,-1291,-225,407,-2350,-2405,950,139,150,798,1692,1544,1320,1667,943,867,1009,1062
863257,403276,387092,463600,463600,1034,1679,-1567,-418,327,-869,-5508,3278,150,133,793,1692,1544,1320,1667,943,867,1009,1062
864258,404016,387732,464206,464206,631,1654,-1171,125,77,2922,-3526,6674,143,142,787,1692,1544,1320,1667,943,867,1009,1062
865259,404640,388376,464812,464812,1356,1628,-506,851,136,6436,-6339,9482,132,151,791,1692,1544,1320,1667,943,867,1009,1062
866260,405276,388900,465418,465418,1280,2380,99,1803,294,7283,-7294,8527,148,127,794,1237,1239,1065,1158,1267,867,1009,1062
867261,405940,389448,466024,466024,1103,2231,792,2419,71,6762,-6714,7369,132,117,788,1237,1239,1065,1158,1267,1039,1231,1473
868262,406592,389996,466630,466630,1177,2232,1424,2950,-508,4871,-4963,6658,129,136,779,1237,1239,1065,1158,1267,1039,1231,1473
869263,407296,390520,467236,467236,850,2384,1803,3530,-1267,4270,-5400,4324,121,134,782,1237,1239,1065,1158,1267,1039,1231,1473
870264,408004,391056,467842,467842,822,2311,1877,3937,-1801,1328,-1726,2644,150,128,780,1237,1239,1065,1158,1267,1039,1231,1473
871265,408656,391580,468448,468448,1171,2388,1726,3953,-2343,1320,-261,-46,125,111,780,1237,1239,1065,1158,1267,1039,1231,1473
872266,409336,392056,469054,469054,994,2691,1357,3412,-2743,-57,1004,-2365,124,116,783,1179,1305,1153,1311,1455,1157,1362,1482
873267,409992,392568,469660,469660,1143,2469,729,2824,-2914,-1922,1142,-2910,136,106,779,1179,1305,1153,1311,1455,1157,1362,1482
874268,410684,393020,470266,470266,916,2847,-40,2274,-3070,-3430,902,-2764,129,111,776,1179,1305,1153,1311,1455,1157,1362,1482
875269,411416,393548,470872,470872,663,2374,-730,1706,-2982,-7256,2691,-1725,138,75,776,1179,1305,1153,1311,1455,1157,1362,1482
876270,412112,394008,471478,471478,886,2803,-1285,983,-2852,-6262,3397,-1368,138,99,771,1179,1305,1153,1311,1455,1157,1362,1482
877271,412780,394452,472084,472084,1059,2907,-1608,335,-2864,-5292,3865,336,131,64,783,1535,1623,1314,1547,1327,1115,1391,1498
878272,413408,394900,472690,472690,1309,2886,-1977,0,-2734,-5635,889,1113,131,62,770,1535,1623,1314,1547,1327,1115,1391,1498
879273,414024,395304,473296,473296,1384,3166,-2199,-208,-2448,-4713,1966,4217,143,52,764,1535,1623,1314,1547,1327,1115,1391,1498
880274,414708,395784,473902,473902,957,2694,-2391,49,-2265,637,783,5459,149,10,765,1535,1623,1314,1547,1327,1115,1391,1498
881275,415480,396156,474508,474508,403,3374,-2339,851,-2042,2135,-3306,6865,145,47,758,1535,1623,1314,1547,1327,1115,1391,1498
882277,416140,396464,475136,475136,1102,3782,-2011,1103,-1745,15,592,8180,161,-81,767,1535,1623,1314,1547,1327,1115,1391,1498
883277,416840,396816,475742,475742,850,3513,-1657,1017,-1752,687,-3373,8703,152,225,752,1180,1307,1029,1096,1412,1088,1376,1663
884278,417508,397128,476348,476348,1048,3771,-1362,931,-1486,-5963,-1148,9614,143,-190,754,1180,1307,1029,1096,1412,1088,1376,1663
885279,418264,397408,476954,476954,494,3800,-819,1065,-1350,-4864,-82,10188,174,175,743,1180,1307,1029,1096,1412,1088,1376,1663
886280,418972,397608,477560,477560,792,3800,-216,1385,-1672,-44,-1519,7015,163,241,754,1180,1307,1029,1096,1412,1088,1376,1663
887281,419780,397824,478166,478166,162,3800,39,1607,-1947,-1388,1334,9213,153,246,762,1180,1307,1029,1096,1412,1088,1376,1663
888282,420484,398012,478772,478772,810,3800,-67,1411,-2114,-4708,1804,7564,156,223,762,1019,1236,989,1067,1317,996,1266,1429
889283,421312,398216,479378,479378,29,3800,-398,884,-2541,-4468,3325,7668,145,229,764,1019,1236,989,1067,1317,996,1266,1429
890284,422008,398328,479984,479984,852,3800,-774,179,-2932,-5971,5737,2265,168,269,760,1019,1236,989,1067,1317,996,1266,1429
891285,422696,398448,480590,480590,900,3800,-1151,-129,-3266,-3457,3743,3688,161,247,764,1019,1236,989,1067,1317,996,1266,1429
892286,423548,398508,481196,481196,-131,3800,-1499,-112,-3515,-3519,3699,2270,149,243,760,1019,1236,989,1067,1317,996,1266,1429
893287,424364,398560,481802,481802,89,3800,-1860,-281,-3700,-4521,4855,4270,159,235,760,1019,1236,989,1067,1317,996,1266,1429
894288,425188,398600,482408,482408,33,3800,-2153,-592,-3730,-2874,3605,2532,165,255,762,1469,1739,1279,1463,1197,970,1286,1439
895289,425916,398640,483014,483014,630,3800,-2235,-970,-3766,-1316,4046,2395,159,242,764,1469,1739,1279,1463,1197,970,1286,1439
896290,426612,398660,483620,483620,828,3800,-2154,-1297,-3759,-2371,3102,2167,168,238,762,1469,1739,1279,1463,1197,970,1286,1439
897291,427328,398672,484226,484226,701,3800,-1925,-1230,-3711,-2877,2293,3976,153,232,760,1469,1739,1279,1463,1197,970,1286,1439
898292,428040,398696,484832,484832,723,3800,-1564,-916,-3515,-2381,-558,4535,150,237,760,1469,1739,1279,1463,1197,970,1286,1439
899293,428796,398732,485438,485438,444,3800,-1143,-818,-3164,-1095,-1700,5805,167,237,760,1622,1759,1316,1441,1323,1074,1341,1498
900294,429560,398752,486044,486044,391,3800,-648,-1108,-2641,-2545,-1230,4215,151,253,760,1622,1759,1316,1441,1323,1074,1341,1498
901295,430296,398816,486650,486650,562,3800,-240,-1140,-2268,-2364,-1323,5673,153,219,762,1622,1759,1316,1441,1323,1074,1341,1498
902296,430976,398868,487256,487256,911,3800,185,-1055,-2022,-3193,103,5687,167,225,762,1622,1759,1316,1441,1323,1074,1341,1498
903297,431692,398956,487862,487862,683,3800,542,-945,-1900,-3473,791,6088,159,261,760,1622,1759,1316,1441,1323,1074,1341,1498
904298,432400,399040,488468,488468,730,3800,825,-1292,-1881,-3365,2326,6118,159,253,760,1622,1759,1316,1441,1323,1074,1341,1498
905299,433072,399124,489074,489074,954,3800,881,-1653,-1878,-4295,3517,6332,165,227,762,1250,1357,1079,1213,1220,988,1199,1271
906300,433820,399220,489680,489680,475,3800,831,-2097,-1959,-5168,4091,4860,141,251,762,1250,1357,1079,1213,1220,988,1199,1271
907301,434528,399356,490286,490286,723,3800,744,-2405,-2127,-4918,4038,2785,170,223,760,1250,1357,1079,1213,1220,988,1199,1271
908302,435340,399492,490892,490892,68,3800,618,-2477,-2346,-4954,4315,5391,162,234,761,1250,1357,1079,1213,1220,988,1199,1271
909303,436100,399656,491520,491520,390,3800,495,-2472,-2603,-4690,4013,3919,149,243,760,1250,1357,1079,1213,1220,988,1199,1271
910304,436832,399856,492126,492126,561,3800,373,-2477,-2799,-3313,3674,5098,159,238,762,1148,1263,1004,1163,1055,855,1100,1199
911305,437568,400072,492732,492732,533,3800,294,-2558,-2843,-3517,3558,2762,157,237,762,1148,1263,1004,1163,1055,855,1100,1199
912306,438276,400288,493338,493338,706,3800,246,-2708,-2830,-3546,2894,2898,157,261,760,1148,1263,1004,1163,1055,855,1100,1199
913307,439016,400524,493944,493944,503,3800,246,-2692,-2788,-3895,467,1546,158,235,761,1148,1263,1004,1163,1055,855,1100,1199
914308,439832,400756,494550,494550,22,3800,343,-2430,-2723,-3703,682,2533,156,251,760,1148,1263,1004,1163,1055,855,1100,1199
915309,440540,401000,495156,495156,695,3800,553,-2460,-2752,-1406,1061,1805,151,267,760,1148,1263,1004,1163,1055,855,1100,1199
916310,441268,401248,495762,495762,567,3800,588,-2386,-2429,-4203,-1116,1600,140,238,764,1268,1411,1104,1249,1218,987,1243,1408
917311,441940,401528,496368,496368,915,3800,565,-2601,-2225,-1571,895,1485,137,242,760,1268,1411,1104,1249,1218,987,1243,1408
918312,442620,401832,496974,496974,864,3800,655,-2712,-2013,-1238,-1822,-537,144,246,760,1268,1411,1104,1249,1218,987,1243,1408
919313,443320,402084,497580,497580,736,3800,773,-2656,-1910,375,1406,1683,139,247,758,1268,1411,1104,1249,1218,987,1243,1408
920314,444000,402368,498186,498186,859,3800,972,-2592,-1869,374,-842,-147,145,252,757,1268,1411,1104,1249,1218,987,1243,1408
921315,444728,402668,498792,498792,556,3800,1028,-2657,-1833,827,2168,512,137,263,760,1240,1373,1113,1223,1332,1071,1286,1439
922316,445368,402988,499398,499398,1106,3800,1097,-2958,-1733,181,2100,1379,145,253,760,1240,1373,1113,1223,1332,1071,1286,1439
923317,445972,403408,500004,500004,1331,3520,1035,-3084,-1654,-200,2918,42,125,259,760,1240,1373,1113,1223,1332,1071,1286,1439
924318,446596,403844,500610,500610,1205,3424,1041,-3395,-1456,-1381,2199,-277,137,-168,756,1240,1373,1113,1223,1332,1071,1286,1439
925319,447228,404268,501216,501216,1155,3503,1059,-3327,-1282,-1639,3351,2880,144,-105,743,1240,1373,1113,1223,1332,1071,1286,1439
926320,447824,404768,501822,501822,1380,3031,1049,-3407,-1321,-2415,2973,1577,139,-164,740,1240,1373,1113,1223,1332,1071,1286,1439
927321,448544,405300,502428,502428,602,2833,999,-3699,-1369,-4699,3737,5318,148,7,746,1162,1265,1023,1155,1219,976,1191,1278
928322,449164,405836,503034,503034,1227,2809,777,-4053,-1399,-5079,4413,4196,145,34,752,1162,1265,1023,1155,1219,976,1191,1278
929323,449780,406320,503640,503640,1251,3137,575,-4230,-1478,-3489,4509,5065,129,29,766,1162,1265,1023,1155,1219,976,1191,1278
930324,450396,406836,504246,504246,1251,2940,369,-4036,-1617,-1678,2933,4980,146,-4,759,1162,1265,1023,1155,1219,976,1191,1278
931325,451040,407424,504852,504852,1075,2490,201,-3559,-1714,-903,2208,6827,147,25,756,1162,1265,1023,1155,1219,976,1191,1278
932326,451700,407932,505458,505458,974,2993,71,-2964,-1751,681,1280,7110,143,47,759,1146,1303,1043,1155,1191,949,1173,1340
933327,452384,408460,506064,506064,822,2869,138,-2333,-1816,2756,247,7533,131,9,771,1146,1303,1043,1155,1191,949,1173,1340
934328,453024,409060,506670,506670,1096,2420,281,-1890,-1839,2553,-1232,7208,145,30,761,1146,1303,1043,1155,1191,949,1173,1340
935329,453620,409616,507276,507276,1371,2696,481,-1369,-1831,3141,-1767,7894,125,71,765,1146,1303,1043,1155,1191,949,1173,1340
936330,454208,410228,507904,507904,1422,2346,624,-955,-1766,3516,-1982,6394,119,45,771,1146,1303,1043,1155,1191,949,1173,1340
937331,454820,410880,508510,508510,1272,2095,806,-380,-1752,4018,-3571,6238,127,85,764,1146,1303,1043,1155,1191,949,1173,1340
938332,455436,411464,509116,509116,1247,2521,936,103,-1757,3799,-2104,5689,118,98,771,1223,1344,1148,1273,1336,1082,1288,1440
939333,456088,412104,509722,509722,1021,2170,1007,405,-1649,4288,-3606,5274,130,83,775,1223,1344,1148,1273,1336,1082,1288,1440
940334,456720,412868,510328,510328,1145,1391,1032,690,-1653,5747,-2208,5392,112,88,771,1223,1344,1148,1273,1336,1082,1288,1440
941335,457352,413604,510934,510934,1145,1563,887,839,-1600,3895,-2114,4047,128,121,780,1223,1344,1148,1273,1336,1082,1288,1440
942336,457944,414488,511540,511540,1395,631,846,752,-1440,3171,-2353,3092,121,122,791,1223,1344,1148,1273,1336,1082,1288,1440
943337,458548,415636,512146,512146,1320,-1032,550,641,-1391,4027,-1675,2105,138,124,788,1407,1423,1283,1503,1338,1151,1263,1342
944338,459224,416380,512752,512752,868,1489,227,736,-1395,4749,-1583,1143,142,117,796,1407,1423,1283,1503,1338,1151,1263,1342
945339,459848,417092,513358,513358,1193,1687,-7,827,-1520,4978,-2696,1613,138,126,788,1407,1423,1283,1503,1338,1151,1263,1342
946340,460524,417844,513964,513964,866,1433,-57,384,-1551,3025,-352,2736,128,123,792,1407,1423,1283,1503,1338,1151,1263,1342
947341,461172,418576,514570,514570,1040,1555,-258,658,-1505,4258,-2111,4931,140,140,788,1407,1423,1283,1503,1338,1151,1263,1342
948342,461772,419336,515176,515176,1340,1376,-350,734,-1501,4532,-1568,2940,143,139,795,1407,1423,1283,1503,1338,1151,1263,1342
949343,462404,420116,515782,515782,1140,1247,-408,886,-1475,3738,-1532,2176,136,138,792,1359,1311,1186,1401,1219,1045,1159,1237
950344,463068,420856,516388,516388,938,1494,-298,808,-1518,3954,-3975,2504,145,151,791,1359,1311,1186,1401,1219,1045,1159,1237
951345,463716,421744,516994,516994,1037,562,-252,914,-1749,4197,-2822,3283,143,155,795,1359,1311,1186,1401,1219,1045,1159,1237
952346,464308,422564,517600,517600,1388,982,-120,942,-1929,5534,-5327,3402,134,162,794,1359,1311,1186,1401,1219,1045,1159,1237
953347,464924,423380,518206,518206,1237,1002,-4,1132,-2140,5340,-3091,3566,139,179,801,1359,1311,1186,1401,1219,1045,1159,1237
954348,465556,424028,518812,518812,1137,2051,-52,1116,-2268,5280,-3811,1870,138,179,795,1296,1298,1169,1367,1132,968,1093,1177
955349,466256,424764,519418,519418,709,1497,-41,547,-2144,3835,-3551,-817,141,176,794,1296,1298,1169,1367,1132,968,1093,1177
956350,466892,425584,520024,520024,1109,967,-183,176,-1877,3888,-4578,93,151,172,785,1296,1298,1169,1367,1132,968,1093,1177
957351,467496,426300,520630,520630,1309,1614,-379,320,-1794,5119,-5332,1388,142,177,797,1296,1298,1169,1367,1132,968,1093,1177
958352,468132,426948,521236,521236,1108,2038,-470,822,-1779,4277,-4913,2527,140,163,799,1296,1298,1169,1367,1132,968,1093,1177
959353,468776,427604,521842,521842,1057,1987,-386,1052,-1787,4705,-3698,2250,152,159,790,1296,1298,1169,1367,1132,968,1093,1177
960354,469436,428284,522448,522448,956,1835,-324,913,-1695,5577,-3157,2644,136,169,789,1428,1437,1257,1465,1058,933,1080,1168
961355,470120,429024,523054,523054,804,1457,-543,655,-1572,6008,-3057,1917,134,146,788,1428,1437,1257,1465,1058,933,1080,1168
962356,470756,429680,523660,523660,1103,1981,-761,533,-1497,4893,-2478,2517,147,168,791,1428,1437,1257,1465,1058,933,1080,1168
963358,471396,430324,524288,524288,1078,2056,-908,590,-1533,3790,-1812,2256,134,151,785,1428,1437,1257,1465,1058,933,1080,1168
964358,472032,430944,524894,524894,1102,2205,-803,945,-1684,3863,-1064,4047,122,155,786,1428,1437,1257,1465,1058,933,1080,1168
965359,472676,431584,525500,525500,1051,2079,-532,1115,-1814,4881,-1037,3293,128,126,782,1477,1478,1246,1472,1158,1014,1197,1299
966360,473332,432264,526106,526106,975,1828,-168,923,-1863,5088,19,3316,133,129,783,1477,1478,1246,1472,1158,1014,1197,1299
967361,473932,432908,526712,526712,1325,2052,114,430,-1905,3308,925,3819,119,142,788,1477,1478,1246,1472,1158,1014,1197,1299
968362,474556,433492,527318,527318,1175,2427,338,-230,-1933,2488,2393,2871,119,131,781,1477,1478,1246,1472,1158,1014,1197,1299
969363,475116,434112,527924,527924,1576,2202,699,-613,-2030,2195,1539,2902,120,97,777,1477,1478,1246,1472,1158,1014,1197,1299
970364,475716,434724,528530,528530,1326,2252,904,-503,-2012,1000,2420,4483,117,128,777,1477,1478,1246,1472,1158,1014,1197,1299
971365,476312,435384,529136,529136,1351,1950,1135,-107,-2006,-314,2945,4974,128,107,775,1408,1456,1215,1444,1262,1049,1301,1394
972366,476924,436060,529742,529742,1251,1849,1321,272,-2071,-2928,3129,4233,123,103,779,1408,1456,1215,1444,1262,1049,1301,1394
973367,477512,436768,530348,530348,1401,1646,1552,-309,-1995,-4824,5550,4141,122,123,784,1408,1456,1215,1444,1262,1049,1301,1394
974368,478132,437380,530954,530954,1201,2246,1449,-385,-1989,-1592,3549,6269,112,113,783,1408,1456,1215,1444,1262,1049,1301,1394
