%  Data file recorded 2016/9/10  20:18:56
%  Stride Frequency         = [1, 1]
%  Lead In /Lead Out        = 
%  Deltas (Fractional)      = [0.25, 0.25, 0.25],[0.25, 0.25, 0.25]
%  Phase                    = 32768
%  Experiment.py 
%  Motor Gains    = [5000, 400, 200, 0, 300, 5000, 400, 200, 0, 300]
% Columns: 
% time | Right Leg Pos | Left Leg Pos | Commanded Right Leg Pos | Commanded Left Leg Pos | DCR | DCL | GyroX | GyroY | GyroZ | AX | AY | AZ | RBEMF | LBEMF | VBatt | S1 | S2 | S3 | S4 | S5 | S6 | S7 | S8
944,-44672,-15136,-46308,-13540,-3800,-3800,19,88,-22,-50,95,3935,-5,-5,857,1737,1854,2058,2226,2032,1796,1856,1975
1945,-44672,-15148,-46308,-13540,-3800,-3800,19,87,-21,-42,74,3929,-9,2,857,1737,1854,2058,2226,2032,1796,1856,1975
2946,-44672,-15152,-46308,-13540,-3800,-3800,22,87,-19,-16,71,3954,-6,9,857,1737,1854,2058,2226,2032,1796,1856,1975
3947,-44672,-15148,-46308,-13540,-3800,-3800,22,85,-20,-40,104,3969,9,-2,857,1737,1854,2058,2226,2032,1796,1856,1975
4948,-44676,-15152,-46308,-13540,-3800,-3800,21,85,-23,-47,115,3969,0,-6,857,1737,1853,2058,2228,2032,1795,1856,1976
5949,-44676,-15140,-46308,-13540,-3800,-3800,21,85,-23,-46,92,3961,-7,8,857,1737,1853,2058,2228,2032,1795,1856,1976
6950,-44672,-15140,-46308,-13540,-3800,-3800,23,86,-20,-45,76,3919,-3,3,857,1737,1853,2058,2228,2032,1795,1856,1976
7951,-44680,-15148,-46308,-13540,-3800,-3800,24,88,-20,-22,56,3943,10,-5,857,1737,1853,2058,2228,2032,1795,1856,1976
8952,-44676,-15148,-46308,-13540,-3800,-3800,23,87,-21,-12,78,3909,2,1,857,1737,1853,2058,2228,2032,1795,1856,1976
9953,-44668,-15148,-46308,-13540,-3800,-3800,22,85,-21,-34,73,3967,-9,8,857,1737,1853,2058,2228,2032,1795,1856,1976
10954,-44688,-15152,-46308,-13540,-3800,-3800,22,86,-22,-29,83,3956,-3,1,857,1739,1853,2057,2227,2031,1798,1858,1978
11955,-44676,-15144,-46308,-13540,-3800,-3800,23,88,-21,-50,67,3934,7,-4,857,1739,1853,2057,2227,2031,1798,1858,1978
12956,-44684,-15156,-46308,-13540,-3800,-3800,23,87,-20,-52,87,3915,4,9,857,1739,1853,2057,2227,2031,1798,1858,1978
13957,-44680,-15148,-46308,-13540,-3800,-3800,23,86,-21,-27,78,3926,-5,6,857,1739,1853,2057,2227,2031,1798,1858,1978
14958,-44676,-15144,-46308,-13540,-3800,-3800,21,86,-21,-20,57,3944,-8,-5,857,1739,1853,2057,2227,2031,1798,1858,1978
15959,-44668,-15152,-46308,-13540,-3800,-3800,22,86,-20,-14,84,3942,-3,8,857,1739,1854,2058,2228,2032,1795,1856,1975
16960,-44676,-15128,-46308,-13540,-3800,-3800,23,86,-20,-14,99,3959,7,6,857,1739,1854,2058,2228,2032,1795,1856,1975
17961,-44668,-15132,-46308,-13540,-3800,-3800,24,86,-22,-19,78,3930,9,-6,857,1739,1854,2058,2228,2032,1795,1856,1975
18962,-44680,-15132,-46308,-13540,-3800,-3800,23,86,-20,-47,86,3908,-6,2,857,1739,1854,2058,2228,2032,1795,1856,1975
19963,-44692,-15140,-46308,-13540,-3800,-3800,21,87,-22,-54,64,3937,-9,8,857,1739,1854,2058,2228,2032,1795,1856,1975
20964,-44676,-15144,-46308,-13540,-3800,-3800,20,89,-21,-25,82,3895,-8,-4,857,1739,1854,2058,2228,2032,1795,1856,1975
21965,-44672,-15136,-46308,-13540,-3800,-3800,23,87,-22,-39,79,3875,10,-3,857,1739,1855,2060,2230,2034,1796,1856,1976
22966,-44680,-15136,-46308,-13540,-3800,-3800,24,87,-23,-42,103,3910,2,2,857,1739,1855,2060,2230,2034,1796,1856,1976
23967,-44680,-15148,-46308,-13540,-3800,-3800,25,88,-21,-36,89,3916,-7,9,857,1739,1855,2060,2230,2034,1796,1856,1976
24968,-44680,-15152,-46308,-13540,-3800,-3800,24,89,-21,-45,84,3915,4,0,857,1739,1855,2060,2230,2034,1796,1856,1976
25969,-44668,-15144,-46308,-13540,-3800,-3800,24,86,-22,-34,98,3938,10,-3,856,1739,1855,2060,2230,2034,1796,1856,1976
26970,-44680,-15148,-46308,-13540,-3800,-3800,24,87,-22,-19,105,3934,4,-5,857,1737,1852,2056,2226,2031,1795,1855,1975
27971,-44676,-15152,-46308,-13540,-3800,-3800,22,87,-19,-24,96,3927,-8,3,857,1737,1852,2056,2226,2031,1795,1855,1975
28972,-44684,-15144,-46308,-13540,-3800,-3800,22,85,-19,-54,65,3954,-7,8,857,1737,1852,2056,2226,2031,1795,1855,1975
29973,-44676,-15140,-46308,-13540,-3800,-3800,23,85,-21,-44,75,3919,-2,4,857,1737,1852,2056,2226,2031,1795,1855,1975
30974,-44676,-15152,-46308,-13540,-3800,-3800,23,87,-21,-44,67,3947,10,-6,857,1737,1852,2056,2226,2031,1795,1855,1975
31975,-44684,-15148,-46308,-13540,-3800,-3800,23,88,-20,-47,35,3946,5,-4,857,1737,1852,2056,2226,2031,1795,1855,1975
32976,-44672,-15144,-46308,-13540,-3800,-3800,23,86,-21,-60,76,3890,1,9,857,1737,1853,2057,2227,2032,1795,1856,1975
33977,-44684,-15144,-46308,-13540,-3800,-3800,25,88,-23,-46,75,3903,-9,2,857,1737,1853,2057,2227,2032,1795,1856,1975
34978,-44672,-15140,-46308,-13540,-3800,-3800,25,89,-24,-36,89,3924,-8,-3,857,1737,1853,2057,2227,2032,1795,1856,1975
35979,-44676,-15148,-46308,-13540,-3800,-3800,24,88,-21,-5,83,3917,2,-3,857,1737,1853,2057,2227,2032,1795,1856,1975
36980,-44676,-15136,-46308,-13540,-3800,-3800,23,88,-20,-17,73,3916,10,8,856,1737,1853,2057,2227,2032,1795,1856,1975
37981,-44668,-15148,-46308,-13540,-3800,-3800,25,86,-21,-53,80,3920,9,5,857,1738,1854,2058,2228,2033,1796,1856,1976
38982,-44680,-15144,-46308,-13540,-3800,-3800,23,85,-23,-22,90,3920,-2,-5,857,1738,1854,2058,2228,2033,1796,1856,1976
39983,-44672,-15144,-46308,-13540,-3800,-3800,21,85,-22,-29,83,3926,-8,-2,857,1738,1854,2058,2228,2033,1796,1856,1976
40984,-44676,-15152,-46308,-13540,-3800,-3800,23,85,-21,-45,72,3939,3,4,857,1738,1854,2058,2228,2033,1796,1856,1976
41985,-44672,-15156,-46308,-13540,-3800,-3800,25,87,-23,-26,81,3941,6,8,857,1738,1854,2058,2228,2033,1796,1856,1976
42986,-44680,-15140,-46308,-13540,-3800,-3800,25,87,-22,-33,86,3943,10,-6,857,1738,1854,2058,2228,2033,1796,1856,1976
43987,-44672,-15144,-46308,-13540,-3800,-3800,23,85,-21,-40,70,3923,6,2,857,1737,1856,2058,2228,2033,1796,1857,1975
44988,-44668,-15136,-46308,-13540,-3800,-3800,25,85,-22,-45,79,3916,-7,6,857,1737,1856,2058,2228,2033,1796,1857,1975
45989,-44680,-15144,-46308,-13540,-3800,-3800,25,87,-25,-46,92,3934,-8,-6,857,1737,1856,2058,2228,2033,1796,1857,1975
46990,-44684,-15152,-46308,-13540,-3800,-3800,25,87,-23,-22,107,3939,-3,0,857,1737,1856,2058,2228,2033,1796,1857,1975
47991,-44680,-15148,-46308,-13540,-3800,-3800,23,87,-23,-19,91,3981,5,9,857,1737,1856,2058,2228,2033,1796,1857,1975
48992,-44676,-15140,-46308,-13540,-3800,-3800,23,86,-24,-22,59,3957,8,-3,857,1738,1853,2057,2227,2033,1796,1856,1976
49993,-44684,-15140,-46308,-13540,-3800,-3800,23,85,-24,-4,86,3930,5,-6,857,1738,1853,2057,2227,2033,1796,1856,1976
50994,-44688,-15148,-46308,-13540,-3800,-3800,22,84,-22,-47,85,3879,-4,6,857,1738,1853,2057,2227,2033,1796,1856,1976
51995,-44672,-15140,-46308,-13540,-3800,-3800,21,85,-20,-41,84,3904,-9,8,857,1738,1853,2057,2227,2033,1796,1856,1976
52996,-44672,-15128,-46308,-13540,-3800,-3800,21,88,-21,-41,91,3892,-5,6,857,1738,1853,2057,2227,2033,1796,1856,1976
53997,-44680,-15152,-46308,-13540,-3800,-3800,23,89,-22,-27,85,3922,7,-4,856,1738,1853,2057,2227,2033,1796,1856,1976
54998,-44676,-15140,-46308,-13540,-3800,-3800,22,88,-21,-26,109,3934,8,1,857,1737,1853,2057,2226,2031,1796,1855,1975
55999,-44680,-15136,-46308,-13540,-3800,-3800,21,88,-19,-49,106,3918,-5,8,857,1737,1853,2057,2226,2031,1796,1855,1975
57000,-44684,-15136,-46308,-13540,-3800,-3800,21,87,-20,-28,85,3950,-9,6,857,1737,1853,2057,2226,2031,1796,1855,1975
58001,-44680,-15144,-46308,-13540,-3800,-3800,22,86,-21,-6,82,3945,2,-6,857,1737,1853,2057,2226,2031,1796,1855,1975
59002,-44680,-15136,-46308,-13540,-3800,-3800,20,86,-21,7,85,3924,9,1,857,1737,1853,2057,2226,2031,1796,1855,1975
60003,-44684,-15140,-46308,-13540,-3800,-3800,22,88,-22,-25,103,3935,8,8,857,1738,1852,2058,2228,2033,1797,1853,1973
61004,-44672,-15144,-46308,-13540,-3800,-3800,25,89,-22,-39,92,3918,-7,-4,857,1738,1852,2058,2228,2033,1797,1853,1973
62005,-44672,-15132,-46308,-13540,-3800,-3800,25,89,-21,-57,72,3959,-5,-6,857,1738,1852,2058,2228,2033,1797,1853,1973
63006,-44672,-15140,-46308,-13540,-3800,-3800,23,90,-22,-45,74,3943,9,6,857,1738,1852,2058,2228,2033,1797,1853,1973
64007,-44684,-15144,-46308,-13540,-3800,-3800,21,88,-23,-42,84,3926,-1,-2,857,1738,1852,2058,2228,2033,1797,1853,1973
65008,-44676,-15148,-46308,-13540,-3800,-3800,21,88,-22,-46,103,3951,-8,-4,857,1738,1852,2058,2228,2033,1797,1853,1973
66009,-44672,-15140,-46308,-13540,-3800,-3800,22,89,-19,-56,83,3922,-6,8,857,1737,1853,2057,2227,2034,1796,1857,1976
67010,-44676,-15152,-46308,-13540,-3800,-3800,21,90,-19,-68,83,3924,10,-1,857,1737,1853,2057,2227,2034,1796,1857,1976
68011,-44684,-15148,-46308,-13540,-3800,-3800,22,89,-22,-47,59,3976,1,-5,857,1737,1853,2057,2227,2034,1796,1857,1976
69012,-44684,-15140,-46308,-13540,-3800,-3800,21,87,-23,-30,78,3944,-8,9,857,1737,1853,2057,2227,2034,1796,1857,1976
70013,-44676,-15136,-46308,-13540,-3800,-3800,20,88,-22,-18,104,3930,4,-6,857,1737,1853,2057,2227,2034,1796,1857,1976
71014,-44668,-15152,-46308,-13540,-3800,-3800,20,87,-22,-32,87,3922,6,1,856,1738,1854,2058,2229,2033,1795,1853,1974
72015,-44676,-15144,-46308,-13540,-3800,-3800,19,87,-18,-21,87,3952,-4,6,857,1738,1854,2058,2229,2033,1795,1853,1974
73016,-44680,-15128,-46308,-13540,-3800,-3800,20,88,-17,-27,87,3935,0,-5,857,1738,1854,2058,2229,2033,1795,1853,1974
74017,-44680,-15148,-46308,-13540,-3800,-3800,20,89,-18,-45,88,3947,10,-6,857,1738,1854,2058,2229,2033,1795,1853,1974
75018,-44676,-15128,-46308,-13540,-3800,-3800,21,88,-19,-38,84,3950,1,0,857,1738,1854,2058,2229,2033,1795,1853,1974
76019,-44676,-15144,-46308,-13540,-3800,-3800,21,86,-22,-45,92,3937,-6,9,857,1738,1854,2058,2229,2033,1795,1853,1974
77020,-44676,-15152,-46308,-13540,-3800,-3800,21,85,-20,-18,82,3916,7,9,857,1739,1854,2059,2228,2033,1796,1856,1976
78021,-44680,-15148,-46308,-13540,-3800,-3800,22,84,-19,-49,57,3948,2,7,857,1739,1854,2059,2228,2033,1796,1856,1976
79022,-44680,-15144,-46308,-13540,-3800,-3800,23,85,-19,-55,70,3932,-4,-4,857,1739,1854,2059,2228,2033,1796,1856,1976
80023,-44676,-15140,-46308,-13540,-3800,-3800,23,86,-22,-53,71,3920,8,-5,857,1739,1854,2059,2228,2033,1796,1856,1976
81024,-44664,-15136,-46308,-13540,-3800,-3800,22,86,-22,-49,77,3918,5,2,857,1739,1854,2059,2228,2033,1796,1856,1976
82025,-44680,-15156,-46308,-13540,-3800,-3800,22,88,-22,-41,73,3938,-6,8,857,1739,1853,2057,2228,2033,1793,1853,1974
83026,-44676,-15136,-46308,-13540,-3800,-3800,22,87,-21,-34,78,3939,10,3,857,1739,1853,2057,2228,2033,1793,1853,1974
84027,-44672,-15140,-46308,-13540,-3800,-3800,23,85,-22,-48,73,3940,-3,-5,857,1739,1853,2057,2228,2033,1793,1853,1974
85028,-44684,-15136,-46308,-13540,-3800,-3800,20,86,-22,-15,68,3941,-5,2,857,1739,1853,2057,2228,2033,1793,1853,1974
86029,-44668,-15140,-46308,-13540,-3800,-3800,19,88,-22,-14,91,3904,1,8,857,1739,1853,2057,2228,2033,1793,1853,1974
87031,-44680,-15144,-46308,-13540,-3800,-3800,21,88,-20,-31,65,3910,10,3,857,1739,1853,2057,2228,2033,1793,1853,1974
88031,-44672,-15144,-46308,-13540,-3800,-3800,22,86,-21,-42,65,3931,1,-5,856,1738,1853,2058,2227,2032,1796,1856,1975
89032,-44676,-15140,-46308,-13540,-3800,-3800,20,85,-21,-39,63,3954,-7,8,857,1738,1853,2058,2227,2032,1796,1856,1975
90033,-44676,-15140,-46308,-13540,-3800,-3800,19,86,-21,-45,69,3912,-6,-2,857,1738,1853,2058,2227,2032,1796,1856,1975
91034,-44668,-15148,-46308,-13540,-3800,-3800,23,85,-19,-40,62,3861,10,-1,857,1738,1853,2058,2227,2032,1796,1856,1975
92035,-44676,-15136,-46308,-13540,-3800,-3800,24,86,-20,-36,74,3909,4,3,857,1738,1853,2058,2227,2032,1796,1856,1975
93036,-44672,-15144,-46308,-13540,-3800,-3800,24,87,-20,-15,80,3938,-6,8,857,1738,1853,2057,2225,2029,1791,1853,1973
94037,-44676,-15128,-46308,-13540,-3800,-3800,23,87,-22,-37,65,3955,-3,-5,857,1738,1853,2057,2225,2029,1791,1853,1973
95038,-44668,-15152,-46308,-13540,-3800,-3800,21,86,-22,-35,50,3958,7,-3,857,1738,1853,2057,2225,2029,1791,1853,1973
96039,-44672,-15140,-46308,-13540,-3800,-3800,22,84,-21,-17,48,3974,9,8,857,1738,1853,2057,2225,2029,1791,1853,1973
97040,-44684,-15140,-46308,-13540,-3800,-3800,23,84,-20,-20,80,3902,-6,-5,857,1738,1853,2057,2225,2029,1791,1853,1973
98041,-44680,-15144,-46308,-13540,-3800,-3800,23,85,-21,-33,95,3888,-8,-5,857,1738,1853,2057,2225,2029,1791,1853,1973
99042,-44664,-15156,-46308,-13540,-3800,-3800,23,84,-23,-47,79,3948,0,6,857,1739,1854,2058,2228,2032,1795,1855,1975
100043,-44680,-15148,-46308,-13540,-3800,-3800,23,83,-23,-52,81,3963,6,4,857,1739,1854,2058,2228,2032,1795,1855,1975
101044,-44672,-15128,-46308,-13540,-3800,-3800,24,82,-22,-56,79,3963,-7,-4,857,1739,1854,2058,2228,2032,1795,1855,1975
102045,-44676,-15140,-46308,-13540,-3800,-3800,23,86,-23,-42,105,3936,-4,-1,857,1739,1854,2058,2228,2032,1795,1855,1975
103046,-44680,-15148,-46308,-13540,-3800,-3800,23,88,-23,-29,78,3902,9,8,857,1739,1854,2058,2228,2032,1795,1855,1975
104047,-44680,-15144,-46308,-13540,-3800,-3800,24,83,-21,-26,73,3893,-3,0,857,1739,1854,2059,2227,2031,1791,1855,1975
105048,-44684,-15144,-46308,-13540,-3800,-3800,25,84,-23,-33,85,3927,-9,-4,856,1739,1854,2059,2227,2031,1791,1855,1975
106049,-44676,-15144,-46308,-13540,-3800,-3800,26,86,-23,-30,68,3942,5,6,857,1739,1854,2059,2227,2031,1791,1855,1975
107050,-44676,-15136,-46308,-13540,-3800,-3800,24,87,-21,-33,71,3926,10,-6,857,1739,1854,2059,2227,2031,1791,1855,1975
108051,-44676,-15144,-46308,-13540,-3800,-3800,26,86,-22,-44,73,3933,-1,7,857,1739,1854,2059,2227,2031,1791,1855,1975
109052,-44680,-15148,-46308,-13540,-3800,-3800,26,85,-24,-39,104,3927,-6,2,857,1739,1854,2059,2227,2031,1791,1855,1975
110053,-44684,-15156,-46308,-13540,-3800,-3800,24,84,-23,-33,95,3938,0,-3,857,1739,1854,2058,2228,2032,1795,1856,1974
111054,-44680,-15136,-46308,-13540,-3800,-3800,25,87,-23,-46,87,3935,8,-2,857,1739,1854,2058,2228,2032,1795,1856,1974
112055,-44684,-15140,-46308,-13540,-3800,-3800,26,87,-22,-38,108,3934,-4,9,857,1739,1854,2058,2228,2032,1795,1856,1974
113056,-44688,-15148,-46308,-13540,-3800,-3800,25,86,-22,-36,120,3937,-5,6,857,1739,1854,2058,2228,2032,1795,1856,1974
114057,-44680,-15144,-46308,-13540,-3800,-3800,22,84,-23,-42,99,3957,10,-5,857,1739,1854,2058,2228,2032,1795,1856,1974
115058,-44680,-15136,-46308,-13540,-3800,-3800,24,81,-23,-37,72,3921,-7,2,857,1739,1853,2055,2225,2030,1793,1855,1978
116059,-44676,-15144,-46308,-13540,-3800,-3800,27,85,-21,-31,100,3948,-6,8,857,1739,1853,2055,2225,2030,1793,1855,1978
117060,-44680,-15140,-46308,-13540,-3800,-3800,28,87,-19,-15,82,3935,8,4,857,1739,1853,2055,2225,2030,1793,1855,1978
118061,-44676,-15152,-46308,-13540,-3800,-3800,28,87,-22,-24,92,3928,-2,-5,857,1739,1853,2055,2225,2030,1793,1855,1978
119062,-44684,-15136,-46308,-13540,-3800,-3800,26,85,-23,-34,113,3940,-9,2,857,1739,1853,2055,2225,2030,1793,1855,1978
120063,-44680,-15148,-46308,-13540,-3800,-3800,24,85,-23,-38,84,3926,-4,8,857,1739,1853,2055,2225,2030,1793,1855,1978
121064,-44672,-15148,-46308,-13540,-3800,-3800,22,86,-24,-61,67,3931,9,-6,857,1739,1854,2058,2228,2032,1795,1856,1976
122065,-44680,-15144,-46308,-13540,-3800,-3800,22,88,-23,-41,86,3914,4,-2,856,1739,1854,2058,2228,2032,1795,1856,1976
123066,-44676,-15140,-46308,-13540,-3800,-3800,22,88,-20,-22,70,3943,-2,5,857,1739,1854,2058,2228,2032,1795,1856,1976
124067,-44676,-15140,-46308,-13540,-3800,-3800,24,87,-18,-40,89,3938,-7,-3,857,1739,1854,2058,2228,2032,1795,1856,1976
125068,-44676,-15144,-46308,-13540,-3800,-3800,23,86,-19,-36,79,3938,8,6,857,1739,1854,2058,2228,2032,1795,1856,1976
126069,-44676,-15136,-46308,-13540,-3800,-3800,22,86,-20,-43,94,3952,8,3,857,1735,1851,2055,2227,2036,1798,1858,1977
127070,-44676,-15136,-46308,-13540,-3800,-3800,24,87,-22,-27,115,3931,-8,-5,857,1735,1851,2055,2227,2036,1798,1858,1977
128071,-44680,-15148,-46308,-13540,-3800,-3800,24,90,-21,-30,93,3930,-3,3,857,1735,1851,2055,2227,2036,1798,1858,1977
129072,-44684,-15152,-46308,-13540,-3800,-3800,21,90,-19,-18,64,3923,8,7,857,1735,1851,2055,2227,2036,1798,1858,1977
130073,-44676,-15160,-46308,-13540,-3800,-3800,21,89,-21,-27,75,3899,4,-6,857,1735,1851,2055,2227,2036,1798,1858,1977
131074,-44676,-15140,-46308,-13540,-3800,-3800,21,89,-23,-20,66,3925,-3,-2,857,1735,1851,2055,2227,2036,1798,1858,1977
132075,-44676,-15128,-46308,-13540,-3800,-3800,20,88,-21,-20,94,3941,-8,9,857,1738,1853,2057,2228,2033,1796,1856,1975
133076,-44676,-15136,-46308,-13540,-3800,-3800,20,87,-19,-53,77,3939,-2,-5,857,1738,1853,2057,2228,2033,1796,1856,1975
134077,-44684,-15152,-46308,-13540,-3800,-3800,20,88,-22,-50,72,3924,6,0,857,1738,1853,2057,2228,2033,1796,1856,1975
135079,-44680,-15148,-46308,-13540,-3800,-3800,22,88,-20,-40,84,3938,9,7,857,1738,1853,2057,2228,2033,1796,1856,1975
136079,-44672,-15144,-46308,-13540,-3800,-3800,21,89,-18,-40,62,3920,-9,-6,857,1738,1853,2057,2228,2033,1796,1856,1975
137080,-44680,-15124,-46308,-13540,-3800,-3800,21,87,-19,-32,84,3926,6,0,857,1735,1851,2055,2229,2034,1798,1857,1978
138081,-44676,-15144,-46308,-13540,-3800,-3800,21,87,-21,-25,94,3942,7,9,857,1735,1851,2055,2229,2034,1798,1857,1978
139082,-44684,-15144,-46308,-13540,-3800,-3800,22,87,-21,-42,111,3960,-9,-5,856,1735,1851,2055,2229,2034,1798,1857,1978
140083,-44672,-15156,-46308,-13540,-3800,-3800,22,90,-21,-23,81,3941,-1,0,857,1735,1851,2055,2229,2034,1798,1857,1978
141084,-44680,-15128,-46308,-13540,-3800,-3800,22,89,-21,4,97,3946,10,8,857,1735,1851,2055,2229,2034,1798,1857,1978
142085,-44684,-15136,-46308,-13540,-3800,-3800,21,87,-21,-36,82,3983,-6,-6,857,1735,1851,2055,2229,2034,1798,1857,1978
143086,-44684,-15144,-46308,-13540,-3800,-3800,21,85,-21,-49,81,3921,-8,-1,857,1739,1853,2058,2226,2032,1795,1856,1975
144087,-44684,-15152,-46308,-13540,-3800,-3800,20,86,-20,-44,76,3933,8,9,857,1739,1853,2058,2226,2032,1795,1856,1975
145088,-44684,-15144,-46308,-13540,-3800,-3800,20,88,-22,-19,73,3923,-4,0,857,1739,1853,2058,2226,2032,1795,1856,1975
146089,-44672,-15136,-46308,-13540,-3800,-3800,21,87,-21,-10,72,3932,-9,-6,857,1739,1853,2058,2226,2032,1795,1856,1975
147090,-44680,-15152,-46308,-13540,-3800,-3800,19,87,-22,-27,68,3944,-1,5,857,1739,1853,2058,2226,2032,1795,1856,1975
148091,-44676,-15140,-46308,-13540,-3800,-3800,20,88,-22,-31,69,3937,9,8,857,1737,1851,2055,2230,2034,1798,1856,1976
149092,-44680,-15144,-46308,-13540,-3800,-3800,22,87,-21,-23,57,3918,-7,6,857,1737,1851,2055,2230,2034,1798,1856,1976
150093,-44676,-15152,-46308,-13540,-3800,-3800,23,86,-22,-39,78,3948,1,-6,857,1737,1851,2055,2230,2034,1798,1856,1976
151094,-44676,-15156,-46308,-13540,-3800,-3800,22,86,-22,-23,74,3946,5,3,857,1737,1851,2055,2230,2034,1798,1856,1976
152095,-44668,-15148,-46308,-13540,-3800,-3800,24,86,-20,-47,84,3925,-9,8,857,1737,1851,2055,2230,2034,1798,1856,1976
153096,-44684,-15144,-46308,-13540,-3800,-3800,23,86,-22,-60,104,3941,-5,3,857,1737,1851,2055,2230,2034,1798,1856,1976
154097,-44672,-15144,-46308,-13540,-3800,-3800,22,89,-22,-48,79,3938,10,-5,857,1740,1853,2057,2227,2032,1795,1855,1975
155098,-44684,-15144,-46308,-13540,-3800,-3800,25,89,-23,-42,77,3972,7,3,857,1740,1853,2057,2227,2032,1795,1855,1975
156099,-44676,-15148,-46308,-13540,-3800,-3800,24,87,-23,-45,66,3946,1,5,856,1740,1853,2057,2227,2032,1795,1855,1975
157100,-44680,-15152,-46308,-13540,-3800,-3800,23,86,-21,-63,76,3938,-8,-3,857,1740,1853,2057,2227,2032,1795,1855,1975
158101,-44676,-15144,-46308,-13540,-3800,-3800,23,86,-20,-62,62,3926,-2,8,857,1740,1853,2057,2227,2032,1795,1855,1975
159102,-44676,-15148,-46308,-13540,-3800,-3800,25,86,-22,-60,47,3905,9,1,857,1741,1855,2060,2228,2032,1796,1856,1976
160103,-44672,-15152,-46308,-13540,-3800,-3800,23,85,-21,-43,69,3890,-1,-5,857,1741,1855,2060,2228,2032,1796,1856,1976
161104,-44672,-15148,-46308,-13540,-3800,-3800,22,84,-23,-61,58,3903,-9,1,857,1741,1855,2060,2228,2032,1796,1856,1976
162105,-44676,-15152,-46308,-13540,-3800,-3800,22,87,-23,-55,68,3941,-8,7,857,1741,1855,2060,2228,2032,1796,1856,1976
163106,-44688,-15136,-46308,-13540,-3800,-3800,20,87,-24,-34,77,3950,9,-5,857,1741,1855,2060,2228,2032,1796,1856,1976
164107,-44684,-15152,-46308,-13540,-3800,-3800,21,86,-22,-53,90,3972,10,7,857,1741,1855,2060,2228,2032,1796,1856,1976
165108,-44680,-15152,-46308,-13540,-3800,-3800,22,86,-20,-36,78,3960,1,-1,857,1739,1852,2057,2227,2031,1795,1856,1975
166109,-44680,-15152,-46308,-13540,-3800,-3800,23,84,-20,-41,76,3922,-9,2,857,1739,1852,2057,2227,2031,1795,1856,1975
167110,-44672,-15140,-46308,-13540,-3800,-3800,22,84,-23,-34,99,3939,7,9,857,1739,1852,2057,2227,2031,1795,1856,1975
168111,-44684,-15140,-46308,-13540,-3800,-3800,23,86,-24,-37,74,3943,3,-5,857,1739,1852,2057,2227,2031,1795,1856,1975
169112,-44684,-15152,-46308,-13540,-3800,-3800,21,86,-22,-30,66,3971,-7,1,857,1739,1852,2057,2227,2031,1795,1856,1975
170113,-44680,-15140,-46308,-13540,-3800,-3800,23,87,-20,-15,88,3942,10,9,857,1741,1855,2060,2228,2032,1796,1856,1976
171114,-44672,-15144,-46308,-13540,-3800,-3800,24,88,-20,-13,99,3930,-1,0,857,1741,1855,2060,2228,2032,1796,1856,1976
172115,-44680,-15144,-46308,-13540,-3800,-3800,27,87,-21,-22,66,3953,-2,-5,857,1741,1855,2060,2228,2032,1796,1856,1976
173116,-44672,-15136,-46308,-13540,-3800,-3800,26,89,-24,-25,77,3935,10,-2,857,1741,1855,2060,2228,2032,1796,1856,1976
174117,-44672,-15144,-46308,-13540,-3800,-3800,25,87,-23,-29,77,3920,8,5,857,1741,1855,2060,2228,2032,1796,1856,1976
175118,-44672,-15144,-46308,-13540,-3800,-3800,24,85,-20,-38,75,3916,-9,-5,857,1741,1855,2060,2228,2032,1796,1856,1976
176119,-44672,-15148,-46308,-13540,-3800,-3800,23,86,-19,-38,73,3899,7,3,857,1740,1853,2057,2228,2032,1795,1856,1975
177120,-44680,-15136,-46308,-13540,-3800,-3800,23,84,-19,-30,72,3944,4,7,857,1740,1853,2057,2228,2032,1795,1856,1975
178121,-44684,-15144,-46308,-13540,-3800,-3800,27,87,-20,-32,96,3934,-7,-4,857,1740,1853,2057,2228,2032,1795,1856,1975
179122,-44676,-15148,-46308,-13540,-3800,-3800,26,87,-20,-33,81,3944,10,-6,857,1740,1853,2057,2228,2032,1795,1856,1975
180123,-44676,-15148,-46308,-13540,-3800,-3800,27,85,-18,-33,74,3976,-5,6,857,1740,1853,2057,2228,2032,1795,1856,1975
181124,-44680,-15144,-46308,-13540,-3800,-3800,24,85,-18,-37,82,3971,1,7,857,1742,1855,2060,2230,2034,1798,1856,1976
182125,-44680,-15148,-46308,-13540,-3800,-3800,24,88,-20,-37,80,3927,8,-1,857,1742,1855,2060,2230,2034,1798,1856,1976
183126,-44672,-15144,-46308,-13540,-3800,-3800,24,90,-21,-25,61,3933,-9,-5,857,1742,1855,2060,2230,2034,1798,1856,1976
184127,-44672,-15136,-46308,-13540,-3800,-3800,23,87,-22,-23,65,3963,9,8,857,1742,1855,2060,2230,2034,1798,1856,1976
185128,-44688,-15140,-46308,-13540,-3800,-3800,21,85,-20,-25,80,3940,3,8,857,1742,1855,2060,2230,2034,1798,1856,1976
186129,-44672,-15160,-46308,-13540,-3800,-3800,21,84,-21,-38,59,3925,-9,-4,857,1742,1855,2060,2230,2034,1798,1856,1976
187130,-44676,-15144,-46308,-13540,-3800,-3800,24,86,-22,-30,90,3922,8,-3,857,1739,1853,2057,2227,2033,1796,1856,1976
188131,-44680,-15132,-46308,-13540,-3800,-3800,25,87,-22,-27,81,3906,4,7,857,1739,1853,2057,2227,2033,1796,1856,1976
189132,-44676,-15144,-46308,-13540,-3800,-3800,22,88,-23,-13,69,3929,-8,4,857,1739,1853,2057,2227,2033,1796,1856,1976
190133,-44684,-15144,-46308,-13540,-3800,-3800,22,87,-22,-47,68,3947,0,-5,856,1739,1853,2057,2227,2033,1796,1856,1976
191134,-44680,-15148,-46308,-13540,-3800,-3800,24,86,-19,-37,87,3963,9,9,857,1739,1853,2057,2227,2033,1796,1856,1976
192135,-44676,-15128,-46308,-13540,-3800,-3800,22,87,-20,-14,89,3956,6,-3,857,1740,1854,2060,2229,2034,1796,1856,1976
193136,-44680,-15144,-46308,-13540,-3800,-3800,20,86,-20,-22,84,3920,-9,1,857,1740,1854,2060,2229,2034,1796,1856,1976
194137,-44676,-15144,-46308,-13540,-3800,-3800,22,84,-21,-28,86,3904,-7,8,857,1740,1854,2060,2229,2034,1796,1856,1976
195138,-44668,-15140,-46308,-13540,-3800,-3800,23,87,-22,-16,63,3913,5,0,857,1740,1854,2060,2229,2034,1796,1856,1976
196139,-44676,-15140,-46308,-13540,-3800,-3800,23,88,-23,-14,77,3931,8,-5,857,1740,1854,2060,2229,2034,1796,1856,1976
197140,-44676,-15144,-46308,-13540,-3800,-3800,21,88,-24,-12,89,3949,-4,5,857,1740,1854,2060,2229,2034,1796,1856,1976
198141,-44676,-15140,-46308,-13540,-3800,-3800,20,89,-23,-36,54,3950,-8,5,857,1739,1852,2057,2226,2032,1795,1856,1975
199142,-44684,-15140,-46308,-13540,-3800,-3800,21,92,-24,-46,63,3934,10,-4,857,1739,1852,2057,2226,2032,1795,1856,1975
200143,-44676,-15144,-46308,-13540,-3800,-3800,20,91,-21,-35,68,3911,2,4,857,1739,1852,2057,2226,2032,1795,1856,1975
201144,-44676,-15148,-46308,-13540,-3800,-3800,19,90,-21,-25,76,3914,-9,8,857,1739,1852,2057,2226,2032,1795,1856,1975
202145,-44676,-15152,-46308,-13540,-3800,-3800,20,89,-23,-34,87,3926,7,-5,857,1739,1852,2057,2226,2032,1795,1856,1975
203146,-44680,-15136,-46308,-13540,-3800,-3800,23,89,-22,-15,74,3934,9,-6,857,1739,1854,2058,2229,2034,1796,1856,1976
204147,-44668,-15140,-46308,-13540,-3800,-3800,24,91,-20,-44,81,3933,-8,5,857,1739,1854,2058,2229,2034,1796,1856,1976
205148,-44676,-15132,-46243,-13475,-1388,2347,23,89,-22,-54,97,3892,7,5,857,1739,1854,2058,2229,2034,1796,1856,1976
206149,-44672,-15140,-46178,-13410,-1465,2636,22,87,-23,-58,80,3909,7,-4,838,1739,1854,2058,2229,2034,1796,1856,1976
207150,-44680,-15112,-46113,-13345,-1227,2232,21,92,-23,-38,76,3930,-1,8,836,1739,1854,2058,2229,2034,1796,1856,1976
208151,-44680,-15048,-46048,-13280,-1247,1784,16,77,-26,-110,94,3948,14,14,842,1739,1854,2058,2229,2034,1796,1856,1976
209152,-44684,-14956,-45983,-13215,-1114,1402,19,59,-18,-183,176,4089,4,44,846,1739,1853,2057,2227,2027,1797,1855,1974
210153,-44688,-14844,-45918,-13150,-1030,1095,19,24,-25,-250,176,4112,-4,59,849,1739,1853,2057,2227,2027,1797,1855,1974
211154,-44664,-14712,-45853,-13085,-1331,764,24,-14,-26,-322,106,4262,5,65,851,1739,1853,2057,2227,2027,1797,1855,1974
212155,-44672,-14600,-45788,-13020,-842,957,26,-25,-25,-83,107,4279,1,60,854,1739,1853,2057,2227,2027,1797,1855,1974
213156,-44672,-14476,-45723,-12955,-863,736,17,-6,-43,211,-25,3916,6,64,853,1739,1853,2057,2227,2027,1797,1855,1974
214157,-44684,-14368,-45658,-12890,-619,884,9,48,-65,108,-33,4084,-3,64,853,1743,1853,2059,2229,2035,1799,1855,1989
215158,-44676,-14228,-45593,-12825,-800,393,-5,114,-82,43,6,3803,-1,76,853,1743,1853,2059,2229,2035,1799,1855,1989
216159,-44680,-14088,-45528,-12760,-567,302,-18,157,-96,-82,-31,3823,1,74,855,1743,1853,2059,2229,2035,1799,1855,1989
217160,-44680,-13944,-45463,-12695,-537,156,-32,170,-106,-258,32,3966,8,79,856,1743,1853,2059,2229,2035,1799,1855,1989
218161,-44672,-13828,-45398,-12630,-568,444,-39,139,-111,-535,23,3933,1,70,856,1743,1853,2059,2229,2035,1799,1855,1989
219162,-44684,-13688,-45333,-12565,-225,53,-42,84,-118,-611,-2,4007,8,70,849,1748,1863,2059,2229,2035,1799,1855,1989
220163,-44676,-13580,-45268,-12500,-405,401,-48,20,-133,-556,-61,3889,7,73,856,1748,1863,2067,2232,2048,1811,1869,1990
221164,-44668,-13424,-45203,-12435,-336,-309,-58,-36,-136,-692,-93,4026,-5,74,856,1748,1863,2067,2232,2048,1811,1869,1990
222165,-44668,-13292,-45138,-12370,-156,-91,-64,-58,-127,-598,-27,3998,14,78,855,1748,1863,2067,2232,2048,1811,1869,1990
223166,-44680,-13192,-45073,-12305,87,266,-65,-65,-134,-212,57,3980,4,73,853,1748,1863,2067,2232,2048,1811,1869,1990
224167,-44676,-13064,-45008,-12240,-39,-160,-68,-59,-162,-151,-65,4008,10,70,855,1748,1863,2067,2232,2048,1811,1869,1990
225168,-44684,-12948,-44943,-12175,200,-72,-73,-35,-182,-240,-92,4335,-2,54,856,1712,1847,2051,2217,2047,1807,1857,1991
226169,-44676,-12852,-44878,-12110,70,140,-70,-7,-182,-62,23,4269,-5,52,856,1712,1847,2051,2217,2047,1807,1857,1991
227170,-44680,-12744,-44813,-12045,304,-61,-61,32,-191,78,-47,4240,13,56,856,1712,1847,2051,2217,2047,1807,1857,1991
228171,-44688,-12656,-44748,-11980,443,161,-57,44,-210,-6,-21,4299,-5,53,856,1712,1847,2051,2217,2047,1807,1857,1991
229172,-44668,-12564,-44683,-11915,148,78,-62,23,-219,-267,-25,4141,3,57,855,1712,1847,2051,2217,2047,1807,1857,1991
230173,-44664,-12476,-44618,-11850,423,100,-64,7,-226,-327,25,4183,-2,44,856,1730,1845,2048,2217,2043,1805,1865,1987
231174,-44664,-12400,-44553,-11785,552,237,-76,-16,-237,-223,-47,3891,3,49,855,1730,1845,2048,2217,2043,1805,1865,1987
232175,-44668,-12320,-44488,-11720,686,169,-86,-36,-244,-274,-46,3939,0,51,854,1730,1845,2048,2217,2043,1805,1865,1987
233176,-44640,-12240,-44423,-11655,331,151,-97,-76,-241,-457,31,3880,9,46,853,1730,1845,2048,2217,2043,1805,1865,1987
234177,-44624,-12180,-44358,-11590,541,407,-105,-115,-243,-473,-38,3809,11,40,855,1730,1845,2048,2217,2043,1805,1865,1987
235178,-44604,-12108,-44293,-11525,546,248,-111,-139,-246,-252,4,3920,21,42,854,1730,1845,2048,2217,2043,1805,1865,1987
236179,-44584,-12056,-44228,-11460,601,515,-118,-149,-244,-147,-39,3929,16,42,854,1747,1861,2063,2235,2038,1799,1863,1990
237180,-44556,-11988,-44163,-11395,546,311,-116,-140,-246,-213,-49,3816,24,37,852,1747,1861,2063,2235,2038,1799,1863,1990
238181,-44528,-11932,-44098,-11330,592,472,-113,-143,-252,-156,-29,3889,14,31,853,1747,1861,2063,2235,2038,1799,1863,1990
239182,-44496,-11884,-44033,-11265,583,593,-100,-120,-250,-12,-152,3937,13,28,853,1747,1861,2063,2235,2038,1799,1863,1990
240183,-44456,-11832,-43968,-11200,513,560,-93,-106,-249,17,-96,3814,14,40,852,1747,1861,2063,2235,2038,1799,1863,1990
241184,-44404,-11796,-43903,-11135,379,795,-75,-84,-257,21,-74,3977,24,26,851,1753,1868,2067,2235,2030,1786,1851,1971
242185,-44368,-11752,-43838,-11070,614,721,-58,-66,-253,-15,-102,4003,36,28,852,1753,1868,2067,2235,2030,1786,1851,1971
243186,-44320,-11700,-43773,-11005,486,637,-38,-70,-237,0,-70,3837,26,31,851,1753,1868,2067,2235,2030,1786,1851,1971
244187,-44280,-11644,-43708,-10940,617,599,-19,-79,-235,-193,-49,3797,27,37,852,1753,1868,2067,2235,2030,1786,1851,1971
245188,-44236,-11604,-43643,-10875,592,829,-6,-91,-229,-206,-26,3873,37,37,852,1753,1868,2067,2235,2030,1786,1851,1971
246189,-44180,-11552,-43578,-10810,453,695,4,-117,-216,-100,8,3793,25,38,851,1753,1868,2067,2235,2030,1786,1851,1971
247190,-44116,-11480,-43513,-10745,355,437,5,-127,-207,53,52,3816,43,42,852,1745,1855,2055,2231,2004,1768,1834,1942
248191,-44064,-11444,-43448,-10680,521,923,7,-141,-192,0,28,3748,44,37,853,1745,1855,2055,2231,2004,1768,1834,1942
249192,-43992,-11376,-43383,-10615,263,519,4,-143,-169,-76,-15,3794,28,34,851,1745,1855,2055,2231,2004,1768,1834,1942
250193,-43952,-11316,-43318,-10550,693,626,5,-140,-146,30,19,3780,40,38,853,1745,1855,2055,2231,2004,1768,1834,1942
251194,-43896,-11268,-43253,-10485,504,797,7,-122,-121,40,-56,3808,29,43,852,1745,1855,2055,2231,2004,1768,1834,1942
252195,-43820,-11208,-43188,-10420,242,653,15,-107,-99,106,-17,3852,43,32,851,1745,1850,2048,2228,1992,1762,1828,1939
253196,-43752,-11140,-43123,-10355,338,550,32,-94,-66,105,-113,3953,43,45,853,1745,1850,2048,2228,1992,1762,1828,1939
254197,-43692,-11076,-43058,-10290,444,601,49,-93,-47,79,-189,3699,31,31,853,1745,1850,2048,2228,1992,1762,1828,1939
255198,-43628,-11024,-42993,-10225,396,768,65,-70,-36,13,-194,3931,32,43,853,1745,1850,2048,2228,1992,1762,1828,1939
256199,-43572,-10968,-42928,-10160,508,729,86,-40,-19,231,-247,3910,29,43,852,1745,1850,2048,2228,1992,1762,1828,1939
257200,-43512,-10912,-42863,-10095,464,740,102,-29,-1,237,-164,3859,49,33,852,1745,1850,2048,2228,1992,1762,1828,1939
258201,-43444,-10848,-42798,-10030,360,642,112,-27,17,-46,-206,3694,48,33,851,1743,1847,2050,2230,2014,1778,1842,1957
259202,-43368,-10796,-42733,-9965,247,808,133,-29,31,-61,-156,3875,45,45,853,1743,1847,2050,2230,2014,1778,1842,1957
260203,-43312,-10708,-42668,-9900,509,330,149,-29,43,-71,-122,3725,32,45,853,1743,1847,2050,2230,2014,1778,1842,1957
261204,-43252,-10660,-42603,-9835,465,852,163,-21,45,-98,-146,3910,48,31,853,1743,1847,2050,2230,2014,1778,1842,1957
262207,-43200,-10584,-42538,-9770,581,488,176,-19,55,72,-100,3828,49,29,851,1743,1847,2050,2230,2014,1778,1842,1957
263206,-43116,-10520,-42473,-9705,157,639,182,-15,78,-50,-41,3976,44,44,852,1747,1854,2058,2237,2028,1788,1853,1971
264207,-43060,-10480,-42408,-9640,518,970,193,-18,91,3,-73,3790,47,31,853,1747,1854,2058,2237,2028,1788,1853,1971
265208,-43000,-10420,-42343,-9575,476,727,193,-5,98,-117,-101,4035,33,37,851,1747,1854,2058,2237,2028,1788,1853,1971
266209,-42944,-10360,-42278,-9510,536,733,192,19,106,91,-152,3877,38,28,851,1747,1854,2058,2237,2028,1788,1853,1971
267210,-42884,-10316,-42213,-9445,493,959,192,58,135,48,-94,4169,30,31,851,1747,1854,2058,2237,2028,1788,1853,1971
268211,-42812,-10280,-42148,-9380,334,1095,195,70,164,-113,54,3994,33,41,851,1747,1854,2058,2237,2028,1788,1853,1971
269212,-42744,-10200,-42083,-9315,381,527,202,85,185,-107,13,4193,33,45,850,1753,1864,2064,2240,2032,1792,1857,1975
270213,-42700,-10140,-42018,-9250,707,783,211,62,196,-62,6,4074,50,38,853,1753,1864,2064,2240,2032,1792,1857,1975
271214,-42636,-10104,-41953,-9185,458,1119,219,29,212,-140,8,4210,50,39,851,1753,1864,2064,2240,2032,1792,1857,1975
272215,-42580,-10036,-41888,-9120,569,716,219,18,217,-64,51,4192,49,35,850,1753,1864,2064,2240,2032,1792,1857,1975
273216,-42496,-9968,-41823,-9055,197,712,219,13,220,14,-80,4197,32,34,851,1753,1864,2064,2240,2032,1792,1857,1975
274217,-42444,-9912,-41758,-8990,613,874,213,11,229,32,-107,4066,49,28,853,1747,1859,2063,2236,2037,1798,1861,1986
275218,-42384,-9832,-41693,-8925,519,556,210,-2,225,-42,-44,3977,48,34,850,1747,1859,2063,2236,2037,1798,1861,1986
276219,-42332,-9792,-41628,-8860,636,1087,215,12,214,96,-109,4320,35,28,852,1747,1859,2063,2236,2037,1798,1861,1986
277220,-42256,-9744,-41563,-8795,322,1008,219,2,209,136,-47,4074,40,35,850,1747,1859,2063,2236,2037,1798,1861,1986
278221,-42188,-9664,-41498,-8730,419,590,228,-7,197,130,-36,4069,39,40,850,1747,1859,2063,2236,2037,1798,1861,1986
279222,-42120,-9608,-41433,-8665,415,902,231,-23,187,31,-34,4142,47,42,852,1747,1859,2063,2236,2037,1798,1861,1986
280223,-42064,-9548,-41368,-8600,577,858,238,-45,184,-116,27,4110,47,28,851,1749,1861,2067,2235,2049,1806,1868,1995
281224,-41988,-9492,-41303,-8535,314,919,241,-63,182,-27,65,4131,33,38,850,1749,1861,2067,2235,2049,1806,1868,1995
282225,-41916,-9456,-41238,-8470,355,1205,246,-77,177,36,158,4187,35,32,851,1749,1861,2067,2235,2049,1806,1868,1995
283226,-41852,-9392,-41173,-8405,456,856,245,-89,179,-20,94,4089,33,31,850,1749,1861,2067,2235,2049,1806,1868,1995
284227,-41804,-9328,-41108,-8340,678,858,238,-94,177,-28,97,4076,38,45,851,1749,1861,2067,2235,2049,1806,1868,1995
285228,-41740,-9256,-41043,-8275,479,750,236,-97,189,-174,147,4133,47,36,850,1748,1865,2066,2235,2046,1801,1867,1991
286229,-41684,-9200,-40978,-8210,590,961,236,-96,179,-104,250,4269,31,31,851,1748,1865,2066,2235,2046,1801,1867,1991
287230,-41636,-9152,-40913,-8145,711,1083,240,-95,164,10,207,4116,39,33,850,1748,1865,2066,2235,2046,1801,1867,1991
288231,-41580,-9096,-40848,-8080,623,994,239,-114,162,-9,268,4176,45,31,849,1748,1865,2066,2235,2046,1801,1867,1991
289232,-41508,-9020,-40783,-8015,415,730,234,-127,159,-112,184,4017,34,30,849,1748,1865,2066,2235,2046,1801,1867,1991
290233,-41452,-8980,-40718,-7950,625,1212,234,-126,152,-95,176,4094,48,27,851,1748,1865,2066,2235,2046,1801,1867,1991
291234,-41384,-8920,-40653,-7885,473,968,234,-126,144,-265,142,3906,47,43,850,1746,1863,2063,2233,2038,1796,1860,1984
292235,-41348,-8860,-40588,-7820,908,974,242,-130,126,-97,231,4133,51,33,848,1746,1863,2063,2233,2038,1796,1860,1984
293236,-41284,-8804,-40523,-7755,559,1036,248,-140,111,-101,149,4026,39,32,849,1746,1863,2063,2233,2038,1796,1860,1984
294237,-41208,-8756,-40458,-7690,396,1157,262,-151,94,-36,218,4131,57,30,849,1746,1863,2063,2233,2038,1796,1860,1984
295238,-41140,-8684,-40393,-7625,493,849,274,-167,82,-62,111,3939,39,35,849,1746,1863,2063,2233,2038,1796,1860,1984
296239,-41064,-8628,-40328,-7560,380,1060,284,-184,70,-107,123,3967,38,44,850,1741,1855,2062,2234,2030,1790,1850,1969
297240,-41000,-8592,-40263,-7495,531,1346,292,-192,58,-15,155,4020,35,39,850,1741,1855,2062,2234,2030,1790,1850,1969
298241,-40920,-8528,-40198,-7430,313,998,304,-191,61,-29,180,4016,51,45,849,1741,1855,2062,2234,2030,1790,1850,1969
299242,-40856,-8464,-40133,-7365,515,999,309,-193,53,127,108,3878,33,44,849,1741,1855,2062,2234,2030,1790,1850,1969
300243,-40796,-8400,-40068,-7300,571,1001,317,-203,48,-51,123,3943,38,43,850,1741,1855,2062,2234,2030,1790,1850,1969
301244,-40724,-8340,-40003,-7235,413,1057,330,-189,50,-7,237,4060,37,33,850,1741,1855,2062,2234,2030,1790,1850,1969
302245,-40664,-8284,-39938,-7170,570,1119,344,-176,39,180,293,3863,47,43,849,1746,1856,2063,2235,2012,1778,1839,1955
303246,-40596,-8252,-39873,-7105,466,1460,349,-167,20,130,273,3855,46,32,849,1746,1856,2063,2235,2012,1778,1839,1955
304247,-40552,-8192,-39808,-7040,792,1116,347,-157,9,-9,331,3922,47,33,847,1746,1856,2063,2235,2012,1778,1839,1955
305248,-40476,-8120,-39743,-6975,378,958,357,-134,3,37,493,4135,49,34,847,1746,1856,2063,2235,2012,1778,1839,1955
306249,-40420,-8064,-39678,-6910,640,1169,372,-126,-2,111,468,3911,48,41,849,1746,1856,2063,2235,2012,1778,1839,1955
307250,-40348,-8008,-39613,-6845,432,1181,381,-142,-10,138,471,3859,41,31,849,1748,1856,2058,2235,2002,1772,1835,1949
308251,-40280,-7968,-39548,-6780,478,1412,389,-155,-21,-108,470,3973,45,40,848,1748,1856,2058,2235,2002,1772,1835,1949
309252,-40232,-7928,-39483,-6715,750,1443,402,-160,-36,-62,416,3775,42,32,846,1748,1856,2058,2235,2002,1772,1835,1949
310253,-40160,-7872,-39418,-6650,441,1254,410,-166,-44,14,371,3929,33,34,846,1748,1856,2058,2235,2002,1772,1835,1949
311254,-40108,-7812,-39353,-6585,707,1211,428,-163,-38,-47,249,3841,48,27,847,1748,1856,2058,2235,2002,1772,1835,1949
312255,-40064,-7752,-39288,-6520,833,1217,446,-163,-27,-150,252,3925,50,42,847,1748,1856,2058,2235,2002,1772,1835,1949
313256,-40000,-7720,-39223,-6455,585,1608,472,-157,-25,-187,297,3961,37,40,846,1743,1853,2057,2232,2010,1774,1837,1957
314257,-39940,-7676,-39158,-6390,641,1484,495,-149,-35,128,185,3888,35,35,845,1743,1853,2057,2232,2010,1774,1837,1957
315258,-39872,-7648,-39093,-6325,537,1729,508,-142,-28,139,132,3772,39,41,845,1743,1853,2057,2232,2010,1774,1837,1957
316259,-39800,-7596,-39028,-6260,480,1446,515,-123,-19,120,185,3865,46,26,845,1743,1853,2057,2232,2010,1774,1837,1957
317260,-39736,-7524,-38963,-6195,581,1188,516,-85,-17,98,222,3790,53,44,845,1743,1853,2057,2232,2010,1774,1837,1957
318261,-39660,-7476,-38898,-6130,418,1510,524,-71,-6,95,274,3950,38,36,847,1747,1857,2063,2235,2014,1777,1839,1958
319262,-39584,-7412,-38833,-6065,404,1311,534,-70,-3,297,268,3944,41,30,847,1747,1857,2063,2235,2014,1777,1839,1958
320263,-39528,-7348,-38768,-6000,666,1313,542,-78,-16,70,310,3927,36,47,847,1747,1857,2063,2235,2014,1777,1839,1958
321264,-39468,-7288,-38703,-5935,622,1369,545,-83,-30,72,343,4006,39,35,847,1747,1857,2063,2235,2014,1777,1839,1958
322265,-39412,-7216,-38638,-5870,683,1212,538,-69,-33,190,370,4073,49,36,846,1747,1857,2063,2235,2014,1777,1839,1958
323266,-39348,-7160,-38573,-5805,586,1423,529,-75,-31,242,365,3894,45,39,847,1747,1857,2063,2235,2014,1777,1839,1958
324267,-39292,-7096,-38508,-5740,697,1325,524,-83,-39,92,336,4134,36,38,846,1743,1851,2058,2232,2024,1784,1846,1968
325268,-39232,-7024,-38443,-5675,653,1217,520,-89,-45,39,332,4011,45,48,846,1743,1851,2058,2232,2024,1784,1846,1968
326269,-39164,-6944,-38378,-5610,549,1099,524,-96,-45,163,293,4132,50,37,846,1743,1851,2058,2232,2024,1784,1846,1968
327270,-39092,-6884,-38313,-5545,491,1356,528,-82,-42,211,333,4163,34,50,847,1743,1851,2058,2232,2024,1784,1846,1968
328271,-39044,-6816,-38248,-5480,812,1252,542,-92,-36,180,317,4060,34,49,847,1743,1851,2058,2232,2024,1784,1846,1968
329272,-38968,-6736,-38183,-5415,449,1085,536,-114,-25,-61,263,4164,33,43,846,1735,1844,2053,2221,2049,1805,1865,1997
330273,-38916,-6676,-38118,-5350,766,1341,541,-130,-18,-25,232,4076,44,39,847,1735,1844,2053,2221,2049,1805,1865,1997
331274,-38856,-6616,-38053,-5285,672,1348,535,-132,-1,43,195,4205,50,51,847,1735,1844,2053,2221,2049,1805,1865,1997
332275,-38816,-6560,-37988,-5220,952,1409,542,-131,12,148,255,4074,50,41,846,1735,1844,2053,2221,2049,1805,1865,1997
333276,-38744,-6504,-37923,-5155,545,1421,537,-124,25,206,244,4131,49,40,846,1735,1844,2053,2221,2049,1805,1865,1997
334277,-38672,-6428,-37858,-5090,536,1158,542,-124,44,44,187,4228,36,39,845,1735,1844,2053,2221,2049,1805,1865,1997
335278,-38608,-6344,-37793,-5025,637,1036,523,-141,60,98,131,3943,33,38,847,1736,1852,2064,2226,2072,1818,1878,2016
336279,-38548,-6280,-37728,-4960,693,1287,518,-157,69,47,181,4028,37,43,849,1736,1852,2064,2226,2072,1818,1878,2016
337280,-38484,-6248,-37663,-4895,646,1728,505,-167,73,111,323,4012,44,33,847,1736,1852,2064,2226,2072,1818,1878,2016
338281,-38404,-6164,-37598,-4830,427,1055,499,-188,61,255,219,3925,37,38,847,1736,1852,2064,2226,2072,1818,1878,2016
339282,-38352,-6104,-37533,-4765,793,1362,488,-216,73,95,206,4163,49,44,844,1736,1852,2064,2226,2072,1818,1878,2016
340283,-38288,-6052,-37468,-4700,645,1478,473,-226,91,-4,304,4095,45,42,848,1741,1857,2067,2227,2070,1813,1871,2007
341284,-38232,-5984,-37403,-4635,756,1275,455,-221,87,150,294,4112,37,36,846,1741,1857,2067,2227,2070,1813,1871,2007
342285,-38164,-5944,-37338,-4570,603,1656,439,-225,84,301,335,4239,44,28,845,1741,1857,2067,2227,2070,1813,1871,2007
343286,-38116,-5900,-37273,-4505,875,1632,428,-223,90,430,326,4244,40,26,845,1741,1857,2067,2227,2070,1813,1871,2007
344287,-38040,-5836,-37208,-4440,511,1384,415,-221,86,264,275,4111,31,41,844,1741,1857,2067,2227,2070,1813,1871,2007
345288,-37976,-5792,-37143,-4375,662,1660,402,-223,83,124,292,4241,43,35,843,1741,1857,2067,2227,2070,1813,1871,2007
346289,-37912,-5744,-37078,-4310,665,1631,390,-218,94,234,310,4260,46,32,846,1734,1848,2053,2212,2057,1803,1863,1999
347290,-37856,-5688,-37013,-4245,776,1543,382,-210,111,328,203,4053,43,36,843,1734,1848,2053,2212,2057,1803,1863,1999
348291,-37792,-5644,-36948,-4180,677,1719,381,-216,109,240,349,4222,36,40,844,1734,1848,2053,2212,2057,1803,1863,1999
349292,-37748,-5580,-36883,-4115,953,1471,377,-229,118,107,345,4227,41,25,843,1734,1848,2053,2212,2057,1803,1863,1999
350293,-37668,-5532,-36818,-4050,485,1692,379,-245,134,195,323,4090,49,28,843,1734,1848,2053,2212,2057,1803,1863,1999
351294,-37612,-5500,-36753,-3985,796,1933,372,-254,146,172,359,4021,50,26,844,1722,1833,2043,2210,2057,1806,1861,1993
352295,-37568,-5440,-36688,-3920,973,1590,366,-257,153,169,337,3944,35,24,844,1722,1833,2043,2210,2057,1806,1861,1993
353296,-37496,-5396,-36623,-3855,614,1816,373,-258,164,216,353,4049,34,38,840,1722,1833,2043,2210,2057,1806,1861,1993
354297,-37452,-5324,-36558,-3790,990,1458,382,-257,178,185,313,4029,49,31,842,1722,1833,2043,2210,2057,1806,1861,1993
355298,-37380,-5260,-36493,-3725,632,1559,398,-246,183,213,338,4084,52,49,843,1722,1833,2043,2210,2057,1806,1861,1993
356299,-37340,-5200,-36428,-3660,1063,1616,391,-257,203,161,285,3945,49,45,843,1722,1833,2043,2210,2057,1806,1861,1993
357300,-37260,-5140,-36363,-3595,544,1622,401,-254,216,227,377,3981,44,37,844,1728,1843,2057,2227,2050,1805,1857,1980
358301,-37200,-5064,-36298,-3530,802,1410,397,-259,228,244,291,3621,44,43,842,1728,1843,2057,2227,2050,1805,1857,1980
359302,-37128,-5008,-36233,-3465,643,1672,399,-274,232,204,378,3869,38,39,844,1728,1843,2057,2227,2050,1805,1857,1980
360303,-37072,-4920,-36168,-3400,854,1244,404,-284,233,96,350,3691,37,51,844,1728,1843,2057,2227,2050,1805,1857,1980
361304,-37012,-4856,-36103,-3335,811,1546,408,-295,237,261,435,3887,53,40,843,1728,1843,2057,2227,2050,1805,1857,1980
362305,-36936,-4792,-36038,-3270,598,1547,410,-292,243,346,381,3761,36,52,846,1743,1854,2065,2236,2024,1780,1840,1959
363306,-36860,-4732,-35973,-3205,584,1605,397,-299,231,450,403,3765,38,50,844,1743,1854,2065,2236,2024,1780,1840,1959
364307,-36804,-4680,-35908,-3140,846,1721,387,-289,228,305,461,3922,37,39,845,1743,1854,2065,2236,2024,1780,1840,1959
365308,-36724,-4604,-35843,-3075,528,1408,374,-268,227,471,505,3936,46,41,844,1743,1854,2065,2236,2024,1780,1840,1959
366309,-36672,-4512,-35778,-3010,894,1176,373,-248,218,567,464,3877,50,34,842,1743,1854,2065,2236,2024,1780,1840,1959
367310,-36592,-4464,-35713,-2945,526,1747,380,-249,224,306,456,4037,43,44,846,1743,1854,2065,2236,2024,1780,1840,1959
368311,-36544,-4396,-35648,-2880,947,1494,395,-248,212,418,409,3974,41,36,846,1741,1849,2051,2217,2005,1765,1828,1952
369312,-36488,-4336,-35583,-2815,858,1600,419,-247,194,179,459,3956,44,45,844,1741,1849,2051,2217,2005,1765,1828,1952
370313,-36420,-4268,-35518,-2750,706,1498,424,-281,183,162,434,3843,49,38,843,1741,1849,2051,2217,2005,1765,1828,1952
371314,-36356,-4208,-35453,-2685,757,1605,461,-285,177,106,437,4155,50,42,843,1741,1849,2051,2217,2005,1765,1828,1952
372315,-36300,-4156,-35388,-2620,868,1721,471,-287,176,141,502,4058,38,29,844,1741,1849,2051,2217,2005,1765,1828,1952
373316,-36248,-4108,-35323,-2555,935,1792,500,-302,179,371,470,3867,42,38,843,1725,1837,2044,2209,2015,1771,1839,1966
374317,-36180,-4060,-35258,-2490,731,1813,527,-322,175,195,454,3765,48,37,841,1725,1837,2044,2209,2015,1771,1839,1966
375318,-36120,-3988,-35193,-2425,837,1505,544,-349,185,-83,530,3878,37,31,840,1725,1837,2044,2209,2015,1771,1839,1966
376319,-36084,-3936,-35128,-2360,1173,1772,561,-357,197,36,612,3780,51,46,842,1725,1837,2044,2209,2015,1771,1839,1966
377320,-35996,-3888,-35063,-2295,495,1843,570,-354,210,173,545,3960,53,40,843,1725,1837,2044,2209,2015,1771,1839,1966
378321,-35924,-3816,-34998,-2230,687,1536,581,-358,221,87,477,3728,50,29,838,1725,1837,2044,2209,2015,1771,1839,1966
379322,-35852,-3768,-34933,-2165,679,1856,577,-373,222,37,529,3640,38,38,842,1741,1858,2066,2238,2020,1781,1846,1967
380323,-35788,-3712,-34868,-2100,781,1768,574,-360,211,229,679,3688,39,29,844,1741,1858,2066,2238,2020,1781,1846,1967
381324,-35732,-3680,-34803,-2035,892,2110,562,-346,202,224,705,3799,40,42,841,1741,1858,2066,2238,2020,1781,1846,1967
382325,-35668,-3620,-34738,-1970,794,1766,552,-335,193,306,732,3705,43,43,842,1741,1858,2066,2238,2020,1781,1846,1967
383326,-35596,-3560,-34673,-1905,685,1773,547,-326,178,217,705,3868,46,33,838,1741,1858,2066,2238,2020,1781,1846,1967
384327,-35552,-3496,-34608,-1840,1062,1724,540,-337,158,165,739,3854,48,31,841,1758,1866,2072,2244,2016,1779,1840,1961
385328,-35484,-3456,-34543,-1775,758,2056,533,-333,141,116,609,4077,33,33,842,1758,1866,2072,2244,2016,1779,1840,1961
386329,-35436,-3412,-34478,-1710,1029,2032,543,-325,111,236,587,3986,37,41,840,1758,1866,2072,2244,2016,1779,1840,1961
387330,-35364,-3356,-34413,-1645,721,1893,546,-341,84,68,502,4005,34,34,839,1758,1866,2072,2244,2016,1779,1840,1961
388331,-35308,-3296,-34348,-1580,932,1850,539,-370,75,-100,491,4101,52,30,838,1758,1866,2072,2244,2016,1779,1840,1961
389332,-35240,-3252,-34283,-1515,779,2077,544,-381,70,-126,487,4068,41,32,840,1758,1866,2072,2244,2016,1779,1840,1961
390333,-35196,-3180,-34218,-1450,1105,1718,550,-385,62,-44,484,4040,40,32,840,1731,1835,2047,2209,2030,1790,1843,1975
391334,-35120,-3124,-34153,-1385,692,1930,568,-364,64,53,464,4220,43,36,839,1731,1835,2047,2209,2030,1790,1843,1975
392335,-35056,-3040,-34088,-1320,843,1558,588,-353,73,150,575,4044,50,39,839,1731,1835,2047,2209,2030,1790,1843,1975
393336,-34992,-3000,-34023,-1255,845,2139,591,-368,71,-27,578,3997,33,45,840,1731,1835,2047,2209,2030,1790,1843,1975
394337,-34944,-2920,-33958,-1190,1066,1621,584,-378,66,-312,518,4085,34,33,842,1731,1835,2047,2209,2030,1790,1843,1975
395338,-34880,-2856,-33893,-1125,868,1824,584,-389,77,-207,648,4075,36,46,838,1712,1824,2041,2201,2049,1805,1859,1993
396339,-34828,-2792,-33828,-1060,1034,1825,583,-391,86,-4,708,4044,40,48,841,1712,1824,2041,2201,2049,1805,1859,1993
397340,-34768,-2728,-33763,-995,940,1827,574,-387,90,-4,758,4239,42,42,840,1712,1824,2041,2201,2049,1805,1859,1993
398341,-34692,-2668,-33698,-930,728,1884,551,-403,89,-21,717,3861,55,44,840,1712,1824,2041,2201,2049,1805,1859,1993
399342,-34636,-2580,-33633,-865,989,1506,536,-424,97,-231,831,3980,54,39,840,1712,1824,2041,2201,2049,1805,1859,1993
400343,-34588,-2508,-33568,-800,1110,1698,514,-435,97,-140,833,4030,50,47,841,1712,1824,2041,2201,2049,1805,1859,1993
401344,-34508,-2448,-33503,-735,692,1856,507,-431,80,68,825,3965,42,42,842,1727,1844,2058,2221,2063,1814,1872,2008
402345,-34468,-2388,-33438,-670,1223,1862,495,-424,63,135,876,4275,58,48,839,1727,1844,2058,2221,2063,1814,1872,2008
403346,-34400,-2324,-33373,-605,870,1814,472,-414,50,122,729,4115,55,46,842,1727,1844,2058,2221,2063,1814,1872,2008
404347,-34332,-2260,-33308,-540,867,1816,460,-415,42,50,657,4060,52,37,838,1727,1844,2058,2221,2063,1814,1872,2008
405348,-34260,-2200,-33243,-475,808,1872,443,-435,38,-132,689,4098,46,38,841,1727,1844,2058,2221,2063,1814,1872,2008
406349,-34176,-2124,-33178,-410,636,1660,436,-431,23,3,635,4245,59,47,840,1741,1856,2070,2225,2070,1817,1871,2012
407350,-34116,-2076,-33113,-345,942,2031,432,-428,6,48,640,4339,49,35,840,1741,1856,2070,2225,2070,1817,1871,2012
408351,-34036,-2024,-33048,-280,674,1997,437,-430,-6,142,637,4308,42,33,843,1741,1856,2070,2225,2070,1817,1871,2012
409352,-33968,-1960,-32983,-215,821,1850,436,-437,-17,-136,516,4287,40,35,838,1741,1856,2070,2225,2070,1817,1871,2012
410353,-33912,-1900,-32918,-150,982,1906,433,-441,-22,-200,702,4394,42,45,840,1741,1856,2070,2225,2070,1817,1871,2012
411354,-33832,-1824,-32853,-85,665,1693,429,-441,-15,106,747,4322,45,41,839,1741,1856,2070,2225,2070,1817,1871,2012
412355,-33772,-1784,-32788,-20,921,2175,428,-424,-23,215,819,4440,40,39,838,1736,1849,2070,2225,2063,1811,1863,1999
413356,-33700,-1728,-32723,45,762,1986,413,-416,-14,-92,863,4422,41,23,842,1736,1849,2070,2225,2063,1811,1863,1999
414357,-33636,-1672,-32658,110,864,1998,417,-405,-5,-49,901,4389,53,38,836,1736,1849,2070,2225,2063,1811,1863,1999
415358,-33576,-1620,-32593,175,920,2065,394,-407,-4,-97,838,4179,36,29,839,1736,1849,2070,2225,2063,1811,1863,1999
416359,-33520,-1556,-32528,240,981,1917,388,-403,1,-163,944,4470,33,39,838,1736,1849,2070,2225,2063,1811,1863,1999
417360,-33456,-1504,-32463,305,884,2083,372,-389,20,-42,1005,4389,40,31,838,1739,1851,2071,2239,2059,1816,1865,1993
418361,-33392,-1468,-32398,370,885,2319,364,-363,31,71,1003,4285,54,38,838,1739,1851,2071,2239,2059,1816,1865,1993
419362,-33344,-1408,-32333,435,1107,2026,348,-359,44,-140,917,4236,53,35,838,1739,1851,2071,2239,2059,1816,1865,1993
420363,-33268,-1356,-32268,500,743,2142,336,-357,47,-102,973,4299,38,32,836,1739,1851,2071,2239,2059,1816,1865,1993
421364,-33204,-1312,-32203,565,894,2269,327,-349,49,-10,948,4266,36,32,836,1739,1851,2071,2239,2059,1816,1865,1993
422365,-33148,-1252,-32138,630,1006,2076,321,-322,42,119,979,4308,52,36,838,1739,1851,2071,2239,2059,1816,1865,1993
423366,-33092,-1212,-32073,695,1017,2356,318,-302,43,65,1062,4377,50,34,836,1741,1849,2075,2243,2063,1823,1869,1999
424367,-33032,-1148,-32008,760,975,2059,321,-282,31,184,1069,4371,54,34,837,1741,1849,2075,2243,2063,1823,1869,1999
425368,-32960,-1072,-31943,825,816,1896,312,-258,13,185,954,4400,52,44,835,1741,1849,2075,2243,2063,1823,1869,1999
426369,-32896,-1008,-31878,890,917,2048,322,-227,-1,173,966,4409,53,48,837,1741,1849,2075,2243,2063,1823,1869,1999
427370,-32816,-948,-31813,955,700,2104,324,-194,-19,220,1021,4420,39,33,839,1741,1849,2075,2243,2063,1823,1869,1999
428371,-32764,-884,-31748,1020,1066,2057,330,-177,-41,299,1014,4386,39,46,838,1741,1847,2075,2238,2073,1824,1866,2002
429372,-32696,-832,-31683,1085,862,2224,333,-181,-46,154,927,4343,49,36,838,1741,1847,2075,2238,2073,1824,1866,2002
430373,-32632,-740,-31618,1150,914,1691,337,-172,-58,101,1027,4349,45,46,837,1741,1847,2075,2238,2073,1824,1866,2002
431374,-32564,-676,-31553,1215,861,2043,340,-152,-60,122,1131,4268,38,54,836,1741,1847,2075,2238,2073,1824,1866,2002
432375,-32512,-636,-31488,1280,1078,2374,343,-146,-53,215,1160,4358,54,34,841,1741,1847,2075,2238,2073,1824,1866,2002
433376,-32444,-548,-31423,1345,874,1747,355,-123,-58,261,1113,4256,39,48,838,1741,1847,2075,2238,2073,1824,1866,2002
434377,-32376,-472,-31358,1410,870,1884,350,-146,-57,9,1161,4228,42,46,834,1740,1851,2079,2238,2060,1814,1860,1992
435378,-32308,-396,-31293,1475,868,1871,346,-146,-49,-50,1270,4379,41,39,840,1740,1851,2079,2238,2060,1814,1860,1992
436379,-32252,-340,-31228,1540,1029,2133,332,-133,-36,231,1296,4247,44,45,840,1740,1851,2079,2238,2060,1814,1860,1992
437380,-32184,-256,-31163,1605,876,1760,324,-114,-29,325,1305,4473,39,36,839,1740,1851,2079,2238,2060,1814,1860,1992
438381,-32096,-188,-31098,1670,598,1958,323,-94,-14,277,1219,4227,37,39,837,1740,1851,2079,2238,2060,1814,1860,1992
439382,-32028,-124,-31033,1735,844,2010,309,-122,-4,234,1181,3948,49,33,841,1746,1861,2082,2244,2042,1798,1850,1985
440383,-31960,-60,-30968,1800,841,2012,305,-147,-5,-25,1275,4348,51,40,841,1746,1861,2082,2244,2042,1798,1850,1985
441384,-31892,12,-30903,1865,838,1903,298,-145,-16,80,1410,4161,39,35,838,1746,1861,2082,2244,2042,1798,1850,1985
442385,-31844,64,-30838,1930,1109,2170,301,-157,-28,362,1307,4183,44,42,838,1746,1861,2082,2244,2042,1798,1850,1985
443386,-31764,128,-30773,1995,691,2023,304,-149,-46,576,1380,4288,36,43,839,1746,1861,2082,2244,2042,1798,1850,1985
444387,-31708,188,-30708,2060,1002,2079,313,-161,-68,343,1374,4000,56,40,836,1745,1859,2079,2235,2051,1804,1854,1994
445388,-31660,244,-30643,2125,1124,2141,315,-174,-88,241,1449,4150,50,49,838,1745,1859,2079,2235,2051,1804,1854,1994
446389,-31588,316,-30578,2190,815,1933,320,-177,-108,460,1379,4097,41,40,837,1745,1859,2079,2235,2051,1804,1854,1994
447390,-31516,384,-30513,2255,807,1980,317,-172,-129,485,1403,4097,51,39,836,1745,1859,2079,2235,2051,1804,1854,1994
448391,-31440,472,-30448,2320,744,1702,325,-172,-131,238,1400,4125,54,39,839,1745,1859,2079,2235,2051,1804,1854,1994
449392,-31372,524,-30383,2385,841,2169,311,-153,-137,512,1393,4124,44,42,839,1745,1859,2079,2235,2051,1804,1854,1994
450393,-31316,596,-30318,2450,1002,1912,312,-167,-141,339,1452,3962,56,42,842,1739,1851,2074,2223,2052,1803,1849,1990
451394,-31240,664,-30253,2515,739,1958,304,-192,-158,244,1564,4024,59,50,837,1739,1851,2074,2223,2052,1803,1849,1990
452395,-31176,732,-30188,2580,891,1955,311,-198,-156,268,1522,4196,44,49,838,1739,1851,2074,2223,2052,1803,1849,1990
453396,-31108,800,-30123,2645,838,1953,306,-183,-151,540,1505,4052,56,44,840,1739,1851,2074,2223,2052,1803,1849,1990
454397,-31016,872,-29924,2844,1356,2746,301,-180,-154,365,1466,4132,41,44,839,1739,1851,2074,2223,2052,1803,1849,1990
455398,-30968,960,-29859,2909,1926,2518,284,-193,-150,41,1510,4074,60,39,840,1726,1840,2066,2212,2053,1805,1848,1987
456399,-30884,1052,-29794,2974,1454,2436,278,-205,-146,155,1510,3997,61,44,829,1726,1840,2066,2212,2053,1805,1848,1987
457400,-30792,1148,-29729,3039,1321,2349,266,-222,-123,268,1534,3950,81,58,827,1726,1840,2066,2212,2053,1805,1848,1987
458401,-30692,1232,-29664,3104,1179,2476,271,-231,-87,261,1487,3862,69,65,832,1726,1840,2066,2212,2053,1805,1848,1987
459402,-30588,1360,-29599,3169,1082,1850,262,-239,-83,432,1481,3651,73,64,834,1726,1840,2066,2212,2053,1805,1848,1987
460403,-30464,1476,-29534,3234,760,1938,268,-286,-79,-153,1547,3858,83,64,833,1726,1840,2066,2212,2053,1805,1848,1987
461404,-30356,1580,-29469,3299,908,2042,269,-298,-84,130,1699,3851,75,62,839,1704,1830,2059,2205,2056,1805,1846,1987
462405,-30248,1696,-29404,3364,856,1830,289,-311,-100,440,1624,4020,72,61,839,1704,1830,2059,2205,2056,1805,1846,1987
463406,-30128,1792,-29339,3429,639,2043,309,-326,-97,502,1795,4226,73,73,837,1704,1830,2059,2205,2056,1805,1846,1987
464407,-30012,1896,-29274,3494,627,1895,321,-346,-104,505,1821,4115,69,62,841,1704,1830,2059,2205,2056,1805,1846,1987
465408,-29892,2016,-29209,3559,510,1629,350,-333,-127,395,1830,4213,67,66,841,1704,1830,2059,2205,2056,1805,1846,1987
466409,-29788,2116,-29144,3624,663,1837,353,-349,-157,533,1886,4067,66,70,841,1720,1836,2064,2208,2042,1792,1837,1980
467410,-29684,2220,-29079,3689,615,1740,352,-336,-172,616,1895,4165,66,64,844,1720,1836,2064,2208,2042,1792,1837,1980
468411,-29588,2304,-29014,3754,678,1968,354,-298,-182,777,1976,4085,55,75,842,1720,1836,2064,2208,2042,1792,1837,1980
469412,-29488,2396,-28949,3819,585,1835,337,-287,-182,564,2054,3833,67,73,843,1720,1836,2064,2208,2042,1792,1837,1980
470413,-29380,2520,-28884,3884,433,1364,311,-284,-187,407,2041,3848,55,70,841,1720,1836,2064,2208,2042,1792,1837,1980
471414,-29292,2628,-28819,3949,655,1511,284,-263,-198,322,2037,3782,73,56,842,1720,1836,2064,2208,2042,1792,1837,1980
472415,-29184,2752,-28754,4014,352,1240,279,-253,-167,496,2250,3650,70,62,847,1752,1869,2094,2243,2031,1789,1837,1978
473416,-29080,2844,-28689,4079,356,1607,276,-238,-141,468,2099,3734,53,63,844,1752,1869,2094,2243,2031,1789,1837,1978
474417,-29004,2932,-28624,4144,692,1630,275,-264,-155,126,1747,3492,59,56,847,1752,1869,2094,2243,2031,1789,1837,1978
475418,-28912,3012,-28559,4209,459,1712,267,-341,-148,-373,1715,3675,49,49,845,1752,1869,2094,2243,2031,1789,1837,1978
476419,-28820,3100,-28494,4274,426,1585,253,-385,-123,-120,1785,3677,49,55,843,1752,1869,2094,2243,2031,1789,1837,1978
477420,-28736,3192,-28429,4339,503,1502,265,-362,-85,292,1688,3736,59,58,844,1746,1857,2088,2232,2037,1794,1829,1971
478421,-28644,3272,-28364,4404,370,1634,280,-378,-60,368,1775,3544,54,61,845,1746,1857,2088,2232,2037,1794,1829,1971
479422,-28584,3360,-28299,4469,776,1506,295,-430,-45,-93,1801,3704,54,58,845,1746,1857,2088,2232,2037,1794,1829,1971
480423,-28488,3440,-28234,4534,289,1588,300,-437,-57,35,1788,3692,49,64,844,1746,1857,2088,2232,2037,1794,1829,1971
481424,-28424,3516,-28169,4599,691,1626,321,-432,-72,291,1889,3791,42,49,844,1746,1857,2088,2232,2037,1794,1829,1971
482425,-28352,3600,-28104,4664,582,1502,352,-429,-57,459,1685,4019,38,54,845,1746,1857,2088,2232,2037,1794,1829,1971
483426,-28264,3672,-28039,4729,354,1645,398,-422,-38,286,1698,4160,59,64,844,1707,1816,2045,2180,2031,1783,1821,1959
484427,-28196,3804,-27974,4794,600,813,455,-461,-32,35,1705,4097,57,60,845,1707,1816,2045,2180,2031,1783,1821,1959
485428,-28136,3928,-27909,4859,707,841,529,-617,-34,968,1860,3815,46,67,845,1707,1816,2045,2180,2031,1783,1821,1959
486429,-28036,4048,-27844,4924,164,825,562,-735,15,1418,1914,3321,54,52,849,1707,1816,2045,2180,2031,1783,1821,1959
487431,-27992,4140,-27779,4989,890,1142,445,-682,-79,249,1792,3138,46,57,849,1707,1816,2045,2180,2031,1783,1821,1959
488431,-27916,4228,-27714,5054,476,1164,128,-438,-298,-924,1674,3514,47,65,851,1714,1827,2048,2198,2000,1760,1824,1968
489432,-27832,4312,-27649,5119,353,1192,-221,-103,-397,504,1514,3187,40,58,846,1714,1827,2048,2198,2000,1760,1824,1968
490433,-27764,4396,-27584,5184,549,1168,-444,74,-301,1250,1335,3004,51,65,847,1714,1827,2048,2198,2000,1760,1824,1968
491434,-27684,4484,-27519,5249,381,1090,-496,6,-174,409,1496,3293,41,55,849,1714,1827,2048,2198,2000,1760,1824,1968
492435,-27600,4572,-27454,5314,308,1063,-382,-169,-122,-644,1180,3337,46,65,847,1714,1827,2048,2198,2000,1760,1824,1968
493436,-27536,4672,-27389,5379,559,871,-182,-320,-133,-406,942,2915,51,53,849,1714,1827,2048,2198,2000,1760,1824,1968
494437,-27464,4776,-27324,5444,451,773,-8,-388,-114,-31,587,2896,43,52,849,1662,1771,1992,2105,2144,1885,1894,2059
495438,-27384,4864,-27259,5509,333,945,96,-421,-61,-58,487,2803,44,63,849,1662,1771,1992,2105,2144,1885,1894,2059
496439,-27304,4944,-27194,5574,315,1028,108,-382,10,-401,383,3052,49,63,850,1662,1771,1992,2105,2144,1885,1894,2059
497440,-27220,5044,-27129,5639,242,735,91,-282,78,-162,606,3270,46,61,850,1662,1771,1992,2105,2144,1885,1894,2059
498441,-27168,5132,-27064,5704,657,857,43,-215,136,29,831,2709,52,49,850,1662,1771,1992,2105,2144,1885,1894,2059
499442,-27088,5232,-26999,5769,289,664,29,-189,163,141,1292,2924,51,63,852,1597,1721,1957,2085,2081,1815,1835,1955
500443,-27008,5324,-26934,5834,271,732,7,-209,157,91,1462,2713,54,49,849,1597,1721,1957,2085,2081,1815,1835,1955
501444,-26956,5404,-26869,5899,637,864,-18,-254,118,56,1483,2904,48,62,852,1597,1721,1957,2085,2081,1815,1835,1955
502445,-26868,5492,-26804,5964,159,736,-61,-281,77,131,1603,2856,47,62,852,1597,1721,1957,2085,2081,1815,1835,1955
503446,-26796,5584,-26739,6029,350,653,-141,-269,61,253,1606,2823,39,59,849,1597,1721,1957,2085,2081,1815,1835,1955
504447,-26716,5676,-26674,6094,232,620,-240,-184,61,614,1601,2682,42,48,852,1597,1721,1957,2085,2081,1815,1835,1955
505448,-26652,5768,-26609,6159,433,587,-363,-108,66,888,1515,2372,53,57,852,1649,1756,1970,2131,1944,1707,1759,1866
506449,-26596,5844,-26544,6224,544,774,-481,-41,51,713,1379,2359,53,54,852,1649,1756,1970,2131,1944,1707,1759,1866
507450,-26504,5924,-26479,6289,61,706,-586,21,40,496,1296,2361,36,62,852,1649,1756,1970,2131,1944,1707,1759,1866
508451,-26420,6012,-26414,6354,138,578,-667,77,35,663,925,2364,39,50,850,1649,1756,1970,2131,1944,1707,1759,1866
509452,-26360,6080,-26349,6419,444,824,-726,116,41,599,474,2228,35,55,853,1649,1756,1970,2131,1944,1707,1759,1866
510453,-26280,6156,-26284,6484,176,711,-752,131,48,241,379,2414,51,52,853,1686,1782,1991,2133,1961,1734,1778,1916
511454,-26212,6244,-26219,6549,322,533,-749,173,72,43,214,2242,46,46,850,1686,1782,1991,2133,1961,1734,1778,1916
512455,-26132,6320,-26154,6614,154,669,-722,204,116,348,21,2187,36,52,852,1686,1782,1991,2133,1961,1734,1778,1916
513456,-26056,6416,-26089,6679,190,382,-680,241,171,527,-73,2128,55,48,852,1686,1782,1991,2133,1961,1734,1778,1916
514457,-25980,6496,-26024,6744,177,564,-646,273,234,104,-155,2003,38,46,851,1686,1782,1991,2133,1961,1734,1778,1916
515458,-25900,6592,-25959,6809,108,326,-587,345,312,101,292,2092,34,52,854,1686,1782,1991,2133,1961,1734,1778,1916
516459,-25824,6688,-25894,6874,145,289,-547,399,394,205,437,1965,47,44,853,1621,1734,1959,2083,2028,1783,1813,1937
517460,-25748,6772,-25829,6939,132,415,-519,420,441,237,329,1794,37,44,854,1621,1734,1959,2083,2028,1783,1813,1937
518461,-25680,6840,-25764,7004,228,612,-535,398,485,-54,548,1886,34,43,855,1621,1734,1959,2083,2028,1783,1813,1937
519462,-25624,6924,-25699,7069,389,389,-575,437,516,-223,951,2100,50,50,854,1621,1734,1959,2083,2028,1783,1813,1937
520463,-25548,7016,-25634,7134,126,256,-627,489,545,233,1129,1852,53,51,853,1621,1734,1959,2083,2028,1783,1813,1937
521464,-25464,7084,-25569,7199,2,552,-686,536,555,596,1166,2038,34,50,853,1609,1719,1923,2080,1979,1741,1788,1880
522465,-25408,7172,-25504,7264,363,274,-770,547,550,393,1161,1957,44,45,855,1609,1719,1923,2080,1979,1741,1788,1880
523466,-25344,7256,-25439,7329,265,301,-831,580,531,358,1274,1935,42,53,854,1609,1719,1923,2080,1979,1741,1788,1880
524467,-25284,7324,-25374,7394,321,497,-893,614,519,464,1162,2030,36,42,854,1609,1719,1923,2080,1979,1741,1788,1880
525468,-25204,7408,-25309,7459,51,274,-939,653,506,792,905,2133,35,47,854,1609,1719,1923,2080,1979,1741,1788,1880
526469,-25124,7480,-25244,7524,33,415,-973,689,508,895,616,2172,40,58,853,1609,1719,1923,2080,1979,1741,1788,1880
527470,-25044,7552,-25179,7589,15,407,-989,733,507,740,316,2392,40,53,855,1616,1711,1910,2071,1951,1722,1768,1882
528471,-24972,7644,-25114,7654,106,124,-980,769,504,700,67,2569,37,54,854,1616,1711,1910,2071,1951,1722,1768,1882
529472,-24908,7728,-25049,7719,207,201,-943,784,510,764,-208,2580,37,43,854,1616,1711,1910,2071,1951,1722,1768,1882
530473,-24844,7820,-24984,7784,209,68,-874,817,542,937,-240,2741,45,49,854,1616,1711,1910,2071,1951,1722,1768,1882
531474,-24756,7892,-24919,7849,-119,309,-813,834,570,971,-401,2459,51,49,854,1616,1711,1910,2071,1951,1722,1768,1882
532475,-24676,7976,-24854,7914,-38,136,-757,850,592,830,-602,2742,37,40,855,1624,1735,1956,2100,1972,1738,1782,1905
533476,-24588,8068,-24789,7979,-166,3,-724,848,609,660,-587,2567,42,51,851,1624,1735,1956,2100,1972,1738,1782,1905
534477,-24480,8156,-24724,8044,-468,25,-713,832,638,414,-387,2437,52,42,856,1624,1735,1956,2100,1972,1738,1782,1905
535478,-24416,8300,-24659,8109,83,-772,-725,805,676,439,-98,2435,50,42,849,1624,1735,1956,2100,1972,1738,1782,1905
536479,-24336,8428,-24594,8174,-135,-649,-759,756,738,179,158,2360,44,40,853,1624,1735,1956,2100,1972,1738,1782,1905
537480,-24244,8500,-24529,8239,-318,43,-791,753,800,310,571,2258,44,38,852,1624,1735,1956,2100,1972,1738,1782,1905
538481,-24208,8552,-24464,8304,417,309,-844,691,833,244,601,2492,28,43,847,1711,1841,2031,2201,1950,1723,1799,1906
539482,-24100,8600,-24399,8369,-536,380,-923,613,796,-221,373,2760,47,31,856,1711,1841,2031,2201,1950,1723,1799,1906
540483,-24040,8644,-24334,8434,70,455,-997,566,791,70,543,2886,36,37,854,1711,1841,2031,2201,1950,1723,1799,1906
541484,-23992,8696,-24269,8499,240,371,-1041,541,821,711,816,3309,45,42,855,1711,1841,2031,2201,1950,1723,1799,1906
542485,-23916,8756,-24204,8564,-123,276,-1051,561,849,1110,942,2947,33,29,854,1711,1841,2031,2201,1950,1723,1799,1906
543486,-23860,8816,-24139,8629,138,282,-1024,539,833,866,592,3197,31,37,854,1764,1884,2052,2220,1996,1762,1846,1968
544487,-23780,8880,-24074,8694,-180,233,-979,495,767,786,305,3557,44,41,851,1764,1884,2052,2220,1996,1762,1846,1968
545488,-23716,8936,-24009,8759,21,344,-915,448,739,552,78,3732,31,32,854,1764,1884,2052,2220,1996,1762,1846,1968
546489,-23664,8996,-23944,8824,187,301,-828,449,727,841,-28,3863,45,27,848,1764,1884,2052,2220,1996,1762,1846,1968
547490,-23600,9052,-23879,8889,38,362,-739,439,719,1097,-136,4138,39,31,854,1764,1884,2052,2220,1996,1762,1846,1968
548491,-23528,9116,-23814,8954,-72,263,-647,384,707,738,-152,4169,49,42,854,1764,1884,2052,2220,1996,1762,1846,1968
549492,-23456,9160,-23749,9019,-80,538,-564,297,693,536,-228,4265,32,33,855,1721,1841,2014,2161,2038,1792,1853,1977
550493,-23392,9212,-23684,9084,21,454,-482,200,678,614,-227,4319,36,41,854,1721,1841,2014,2161,2038,1792,1853,1977
551494,-23332,9288,-23619,9149,77,141,-411,107,647,559,-141,4395,32,44,852,1721,1841,2014,2161,2038,1792,1853,1977
552495,-23260,9356,-23554,9214,-81,237,-370,36,625,393,-130,4531,49,44,854,1721,1841,2014,2161,2038,1792,1853,1977
553496,-23196,9428,-23489,9279,20,179,-359,-9,632,505,9,4514,37,47,855,1721,1841,2014,2161,2038,1792,1853,1977
554497,-23136,9496,-23424,9344,76,225,-376,-66,652,458,145,4352,32,44,854,1763,1892,2094,2277,1999,1771,1845,1951
555498,-23060,9576,-23359,9409,-137,57,-406,-119,662,257,185,4357,43,52,856,1763,1892,2094,2277,1999,1771,1845,1951
556499,-23000,9648,-23294,9474,69,148,-444,-167,668,339,173,4494,42,45,855,1763,1892,2094,2277,1999,1771,1845,1951
557500,-22924,9724,-23229,9539,-146,84,-475,-205,676,470,73,4361,53,43,851,1763,1892,2094,2277,1999,1771,1845,1951
558501,-22840,9796,-23164,9604,-269,125,-500,-197,707,485,-44,4380,50,56,856,1763,1892,2094,2277,1999,1771,1845,1951
559502,-22784,9876,-23099,9669,92,7,-542,-157,734,627,111,4547,50,43,851,1763,1892,2094,2277,1999,1771,1845,1951
560503,-22696,9956,-23034,9734,-336,-11,-553,-139,755,335,-201,4353,38,45,856,1874,1997,2208,2368,2007,1796,1920,2048
561504,-22616,10048,-22969,9799,-254,-194,-540,-134,759,384,-366,4568,54,47,856,1874,1997,2208,2368,2007,1796,1920,2048
562505,-22552,10128,-22904,9864,-53,-63,-508,-145,753,370,-256,4648,44,49,856,1874,1997,2208,2368,2007,1796,1920,2048
563506,-22468,10208,-22839,9929,-326,-81,-454,-142,733,145,-529,4689,41,60,855,1874,1997,2208,2368,2007,1796,1920,2048
564507,-22400,10288,-22774,9994,-131,-99,-388,-155,708,171,-435,4767,54,44,854,1874,1997,2208,2368,2007,1796,1920,2048
565508,-22328,10380,-22709,10059,-190,-282,-314,-161,683,74,-618,4875,49,58,849,1856,1965,2162,2340,2089,1857,1911,2019
566509,-22244,10460,-22644,10124,-363,-151,-224,-160,650,165,-465,4893,38,55,856,1856,1965,2162,2340,2089,1857,1911,2019
567510,-22148,10560,-22579,10189,-551,-444,-146,-127,609,305,-462,4933,46,48,847,1856,1965,2162,2340,2089,1857,1911,2019
568511,-22072,10632,-22514,10254,-314,-103,-84,-122,563,315,-484,4841,43,58,856,1856,1965,2162,2340,2089,1857,1911,2019
569512,-21996,10728,-22449,10319,-327,-441,-57,-89,523,96,-336,4972,41,55,851,1856,1965,2162,2340,2089,1857,1911,2019
570513,-21916,10796,-22384,10384,-396,-94,-43,-43,487,232,-176,4959,54,45,856,1856,1965,2162,2340,2089,1857,1911,2019
571514,-21832,10888,-22319,10449,-470,-427,-65,32,455,162,-163,4938,41,47,854,1782,1882,2099,2299,2058,1826,1882,1964
572515,-21740,10956,-22254,10514,-603,-131,-106,106,424,222,-196,4873,55,41,856,1782,1882,2099,2299,2058,1826,1882,1964
573516,-21652,11040,-22189,10579,-581,-354,-152,149,413,237,-159,4663,49,38,852,1782,1882,2099,2299,2058,1826,1882,1964
574517,-21560,11104,-22124,10644,-664,-104,-198,193,415,-49,-336,4713,57,37,856,1782,1882,2099,2299,2058,1826,1882,1964
575518,-21476,11180,-22059,10709,-587,-267,-241,240,420,-91,-363,4531,56,41,855,1782,1882,2099,2299,2058,1826,1882,1964
576519,-21384,11240,-21994,10774,-721,-61,-275,311,430,-55,-428,4440,56,50,856,1770,1864,2062,2280,2031,1827,1873,1959
577520,-21260,11328,-21929,10839,-1193,-439,-306,357,456,31,-770,4261,47,51,854,1770,1864,2062,2280,2031,1827,1873,1959
578521,-21188,11416,-21864,10904,-552,-467,-327,408,487,-17,-968,4322,61,52,856,1770,1864,2062,2280,2031,1827,1873,1959
579522,-21096,11476,-21799,10969,-835,-112,-326,435,508,-157,-1107,4070,61,49,854,1770,1864,2062,2280,2031,1827,1873,1959
580523,-21016,11544,-21734,11034,-704,-216,-305,459,533,-336,-1223,3990,49,42,854,1770,1864,2062,2280,2031,1827,1873,1959
581524,-20924,11616,-21669,11099,-887,-275,-295,519,544,-282,-1134,4286,63,40,854,1770,1864,2062,2280,2031,1827,1873,1959
582525,-20800,11688,-21604,11164,-1359,-283,-268,583,537,-100,-1095,4319,63,44,854,1739,1837,2062,2250,2076,1861,1890,1993
583526,-20736,11768,-21539,11229,-609,-401,-262,590,525,-169,-1271,4038,61,53,855,1739,1837,2062,2250,2076,1861,1890,1993
584527,-20616,11824,-21474,11294,-1376,-91,-272,623,516,-222,-1330,4419,59,36,855,1739,1837,2062,2250,2076,1861,1890,1993
585528,-20528,11888,-21409,11359,-1004,-190,-290,647,497,-168,-1143,3788,47,41,854,1739,1837,2062,2250,2076,1861,1890,1993
586529,-20432,11956,-21344,11424,-1143,-244,-312,637,467,-282,-1061,3932,67,42,856,1739,1837,2062,2250,2076,1861,1890,1993
587530,-20320,12032,-21279,11489,-1400,-357,-358,603,440,-578,-972,3688,57,47,856,1722,1805,2047,2231,2082,1849,1894,1997
588531,-20232,12104,-21214,11554,-1128,-316,-414,599,404,-396,-912,3776,63,45,856,1722,1805,2047,2231,2082,1849,1894,1997
589532,-20144,12188,-21149,11619,-1157,-490,-491,577,359,-199,-620,3588,60,49,855,1722,1805,2047,2231,2082,1849,1894,1997
590533,-20032,12236,-21084,11684,-1515,-19,-570,549,298,-433,-425,3582,56,49,855,1722,1805,2047,2231,2082,1849,1894,1997
591534,-19936,12304,-21019,11749,-1353,-273,-627,496,256,-248,-659,3463,65,39,854,1722,1805,2047,2231,2082,1849,1894,1997
592535,-19820,12364,-20954,11814,-1666,-167,-660,437,214,81,-743,3444,69,48,856,1722,1805,2047,2231,2082,1849,1894,1997
593536,-19708,12444,-20889,11879,-1673,-436,-675,376,175,203,-682,3555,49,36,855,1735,1841,2031,2204,2072,1831,1897,2017
594537,-19592,12504,-20824,11944,-1786,-180,-674,314,135,-195,-825,3444,62,41,856,1735,1841,2031,2204,2072,1831,1897,2017
595538,-19488,12564,-20759,12009,-1684,-174,-662,297,142,-561,-1295,3691,63,33,854,1735,1841,2031,2204,2072,1831,1897,2017
596539,-19384,12628,-20694,12074,-1733,-223,-659,285,194,-329,-1513,3834,61,45,856,1735,1841,2031,2204,2072,1831,1897,2017
597540,-19292,12692,-20629,12139,-1616,-222,-658,246,259,-199,-1469,3618,68,48,856,1735,1841,2031,2204,2072,1831,1897,2017
598541,-19176,12748,-20564,12204,-1979,-112,-660,205,322,-461,-1602,3772,66,41,849,1706,1832,2009,2162,2043,1798,1873,1992
599542,-19092,12820,-20499,12269,-1602,-320,-680,184,369,-429,-1433,3576,64,48,855,1706,1832,2009,2162,2043,1798,1873,1992
600543,-18996,12880,-20434,12334,-1791,-164,-703,127,399,-310,-1425,3595,58,46,856,1706,1832,2009,2162,2043,1798,1873,1992
601544,-18892,12920,-20369,12399,-1938,117,-706,26,396,-313,-1288,3518,63,38,855,1706,1832,2009,2162,2043,1798,1873,1992
602545,-18788,13000,-20304,12464,-1987,-402,-746,-109,405,-979,-1510,3391,51,41,852,1706,1832,2009,2162,2043,1798,1873,1992
603546,-18696,13056,-20239,12529,-1871,-92,-793,-220,396,-740,-1343,3607,49,39,856,1706,1832,2009,2162,2043,1798,1873,1992
604547,-18596,13108,-20174,12594,-2014,-26,-827,-383,394,-712,-1314,3131,48,41,855,1724,1848,2028,2198,2007,1763,1854,1962
605548,-18492,13188,-20109,12659,-2112,-394,-833,-547,371,-722,-1274,3334,47,40,856,1724,1848,2028,2198,2007,1763,1854,1962
606549,-18416,13244,-20044,12724,-1776,-83,-864,-676,365,-952,-1736,3255,52,37,854,1724,1848,2028,2198,2007,1763,1854,1962
607550,-18320,13296,-19979,12789,-2065,-17,-882,-730,322,-290,-1262,3912,52,46,855,1724,1848,2028,2198,2007,1763,1854,1962
608551,-18220,13360,-19914,12854,-2158,-167,-917,-799,275,-158,-1031,3384,43,32,856,1724,1848,2028,2198,2007,1763,1854,1962
609552,-18132,13428,-19849,12919,-2036,-221,-955,-846,232,-195,-1555,3641,49,44,856,1764,1874,2040,2238,2020,1792,1872,1984
610553,-18064,13468,-19784,12984,-1791,160,-995,-829,185,209,-1219,4091,44,39,854,1764,1874,2040,2238,2020,1792,1872,1984
611554,-17968,13536,-19719,13049,-2180,-194,-1020,-843,148,246,-1079,3678,58,44,856,1764,1874,2040,2238,2020,1792,1872,1984
612555,-17888,13592,-19654,13114,-1998,-33,-1027,-897,112,5,-1110,3740,56,44,856,1764,1874,2040,2238,2020,1792,1872,1984
613556,-17792,13656,-19589,13179,-2237,-133,-1014,-934,125,-434,-1513,4088,42,49,856,1764,1874,2040,2238,2020,1792,1872,1984
614557,-17720,13720,-19524,13244,-1947,-132,-999,-978,163,-172,-1434,4022,41,35,856,1764,1874,2040,2238,2020,1792,1872,1984
615558,-17628,13776,-19459,13309,-2230,-21,-953,-1020,191,-460,-1442,4084,58,36,855,1771,1877,2063,2246,2068,1840,1911,2016
616559,-17544,13832,-19394,13374,-2154,-10,-919,-1046,217,-742,-1443,4084,54,47,855,1771,1877,2063,2246,2068,1840,1911,2016
617560,-17444,13908,-19329,13439,-2398,-273,-909,-1104,276,-696,-1732,3987,49,45,856,1771,1877,2063,2246,2068,1840,1911,2016
618561,-17384,13976,-19264,13504,-1891,-177,-918,-1164,323,-471,-1412,4064,55,45,856,1771,1877,2063,2246,2068,1840,1911,2016
619562,-17304,14016,-19199,13569,-2161,203,-928,-1209,364,-491,-1356,4012,42,34,855,1771,1877,2063,2246,2068,1840,1911,2016
620563,-17216,14084,-19134,13634,-2290,-151,-943,-1192,360,-260,-1138,4397,49,48,856,1761,1875,2071,2275,2068,1844,1904,1992
621564,-17132,14152,-19069,13699,-2264,-154,-960,-1142,384,-380,-1677,4576,51,36,856,1761,1875,2071,2275,2068,1844,1904,1992
622565,-17068,14220,-19004,13764,-2013,-158,-942,-994,389,253,-1672,5380,46,35,856,1761,1875,2071,2275,2068,1844,1904,1992
623566,-17008,14292,-18939,13829,-1958,-217,-892,-821,388,527,-1633,5640,34,31,856,1761,1875,2071,2275,2068,1844,1904,1992
624567,-16932,14372,-18874,13894,-2172,-336,-822,-650,355,424,-1679,5911,32,34,856,1761,1875,2071,2275,2068,1844,1904,1992
625568,-16868,14440,-18809,13959,-2022,-190,-741,-551,311,530,-1814,6130,45,33,856,1761,1875,2071,2275,2068,1844,1904,1992
626569,-16808,14476,-18744,14024,-1966,246,-681,-494,287,267,-1870,5971,29,33,855,1782,1883,2093,2322,2052,1840,1882,1955
627570,-16748,14548,-18679,14089,-1961,-213,-615,-447,241,276,-1599,5872,31,35,856,1782,1883,2093,2322,2052,1840,1882,1955
628571,-16692,14612,-18614,14154,-1901,-112,-598,-405,195,105,-1705,5651,39,32,856,1782,1883,2093,2322,2052,1840,1882,1955
629572,-16648,14672,-18549,14219,-1726,-55,-611,-389,163,-13,-1554,5222,37,44,856,1782,1883,2093,2322,2052,1840,1882,1955
630573,-16592,14736,-18484,14284,-1865,-105,-634,-357,135,225,-1467,5159,36,43,856,1782,1883,2093,2322,2052,1840,1882,1955
631574,-16544,14772,-18419,14349,-1745,280,-680,-325,130,110,-1653,4966,29,41,849,1878,1963,2199,2493,2039,1860,1918,1956
632575,-16500,14824,-18354,14414,-1671,96,-697,-265,117,279,-1511,5106,16,34,855,1878,1963,2199,2493,2039,1860,1918,1956
633576,-16464,14884,-18289,14479,-1535,2,-714,-219,115,425,-1651,5129,15,31,854,1878,1963,2199,2493,2039,1860,1918,1956
634577,-16420,14948,-18224,14544,-1611,-47,-691,-159,112,747,-1751,5238,15,35,856,1878,1963,2199,2493,2039,1860,1918,1956
635578,-16388,15024,-18159,14609,-1421,-210,-652,-61,125,1059,-1822,5265,14,34,850,1878,1963,2199,2493,2039,1860,1918,1956
636579,-16352,15092,-18094,14674,-1436,-115,-606,43,134,1232,-1857,5359,27,43,856,1878,1963,2199,2493,2039,1860,1918,1956
637580,-16320,15140,-18029,14739,-1347,156,-547,162,141,1189,-1913,5393,24,41,856,1943,2026,2244,2532,2081,1890,1950,2006
638581,-16300,15172,-17964,14804,-1143,396,-489,248,134,1290,-1971,5441,5,27,856,1943,2026,2244,2532,2081,1890,1950,2006
639582,-16288,15244,-17899,14869,-978,-112,-422,314,134,1245,-2064,5315,22,39,853,1943,2026,2244,2532,2081,1890,1950,2006
640583,-16272,15300,-17834,14934,-969,99,-353,363,128,1243,-1967,5387,8,26,855,1943,2026,2244,2532,2081,1890,1950,2006
641584,-16252,15336,-17769,14999,-965,384,-285,403,120,1172,-1987,5313,-1,26,856,1943,2026,2244,2532,2081,1890,1950,2006
642585,-16236,15416,-17704,15064,-855,-184,-225,424,96,1291,-1867,5351,13,38,856,1867,1963,2430,2394,2066,1841,1912,1981
643586,-16232,15452,-17639,15129,-632,400,-156,437,53,1296,-1815,5256,11,34,854,1867,1963,2430,2394,2066,1841,1912,1981
644587,-16232,15496,-17574,15194,-503,326,-102,438,10,1023,-1748,5277,-3,41,856,1867,1963,2430,2394,2066,1841,1912,1981
645588,-16220,15528,-17509,15259,-589,516,-54,443,-33,1170,-1619,4980,-6,39,855,1867,1963,2430,2394,2066,1841,1912,1981
646589,-16228,15580,-17444,15324,-250,282,-21,410,-72,1253,-1549,4834,-4,28,856,1867,1963,2430,2394,2066,1841,1912,1981
647590,-16236,15628,-17379,15389,-162,353,3,359,-119,1078,-1493,4663,-3,41,853,1867,1963,2430,2394,2066,1841,1912,1981
648591,-16232,15664,-17314,15454,-237,538,27,315,-168,960,-1478,4480,12,32,855,1795,1912,2084,2298,2001,1772,1860,1918
649592,-16228,15728,-17249,15519,-164,189,40,256,-204,956,-1469,4476,-8,30,853,1795,1912,2084,2298,2001,1772,1860,1918
650593,-16228,15788,-17184,15584,-34,245,61,213,-218,1159,-1475,4211,-7,43,850,1795,1912,2084,2298,2001,1772,1860,1918
651594,-16224,15836,-17119,15649,-10,416,75,198,-239,1408,-1458,4026,-5,31,856,1795,1912,2084,2298,2001,1772,1860,1918
652595,-16232,15908,-17054,15714,228,108,87,194,-267,1561,-1367,3983,-7,42,855,1795,1912,2084,2298,2001,1772,1860,1918
653596,-16232,15984,-16989,15779,207,43,96,195,-284,1339,-1378,3927,9,39,855,1795,1922,2085,2300,1965,1754,1851,1938
654597,-16220,16060,-16924,15844,122,30,109,171,-280,1349,-1432,3557,12,43,856,1795,1922,2085,2300,1965,1754,1851,1938
655598,-16224,16116,-16859,15909,405,291,128,139,-278,1364,-1479,3626,14,40,856,1795,1922,2085,2300,1965,1754,1851,1938
656599,-16216,16176,-16794,15974,325,247,156,113,-282,1304,-1412,3598,-5,31,854,1795,1922,2085,2300,1965,1754,1851,1938
657600,-16224,16228,-16729,16039,614,363,186,68,-285,1337,-1510,3342,7,38,854,1795,1922,2085,2300,1965,1754,1851,1938
658601,-16220,16284,-16664,16104,539,324,218,13,-286,1279,-1401,3358,2,36,852,1795,1922,2085,2300,1965,1754,1851,1938
659602,-16212,16348,-16599,16169,558,225,249,-79,-290,1164,-1390,3343,7,46,853,1802,1916,2097,2299,1998,1782,1856,1945
660603,-16188,16416,-16534,16234,407,171,277,-148,-295,1020,-1308,3279,6,44,853,1802,1916,2097,2299,1998,1782,1856,1945
661604,-16172,16476,-16469,16299,567,277,302,-211,-306,1151,-1187,3287,22,36,854,1802,1916,2097,2299,1998,1782,1856,1945
662607,-16160,16560,-16404,16364,682,-46,333,-235,-319,1136,-1132,3402,12,41,853,1802,1916,2097,2299,1998,1782,1856,1945
663606,-16144,16612,-16339,16429,691,370,361,-253,-327,1195,-983,3432,25,48,853,1802,1916,2097,2299,1998,1782,1856,1945
664607,-16112,16672,-16274,16494,532,276,396,-261,-338,1083,-883,3553,23,37,852,1769,1869,2065,2263,1999,1780,1842,1928
665608,-16084,16744,-16209,16559,627,118,423,-265,-353,1016,-823,3456,14,45,852,1769,1869,2065,2263,1999,1780,1842,1928
666609,-16056,16820,-16144,16624,672,53,456,-244,-374,1033,-685,3583,22,35,852,1769,1869,2065,2263,1999,1780,1842,1928
667610,-16004,16892,-16079,16689,388,95,478,-222,-379,1039,-558,3548,33,42,853,1769,1869,2065,2263,1999,1780,1842,1928
668611,-15980,16944,-16014,16754,788,361,497,-189,-385,866,-509,3593,33,43,855,1769,1869,2065,2263,1999,1780,1842,1928
669612,-15940,17004,-15949,16819,619,267,517,-140,-405,874,-368,3662,33,40,852,1734,1833,2028,2232,1979,1760,1842,1928
670613,-15892,17072,-15884,16884,539,163,529,-103,-398,696,-481,3566,25,44,853,1734,1833,2028,2232,1979,1760,1820,1899
671614,-15848,17144,-15819,16949,615,104,543,-65,-387,541,-307,3706,39,33,854,1734,1833,2028,2232,1979,1760,1820,1899
672615,-15796,17216,-15754,17014,531,96,555,-34,-372,596,-368,3471,42,47,854,1734,1833,2028,2232,1979,1760,1820,1899
673616,-15748,17268,-15689,17079,602,362,570,-4,-356,401,-254,3603,29,37,854,1734,1833,2028,2232,1979,1760,1820,1899
674617,-15700,17320,-15624,17144,622,378,588,24,-336,430,-289,3388,43,32,853,1734,1833,2028,2232,1979,1760,1820,1899
675618,-15624,17376,-15559,17209,259,339,607,60,-315,454,-273,3546,36,37,853,1738,1836,2045,2258,1983,1772,1824,1909
676619,-15564,17432,-15494,17274,465,350,633,110,-305,432,-335,3516,29,34,854,1738,1836,2045,2258,1983,1772,1824,1909
677620,-15504,17504,-15429,17339,471,141,667,148,-283,644,-364,3407,35,35,853,1738,1836,2045,2258,1983,1772,1824,1909
678621,-15448,17576,-15364,17404,532,133,694,200,-264,636,-340,3446,26,35,854,1738,1836,2045,2258,1983,1772,1824,1909
679622,-15416,17632,-15299,17469,872,344,729,262,-260,745,-297,3419,33,35,854,1738,1836,2045,2258,1983,1772,1824,1909
680623,-15356,17684,-15234,17534,528,408,753,322,-257,729,-202,3319,43,33,851,1760,1853,2078,2292,1994,1787,1828,1914
681624,-15284,17752,-15169,17599,370,205,768,373,-236,694,-279,3325,33,48,853,1760,1853,2078,2292,1994,1787,1828,1914
682625,-15236,17808,-15104,17664,691,366,797,430,-232,896,-213,3534,32,36,854,1760,1853,2078,2292,1994,1787,1828,1914
683626,-15164,17880,-15039,17729,382,157,831,490,-232,909,-72,3467,37,33,851,1760,1853,2078,2292,1994,1787,1828,1914
684627,-15116,17936,-14974,17794,703,368,855,544,-216,846,-90,3430,50,41,854,1760,1853,2078,2292,1994,1787,1828,1914
685628,-15040,18000,-14909,17859,339,269,889,575,-196,772,8,3527,34,36,852,1760,1853,2078,2292,1994,1787,1828,1914
686629,-14968,18056,-14844,17924,381,380,928,582,-188,630,105,3440,39,49,854,1782,1865,2091,2304,1987,1777,1822,1905
687630,-14908,18128,-14779,17989,537,172,954,600,-180,601,159,3607,38,36,854,1782,1865,2091,2304,1987,1777,1822,1905
688631,-14836,18188,-14714,18054,378,328,988,613,-177,600,286,3582,39,35,854,1782,1865,2091,2304,1987,1777,1822,1905
689632,-14776,18260,-14649,18119,535,169,1011,606,-145,391,127,3452,38,32,854,1782,1865,2091,2304,1987,1777,1822,1905
690633,-14700,18316,-14584,18184,321,380,1040,614,-128,595,353,3636,48,31,854,1782,1865,2091,2304,1987,1777,1822,1905
691634,-14624,18376,-14519,18249,308,336,1063,617,-114,534,477,3631,36,31,854,1773,1862,2073,2277,1967,1753,1811,1899
692635,-14564,18420,-14454,18314,515,562,1076,624,-93,367,407,3517,33,30,854,1773,1862,2073,2277,1967,1753,1811,1899
693636,-14496,18488,-14389,18379,411,258,1103,663,-77,580,461,3762,31,32,852,1773,1862,2073,2277,1967,1753,1811,1899
694637,-14420,18548,-14324,18444,298,365,1122,686,-57,531,289,3674,43,47,854,1773,1862,2073,2277,1967,1753,1811,1899
695638,-14364,18616,-14259,18509,559,261,1155,728,-39,727,462,3940,42,40,854,1773,1862,2073,2277,1967,1753,1811,1899
696639,-14264,18676,-14194,18574,-34,367,1193,764,-32,693,320,3672,39,43,853,1773,1862,2073,2277,1967,1753,1811,1899
697640,-14200,18732,-14129,18639,417,428,1224,774,-26,585,222,3711,53,44,855,1765,1869,2070,2258,1981,1758,1823,1929
698641,-14140,18792,-14064,18704,473,384,1259,770,-11,608,215,3691,46,37,853,1765,1869,2070,2258,1981,1758,1823,1929
699642,-14056,18864,-13999,18769,150,225,1289,773,-1,583,264,3735,50,34,853,1765,1869,2070,2258,1981,1758,1823,1929
700643,-14008,18908,-13934,18834,621,600,1320,775,3,636,187,3623,32,39,855,1765,1869,2070,2258,1981,1758,1823,1929
701644,-13936,18972,-13869,18899,312,351,1346,764,6,621,156,3641,39,27,851,1765,1869,2070,2258,1981,1758,1823,1929
702645,-13872,19028,-13804,18964,414,462,1366,754,10,707,268,3808,50,45,854,1775,1881,2093,2279,2003,1786,1844,1952
703646,-13804,19088,-13739,19029,360,418,1371,696,20,470,246,3502,42,40,853,1775,1881,2093,2279,2003,1786,1844,1952
704647,-13748,19156,-13540,19228,684,478,1373,660,20,307,229,3572,48,32,854,1775,1881,2093,2279,2003,1786,1844,1952
705648,-13692,19220,-13475,19293,695,530,1367,612,25,576,276,3543,44,35,851,1775,1881,2093,2279,2003,1786,1844,1952
706649,-13624,19276,-13410,19358,542,641,1359,538,30,554,267,3650,35,46,851,1775,1881,2093,2279,2003,1786,1844,1952
707650,-13548,19352,-13345,19423,428,377,1338,467,33,505,437,3776,47,48,851,1775,1881,2093,2279,2003,1786,1844,1952
708651,-13492,19396,-13280,19488,689,803,1318,406,36,573,569,3877,35,35,853,1788,1888,2108,2293,2038,1817,1867,1984
709652,-13412,19476,-13215,19553,371,334,1283,362,55,492,412,3955,49,34,850,1788,1888,2108,2293,2038,1817,1867,1984
710653,-13356,19564,-13150,19618,682,206,1259,361,45,860,533,4302,44,38,854,1788,1888,2108,2293,2038,1817,1867,1984
711654,-13288,19644,-13085,19683,528,289,1245,350,55,945,350,3974,36,44,853,1788,1888,2108,2293,2038,1817,1867,1984
712656,-13204,19712,-13020,19748,305,435,1237,347,67,995,369,4300,49,47,853,1788,1888,2108,2293,2038,1817,1867,1984
713656,-13140,19764,-12955,19813,557,651,1246,376,61,899,426,4350,37,48,853,1764,1871,2092,2254,2096,1856,1904,2038
714657,-13076,19832,-12890,19878,559,448,1240,371,74,679,102,4039,34,45,851,1764,1871,2092,2254,2096,1856,1904,2038
715658,-13016,19900,-12825,19943,615,444,1240,351,81,751,361,4224,50,50,852,1764,1871,2092,2254,2096,1856,1904,2038
716659,-12944,19968,-12760,20008,456,440,1230,311,96,433,401,4049,41,48,851,1764,1871,2092,2254,2096,1856,1904,2038
717660,-12872,20052,-12695,20073,448,217,1218,270,95,263,425,4158,39,48,852,1764,1871,2092,2254,2096,1856,1904,2038
718661,-12796,20096,-12630,20138,384,743,1190,232,81,194,580,4169,39,50,854,1764,1871,2092,2254,2096,1856,1904,2038
719662,-12736,20188,-12565,20203,590,110,1158,198,78,-29,479,4214,36,43,851,1727,1845,2070,2227,2133,1879,1919,2055
720663,-12644,20236,-12500,20268,157,681,1121,155,60,246,675,4160,52,37,853,1727,1845,2070,2227,2133,1879,1919,2055
721664,-12588,20304,-12435,20333,618,427,1084,86,43,70,608,4121,49,35,853,1727,1845,2070,2227,2133,1879,1919,2055
722665,-12512,20380,-12370,20398,355,313,1053,45,29,-25,571,4554,30,45,852,1727,1845,2070,2227,2133,1879,1919,2055
723666,-12448,20448,-12305,20463,506,410,1019,39,6,264,549,4415,50,42,854,1727,1845,2070,2227,2133,1879,1919,2055
724667,-12372,20512,-12240,20528,343,461,967,52,-15,429,590,4587,33,47,853,1728,1848,2080,2240,2129,1879,1915,2052
725668,-12308,20560,-12175,20593,494,682,913,90,-33,463,665,4472,39,37,853,1728,1848,2080,2240,2129,1879,1915,2052
726669,-12236,20616,-12110,20658,385,593,861,83,-48,363,618,4268,33,40,851,1728,1848,2080,2240,2129,1879,1915,2052
727670,-12188,20688,-12045,20723,706,384,801,78,-51,300,628,4380,47,43,852,1728,1848,2080,2240,2129,1879,1915,2052
728671,-12116,20768,-11980,20788,398,266,740,100,-66,498,602,4322,40,41,851,1728,1848,2080,2240,2129,1879,1915,2052
729672,-12048,20828,-11915,20853,444,522,687,125,-72,439,626,4345,33,46,854,1728,1848,2080,2240,2129,1879,1915,2052
730673,-11980,20904,-11850,20918,440,309,623,132,-79,340,707,4218,46,42,852,1747,1862,2103,2265,2141,1903,1924,2060
731674,-11936,20968,-11785,20983,767,460,572,133,-82,157,572,4312,31,43,854,1747,1862,2103,2265,2141,1903,1924,2060
732675,-11864,21020,-11720,21048,408,626,508,109,-86,116,621,4364,40,34,851,1747,1862,2103,2265,2141,1903,1924,2060
733676,-11788,21088,-11655,21113,345,422,475,117,-92,113,589,4423,33,36,851,1747,1862,2103,2265,2141,1903,1924,2060
734677,-11728,21164,-11590,21178,551,309,427,126,-95,233,670,4303,44,39,852,1747,1862,2103,2265,2141,1903,1924,2060
735678,-11680,21220,-11525,21243,722,570,391,123,-100,22,614,4284,37,38,853,1741,1847,2100,2262,2154,1920,1929,2061
736679,-11592,21292,-11460,21308,194,361,359,114,-98,-222,569,4355,47,39,851,1741,1847,2100,2262,2154,1920,1929,2061
737680,-11548,21352,-11395,21373,769,517,334,116,-105,-119,644,4252,37,44,854,1741,1847,2100,2262,2154,1920,1929,2061
738681,-11484,21400,-11330,21438,520,688,301,91,-116,-30,698,4262,33,37,851,1741,1847,2100,2262,2154,1920,1929,2061
739682,-11420,21448,-11265,21503,522,709,268,80,-136,-206,715,4144,36,37,851,1741,1847,2100,2262,2154,1920,1929,2061
740683,-11348,21516,-11200,21568,413,455,228,81,-150,-250,877,4210,35,44,851,1741,1847,2100,2262,2154,1920,1929,2061
741684,-11300,21580,-11135,21633,734,506,175,80,-176,-145,936,4015,32,33,853,1722,1827,2076,2241,2141,1897,1911,2035
742685,-11224,21628,-11070,21698,370,727,121,100,-212,-53,1003,4235,50,32,851,1722,1827,2076,2241,2141,1897,1911,2035
743686,-11152,21704,-11005,21763,412,364,84,152,-252,-68,985,4165,34,39,851,1722,1827,2076,2241,2141,1897,1911,2035
744687,-11084,21752,-10940,21828,458,734,51,201,-267,-6,890,4186,47,48,853,1722,1827,2076,2241,2141,1897,1911,2035
745688,-11020,21844,-10875,21893,510,151,19,261,-289,61,924,4197,47,36,851,1722,1827,2076,2241,2141,1897,1911,2035
746689,-10948,21892,-10810,21958,401,722,-27,303,-311,-50,918,4002,34,33,853,1722,1830,2063,2227,2096,1857,1885,2009
747690,-10884,21964,-10745,22023,502,414,-57,334,-338,-98,880,3941,45,43,851,1722,1830,2063,2227,2096,1857,1885,2009
748691,-10808,22036,-10680,22088,339,405,-92,337,-352,-61,874,3772,46,34,852,1722,1830,2063,2227,2096,1857,1885,2009
749692,-10752,22092,-10615,22153,600,616,-116,338,-359,-174,708,3800,37,39,854,1722,1830,2063,2227,2096,1857,1885,2009
750693,-10700,22168,-10550,22218,667,353,-129,351,-354,-229,546,3889,29,42,851,1722,1830,2063,2227,2096,1857,1885,2009
751694,-10636,22236,-10485,22283,518,449,-134,347,-356,-161,539,3834,43,45,851,1722,1830,2063,2227,2096,1857,1885,2009
752695,-10568,22280,-10420,22348,464,775,-135,345,-365,-136,522,3734,29,46,852,1726,1836,2070,2237,2059,1833,1857,1974
753696,-10512,22348,-10355,22413,625,471,-134,333,-365,-150,476,3645,30,45,851,1726,1836,2070,2237,2059,1833,1857,1974
754697,-10456,22420,-10290,22478,636,412,-130,320,-356,-202,484,3673,28,42,851,1726,1836,2070,2237,2059,1833,1857,1974
755698,-10380,22468,-10225,22543,373,733,-145,310,-352,-203,496,3685,35,47,852,1726,1836,2070,2237,2059,1833,1857,1974
756699,-10336,22540,-10160,22608,798,425,-175,310,-352,-49,663,3727,40,41,851,1726,1836,2070,2237,2059,1833,1857,1974
757700,-10248,22604,-10095,22673,220,526,-196,301,-352,-9,621,3422,33,40,851,1750,1853,2086,2270,2019,1806,1841,1945
758701,-10212,22680,-10030,22738,906,362,-192,279,-345,-66,684,3434,46,34,853,1750,1853,2086,2270,2019,1806,1841,1945
759702,-10156,22744,-9965,22803,667,514,-190,268,-343,-189,665,3423,29,31,851,1750,1853,2086,2270,2019,1806,1841,1945
760703,-10088,22796,-9900,22868,513,679,-190,267,-348,-17,772,3539,36,45,851,1750,1853,2086,2270,2019,1806,1841,1945
761704,-10040,22884,-9835,22933,784,201,-207,258,-348,167,848,3517,30,33,851,1750,1853,2086,2270,2019,1806,1841,1945
762705,-9984,22940,-9770,22998,695,612,-218,252,-363,87,887,3450,33,35,852,1750,1853,2086,2270,2019,1806,1841,1945
763706,-9928,23012,-9705,23063,706,404,-203,235,-389,-84,803,3578,46,44,851,1767,1858,2079,2268,2001,1783,1831,1935
764707,-9864,23068,-9640,23128,607,615,-178,219,-405,-8,810,3565,31,34,852,1767,1858,2079,2268,2001,1783,1831,1935
765708,-9804,23140,-9575,23193,664,406,-153,211,-403,-1,754,3637,35,45,851,1767,1858,2079,2268,2001,1783,1831,1935
766709,-9736,23188,-9510,23258,560,727,-125,234,-409,125,738,3694,44,45,852,1767,1858,2079,2268,2001,1783,1831,1935
767710,-9684,23264,-9445,23323,776,364,-93,248,-408,-53,660,3756,38,45,851,1767,1858,2079,2268,2001,1783,1831,1935
768711,-9624,23324,-9380,23388,682,570,-46,259,-395,-177,564,3665,47,37,851,1765,1862,2078,2261,2001,1780,1830,1937
769712,-9564,23376,-9315,23453,688,685,3,261,-380,-249,567,3637,36,32,851,1765,1862,2078,2261,2001,1780,1830,1937
770713,-9512,23440,-9250,23518,804,537,49,241,-368,-284,586,3593,41,31,850,1765,1862,2078,2261,2001,1780,1830,1937
771714,-9444,23488,-9185,23583,601,757,65,226,-346,-429,557,3692,36,44,850,1765,1862,2078,2261,2001,1780,1830,1937
772715,-9384,23548,-9120,23648,707,614,94,234,-329,-409,509,3649,35,44,851,1765,1862,2078,2261,2001,1780,1830,1937
773716,-9340,23612,-9055,23713,932,565,121,231,-308,-253,480,3517,44,31,850,1765,1862,2078,2261,2001,1780,1830,1937
774717,-9276,23668,-8990,23778,684,676,154,216,-278,-239,488,3557,33,42,849,1775,1879,2098,2292,1986,1772,1824,1921
775718,-9216,23696,-8925,23843,740,1072,167,215,-245,-215,598,3589,35,41,851,1775,1879,2098,2292,1986,1772,1824,1921
776719,-9156,23772,-8860,23908,747,459,182,210,-227,-86,643,3702,28,32,847,1775,1879,2098,2292,1986,1772,1824,1921
777720,-9112,23820,-8795,23973,972,829,185,193,-207,-133,689,3648,31,38,851,1775,1879,2098,2292,1986,1772,1824,1921
778721,-9040,23880,-8730,24038,614,685,207,183,-193,-84,615,3528,42,30,847,1775,1879,2098,2292,1986,1772,1824,1921
779722,-8996,23948,-8665,24103,990,582,213,173,-186,183,605,3597,31,47,851,1808,1899,2119,2320,1978,1773,1824,1921
780723,-8944,24004,-8600,24168,905,743,226,151,-190,148,601,3627,36,30,849,1808,1899,2119,2320,1978,1773,1824,1921
781724,-8884,24072,-8535,24233,812,589,242,126,-199,107,553,3749,31,33,849,1808,1899,2119,2320,1978,1773,1824,1921
782725,-8824,24108,-8470,24298,818,1024,264,136,-199,120,517,3769,43,32,850,1808,1899,2119,2320,1978,1773,1824,1921
783726,-8768,24172,-8405,24363,879,676,294,153,-194,370,648,3855,30,39,847,1808,1899,2119,2320,1978,1773,1824,1921
784727,-8712,24240,-8340,24428,891,622,324,191,-187,368,604,3842,34,45,849,1808,1899,2119,2320,1978,1773,1824,1921
785728,-8648,24292,-8275,24493,792,838,356,206,-172,309,550,3841,44,41,848,1802,1886,2110,2304,2004,1795,1840,1942
786729,-8596,24372,-8210,24558,958,470,384,230,-155,225,473,4018,38,35,849,1802,1886,2110,2304,2004,1795,1840,1942
787730,-8548,24416,-8145,24623,1028,945,404,228,-135,-4,514,3886,35,33,849,1802,1886,2110,2304,2004,1795,1840,1942
788731,-8472,24468,-8080,24688,665,861,427,240,-120,-112,521,4104,37,30,847,1802,1886,2110,2304,2004,1795,1840,1942
789732,-8420,24524,-8015,24753,981,822,443,241,-101,-127,542,3931,34,32,850,1802,1886,2110,2304,2004,1795,1840,1942
790733,-8360,24580,-7950,24818,887,834,462,223,-89,-78,611,4098,35,42,848,1777,1869,2095,2287,2033,1818,1860,1964
791734,-8308,24644,-7885,24883,1004,735,479,227,-69,-274,454,4048,35,47,848,1777,1869,2095,2287,2033,1818,1860,1964
792735,-8236,24700,-7820,24948,745,846,514,225,-41,-151,517,4156,49,43,848,1777,1869,2095,2287,2033,1818,1860,1964
793736,-8188,24768,-7755,25013,1066,693,537,204,-8,-239,488,4126,36,30,849,1777,1869,2095,2287,2033,1818,1860,1964
794737,-8120,24808,-7690,25078,812,1073,568,208,10,-121,574,4207,35,38,847,1777,1869,2095,2287,2033,1818,1860,1964
795738,-8068,24856,-7625,25143,1028,994,566,211,31,64,662,4071,47,43,847,1777,1869,2095,2287,2033,1818,1860,1964
796739,-8024,24912,-7560,25208,1154,905,573,222,49,24,679,4150,37,29,846,1778,1878,2108,2303,2052,1831,1872,1977
797740,-7964,24980,-7495,25273,961,751,573,221,64,67,661,4065,30,36,846,1778,1878,2108,2303,2052,1831,1872,1977
798741,-7920,25024,-7430,25338,1187,1077,583,246,79,35,553,4251,45,33,848,1778,1878,2108,2303,2052,1831,1872,1977
799742,-7856,25092,-7365,25403,938,773,579,279,92,369,399,4078,35,33,845,1778,1878,2108,2303,2052,1831,1872,1977
800743,-7784,25144,-7300,25468,829,990,588,304,104,542,409,4086,37,37,848,1778,1878,2108,2303,2052,1831,1872,1977
801744,-7732,25208,-7235,25533,1095,841,588,327,119,443,439,4087,47,44,847,1801,1898,2130,2322,2055,1833,1874,1982
802745,-7672,25256,-7170,25598,1001,1062,597,361,132,440,416,4232,40,39,846,1801,1898,2130,2322,2055,1833,1874,1982
803746,-7608,25292,-7105,25663,954,1247,599,397,141,293,524,4350,31,41,846,1801,1898,2130,2322,2055,1833,1874,1982
804747,-7560,25348,-7040,25728,1174,1008,598,422,150,306,460,4270,33,31,845,1801,1898,2130,2322,2055,1833,1874,1982
805748,-7512,25420,-6975,25793,1195,800,600,410,165,288,437,4205,35,40,845,1801,1898,2130,2322,2055,1833,1874,1982
806749,-7448,25476,-6910,25858,996,1011,614,377,174,227,336,4163,42,32,846,1801,1898,2130,2322,2055,1833,1874,1982
807750,-7396,25528,-6845,25923,1162,1077,624,352,201,178,180,4152,33,35,846,1803,1895,2130,2321,2052,1832,1869,1973
808751,-7332,25584,-6780,25988,1014,1039,645,339,224,502,496,4342,38,27,845,1803,1895,2130,2321,2052,1832,1869,1973
809752,-7284,25608,-6715,26053,1235,1489,649,311,278,60,500,4201,52,40,846,1803,1895,2130,2321,2052,1832,1869,1973
810753,-7228,25660,-6650,26118,1146,1155,646,293,323,-141,627,4384,34,33,842,1803,1895,2130,2321,2052,1832,1869,1973
811754,-7164,25736,-6585,26183,1047,841,634,306,347,123,788,4386,45,39,845,1803,1895,2130,2321,2052,1832,1869,1973
812755,-7112,25816,-6520,26248,1214,773,627,319,367,179,506,4195,52,46,847,1788,1884,2114,2307,2055,1831,1874,1983
813756,-7032,25880,-6455,26313,846,974,609,355,370,521,515,4391,39,50,846,1788,1884,2114,2307,2055,1831,1874,1983
814757,-6988,25952,-6390,26378,1321,867,607,353,370,521,602,4013,42,51,847,1788,1884,2114,2307,2055,1831,1874,1983
815758,-6920,26020,-6325,26443,1018,913,597,356,382,301,458,4182,35,37,845,1788,1884,2114,2307,2055,1831,1874,1983
816759,-6852,26092,-6260,26508,1014,854,606,395,394,256,571,4328,52,47,847,1788,1884,2114,2307,2055,1831,1874,1983
817760,-6784,26152,-6195,26573,1011,1010,597,416,389,421,632,4330,36,42,847,1788,1884,2114,2307,2055,1831,1874,1983
818761,-6740,26248,-6130,26638,1337,523,599,464,388,314,442,4399,35,55,846,1780,1880,2109,2293,2077,1849,1889,2003
819762,-6676,26320,-6065,26703,1088,814,588,458,388,461,601,4436,38,50,846,1780,1880,2109,2293,2077,1849,1889,2003
820763,-6620,26384,-6000,26768,1199,915,598,475,383,304,424,4409,34,49,847,1780,1880,2109,2293,2077,1849,1889,2003
821764,-6572,26468,-5935,26833,1321,643,596,438,397,156,503,4270,49,49,845,1780,1880,2109,2293,2077,1849,1889,2003
822765,-6508,26548,-5870,26898,1122,675,606,427,381,141,655,4584,31,40,846,1780,1880,2109,2293,2077,1849,1889,2003
823766,-6456,26612,-5805,26963,1288,876,582,423,378,-21,266,4368,41,41,847,1767,1874,2113,2295,2095,1868,1900,2014
824767,-6388,26676,-5740,27028,1085,877,575,446,387,414,560,4476,31,50,845,1767,1874,2113,2295,2095,1868,1900,2014
825768,-6344,26732,-5675,27093,1411,988,556,437,401,312,370,4188,45,38,846,1767,1874,2113,2295,2095,1868,1900,2014
826769,-6288,26804,-5610,27158,1272,780,554,431,417,195,402,4551,39,42,844,1767,1874,2113,2295,2095,1868,1900,2014
827770,-6220,26864,-5545,27223,1118,936,543,398,431,261,384,4176,42,55,846,1767,1874,2113,2295,2095,1868,1900,2014
828771,-6156,26928,-5480,27288,1170,888,535,374,429,93,464,4348,46,51,846,1767,1874,2113,2295,2095,1868,1900,2014
829772,-6112,27000,-5415,27353,1446,779,519,382,432,126,399,4209,48,48,846,1779,1885,2129,2316,2093,1872,1902,2014
830773,-6068,27068,-5350,27418,1472,826,495,365,445,376,431,4127,45,50,844,1779,1885,2129,2316,2093,1872,1902,2014
831774,-5992,27112,-5285,27483,1059,1151,467,360,450,241,621,4166,33,49,843,1779,1885,2129,2316,2093,1872,1902,2014
832775,-5932,27188,-5220,27548,1265,738,450,350,444,189,750,4106,47,46,845,1779,1885,2129,2316,2093,1872,1902,2014
833776,-5860,27252,-5155,27613,1107,889,422,337,412,274,754,4148,42,40,846,1779,1885,2129,2316,2093,1872,1902,2014
834777,-5816,27332,-5090,27678,1483,671,401,329,378,322,682,4146,47,48,846,1791,1892,2128,2312,2084,1864,1898,2008
835778,-5752,27376,-5025,27743,1234,1147,392,325,371,412,642,4207,49,37,844,1791,1892,2128,2312,2084,1864,1898,2008
836779,-5704,27444,-4960,27808,1455,844,393,337,365,447,662,4337,49,38,842,1791,1892,2128,2312,2084,1864,1898,2008
837780,-5632,27492,-4895,27873,1147,1115,398,358,355,344,573,4367,42,47,844,1791,1892,2128,2312,2084,1864,1898,2008
838781,-5572,27556,-4830,27938,1303,916,413,399,352,355,715,4563,43,45,844,1791,1892,2128,2312,2084,1864,1898,2008
839782,-5516,27608,-4765,28003,1364,1082,418,396,353,300,576,4168,32,43,844,1791,1892,2128,2312,2084,1864,1898,2008
840783,-5460,27668,-4700,28068,1376,988,421,375,360,203,589,4439,38,32,843,1767,1871,2101,2276,2065,1837,1877,1991
841784,-5380,27724,-4635,28133,1058,1049,428,340,379,-71,612,3984,50,42,844,1767,1871,2101,2276,2065,1837,1877,1991
842785,-5332,27788,-4570,28198,1479,951,435,335,392,7,608,4277,41,49,845,1767,1871,2101,2276,2065,1837,1877,1991
843786,-5268,27868,-4505,28263,1280,733,448,327,407,158,575,4175,32,50,843,1767,1871,2101,2276,2065,1837,1877,1991
844787,-5220,27920,-4440,28328,1502,1099,452,329,426,212,668,4171,39,53,846,1767,1871,2101,2276,2065,1837,1877,1991
845788,-5148,27968,-4375,28393,1193,1169,464,332,424,70,726,3976,40,50,842,1764,1868,2104,2289,2048,1825,1863,1967
846789,-5104,28072,-4310,28458,1569,422,463,321,419,57,626,3887,43,39,843,1764,1868,2104,2289,2048,1825,1863,1967
847790,-5048,28136,-4245,28523,1431,923,458,329,408,184,776,3872,49,39,844,1764,1868,2104,2289,2048,1825,1863,1967
848791,-4976,28196,-4180,28588,1222,979,447,327,387,341,758,3656,33,47,843,1764,1868,2104,2289,2048,1825,1863,1967
849792,-4920,28260,-4115,28653,1433,931,435,317,373,161,737,3878,36,41,845,1764,1868,2104,2289,2048,1825,1863,1967
850793,-4860,28336,-4050,28718,1389,768,432,325,350,73,969,3732,53,51,844,1764,1868,2104,2289,2048,1825,1863,1967
851794,-4792,28416,-3985,28783,1287,699,432,343,321,199,905,3857,39,51,845,1795,1891,2126,2324,2026,1814,1854,1953
852795,-4728,28488,-3920,28848,1338,791,423,347,315,202,673,3900,38,55,846,1795,1891,2126,2324,2026,1814,1854,1953
853796,-4660,28572,-3855,28913,1284,618,419,357,288,246,798,3985,46,49,844,1795,1891,2126,2324,2026,1814,1854,1953
854797,-4604,28636,-3790,28978,1446,869,424,378,277,147,686,3825,45,56,846,1795,1891,2126,2324,2026,1814,1854,1953
855798,-4552,28708,-3725,29043,1512,760,429,355,288,200,773,3963,52,49,844,1795,1891,2126,2324,2026,1814,1854,1953
856799,-4488,28772,-3660,29108,1363,862,448,354,297,92,748,3610,37,44,843,1789,1882,2117,2309,2022,1816,1852,1952
857800,-4404,28856,-3595,29173,1091,589,451,337,294,94,858,4056,50,53,844,1789,1882,2117,2309,2022,1816,1852,1952
858801,-4352,28916,-3530,29238,1507,896,465,365,301,-55,796,4056,44,43,847,1789,1882,2117,2309,2022,1816,1852,1952
859802,-4288,28972,-3465,29303,1358,957,471,371,316,113,627,3859,46,43,843,1789,1882,2117,2309,2022,1816,1852,1952
860803,-4208,29044,-3400,29368,1141,748,495,371,331,233,774,3913,42,40,844,1789,1882,2117,2309,2022,1816,1852,1952
861804,-4136,29124,-3335,29433,1232,630,509,346,345,116,761,3784,53,45,846,1789,1882,2117,2309,2022,1816,1852,1952
862805,-4080,29180,-3270,29498,1443,941,528,354,338,99,920,4002,41,36,846,1763,1860,2096,2282,2029,1815,1851,1959
863806,-4016,29248,-3205,29563,1344,787,540,362,334,106,878,3733,48,39,843,1763,1860,2096,2282,2029,1815,1851,1959
864807,-3952,29312,-3140,29628,1347,838,531,380,320,155,900,3844,33,53,844,1763,1860,2096,2282,2029,1815,1851,1959
865808,-3896,29376,-3075,29693,1458,840,527,408,303,187,1019,3690,42,40,845,1763,1860,2096,2282,2029,1815,1851,1959
866809,-3836,29424,-3010,29758,1414,1061,532,394,279,96,1136,3746,36,42,844,1763,1860,2096,2282,2029,1815,1851,1959
867810,-3768,29484,-2945,29823,1311,917,543,401,244,137,1075,3755,53,42,843,1758,1859,2094,2279,2035,1819,1856,1963
868811,-3708,29556,-2880,29888,1417,759,543,415,200,325,1105,3697,40,41,844,1758,1859,2094,2279,2035,1819,1856,1963
869812,-3656,29632,-2815,29953,1533,695,545,424,169,213,998,3762,35,47,844,1758,1859,2094,2279,2035,1819,1856,1963
870813,-3600,29704,-2750,30018,1495,737,544,430,140,95,1007,3555,35,53,843,1758,1859,2094,2279,2035,1819,1856,1963
871814,-3524,29748,-2685,30083,1232,1112,538,436,119,73,907,3559,37,43,844,1758,1859,2094,2279,2035,1819,1856,1963
872815,-3476,29804,-2620,30148,1602,973,534,401,100,31,1126,3616,49,38,843,1758,1859,2094,2279,2035,1819,1856,1963
873816,-3424,29868,-2555,30213,1569,876,533,400,102,-132,1048,3644,33,45,841,1769,1869,2107,2291,2035,1821,1855,1964
874817,-3376,29948,-2490,30278,1640,657,526,387,104,121,894,3455,30,54,842,1769,1869,2107,2291,2035,1821,1855,1964
875818,-3308,30004,-2425,30343,1386,968,510,387,104,241,813,3482,32,42,843,1769,1869,2107,2291,2035,1821,1855,1964
876819,-3260,30052,-2360,30408,1658,1089,505,368,109,179,989,3635,50,41,843,1769,1869,2107,2291,2035,1821,1855,1964
877820,-3196,30120,-2295,30473,1459,835,503,368,111,137,1081,3548,35,45,840,1769,1869,2107,2291,2035,1821,1855,1964
878821,-3128,30184,-2230,30538,1406,887,503,391,94,261,1042,3725,36,44,844,1764,1865,2104,2284,2030,1818,1848,1952
879822,-3064,30244,-2165,30603,1458,943,493,427,86,503,1006,3761,39,49,843,1764,1865,2104,2284,2030,1818,1848,1952
880823,-3008,30320,-2100,30668,1569,729,485,466,73,503,1150,3715,45,40,843,1764,1865,2104,2284,2030,1818,1848,1952
881824,-2936,30380,-2035,30733,1360,936,471,480,63,246,1154,3726,44,44,843,1764,1865,2104,2284,2030,1818,1848,1952
882825,-2876,30440,-1970,30798,1517,943,459,473,56,224,1052,3703,39,56,844,1764,1865,2104,2284,2030,1818,1848,1952
883826,-2812,30520,-1905,30863,1469,674,440,450,49,382,1185,3760,56,48,842,1764,1865,2104,2284,2030,1818,1848,1952
884827,-2756,30600,-1840,30928,1580,656,419,432,40,89,1053,3587,57,58,844,1751,1848,2088,2268,2033,1824,1852,1960
885828,-2652,30668,-1775,30993,933,802,416,422,24,15,1118,3614,48,50,844,1751,1848,2088,2268,2033,1824,1852,1960
886829,-2588,30740,-1710,31058,1434,744,406,431,12,233,1132,3753,41,52,847,1751,1848,2088,2268,2033,1824,1852,1960
887832,-2520,30828,-1645,31123,1381,516,402,456,4,491,1085,3751,46,52,844,1751,1848,2088,2268,2033,1824,1852,1960
888831,-2464,30896,-1580,31188,1543,762,394,460,-4,413,1219,3766,52,56,846,1751,1848,2088,2268,2033,1824,1852,1960
889832,-2396,30948,-1515,31253,1389,979,382,486,-24,151,1086,3821,34,44,843,1734,1833,2080,2256,2059,1841,1866,1980
890833,-2344,31036,-1450,31318,1605,501,367,478,-52,151,1250,3741,34,58,843,1734,1833,2080,2256,2059,1841,1866,1980
891834,-2280,31104,-1385,31383,1457,747,352,463,-82,152,1188,3555,35,56,844,1734,1833,2080,2256,2059,1841,1866,1980
892835,-2216,31164,-1320,31448,1458,853,327,452,-105,222,1170,3838,53,48,844,1734,1833,2080,2256,2059,1841,1866,1980
893836,-2164,31256,-1255,31513,1624,420,301,439,-122,156,1266,3621,52,45,843,1734,1833,2080,2256,2059,1841,1866,1980
894837,-2108,31316,-1190,31578,1586,826,285,443,-158,171,1305,3666,44,48,844,1741,1845,2095,2272,2079,1858,1880,2000
895838,-2036,31388,-1125,31643,1378,668,257,451,-169,120,1178,3750,48,54,842,1741,1845,2095,2272,2079,1858,1880,2000
896839,-1992,31460,-1060,31708,1753,659,231,453,-171,356,1208,3679,35,53,845,1741,1845,2095,2272,2079,1858,1880,2000
897840,-1944,31532,-995,31773,1725,651,209,451,-175,264,1252,3857,36,42,842,1741,1845,2095,2272,2079,1858,1880,2000
898841,-1864,31600,-930,31838,1307,697,183,455,-178,291,1288,3825,33,42,842,1741,1845,2095,2272,2079,1858,1880,2000
899842,-1804,31656,-865,31903,1563,859,163,455,-192,383,1300,3748,34,50,845,1741,1845,2095,2272,2079,1858,1880,2000
900843,-1752,31704,-800,31968,1680,980,140,461,-199,375,1323,3919,44,38,842,1748,1855,2104,2275,2080,1857,1880,2003
901844,-1680,31768,-735,32033,1421,781,110,452,-195,298,1116,3852,43,53,841,1748,1855,2104,2275,2080,1857,1880,2003
902845,-1628,31824,-670,32098,1688,892,92,472,-197,377,1105,3953,43,44,844,1748,1855,2104,2275,2080,1857,1880,2003
903846,-1564,31900,-605,32163,1539,629,62,477,-203,446,1190,3930,45,49,841,1748,1855,2104,2275,2080,1857,1880,2003
904847,-1496,31960,-540,32228,1485,835,36,468,-229,312,1333,3942,43,48,843,1748,1855,2104,2275,2080,1857,1880,2003
905848,-1432,32028,-475,32293,1538,731,9,473,-259,250,1238,3835,47,40,843,1748,1853,2104,2268,2080,1858,1878,2001
906849,-1344,32076,-410,32358,1210,1002,-12,459,-275,335,1284,4093,41,38,843,1748,1853,2104,2268,2080,1858,1878,2001
907850,-1296,32164,-345,32423,1730,474,-36,464,-286,165,1230,3940,36,48,844,1748,1853,2104,2268,2080,1858,1878,2001
908851,-1236,32224,-280,32488,1587,830,-57,456,-311,278,1374,3961,41,41,843,1748,1853,2104,2268,2080,1858,1878,2001
909852,-1180,32300,-215,32553,1648,617,-85,457,-329,329,1381,3991,37,45,842,1748,1853,2104,2268,2080,1858,1878,2001
910853,-1128,32344,-150,32618,1714,1043,-117,437,-357,321,1496,3979,40,44,843,1748,1853,2104,2268,2080,1858,1878,2001
911854,-1052,32412,-85,32683,1402,739,-157,415,-389,120,1482,3875,51,48,839,1743,1846,2099,2271,2087,1865,1885,2005
912855,-988,32476,-20,32748,1553,791,-177,394,-415,12,1479,3796,48,41,844,1743,1846,2099,2271,2087,1865,1885,2005
913856,-940,32540,45,32813,1775,792,-203,377,-428,126,1460,3818,39,47,843,1743,1846,2099,2271,2087,1865,1885,2005
914857,-872,32608,110,32878,1521,738,-224,378,-448,246,1479,3890,33,42,841,1743,1846,2099,2271,2087,1865,1885,2005
915858,-804,32668,175,32943,1518,844,-232,393,-464,306,1547,3857,51,45,843,1743,1846,2099,2271,2087,1865,1885,2005
916859,-748,32732,240,33008,1680,795,-238,412,-480,358,1523,3962,43,55,843,1744,1848,2104,2276,2096,1872,1889,2011
917860,-672,32808,305,33073,1416,632,-248,448,-482,256,1319,4003,43,45,842,1744,1848,2104,2276,2096,1872,1889,2011
918861,-620,32884,370,33138,1732,619,-262,469,-497,293,1434,3973,54,47,845,1744,1848,2104,2276,2096,1872,1889,2011
919862,-540,32944,435,33203,1365,826,-268,494,-520,306,1460,4017,42,53,842,1744,1848,2104,2276,2096,1872,1889,2011
920863,-480,33004,500,33268,1621,832,-275,504,-516,391,1481,4001,40,52,844,1744,1848,2104,2276,2096,1872,1889,2011
921864,-412,33068,565,33333,1518,783,-272,502,-530,384,1582,3772,54,39,841,1744,1848,2104,2276,2096,1872,1889,2011
922865,-328,33120,630,33398,1295,949,-285,498,-550,107,1525,3949,38,45,843,1745,1855,2110,2283,2076,1851,1867,1984
923866,-276,33188,695,33463,1711,745,-289,521,-557,130,1439,4030,54,46,844,1745,1855,2110,2283,2076,1851,1867,1984
924867,-208,33276,760,33528,1508,467,-321,532,-565,367,1555,3919,40,53,842,1745,1855,2110,2283,2076,1851,1867,1984
925868,-128,33348,825,33593,1340,659,-346,536,-584,283,1583,3859,47,59,845,1745,1855,2110,2283,2076,1851,1867,1984
926869,-68,33392,890,33658,1596,1034,-371,527,-606,56,1649,3851,42,41,845,1745,1855,2110,2283,2076,1851,1867,1984
927870,4,33468,955,33723,1438,621,-402,529,-625,17,1506,3987,54,43,841,1762,1864,2116,2296,2043,1830,1851,1963
928871,80,33572,1020,33788,1375,223,-446,561,-648,445,1386,3968,49,50,844,1762,1864,2116,2296,2043,1830,1851,1963
929872,148,33624,1085,33853,1471,889,-472,588,-693,554,1851,3924,45,50,847,1762,1864,2116,2296,2043,1830,1851,1963
930873,224,33708,1150,33918,1359,467,-467,581,-720,65,1759,3758,40,56,843,1762,1864,2116,2296,2043,1830,1851,1963
931874,284,33760,1215,33983,1565,883,-468,582,-719,-188,1468,3929,37,43,846,1762,1864,2116,2296,2043,1830,1851,1963
932875,352,33840,1280,34048,1461,514,-481,628,-728,313,1482,4248,40,45,843,1762,1864,2116,2296,2043,1830,1851,1963
933876,428,33904,1345,34113,1349,716,-485,679,-748,601,1575,3995,50,58,845,1765,1861,2117,2294,2051,1839,1860,1977
934877,480,33972,1410,34178,1665,662,-483,689,-776,290,1680,3622,54,50,845,1765,1861,2117,2294,2051,1839,1860,1977
935878,564,34060,1475,34243,1243,384,-484,654,-793,-133,1548,3747,45,42,843,1765,1861,2117,2294,2051,1839,1860,1977
936879,628,34124,1540,34308,1494,685,-484,645,-815,-107,1402,3820,54,46,847,1765,1861,2117,2294,2051,1839,1860,1977
937881,688,34180,1605,34373,1550,796,-490,691,-827,467,1472,3798,50,53,844,1765,1861,2117,2294,2051,1839,1860,1977
938881,756,34244,1670,34438,1447,697,-496,727,-833,596,1539,3911,55,42,842,1754,1853,2112,2284,2070,1852,1871,1989
939882,828,34316,1735,34503,1389,589,-513,713,-859,82,1678,3742,39,47,844,1754,1853,2112,2284,2070,1852,1871,1989
940883,904,34388,1800,34568,1325,580,-503,679,-877,-229,1755,3545,42,45,846,1754,1853,2112,2284,2070,1852,1871,1989
941884,956,34460,1865,34633,1642,572,-501,661,-865,-27,1618,3613,53,57,846,1754,1853,2112,2284,2070,1852,1871,1989
942885,1036,34524,1930,34698,1274,673,-521,691,-866,417,1573,3836,51,55,843,1754,1853,2112,2284,2070,1852,1871,1989
943886,1116,34608,1995,34763,1255,400,-549,724,-879,409,1635,3888,48,59,846,1754,1853,2112,2284,2070,1852,1871,1989
944887,1196,34696,2060,34828,1238,323,-554,712,-894,117,1704,3321,47,45,847,1749,1850,2101,2275,2059,1838,1861,1979
945888,1256,34760,2125,34893,1494,624,-562,684,-911,63,1653,3622,49,44,847,1749,1850,2101,2275,2059,1838,1861,1979
946889,1352,34828,2190,34958,1006,570,-565,656,-922,23,1559,3519,55,43,845,1749,1850,2101,2275,2059,1838,1861,1979
947890,1408,34900,2255,35023,1518,512,-582,675,-935,272,1541,3762,64,50,849,1749,1850,2101,2275,2059,1838,1861,1979
948891,1492,34968,2320,35088,1145,558,-602,698,-942,582,1644,3754,62,53,844,1749,1850,2101,2275,2059,1838,1861,1979
949892,1576,35052,2385,35153,1122,335,-599,675,-977,-19,1761,3671,56,50,847,1744,1843,2090,2258,2039,1817,1844,1964
950893,1664,35120,2450,35218,1044,531,-590,637,-985,-500,1473,3448,52,57,849,1744,1843,2090,2258,2039,1817,1844,1964
951894,1752,35180,2515,35283,1017,637,-597,639,-1000,288,1471,3815,52,41,848,1744,1843,2090,2258,2039,1817,1844,1964
952895,1820,35268,2580,35348,1263,259,-612,637,-1016,449,1289,3571,60,47,848,1744,1843,2090,2258,2039,1817,1844,1964
953896,1904,35340,2645,35413,1040,451,-636,635,-1043,-66,1417,3370,58,44,847,1744,1843,2090,2258,2039,1817,1844,1964
954897,2000,35400,2844,35612,1017,770,-651,612,-1071,-95,1484,3416,57,42,849,1744,1843,2090,2258,2039,1817,1844,1964
955898,2064,35472,2909,35677,1418,612,-662,565,-1087,-25,1360,3455,58,49,846,1743,1845,2091,2257,2028,1809,1840,1963
956899,2168,35548,2974,35742,870,548,-683,558,-1085,36,1111,3356,44,53,845,1743,1845,2091,2257,2028,1809,1840,1963
957900,2248,35608,3039,35807,1153,754,-689,548,-1115,441,1390,3220,56,56,849,1743,1845,2091,2257,2028,1809,1840,1963
958901,2316,35696,3104,35872,1299,376,-707,513,-1135,-90,1469,3042,49,45,847,1743,1845,2091,2257,2028,1809,1840,1963
959902,2428,35776,3169,35937,692,458,-737,456,-1147,-184,1530,2930,58,62,847,1743,1845,2091,2257,2028,1809,1840,1963
960903,2512,35840,3234,36002,1019,659,-766,437,-1146,-95,1362,3314,70,58,851,1745,1847,2087,2255,2037,1814,1850,1970
961904,2608,35920,3299,36067,832,441,-780,416,-1137,92,1344,3175,50,46,848,1745,1847,2087,2255,2037,1814,1850,1970
962905,2700,36004,3364,36132,849,368,-779,418,-1128,-86,1285,3352,58,59,850,1745,1847,2087,2255,2037,1814,1850,1970
963906,2788,36084,3429,36197,871,400,-777,412,-1122,149,1274,3338,56,62,850,1745,1847,2087,2255,2037,1814,1850,1970
964907,2872,36152,3494,36262,899,547,-779,395,-1115,-34,1114,3252,65,61,850,1745,1847,2087,2255,2037,1814,1850,1970
965908,2972,36236,3559,36327,656,324,-783,382,-1109,9,1311,3283,65,62,849,1745,1847,2087,2255,2037,1814,1850,1970
966909,3080,36304,3624,36392,504,520,-790,355,-1130,129,1391,2958,53,52,851,1725,1827,2060,2221,2037,1811,1845,1967
967910,3192,36400,3689,36457,396,132,-791,338,-1145,-160,1310,3443,50,52,852,1725,1827,2060,2221,2037,1811,1845,1967
968911,3268,36476,3754,36522,833,369,-793,314,-1157,7,1119,3066,51,52,854,1725,1827,2060,2221,2037,1811,1845,1967
969912,3352,36556,3819,36587,711,300,-793,276,-1156,-276,935,3181,59,54,851,1725,1827,2060,2221,2037,1811,1845,1967
970913,3440,36636,3884,36652,632,282,-795,268,-1170,-135,1242,3317,47,55,852,1725,1827,2060,2221,2037,1811,1845,1967
971914,3540,36712,3949,36717,440,319,-800,241,-1188,-107,1212,3114,53,47,852,1710,1810,2048,2210,2029,1800,1833,1951
972915,3624,36788,4014,36782,617,305,-820,201,-1194,-390,1063,2959,48,49,853,1710,1810,2048,2210,2029,1800,1833,1951
973916,3720,36860,4079,36847,429,347,-840,172,-1195,-95,1013,3266,61,44,852,1710,1810,2048,2210,2029,1800,1833,1951
974917,3796,36940,4144,36912,665,228,-850,166,-1196,195,1078,3032,49,52,853,1710,1810,2048,2210,2029,1800,1833,1951
975918,3900,37024,4209,36977,268,155,-869,156,-1207,-82,1227,3072,58,54,852,1710,1810,2048,2210,2029,1800,1833,1951
976919,3980,37108,4274,37042,550,132,-892,153,-1222,-223,876,2843,52,60,855,1710,1810,2048,2210,2029,1800,1833,1951
977920,4064,37192,4339,37107,477,109,-911,164,-1219,-123,803,3174,51,47,853,1721,1821,2051,2223,2007,1786,1826,1943
978921,4164,37260,4404,37172,234,305,-920,180,-1207,24,827,3083,51,50,853,1721,1821,2051,2223,2007,1786,1826,1943
979922,4248,37348,4469,37237,411,27,-920,189,-1199,-36,839,3080,50,45,854,1721,1821,2051,2223,2007,1786,1826,1943
980923,4332,37428,4534,37302,388,109,-930,171,-1193,-248,771,2667,36,48,854,1721,1821,2051,2223,2007,1786,1826,1943
981924,4416,37512,4599,37367,365,34,-945,164,-1188,-434,803,2983,49,45,854,1721,1821,2051,2223,2007,1786,1826,1943
982925,4496,37572,4664,37432,397,341,-953,177,-1178,-201,753,3006,50,48,854,1729,1826,2059,2228,2006,1784,1825,1939
983926,4580,37644,4729,37497,323,182,-961,170,-1156,-119,919,3089,53,48,853,1729,1826,2059,2228,2006,1784,1825,1939
984927,4664,37716,4794,37562,300,174,-954,154,-1140,-434,780,2961,36,44,854,1729,1826,2059,2228,2006,1784,1825,1939
985928,4740,37796,4859,37627,387,55,-951,128,-1127,-536,652,3027,37,55,854,1729,1826,2059,2228,2006,1784,1825,1939
986929,4824,37872,4924,37692,264,92,-944,115,-1108,-250,683,3100,38,46,854,1729,1826,2059,2228,2006,1784,1825,1939
987930,4896,37948,4989,37757,405,78,-939,105,-1102,-296,750,3206,41,53,855,1729,1826,2059,2228,2006,1784,1825,1939
988931,4984,38028,5054,37822,177,10,-936,108,-1111,-198,839,3160,33,52,854,1719,1813,2043,2215,2006,1783,1828,1936
989932,5056,38100,5119,37887,368,101,-936,111,-1112,-286,707,3178,35,48,854,1719,1813,2043,2215,2006,1783,1828,1936
990933,5148,38188,5184,37952,85,-127,-926,115,-1109,-291,621,3070,52,42,854,1719,1813,2043,2215,2006,1783,1828,1936
991934,5232,38280,5249,38017,162,-210,-917,110,-1112,-164,624,3101,37,56,855,1719,1813,2043,2215,2006,1783,1828,1936
992935,5316,38352,5314,38082,139,32,-904,127,-1111,-111,662,3197,36,43,855,1719,1813,2043,2215,2006,1783,1828,1936
993936,5396,38428,5379,38147,171,-32,-901,126,-1109,-167,774,3047,48,52,855,1718,1810,2034,2216,1999,1776,1822,1929
994937,5476,38508,5444,38212,152,-101,-904,129,-1098,-281,465,3002,33,51,856,1718,1810,2034,2216,1999,1776,1822,1929
995938,5544,38588,5509,38277,299,-119,-914,148,-1090,-105,476,2975,34,45,855,1718,1810,2034,2216,1999,1776,1822,1929
996939,5628,38672,5574,38342,76,-192,-919,151,-1081,-177,396,3156,38,47,854,1718,1810,2034,2216,1999,1776,1822,1929
997940,5764,38744,5639,38407,-661,-51,-909,135,-1072,-289,483,2957,34,48,855,1718,1810,2034,2216,1999,1776,1822,1929
998941,5872,38804,5704,38472,-364,105,-893,108,-1060,-417,499,3115,40,45,856,1718,1810,2034,2216,1999,1776,1822,1929
999942,5956,38860,5769,38537,-87,166,-878,109,-1055,-266,397,3002,46,45,856,1732,1825,2047,2230,1992,1768,1817,1926
1000943,6028,38916,5834,38602,55,177,-872,124,-1025,-5,24,3214,48,51,854,1732,1825,2047,2230,1992,1768,1817,1926
1001944,6104,38980,5899,38667,-9,78,-869,143,-994,50,230,3195,43,38,855,1732,1825,2047,2230,1992,1768,1817,1926
1002945,6180,39044,5964,38732,-22,79,-858,150,-978,-220,218,3275,33,41,856,1732,1825,2047,2230,1992,1768,1817,1926
1003946,6264,39108,6029,38797,-145,80,-851,143,-964,-556,268,3099,37,36,856,1732,1825,2047,2230,1992,1768,1817,1926
1004947,6336,39180,6094,38862,-4,-29,-853,117,-942,-424,176,3062,38,46,850,1740,1833,2053,2235,1985,1763,1815,1926
1005948,6420,39240,6159,38927,-177,127,-859,123,-930,-65,147,3163,53,40,856,1740,1833,2053,2235,1985,1763,1815,1926
1006949,6488,39308,6224,38992,19,24,-860,106,-925,-278,58,2985,42,42,847,1740,1833,2053,2235,1985,1763,1815,1926
1007950,6564,39368,6289,39057,-94,130,-857,85,-922,-237,3,3029,33,55,856,1740,1833,2053,2235,1985,1763,1815,1926
1008951,6652,39444,6354,39122,-273,-84,-860,65,-916,-302,147,3124,50,40,853,1740,1833,2053,2235,1985,1763,1815,1926
1009952,6732,39512,6419,39187,-192,13,-862,56,-930,-305,185,3108,52,52,855,1740,1833,2053,2235,1985,1763,1815,1926
1010953,6828,39572,6484,39252,-429,118,-860,51,-940,-185,-109,3236,50,44,856,1744,1837,2176,2368,1991,1770,1823,1903
1011954,6900,39636,6549,39317,-138,69,-844,47,-932,-45,-17,3112,49,53,855,1744,1837,2176,2368,1991,1770,1823,1903
1012955,6984,39712,6614,39382,-311,-94,-813,54,-908,-6,1,3403,54,49,851,1744,1837,2176,2368,1991,1770,1823,1903
1013956,7060,39792,6679,39447,-225,-163,-787,45,-887,161,93,3588,44,53,850,1744,1837,2176,2368,1991,1770,1823,1903
1014957,7144,39860,6744,39512,-348,-16,-751,41,-868,-182,-95,3545,51,52,855,1744,1837,2176,2368,1991,1770,1823,1903
1015958,7228,39944,6809,39577,-372,-239,-714,46,-850,-59,32,3305,37,51,856,1719,1824,2031,2208,1998,1774,1834,1942
1016959,7300,40020,6874,39642,-231,-153,-689,57,-844,-87,31,3767,54,49,855,1719,1824,2031,2208,1998,1774,1834,1942
1017960,7376,40076,6939,39707,-294,108,-672,49,-818,-85,-67,3515,40,44,850,1719,1824,2031,2208,1998,1774,1834,1942
1018961,7460,40156,7004,39772,-417,-211,-671,33,-793,-61,112,3291,40,47,856,1719,1824,2031,2208,1998,1774,1834,1942
1019962,7552,40224,7069,39837,-550,-65,-663,24,-782,169,60,3584,38,44,855,1719,1824,2031,2208,1998,1774,1834,1942
1020963,7636,40320,7134,39902,-473,-453,-672,-10,-774,-397,31,3273,56,49,856,1719,1824,2031,2208,1998,1774,1834,1942
