%  Data file recorded 2016/9/29  18:35:49
%  Stride Frequency         = [1, 1]
%  Lead In /Lead Out        = 
%  Deltas (Fractional)      = [0.25, 0.25, 0.25],[0.25, 0.25, 0.25]
%  Phase                    = 32768
%  Experiment.py 
%  Motor Gains    = [5000, 400, 200, 0, 300, 5000, 400, 200, 0, 300]
% Columns: 
% time | Right Leg Pos | Left Leg Pos | Commanded Right Leg Pos | Commanded Left Leg Pos | DCR | DCL | GyroX | GyroY | GyroZ | AX | AY | AZ | RBEMF | LBEMF | VBatt | S1 | S2 | S3 | S4 | S5 | S6 | S7 | S8
440,11776,-16996,13782,-18986,-3800,-3800,-4,0,-1,-182,128,3916,14,-3,833,1753,1874,2073,2239,2047,1807,1876,1998
1441,11772,-16988,13782,-18986,-3800,-3800,-4,2,-1,-185,128,3919,-4,-3,833,1753,1874,2073,2239,2047,1807,1876,1998
2442,11780,-16976,13782,-18986,-3800,-3800,-5,4,-1,-193,133,3933,6,-4,833,1753,1874,2073,2239,2047,1807,1876,1998
3443,11772,-16980,13782,-18986,-3800,-3800,-7,3,3,-213,125,3939,12,-3,833,1753,1874,2073,2239,2047,1807,1876,1998
4444,11780,-16988,13782,-18986,-3800,-3800,-9,1,-1,-185,119,3911,-3,-3,833,1753,1873,2072,2240,2048,1807,1875,1998
5445,11772,-16984,13782,-18986,-3800,-3800,-6,-1,-2,-163,115,3909,4,-3,833,1753,1873,2072,2240,2048,1807,1875,1998
6446,11768,-16984,13782,-18986,-3800,-3800,-4,2,-1,-183,113,3923,14,-3,833,1753,1873,2072,2240,2048,1807,1875,1998
7447,11776,-17000,13782,-18986,-3800,-3800,-7,2,1,-163,120,3947,-4,-2,833,1753,1873,2072,2240,2048,1807,1875,1998
8448,11776,-16980,13782,-18986,-3800,-3800,-7,0,-1,-166,121,3952,4,-3,833,1753,1873,2072,2240,2048,1807,1875,1998
9449,11772,-16996,13782,-18986,-3800,-3800,-6,1,-1,-181,128,3970,11,0,833,1754,1874,2073,2240,2048,1808,1874,1998
10450,11768,-16980,13782,-18986,-3800,-3800,-7,1,0,-200,134,3987,-4,-2,833,1754,1874,2073,2240,2048,1808,1874,1998
11451,11776,-16984,13782,-18986,-3800,-3800,-7,3,-2,-171,138,3941,10,-3,833,1754,1874,2073,2240,2048,1808,1874,1998
12452,11772,-16988,13782,-18986,-3800,-3800,-8,2,-3,-169,119,3925,5,-3,833,1754,1874,2073,2240,2048,1808,1874,1998
13453,11764,-17004,13782,-18986,-3800,-3800,-8,2,-3,-180,123,3931,-3,0,833,1754,1874,2073,2240,2048,1808,1874,1998
14454,11780,-16984,13782,-18986,-3800,-3800,-8,2,-3,-176,104,3958,11,6,833,1754,1874,2073,2240,2048,1808,1874,1998
15455,11784,-16988,13782,-18986,-3800,-3800,-9,1,-3,-158,101,3936,3,5,833,1753,1874,2074,2241,2050,1807,1875,1997
16456,11768,-16992,13782,-18986,-3800,-3800,-8,-1,-4,-175,122,3911,0,10,833,1753,1874,2074,2241,2050,1807,1875,1997
17457,11768,-16988,13782,-18986,-3800,-3800,-9,-2,-5,-162,128,3935,14,11,833,1753,1874,2074,2241,2050,1807,1875,1997
18458,11772,-16992,13782,-18986,-3800,-3800,-8,1,-4,-183,110,3923,3,9,833,1753,1874,2074,2241,2050,1807,1875,1997
19459,11780,-16976,13782,-18986,-3800,-3800,-8,1,-4,-183,131,3908,-2,11,832,1753,1874,2074,2241,2050,1807,1875,1997
20460,11776,-16988,13782,-18986,-3800,-3800,-8,0,-5,-182,101,3926,7,7,833,1753,1874,2073,2240,2049,1807,1875,1997
21461,11772,-16984,13782,-18986,-3800,-3800,-6,0,-4,-177,124,3952,14,7,833,1753,1874,2073,2240,2049,1807,1875,1997
22462,11780,-16984,13782,-18986,-3800,-3800,-6,2,-4,-181,108,3962,-3,1,833,1753,1874,2073,2240,2049,1807,1875,1997
23463,11776,-16988,13782,-18986,-3800,-3800,-8,2,-2,-171,112,3984,0,-3,833,1753,1874,2073,2240,2049,1807,1875,1997
24464,11772,-16988,13782,-18986,-3800,-3800,-9,3,-2,-185,102,3962,10,-2,833,1753,1874,2073,2240,2049,1807,1875,1997
25465,11776,-17000,13782,-18986,-3800,-3800,-8,3,-5,-163,113,3911,-2,-3,833,1753,1874,2073,2240,2049,1807,1875,1997
26466,11772,-16984,13782,-18986,-3800,-3800,-8,2,-3,-167,141,3890,15,-4,833,1753,1876,2074,2241,2050,1808,1874,1997
27467,11788,-16988,13782,-18986,-3800,-3800,-8,3,0,-177,128,3940,-3,-3,833,1753,1876,2074,2241,2050,1808,1874,1997
28468,11768,-16980,13782,-18986,-3800,-3800,-8,3,-1,-182,115,3924,11,-4,833,1753,1876,2074,2241,2050,1808,1874,1997
29469,11768,-16984,13782,-18986,-3800,-3800,-6,3,-4,-193,112,3919,14,-3,833,1753,1876,2074,2241,2050,1808,1874,1997
30470,11780,-16988,13782,-18986,-3800,-3800,-5,4,-4,-203,96,3925,-1,-3,833,1753,1876,2074,2241,2050,1808,1874,1997
31471,11768,-16984,13782,-18986,-3800,-3800,-5,4,-3,-209,119,3938,-1,-4,833,1753,1873,2071,2240,2048,1806,1874,1997
32472,11784,-16988,13782,-18986,-3800,-3800,-6,3,-3,-179,139,3951,9,-3,833,1753,1873,2071,2240,2048,1806,1874,1997
33473,11788,-16980,13782,-18986,-3800,-3800,-5,4,0,-197,132,3949,9,-3,833,1753,1873,2071,2240,2048,1806,1874,1997
34474,11772,-16984,13782,-18986,-3800,-3800,-7,2,3,-180,129,3925,-3,-2,833,1753,1873,2071,2240,2048,1806,1874,1997
35475,11772,-16984,13782,-18986,-3800,-3800,-8,1,1,-181,136,3941,2,1,833,1753,1873,2071,2240,2048,1806,1874,1997
36476,11772,-16984,13782,-18986,-3800,-3800,-7,1,-3,-184,109,3940,14,-2,832,1753,1873,2071,2240,2048,1806,1874,1997
37477,11776,-16976,13782,-18986,-3800,-3800,-5,4,-2,-184,123,3945,0,5,833,1753,1874,2072,2239,2049,1807,1875,1996
38478,11776,-16980,13782,-18986,-3800,-3800,-5,3,-2,-191,115,3954,-2,8,833,1753,1874,2072,2239,2049,1807,1875,1996
39479,11772,-16988,13782,-18986,-3800,-3800,-5,3,-2,-181,158,3968,-2,5,833,1753,1874,2072,2239,2049,1807,1875,1996
40480,11776,-16984,13782,-18986,-3800,-3800,-7,2,2,-168,135,3940,14,10,833,1753,1874,2072,2239,2049,1807,1875,1996
41481,11768,-16984,13782,-18986,-3800,-3800,-7,3,3,-163,103,3922,14,10,833,1753,1874,2072,2239,2049,1807,1875,1996
42482,11780,-16980,13782,-18986,-3800,-3800,-6,1,2,-176,98,3916,-2,9,833,1753,1871,2071,2242,2050,1807,1876,1998
43483,11776,-16992,13782,-18986,-3800,-3800,-5,3,3,-184,124,3923,0,7,833,1753,1871,2071,2242,2050,1807,1876,1998
44484,11788,-16988,13782,-18986,-3800,-3800,-4,4,1,-199,117,3907,9,1,833,1753,1871,2071,2242,2050,1807,1876,1998
45485,11772,-16988,13782,-18986,-3800,-3800,-4,5,0,-194,148,3909,15,0,833,1753,1871,2071,2242,2050,1807,1876,1998
46486,11780,-16980,13782,-18986,-3800,-3800,-4,4,-2,-181,148,3936,-2,-3,833,1753,1871,2071,2242,2050,1807,1876,1998
47487,11776,-16992,13782,-18986,-3800,-3800,-3,1,-1,-178,111,3928,-1,-3,833,1753,1871,2071,2242,2050,1807,1876,1998
48488,11788,-16996,13782,-18986,-3800,-3800,-4,3,-1,-189,101,3895,15,-3,833,1753,1874,2072,2241,2049,1806,1874,1997
49489,11772,-16992,13782,-18986,-3800,-3800,-4,1,-1,-218,103,3912,1,-3,833,1753,1874,2072,2241,2049,1806,1874,1997
50490,11772,-16984,13782,-18986,-3800,-3800,-4,0,1,-185,126,3925,-4,-4,833,1753,1874,2072,2241,2049,1806,1874,1997
51491,11784,-16984,13782,-18986,-3800,-3800,-3,2,3,-164,124,3913,14,-3,833,1753,1874,2072,2241,2049,1806,1874,1997
52492,11772,-16992,13782,-18986,-3800,-3800,-5,2,1,-171,119,3911,2,-2,833,1753,1874,2072,2241,2049,1806,1874,1997
53493,11788,-16984,13782,-18986,-3800,-3800,-4,3,0,-170,106,3903,-3,5,832,1754,1873,2072,2240,2048,1807,1875,1997
54494,11776,-16988,13782,-18986,-3800,-3800,-6,2,1,-193,138,3922,12,11,833,1754,1873,2072,2240,2048,1807,1875,1997
55495,11776,-16996,13782,-18986,-3800,-3800,-4,-1,2,-179,134,3942,14,8,833,1754,1873,2072,2240,2048,1807,1875,1997
56496,11768,-16984,13782,-18986,-3800,-3800,-4,0,1,-184,117,3938,5,2,833,1754,1873,2072,2240,2048,1807,1875,1997
57497,11776,-16984,13782,-18986,-3800,-3800,-4,2,0,-198,156,3932,-4,-1,833,1754,1873,2072,2240,2048,1807,1875,1997
58498,11772,-16984,13782,-18986,-3800,-3800,-6,5,-2,-180,132,3934,9,-2,833,1754,1873,2072,2240,2048,1807,1875,1997
59499,11772,-16984,13782,-18986,-3800,-3800,-7,3,0,-196,153,3939,13,6,833,1753,1874,2072,2241,2049,1805,1871,1997
60500,11764,-16988,13782,-18986,-3800,-3800,-6,2,0,-187,115,3934,-4,10,833,1753,1874,2072,2241,2049,1805,1871,1997
61501,11772,-16988,13782,-18986,-3800,-3800,-4,1,-1,-184,111,3913,7,10,833,1753,1874,2072,2241,2049,1805,1871,1997
62502,11764,-16976,13782,-18986,-3800,-3800,-3,1,-1,-185,108,3934,15,7,833,1753,1874,2072,2241,2049,1805,1871,1997
63503,11776,-16992,13782,-18986,-3800,-3800,-3,2,2,-208,117,3959,11,5,833,1753,1874,2072,2241,2049,1805,1871,1997
64504,11772,-16984,13782,-18986,-3800,-3800,-6,2,4,-184,142,3941,-2,-3,833,1754,1874,2073,2240,2049,1808,1874,1997
65505,11788,-16988,13782,-18986,-3800,-3800,-7,2,0,-191,132,3874,-2,-3,833,1754,1874,2073,2240,2049,1808,1874,1997
66506,11772,-16992,13782,-18986,-3800,-3800,-8,2,-2,-180,116,3889,-3,-2,833,1754,1874,2073,2240,2049,1808,1874,1997
67507,11784,-16988,13782,-18986,-3800,-3800,-8,1,-2,-189,117,3909,8,3,833,1754,1874,2073,2240,2049,1808,1874,1997
68508,11768,-16984,13782,-18986,-3800,-3800,-7,1,-2,-184,127,3914,14,9,833,1754,1874,2073,2240,2049,1808,1874,1997
69509,11784,-17000,13782,-18986,-3800,-3800,-7,3,-3,-166,127,3946,4,10,833,1754,1874,2073,2240,2049,1808,1874,1997
70510,11776,-16984,13782,-18986,-3800,-3800,-5,3,-2,-177,137,3944,-3,11,832,1755,1874,2074,2240,2050,1808,1874,1997
71511,11776,-16988,13782,-18986,-3800,-3800,-7,4,-3,-181,142,3919,-4,1,833,1755,1874,2074,2240,2050,1808,1874,1997
72512,11768,-16980,13782,-18986,-3800,-3800,-8,5,-4,-178,130,3933,2,4,833,1755,1874,2074,2240,2050,1808,1874,1997
73513,11772,-16980,13782,-18986,-3800,-3800,-8,5,-3,-182,147,3914,15,4,833,1755,1874,2074,2240,2050,1808,1874,1997
74514,11764,-16980,13782,-18986,-3800,-3800,-8,4,-2,-223,127,3921,10,3,833,1755,1874,2074,2240,2050,1808,1874,1997
75515,11772,-16976,13782,-18986,-3800,-3800,-9,0,-2,-196,123,3943,-4,8,833,1753,1873,2071,2239,2048,1807,1875,1997
76516,11776,-16976,13782,-18986,-3800,-3800,-9,0,-1,-192,140,3931,8,6,833,1753,1873,2071,2239,2048,1807,1875,1997
77517,11772,-16984,13782,-18986,-3800,-3800,-7,2,-3,-197,98,3913,14,1,833,1753,1873,2071,2239,2048,1807,1875,1997
78518,11784,-16976,13782,-18986,-3800,-3800,-9,4,-4,-204,103,3918,8,3,833,1753,1873,2071,2239,2048,1807,1875,1997
79519,11780,-16976,13782,-18986,-3800,-3800,-9,5,-6,-190,139,3928,-3,-1,833,1753,1873,2071,2239,2048,1807,1875,1997
80520,11776,-16992,13782,-18986,-3800,-3800,-6,3,-6,-192,116,3928,-3,-2,833,1753,1873,2071,2239,2048,1807,1875,1997
81521,11776,-16988,13782,-18986,-3800,-3800,-6,1,-5,-161,117,3919,8,4,833,1754,1873,2072,2240,2049,1807,1874,1997
82522,11780,-16976,13782,-18986,-3800,-3800,-8,1,-5,-185,105,3923,14,-1,833,1754,1873,2072,2240,2049,1807,1874,1997
83523,11784,-16984,13782,-18986,-3800,-3800,-8,1,-5,-188,130,3913,5,-2,833,1754,1873,2072,2240,2049,1807,1874,1997
84524,11768,-16976,13782,-18986,-3800,-3800,-9,0,-5,-194,131,3885,-3,2,833,1754,1873,2072,2240,2049,1807,1874,1997
85525,11768,-16984,13782,-18986,-3800,-3800,-10,-1,-4,-194,100,3946,-2,1,833,1754,1873,2072,2240,2049,1807,1874,1997
86526,11776,-16988,13782,-18986,-3800,-3800,-6,0,-2,-198,116,3927,5,0,833,1751,1871,2071,2239,2050,1808,1876,1997
87527,11780,-16984,13782,-18986,-3800,-3800,-2,0,-2,-188,129,3921,14,2,832,1751,1871,2071,2239,2050,1808,1876,1997
88528,11768,-16984,13782,-18986,-3800,-3800,-6,0,-3,-186,135,3884,14,-3,833,1751,1871,2071,2239,2050,1808,1876,1997
89529,11784,-16988,13782,-18986,-3800,-3800,-8,2,-6,-187,118,3912,12,-2,833,1751,1871,2071,2239,2050,1808,1876,1997
90530,11772,-16980,13782,-18986,-3800,-3800,-6,2,-3,-179,128,3934,3,-3,833,1751,1871,2071,2239,2050,1808,1876,1997
91531,11760,-16980,13782,-18986,-3800,-3800,-6,1,-2,-198,127,3917,-4,-3,833,1751,1871,2071,2239,2050,1808,1876,1997
92532,11772,-16976,13782,-18986,-3800,-3800,-5,-2,-2,-193,138,3920,-4,-3,833,1754,1873,2072,2240,2047,1805,1874,1997
93533,11780,-16992,13782,-18986,-3800,-3800,-4,0,-1,-192,125,3904,-1,-4,833,1754,1873,2072,2240,2047,1805,1874,1997
94534,11776,-16992,13782,-18986,-3800,-3800,-6,1,1,-188,119,3911,11,-3,833,1754,1873,2072,2240,2047,1805,1874,1997
95535,11768,-16988,13782,-18986,-3800,-3800,-7,1,0,-181,133,3908,14,2,833,1754,1873,2072,2240,2047,1805,1874,1997
96536,11768,-16988,13782,-18986,-3800,-3800,-5,2,-1,-175,99,3946,4,-3,833,1754,1873,2072,2240,2047,1805,1874,1997
97537,11780,-17000,13782,-18986,-3800,-3800,-5,3,-3,-168,123,3954,-4,-2,833,1754,1874,2073,2241,2048,1807,1874,1997
98538,11784,-16980,13782,-18986,-3800,-3800,-6,3,-1,-203,127,3923,-1,5,833,1754,1874,2073,2241,2048,1807,1874,1997
99539,11764,-16976,13782,-18986,-3800,-3800,-7,2,-2,-197,136,3914,11,6,833,1754,1874,2073,2241,2048,1807,1874,1997
100540,11776,-16988,13782,-18986,-3800,-3800,-6,2,-5,-212,148,3920,15,8,833,1754,1874,2073,2241,2048,1807,1874,1997
101541,11772,-16980,13782,-18986,-3800,-3800,-5,2,-4,-198,142,3931,13,11,833,1754,1874,2073,2241,2048,1807,1874,1997
102542,11768,-16988,13782,-18986,-3800,-3800,-4,0,-1,-199,139,3930,-1,11,833,1754,1874,2073,2241,2048,1807,1874,1997
103543,11780,-16984,13782,-18986,-3800,-3800,-4,0,0,-203,135,3914,-3,11,833,1754,1874,2071,2240,2050,1808,1876,1998
104544,11760,-16980,13782,-18986,-3800,-3800,-5,1,-3,-188,115,3919,-1,6,832,1754,1874,2071,2240,2050,1808,1876,1998
105545,11784,-16980,13782,-18986,-3800,-3800,-6,3,-2,-190,117,3898,6,-1,833,1754,1874,2071,2240,2050,1808,1876,1998
106546,11772,-16992,13782,-18986,-3800,-3800,-4,3,-1,-172,110,3905,13,-3,833,1754,1874,2071,2240,2050,1808,1876,1998
107547,11772,-16988,13782,-18986,-3800,-3800,-2,2,0,-189,130,3949,14,-3,833,1754,1874,2071,2240,2050,1808,1876,1998
108548,11772,-16992,13782,-18986,-3800,-3800,-3,1,2,-178,117,3941,-2,-4,833,1753,1873,2071,2239,2049,1806,1874,1997
109549,11784,-16992,13782,-18986,-3800,-3800,-4,2,1,-172,134,3906,0,-2,833,1753,1873,2071,2239,2049,1806,1874,1997
110550,11772,-16992,13782,-18986,-3800,-3800,-7,1,0,-173,136,3925,11,3,833,1753,1873,2071,2239,2049,1806,1874,1997
111551,11772,-16980,13782,-18986,-3800,-3800,-6,1,0,-181,113,3905,4,0,833,1753,1873,2071,2239,2049,1806,1874,1997
112552,11780,-16976,13782,-18986,-3800,-3800,-4,3,1,-177,118,3934,-3,1,833,1753,1873,2071,2239,2049,1806,1874,1997
113553,11768,-16988,13782,-18986,-3800,-3800,-3,3,1,-183,103,3933,3,8,833,1753,1873,2071,2239,2049,1806,1874,1997
114554,11784,-16960,13782,-18986,-3800,-3800,-4,3,0,-192,109,3952,14,9,833,1754,1873,2072,2240,2050,1807,1874,1997
115555,11772,-16988,13782,-18986,-3800,-3800,-5,3,0,-206,110,3908,0,11,833,1754,1873,2072,2240,2050,1807,1874,1997
116556,11780,-16980,13782,-18986,-3800,-3800,-7,4,1,-210,91,3878,-4,11,833,1754,1873,2072,2240,2050,1807,1874,1997
117557,11772,-16980,13782,-18986,-3800,-3800,-6,3,0,-192,125,3942,10,11,833,1754,1873,2072,2240,2050,1807,1874,1997
118558,11772,-16984,13782,-18986,-3800,-3800,-5,2,1,-166,142,3922,10,11,833,1754,1873,2072,2240,2050,1807,1874,1997
119559,11768,-16984,13782,-18986,-3800,-3800,-4,2,2,-196,121,3923,0,10,833,1753,1875,2074,2242,2050,1808,1874,1998
120560,11780,-16992,13782,-18986,-3800,-3800,-4,4,1,-174,130,3911,1,10,833,1753,1875,2074,2242,2050,1808,1874,1998
121561,11768,-16992,13782,-18986,-3800,-3800,-6,3,1,-187,152,3942,13,11,832,1753,1875,2074,2242,2050,1808,1874,1998
122562,11776,-16980,13782,-18986,-3800,-3800,-8,2,-1,-189,149,3935,3,4,833,1753,1875,2074,2242,2050,1808,1874,1998
123563,11768,-16984,13782,-18986,-3800,-3800,-7,0,-2,-176,155,3936,-4,5,833,1753,1875,2074,2242,2050,1808,1874,1998
124564,11780,-16980,13782,-18986,-3800,-3800,-8,3,-3,-191,108,3935,5,4,833,1753,1875,2074,2242,2050,1808,1874,1998
125565,11776,-16980,13782,-18986,-3800,-3800,-7,5,1,-191,130,3953,14,0,833,1754,1873,2071,2240,2049,1806,1874,1997
126566,11780,-16980,13782,-18986,-3800,-3800,-8,4,1,-196,141,3942,2,4,833,1754,1873,2071,2240,2049,1806,1874,1997
127567,11772,-16976,13782,-18986,-3800,-3800,-9,1,2,-205,128,3933,3,3,833,1754,1873,2071,2240,2049,1806,1874,1997
128568,11768,-16988,13782,-18986,-3800,-3800,-7,4,0,-213,129,3947,12,1,833,1754,1873,2071,2240,2049,1806,1874,1997
129569,11776,-16980,13782,-18986,-3800,-3800,-7,4,-2,-200,137,3942,3,5,833,1754,1873,2071,2240,2049,1806,1874,1997
130570,11776,-16984,13782,-18986,-3800,-3800,-6,4,-1,-194,131,3919,3,0,833,1754,1873,2072,2241,2049,1807,1875,1998
131571,11768,-16976,13782,-18986,-3800,-3800,-7,0,-2,-189,142,3909,13,-3,833,1754,1873,2072,2241,2049,1807,1875,1998
132572,11772,-16988,13782,-18986,-3800,-3800,-10,-1,-1,-196,114,3925,-4,-1,833,1754,1873,2072,2241,2049,1807,1875,1998
133573,11772,-16988,13782,-18986,-3800,-3800,-9,1,0,-183,122,3951,14,-3,833,1754,1873,2072,2241,2049,1807,1875,1998
134574,11776,-16980,13782,-18986,-3800,-3800,-7,1,-2,-207,137,3926,10,-3,833,1754,1873,2072,2241,2049,1807,1875,1998
135575,11772,-16992,13782,-18986,-3800,-3800,-7,2,-2,-180,127,3927,-2,-3,833,1754,1873,2072,2241,2049,1807,1875,1998
136576,11776,-16988,13782,-18986,-3800,-3800,-8,3,-2,-187,126,3913,3,-3,833,1755,1874,2073,2241,2045,1803,1871,1999
137577,11772,-16988,13782,-18986,-3800,-3800,-7,4,-4,-185,135,3949,14,0,833,1755,1874,2073,2241,2045,1803,1871,1999
138578,11772,-16988,13782,-18986,-3800,-3800,-5,3,-2,-190,130,3923,-4,-1,832,1755,1874,2073,2241,2045,1803,1871,1999
139579,11772,-16984,13782,-18986,-3800,-3800,-5,3,-1,-187,125,3905,6,8,833,1755,1874,2073,2241,2045,1803,1871,1999
140580,11780,-16980,13782,-18986,-3800,-3800,-6,0,-5,-197,146,3934,14,8,833,1755,1874,2073,2241,2045,1803,1871,1999
141581,11772,-16976,13782,-18986,-3800,-3800,-6,0,-4,-173,126,3914,-3,-2,833,1755,1874,2072,2240,2048,1806,1874,1997
142582,11772,-16988,13782,-18986,-3800,-3800,-7,2,-2,-177,130,3914,9,-2,833,1755,1874,2072,2240,2048,1806,1874,1997
143583,11776,-16984,13782,-18986,-3800,-3800,-7,2,-2,-174,99,3925,12,-2,833,1755,1874,2072,2240,2048,1806,1874,1997
144584,11780,-16980,13782,-18986,-3800,-3800,-7,3,-2,-156,117,3967,-4,-3,833,1755,1874,2072,2240,2048,1806,1874,1997
145585,11776,-16988,13782,-18986,-3800,-3800,-5,2,-2,-168,147,3973,12,-3,833,1755,1874,2072,2240,2048,1806,1874,1997
146586,11760,-16980,13782,-18986,-3800,-3800,-5,1,-4,-184,128,3952,14,-4,833,1755,1874,2072,2240,2048,1806,1874,1997
147587,11772,-16984,13782,-18986,-3800,-3800,-7,2,-5,-190,86,3926,-5,-1,833,1756,1874,2073,2241,2049,1808,1874,1997
148588,11784,-16988,13782,-18986,-3800,-3800,-6,1,-3,-198,111,3933,13,-2,833,1756,1874,2073,2241,2049,1808,1874,1997
149589,11772,-16984,13782,-18986,-3800,-3800,-5,-1,-2,-205,128,3948,7,-3,833,1756,1874,2073,2241,2049,1808,1874,1997
150590,11776,-16984,13782,-18986,-3800,-3800,-6,0,-3,-217,165,3924,-1,2,833,1756,1874,2073,2241,2049,1808,1874,1997
151591,11764,-16996,13782,-18986,-3800,-3800,-6,3,-3,-170,125,3923,14,1,833,1756,1874,2073,2241,2049,1808,1874,1997
152592,11772,-16988,13782,-18986,-3800,-3800,-8,2,-3,-155,97,3935,7,-1,833,1754,1873,2071,2239,2048,1806,1874,1997
153593,11772,-16992,13782,-18986,-3800,-3800,-8,2,-3,-163,90,3905,-3,5,833,1754,1873,2071,2239,2048,1806,1874,1997
154594,11768,-16984,13782,-18986,-3800,-3800,-5,2,-4,-175,122,3915,13,2,833,1754,1873,2071,2239,2048,1806,1874,1997
155595,11776,-16980,13782,-18986,-3800,-3800,-5,3,-1,-146,113,3926,14,-1,832,1754,1873,2071,2239,2048,1806,1874,1997
156596,11780,-16992,13782,-18986,-3800,-3800,-4,1,0,-164,97,3938,-3,0,833,1754,1873,2071,2239,2048,1806,1874,1997
157597,11776,-16988,13782,-18986,-3800,-3800,-5,1,-3,-184,116,3933,0,-1,833,1754,1873,2071,2239,2048,1806,1874,1997
158598,11772,-16996,13782,-18986,-3800,-3800,-8,1,-5,-184,118,3934,13,3,833,1755,1874,2072,2240,2048,1807,1875,1998
159599,11784,-16988,13782,-18986,-3800,-3800,-10,2,-2,-195,117,3924,-1,10,833,1755,1874,2072,2240,2048,1807,1875,1998
160600,11764,-16992,13782,-18986,-3800,-3800,-7,2,-1,-172,120,3929,-3,9,833,1755,1874,2072,2240,2048,1807,1875,1998
161603,11772,-16980,13782,-18986,-3800,-3800,-3,1,1,-181,151,3918,1,10,833,1755,1874,2072,2240,2048,1807,1875,1998
162602,11784,-16992,13782,-18986,-3800,-3800,-2,0,-1,-169,116,3912,14,11,833,1755,1874,2072,2240,2048,1807,1875,1998
163603,11764,-16984,13782,-18986,-3800,-3800,-2,0,-4,-187,97,3921,1,11,833,1755,1874,2073,2239,2047,1803,1874,1999
164604,11784,-16972,13782,-18986,-3800,-3800,-5,0,-2,-194,124,3931,-4,11,833,1755,1874,2073,2239,2047,1803,1874,1999
165605,11772,-16980,13782,-18986,-3800,-3800,-6,1,1,-163,111,3950,6,10,833,1755,1874,2073,2239,2047,1803,1874,1999
166606,11768,-16992,13782,-18986,-3800,-3800,-6,1,2,-181,116,3958,13,11,833,1755,1874,2073,2239,2047,1803,1874,1999
167607,11784,-16988,13782,-18986,-3800,-3800,-2,3,0,-209,124,3912,-1,11,833,1755,1874,2073,2239,2047,1803,1874,1999
168608,11780,-16984,13782,-18986,-3800,-3800,-5,3,1,-198,128,3931,8,8,833,1755,1874,2073,2239,2047,1803,1874,1999
169609,11768,-16980,13782,-18986,-3800,-3800,-5,2,0,-177,116,3924,-1,4,833,1756,1874,2073,2240,2048,1806,1875,1998
170610,11776,-16984,13782,-18986,-3800,-3800,-5,0,0,-194,132,3929,-1,0,833,1756,1874,2073,2240,2048,1806,1875,1998
171611,11780,-16964,13782,-18986,-3800,-3800,-5,0,1,-184,146,3923,15,-3,833,1756,1874,2073,2240,2048,1806,1875,1998
172612,11776,-16988,13782,-18986,-3800,-3800,-5,-1,1,-193,128,3915,-2,-2,832,1756,1874,2073,2240,2048,1806,1875,1998
173613,11768,-16988,13782,-18986,-3800,-3800,-5,1,-2,-173,143,3938,-2,-4,833,1756,1874,2073,2240,2048,1806,1875,1998
174614,11760,-16976,13782,-18986,-3800,-3800,-6,2,-1,-182,121,3943,12,-3,833,1756,1876,2074,2240,2048,1808,1874,1997
175615,11768,-16984,13782,-18986,-3800,-3800,-6,3,1,-188,98,3921,5,-3,833,1756,1876,2074,2240,2048,1808,1874,1997
176616,11780,-16988,13782,-18986,-3800,-3800,-7,2,0,-193,118,3922,-4,-3,833,1756,1876,2074,2240,2048,1808,1874,1997
177617,11780,-16984,13782,-18986,-3800,-3800,-10,-1,-2,-195,114,3939,8,3,833,1756,1876,2074,2240,2048,1808,1874,1997
178618,11768,-16988,13782,-18986,-3800,-3800,-8,0,0,-194,119,3939,11,2,833,1756,1876,2074,2240,2048,1808,1874,1997
179619,11776,-16992,13782,-18986,-3800,-3800,-4,3,1,-196,117,3950,-3,-2,833,1756,1876,2074,2240,2048,1808,1874,1997
180620,11784,-16996,13782,-18986,-3800,-3800,-4,5,1,-189,125,3946,10,1,833,1755,1873,2071,2240,2049,1807,1875,1997
181621,11776,-16980,13782,-18986,-3800,-3800,-6,5,0,-168,114,3915,4,-1,833,1755,1873,2071,2240,2049,1807,1875,1997
182622,11776,-16988,13782,-18986,-3800,-3800,-7,4,1,-193,106,3913,-4,-1,833,1755,1873,2071,2240,2049,1807,1875,1997
183623,11780,-16980,13782,-18986,-3800,-3800,-7,5,0,-205,118,3914,11,4,833,1755,1873,2071,2240,2049,1807,1875,1997
184624,11768,-16980,13782,-18986,-3800,-3800,-3,2,2,-170,115,3890,6,4,833,1755,1873,2071,2240,2049,1807,1875,1997
185625,11780,-16988,13782,-18986,-3800,-3800,-5,4,-1,-172,112,3901,-4,9,833,1755,1873,2072,2239,2049,1807,1874,1997
186626,11768,-16988,13782,-18986,-3800,-3800,-4,6,-1,-190,101,3919,11,10,833,1755,1873,2072,2239,2049,1807,1874,1997
187627,11768,-16984,13782,-18986,-3800,-3800,-6,7,-3,-201,127,3884,4,10,833,1755,1873,2072,2239,2049,1807,1874,1997
188628,11772,-16988,13782,-18986,-3800,-3800,-8,6,-2,-215,136,3891,-4,8,833,1755,1873,2072,2239,2049,1807,1874,1997
189629,11780,-16988,13782,-18986,-3800,-3800,-9,6,-1,-179,134,3909,4,3,832,1755,1873,2072,2239,2049,1807,1874,1997
190630,11776,-16984,13782,-18986,-3800,-3800,-6,4,0,-161,122,3924,14,11,833,1755,1873,2072,2239,2049,1807,1874,1997
191631,11784,-16996,13782,-18986,-3800,-3800,-4,5,-1,-161,119,3933,15,11,833,1751,1874,2074,2240,2050,1808,1874,1996
192632,11772,-16992,13782,-18986,-3800,-3800,-5,6,-1,-171,137,3932,1,9,833,1751,1874,2074,2240,2050,1808,1874,1996
193633,11772,-16980,13782,-18986,-3800,-3800,-7,4,-2,-186,142,3949,-2,10,833,1751,1874,2074,2240,2050,1808,1874,1996
194634,11772,-16992,13782,-18986,-3800,-3800,-7,1,-2,-183,121,3933,5,10,833,1751,1874,2074,2240,2050,1808,1874,1996
195635,11776,-16976,13782,-18986,-3800,-3800,-8,-1,-2,-189,111,3900,14,6,833,1751,1874,2074,2240,2050,1808,1874,1996
196636,11776,-16980,13782,-18986,-3800,-3800,-7,0,-4,-189,120,3934,12,8,833,1753,1873,2071,2239,2047,1806,1874,1996
197637,11780,-16968,13782,-18986,-3800,-3800,-6,0,-3,-157,138,3928,9,10,833,1753,1873,2071,2239,2047,1806,1874,1996
198638,11772,-16988,13782,-18986,-3800,-3800,-5,2,-3,-179,129,3894,0,7,833,1753,1873,2071,2239,2047,1806,1874,1996
199639,11768,-16988,13782,-18986,-3800,-3800,-5,1,-1,-190,123,3874,-4,10,833,1753,1873,2071,2239,2047,1806,1874,1996
200640,11776,-16996,13782,-18986,-3800,-3800,-5,0,-2,-211,129,3888,-1,11,833,1753,1873,2071,2239,2047,1806,1874,1996
201641,11780,-16984,13847,-18921,2898,-2090,-7,1,-2,-194,132,3893,12,10,833,1755,1873,2071,2239,2047,1806,1874,1996
202642,11780,-16988,13912,-18856,3027,-1807,-9,0,-1,-180,114,3935,13,11,790,1755,1873,2072,2240,2047,1806,1874,1998
203643,11788,-16992,13977,-18791,2998,-1724,-8,-3,-3,-188,134,3934,-51,19,794,1755,1873,2072,2240,2047,1806,1874,1998
204644,11860,-17008,14042,-18726,2190,-1476,-5,-1,-4,-210,114,3975,-26,12,795,1755,1873,2072,2240,2047,1806,1874,1998
205645,11952,-17072,14107,-18661,1908,-718,-12,-19,6,-249,43,3648,0,4,809,1755,1873,2072,2240,2047,1806,1874,1998
206646,12100,-17148,14172,-18596,1108,-397,-8,-18,-7,-311,356,3693,86,-24,816,1755,1873,2072,2240,2047,1806,1874,1998
207647,12240,-17220,14237,-18531,1116,-280,-6,-51,-14,-302,280,3571,94,-18,825,1759,1882,2085,2251,2059,1792,1856,1996
208648,12408,-17292,14302,-18466,642,-114,27,-4,-13,-32,356,3722,108,-24,826,1759,1882,2085,2251,2059,1792,1856,1996
209649,12588,-17376,14367,-18401,352,218,61,2,-4,-212,65,3953,104,-14,830,1759,1882,2085,2251,2059,1792,1856,1996
210650,12728,-17448,14432,-18336,762,235,67,-12,-2,-554,434,3995,113,-28,831,1759,1882,2085,2251,2059,1792,1856,1996
211652,12900,-17516,14497,-18271,231,347,78,-76,7,-665,215,3718,97,-33,829,1759,1882,2085,2251,2059,1792,1856,1996
212652,13080,-17580,14562,-18206,-8,454,101,-80,12,-347,495,4236,100,-12,830,1751,1867,2065,2231,2031,1791,1862,1980
213653,13216,-17636,14627,-18141,455,501,126,-75,28,-183,404,4277,105,-26,830,1751,1867,2065,2231,2031,1791,1862,1980
214654,13400,-17684,14692,-18076,-289,539,145,-48,33,-269,353,3855,102,-19,829,1751,1867,2065,2231,2031,1791,1862,1980
215655,13560,-17724,14757,-18011,-105,567,159,-43,23,-429,364,3938,99,-16,830,1751,1867,2065,2231,2031,1791,1862,1980
216656,13700,-17764,14822,-17946,54,695,137,-3,-4,-87,509,3631,106,-12,830,1751,1867,2065,2231,2031,1791,1862,1980
217657,13876,-17784,14887,-17881,-531,549,112,-1,-7,-181,305,3326,88,0,829,1751,1867,2065,2231,2031,1791,1862,1980
218658,14032,-17824,14952,-17816,-391,927,104,45,-27,-310,558,3718,104,4,830,1762,1872,2064,2232,2008,1776,1848,1967
219659,14188,-17828,15017,-17751,-503,561,86,23,-21,-707,238,3534,103,1,827,1762,1872,2064,2232,2008,1776,1848,1967
220660,14328,-17832,15082,-17686,-394,646,100,19,-33,-514,232,3873,100,13,830,1762,1872,2064,2232,2008,1776,1848,1967
221661,14460,-17836,15147,-17621,-375,730,100,-14,-49,-308,255,3990,92,3,828,1762,1872,2064,2232,2008,1776,1848,1967
222662,14612,-17828,15212,-17556,-731,650,110,-43,-37,-281,0,3673,93,19,829,1762,1872,2064,2232,2008,1776,1848,1967
223663,14752,-17812,15277,-17491,-673,609,113,-70,-49,-447,294,3662,96,16,829,1774,1885,2086,2256,2024,1790,1857,1973
224664,14848,-17804,15342,-17426,-160,779,101,-104,-49,-687,-38,3160,77,22,830,1774,1885,2086,2256,2024,1790,1857,1973
225665,14996,-17784,15407,-17361,-912,684,98,-101,-45,-709,80,3895,83,27,823,1774,1885,2086,2256,2024,1790,1857,1973
226666,15108,-17740,15472,-17296,-518,409,120,-85,-65,37,178,3610,71,32,829,1774,1885,2086,2256,2024,1790,1857,1973
227667,15208,-17728,15537,-17231,-411,875,126,-75,-52,-255,-90,3857,81,35,831,1774,1885,2086,2256,2024,1790,1857,1973
228668,15316,-17692,15602,-17166,-563,611,142,-94,-32,-117,-150,3797,60,22,828,1774,1885,2086,2256,2024,1790,1857,1973
229669,15416,-17648,15667,-17101,-506,536,184,-174,-25,-369,-367,3629,69,37,829,1749,1863,2049,2190,2031,1801,1872,1996
230670,15516,-17608,15732,-17036,-549,617,230,-211,-46,-1166,-543,3617,54,37,830,1749,1863,2049,2190,2031,1801,1872,1996
231671,15596,-17588,15797,-16971,-317,922,281,-168,-90,-1258,-399,3972,56,43,830,1749,1863,2049,2190,2031,1801,1872,1996
232672,15668,-17508,15862,-16906,-226,154,297,-104,-129,-815,-246,3713,50,39,828,1749,1863,2049,2190,2031,1801,1872,1996
233673,15728,-17432,15927,-16841,-70,191,282,-96,-137,-438,-118,3486,44,36,822,1749,1863,2049,2190,2031,1801,1872,1996
234674,15812,-17388,15992,-16776,-393,617,255,-120,-133,-630,83,3957,47,40,832,1731,1849,2039,2207,2023,1782,1868,1947
235675,15876,-17324,16057,-16711,-142,368,224,-158,-147,-621,136,3779,41,35,830,1731,1849,2039,2207,2023,1782,1868,1947
236676,15924,-17268,16122,-16646,79,480,201,-182,-165,-519,95,3983,47,45,831,1731,1849,2039,2207,2023,1782,1868,1947
237677,15980,-17196,16187,-16581,-9,271,181,-190,-181,-276,62,3811,39,50,830,1731,1849,2039,2207,2023,1782,1868,1947
238678,16020,-17132,16252,-16516,222,372,161,-202,-190,-587,-41,4012,30,51,832,1731,1849,2039,2207,2023,1782,1868,1947
239679,16060,-17068,16317,-16451,252,374,153,-206,-205,-627,-3,4002,23,48,831,1731,1849,2039,2207,2023,1782,1868,1947
240680,16104,-17000,16382,-16386,228,320,148,-214,-211,-433,-126,4192,28,50,830,1744,1866,2042,2209,2013,1780,1869,1987
241681,16140,-16928,16447,-16321,363,262,162,-259,-218,-272,-209,4141,32,43,831,1744,1866,2042,2209,2013,1780,1869,1987
242682,16164,-16864,16512,-16256,563,364,178,-285,-218,-361,-361,4432,18,50,830,1744,1866,2042,2209,2013,1780,1869,1987
243683,16184,-16792,16577,-16191,668,255,201,-311,-231,-417,-421,4317,23,51,829,1744,1866,2042,2209,2013,1780,1869,1987
244684,16216,-16720,16642,-16126,559,247,225,-326,-241,-233,-522,4408,26,43,828,1744,1866,2042,2209,2013,1780,1869,1987
245685,16240,-16644,16707,-16061,709,184,250,-335,-233,-242,-495,4265,18,51,829,1755,1881,2078,2245,2059,1817,1895,2030
246686,16276,-16564,16772,-15996,595,116,275,-327,-239,-156,-519,4287,24,51,828,1755,1881,2078,2245,2059,1817,1895,2030
247687,16304,-16520,16837,-15931,740,591,290,-322,-247,-200,-438,4205,30,38,829,1755,1881,2078,2245,2059,1817,1895,2030
248688,16348,-16448,16902,-15866,566,233,297,-333,-252,-139,-302,4044,34,52,827,1755,1881,2078,2245,2059,1817,1895,2030
249689,16360,-16384,16967,-15801,1030,334,290,-350,-244,-289,-420,4091,30,42,829,1755,1881,2078,2245,2059,1817,1895,2030
250690,16400,-16312,17032,-15736,711,227,285,-362,-244,-366,-170,4044,19,43,825,1755,1881,2078,2245,2059,1817,1895,2030
251691,16436,-16240,17097,-15671,797,218,276,-365,-244,-487,-100,4184,31,54,828,1795,1924,2131,2302,2084,1837,1909,2034
252692,16480,-16172,17162,-15606,723,264,259,-382,-235,-470,41,4147,29,41,827,1795,1924,2131,2302,2084,1837,1909,2034
253693,16512,-16116,17227,-15541,913,425,240,-391,-232,-202,172,4214,42,37,827,1795,1924,2131,2302,2084,1837,1909,2034
254694,16568,-16060,17292,-15476,624,437,217,-397,-226,-165,216,4263,29,49,826,1795,1924,2131,2302,2084,1837,1909,2034
255695,16612,-15996,17357,-15411,801,339,197,-389,-209,-22,265,4424,31,48,828,1795,1924,2131,2302,2084,1837,1909,2034
256696,16668,-15924,17422,-15346,662,230,174,-388,-203,-3,353,4346,41,35,827,1807,1928,2120,2294,2068,1824,1898,2016
257697,16708,-15868,17487,-15281,892,441,164,-338,-202,171,254,4648,42,42,827,1807,1928,2120,2294,2068,1824,1898,2016
258698,16756,-15808,17552,-15216,814,397,167,-286,-198,116,170,4519,33,42,826,1807,1928,2120,2294,2068,1824,1898,2016
259699,16804,-15764,17617,-15151,835,624,188,-233,-195,-104,201,4749,42,38,827,1807,1928,2120,2294,2068,1824,1898,2016
260700,16876,-15704,17682,-15086,526,430,212,-181,-189,180,84,4676,31,49,825,1807,1928,2120,2294,2068,1824,1898,2016
261701,16924,-15632,17747,-15021,848,271,230,-157,-175,275,126,4627,45,50,829,1807,1928,2120,2294,2068,1824,1898,2016
262702,16976,-15572,17812,-14956,814,427,240,-172,-145,111,100,4332,48,37,827,1758,1873,2071,2235,2074,1824,1889,2011
263703,17040,-15516,17877,-14891,665,489,257,-187,-123,-114,76,4528,34,46,827,1758,1873,2071,2235,2074,1824,1889,2011
264704,17096,-15460,17942,-14826,776,500,268,-208,-104,-147,-22,4122,36,38,828,1758,1873,2071,2235,2074,1824,1889,2011
265705,17160,-15388,18007,-14761,678,292,280,-210,-77,-153,-180,4168,48,44,827,1758,1873,2071,2235,2074,1824,1889,2011
266706,17216,-15344,18072,-14696,789,668,283,-187,-58,-187,18,4031,55,49,828,1758,1873,2071,2235,2074,1824,1889,2011
267707,17272,-15268,18137,-14631,800,255,285,-162,-36,-84,-63,3809,53,41,826,1736,1856,2068,2234,2075,1827,1885,2007
268708,17328,-15220,18202,-14566,812,626,266,-140,-12,85,-30,3875,45,48,827,1736,1856,2068,2234,2075,1827,1885,2007
269709,17392,-15160,18267,-14501,714,482,244,-134,13,241,142,3672,36,38,826,1736,1856,2068,2234,2075,1827,1885,2007
270710,17444,-15084,18332,-14436,879,269,223,-117,41,54,21,3753,53,51,827,1736,1856,2068,2234,2075,1827,1885,2007
271711,17520,-15032,18397,-14371,567,585,197,-105,50,162,121,3727,47,39,827,1736,1856,2068,2234,2075,1827,1885,2007
272712,17580,-14956,18462,-14306,773,272,188,-86,59,122,72,3624,45,50,828,1736,1856,2068,2234,2075,1827,1885,2007
273713,17636,-14896,18527,-14241,834,478,178,-60,70,74,140,3593,40,35,827,1755,1873,2083,2249,2059,1811,1871,1998
274714,17716,-14816,18592,-14176,517,210,162,-11,70,17,274,3623,40,52,826,1755,1873,2083,2249,2059,1811,1871,1998
275715,17772,-14760,18657,-14111,828,521,139,8,64,182,423,3512,50,46,829,1755,1873,2083,2249,2059,1811,1871,1998
276716,17832,-14712,18722,-14046,784,642,112,6,83,225,231,3561,37,39,826,1755,1873,2083,2249,2059,1811,1871,1998
277717,17888,-14652,18787,-13981,846,499,101,-3,93,140,396,3736,37,44,826,1755,1873,2083,2249,2059,1811,1871,1998
278718,17952,-14588,18852,-13916,747,450,107,-15,99,-51,311,3720,43,48,826,1744,1861,2058,2214,2040,1792,1862,1985
279719,18032,-14540,18917,-13851,529,671,110,-44,112,-6,255,3838,42,51,827,1744,1861,2058,2214,2040,1792,1862,1985
280720,18092,-14476,18982,-13786,786,473,137,-80,123,-2,298,3800,55,39,827,1744,1861,2058,2214,2040,1792,1862,1985
281721,18144,-14420,19047,-13721,902,584,171,-99,146,-361,150,4199,43,43,827,1744,1861,2058,2214,2040,1792,1862,1985
282722,18204,-14348,19112,-13656,808,375,174,-85,157,-13,230,4007,44,50,826,1744,1861,2058,2214,2040,1792,1862,1985
283723,18280,-14284,19177,-13591,595,477,182,-67,167,325,185,3782,47,50,827,1744,1861,2058,2214,2040,1792,1862,1985
284724,18332,-14232,19242,-13526,911,643,189,-51,175,143,230,4070,42,41,828,1710,1836,2029,2181,2036,1787,1860,1988
285725,18388,-14160,19307,-13461,872,385,197,-59,179,-197,234,3818,39,39,825,1710,1836,2029,2181,2036,1787,1860,1988
286726,18464,-14096,19372,-13396,610,486,189,-47,171,-114,267,3790,55,52,826,1710,1836,2029,2181,2036,1787,1860,1988
287727,18508,-14024,19437,-13331,1036,378,167,-28,177,356,184,3742,38,39,828,1710,1836,2029,2181,2036,1787,1860,1988
288728,18572,-13972,19502,-13266,788,644,160,0,177,247,282,3815,38,40,826,1710,1836,2029,2181,2036,1787,1860,1988
289729,18632,-13912,19567,-13201,844,550,153,-32,170,-42,247,3429,41,40,826,1733,1864,2063,2224,2043,1798,1873,2001
290730,18692,-13848,19632,-13136,850,502,152,-65,159,-292,250,3644,56,44,826,1733,1864,2063,2224,2043,1798,1873,2001
291731,18756,-13780,19697,-13071,802,449,154,-104,134,-290,403,3479,50,43,825,1733,1864,2063,2224,2043,1798,1873,2001
292732,18804,-13712,19762,-13006,1023,445,136,-140,123,5,229,3479,41,48,826,1733,1864,2063,2224,2043,1798,1873,2001
293733,18856,-13652,19827,-12941,989,551,124,-169,109,3,334,3660,52,40,825,1733,1864,2063,2224,2043,1798,1873,2001
294734,18916,-13588,19892,-12876,896,503,113,-191,96,-102,412,3719,59,44,825,1733,1864,2063,2224,2043,1798,1873,2001
295735,18984,-13536,19957,-12811,792,670,111,-216,74,27,347,3851,42,40,826,1765,1891,2091,2257,2051,1809,1880,2002
296736,19056,-13456,20022,-12746,734,301,117,-244,66,-21,359,3920,53,45,826,1765,1891,2091,2257,2051,1809,1880,2002
297737,19124,-13388,20087,-12681,781,448,131,-243,44,-3,350,4079,45,48,828,1765,1891,2091,2257,2051,1809,1880,2002
298738,19196,-13332,20152,-12616,722,610,145,-221,37,56,192,4166,60,41,827,1765,1891,2091,2257,2051,1809,1880,2002
299739,19260,-13280,20217,-12551,824,675,160,-195,25,76,307,4179,54,49,826,1765,1891,2091,2257,2051,1809,1880,2002
300740,19324,-13216,20282,-12486,826,527,166,-170,19,-46,279,4220,43,49,825,1762,1883,2085,2239,2046,1804,1874,2004
301741,19384,-13156,20347,-12421,882,583,166,-162,22,-177,328,4185,53,35,826,1762,1883,2085,2239,2046,1804,1874,2004
302742,19452,-13096,20412,-12356,779,590,167,-182,10,-195,472,4168,52,46,825,1762,1883,2085,2239,2046,1804,1874,2004
303743,19508,-13032,20477,-12291,940,541,153,-211,9,-326,307,4117,56,50,826,1762,1883,2085,2239,2046,1804,1874,2004
304744,19580,-12984,20542,-12226,732,762,147,-236,14,-415,401,4142,53,49,825,1762,1883,2085,2239,2046,1804,1874,2004
305745,19624,-12928,20607,-12161,1108,673,125,-244,4,-281,400,4081,40,49,825,1762,1883,2085,2239,2046,1804,1874,2004
306746,19676,-12848,20672,-12096,1024,355,116,-251,-8,-276,309,4079,50,45,823,1751,1877,2076,2239,2045,1805,1878,2005
307747,19752,-12788,20737,-12031,711,612,105,-239,-34,-306,452,4074,49,43,825,1751,1877,2076,2239,2045,1805,1878,2005
308748,19808,-12732,20802,-11966,973,673,106,-240,-51,-501,263,3904,45,40,825,1751,1877,2076,2239,2045,1805,1878,2005
309749,19860,-12664,20867,-11901,1039,520,94,-233,-78,-180,401,4122,39,48,824,1751,1877,2076,2239,2045,1805,1878,2005
310750,19924,-12596,20932,-11836,891,516,103,-214,-93,-162,291,4032,47,38,824,1751,1877,2076,2239,2045,1805,1878,2005
311751,19972,-12552,20997,-11771,1112,842,95,-196,-106,-124,292,4119,44,52,825,1754,1880,2081,2240,2071,1823,1895,2026
312752,20040,-12488,21062,-11706,858,594,104,-178,-123,-216,311,4121,39,49,822,1754,1880,2081,2240,2071,1823,1895,2026
313753,20100,-12424,21127,-11641,965,595,99,-174,-132,-325,356,3960,47,38,825,1754,1880,2081,2240,2071,1823,1895,2026
314754,20156,-12372,21192,-11576,1026,761,104,-153,-136,-278,258,4151,42,41,825,1754,1880,2081,2240,2071,1823,1895,2026
315755,20232,-12316,21257,-11511,763,722,119,-156,-129,-361,124,3943,53,53,823,1754,1880,2081,2240,2071,1823,1895,2026
316756,20296,-12252,21322,-11446,915,624,131,-150,-131,-689,184,4101,47,40,825,1754,1880,2081,2240,2071,1823,1895,2026
317757,20356,-12188,21387,-11381,971,626,108,-145,-129,-397,209,3854,37,53,825,1749,1871,2079,2239,2079,1828,1892,2017
318758,20428,-12124,21452,-11316,814,627,109,-119,-122,-295,266,3958,54,47,824,1749,1871,2079,2239,2079,1828,1892,2017
319759,20488,-12052,21517,-11251,970,519,83,-150,-107,-407,194,3753,43,53,825,1749,1871,2079,2239,2079,1828,1892,2017
320760,20532,-12000,21582,-11186,1195,785,70,-154,-102,-523,255,4009,42,42,825,1749,1871,2079,2239,2079,1828,1892,2017
321761,20592,-11944,21647,-11121,1002,746,52,-155,-95,-359,279,3969,52,50,822,1749,1871,2079,2239,2079,1828,1892,2017
322762,20672,-11872,21712,-11056,734,539,40,-146,-92,-229,202,3919,47,49,824,1749,1867,2072,2236,2055,1810,1876,1997
323763,20708,-11808,21777,-10991,1320,640,22,-143,-89,-324,196,4107,40,46,826,1749,1867,2072,2236,2055,1810,1876,1997
324764,20772,-11748,21842,-10926,972,696,6,-130,-88,-347,235,4059,53,37,822,1749,1867,2072,2236,2055,1810,1876,1997
325765,20836,-11684,21907,-10861,973,647,-8,-116,-86,-149,168,4094,45,40,822,1749,1867,2072,2236,2055,1810,1876,1997
326766,20884,-11624,21972,-10796,1195,704,-10,-99,-81,-91,141,4049,55,44,824,1749,1867,2072,2236,2055,1810,1876,1997
327767,20948,-11556,22037,-10731,996,601,-15,-84,-79,-136,218,4082,49,38,822,1749,1867,2072,2236,2055,1810,1876,1997
328768,21012,-11496,22102,-10666,998,707,-9,-69,-79,-223,154,4083,45,43,824,1745,1860,2063,2226,2050,1804,1874,2002
329769,21080,-11444,22167,-10601,944,824,-6,-49,-75,-239,212,3918,39,40,824,1745,1860,2063,2226,2050,1804,1874,2002
330770,21132,-11384,22232,-10536,1160,730,-2,-64,-74,-326,164,3869,41,45,823,1745,1860,2063,2226,2050,1804,1874,2002
331771,21192,-11316,22297,-10471,1067,626,1,-63,-65,-437,209,4033,54,39,822,1745,1860,2063,2226,2050,1804,1874,2002
332772,21248,-11260,22362,-10406,1128,788,2,-69,-50,-313,158,3951,44,45,823,1745,1860,2063,2226,2050,1804,1874,2002
333773,21304,-11188,22427,-10341,1140,579,1,-78,-41,-145,222,3814,56,48,822,1746,1870,2072,2228,2064,1812,1886,2011
334774,21368,-11124,22492,-10276,1042,681,3,-84,-35,-369,191,4006,41,40,823,1746,1870,2072,2228,2064,1812,1886,2011
335775,21424,-11064,22557,-10211,1154,738,0,-92,-29,-364,271,3884,47,39,823,1746,1870,2072,2228,2064,1812,1886,2011
336776,21468,-11016,22622,-10146,1329,909,4,-80,-18,-190,160,3857,47,48,822,1746,1870,2072,2228,2064,1812,1886,2011
337777,21520,-10944,22687,-10081,1245,600,-6,-92,-11,-177,254,3876,57,41,820,1746,1870,2072,2228,2064,1812,1886,2011
338781,21608,-10896,22752,-10016,768,922,2,-78,-16,-120,267,3975,64,50,822,1746,1870,2072,2228,2064,1812,1886,2011
339779,21668,-10828,22817,-9951,1124,668,2,-70,-14,-33,265,3937,49,41,824,1738,1864,2080,2240,2066,1816,1890,2022
340780,21736,-10760,22882,-9886,1021,664,8,-66,-16,-33,252,3948,51,39,823,1738,1864,2080,2240,2066,1816,1890,2022
341781,21816,-10692,22947,-9821,853,662,4,-49,-14,53,99,3796,45,41,823,1738,1864,2080,2240,2066,1816,1890,2022
342782,21892,-10636,23012,-9756,891,823,12,-56,1,101,230,3933,61,46,824,1738,1864,2080,2240,2066,1816,1890,2022
343783,21944,-10572,23077,-9691,1207,724,19,-44,18,-17,214,3859,43,45,823,1738,1864,2080,2240,2066,1816,1890,2022
344784,22016,-10508,23142,-9626,948,726,21,-45,16,69,180,3852,52,35,822,1763,1888,2085,2249,2048,1801,1873,1993
345785,22088,-10448,23207,-9561,940,782,20,-65,18,4,197,3992,48,45,823,1763,1888,2085,2249,2048,1801,1873,1993
346786,22140,-10392,23272,-9496,1206,843,29,-83,36,101,96,3917,58,49,823,1763,1888,2085,2249,2048,1801,1873,1993
347787,22200,-10340,23337,-9431,1113,910,36,-86,44,160,162,4012,55,38,821,1763,1888,2085,2249,2048,1801,1873,1993
348788,22264,-10272,23402,-9366,1065,706,45,-89,49,95,240,3918,51,40,821,1763,1888,2085,2249,2048,1801,1873,1993
349789,22324,-10220,23467,-9301,1122,922,46,-86,55,109,205,4094,44,44,822,1763,1888,2085,2249,2048,1801,1873,1993
350790,22384,-10148,23532,-9236,1128,665,55,-74,53,126,317,4029,39,38,821,1759,1882,2081,2248,2032,1788,1862,1981
351791,22436,-10100,23597,-9171,1244,986,51,-96,52,8,141,3895,41,43,822,1759,1882,2081,2248,2032,1788,1862,1981
352792,22484,-10036,23662,-9106,1315,787,56,-103,49,-54,194,3996,41,47,820,1759,1882,2081,2248,2032,1788,1862,1981
353793,22552,-9972,23727,-9041,1062,789,49,-111,52,-56,160,3900,46,51,820,1759,1882,2081,2248,2032,1788,1862,1981
354794,22612,-9920,23792,-8976,1169,955,47,-116,75,-223,119,3953,48,39,822,1759,1882,2081,2248,2032,1788,1862,1981
355795,22660,-9860,23857,-8911,1340,861,22,-114,91,-296,288,3775,55,37,821,1759,1879,2078,2244,2036,1792,1869,1993
356796,22732,-9808,23922,-8846,1032,978,3,-99,115,-391,121,3461,52,35,820,1759,1879,2078,2244,2036,1792,1869,1993
357797,22800,-9752,23987,-8781,1078,939,-18,-90,158,-568,84,3611,61,46,821,1759,1879,2078,2244,2036,1792,1869,1993
358798,22852,-9704,24052,-8716,1295,1061,-4,-81,174,-408,218,3908,63,49,821,1759,1879,2078,2244,2036,1792,1869,1993
359799,22912,-9620,24117,-8651,1201,587,31,-25,166,-217,269,4183,59,48,817,1759,1879,2078,2244,2036,1792,1869,1993
360800,22988,-9556,24182,-8586,989,839,72,10,158,72,65,4009,60,53,822,1759,1879,2078,2244,2036,1792,1869,1993
361801,23056,-9512,24247,-8521,1085,1115,109,12,153,81,197,3794,65,37,822,1751,1869,2067,2223,2063,1810,1881,2009
362802,23124,-9472,24312,-8456,1082,1196,111,-36,163,-352,64,3480,53,34,820,1751,1869,2067,2223,2063,1810,1881,2009
363803,23192,-9420,24377,-8391,1079,1062,108,-63,153,-208,161,3704,59,49,819,1751,1869,2067,2223,2063,1810,1881,2009
364804,23264,-9336,24442,-8326,1020,639,106,-89,138,-85,326,3640,61,41,820,1751,1869,2067,2223,2063,1810,1881,2009
365805,23324,-9292,24507,-8261,1178,1165,100,-93,128,1,224,3801,54,50,823,1751,1869,2067,2223,2063,1810,1881,2009
366806,23388,-9224,24572,-8196,1129,862,102,-116,122,-68,247,3796,42,46,819,1740,1858,2058,2218,2052,1801,1871,1994
367807,23464,-9168,24637,-8131,966,1023,94,-121,118,57,268,4003,43,39,821,1740,1858,2058,2218,2052,1801,1871,1994
368808,23512,-9104,24702,-8066,1337,925,97,-94,118,522,260,4132,42,48,822,1740,1858,2058,2218,2052,1801,1871,1994
369809,23568,-9064,24767,-8001,1249,1256,114,-46,149,300,-205,4295,58,37,818,1740,1858,2058,2218,2052,1801,1871,1994
370810,23636,-9008,24832,-7936,1095,1067,126,-51,169,-579,410,4219,46,45,817,1740,1858,2058,2218,2052,1801,1871,1994
371811,23692,-8968,24897,-7871,1256,1299,92,11,149,-208,323,4049,52,37,820,1740,1858,2058,2218,2052,1801,1871,1994
372812,23748,-8900,24962,-7806,1268,945,78,99,184,195,-102,4177,59,44,817,1749,1870,2065,2232,2031,1790,1841,1963
373813,23800,-8856,25027,-7741,1334,1271,72,25,203,146,125,3867,44,35,819,1749,1870,2065,2232,2031,1790,1841,1963
374814,23864,-8792,25092,-7676,1187,1023,70,-69,223,-876,175,4190,46,50,817,1749,1870,2065,2232,2031,1790,1841,1963
375815,23924,-8748,25157,-7611,1243,1298,84,-58,216,-529,259,4269,52,42,819,1749,1870,2065,2232,2031,1790,1841,1963
376816,23980,-8688,25222,-7546,1305,1106,95,-107,204,-300,156,3702,50,42,817,1749,1870,2065,2232,2031,1790,1841,1963
377817,24052,-8632,25287,-7481,1096,1167,105,-142,204,-232,75,4008,50,35,818,1774,1896,2096,2271,2067,1819,1897,2023
378818,24120,-8572,25352,-7416,1143,1124,103,-167,197,-191,239,3896,50,39,819,1774,1896,2096,2271,2067,1819,1897,2023
379819,24180,-8516,25417,-7351,1250,1185,112,-175,179,-313,335,3789,50,44,819,1774,1896,2096,2271,2067,1819,1897,2023
380820,24260,-8460,25482,-7286,982,1196,115,-184,171,-150,279,4190,48,46,818,1774,1896,2096,2271,2067,1819,1897,2023
381821,24328,-8416,25547,-7221,1129,1372,144,-151,151,277,244,4019,63,39,819,1774,1896,2096,2271,2067,1819,1897,2023
382822,24408,-8352,25612,-7156,961,1123,162,-151,141,600,-50,3790,61,47,817,1774,1896,2096,2271,2067,1819,1897,2023
383823,24460,-8312,25677,-7091,1327,1455,177,-115,122,480,225,4213,58,37,820,1779,1906,2105,2267,2067,1814,1895,2023
384824,24532,-8248,25742,-7026,1070,1156,179,-56,106,-307,290,3912,48,49,816,1779,1906,2105,2267,2067,1814,1895,2023
385825,24600,-8196,25807,-6961,1116,1323,175,13,98,-313,279,4245,55,37,819,1779,1906,2105,2267,2067,1814,1895,2023
386828,24660,-8132,25872,-6896,1222,1174,188,35,76,148,504,4195,53,37,818,1779,1906,2105,2267,2067,1814,1895,2023
387827,24728,-8064,25937,-6831,1119,1122,195,3,62,236,352,4080,39,45,818,1779,1906,2105,2267,2067,1814,1895,2023
388828,24768,-8036,26002,-6766,1500,1667,221,-45,50,565,126,4273,54,49,819,1773,1894,2085,2251,2044,1796,1873,1989
389829,24828,-7980,26067,-6701,1257,1329,257,-97,63,-406,108,4299,52,50,813,1773,1894,2085,2251,2044,1796,1873,1989
390830,24892,-7924,26132,-6636,1208,1340,260,-128,56,-1071,496,4203,48,39,815,1773,1894,2085,2251,2044,1796,1873,1989
391831,24960,-7848,26197,-6571,1156,1077,235,-62,59,-226,277,4245,61,39,816,1773,1894,2085,2251,2044,1796,1873,1989
392832,25000,-7804,26262,-6506,1536,1503,257,-63,60,295,335,4250,53,52,818,1773,1894,2085,2251,2044,1796,1873,1989
393833,25084,-7740,26327,-6441,964,1254,263,-149,69,-446,147,4204,63,48,813,1773,1894,2085,2251,2044,1796,1873,1989
394834,25140,-7672,26392,-6376,1325,1202,280,-128,49,-313,383,4716,55,43,817,1756,1876,2077,2247,2023,1786,1862,1979
395835,25192,-7616,26457,-6311,1392,1363,299,-80,40,227,259,3861,55,43,817,1756,1876,2077,2247,2023,1786,1862,1979
396836,25280,-7580,26522,-6246,914,1649,312,-99,62,108,182,4205,57,52,815,1756,1876,2077,2247,2023,1786,1862,1979
397837,25324,-7524,26587,-6181,1490,1410,327,-86,55,-274,494,4378,55,34,816,1756,1876,2077,2247,2023,1786,1862,1979
398838,25372,-7456,26652,-6116,1461,1257,323,-38,54,-81,175,3610,60,53,814,1756,1876,2077,2247,2023,1786,1862,1979
399839,25428,-7396,26717,-6051,1373,1363,338,-41,32,1512,439,4498,66,40,815,1774,1891,2093,2265,2031,1798,1876,1994
400840,25496,-7340,26782,-5986,1219,1425,368,15,25,392,332,3861,57,49,815,1774,1891,2093,2265,2031,1798,1876,1994
401841,25568,-7284,26847,-5921,1162,1437,362,-48,9,-652,397,4008,58,44,816,1774,1891,2093,2265,2031,1798,1876,1994
402842,25648,-7224,26912,-5856,1043,1393,396,34,-30,169,323,4429,55,52,816,1774,1891,2093,2265,2031,1798,1876,1994
403843,25716,-7164,26977,-5791,1191,1401,402,-9,-44,99,548,2982,52,55,817,1774,1891,2093,2265,2031,1798,1876,1994
404844,25796,-7092,27042,-5726,1022,1242,430,4,-74,-162,508,4718,39,56,816,1774,1891,2093,2265,2031,1798,1876,1994
405845,25844,-7028,27107,-5661,1443,1344,436,50,-89,-446,457,3775,50,40,818,1780,1899,2103,2271,2049,1800,1877,1999
406846,25916,-6964,27172,-5596,1136,1345,462,29,-99,96,650,4219,58,48,815,1780,1899,2103,2271,2049,1800,1877,1999
407847,25964,-6908,27237,-5531,1456,1457,476,81,-100,-67,448,4335,53,47,816,1780,1899,2103,2271,2049,1800,1877,1999
408848,26032,-6836,27302,-5466,1204,1249,488,79,-101,-608,424,3907,53,54,814,1780,1899,2103,2271,2049,1800,1877,1999
409849,26092,-6784,27367,-5401,1310,1516,478,84,-89,-165,445,4603,58,54,817,1780,1899,2103,2271,2049,1800,1877,1999
410850,26156,-6704,27432,-5336,1262,1147,490,84,-91,-135,528,3872,58,53,814,1772,1881,2080,2261,2036,1769,1831,1984
411851,26220,-6640,27497,-5271,1263,1350,492,10,-93,119,315,4264,48,44,817,1772,1881,2080,2261,2036,1769,1831,1984
412852,26288,-6584,27562,-5206,1211,1461,547,-65,-89,-162,96,4425,65,50,817,1772,1881,2080,2261,2036,1769,1831,1984
413853,26368,-6532,27627,-5141,1042,1527,559,-142,-101,-533,456,3796,63,44,816,1772,1881,2080,2261,2036,1769,1831,1984
414854,26424,-6464,27692,-5076,1354,1324,600,-85,-86,4,79,4684,53,41,816,1772,1881,2080,2261,2036,1769,1831,1984
415855,26496,-6396,27757,-5011,1146,1321,627,-116,-100,134,518,3913,54,40,815,1772,1881,2080,2261,2036,1769,1831,1984
416856,26568,-6360,27822,-4946,1138,1757,625,-119,-114,101,535,4292,64,49,817,1768,1896,2106,2271,2046,1798,1856,1984
417857,26628,-6308,27887,-4881,1294,1573,631,-14,-105,423,361,4369,49,47,814,1768,1896,2106,2271,2046,1798,1856,1984
418858,26680,-6260,27952,-4816,1411,1644,634,-59,-115,487,460,3458,53,36,814,1768,1896,2106,2271,2046,1798,1856,1984
419859,26732,-6200,28017,-4751,1427,1501,633,-34,-128,566,705,4732,66,38,813,1768,1896,2106,2271,2046,1798,1856,1984
420860,26804,-6168,28082,-4686,1170,1893,646,49,-147,872,732,3942,59,36,813,1768,1896,2106,2271,2046,1798,1856,1984
421861,26872,-6108,28147,-4621,1216,1549,656,45,-168,399,591,3955,63,35,812,1791,1917,2109,2271,2045,1791,1883,2009
422862,26968,-6044,28212,-4556,829,1501,671,12,-185,-233,621,4175,59,46,814,1791,1917,2109,2271,2045,1791,1883,2009
423863,27044,-5992,28277,-4491,1066,1667,678,12,-205,19,848,4207,56,41,817,1791,1917,2109,2271,2045,1791,1883,2009
424864,27124,-5960,28342,-4426,998,1958,699,57,-233,169,686,4221,43,25,815,1791,1917,2109,2271,2045,1791,1883,2009
425865,27204,-5928,28407,-4361,980,1998,709,48,-252,-482,543,3898,47,40,812,1791,1917,2109,2271,2045,1791,1883,2009
426866,27256,-5880,28472,-4296,1347,1820,737,26,-247,-932,344,4468,42,33,811,1791,1917,2109,2271,2045,1791,1883,2009
427867,27324,-5824,28537,-4231,1143,1732,754,-1,-231,-961,260,4362,44,36,809,1779,1897,2097,2264,2046,1797,1872,1997
428868,27372,-5768,28602,-4166,1414,1743,782,-7,-212,-752,309,4248,46,29,813,1779,1897,2097,2264,2046,1797,1872,1997
429869,27440,-5720,28667,-4101,1161,1865,787,-53,-198,-777,282,4220,53,30,812,1779,1897,2097,2264,2046,1797,1872,1997
430870,27508,-5676,28732,-4036,1158,1940,785,-128,-196,-457,505,3912,66,43,812,1779,1897,2097,2264,2046,1797,1872,1997
431871,27592,-5636,28797,-3971,935,2022,770,-227,-178,-144,467,3903,60,28,811,1779,1897,2097,2264,2046,1797,1872,1997
432872,27648,-5592,28862,-3906,1296,1999,760,-254,-176,-141,590,3731,50,35,811,1763,1889,2098,2261,2043,1802,1874,2003
433873,27708,-5540,28927,-3841,1254,1914,751,-244,-182,-209,703,3691,64,48,811,1763,1889,2098,2261,2043,1802,1874,2003
434874,27772,-5472,28992,-3776,1205,1712,752,-190,-189,304,514,3943,58,41,810,1763,1889,2098,2261,2043,1802,1874,2003
435875,27840,-5416,29057,-3711,1152,1874,773,-177,-180,341,423,3952,54,44,812,1763,1889,2098,2261,2043,1802,1874,2003
436876,27904,-5344,29122,-3646,1203,1665,774,-191,-189,-62,606,3975,67,39,813,1763,1889,2098,2261,2043,1802,1874,2003
437877,27948,-5280,29187,-3581,1480,1767,787,-147,-191,73,415,4116,56,41,813,1771,1887,2089,2243,2051,1798,1875,2014
438878,28004,-5228,29252,-3516,1341,1934,785,-155,-188,792,439,4038,57,57,812,1771,1887,2089,2243,2051,1798,1875,2014
439879,28084,-5164,29317,-3451,1024,1786,791,-144,-205,547,662,4131,56,56,810,1771,1887,2089,2243,2051,1798,1875,2014
440880,28184,-5076,29382,-3386,731,1458,803,-113,-220,-44,692,4261,66,52,812,1771,1887,2089,2243,2051,1798,1875,2014
441881,28260,-5000,29447,-3321,1017,1595,808,-117,-233,50,701,4082,50,46,816,1771,1887,2089,2243,2051,1798,1875,2014
442882,28352,-4932,29512,-3256,786,1692,817,-94,-255,113,716,4316,55,52,817,1771,1887,2089,2243,2051,1798,1875,2014
443883,28432,-4884,29577,-3191,917,1964,828,-98,-273,-435,794,4390,46,42,816,1743,1862,2057,2208,2048,1792,1870,2003
444884,28496,-4812,29642,-3126,1119,1656,831,-111,-299,-987,693,4586,45,50,814,1743,1862,2057,2208,2048,1792,1870,2003
445885,28568,-4748,29707,-3061,1011,1758,836,-86,-309,-862,488,4486,60,47,813,1743,1862,2057,2208,2048,1792,1870,2003
446886,28644,-4676,29772,-2996,948,1650,827,-95,-297,-1142,482,4259,46,54,813,1743,1862,2057,2208,2048,1792,1870,2003
447887,28696,-4592,29837,-2931,1264,1477,824,-150,-300,-833,757,4127,56,52,815,1743,1862,2057,2208,2048,1792,1870,2003
448888,28772,-4524,29902,-2866,952,1674,800,-221,-291,-3,739,4108,60,54,815,1736,1864,2069,2231,2047,1803,1881,2013
449889,28824,-4468,29967,-2801,1268,1836,786,-332,-277,-274,505,3410,60,50,815,1736,1864,2069,2231,2047,1803,1881,2013
450890,28892,-4400,30166,-2602,1915,2533,753,-449,-264,-1653,540,3824,48,38,813,1736,1864,2069,2231,2047,1803,1881,2013
451891,28972,-4336,30231,-2537,1747,2586,747,-459,-264,-1260,573,3931,68,49,805,1736,1864,2069,2231,2047,1803,1881,2013
452892,29060,-4264,30296,-2472,1619,2478,735,-435,-247,299,536,3655,75,39,799,1736,1864,2069,2231,2047,1803,1881,2013
453893,29136,-4188,30361,-2407,1757,2415,724,-424,-211,341,420,3602,65,60,801,1736,1864,2069,2231,2047,1803,1881,2013
454894,29228,-4084,30426,-2342,1524,2018,717,-441,-192,-404,557,3644,69,52,802,1770,1880,2088,2284,2093,1836,1913,2058
455895,29296,-4004,30491,-2277,1821,2301,730,-448,-205,-495,406,3849,87,59,805,1770,1880,2088,2284,2093,1836,1913,2058
456896,29444,-3912,30556,-2212,720,2118,756,-466,-210,717,519,3817,74,63,807,1770,1880,2088,2284,2093,1836,1913,2058
457897,29600,-3796,30621,-2147,510,1756,731,-487,-203,1207,507,3635,82,54,809,1770,1880,2088,2284,2093,1836,1913,2058
458898,29724,-3700,30686,-2082,838,1970,719,-435,-189,111,559,4168,66,57,816,1770,1880,2088,2284,2093,1836,1913,2058
459899,29840,-3600,30751,-2017,876,1877,718,-339,-217,-738,931,4221,79,70,816,1775,1895,2100,2231,2050,1792,1881,2024
460900,29916,-3488,30816,-1952,1363,1671,713,-310,-247,-1125,824,4096,80,64,814,1775,1895,2100,2231,2050,1792,1881,2024
461901,30016,-3408,30881,-1887,1020,2052,718,-362,-291,-196,782,5078,77,59,813,1775,1895,2100,2231,2050,1792,1881,2024
462902,30124,-3316,30946,-1822,868,1870,751,-430,-344,689,831,4751,74,59,812,1775,1895,2100,2231,2050,1792,1881,2024
463903,30224,-3216,31011,-1757,926,1728,769,-469,-368,432,1124,4667,64,56,813,1775,1895,2100,2231,2050,1792,1881,2024
464904,30340,-3120,31076,-1692,664,1741,766,-527,-381,-900,1316,4325,78,58,815,1775,1895,2100,2231,2050,1792,1881,2024
465905,30428,-3036,31141,-1627,986,1868,742,-617,-395,-1062,1253,4136,64,58,816,1732,1847,2047,2199,2046,1786,1863,1999
466906,30504,-2960,31206,-1562,1123,1955,715,-663,-413,-386,814,4223,68,64,815,1732,1847,2047,2199,2046,1786,1863,1999
467907,30584,-2876,31271,-1497,1055,1833,707,-672,-405,-821,965,4460,81,48,813,1732,1847,2047,2199,2046,1786,1863,1999
468908,30660,-2780,31336,-1432,1092,1645,717,-651,-363,-704,997,4399,65,54,813,1732,1847,2047,2199,2046,1786,1863,1999
469909,30728,-2684,31401,-1367,1188,1608,719,-677,-341,108,852,3694,63,63,814,1732,1847,2047,2199,2046,1786,1863,1999
470910,30816,-2616,31466,-1302,911,1955,702,-793,-321,-351,1090,3691,69,53,814,1751,1879,2089,2249,2062,1809,1887,2029
471911,30916,-2540,31531,-1237,718,1842,720,-780,-309,-1370,952,4375,77,48,813,1751,1879,2089,2249,2062,1809,1887,2029
472912,31024,-2456,31596,-1172,566,1719,747,-745,-280,-152,1044,3445,62,50,814,1751,1879,2089,2249,2062,1809,1887,2029
473913,31120,-2380,31661,-1107,678,1806,751,-739,-210,270,534,3990,72,54,815,1751,1879,2089,2249,2062,1809,1887,2029
474914,31216,-2324,31726,-1042,640,2067,755,-724,-163,-555,708,3961,64,45,816,1751,1879,2089,2249,2062,1809,1887,2029
475915,31300,-2252,31791,-977,768,1860,764,-708,-117,-1339,806,3961,51,53,815,1751,1879,2089,2249,2062,1809,1887,2029
476916,31396,-2164,31856,-912,580,1632,763,-767,-95,15,866,3938,66,43,813,1792,1920,2136,2287,2075,1817,1885,2029
477917,31476,-2104,31921,-847,762,1989,755,-823,-102,1188,1036,4161,52,44,815,1792,1920,2136,2287,2075,1817,1885,2029
478918,31536,-2044,31986,-782,1018,1995,767,-848,-111,169,1385,3747,65,39,816,1792,1920,2136,2287,2075,1817,1885,2029
479919,31604,-1968,32051,-717,914,1783,759,-851,-162,-498,1380,3740,64,40,812,1792,1920,2136,2287,2075,1817,1885,2029
480920,31672,-1896,32116,-652,910,1824,741,-849,-223,247,1297,3899,50,39,812,1792,1920,2136,2287,2075,1817,1885,2029
481921,31756,-1836,32181,-587,688,1980,712,-805,-249,982,1294,3981,51,37,815,1800,1907,2120,2265,2048,1786,1854,1992
482922,31804,-1764,32246,-522,1159,1823,691,-735,-260,532,1239,3666,65,35,814,1800,1907,2120,2265,2048,1786,1854,1992
483923,31880,-1700,32311,-457,796,1924,661,-741,-244,-245,1321,3472,52,46,813,1800,1907,2120,2265,2048,1786,1854,1992
484924,31952,-1640,32376,-392,837,1981,650,-787,-243,-148,1304,3625,57,46,812,1800,1907,2120,2265,2048,1786,1854,1992
485925,32020,-1560,32441,-327,883,1713,638,-854,-251,-191,952,3601,62,40,814,1800,1907,2120,2265,2048,1786,1854,1992
486926,32112,-1508,32506,-262,550,2079,647,-870,-253,-61,1394,4044,48,43,813,1800,1907,2120,2265,2048,1786,1854,1992
487927,32176,-1440,32571,-197,903,1876,639,-845,-227,-504,1260,3965,49,27,815,1744,1848,2053,2188,2036,1777,1836,1974
488928,32280,-1380,32636,-132,355,1983,636,-809,-203,-912,1109,3847,44,47,814,1744,1848,2053,2188,2036,1777,1836,1974
489929,32336,-1320,32701,-67,966,1989,637,-754,-166,-794,1213,4032,56,36,813,1744,1848,2053,2188,2036,1777,1836,1974
490930,32396,-1260,32766,-2,922,1996,630,-686,-102,-368,1032,3767,42,34,816,1744,1848,2053,2188,2036,1777,1836,1974
491931,32460,-1200,32831,63,873,2002,626,-665,-28,-92,1060,3592,48,42,812,1744,1848,2053,2188,2036,1777,1836,1974
492932,32516,-1128,32896,128,984,1845,617,-711,39,-304,1194,3441,60,45,813,1677,1797,2015,2148,2053,1796,1852,1996
493933,32616,-1060,32961,193,392,1891,611,-713,89,-218,1142,3715,55,41,813,1677,1797,2015,2148,2053,1796,1852,1996
494934,32668,-992,33026,258,1009,1888,614,-697,139,-267,1126,3236,48,49,813,1677,1797,2015,2148,2053,1796,1852,1996
495935,32740,-924,33091,323,750,1885,616,-665,190,-305,1251,3362,46,53,816,1677,1797,2015,2148,2053,1796,1852,1996
496936,32804,-872,33156,388,851,2102,617,-649,228,-26,1302,3334,47,41,812,1677,1797,2015,2148,2053,1796,1852,1996
497937,32876,-780,33221,453,743,1569,613,-671,265,127,1316,3093,45,40,815,1677,1797,2015,2148,2053,1796,1852,1996
498938,32936,-700,33286,518,899,1701,604,-695,278,101,1487,3206,62,49,812,1669,1792,2042,2185,2080,1808,1872,2016
499939,32996,-608,33351,583,905,1518,588,-720,293,-14,1456,3068,48,53,817,1669,1792,2042,2185,2080,1808,1872,2016
500940,33068,-556,33416,648,746,2034,552,-709,284,282,1441,3262,50,57,815,1669,1792,2042,2185,2080,1808,1872,2016
501941,33132,-492,33481,713,848,1886,510,-706,255,367,1362,3018,63,54,817,1669,1792,2042,2185,2080,1808,1872,2016
502942,33200,-420,33546,778,795,1778,450,-671,224,283,1454,3423,49,57,813,1669,1792,2042,2185,2080,1808,1872,2016
503943,33280,-324,33611,843,627,1441,406,-629,196,385,1599,3402,46,57,814,1741,1849,2079,2219,2069,1803,1859,2003
504944,33348,-236,33676,908,773,1513,361,-625,192,409,1420,3345,51,52,815,1741,1849,2079,2219,2069,1803,1859,2003
505945,33432,-184,33741,973,550,1980,315,-633,198,726,1245,3433,45,41,819,1741,1849,2079,2219,2069,1803,1859,2003
506946,33516,-108,33806,1038,527,1666,264,-645,185,264,1358,3432,42,38,818,1741,1849,2079,2219,2069,1803,1859,2003
507947,33568,-36,33871,1103,942,1709,221,-661,197,-737,1221,3485,58,40,815,1741,1849,2079,2219,2069,1803,1859,2003
508948,33636,44,33936,1168,739,1591,180,-623,239,-668,1159,3835,53,41,818,1741,1849,2079,2219,2069,1803,1859,2003
509949,33696,124,34001,1233,845,1572,145,-605,284,-156,1212,3625,44,41,815,1724,1835,2056,2176,2053,1786,1846,2004
510950,33756,192,34066,1298,852,1720,118,-597,339,-166,1059,3725,41,55,817,1724,1835,2056,2176,2053,1786,1846,2004
511951,33824,248,34131,1363,748,1881,91,-636,405,-418,1174,3762,59,54,816,1724,1835,2056,2176,2053,1786,1846,2004
512952,33900,312,34196,1428,635,1783,71,-688,457,-408,1247,3683,57,50,814,1724,1835,2056,2176,2053,1786,1846,2004
513953,33976,396,34261,1493,621,1510,42,-725,518,-477,1085,3590,51,45,814,1724,1835,2056,2176,2053,1786,1846,2004
514954,34040,476,34326,1558,773,1542,24,-758,599,-562,1188,3679,62,56,816,1675,1806,2029,2137,2089,1821,1882,2050
515955,34096,552,34391,1623,884,1579,0,-767,656,-347,1311,3608,51,46,819,1675,1806,2029,2137,2089,1821,1882,2050
516956,34160,628,34456,1688,785,1565,-25,-782,693,-185,1259,3549,59,53,818,1675,1806,2029,2137,2089,1821,1882,2050
517957,34224,696,34521,1753,786,1663,-68,-803,716,-90,1405,3677,47,44,816,1675,1806,2029,2137,2089,1821,1882,2050
518958,34296,764,34586,1818,678,1659,-108,-812,728,22,1569,3569,46,48,817,1675,1806,2029,2137,2089,1821,1882,2050
519959,34376,824,34651,1883,560,1766,-152,-816,714,76,1595,3581,53,46,816,1675,1806,2029,2137,2089,1821,1882,2050
520960,34436,912,34716,1948,816,1388,-202,-794,696,439,1567,3616,46,46,816,1675,1807,2035,2151,2137,1856,1911,2079
521961,34504,996,34781,2013,713,1415,-250,-787,693,484,1548,3547,47,57,817,1675,1807,2035,2151,2137,1856,1911,2079
522962,34576,1076,34846,2078,654,1448,-291,-795,679,391,1637,3533,63,43,818,1675,1807,2035,2151,2137,1856,1911,2079
523963,34636,1152,34911,2143,810,1484,-325,-800,658,335,1590,3526,51,51,819,1675,1807,2035,2151,2137,1856,1911,2079
524964,34712,1212,34976,2208,597,1690,-354,-808,637,391,1449,3464,58,38,819,1675,1807,2035,2151,2137,1856,1911,2079
525965,34788,1284,35041,2273,583,1533,-392,-820,613,543,1387,3534,48,46,818,1705,1825,2060,2178,2139,1856,1901,2061
526966,34876,1344,35106,2338,405,1689,-435,-832,614,317,1407,3596,60,42,816,1705,1825,2060,2178,2139,1856,1901,2061
527967,34940,1428,35171,2403,706,1367,-480,-810,630,-83,1394,3697,48,47,819,1705,1825,2060,2178,2139,1856,1901,2061
528968,35012,1484,35236,2468,598,1728,-523,-791,653,-288,1163,3526,57,41,818,1705,1825,2060,2178,2139,1856,1901,2061
529969,35080,1552,35301,2533,644,1574,-557,-803,683,-83,1205,3752,48,49,818,1705,1825,2060,2178,2139,1856,1901,2061
530970,35168,1624,35366,2598,367,1516,-573,-833,733,153,1075,3595,62,53,816,1705,1825,2060,2178,2139,1856,1901,2061
531971,35224,1688,35431,2663,778,1618,-608,-850,789,-123,1060,3618,42,54,818,1708,1828,2067,2183,2091,1819,1859,2012
532972,35296,1772,35496,2728,570,1344,-638,-861,838,-487,1192,3627,54,43,820,1708,1828,2067,2183,2091,1819,1859,2012
533973,35352,1848,35561,2793,781,1432,-677,-877,884,-401,1244,3759,56,46,817,1708,1828,2067,2183,2091,1819,1859,2012
534974,35412,1924,35626,2858,737,1419,-724,-877,921,-206,1198,3759,57,57,820,1708,1828,2067,2183,2091,1819,1859,2012
535975,35492,2000,35691,2923,468,1405,-774,-833,968,-84,1264,3850,44,58,819,1708,1828,2067,2183,2091,1819,1859,2012
536976,35556,2060,35756,2988,670,1612,-841,-781,1003,10,1395,3906,44,53,819,1699,1829,2059,2176,2048,1792,1849,1994
537977,35616,2124,35821,3053,726,1564,-903,-735,1026,79,1456,3755,50,43,820,1699,1829,2059,2176,2048,1792,1849,1994
538978,35704,2200,35886,3118,348,1401,-950,-667,1047,265,1552,3889,47,53,818,1699,1829,2059,2176,2048,1792,1849,1994
539979,35772,2272,35951,3183,594,1443,-999,-611,1058,373,1641,3681,57,43,818,1699,1829,2059,2176,2048,1792,1849,1994
540980,35828,2344,36016,3248,755,1434,-1027,-557,1059,414,1549,3802,48,44,821,1699,1829,2059,2176,2048,1792,1849,1994
541981,35892,2416,36081,3313,656,1426,-1038,-496,1050,571,1599,3624,45,59,820,1699,1829,2059,2176,2048,1792,1849,1994
542982,35940,2480,36146,3378,877,1528,-1048,-477,1049,401,1410,3552,46,60,819,1692,1814,2048,2176,2089,1829,1867,2029
543983,36012,2576,36211,3443,568,1090,-1030,-437,1052,315,1326,3845,46,61,819,1692,1814,2048,2176,2089,1829,1867,2029
544984,36084,2676,36276,3508,561,998,-1004,-418,1070,666,1579,3423,48,49,817,1692,1814,2048,2176,2089,1829,1867,2029
545985,36168,2760,36341,3573,388,1175,-944,-433,1081,803,1393,3561,56,53,823,1692,1814,2048,2176,2089,1829,1867,2029
546986,36232,2844,36406,3638,639,1152,-910,-507,1073,336,1190,3533,46,39,823,1692,1814,2048,2176,2089,1829,1867,2029
547987,36296,2896,36471,3703,640,1569,-864,-553,1065,-57,1218,3601,46,44,821,1701,1818,2058,2191,2110,1844,1883,2017
548988,36364,2972,36536,3768,586,1255,-838,-567,1072,280,1333,3531,57,53,822,1701,1818,2058,2191,2110,1844,1883,2017
549989,36428,3048,36601,3833,638,1242,-827,-568,1096,532,1400,3596,39,50,819,1701,1818,2058,2191,2110,1844,1883,2017
550990,36492,3112,36666,3898,639,1393,-824,-566,1129,544,1484,3474,40,50,821,1701,1818,2058,2191,2110,1844,1883,2017
551991,36560,3200,36731,3963,585,1066,-835,-581,1151,450,1541,3467,42,55,821,1701,1818,2058,2191,2110,1844,1883,2017
552992,36636,3276,36796,4028,472,1202,-855,-578,1165,358,1482,3451,43,54,820,1701,1818,2058,2191,2110,1844,1883,2017
553993,36712,3348,36861,4093,458,1244,-885,-560,1193,446,1394,3488,49,43,823,1736,1863,2089,2235,2016,1765,1827,1947
554994,36780,3404,36926,4158,555,1456,-921,-506,1232,604,1334,3514,45,43,822,1736,1863,2089,2235,2016,1765,1827,1947
555995,36844,3480,36991,4223,606,1192,-965,-475,1272,600,1378,3429,56,45,823,1736,1863,2089,2235,2016,1765,1827,1947
556996,36900,3552,37056,4288,717,1234,-992,-435,1310,498,1338,3500,51,56,820,1736,1863,2089,2235,2016,1765,1827,1947
557997,36984,3648,37121,4353,344,896,-1007,-414,1343,551,1205,3438,38,48,821,1736,1863,2089,2235,2016,1765,1827,1947
558998,37032,3720,37186,4418,814,1189,-996,-399,1363,595,1197,3504,40,57,821,1780,1914,2111,2252,1964,1724,1802,1930
559999,37100,3796,37251,4483,561,1125,-980,-401,1375,534,1127,3563,41,53,825,1780,1914,2111,2252,1964,1724,1802,1930
561000,37168,3888,37316,4548,558,892,-964,-410,1372,335,982,3611,57,63,821,1780,1914,2111,2252,1964,1724,1802,1930
562001,37240,3968,37381,4613,500,1024,-921,-401,1399,451,1088,3637,59,53,823,1780,1914,2111,2252,1964,1724,1802,1930
563002,37296,4052,37446,4678,711,952,-869,-387,1415,808,1032,3482,43,59,824,1780,1914,2111,2252,1964,1724,1802,1930
564005,37364,4148,37511,4743,557,764,-820,-414,1401,566,981,3452,41,47,823,1780,1914,2111,2252,1964,1724,1802,1930
565004,37424,4244,37576,4808,663,726,-775,-458,1383,287,1045,3615,56,47,822,1754,1887,2087,2218,1995,1753,1823,1952
566005,37500,4312,37641,4873,450,1072,-736,-485,1376,329,1047,3413,41,50,825,1754,1887,2087,2218,1995,1753,1823,1952
567006,37572,4388,37706,4938,491,960,-700,-497,1361,704,1161,3422,57,46,825,1754,1887,2087,2218,1995,1753,1823,1952
568007,37648,4476,37771,5003,428,782,-672,-512,1354,821,1227,3432,57,50,824,1754,1887,2087,2218,1995,1753,1823,1952
569008,37728,4560,37836,5068,359,809,-645,-512,1342,755,1281,3149,52,62,825,1754,1887,2087,2218,1995,1753,1823,1952
570009,37780,4652,37901,5133,725,676,-631,-533,1324,553,1339,3158,46,59,826,1739,1871,2071,2217,2020,1779,1848,1967
571010,37844,4728,37966,5198,576,862,-619,-541,1316,569,1351,3371,40,49,826,1739,1871,2071,2217,2020,1779,1848,1967
572011,37924,4808,38031,5263,358,795,-611,-535,1327,663,1295,3131,41,51,825,1739,1871,2071,2217,2020,1779,1848,1967
573012,37984,4872,38096,5328,614,996,-616,-516,1328,829,1324,3057,56,44,825,1739,1871,2071,2217,2020,1779,1848,1967
574013,38036,4952,38161,5393,730,778,-618,-488,1336,745,1078,3409,48,52,826,1739,1871,2071,2217,2020,1779,1848,1967
575014,38128,5040,38226,5458,197,650,-600,-456,1352,551,1110,3306,59,65,823,1739,1871,2071,2217,2020,1779,1848,1967
576015,38208,5144,38291,5523,329,402,-593,-432,1375,496,1025,3120,46,52,824,1741,1875,2065,2211,2011,1775,1846,1964
577016,38296,5220,38356,5588,201,739,-572,-407,1410,502,888,3303,43,46,828,1741,1875,2065,2211,2011,1775,1846,1964
578017,38360,5308,38421,5653,502,561,-560,-400,1428,610,815,3212,48,59,828,1741,1875,2065,2211,2011,1775,1846,1964
579018,38420,5400,38486,5718,558,479,-539,-392,1439,186,580,3376,43,54,827,1741,1875,2065,2211,2011,1775,1846,1964
580019,38492,5464,38551,5783,400,830,-507,-368,1441,27,659,3548,59,57,827,1741,1875,2065,2211,2011,1775,1846,1964
581020,38580,5560,38616,5848,171,392,-486,-356,1454,178,593,3282,44,61,825,1716,1856,2049,2180,1999,1758,1820,1945
582021,38640,5636,38681,5913,528,629,-470,-332,1456,377,528,3427,43,50,825,1716,1856,2049,2180,1999,1758,1820,1945
583022,38716,5712,38746,5978,314,615,-475,-338,1442,307,546,3377,44,48,829,1716,1856,2049,2180,1999,1758,1820,1945
584023,38776,5796,38811,6043,520,492,-470,-328,1407,124,516,3410,60,49,827,1716,1856,2049,2180,1999,1758,1820,1945
585024,38856,5860,38876,6108,252,743,-455,-309,1373,164,580,3570,57,48,828,1716,1856,2049,2180,1999,1758,1820,1945
586025,38944,5956,38941,6173,124,305,-443,-256,1351,479,648,3516,49,55,827,1716,1856,2049,2180,1999,1758,1820,1945
587026,39008,6036,39006,6238,425,487,-465,-218,1327,616,648,3160,61,59,827,1700,1842,2034,2160,1990,1747,1808,1936
588027,39104,6116,39071,6303,-13,470,-483,-166,1299,493,795,3198,48,58,830,1700,1842,2034,2160,1990,1747,1808,1936
589028,39172,6188,39136,6368,334,561,-509,-128,1272,324,733,3185,58,58,828,1700,1842,2034,2160,1990,1747,1808,1936
590029,39244,6268,39201,6433,275,443,-527,-80,1231,412,711,3176,59,60,830,1700,1842,2034,2160,1990,1747,1808,1936
591030,39336,6384,39266,6498,-8,-69,-551,-48,1199,542,715,3200,57,52,828,1700,1842,2034,2160,1990,1747,1808,1936
592031,39404,6460,39331,6563,288,417,-552,1,1193,623,804,3021,59,64,829,1703,1847,2027,2163,2023,1783,1854,1978
593032,39484,6564,39396,6628,120,20,-554,4,1182,475,774,3028,54,55,831,1703,1847,2027,2163,2023,1783,1854,1978
594033,39560,6636,39461,6693,157,411,-560,2,1162,158,544,2946,57,46,829,1703,1847,2027,2163,2023,1783,1854,1978
595034,39628,6732,39526,6758,253,73,-561,-17,1145,170,696,3048,56,45,831,1703,1847,2027,2163,2023,1783,1854,1978
596035,39716,6812,39591,6823,-25,255,-562,-24,1150,267,411,3003,54,53,830,1703,1847,2027,2163,2023,1783,1854,1978
597036,39792,6900,39656,6888,111,127,-563,-12,1150,385,418,3272,57,54,830,1703,1847,2027,2163,2023,1783,1854,1978
598037,39896,6992,39721,6953,-286,44,-556,-10,1146,244,243,3217,58,59,830,1683,1825,2013,2147,2054,1811,1871,1997
599038,40028,7108,39786,7018,-718,-318,-551,-6,1146,179,279,3319,58,59,830,1683,1825,2013,2147,2054,1811,1871,1997
600039,40152,7244,39851,7083,-690,-655,-539,26,1159,276,57,3490,41,48,832,1683,1825,2013,2147,2054,1811,1871,1997
601040,40288,7368,39916,7148,-927,-577,-538,65,1167,600,171,3375,46,41,830,1683,1825,2013,2147,2054,1811,1871,1997
602041,40400,7444,39981,7213,-684,10,-520,76,1166,440,264,3409,36,50,828,1683,1825,2013,2147,2054,1811,1871,1997
603042,40448,7500,40046,7278,136,271,-530,35,1102,-88,92,3363,47,39,829,1661,1812,2002,2128,2020,1800,1859,1987
604043,40512,7568,40111,7343,-63,116,-528,-13,1030,-292,375,3287,57,50,832,1661,1812,2002,2128,2020,1800,1859,1987
605044,40584,7644,40176,7408,-172,2,-540,-47,1010,243,449,3463,46,40,830,1661,1812,2002,2128,2020,1800,1859,1987
606045,40664,7716,40241,7473,-290,44,-555,-52,974,581,490,3115,52,45,830,1661,1812,2002,2128,2020,1800,1859,1987
607046,40720,7792,40306,7538,21,-20,-588,-66,920,215,297,3187,54,46,824,1661,1812,2002,2128,2020,1800,1859,1987
608047,40812,7844,40371,7603,-462,296,-616,-102,892,-90,210,3079,39,39,832,1661,1812,2002,2128,2020,1800,1859,1987
609048,40880,7924,40436,7668,-166,-72,-617,-71,878,324,21,3401,53,47,832,1681,1839,2019,2148,2003,1755,1847,1981
610049,40952,8008,40501,7733,-225,-145,-661,-55,849,443,-136,3116,40,50,831,1681,1839,2019,2148,2003,1755,1847,1981
611050,41024,8096,40566,7798,-234,-223,-688,-45,839,169,-112,3609,49,47,832,1681,1839,2019,2148,2003,1755,1847,1981
612053,41088,8164,40631,7863,-132,23,-697,-37,837,278,-46,3293,47,41,821,1681,1839,2019,2148,2003,1755,1847,1981
613052,41152,8236,40696,7928,-131,-35,-689,-26,825,359,-175,3606,53,43,831,1681,1839,2019,2148,2003,1755,1847,1981
614053,41212,8304,40761,7993,-75,10,-699,6,810,505,-370,3603,43,53,829,1712,1869,2041,2170,1980,1774,1846,1989
615054,41272,8384,40826,8058,-70,-158,-719,31,797,380,-109,3800,39,40,825,1712,1869,2041,2170,1980,1774,1846,1989
616055,41340,8440,40891,8123,-174,153,-739,79,795,-34,-93,4007,45,53,829,1712,1869,2041,2170,1980,1774,1846,1989
617056,41428,8524,40956,8188,-452,-221,-765,133,787,93,-115,3833,39,57,830,1712,1869,2041,2170,1980,1774,1846,1989
618057,41508,8584,41021,8253,-370,85,-787,136,767,59,-101,3963,58,44,824,1712,1869,2041,2170,1980,1774,1846,1989
619058,41568,8652,41086,8318,-114,-18,-800,69,752,-158,-228,3718,41,52,831,1712,1869,2041,2170,1980,1774,1846,1989
620059,41632,8728,41151,8383,-164,-132,-792,-26,735,-472,-153,3698,54,50,831,1722,1871,2046,2196,2032,1797,1888,2007
621060,41716,8804,41216,8448,-437,-145,-783,-113,723,-696,-204,3585,42,44,827,1722,1871,2046,2196,2032,1797,1888,2007
622061,41796,8888,41281,8513,-405,-269,-761,-156,721,-180,-436,3792,58,53,824,1722,1871,2046,2196,2032,1797,1888,2007
623062,41880,8952,41346,8578,-478,-18,-742,-183,726,22,-546,3801,58,42,831,1722,1871,2046,2196,2032,1797,1888,2007
624063,41960,9028,41411,8643,-447,-181,-725,-198,725,-107,-592,3928,58,50,831,1722,1871,2046,2196,2032,1797,1888,2007
625064,42048,9096,41476,8708,-576,-85,-706,-152,720,-180,-527,4098,55,48,832,1734,1839,2039,2226,2099,1843,1919,2031
626065,42116,9176,41541,8773,-329,-253,-705,-91,728,74,-583,4106,60,55,829,1734,1839,2039,2226,2099,1843,1919,2031
627066,42204,9252,41606,8838,-607,-217,-693,-54,731,732,-400,3979,63,42,831,1734,1839,2039,2226,2099,1843,1919,2031
628067,42276,9344,41671,8903,-416,-451,-666,-39,702,382,-605,3878,58,46,831,1734,1839,2039,2226,2099,1843,1919,2031
629068,42360,9392,41736,8968,-589,120,-639,-50,659,-153,-504,3767,53,49,831,1734,1839,2039,2226,2099,1843,1919,2031
630069,42440,9484,41801,9033,-559,-463,-608,-69,634,9,-369,3820,59,41,829,1734,1839,2039,2226,2099,1843,1919,2031
631070,42528,9548,41866,9098,-687,-112,-581,-77,629,254,-610,3604,54,44,832,1763,1894,2080,2256,2061,1821,1892,1992
632071,42608,9636,41931,9163,-605,-440,-571,-86,626,111,-638,3601,52,58,828,1763,1894,2080,2256,2061,1821,1892,1992
633072,42692,9692,41996,9228,-678,-29,-570,-107,636,-221,-682,3653,54,53,830,1763,1894,2080,2256,2061,1821,1892,1992
634073,42780,9788,42061,9293,-757,-568,-579,-93,652,-109,-706,3902,68,52,829,1763,1894,2080,2256,2061,1821,1892,1992
635074,42888,9876,42126,9358,-1060,-496,-598,-48,680,160,-683,3946,53,55,832,1763,1894,2080,2256,2061,1821,1892,1992
636075,42972,9944,42191,9423,-783,-249,-624,15,697,198,-781,4146,67,50,829,1784,1916,2087,2258,1981,1751,1836,1931
637076,43068,10012,42256,9488,-972,-253,-652,77,722,66,-918,4188,59,42,829,1784,1916,2087,2258,1981,1751,1836,1931
638077,43188,10084,42321,9553,-1339,-312,-683,112,736,14,-977,4199,57,36,831,1784,1916,2087,2258,1981,1751,1836,1931
639078,43260,10148,42386,9618,-747,-211,-722,133,745,-65,-1028,4365,69,38,831,1784,1916,2087,2258,1981,1751,1836,1931
640079,43376,10204,42451,9683,-1361,-100,-751,110,741,211,-980,4165,72,40,831,1784,1916,2087,2258,1981,1751,1836,1931
641080,43484,10260,42516,9748,-1313,-89,-769,103,728,-311,-960,4229,55,46,832,1784,1916,2087,2258,1981,1751,1836,1931
642081,43600,10324,42581,9813,-1475,-188,-787,63,709,-349,-968,4002,64,44,832,1775,1880,2071,2246,1985,1771,1855,1961
643082,43712,10388,42646,9878,-1484,-187,-780,27,689,209,-1207,4436,73,50,831,1775,1880,2071,2246,1985,1771,1855,1961
644083,43812,10452,42711,9943,-1376,-187,-760,-1,680,274,-1175,4026,63,43,831,1775,1880,2071,2246,1985,1771,1855,1961
645084,43920,10504,42776,10008,-1530,-21,-740,-43,669,36,-1220,4127,77,37,831,1775,1880,2071,2246,1985,1771,1855,1961
646085,44032,10580,42841,10073,-1637,-334,-729,-53,650,91,-1334,4449,65,51,831,1775,1880,2071,2246,1985,1771,1855,1961
647086,44136,10632,42906,10138,-1585,-19,-722,-51,657,387,-1373,3966,75,41,826,1753,1880,2076,2256,2117,1888,1947,2073
648087,44244,10700,42971,10203,-1688,-222,-721,-47,658,778,-1206,4013,73,53,831,1753,1880,2076,2256,2117,1888,1947,2073
649088,44384,10772,43036,10268,-2180,-282,-722,-72,647,914,-1336,3958,77,35,832,1753,1880,2076,2256,2117,1888,1947,2073
650089,44488,10832,43101,10333,-1779,-126,-743,-109,641,773,-1327,3963,80,44,830,1753,1880,2076,2256,2117,1888,1947,2073
651090,44604,10904,43166,10398,-1991,-284,-758,-120,639,397,-1086,3882,70,43,827,1753,1880,2076,2256,2117,1888,1947,2073
652091,44732,10972,43231,10463,-2219,-238,-784,-87,641,674,-1132,4160,81,34,832,1753,1880,2076,2256,2117,1888,1947,2073
653092,44836,11028,43296,10528,-1967,-77,-800,-85,632,1032,-1238,4046,68,39,831,1775,1903,2109,2292,2181,1937,1997,2102
654093,44956,11096,43361,10593,-2235,-232,-810,-148,620,614,-1057,3889,67,31,832,1775,1903,2109,2292,2181,1937,1997,2102
655094,45080,11152,43426,10658,-2358,-71,-819,-214,607,291,-1139,4413,81,38,830,1775,1903,2109,2292,2181,1937,1997,2102
656095,45188,11200,43491,10723,-2210,50,-857,-247,617,356,-1339,4086,89,36,831,1775,1903,2109,2292,2181,1937,1997,2102
657096,45324,11264,43556,10788,-2648,-149,-875,-307,617,756,-1192,4065,73,46,832,1775,1903,2109,2292,2181,1937,1997,2102
658097,45440,11316,43621,10853,-2461,17,-895,-384,597,485,-1263,4219,68,40,832,1772,1906,2096,2276,2124,1842,1939,2039
659098,45556,11384,43686,10918,-2523,-186,-931,-460,569,59,-1290,4130,73,39,830,1772,1906,2096,2276,2124,1842,1939,2039
660099,45700,11444,43751,10983,-2971,-81,-959,-483,534,91,-1242,4519,79,40,832,1772,1906,2096,2276,2124,1842,1939,2039
661100,45808,11512,43816,11048,-2574,-185,-973,-502,510,629,-1219,4372,80,51,832,1772,1906,2096,2276,2124,1842,1939,2039
662101,45948,11568,43881,11113,-3067,-24,-950,-581,474,567,-1517,4309,86,50,832,1772,1906,2096,2276,2124,1842,1939,2039
663102,46080,11628,43946,11178,-3048,-68,-932,-658,456,41,-1609,4369,72,52,831,1762,1904,2064,2249,2042,1799,1883,1994
664103,46204,11692,44011,11243,-3022,-117,-913,-659,442,642,-1596,4836,84,43,832,1762,1904,2064,2249,2042,1799,1883,1994
665104,46360,11772,44076,11308,-3534,-336,-920,-626,432,799,-1557,4311,81,54,832,1762,1904,2064,2249,2042,1799,1883,1994
666105,46468,11820,44141,11373,-2987,85,-960,-588,418,844,-1391,4467,74,51,831,1762,1904,2064,2249,2042,1799,1883,1994
667106,46596,11884,44206,11438,-3315,-114,-1005,-575,396,645,-1255,4325,87,50,829,1762,1904,2064,2249,2042,1799,1883,1994
668107,46728,11948,44271,11503,-3448,-113,-1065,-605,367,359,-987,3826,94,55,832,1762,1904,2064,2249,2042,1799,1883,1994
669108,46864,12024,44336,11568,-3585,-276,-1112,-633,340,640,-1062,4311,84,26,832,1789,1934,2107,2287,2021,1800,1893,1993
670109,46944,12092,44401,11633,-2905,-180,-1147,-654,335,706,-1146,3945,88,50,832,1789,1934,2107,2287,2021,1800,1893,1993
671110,47136,12156,44466,11698,-3800,-130,-1157,-704,319,218,-1195,3892,77,42,831,1789,1934,2107,2287,2021,1800,1893,1993
672111,47240,12212,44531,11763,-3409,-19,-1149,-693,316,302,-1564,4638,76,49,832,1789,1934,2107,2287,2021,1800,1893,1993
673112,47356,12284,44596,11828,-3623,-227,-1094,-694,278,1296,-1410,4997,77,48,832,1789,1934,2107,2287,2021,1800,1893,1993
674113,47500,12356,44661,11893,-3800,-236,-1019,-697,250,629,-1634,4642,84,41,832,1816,1940,2130,2332,2094,1880,1952,2044
675114,47600,12424,44726,11958,-3564,-189,-915,-613,178,917,-1470,5787,83,53,831,1816,1940,2130,2332,2094,1880,1952,2044
676115,47724,12484,44791,12023,-3800,-83,-813,-623,88,1121,-1125,4750,75,38,870,1816,1940,2130,2332,2094,1880,1952,2044
677116,47860,12552,44856,12088,-3800,-188,-698,-712,13,450,-1150,4831,86,44,832,1816,1940,2130,2332,2094,1880,1952,2044
678117,47968,12608,44921,12153,-3800,-27,-586,-793,-81,255,-1045,4800,80,50,832,1816,1940,2130,2332,2094,1880,1952,2044
679118,48084,12660,44986,12218,-3800,39,-483,-893,-134,-18,-1071,4368,86,40,832,1816,1940,2130,2332,2094,1880,1952,2044
680119,48240,12720,45051,12283,-3800,-55,-391,-950,-139,-22,-1318,4224,67,39,826,1827,1943,2156,2406,2093,1878,1933,1998
681120,48316,12800,45116,12348,-3669,-323,-347,-897,-146,343,-1321,4475,71,51,832,1827,1943,2156,2406,2093,1878,1933,1998
682121,48452,12848,45181,12413,-3800,96,-361,-813,-160,981,-1066,4709,69,49,832,1827,1943,2156,2406,2093,1878,1933,1998
683122,48552,12912,45246,12478,-3800,-102,-432,-625,-138,1026,-1490,4444,67,53,829,1827,1943,2156,2406,2093,1878,1933,1998
684123,48668,12976,45311,12543,-3800,-101,-524,-409,-143,1578,-1133,5175,71,43,827,1827,1943,2156,2406,2093,1878,1933,1998
685124,48784,13040,45376,12608,-3800,-100,-611,-209,-149,1213,-1340,5118,67,39,832,1931,2048,2224,2488,1956,1768,1862,1907
686125,48864,13096,45441,12673,-3800,11,-683,-64,-144,978,-1792,5231,80,53,832,1931,2048,2224,2488,1956,1768,1862,1907
687126,49000,13160,45506,12738,-3800,-88,-690,67,-141,773,-1889,5423,61,37,832,1931,2048,2224,2488,1956,1768,1862,1907
688127,49108,13232,45571,12803,-3800,-197,-664,91,-141,92,-2080,5341,67,50,830,1931,2048,2224,2488,1956,1768,1862,1907
689128,49208,13288,45636,12868,-3800,14,-576,36,-179,-182,-2060,5410,61,44,832,1931,2048,2224,2488,1956,1768,1862,1907
690129,49328,13348,45701,12933,-3800,-30,-467,-57,-200,-460,-2466,5351,73,43,832,1931,2048,2224,2488,1956,1768,1862,1907
691130,49420,13400,45766,12998,-3800,86,-342,-86,-241,52,-2403,5681,71,46,832,1881,1983,2170,2403,1999,1806,1875,1954
692131,49532,13464,45831,13063,-3800,-63,-224,-93,-284,299,-2316,5379,61,38,832,1881,1983,2170,2403,1999,1806,1875,1954
693132,49628,13532,45896,13128,-3800,-117,-105,-23,-320,489,-2441,5501,71,46,832,1881,1983,2170,2403,1999,1806,1875,1954
694133,49732,13584,45961,13193,-3800,99,5,77,-352,1004,-2070,5615,53,49,832,1881,1983,2170,2403,1999,1806,1875,1954
695134,49820,13644,46026,13258,-3800,4,94,175,-408,1169,-1758,5152,54,48,832,1881,1983,2170,2403,1999,1806,1875,1954
696135,49908,13704,46091,13323,-3800,10,156,281,-462,1651,-1600,5140,65,44,832,1820,1936,2106,2365,2072,1849,1939,2014
697136,50000,13756,46156,13388,-3800,126,188,401,-497,1805,-1563,4434,49,45,832,1820,1936,2106,2365,2072,1849,1939,2014
698137,50112,13824,46221,13453,-3800,-77,191,479,-525,1507,-1149,3918,45,49,832,1820,1936,2106,2365,2072,1849,1939,2014
699138,50184,13876,46286,13518,-3800,138,185,525,-534,1114,-1119,3513,56,35,832,1820,1936,2106,2365,2072,1849,1939,2014
700139,50248,13944,46351,13583,-3800,-65,159,528,-531,1135,-1033,3488,57,43,831,1820,1936,2106,2365,2072,1849,1939,2014
701140,50332,14004,46550,13782,-3800,204,132,527,-525,1200,-1014,3330,46,36,831,1820,1936,2106,2365,2072,1849,1939,2014
702141,50408,14076,46615,13847,-3800,45,127,496,-521,1063,-881,3355,55,62,832,1867,1978,2153,2407,2059,1835,1931,1983
703142,50476,14120,46680,13912,-3800,421,130,464,-491,543,-1405,3205,48,34,832,1867,1978,2153,2407,2059,1835,1931,1983
704143,50528,14176,46745,13977,-3800,282,136,426,-462,689,-1514,3641,51,34,832,1867,1978,2153,2407,2059,1835,1931,1983
705144,50600,14220,46810,14042,-3800,457,163,387,-427,844,-1675,3619,44,37,831,1867,1978,2153,2407,2059,1835,1931,1983
706145,50676,14252,46875,14107,-3800,647,216,337,-401,791,-1674,3813,44,41,831,1867,1978,2153,2407,2059,1835,1931,1983
707146,50728,14264,46940,14172,-3800,962,279,280,-381,423,-1938,4000,34,43,831,1817,1926,2091,2295,1998,1774,1847,1933
708147,50804,14308,47005,14237,-3800,588,361,234,-368,560,-2001,4157,32,42,829,1817,1926,2091,2295,1998,1774,1847,1933
709148,50848,14388,47070,14302,-3800,120,436,223,-346,754,-2146,4198,43,44,848,1817,1926,2091,2295,1998,1774,1847,1933
710149,50888,14444,47135,14367,-3800,431,510,226,-315,1208,-2073,3988,40,44,830,1817,1926,2091,2295,1998,1774,1847,1933
711150,50940,14540,47200,14432,-3800,-107,579,288,-312,1531,-1842,4302,38,47,832,1817,1926,2091,2295,1998,1774,1847,1933
712151,51000,14620,47265,14497,-3800,74,628,302,-315,999,-1805,3834,43,58,831,1817,1926,2091,2295,1998,1774,1847,1933
713152,51044,14708,47330,14562,-3800,-54,664,315,-321,842,-1585,3875,33,44,825,1735,1853,2035,2211,1942,1709,1771,1895
714153,51100,14776,47395,14627,-3800,193,657,306,-329,923,-1320,3558,30,46,832,1735,1853,2035,2211,1942,1709,1771,1895
715154,51136,14836,47460,14692,-3798,299,640,276,-339,960,-1104,3298,39,49,832,1735,1853,2035,2211,1942,1709,1771,1895
716155,51172,14896,47525,14757,-3763,305,606,255,-343,979,-860,3000,38,55,832,1735,1853,2035,2211,1942,1709,1771,1895
717156,51216,14980,47590,14822,-3800,-18,565,210,-349,734,-638,2696,37,40,827,1735,1853,2035,2211,1942,1709,1771,1895
718157,51252,15036,47655,14887,-3705,343,526,147,-342,718,-492,2857,34,43,830,1787,1909,2082,2268,1956,1737,1840,1935
719158,51272,15092,47720,14952,-3451,353,497,90,-321,568,-466,2687,27,45,832,1787,1909,2082,2268,1956,1737,1840,1935
720159,51340,15176,47785,15017,-3800,-21,489,35,-294,682,-348,2684,30,53,831,1787,1909,2082,2268,1956,1737,1840,1935
721160,51352,15248,47850,15082,-3293,121,514,16,-264,810,-346,2815,26,46,829,1787,1909,2082,2268,1956,1737,1840,1935
722161,51376,15320,47915,15147,-3394,112,561,19,-218,750,-513,2943,-66,42,832,1787,1909,2082,2268,1956,1737,1840,1935
723162,51400,15388,47980,15212,-3345,159,615,-8,-175,691,-602,2987,16,49,832,1787,1909,2082,2268,1956,1737,1840,1935
724163,51444,15468,48045,15277,-3572,-10,686,-5,-137,595,-628,3194,20,37,832,1793,1915,2090,2287,2049,1818,1897,2001
725164,51452,15532,48110,15342,-3053,192,753,10,-89,812,-657,3087,13,36,831,1793,1915,2090,2287,2049,1818,1897,2001
726165,51472,15604,48175,15407,-3149,83,827,31,-37,754,-704,3199,15,40,832,1793,1915,2090,2287,2049,1818,1897,2001
727166,51480,15672,48240,15472,-2932,129,888,52,6,685,-636,3375,8,34,832,1793,1915,2090,2287,2049,1818,1897,2001
728167,51496,15748,48305,15537,-2973,16,948,59,47,636,-676,3525,24,34,832,1793,1915,2090,2287,2049,1818,1897,2001
729168,51500,15816,48370,15602,-2749,112,992,54,72,590,-538,3698,10,43,831,1754,1865,2063,2247,2041,1801,1855,1947
730169,51496,15876,48435,15667,-2566,218,1031,54,87,656,-600,3642,21,47,832,1754,1865,2063,2247,2041,1801,1855,1947
731170,51504,15924,48500,15732,-2647,389,1056,75,111,806,-538,3610,19,36,832,1754,1865,2063,2247,2041,1801,1855,1947
732171,51512,15996,48565,15797,-2580,80,1055,89,130,706,-361,3541,4,31,832,1754,1865,2063,2247,2041,1801,1855,1947
733172,51504,16052,48630,15862,-2292,291,1038,127,135,528,-367,3572,14,44,831,1754,1865,2063,2247,2041,1801,1855,1947
734173,51512,16116,48695,15927,-2423,192,1020,160,138,585,-251,3552,-1,44,831,1754,1865,2063,2247,2041,1801,1855,1947
735174,51508,16184,48760,15992,-2190,138,990,188,142,661,-65,3597,12,30,830,1751,1859,2062,2261,1962,1743,1802,1870
736175,51504,16244,48825,16057,-2107,244,963,210,156,612,-6,3710,15,34,832,1751,1859,2062,2261,1962,1743,1802,1870
737176,51512,16296,48890,16122,-2188,360,927,223,170,570,17,3646,16,47,832,1751,1859,2062,2261,1962,1743,1802,1870
738177,51492,16352,48955,16187,-1735,321,904,247,185,615,6,3769,10,32,832,1751,1859,2062,2261,1962,1743,1802,1870
739178,51504,16424,49020,16252,-2072,113,894,281,202,590,-50,3771,-2,33,832,1751,1859,2062,2261,1962,1743,1802,1870
740179,51508,16484,49085,16317,-1898,269,901,327,224,598,-71,3722,14,46,831,1784,1885,2092,2296,1969,1774,1840,1944
741180,51508,16540,49150,16382,-1770,330,915,355,258,571,-75,3677,6,38,832,1784,1885,2092,2296,1969,1774,1840,1944
742181,51516,16620,49215,16447,-1801,11,953,381,299,331,-171,3814,11,35,832,1784,1885,2092,2296,1969,1774,1840,1944
743182,51512,16676,49280,16512,-1568,322,997,407,318,290,-28,3690,13,30,831,1784,1885,2092,2296,1969,1774,1840,1944
744183,51516,16744,49345,16577,-1594,169,1026,415,353,252,-99,3294,-2,44,832,1784,1885,2092,2296,1969,1774,1840,1944
745184,51520,16828,49410,16642,-1520,-55,1069,439,388,478,19,3650,2,35,831,1784,1885,2092,2296,1969,1774,1840,1944
746185,51536,16884,49475,16707,-1611,306,1117,472,402,560,91,3641,-1,33,825,1782,1896,2115,2304,2082,1854,1910,2022
747186,51520,16960,49540,16772,-1113,42,1146,480,420,484,11,3360,2,36,832,1782,1896,2115,2304,2082,1854,1910,2022
748187,51536,17008,49605,16837,-1455,413,1182,463,439,592,214,3463,17,30,831,1782,1896,2115,2304,2082,1854,1910,2022
749188,51536,17076,49670,16902,-1175,159,1225,483,441,497,341,3664,-1,34,832,1782,1896,2115,2304,2082,1854,1910,2022
750189,51540,17132,49735,16967,-1152,320,1257,535,426,808,491,3793,5,44,824,1782,1896,2115,2304,2082,1854,1910,2022
751190,51540,17192,49800,17032,-1024,276,1277,578,405,1109,459,3793,10,33,832,1790,1909,2118,2560,2078,1837,1891,1995
752191,51544,17268,49865,17097,-999,63,1305,597,388,1232,546,4091,3,42,831,1790,1909,2118,2560,2078,1837,1891,1995
753192,51544,17320,49930,17162,-871,379,1325,630,357,1180,681,4234,18,41,832,1790,1909,2118,2560,2078,1837,1891,1995
754193,51540,17376,49995,17227,-737,340,1306,610,349,904,561,3933,9,36,829,1790,1909,2118,2560,2078,1837,1891,1995
755194,51544,17428,50060,17292,-763,405,1290,600,334,701,592,4163,0,37,831,1790,1909,2118,2560,2078,1837,1891,1995
756195,51556,17500,50125,17357,-799,147,1271,551,324,397,478,4206,4,31,831,1790,1909,2118,2560,2078,1837,1891,1995
757196,51564,17560,50190,17422,-680,303,1270,495,296,318,338,4763,1,36,831,1776,1906,2112,2297,2001,1779,1840,1936
758197,51568,17640,50255,17487,-556,35,1266,463,232,652,459,4612,7,42,830,1776,1906,2112,2297,2001,1779,1840,1936
759198,51552,17688,50320,17552,-207,455,1193,327,233,573,225,3687,1,36,831,1776,1906,2112,2297,2001,1779,1840,1936
760199,51568,17752,50385,17617,-549,257,1076,114,251,-235,502,3464,18,32,832,1776,1906,2112,2297,2001,1779,1840,1936
761200,51576,17812,50450,17682,-379,313,973,-74,257,-811,381,3664,6,40,821,1776,1906,2112,2297,2001,1779,1840,1936
762201,51584,17860,50515,17747,-310,484,903,-178,241,82,386,3936,17,43,831,1797,1924,2135,2301,2029,1793,1856,2028
763202,51572,17916,50580,17812,34,394,885,-181,225,906,429,4183,11,28,832,1797,1924,2135,2301,2029,1793,1856,2028
764203,51576,17996,50645,17877,-93,75,892,-99,222,1119,226,4402,2,31,830,1797,1924,2135,2301,2029,1793,1856,2028
765204,51592,18044,50710,17942,-183,496,902,2,220,1305,142,4539,3,42,831,1797,1924,2135,2301,2029,1793,1856,2028
766205,51596,18116,50775,18007,41,187,913,76,195,1645,211,4550,21,44,829,1797,1924,2135,2301,2029,1793,1856,2028
767206,51608,18184,50840,18072,5,234,943,142,172,1480,292,4606,23,41,823,1797,1924,2135,2301,2029,1793,1856,2028
768207,51608,18256,50905,18137,234,175,971,187,138,1217,567,4563,14,37,831,1765,1915,2129,2241,2187,1926,1964,2135
769208,51616,18320,50970,18202,204,276,1004,243,78,813,727,4615,20,33,830,1765,1915,2129,2241,2187,1926,1964,2135
770209,51628,18408,51035,18267,219,-52,1039,246,15,557,850,4406,19,45,831,1765,1915,2129,2241,2187,1926,1964,2135
771210,51628,18456,51100,18332,447,469,1076,201,-46,309,924,4315,21,45,831,1765,1915,2129,2241,2187,1926,1964,2135
772211,51644,18524,51165,18397,307,215,1091,99,-103,-36,1089,4132,22,38,832,1765,1915,2129,2241,2187,1926,1964,2135
773212,51640,18596,51230,18462,641,157,1085,-29,-166,-469,1328,4286,12,36,829,1743,1895,2119,2266,2223,1955,1989,2107
774213,51640,18664,51295,18527,670,203,1038,-158,-229,-525,1498,3978,24,47,831,1743,1895,2119,2266,2223,1955,1989,2107
775214,51636,18736,51360,18592,805,145,973,-238,-290,-405,1532,4325,26,34,828,1743,1895,2119,2266,2223,1955,1989,2107
776215,51680,18796,51425,18657,230,301,893,-275,-343,-236,1528,4377,24,34,828,1743,1895,2119,2266,2223,1955,1989,2107
777216,51712,18864,51490,18722,420,197,807,-276,-382,27,1491,4515,29,41,828,1743,1895,2119,2266,2223,1955,1989,2107
778217,51732,18912,51555,18787,624,468,708,-246,-404,42,1294,4528,23,36,830,1743,1895,2119,2266,2223,1955,1989,2107
779218,51784,18988,51620,18852,240,104,620,-187,-444,293,1309,4712,37,35,830,1776,1909,2135,2323,2103,1874,1912,2014
780219,51812,19052,51685,18917,585,256,526,-103,-469,435,1025,4656,33,33,827,1776,1909,2135,2323,2103,1874,1912,2014
781220,51852,19116,51750,18982,466,257,447,-2,-488,787,791,4674,34,35,831,1776,1909,2135,2323,2103,1874,1912,2014
782221,51904,19168,51815,19047,332,423,380,88,-508,802,645,4587,30,35,829,1776,1909,2135,2323,2103,1874,1912,2014
783222,51948,19228,51880,19112,457,328,338,178,-539,654,521,4547,28,37,829,1776,1909,2135,2323,2103,1874,1912,2014
784223,51996,19300,51945,19177,428,169,310,251,-562,493,366,4367,38,45,830,1778,1891,2139,2293,2087,1875,1890,2024
785224,52036,19336,52010,19242,559,655,310,273,-585,295,187,4253,29,37,828,1778,1891,2139,2293,2087,1875,1890,2024
786225,52100,19408,52075,19307,260,196,314,252,-617,298,168,4198,31,39,828,1778,1891,2139,2293,2087,1875,1890,2024
787226,52144,19496,52140,19372,536,-32,324,230,-639,-54,235,4084,33,38,831,1778,1891,2139,2293,2087,1875,1890,2024
788227,52216,19568,52205,19437,177,160,340,214,-669,-129,570,4130,50,37,830,1778,1891,2139,2293,2087,1875,1890,2024
789229,52268,19628,52270,19502,443,316,350,184,-711,-137,721,3965,52,45,831,1778,1891,2139,2293,2087,1875,1890,2024
790229,52304,19696,52335,19567,678,212,355,158,-764,-201,887,4103,53,48,829,1725,1845,2112,2248,2135,1903,1913,2048
791230,52380,19744,52400,19632,165,483,353,158,-795,-351,1085,4038,42,40,828,1725,1845,2112,2248,2135,1903,1913,2048
792231,52460,19844,52465,19697,97,-210,336,168,-834,-214,1511,3867,53,46,830,1725,1845,2112,2248,2135,1903,1913,2048
793232,52516,19908,52530,19762,408,241,303,186,-873,-121,1636,3741,37,44,831,1725,1845,2112,2248,2135,1903,1913,2048
794233,52580,19960,52595,19827,309,407,261,227,-924,118,1862,3791,54,43,830,1725,1845,2112,2248,2135,1903,1913,2048
795234,52612,20024,52660,19892,749,258,220,306,-954,113,1761,3704,55,48,829,1738,1868,2096,2261,2117,1867,1926,2040
796235,52700,20092,52725,19957,21,205,193,378,-983,157,1710,3816,42,48,828,1738,1868,2096,2261,2117,1867,1926,2040
797236,52776,20152,52790,20022,158,311,160,431,-1007,97,1802,3637,62,39,831,1738,1868,2096,2261,2117,1867,1926,2040
798237,52836,20228,52855,20087,364,97,135,482,-1003,-60,1553,3622,47,37,831,1738,1868,2096,2261,2117,1867,1926,2040
799238,52908,20284,52920,20152,205,358,147,572,-999,21,1223,3570,42,42,831,1738,1868,2096,2261,2117,1867,1926,2040
800239,52976,20344,52985,20217,251,314,173,579,-980,150,884,3303,48,46,830,1738,1868,2096,2261,2117,1867,1926,2040
801240,53056,20412,53050,20282,83,211,203,546,-951,33,506,3518,55,45,829,1766,1896,2100,2265,2059,1820,1871,1978
802241,53140,20464,53115,20347,10,426,194,525,-937,55,292,2943,51,33,831,1766,1896,2100,2265,2059,1820,1871,1978
803242,53208,20516,53180,20412,206,442,162,470,-938,414,166,2951,40,32,831,1766,1896,2100,2265,2059,1820,1871,1978
804243,53268,20584,53245,20477,312,238,97,425,-983,578,408,2882,39,33,830,1766,1896,2100,2265,2059,1820,1871,1978
805244,53344,20640,53310,20542,99,399,44,423,-1022,544,149,2911,40,44,831,1766,1896,2100,2265,2059,1820,1871,1978
806245,53416,20684,53375,20607,140,575,24,397,-1041,394,89,3390,43,33,830,1766,1877,2100,2256,1991,1769,1807,1920
807246,53476,20744,53440,20672,297,381,14,363,-1042,272,136,3419,53,42,829,1766,1877,2100,2256,1991,1769,1807,1920
808247,53536,20804,53505,20737,303,387,30,312,-1020,71,-82,3623,47,41,830,1766,1877,2100,2256,1991,1769,1807,1920
809248,53608,20860,53570,20802,144,448,62,245,-982,-186,-126,3726,37,31,830,1766,1877,2100,2256,1991,1769,1807,1920
810249,53664,20916,53635,20867,355,459,79,180,-944,9,5,3592,38,42,830,1766,1877,2100,2256,1991,1769,1807,1920
811250,53724,20980,53700,20932,311,360,96,122,-917,157,393,3603,49,33,829,1766,1877,2100,2256,1991,1769,1807,1920
812251,53780,21072,53765,20997,372,-23,82,86,-877,185,563,3332,44,46,830,1724,1836,2062,2217,1995,1773,1823,1943
813252,53844,21116,53830,21062,273,603,45,85,-858,575,812,3028,46,46,830,1724,1836,2062,2217,1995,1773,1823,1943
814253,53916,21196,53895,21127,165,134,-18,118,-861,808,891,2985,48,38,829,1724,1836,2062,2217,1995,1773,1823,1943
815254,53972,21244,53960,21192,376,555,-78,151,-869,956,1047,2860,48,29,831,1724,1836,2062,2217,1995,1773,1823,1943
816255,54032,21304,54025,21257,332,411,-131,175,-869,958,1089,2749,44,28,828,1724,1836,2062,2217,1995,1773,1823,1943
817256,54100,21344,54090,21322,228,692,-151,136,-863,548,988,2808,41,42,829,1748,1872,2074,2237,2074,1837,1909,2035
818257,54156,21412,54155,21387,389,338,-162,85,-859,400,974,2961,35,28,828,1748,1872,2074,2237,2074,1837,1909,2035
819258,54212,21456,54220,21452,400,664,-157,62,-850,466,893,3155,37,31,828,1748,1872,2074,2237,2074,1837,1909,2035
820259,54268,21508,54285,21517,411,579,-148,19,-824,362,673,3088,47,44,828,1748,1872,2074,2237,2074,1837,1909,2035
821260,54332,21572,54350,21582,312,431,-124,-23,-804,72,547,3210,50,45,828,1748,1872,2074,2237,2074,1837,1909,2035
822261,54400,21640,54415,21647,259,377,-98,-92,-783,35,501,3257,48,33,829,1748,1872,2074,2237,2074,1837,1909,2035
823262,54452,21708,54480,21712,475,373,-63,-136,-752,-133,343,3543,46,32,830,1736,1866,2072,2224,2137,1873,1921,2055
824263,54512,21748,54545,21777,381,754,-35,-156,-729,138,270,3644,35,39,829,1736,1866,2072,2224,2137,1873,1921,2055
825264,54576,21824,54610,21842,332,290,2,-188,-692,79,57,3683,37,34,827,1736,1866,2072,2224,2137,1873,1921,2055
826265,54652,21884,54675,21907,169,497,44,-255,-642,-99,35,4010,46,46,830,1736,1866,2072,2224,2137,1873,1921,2055
827266,54708,21956,54740,21972,430,338,64,-280,-598,-117,23,4290,47,37,830,1736,1866,2072,2224,2137,1873,1921,2055
828267,54768,22020,54805,22037,386,439,80,-314,-547,5,35,4073,51,44,829,1726,1862,2084,2227,2071,1817,1859,1981
829268,54824,22072,54870,22102,447,605,69,-323,-499,340,152,4354,37,34,829,1726,1862,2084,2227,2071,1817,1859,1981
830269,54900,22128,54935,22167,183,566,30,-278,-445,394,234,4151,44,32,828,1726,1862,2084,2227,2071,1817,1859,1981
831270,54944,22180,55000,22232,609,632,-60,-188,-433,974,629,3880,53,31,829,1726,1862,2084,2227,2071,1817,1859,1981
832271,55024,22244,55065,22297,141,483,-158,-98,-436,1406,341,3959,46,32,827,1726,1862,2084,2227,2071,1817,1859,1981
833272,55080,22312,55130,22362,452,430,-216,-44,-408,1043,170,4490,37,40,830,1726,1862,2084,2227,2071,1817,1859,1981
834273,55136,22356,55195,22427,463,755,-262,26,-387,585,516,4366,39,31,829,1806,1922,2147,2331,2005,1788,1849,1954
835274,55208,22424,55260,22492,254,452,-315,71,-392,779,551,3919,41,40,825,1806,1922,2147,2331,2005,1788,1849,1954
836275,55264,22504,55325,22557,465,283,-347,46,-375,551,498,4065,40,43,828,1806,1922,2147,2331,2005,1788,1849,1954
837277,55324,22564,55390,22622,421,539,-368,18,-359,252,681,4006,49,42,829,1806,1922,2147,2331,2005,1788,1849,1954
838277,55376,22636,55455,22687,537,381,-364,-27,-340,-49,529,3937,34,37,828,1806,1922,2147,2331,2005,1788,1849,1954
839278,55436,22680,55520,22752,443,756,-314,-72,-310,-371,364,4440,45,42,828,1839,1933,2171,2378,2106,1892,1930,2034
840279,55488,22744,55585,22817,559,508,-248,-107,-285,-229,435,4463,36,45,827,1839,1933,2171,2378,2106,1892,1930,2034
841280,55552,22796,55650,22882,410,673,-177,-107,-252,-213,388,4381,41,29,828,1839,1933,2171,2378,2106,1892,1930,2034
842281,55600,22864,55715,22947,631,470,-120,-104,-228,-55,472,4406,34,42,827,1839,1933,2171,2378,2106,1892,1930,2034
843282,55648,22900,55780,23012,652,905,-66,-75,-202,106,419,4435,36,36,827,1839,1933,2171,2378,2106,1892,1930,2034
844283,55712,22976,55845,23077,453,392,-2,-9,-175,295,476,4718,45,45,824,1839,1933,2171,2378,2106,1892,1930,2034
845284,55768,23052,55910,23142,564,378,52,102,-136,478,413,4732,39,34,829,1810,1922,2167,2363,2157,1919,1953,2056
846285,55828,23116,55975,23207,520,530,96,212,-104,604,550,4876,42,42,828,1810,1922,2167,2363,2157,1919,1953,2056
847286,55860,23156,56040,23272,910,860,119,311,-75,642,662,4840,43,44,827,1810,1922,2167,2363,2157,1919,1953,2056
848287,55928,23228,56105,23337,458,452,141,375,-51,477,702,4719,34,43,823,1810,1922,2167,2363,2157,1919,1953,2056
849288,55984,23284,56170,23402,619,664,132,403,-30,271,804,4596,48,46,828,1810,1922,2167,2363,2157,1919,1953,2056
850289,56044,23348,56235,23467,575,565,123,408,-13,168,832,4509,36,39,826,1827,1945,2170,2370,2066,1835,1885,1973
851290,56100,23404,56300,23532,636,676,113,391,0,23,579,4702,36,39,827,1827,1945,2170,2370,2066,1835,1885,1973
852291,56152,23468,56365,23597,702,577,126,401,8,33,428,4944,41,35,825,1827,1945,2170,2370,2066,1835,1885,1973
853292,56220,23532,56430,23662,498,578,122,399,9,160,524,4767,52,45,825,1827,1945,2170,2370,2066,1835,1885,1973
854293,56268,23564,56495,23727,769,1018,109,385,7,8,468,4470,39,44,827,1827,1945,2170,2370,2066,1835,1885,1973
855294,56336,23624,56560,23792,515,675,96,362,5,-161,373,4592,47,42,823,1827,1945,2170,2370,2066,1835,1885,1973
856295,56392,23692,56625,23857,676,571,99,346,-2,-88,382,4598,39,35,826,1858,1969,2187,2391,1997,1783,1843,1943
857296,56452,23728,56690,23922,632,1006,122,367,-22,68,302,4583,50,39,826,1858,1969,2187,2391,1997,1783,1843,1943
858297,56512,23800,56755,23987,638,548,128,375,-49,602,287,4263,35,31,824,1858,1969,2187,2391,1997,1783,1843,1943
859298,56552,23852,56820,24052,919,814,147,343,-60,381,252,4001,47,39,827,1858,1969,2187,2391,1997,1783,1843,1943
860299,56616,23908,56885,24117,620,775,170,291,-73,8,403,4026,35,45,823,1858,1969,2187,2391,1997,1783,1843,1943
861300,56676,23968,56950,24182,677,731,206,272,-76,-114,163,4250,52,35,825,1867,1972,2196,2382,2038,1823,1884,2001
862301,56724,24016,57015,24247,848,901,258,257,-69,230,293,4207,36,33,825,1867,1972,2196,2382,2038,1823,1884,2001
863302,56780,24080,57080,24312,759,703,321,248,-63,435,537,4102,53,43,823,1867,1972,2196,2382,2038,1823,1884,2001
864303,56840,24160,57145,24377,715,484,366,252,-49,277,464,3938,41,42,825,1867,1972,2196,2382,2038,1823,1884,2001
865304,56896,24240,57210,24442,776,467,398,233,-30,282,630,3847,48,45,826,1867,1972,2196,2382,2038,1823,1884,2001
866305,56960,24300,57275,24507,677,723,436,197,-1,-171,704,3749,41,38,826,1867,1972,2196,2382,2038,1823,1884,2001
867306,57000,24356,57340,24572,1008,784,464,181,27,-341,687,3940,52,45,825,1846,1962,2160,2336,2072,1848,1910,2013
868307,57076,24404,57405,24637,544,905,481,194,49,-121,814,3807,49,41,822,1846,1962,2160,2336,2072,1848,1910,2013
869308,57124,24464,57470,24702,916,761,486,181,63,9,953,3709,54,48,825,1846,1962,2160,2336,2072,1848,1910,2013
870309,57208,24536,57535,24767,443,602,493,156,60,-238,833,3918,45,46,822,1846,1962,2160,2336,2072,1848,1910,2013
871310,57260,24616,57600,24832,859,484,502,119,57,-399,734,3803,54,49,827,1846,1962,2160,2336,2072,1848,1910,2013
872311,57328,24668,57665,24897,655,850,515,78,63,-368,731,4041,46,38,825,1811,1927,2131,2304,2040,1815,1877,1963
873312,57380,24728,57730,24962,871,756,516,30,63,-336,629,3939,52,37,824,1811,1927,2131,2304,2040,1815,1877,1963
874313,57444,24780,57795,25027,722,872,531,-5,56,-399,575,3960,52,44,823,1811,1927,2131,2304,2040,1815,1877,1963
875314,57488,24844,57860,25092,998,723,533,-24,52,-460,509,4192,40,34,824,1811,1927,2131,2304,2040,1815,1877,1963
876315,57548,24900,57925,25157,804,834,544,-9,33,-296,308,4057,42,48,823,1811,1927,2131,2304,2040,1815,1877,1963
877316,57616,24964,57990,25222,701,736,542,-2,23,79,157,4047,50,37,824,1775,1886,2103,2304,2040,1815,1877,1963
878317,57668,25040,58055,25287,917,573,554,22,22,196,238,4252,55,36,825,1775,1886,2103,2276,2017,1795,1846,1958
879318,57724,25096,58120,25352,878,834,563,39,22,-76,-68,4121,38,48,825,1775,1886,2103,2276,2017,1795,1846,1958
880319,57788,25156,58185,25417,779,790,585,58,6,-80,-9,4058,47,38,823,1775,1886,2103,2276,2017,1795,1846,1958
881320,57840,25220,58250,25482,945,741,582,40,3,101,81,3985,55,34,824,1775,1886,2103,2276,2017,1795,1846,1958
882321,57912,25256,58315,25547,686,1127,559,18,18,188,152,3800,54,41,823,1775,1886,2103,2276,2017,1795,1846,1958
883322,57968,25332,58380,25612,897,613,542,1,23,-280,174,3585,57,49,822,1784,1894,2131,2306,2047,1832,1879,1992
884323,58028,25392,58445,25677,855,819,531,-21,40,-277,136,3632,51,48,824,1784,1894,2131,2306,2047,1832,1879,1992
885324,58064,25468,58510,25742,1190,606,517,-24,78,-40,242,3694,55,42,823,1784,1894,2131,2306,2047,1832,1879,1992
886325,58144,25528,58575,25807,622,812,506,-30,117,164,439,3462,48,45,822,1784,1894,2131,2306,2047,1832,1879,1992
887326,58184,25584,58640,25872,1152,874,487,-24,148,-112,482,3672,55,45,823,1784,1894,2131,2306,2047,1832,1879,1992
888327,58240,25652,58705,25937,963,720,478,-24,177,-333,704,3595,50,36,820,1817,1926,2161,2348,2092,1870,1922,2029
889328,58304,25724,58770,26002,864,662,462,-29,206,-255,658,3572,58,42,823,1817,1926,2161,2348,2092,1870,1922,2029
890329,58356,25780,58835,26067,1031,873,460,-21,231,-57,644,3636,59,37,824,1817,1926,2161,2348,2092,1870,1922,2029
891330,58428,25840,58900,26132,773,829,460,-22,239,43,788,3726,48,48,821,1817,1926,2161,2348,2092,1870,1922,2029
892331,58484,25904,58965,26197,984,780,458,-14,252,-226,651,3816,52,37,824,1817,1926,2161,2348,2092,1870,1922,2029
893332,58532,25968,59030,26262,1104,781,465,-2,247,-14,727,3993,44,39,823,1817,1926,2161,2348,2092,1870,1922,2029
894333,58580,26028,59095,26327,1125,837,488,19,242,-43,669,4026,53,37,821,1791,1902,2122,2296,2104,1864,1912,2016
895334,58664,26100,59160,26392,653,679,502,26,244,-150,524,4174,59,53,821,1791,1902,2122,2296,2104,1864,1912,2016
896335,58732,26172,59225,26457,849,671,526,67,226,141,635,4358,63,49,826,1791,1902,2122,2296,2104,1864,1912,2016
897336,58796,26248,59290,26522,901,608,540,72,229,72,386,4108,42,40,824,1791,1902,2122,2296,2104,1864,1912,2016
898337,58844,26292,59355,26587,1121,1034,554,81,228,62,318,4493,56,36,824,1791,1902,2122,2296,2104,1864,1912,2016
899338,58908,26384,59420,26652,923,401,552,99,234,124,403,4309,55,52,820,1755,1868,2097,2265,2057,1824,1867,1974
900339,58964,26452,59485,26717,1033,697,563,101,240,-14,287,4334,38,42,825,1755,1868,2097,2265,2057,1824,1867,1974
901340,59024,26516,59550,26782,991,748,545,131,241,70,250,4412,52,38,823,1755,1868,2097,2265,2057,1824,1867,1974
902341,59080,26584,59615,26847,1052,695,539,134,256,170,319,4155,44,43,823,1755,1868,2097,2265,2057,1824,1867,1974
903342,59112,26652,59680,26912,1392,691,512,126,273,45,271,4175,38,36,823,1755,1868,2097,2265,2057,1824,1867,1974
904343,59172,26712,59745,26977,1048,797,481,116,295,41,336,3950,37,39,819,1755,1868,2097,2265,2057,1824,1867,1974
905344,59228,26788,59810,27042,1109,584,449,99,322,45,480,3863,46,54,822,1784,1899,2146,2332,2046,1831,1879,1984
906345,59284,26848,59875,27107,1121,791,422,99,345,82,389,3989,42,45,823,1784,1899,2146,2332,2046,1831,1879,1984
907346,59344,26920,59940,27172,1077,632,395,109,366,188,474,3787,44,48,822,1784,1899,2146,2332,2046,1831,1879,1984
908347,59396,26976,60005,27237,1193,843,378,103,387,167,425,3741,38,36,823,1784,1899,2146,2332,2046,1831,1879,1984
909348,59448,27032,60070,27302,1209,854,364,103,401,341,523,3807,39,38,820,1784,1899,2146,2332,2046,1831,1879,1984
910349,59504,27080,60135,27367,1171,975,364,96,410,208,721,3729,49,39,820,1831,1935,2206,2394,2072,1860,1929,2039
911350,59552,27168,60200,27432,1292,447,358,88,395,290,764,3841,49,46,820,1831,1935,2206,2394,2072,1860,1929,2039
912351,59620,27228,60265,27497,1038,803,366,95,378,466,788,3787,55,39,822,1831,1935,2206,2394,2072,1860,1929,2039
913352,59680,27288,60330,27562,1144,809,381,84,371,394,911,3819,49,51,822,1831,1935,2206,2394,2072,1860,1929,2039
914353,59724,27344,60395,27627,1371,870,403,69,371,188,846,3974,55,34,821,1831,1935,2206,2394,2072,1860,1929,2039
915354,59792,27392,60460,27692,1067,991,423,84,357,207,830,4029,54,35,819,1831,1935,2206,2394,2072,1860,1929,2039
916355,59856,27448,60525,27757,1118,903,448,85,351,289,853,4019,39,38,820,1814,1921,2158,2328,2107,1871,1915,2019
917356,59896,27528,60590,27822,1449,584,470,94,345,258,837,4244,55,43,821,1814,1921,2158,2328,2107,1871,1915,2019
918357,59960,27568,60655,27887,1151,1115,486,105,338,227,774,4050,51,36,819,1814,1921,2158,2328,2107,1871,1915,2019
919358,60016,27632,60720,27952,1262,816,500,114,334,250,777,4187,39,46,819,1814,1921,2158,2328,2107,1871,1915,2019
920359,60088,27696,60785,28017,1053,817,508,121,327,266,822,4324,55,46,820,1814,1921,2158,2328,2107,1871,1915,2019
921360,60136,27744,60850,28082,1374,1038,511,126,333,142,727,4269,48,32,821,1770,1887,2117,2280,2054,1821,1868,1973
922361,60180,27788,60915,28147,1451,1114,511,141,340,285,734,4363,43,32,817,1770,1887,2117,2280,2054,1821,1868,1973
923362,60240,27844,60980,28212,1257,975,506,142,350,242,784,4256,38,48,816,1770,1887,2117,2280,2054,1821,1868,1973
924363,60292,27920,61045,28277,1373,712,489,124,351,167,786,4121,46,49,819,1770,1887,2117,2280,2054,1821,1868,1973
925364,60356,27968,61110,28342,1224,1083,474,116,347,257,701,4030,37,48,819,1770,1887,2117,2280,2054,1821,1868,1973
926365,60416,28032,61175,28407,1281,884,449,100,360,227,585,4023,48,35,818,1770,1887,2117,2280,2054,1821,1868,1973
927366,60472,28088,61240,28472,1342,995,428,82,364,268,604,3859,50,37,819,1773,1889,2131,2307,2031,1815,1866,1972
928367,60508,28160,61305,28537,1627,787,416,82,364,315,575,3850,54,50,818,1773,1889,2131,2307,2031,1815,1866,1972
929368,60572,28216,61370,28602,1280,998,406,95,357,537,637,3897,42,49,816,1773,1889,2131,2307,2031,1815,1866,1972
930369,60636,28292,61435,28667,1281,734,399,93,357,572,695,3853,52,56,819,1773,1889,2131,2307,2031,1815,1866,1972
931370,60688,28352,61500,28732,1447,941,404,108,340,562,740,3873,50,55,821,1773,1889,2131,2307,2031,1815,1866,1972
932371,60740,28428,61565,28797,1464,728,408,103,338,419,571,3655,46,54,818,1817,1925,2179,2359,2073,1857,1901,2012
933372,60796,28496,61630,28862,1425,824,410,94,324,492,622,3730,43,59,819,1817,1925,2179,2359,2073,1857,1901,2012
934373,60856,28572,61695,28927,1381,711,415,93,319,568,636,3797,55,58,819,1817,1925,2179,2359,2073,1857,1901,2012
935374,60904,28636,61760,28992,1552,862,424,54,332,433,835,3700,57,55,820,1817,1925,2179,2359,2073,1857,1901,2012
936375,60972,28708,61825,29057,1299,754,433,42,334,216,844,3618,57,41,817,1817,1925,2179,2359,2073,1857,1901,2012
937376,61028,28780,61890,29122,1460,745,434,25,326,415,1023,3774,59,57,819,1817,1925,2179,2359,2073,1857,1901,2012
938377,61092,28852,61955,29187,1361,736,436,21,335,517,1029,3785,51,40,818,1816,1923,2171,2344,2094,1868,1911,2015
939378,61152,28912,62020,29252,1418,894,441,12,335,483,1054,3875,44,53,820,1816,1923,2171,2344,2094,1868,1911,2015
940379,61208,28984,62085,29317,1479,735,440,39,334,415,1111,4056,42,43,818,1816,1923,2171,2344,2094,1868,1911,2015
941380,61260,29060,62150,29382,1545,672,445,46,321,660,1204,4140,48,49,819,1816,1923,2171,2344,2094,1868,1911,2015
942381,61340,29112,62215,29447,1178,987,451,111,310,590,1066,4417,51,50,819,1816,1923,2171,2344,2094,1868,1911,2015
943382,61388,29172,62280,29512,1598,894,461,122,287,589,1202,4182,44,40,820,1779,1896,2111,2295,2063,1827,1875,1986
944383,61444,29244,62345,29577,1509,735,468,153,277,362,943,4288,39,49,816,1779,1896,2111,2295,2063,1827,1875,1986
945384,61492,29296,62410,29642,1631,1001,471,147,274,366,939,4103,40,56,818,1779,1896,2111,2295,2063,1827,1875,1986
946385,61556,29356,62475,29707,1432,907,475,169,284,396,936,4347,49,53,815,1779,1896,2111,2295,2063,1827,1875,1986
947386,61620,29432,62540,29772,1435,695,475,158,286,287,898,4106,43,43,818,1779,1896,2111,2295,2063,1827,1875,1986
948387,61668,29492,62605,29837,1655,901,469,174,288,186,763,4147,47,49,819,1779,1896,2111,2295,2063,1827,1875,1986
949388,61740,29560,62670,29902,1347,797,466,164,289,315,780,4067,44,45,816,1760,1880,2119,2287,2064,1840,1860,1968
950389,61788,29632,62735,29967,1669,738,468,156,286,314,691,3932,41,45,819,1760,1880,2119,2287,2064,1840,1860,1968
951390,61848,29696,62934,30166,1688,1003,457,175,284,390,582,4049,39,40,817,1760,1880,2119,2287,2064,1840,1860,1968
952391,61904,29756,62999,30231,1749,1059,451,199,302,446,734,4024,45,58,815,1760,1880,2119,2287,2064,1840,1860,1968
953392,61968,29832,63064,30296,1651,846,447,185,302,362,822,3800,38,59,814,1760,1880,2119,2287,2064,1840,1860,1968
954393,62024,29904,63129,30361,1762,888,434,209,291,549,857,3976,46,48,816,1809,1919,2187,2363,2069,1855,1894,1999
955394,62076,29988,63194,30426,1829,715,418,230,289,766,899,3680,39,55,813,1809,1919,2187,2363,2069,1855,1894,1999
956395,62124,30052,63259,30491,1900,966,410,268,283,627,841,3906,45,44,815,1809,1919,2187,2363,2069,1855,1894,1999
957396,62200,30124,63324,30556,1537,858,402,330,273,619,922,4085,45,58,813,1809,1919,2187,2363,2069,1855,1894,1999
958397,62244,30220,63389,30621,1963,520,406,372,262,951,952,3973,52,64,818,1809,1919,2187,2363,2069,1855,1894,1999
959398,62344,30272,63454,30686,1220,1086,410,372,258,997,917,4081,52,46,815,1809,1919,2187,2363,2069,1855,1894,1999
960399,62404,30348,63519,30751,1728,773,408,373,244,377,1131,4019,47,47,818,1823,1924,2187,2368,2086,1872,1909,2003
961400,62456,30424,63584,30816,1843,760,401,376,231,73,1141,3928,53,45,815,1823,1924,2187,2368,2086,1872,1909,2003
962401,62516,30500,63649,30881,1751,747,390,384,230,443,1187,3926,47,48,815,1823,1924,2187,2368,2086,1872,1909,2003
963402,62596,30584,63714,30946,1482,623,380,381,225,574,1218,3804,49,53,816,1823,1924,2187,2368,2086,1872,1909,2003
964405,62672,30644,63779,31011,1519,929,372,359,218,285,1223,3943,62,59,819,1823,1924,2187,2368,2086,1872,1909,2003
965404,62740,30708,63844,31076,1616,881,378,359,211,150,1148,4087,66,44,817,1803,1903,2159,2336,2088,1865,1900,2003
966405,62808,30792,63909,31141,1612,608,375,378,213,209,865,4144,54,56,817,1803,1903,2159,2336,2088,1865,1900,2003
967406,62872,30856,63974,31206,1665,860,397,409,214,527,964,4260,59,61,818,1803,1903,2159,2336,2088,1865,1900,2003
968407,62944,30924,64039,31271,1556,806,406,450,217,682,878,4503,48,49,816,1803,1903,2159,2336,2088,1865,1900,2003
969408,63012,31012,64104,31336,1603,528,413,499,214,323,903,4375,62,56,817,1803,1903,2159,2336,2088,1865,1900,2003
970409,63096,31080,64169,31401,1380,774,415,542,208,550,811,4512,52,54,818,1803,1903,2159,2336,2088,1865,1900,2003
971410,63144,31140,64234,31466,1851,880,414,564,210,471,696,4337,56,56,819,1770,1881,2140,2300,2074,1848,1884,1994
972411,63192,31204,64299,31531,1873,832,410,597,217,353,722,4253,57,50,814,1770,1881,2140,2300,2074,1848,1884,1994
973412,63260,31248,64364,31596,1619,1107,397,588,222,512,746,4263,46,46,814,1770,1881,2140,2300,2074,1848,1884,1994
974413,63316,31348,64429,31661,1781,365,375,582,222,205,795,3887,42,51,814,1770,1881,2140,2300,2074,1848,1884,1994
975414,63396,31428,64494,31726,1463,597,345,554,195,238,1068,3863,55,49,817,1770,1881,2140,2300,2074,1848,1884,1994
976415,63440,31500,64559,31791,1938,689,323,534,168,278,839,3877,41,54,819,1789,1905,2170,2337,2077,1853,1893,2007
977416,63504,31540,64624,31856,1691,1119,289,578,168,587,949,4197,41,39,814,1789,1905,2170,2337,2077,1853,1893,2007
978417,63560,31620,64689,31921,1802,601,279,594,157,898,1232,3931,40,52,813,1789,1905,2170,2337,2077,1853,1893,2007
979418,63608,31676,64754,31986,1923,912,256,589,136,745,1098,3969,47,50,816,1789,1905,2170,2337,2077,1853,1893,2007
980419,63680,31736,64819,32051,1615,868,234,566,110,465,1289,3672,44,48,813,1789,1905,2170,2337,2077,1853,1893,2007
981420,63744,31820,64884,32116,1717,545,213,542,92,204,1405,3621,43,50,816,1789,1905,2170,2337,2077,1853,1893,2007
982421,63800,31876,64949,32181,1828,906,195,550,62,325,1319,3776,59,50,816,1814,1922,2176,2337,2096,1876,1915,2027
983422,63872,31920,65014,32246,1620,1081,176,585,27,790,1367,3665,55,51,814,1814,1922,2176,2337,2096,1876,1915,2027
984423,63956,31988,65079,32311,1447,779,181,579,-16,596,1501,3819,46,48,815,1814,1922,2176,2337,2096,1876,1915,2027
985424,64024,32044,65144,32376,1644,940,181,567,-38,120,1184,3813,57,42,818,1814,1922,2176,2337,2096,1876,1915,2027
986425,64120,32108,65209,32441,1257,841,177,568,-52,99,1123,3668,46,54,815,1814,1922,2176,2337,2096,1876,1915,2027
987426,64192,32180,65274,32506,1548,732,157,567,-29,418,1032,4075,49,42,820,1798,1898,2160,2304,2080,1877,1907,2004
988427,64248,32244,65339,32571,1760,834,140,547,5,608,900,3793,51,39,817,1798,1898,2160,2304,2080,1877,1907,2004
989428,64312,32304,65404,32636,1662,890,124,535,32,440,1091,4008,60,53,814,1798,1898,2160,2304,2080,1877,1907,2004
990429,64388,32364,65469,32701,1498,896,94,506,42,-150,1255,3968,50,53,815,1798,1898,2160,2304,2080,1877,1907,2004
991430,64456,32416,65534,32766,1595,1012,72,512,50,1,900,4063,47,51,816,1798,1898,2160,2304,2080,1877,1907,2004
992431,64540,32476,65599,32831,1372,919,49,513,71,641,968,3852,51,52,815,1798,1898,2160,2304,2080,1877,1907,2004
993432,64588,32548,65664,32896,1844,760,20,468,83,433,1109,3765,54,54,818,1760,1876,2143,2294,2087,1861,1890,2009
994433,64644,32616,65729,32961,1755,807,2,457,56,93,1178,3902,60,42,814,1760,1876,2143,2294,2087,1861,1890,2009
995434,64724,32680,65794,33026,1437,858,-21,457,16,154,1292,3746,51,45,815,1760,1876,2143,2294,2087,1861,1890,2009
996435,64800,32724,65859,33091,1474,1133,-23,440,-36,312,1509,3817,59,57,818,1760,1876,2143,2294,2087,1861,1890,2009
997436,64868,32800,65924,33156,1571,720,-34,438,-87,327,1378,3722,51,54,816,1760,1876,2143,2294,2087,1861,1890,2009
998437,64940,32872,65989,33221,1513,762,-39,423,-135,286,1364,3542,66,51,817,1746,1856,2121,2265,2085,1850,1888,2010
999438,65008,32928,66054,33286,1559,974,-66,422,-189,387,1526,3750,50,61,818,1746,1856,2121,2265,2085,1850,1888,2010
1000439,65076,33016,66119,33351,1556,545,-87,435,-232,355,1417,3602,55,57,816,1746,1856,2121,2265,2085,1850,1888,2010
1001440,65144,33088,66184,33416,1553,737,-110,424,-270,480,1671,3402,52,56,818,1746,1856,2121,2265,2085,1850,1888,2010
1002441,65228,33148,66249,33481,1330,893,-124,418,-301,246,1419,3441,51,45,817,1746,1856,2121,2265,2085,1850,1888,2010
1003442,65312,33212,66314,33546,1308,844,-158,436,-319,304,1502,3535,53,44,819,1746,1856,2121,2265,2085,1850,1888,2010
1004443,65384,33292,66379,33611,1449,626,-166,429,-328,426,1597,3314,65,50,819,1762,1880,2144,2292,2084,1856,1892,2010
1005444,65448,33356,66444,33676,1550,827,-195,442,-322,41,1350,3388,60,43,819,1762,1880,2144,2292,2084,1856,1892,2010
1006445,65524,33416,66509,33741,1388,883,-223,454,-313,159,1297,3333,46,57,816,1762,1880,2144,2292,2084,1856,1892,2010
1007446,65592,33500,66574,33806,1484,560,-253,465,-294,295,1307,3399,56,59,818,1762,1880,2144,2292,2084,1856,1892,2010
1008447,65672,33572,66639,33871,1316,702,-267,444,-303,359,1611,3415,62,50,819,1762,1880,2144,2292,2084,1856,1892,2010
1009448,65736,33640,66704,33936,1518,749,-282,396,-299,-207,1260,3276,55,44,820,1773,1887,2155,2306,2067,1851,1878,1991
1010449,65796,33716,66769,34001,1574,635,-304,364,-282,-228,1213,3652,54,46,817,1773,1887,2155,2306,2067,1851,1878,1991
1011450,65856,33784,66834,34066,1581,732,-319,354,-270,290,1487,3531,44,45,818,1773,1887,2155,2306,2067,1851,1878,1991
1012451,65912,33832,66899,34131,1642,1002,-314,345,-263,198,1334,3464,54,45,817,1773,1887,2155,2306,2067,1851,1878,1991
1013452,65992,33908,66964,34196,1324,639,-326,307,-298,104,1653,3787,51,55,815,1773,1887,2155,2306,2067,1851,1878,1991
1014453,66056,33972,67029,34261,1526,790,-332,272,-323,-168,1496,3330,48,46,820,1773,1887,2155,2306,2067,1851,1878,1991
1015454,66116,34048,67094,34326,1582,627,-359,258,-340,2,1372,3588,47,52,817,1759,1867,2141,2291,2052,1834,1861,1972
1016455,66172,34116,67159,34391,1643,723,-387,300,-383,588,1411,3837,50,60,817,1759,1867,2141,2291,2052,1834,1861,1972
1017456,66236,34200,67224,34456,1546,501,-418,311,-421,675,1463,3515,57,46,817,1759,1867,2141,2291,2052,1834,1861,1972
1018457,66296,34268,67289,34521,1602,697,-434,326,-488,491,1781,3588,44,46,818,1759,1867,2141,2291,2052,1834,1861,1972
1019458,66360,34332,67354,34586,1554,749,-456,306,-537,111,1762,3641,52,52,817,1759,1867,2141,2291,2052,1834,1861,1972
1020459,66440,34400,67419,34651,1336,695,-460,346,-575,14,1581,3705,52,50,818,1757,1861,2127,2274,2060,1836,1874,1994
1021460,66492,34468,67484,34716,1701,691,-478,397,-599,501,1656,3692,55,56,819,1757,1861,2127,2274,2060,1836,1874,1994
1022461,66564,34528,67549,34781,1444,797,-476,429,-616,694,1661,3571,44,60,816,1757,1861,2127,2274,2060,1836,1874,1994
1023462,66632,34624,67614,34846,1490,309,-509,407,-643,38,1531,3436,49,51,817,1757,1861,2127,2274,2060,1836,1874,1994
1024463,66708,34696,67679,34911,1377,601,-518,384,-690,-68,1715,3566,54,46,820,1757,1861,2127,2274,2060,1836,1874,1994
1025464,66784,34780,67744,34976,1364,428,-534,352,-703,-132,1556,3205,57,46,820,1757,1861,2127,2274,2060,1836,1874,1994
1026465,66860,34844,67809,35041,1351,679,-545,374,-694,12,1433,3568,57,46,821,1751,1867,2132,2282,2072,1848,1886,2006
1027466,66928,34900,67874,35106,1447,790,-561,381,-683,237,1556,3478,50,52,820,1751,1867,2132,2282,2072,1848,1886,2006
1028467,67008,34976,67939,35171,1280,527,-559,361,-694,-15,1797,3521,52,51,818,1751,1867,2132,2282,2072,1848,1886,2006
1029468,67080,35064,68004,35236,1371,349,-550,329,-669,-247,1463,3494,60,62,821,1751,1867,2132,2282,2072,1848,1886,2006
