%  Data file recorded 2016/10/6  23:43:13
%  Stride Frequency         = [1, 1]
%  Lead In /Lead Out        = 
%  Deltas (Fractional)      = [0.25, 0.25, 0.25],[0.25, 0.25, 0.25]
%  Phase                    = 32768
%  Experiment.py 
%  Motor Gains    = [5000, 400, 200, 0, 300, 5000, 400, 200, 0, 300]
% Columns: 
% time | Right Leg Pos | Left Leg Pos | Commanded Right Leg Pos | Commanded Left Leg Pos | DCR | DCL | GyroX | GyroY | GyroZ | AX | AY | AZ | RBEMF | LBEMF | VBatt | S1 | S2 | S3 | S4 | S5 | S6 | S7 | S8
415,17216,-16552,16716,-16052,-3800,-3800,-147,144,-5,-114,-8,3941,-5,-1,823,1754,1870,2059,2244,2037,1796,1869,1981
1416,17228,-16564,16716,-16052,-3800,-3800,-145,145,-8,-119,9,3942,11,-5,822,1754,1870,2059,2244,2037,1796,1869,1981
2417,17220,-16560,16716,-16052,-3800,-3800,-144,147,-7,-121,-1,3945,2,4,822,1754,1870,2059,2244,2037,1796,1869,1981
3418,17216,-16552,16716,-16052,-3800,-3800,-145,148,-6,-112,1,3973,-5,9,823,1754,1870,2059,2244,2037,1796,1869,1981
4419,17224,-16552,16716,-16052,-3800,-3800,-143,149,-8,-148,1,3941,-5,3,823,1756,1869,2059,2244,2038,1797,1869,1982
5420,17224,-16556,16716,-16052,-3800,-3800,-142,144,-8,-132,0,3936,10,-5,823,1756,1869,2059,2244,2038,1797,1869,1982
6421,17216,-16548,16716,-16052,-3800,-3800,-144,141,-5,-129,10,3940,9,3,823,1756,1869,2059,2244,2038,1797,1869,1982
7422,17232,-16564,16716,-16052,-3800,-3800,-146,141,-4,-98,5,3956,-7,9,823,1756,1869,2059,2244,2038,1797,1869,1982
8423,17216,-16552,16716,-16052,-3800,-3800,-147,144,-6,-94,3,3924,3,4,822,1756,1869,2059,2244,2038,1797,1869,1982
9424,17232,-16560,16716,-16052,-3800,-3800,-145,144,-8,-92,-6,3910,10,-5,823,1754,1870,2059,2245,2038,1797,1869,1980
10425,17228,-16564,16716,-16052,-3800,-3800,-143,147,-10,-125,18,3928,-1,-5,823,1754,1870,2059,2245,2038,1797,1869,1980
11426,17224,-16556,16716,-16052,-3800,-3800,-145,150,-10,-116,2,3926,-3,2,823,1754,1870,2059,2245,2038,1797,1869,1980
12427,17216,-16564,16716,-16052,-3800,-3800,-147,149,-9,-96,16,3887,8,10,823,1754,1870,2059,2245,2038,1797,1869,1980
13428,17216,-16552,16716,-16052,-3800,-3800,-148,145,-7,-89,15,3935,10,8,823,1754,1870,2059,2245,2038,1797,1869,1980
14429,17228,-16560,16716,-16052,-3800,-3800,-145,145,-8,-126,27,3945,-5,-5,823,1754,1870,2059,2245,2038,1797,1869,1980
15430,17228,-16556,16716,-16052,-3800,-3800,-143,146,-7,-138,8,3926,-8,1,822,1755,1870,2059,2245,2037,1796,1868,1980
16431,17220,-16564,16716,-16052,-3800,-3800,-142,145,-5,-111,-2,3916,2,7,823,1755,1870,2059,2245,2037,1796,1868,1980
17432,17224,-16556,16716,-16052,-3800,-3800,-144,147,-7,-130,6,3934,10,5,822,1755,1870,2059,2245,2037,1796,1868,1980
18433,17208,-16568,16716,-16052,-3800,-3800,-145,150,-9,-132,4,3930,2,-5,823,1755,1870,2059,2245,2037,1796,1868,1980
19434,17216,-16560,16716,-16052,-3800,-3800,-145,151,-10,-126,-8,3909,-7,-3,821,1755,1870,2059,2245,2037,1796,1868,1980
20435,17224,-16568,16716,-16052,-3800,-3800,-145,148,-7,-107,16,3910,10,9,823,1754,1868,2058,2244,2037,1795,1867,1979
21436,17216,-16556,16716,-16052,-3800,-3800,-141,147,-2,-135,9,3879,10,-1,823,1754,1868,2058,2244,2037,1795,1867,1979
22437,17224,-16560,16716,-16052,-3800,-3800,-143,148,-3,-129,9,3882,3,-5,823,1754,1868,2058,2244,2037,1795,1867,1979
23438,17224,-16544,16716,-16052,-3800,-3800,-146,151,-4,-114,13,3897,-8,9,823,1754,1868,2058,2244,2037,1795,1867,1979
24439,17220,-16552,16716,-16052,-3800,-3800,-148,151,-4,-118,39,3891,-6,-2,823,1754,1868,2058,2244,2037,1795,1867,1979
25440,17220,-16556,16716,-16052,-3800,-3800,-146,145,-5,-119,31,3917,10,-5,823,1754,1868,2058,2244,2037,1795,1867,1979
26441,17220,-16564,16716,-16052,-3800,-3800,-144,144,-7,-129,5,3919,1,4,823,1754,1869,2058,2244,2037,1796,1868,1979
27442,17220,-16548,16716,-16052,-3800,-3800,-142,145,-7,-106,-8,3935,-7,8,823,1754,1869,2058,2244,2037,1796,1868,1979
28443,17212,-16568,16716,-16052,-3800,-3800,-143,145,-5,-108,12,3952,0,-2,823,1754,1869,2058,2244,2037,1796,1868,1979
29444,17212,-16556,16716,-16052,-3800,-3800,-145,145,-5,-121,35,3935,11,-1,823,1754,1869,2058,2244,2037,1796,1868,1979
30445,17224,-16544,16716,-16052,-3800,-3800,-144,148,-6,-131,12,3930,4,9,823,1754,1869,2058,2244,2037,1796,1868,1979
31446,17220,-16560,16716,-16052,-3800,-3800,-143,146,-6,-133,5,3903,-7,7,823,1755,1870,2060,2243,2035,1793,1867,1980
32447,17208,-16564,16716,-16052,-3800,-3800,-142,144,-5,-141,5,3934,11,-5,823,1755,1870,2060,2243,2035,1793,1867,1980
33448,17228,-16552,16716,-16052,-3800,-3800,-142,146,-5,-131,17,3938,2,4,823,1755,1870,2060,2243,2035,1793,1867,1980
34449,17220,-16552,16716,-16052,-3800,-3800,-142,148,-4,-126,-6,3909,-7,8,823,1755,1870,2060,2243,2035,1793,1867,1980
35450,17224,-16552,16716,-16052,-3800,-3800,-144,146,-6,-124,4,3912,6,5,823,1755,1870,2060,2243,2035,1793,1867,1980
36455,17220,-16552,16716,-16052,-3800,-3800,-142,146,-5,-123,-2,3947,11,-5,821,1755,1870,2060,2243,2035,1793,1867,1980
37452,17220,-16564,16716,-16052,-3800,-3800,-143,147,-4,-122,-3,3972,-1,5,823,1755,1870,2059,2245,2037,1796,1868,1981
38453,17220,-16556,16716,-16052,-3800,-3800,-143,148,-4,-131,23,3924,10,10,823,1755,1870,2059,2245,2037,1796,1868,1981
39454,17212,-16548,16716,-16052,-3800,-3800,-143,148,-5,-134,24,3930,3,-1,823,1755,1870,2059,2245,2037,1796,1868,1981
40455,17220,-16556,16716,-16052,-3800,-3800,-143,148,-5,-120,6,3975,-6,-3,823,1755,1870,2059,2245,2037,1796,1868,1981
41456,17228,-16556,16716,-16052,-3800,-3800,-144,143,-5,-122,25,3948,10,-2,823,1755,1870,2059,2245,2037,1796,1868,1981
42457,17216,-16560,16716,-16052,-3800,-3800,-144,144,-5,-132,24,3940,-2,9,823,1756,1871,2062,2246,2040,1796,1868,1980
43458,17228,-16560,16716,-16052,-3800,-3800,-142,146,-7,-135,23,3949,-1,7,823,1756,1871,2062,2246,2040,1796,1868,1980
44459,17220,-16564,16716,-16052,-3800,-3800,-143,146,-6,-114,10,3949,11,-4,823,1756,1871,2062,2246,2040,1796,1868,1980
45460,17220,-16548,16716,-16052,-3800,-3800,-143,145,-7,-114,-3,3958,7,-1,823,1756,1871,2062,2246,2040,1796,1868,1980
46461,17228,-16556,16716,-16052,-3800,-3800,-144,145,-9,-113,15,3919,-7,4,823,1756,1871,2062,2246,2040,1796,1868,1980
47462,17220,-16556,16716,-16052,-3800,-3800,-143,145,-10,-122,10,3895,4,9,823,1756,1871,2062,2246,2040,1796,1868,1980
48463,17220,-16572,16716,-16052,-3800,-3800,-142,145,-6,-149,0,3909,6,-4,823,1755,1869,2059,2244,2038,1797,1869,1981
49464,17220,-16556,16716,-16052,-3800,-3800,-145,144,-6,-129,24,3895,-8,-5,823,1755,1869,2059,2244,2038,1797,1869,1981
50465,17216,-16552,16716,-16052,-3800,-3800,-146,143,-9,-120,32,3900,9,6,823,1755,1869,2059,2244,2038,1797,1869,1981
51466,17216,-16564,16716,-16052,-3800,-3800,-144,142,-10,-105,48,3919,9,7,823,1755,1869,2059,2244,2038,1797,1869,1981
52467,17220,-16560,16716,-16052,-3800,-3800,-145,143,-8,-97,20,3916,-8,-1,823,1755,1869,2059,2244,2038,1797,1869,1981
53468,17224,-16560,16716,-16052,-3800,-3800,-146,145,-7,-107,-1,3933,9,-2,821,1756,1868,2060,2244,2038,1796,1869,1984
54469,17228,-16552,16716,-16052,-3800,-3800,-145,145,-5,-119,5,3941,-7,9,823,1756,1868,2060,2244,2038,1796,1869,1984
55470,17220,-16568,16716,-16052,-3800,-3800,-144,144,-4,-104,23,3942,-4,7,823,1756,1868,2060,2244,2038,1796,1869,1984
56471,17208,-16556,16716,-16052,-3800,-3800,-145,146,-6,-110,2,3935,11,-2,823,1756,1868,2060,2244,2038,1796,1869,1984
57472,17220,-16556,16716,-16052,-3800,-3800,-143,146,-6,-129,14,3892,3,-5,823,1756,1868,2060,2244,2038,1796,1869,1984
58473,17228,-16560,16716,-16052,-3800,-3800,-147,147,-9,-113,5,3897,-7,-3,823,1754,1868,2058,2243,2037,1797,1868,1980
59474,17212,-16556,16716,-16052,-3800,-3800,-146,147,-8,-132,-2,3954,9,7,824,1754,1868,2058,2243,2037,1797,1868,1980
60475,17216,-16552,16716,-16052,-3800,-3800,-145,147,-9,-111,23,3931,5,5,823,1754,1868,2058,2243,2037,1797,1868,1980
61476,17212,-16564,16716,-16052,-3800,-3800,-146,147,-9,-138,12,3896,-7,-2,823,1754,1868,2058,2243,2037,1797,1868,1980
62477,17220,-16540,16716,-16052,-3800,-3800,-148,148,-9,-126,-7,3909,8,-5,823,1754,1868,2058,2243,2037,1797,1868,1980
63478,17236,-16536,16716,-16052,-3800,-3800,-147,146,-8,-97,17,3912,10,2,823,1754,1868,2058,2243,2037,1797,1868,1980
64479,17216,-16552,16716,-16052,-3800,-3800,-145,144,-8,-89,4,3877,-7,1,823,1754,1870,2059,2245,2037,1797,1868,1979
65480,17224,-16556,16716,-16052,-3800,-3800,-144,144,-7,-99,7,3876,2,9,823,1754,1870,2059,2245,2037,1797,1868,1979
66481,17216,-16564,16716,-16052,-3800,-3800,-143,144,-7,-108,-9,3906,10,8,823,1754,1870,2059,2245,2037,1797,1868,1979
67482,17224,-16552,16716,-16052,-3800,-3800,-144,145,-6,-118,18,3925,3,7,823,1754,1870,2059,2245,2037,1797,1868,1979
68483,17220,-16556,16716,-16052,-3800,-3800,-146,148,-8,-116,27,3943,-4,-3,823,1754,1870,2059,2245,2037,1797,1868,1979
69484,17212,-16560,16716,-16052,-3800,-3800,-144,149,-9,-124,14,3954,-4,-2,823,1755,1869,2059,2245,2037,1797,1869,1979
70485,17224,-16556,16716,-16052,-3800,-3800,-143,147,-10,-128,9,3966,-7,7,821,1755,1869,2059,2245,2037,1797,1869,1979
71486,17224,-16552,16716,-16052,-3800,-3800,-143,146,-7,-118,12,3933,-4,-3,823,1755,1869,2059,2245,2037,1797,1869,1979
72487,17228,-16564,16716,-16052,-3800,-3800,-143,146,-6,-125,15,3901,-7,-1,823,1755,1869,2059,2245,2037,1797,1869,1979
73488,17224,-16548,16716,-16052,-3800,-3800,-144,144,-7,-122,13,3912,3,8,823,1755,1869,2059,2245,2037,1797,1869,1979
74489,17216,-16560,16716,-16052,-3800,-3800,-144,145,-6,-92,-11,3930,7,3,823,1755,1869,2059,2245,2037,1797,1869,1979
75490,17224,-16552,16716,-16052,-3800,-3800,-143,145,-4,-108,3,3945,-4,-4,823,1756,1869,2059,2245,2037,1796,1868,1980
76491,17220,-16552,16716,-16052,-3800,-3800,-142,146,-6,-138,16,3941,-7,-5,823,1756,1869,2059,2245,2037,1796,1868,1980
77492,17220,-16548,16716,-16052,-3800,-3800,-143,146,-6,-106,11,3919,3,-2,823,1756,1869,2059,2245,2037,1796,1868,1980
78493,17228,-16556,16716,-16052,-3800,-3800,-144,146,-7,-107,15,3911,11,7,823,1756,1869,2059,2245,2037,1796,1868,1980
79494,17232,-16556,16716,-16052,-3800,-3800,-144,147,-7,-128,-5,3947,4,5,823,1756,1869,2059,2245,2037,1796,1868,1980
80495,17224,-16564,16716,-16052,-3800,-3800,-145,145,-5,-137,16,3926,-8,9,823,1755,1871,2060,2245,2035,1795,1867,1982
81496,17212,-16564,16716,-16052,-3800,-3800,-145,143,-6,-117,8,3914,-7,8,823,1755,1871,2060,2245,2035,1795,1867,1982
82497,17208,-16552,16716,-16052,-3800,-3800,-142,143,-8,-104,-4,3939,10,4,823,1755,1871,2060,2245,2035,1795,1867,1982
83498,17216,-16552,16716,-16052,-3800,-3800,-141,147,-7,-103,-1,3920,-1,-5,823,1755,1871,2060,2245,2035,1795,1867,1982
84499,17228,-16552,16716,-16052,-3800,-3800,-142,147,-6,-120,18,3898,-7,-3,823,1755,1871,2060,2245,2035,1795,1867,1982
85500,17228,-16548,16716,-16052,-3800,-3800,-144,145,-3,-153,28,3903,-1,-2,823,1755,1871,2060,2245,2035,1795,1867,1982
86501,17212,-16556,16716,-16052,-3800,-3800,-145,145,-5,-124,8,3920,10,8,823,1756,1869,2059,2245,2038,1796,1869,1981
87502,17220,-16560,16716,-16052,-3800,-3800,-142,146,-5,-128,8,3943,-2,7,821,1756,1869,2059,2245,2038,1796,1869,1981
88503,17208,-16556,16716,-16052,-3800,-3800,-141,146,-6,-117,12,3918,10,-4,823,1756,1869,2059,2245,2038,1796,1869,1981
89504,17224,-16556,16716,-16052,-3800,-3800,-142,148,-4,-141,2,3924,9,2,823,1756,1869,2059,2245,2038,1796,1869,1981
90505,17216,-16564,16716,-16052,-3800,-3800,-143,149,-3,-124,14,3977,-7,9,823,1756,1869,2059,2245,2038,1796,1869,1981
91506,17228,-16552,16716,-16052,-3800,-3800,-143,148,-4,-108,0,3942,3,2,823,1753,1867,2055,2243,2038,1798,1870,1981
92507,17216,-16548,16716,-16052,-3800,-3800,-144,148,-5,-108,24,3975,9,-5,823,1753,1867,2055,2243,2038,1798,1870,1981
93508,17208,-16556,16716,-16052,-3800,-3800,-144,148,-6,-109,41,3948,-2,6,823,1753,1867,2055,2243,2038,1798,1870,1981
94509,17224,-16556,16716,-16052,-3800,-3800,-143,147,-5,-131,36,3931,-5,10,823,1753,1867,2055,2243,2038,1798,1870,1981
95510,17216,-16552,16716,-16052,-3800,-3800,-143,147,-8,-128,6,3910,11,2,823,1753,1867,2055,2243,2038,1798,1870,1981
96511,17220,-16556,16716,-16052,-3800,-3800,-142,148,-6,-134,-2,3908,3,-3,823,1753,1867,2055,2243,2038,1798,1870,1981
97512,17212,-16544,16716,-16052,-3800,-3800,-144,148,-6,-124,1,3928,-7,2,823,1755,1869,2059,2244,2037,1796,1867,1979
98513,17220,-16560,16716,-16052,-3800,-3800,-145,145,-5,-126,11,3938,11,10,823,1755,1869,2059,2244,2037,1796,1867,1979
99514,17216,-16552,16716,-16052,-3800,-3800,-144,146,-6,-125,2,3958,-2,0,823,1755,1869,2059,2244,2037,1796,1867,1979
100515,17236,-16556,16716,-16052,-3800,-3800,-145,146,-4,-124,28,3974,-3,-5,823,1755,1869,2059,2244,2037,1796,1867,1979
101516,17224,-16552,16716,-16052,-3800,-3800,-148,148,-4,-131,4,3958,11,5,823,1755,1869,2059,2244,2037,1796,1867,1979
102517,17216,-16556,16716,-16052,-3800,-3800,-149,147,-6,-140,-3,3908,2,9,823,1756,1870,2060,2244,2040,1796,1868,1984
103518,17212,-16552,16716,-16052,-3800,-3800,-148,147,-8,-124,18,3941,-5,3,823,1756,1870,2060,2244,2040,1796,1868,1984
104519,17220,-16556,16716,-16052,-3800,-3800,-147,146,-7,-148,5,3941,10,-2,821,1756,1870,2060,2244,2040,1796,1868,1984
105520,17220,-16560,16716,-16052,-3800,-3800,-145,145,-5,-128,4,3986,-4,7,823,1756,1870,2060,2244,2040,1796,1868,1984
106521,17224,-16568,16716,-16052,-3800,-3800,-143,148,-4,-150,-5,3977,1,0,823,1756,1870,2060,2244,2040,1796,1868,1984
107522,17224,-16568,16716,-16052,-3800,-3800,-145,147,-6,-143,13,3938,9,-5,823,1756,1870,2060,2244,2040,1796,1868,1984
108523,17212,-16564,16716,-16052,-3800,-3800,-146,149,-7,-117,18,3927,-4,3,823,1755,1869,2058,2244,2037,1797,1868,1980
109524,17216,-16560,16716,-16052,-3800,-3800,-147,149,-6,-146,5,3966,-4,8,823,1755,1869,2058,2244,2037,1797,1868,1980
110525,17208,-16552,16716,-16052,-3800,-3800,-145,146,-6,-128,18,3946,11,7,823,1755,1869,2058,2244,2037,1797,1868,1980
111526,17216,-16548,16716,-16052,-3800,-3800,-145,142,-4,-104,27,3928,1,-3,823,1755,1869,2058,2244,2037,1797,1868,1980
112527,17216,-16556,16716,-16052,-3800,-3800,-146,145,-4,-127,15,3928,-4,-5,823,1755,1869,2058,2244,2037,1797,1868,1980
113528,17232,-16556,16716,-16052,-3800,-3800,-144,145,-3,-126,8,3939,10,3,823,1756,1872,2060,2245,2037,1797,1868,1980
114529,17220,-16560,16716,-16052,-3800,-3800,-144,142,-5,-133,9,3936,3,10,823,1756,1872,2060,2245,2037,1797,1868,1980
115530,17208,-16544,16716,-16052,-3800,-3800,-143,143,-6,-117,-4,3952,-8,1,823,1756,1872,2060,2245,2037,1797,1868,1980
116531,17216,-16552,16716,-16052,-3800,-3800,-146,144,-9,-130,8,3947,1,-2,823,1756,1872,2060,2245,2037,1797,1868,1980
117532,17216,-16552,16716,-16052,-3800,-3800,-147,147,-7,-126,-3,3915,11,10,823,1756,1872,2060,2245,2037,1797,1868,1980
118533,17220,-16564,16716,-16052,-3800,-3800,-144,147,-7,-122,-2,3909,2,9,823,1756,1872,2060,2245,2037,1797,1868,1980
119534,17232,-16552,16716,-16052,-3800,-3800,-145,145,-5,-129,19,3918,-7,0,823,1755,1869,2058,2245,2037,1796,1869,1981
120535,17220,-16556,16716,-16052,-3800,-3800,-145,143,-5,-124,21,3925,2,-5,823,1755,1869,2058,2245,2037,1796,1869,1981
121536,17224,-16556,16716,-16052,-3800,-3800,-142,144,-5,-117,35,3929,11,-4,821,1755,1869,2058,2245,2037,1796,1869,1981
122537,17216,-16568,16716,-16052,-3800,-3800,-142,145,-8,-116,-10,3905,0,9,823,1755,1869,2058,2245,2037,1796,1869,1981
123538,17216,-16548,16716,-16052,-3800,-3800,-144,146,-9,-89,8,3894,-6,5,823,1755,1869,2058,2245,2037,1796,1869,1981
124539,17220,-16556,16716,-16052,-3800,-3800,-145,148,-9,-93,6,3924,8,0,823,1756,1868,2058,2244,2037,1796,1868,1979
125540,17220,-16548,16716,-16052,-3800,-3800,-143,147,-8,-106,3,3927,7,-3,823,1756,1868,2058,2244,2037,1796,1868,1979
126541,17212,-16552,16716,-16052,-3800,-3800,-142,146,-8,-126,1,3876,2,9,823,1756,1868,2058,2244,2037,1796,1868,1979
127542,17228,-16568,16716,-16052,-3800,-3800,-142,147,-8,-127,17,3934,-8,8,823,1756,1868,2058,2244,2037,1796,1868,1979
128543,17220,-16552,16716,-16052,-3800,-3800,-145,147,-8,-96,16,3965,2,-4,823,1756,1868,2058,2244,2037,1796,1868,1979
129544,17224,-16568,16716,-16052,-3800,-3800,-146,148,-8,-115,13,3948,9,4,823,1756,1868,2058,2244,2037,1796,1868,1979
130545,17228,-16564,16716,-16052,-3800,-3800,-144,148,-7,-108,16,3918,-2,9,823,1755,1869,2059,2244,2037,1796,1868,1979
131546,17220,-16560,16716,-16052,-3800,-3800,-143,146,-6,-117,2,3914,-4,4,823,1755,1869,2059,2244,2037,1796,1868,1979
132547,17220,-16544,16716,-16052,-3800,-3800,-144,144,-9,-153,-6,3927,4,-5,823,1755,1869,2059,2244,2037,1796,1868,1979
133548,17224,-16552,16716,-16052,-3800,-3800,-144,145,-8,-141,-5,3916,10,-4,823,1755,1869,2059,2244,2037,1796,1868,1979
134549,17212,-16568,16716,-16052,-3800,-3800,-144,147,-8,-125,17,3933,-2,7,823,1755,1869,2059,2244,2037,1796,1868,1979
135550,17216,-16556,16716,-16052,-3800,-3800,-144,147,-6,-130,19,3939,-7,8,823,1756,1868,2058,2244,2037,1796,1868,1980
136551,17224,-16548,16716,-16052,-3800,-3800,-144,146,-4,-127,9,3967,-2,7,823,1756,1868,2058,2244,2037,1796,1868,1980
137552,17216,-16560,16716,-16052,-3800,-3800,-143,148,-5,-107,-5,3952,11,-3,823,1756,1868,2058,2244,2037,1796,1868,1980
138553,17224,-16560,16716,-16052,-3800,-3800,-143,146,-5,-111,-4,3905,3,-4,822,1756,1868,2058,2244,2037,1796,1868,1980
139554,17212,-16552,16716,-16052,-3800,-3800,-145,147,-6,-107,13,3928,11,7,823,1756,1868,2058,2244,2037,1796,1868,1980
140555,17212,-16564,16716,-16052,-3800,-3800,-145,149,-7,-90,7,3963,7,7,823,1756,1868,2058,2244,2037,1796,1868,1980
141556,17220,-16560,16716,-16052,-3800,-3800,-143,146,-5,-120,43,3947,-4,-5,823,1756,1869,2058,2244,2037,1795,1868,1980
142557,17216,-16548,16716,-16052,-3800,-3800,-143,146,-6,-136,36,3922,-5,-2,823,1756,1869,2058,2244,2037,1795,1868,1980
143558,17224,-16568,16716,-16052,-3800,-3800,-143,148,-4,-145,-4,3924,10,9,823,1756,1869,2058,2244,2037,1795,1868,1980
144559,17228,-16552,16716,-16052,-3800,-3800,-147,148,-5,-132,16,3921,10,5,823,1756,1869,2058,2244,2037,1795,1868,1980
145560,17212,-16548,16716,-16052,-3800,-3800,-148,147,-6,-127,8,3917,-5,-1,823,1756,1869,2058,2244,2037,1795,1868,1980
146561,17220,-16552,16716,-16052,-3800,-3800,-147,147,-6,-111,11,3918,-3,-5,823,1757,1872,2060,2244,2038,1797,1868,1979
147562,17216,-16544,16716,-16052,-3800,-3800,-144,148,-6,-101,1,3922,6,-1,823,1757,1872,2060,2244,2038,1797,1868,1979
148563,17228,-16552,16716,-16052,-3800,-3800,-142,149,-7,-122,0,3899,9,-2,823,1757,1872,2060,2244,2038,1797,1868,1979
149564,17216,-16552,16716,-16052,-3800,-3800,-141,147,-6,-151,20,3926,-8,6,823,1757,1872,2060,2244,2038,1797,1868,1979
150565,17212,-16544,16716,-16052,-3800,-3800,-144,144,-5,-130,26,3927,0,9,823,1757,1872,2060,2244,2038,1797,1868,1979
151566,17216,-16544,16716,-16052,-3800,-3800,-144,146,-5,-134,26,3937,11,9,823,1757,1872,2060,2244,2038,1797,1868,1979
152567,17220,-16560,16716,-16052,-3800,-3800,-142,148,-4,-137,26,3920,-1,2,823,1756,1869,2058,2243,2036,1796,1868,1981
153568,17228,-16568,16716,-16052,-3800,-3800,-142,147,-5,-119,1,3925,-7,-5,823,1756,1869,2058,2243,2036,1796,1868,1981
154569,17228,-16552,16716,-16052,-3800,-3800,-144,145,-6,-138,3,3910,-2,-5,823,1756,1869,2058,2243,2036,1796,1868,1981
155570,17220,-16544,16716,-16052,-3800,-3800,-145,144,-4,-119,16,3919,11,-1,821,1756,1869,2058,2243,2036,1796,1868,1981
156571,17224,-16560,16716,-16052,-3800,-3800,-143,145,-3,-126,17,3934,-6,10,823,1756,1869,2058,2243,2036,1796,1868,1981
157572,17232,-16544,16716,-16052,-3800,-3800,-144,144,-2,-116,4,3927,-2,8,823,1757,1869,2060,2244,2037,1796,1868,1979
158573,17208,-16556,16716,-16052,-3800,-3800,-143,145,-2,-107,5,3930,10,-1,823,1757,1869,2060,2244,2037,1796,1868,1979
159574,17224,-16560,16716,-16052,-3800,-3800,-144,145,-2,-108,6,3940,0,-5,823,1757,1869,2060,2244,2037,1796,1868,1979
160575,17216,-16556,16716,-16052,-3800,-3800,-145,145,-6,-118,34,3914,-4,-5,823,1757,1869,2060,2244,2037,1796,1868,1979
161576,17224,-16560,16716,-16052,-3800,-3800,-144,146,-6,-114,24,3922,11,0,823,1757,1869,2060,2244,2037,1796,1868,1979
162577,17212,-16544,16716,-16052,-3800,-3800,-141,146,-6,-114,11,3938,4,9,823,1757,1869,2060,2244,2037,1796,1868,1979
163578,17216,-16552,16716,-16052,-3800,-3800,-143,147,-5,-116,20,3936,-8,9,823,1755,1868,2058,2244,2037,1796,1868,1979
164579,17220,-16564,16716,-16052,-3800,-3800,-145,146,-3,-110,24,3916,6,1,823,1755,1868,2058,2244,2037,1796,1868,1979
165580,17212,-16556,16716,-16052,-3800,-3800,-143,147,-5,-111,12,3921,11,-5,823,1755,1868,2058,2244,2037,1796,1868,1979
166581,17220,-16560,16716,-16052,-3800,-3800,-144,145,-3,-109,0,3927,2,-4,823,1755,1868,2058,2244,2037,1796,1868,1979
167582,17228,-16552,16716,-16052,-3800,-3800,-146,147,-6,-126,4,3925,-8,4,823,1755,1868,2058,2244,2037,1796,1868,1979
168583,17220,-16560,16716,-16052,-3800,-3800,-146,148,-6,-114,-3,3908,-3,10,823,1756,1868,2057,2244,2036,1795,1868,1979
169584,17216,-16560,16716,-16052,-3800,-3800,-144,147,-5,-137,28,3917,10,8,823,1756,1868,2057,2244,2036,1795,1868,1979
170585,17220,-16568,16716,-16052,-3800,-3800,-143,147,-6,-104,2,3923,1,-4,823,1756,1868,2057,2244,2036,1795,1868,1979
171586,17224,-16548,16716,-16052,-3800,-3800,-145,146,-8,-96,-6,3935,-5,0,823,1756,1868,2057,2244,2036,1795,1868,1979
172587,17224,-16548,16716,-16052,-3800,-3800,-145,145,-6,-109,26,3919,-6,4,821,1756,1868,2057,2244,2036,1795,1868,1979
173588,17212,-16552,16716,-16052,-3800,-3800,-144,145,-7,-116,23,3914,-2,2,823,1756,1868,2057,2244,2036,1795,1868,1979
174589,17216,-16556,16716,-16052,-3800,-3800,-145,145,-8,-129,-19,3916,7,-5,823,1757,1869,2059,2243,2037,1796,1868,1980
175590,17220,-16564,16716,-16052,-3800,-3800,-146,147,-8,-134,16,3921,-7,-3,823,1757,1869,2059,2243,2037,1796,1868,1980
176591,17216,-16552,16716,-16052,-3800,-3800,-147,147,-7,-108,22,3901,5,6,823,1757,1869,2059,2243,2037,1796,1868,1980
177592,17220,-16556,16716,-16052,-3800,-3800,-146,148,-10,-113,7,3898,11,9,823,1757,1869,2059,2243,2037,1796,1868,1980
178593,17216,-16544,16716,-16052,-3800,-3800,-145,146,-10,-107,2,3929,-6,8,823,1757,1869,2059,2243,2037,1796,1868,1980
179594,17220,-16544,16716,-16052,-3800,-3800,-145,146,-10,-117,10,3938,-1,-2,823,1757,1869,2059,2245,2038,1798,1868,1981
180595,17228,-16564,16716,-16052,-3800,-3800,-144,147,-9,-126,23,3911,8,-3,823,1757,1869,2059,2245,2038,1798,1868,1981
181596,17216,-16556,16716,-16052,-3800,-3800,-142,149,-6,-102,33,3928,10,5,823,1757,1869,2059,2245,2038,1798,1868,1981
182597,17212,-16556,16716,-16052,-3800,-3800,-143,147,-7,-126,7,3947,-8,8,823,1757,1869,2059,2245,2038,1798,1868,1981
183598,17220,-16556,16716,-16052,-3800,-3800,-143,147,-10,-115,8,3934,-7,-3,823,1757,1869,2059,2245,2038,1798,1868,1981
184599,17224,-16552,16716,-16052,-3800,-3800,-144,147,-8,-114,15,3931,10,-4,823,1757,1869,2059,2245,2038,1798,1868,1981
185600,17224,-16560,16716,-16052,-3800,-3800,-145,148,-7,-109,22,3939,-3,8,823,1757,1869,2059,2245,2039,1797,1867,1979
186601,17228,-16548,16716,-16052,-3800,-3800,-144,146,-9,-122,13,3935,-8,7,823,1757,1869,2059,2245,2039,1797,1867,1979
187602,17224,-16548,16716,-16052,-3800,-3800,-144,145,-9,-101,27,3954,-1,0,823,1757,1869,2059,2245,2039,1797,1867,1979
188603,17220,-16560,16716,-16052,-3800,-3800,-147,146,-10,-95,4,3927,11,-5,823,1757,1869,2059,2245,2039,1797,1867,1979
189604,17220,-16556,16716,-16052,-3800,-3800,-146,146,-11,-121,1,3938,9,9,821,1757,1869,2059,2245,2039,1797,1867,1979
190605,17212,-16556,16716,-16052,-3800,-3800,-146,146,-9,-130,6,3940,4,-1,823,1757,1870,2059,2245,2037,1797,1869,1980
191606,17220,-16560,16716,-16052,-3800,-3800,-145,146,-8,-107,10,3922,8,-3,823,1757,1870,2059,2245,2037,1797,1869,1980
192607,17224,-16552,16716,-16052,-3800,-3800,-145,146,-10,-117,26,3937,9,8,823,1757,1870,2059,2245,2037,1797,1869,1980
193608,17224,-16560,16716,-16052,-3800,-3800,-146,146,-8,-132,4,3944,-4,8,823,1757,1870,2059,2245,2037,1797,1869,1980
194609,17220,-16548,16716,-16052,-3800,-3800,-146,147,-7,-141,-20,3936,-5,-4,823,1757,1870,2059,2245,2037,1797,1869,1980
195610,17216,-16564,16716,-16052,-3800,-3800,-145,148,-6,-125,12,3925,0,-1,823,1757,1870,2059,2245,2037,1797,1869,1980
196611,17216,-16548,16716,-16052,-3800,-3800,-144,147,-6,-130,6,3952,10,6,823,1757,1869,2059,2245,2038,1797,1869,1981
197612,17216,-16560,16716,-16052,-3800,-3800,-144,146,-8,-134,11,3938,6,7,823,1757,1869,2059,2245,2038,1797,1869,1981
198613,17228,-16544,16716,-16052,-3800,-3800,-145,149,-6,-115,8,3935,-3,-4,823,1757,1869,2059,2245,2038,1797,1869,1981
199614,17212,-16556,16716,-16052,-3800,-3800,-146,146,-6,-108,2,3921,-7,-5,823,1757,1869,2059,2245,2038,1797,1869,1981
200615,17232,-16556,16781,-15987,-376,1119,-146,145,-6,-112,15,3936,4,6,823,1757,1869,2059,2245,2038,1797,1869,1981
201616,17236,-16556,16846,-15922,-103,1198,-144,148,-6,-111,1,3929,11,9,812,1756,1869,2058,2243,2037,1796,1868,1979
202617,17224,-16564,16911,-15857,191,1388,-144,153,-6,-132,-14,3895,-5,17,811,1756,1869,2058,2243,2037,1796,1868,1979
203618,17212,-16552,16976,-15792,285,1202,-141,149,-10,-88,2,3873,10,9,808,1756,1869,2058,2243,2037,1796,1868,1979
204619,17224,-16536,17041,-15727,50,1213,-149,137,-6,-192,-4,3965,1,18,811,1756,1869,2058,2243,2037,1796,1868,1979
205620,17216,-16476,17106,-15662,389,669,-146,133,-1,-72,-24,3896,13,24,812,1756,1869,2058,2243,2037,1796,1868,1979
206621,17224,-16420,17171,-15597,259,730,-154,120,-2,-286,41,4242,13,37,814,1756,1869,2058,2243,2037,1796,1868,1979
207622,17236,-16364,17236,-15532,274,741,-144,106,-6,-213,28,3950,15,42,816,1755,1867,2052,2237,2034,1794,1868,1979
208623,17236,-16296,17301,-15467,503,588,-144,97,-11,-188,-43,4153,15,35,816,1755,1867,2052,2237,2034,1794,1868,1979
209624,17240,-16216,17366,-15402,527,420,-144,93,-22,-116,-3,4016,17,47,815,1755,1867,2052,2237,2034,1794,1868,1979
210625,17252,-16136,17431,-15337,492,402,-152,98,-30,-84,-60,3965,2,47,817,1755,1867,2052,2237,2034,1794,1868,1979
211628,17268,-16080,17496,-15272,502,714,-164,105,-45,-72,-41,3831,22,40,817,1755,1867,2052,2237,2034,1794,1868,1979
212627,17276,-16016,17561,-15207,671,615,-182,114,-63,-194,-98,3977,16,49,814,1760,1873,2063,2243,2039,1801,1875,1991
213628,17288,-15944,17626,-15142,686,507,-197,123,-72,-139,-109,3968,26,45,814,1760,1873,2063,2243,2039,1801,1875,1991
214629,17316,-15864,17691,-15077,531,389,-211,120,-72,-234,-135,3992,21,40,815,1760,1873,2063,2243,2039,1801,1875,1991
215630,17340,-15780,17756,-15012,631,316,-215,96,-71,-321,-125,3937,22,43,817,1760,1873,2063,2243,2039,1801,1875,1991
216631,17376,-15716,17821,-14947,518,567,-217,64,-68,-424,-198,4037,16,46,816,1760,1873,2063,2243,2039,1801,1875,1991
217632,17400,-15636,17886,-14882,718,349,-215,42,-67,-368,-169,4008,27,54,815,1760,1873,2063,2243,2039,1801,1875,1991
218633,17436,-15572,17951,-14817,603,551,-213,35,-67,-218,-169,3998,26,47,816,1747,1859,2054,2235,2054,1811,1885,2002
219634,17488,-15492,18016,-14752,419,333,-203,36,-54,-236,-63,4015,39,41,815,1747,1859,2054,2235,2054,1811,1885,2002
220635,17544,-15420,18081,-14687,380,424,-197,33,-59,-378,-121,4049,26,43,819,1747,1859,2054,2235,2054,1811,1885,2002
221636,17588,-15356,18146,-14622,557,526,-193,28,-62,-256,-101,4178,40,48,818,1747,1859,2054,2235,2054,1811,1885,2002
222637,17632,-15280,18211,-14557,582,363,-187,21,-60,-199,-85,4130,27,37,816,1747,1859,2054,2235,2054,1811,1885,2002
223638,17692,-15220,18276,-14492,388,569,-186,20,-60,-198,-27,4154,34,41,815,1756,1872,2064,2223,2047,1791,1863,1984
224639,17752,-15128,18341,-14427,394,136,-177,24,-68,-232,-41,4165,49,44,817,1756,1872,2064,2223,2047,1791,1863,1984
225640,17792,-15052,18406,-14362,675,324,-186,11,-71,-124,22,4004,31,49,820,1756,1872,2064,2223,2047,1791,1863,1984
226641,17860,-14984,18471,-14297,322,420,-193,25,-70,-235,97,4112,42,39,816,1756,1872,2064,2223,2047,1791,1863,1984
227642,17912,-14908,18536,-14232,538,307,-213,38,-81,-245,81,3835,44,51,818,1756,1872,2064,2223,2047,1791,1863,1984
228643,17964,-14840,18601,-14167,554,403,-233,49,-93,-194,106,3895,36,37,818,1756,1872,2064,2223,2047,1791,1863,1984
229644,18036,-14768,18666,-14102,296,345,-257,44,-91,-291,42,3797,34,50,817,1764,1878,2064,2252,2046,1802,1877,1988
230645,18096,-14696,18731,-14037,453,337,-266,29,-94,-414,-89,3831,38,43,819,1764,1878,2064,2252,2046,1802,1877,1988
231646,18156,-14636,18796,-13972,459,493,-262,1,-101,-406,-60,3906,36,36,818,1764,1878,2064,2252,2046,1802,1877,1988
232647,18212,-14576,18861,-13907,520,499,-247,-32,-100,-351,-163,3757,41,35,817,1764,1878,2064,2252,2046,1802,1877,1988
233648,18292,-14508,18926,-13842,201,396,-232,-55,-96,-439,-228,3884,46,34,816,1764,1878,2064,2252,2046,1802,1877,1988
234649,18340,-14476,18991,-13777,623,887,-211,-63,-95,-375,-203,3816,48,42,819,1761,1870,2061,2246,2035,1793,1861,1973
235650,18404,-14408,19056,-13712,424,433,-190,-59,-81,-288,-231,3981,39,33,812,1761,1870,2061,2246,2035,1793,1861,1973
236651,18464,-14348,19121,-13647,481,539,-177,-46,-67,-213,-38,4084,38,45,818,1761,1870,2061,2246,2035,1793,1861,1973
237652,18536,-14276,19186,-13582,322,382,-159,-7,-55,-25,-125,4530,36,40,816,1761,1870,2061,2246,2035,1793,1861,1973
238653,18600,-14224,19251,-13517,424,648,-157,-32,-37,-153,-42,3501,55,49,819,1761,1870,2061,2246,2035,1793,1861,1973
239654,18660,-14148,19316,-13452,480,334,-142,-49,-27,-558,113,3955,41,41,816,1761,1870,2061,2246,2035,1793,1861,1973
240655,18724,-14080,19381,-13387,432,431,-145,-24,-21,-105,43,4083,45,49,816,1753,1861,2055,2246,2018,1780,1854,1962
241656,18776,-14024,19446,-13322,597,592,-142,-7,-21,5,102,4001,46,38,817,1753,1861,2055,2246,2018,1780,1854,1962
242657,18840,-13964,19511,-13257,449,549,-148,5,-12,-90,154,3626,37,42,815,1753,1861,2055,2246,2018,1780,1854,1962
243658,18896,-13908,19576,-13192,561,610,-163,18,-10,-203,234,3938,53,46,817,1753,1861,2055,2246,2018,1780,1854,1962
244659,18976,-13836,19641,-13127,242,402,-178,20,-4,-138,218,3774,38,39,815,1753,1861,2055,2246,2018,1780,1854,1962
245660,19032,-13772,19706,-13062,553,503,-182,-9,2,-283,127,3640,42,43,819,1772,1880,2063,2254,2008,1777,1856,1959
246661,19104,-13704,19771,-12997,346,450,-168,-24,-2,-302,149,3891,36,37,816,1772,1880,2063,2254,2008,1777,1856,1959
247662,19160,-13656,19836,-12932,557,720,-157,-60,-4,-296,71,3713,43,35,818,1772,1880,2063,2254,2008,1777,1856,1959
248663,19240,-13568,19901,-12867,238,193,-131,-83,-8,-313,-73,3845,44,35,814,1772,1880,2063,2254,2008,1777,1856,1959
249664,19300,-13512,19966,-12802,494,604,-109,-90,-2,-157,-62,3964,45,46,820,1772,1880,2063,2254,2008,1777,1856,1959
250665,19364,-13448,20031,-12737,447,505,-83,-101,12,-183,-116,3812,52,46,816,1772,1880,2063,2254,2008,1777,1856,1959
251666,19424,-13384,20096,-12672,503,507,-64,-88,13,-152,-63,3853,35,50,817,1766,1873,2062,2249,2022,1782,1860,1972
252667,19492,-13324,20161,-12607,399,564,-54,-53,11,-63,-114,4074,36,34,817,1766,1873,2062,2249,2022,1782,1860,1972
253668,19548,-13260,20226,-12542,560,515,-44,-45,30,-69,-213,3657,46,35,817,1766,1873,2062,2249,2022,1782,1860,1972
254669,19620,-13196,20291,-12477,353,516,-35,-35,37,-119,-160,4047,45,39,816,1766,1873,2062,2249,2022,1782,1860,1972
255670,19660,-13128,20356,-12412,783,464,-30,-15,39,-163,-133,3881,49,34,818,1766,1873,2062,2249,2022,1782,1860,1972
256671,19728,-13072,20421,-12347,429,625,-30,-27,45,-132,-63,3898,34,33,814,1762,1874,2060,2246,2024,1784,1856,1970
257672,19792,-13016,20486,-12282,481,635,-34,-46,53,-204,-20,3946,50,45,814,1762,1874,2060,2246,2024,1784,1856,1970
258673,19848,-12952,20551,-12217,593,537,-47,-70,53,-285,-38,3798,40,33,815,1762,1874,2060,2246,2024,1784,1856,1970
259674,19900,-12896,20616,-12152,659,649,-53,-74,49,-228,-4,4058,32,39,815,1762,1874,2060,2246,2024,1784,1856,1970
260675,19956,-12836,20681,-12087,620,605,-68,-77,50,-210,17,3759,50,32,814,1762,1874,2060,2246,2024,1784,1856,1970
261680,20020,-12788,20746,-12022,521,776,-68,-76,45,-154,-12,3968,50,48,814,1762,1874,2060,2246,2024,1784,1856,1970
262677,20080,-12728,20811,-11957,578,632,-76,-64,35,-86,17,4059,41,34,814,1745,1853,2035,2215,2006,1767,1824,1936
263678,20132,-12656,20876,-11892,694,474,-71,-68,24,-96,71,3903,51,42,814,1745,1853,2035,2215,2006,1767,1824,1936
264679,20192,-12596,20941,-11827,600,630,-65,-67,16,-96,47,4226,37,43,815,1745,1853,2035,2215,2006,1767,1824,1936
265680,20268,-12548,21006,-11762,386,801,-48,-65,8,-119,-42,4021,52,34,814,1745,1853,2035,2215,2006,1767,1824,1936
266681,20320,-12484,21071,-11697,703,603,-44,-73,-3,-85,-33,4037,51,41,815,1745,1853,2035,2215,2006,1767,1824,1936
267682,20400,-12416,21136,-11632,335,550,-24,-52,-7,-152,-114,4087,31,40,814,1775,1887,2079,2263,2075,1823,1903,2014
268683,20452,-12360,21201,-11567,701,711,-25,-44,-7,-138,-5,3998,45,40,817,1775,1887,2079,2263,2075,1823,1903,2014
269684,20504,-12300,21266,-11502,718,668,-16,-37,-4,-229,-128,3952,30,34,813,1775,1887,2079,2263,2075,1823,1903,2014
270685,20580,-12240,21331,-11437,404,674,-16,-33,3,-145,-98,4059,38,41,813,1775,1887,2079,2263,2075,1823,1903,2014
271686,20636,-12176,21396,-11372,665,625,-14,-32,0,-179,-144,3995,37,37,816,1775,1887,2079,2263,2075,1823,1903,2014
272687,20696,-12120,21461,-11307,621,736,-14,-35,-5,-213,-66,4044,48,38,814,1760,1876,2062,2250,2047,1823,1903,2014
273688,20744,-12060,21526,-11242,793,693,-23,-43,1,-290,-111,3982,50,45,812,1760,1876,2062,2250,2047,1806,1877,1989
274689,20800,-11992,21591,-11177,704,589,-30,-33,2,-181,-28,3965,46,34,809,1760,1876,2062,2250,2047,1806,1877,1989
275690,20864,-11928,21656,-11112,605,641,-51,-24,2,-170,16,3981,49,49,813,1760,1876,2062,2250,2047,1806,1877,1989
276691,20928,-11872,21721,-11047,608,753,-61,-17,-5,-103,-38,4057,47,37,814,1760,1876,2062,2250,2047,1806,1877,1989
277692,20980,-11812,21786,-10982,773,709,-69,4,-12,-158,30,4149,45,39,813,1760,1876,2062,2250,2047,1806,1877,1989
278693,21040,-11748,21851,-10917,679,660,-72,21,-13,-131,-3,4060,47,49,811,1760,1866,2057,2250,2035,1795,1867,1975
279694,21088,-11696,21916,-10852,851,827,-75,30,-25,-24,-27,4240,36,42,813,1760,1866,2057,2250,2035,1795,1867,1975
280695,21148,-11628,21981,-10787,707,623,-72,28,-40,-111,-39,4014,49,35,809,1760,1866,2057,2250,2035,1795,1867,1975
281696,21216,-11572,22046,-10722,604,784,-64,29,-43,-133,-54,4103,45,51,813,1760,1866,2057,2250,2035,1795,1867,1975
282697,21280,-11496,22111,-10657,655,522,-55,35,-43,-126,-42,4084,54,38,812,1760,1866,2057,2250,2035,1795,1867,1975
283698,21336,-11440,22176,-10592,767,783,-50,38,-52,-63,-7,4076,50,41,814,1752,1861,2046,2230,2027,1794,1863,1971
284699,21380,-11372,22241,-10527,943,629,-41,48,-52,-75,50,4055,45,41,811,1752,1861,2046,2230,2027,1794,1863,1971
285700,21440,-11312,22306,-10462,749,736,-50,50,-51,-123,219,3927,44,48,810,1752,1861,2046,2230,2027,1794,1863,1971
286701,21500,-11252,22371,-10397,756,742,-61,53,-51,-143,163,3923,41,42,812,1752,1861,2046,2230,2027,1794,1863,1971
287702,21556,-11196,22436,-10332,817,803,-59,70,-31,-257,29,4040,53,44,812,1752,1861,2046,2230,2027,1794,1863,1971
288703,21612,-11124,22501,-10267,828,596,-57,109,-10,-276,69,3954,57,40,811,1752,1861,2046,2230,2027,1794,1863,1971
289704,21668,-11056,22566,-10202,840,642,-49,126,41,-1020,-41,4108,56,42,812,1748,1860,2047,2236,2030,1783,1859,1968
290705,21752,-11012,22631,-10137,466,968,-45,153,34,-1010,473,3772,56,46,812,1748,1860,2047,2236,2030,1783,1859,1968
291706,21820,-10940,22696,-10072,663,610,-29,206,16,-444,399,4325,58,41,810,1748,1860,2047,2236,2030,1783,1859,1968
292707,21892,-10884,22761,-10007,605,821,8,240,-3,0,585,4085,42,33,813,1748,1860,2047,2236,2030,1783,1859,1968
293708,21956,-10832,22826,-9942,707,887,33,194,-12,-388,503,4012,52,37,813,1748,1860,2047,2236,2030,1783,1859,1968
294709,22052,-10764,22891,-9877,269,684,54,174,-33,-559,355,4001,45,47,811,1751,1851,2050,2243,2027,1787,1853,1960
295710,22100,-10700,22956,-9812,890,735,44,109,-25,-595,138,3708,58,37,816,1751,1851,2050,2243,2027,1787,1853,1960
296711,22172,-10652,23021,-9747,582,956,27,79,-13,-436,118,3651,47,42,811,1751,1851,2050,2243,2027,1787,1853,1960
297712,22264,-10572,23086,-9682,299,539,8,60,0,-443,49,3687,58,34,810,1751,1851,2050,2243,2027,1787,1853,1960
298713,22300,-10516,23151,-9617,1035,850,-11,23,14,-147,47,3674,46,35,817,1751,1851,2050,2243,2027,1787,1853,1960
299714,22368,-10468,23216,-9552,632,971,-23,30,14,100,135,3912,40,28,807,1751,1851,2050,2243,2027,1787,1853,1960
300715,22452,-10412,23281,-9487,408,883,-31,51,16,215,42,3854,55,35,810,1780,1852,2038,2215,1975,1775,1849,1936
301716,22492,-10352,23346,-9422,990,839,-16,112,41,21,4,4158,53,44,813,1780,1852,2038,2215,1975,1775,1849,1936
302717,22564,-10296,23411,-9357,581,900,-29,175,53,-23,177,3863,44,38,809,1780,1852,2038,2215,1975,1775,1849,1936
303718,22632,-10236,23476,-9292,628,857,-40,239,57,140,176,4188,56,42,812,1780,1852,2038,2215,1975,1775,1849,1936
304719,22696,-10172,23541,-9227,680,808,-39,267,58,256,228,4224,48,44,811,1780,1852,2038,2215,1975,1775,1849,1936
305720,22760,-10128,23606,-9162,681,1084,-43,221,65,-95,173,3929,39,45,811,1768,1883,2108,2286,2047,1812,1900,2024
306721,22832,-10080,23671,-9097,573,1055,-28,201,51,-212,276,4190,40,45,809,1768,1883,2108,2286,2047,1812,1900,2024
307722,22888,-10004,23736,-9032,785,692,-32,141,45,-462,70,3778,52,32,809,1768,1883,2108,2286,2047,1812,1900,2024
308723,22952,-9960,23801,-8967,686,1118,-17,82,58,-642,4,4022,41,44,810,1768,1883,2108,2286,2047,1812,1900,2024
309724,23032,-9892,23866,-8902,468,815,-14,28,68,-788,228,3801,39,44,808,1768,1883,2108,2286,2047,1812,1900,2024
310725,23084,-9848,23931,-8837,834,1141,-11,6,86,-849,217,3889,44,43,813,1768,1883,2108,2286,2047,1812,1900,2024
311726,23152,-9788,23996,-8772,631,948,-16,-38,94,-442,225,3813,56,41,806,1735,1843,2039,2219,2053,1805,1876,1997
312727,23224,-9716,24061,-8707,572,789,-2,-34,103,-209,178,3997,42,35,811,1735,1843,2039,2219,2053,1805,1876,1997
313728,23268,-9656,24126,-8642,948,945,35,-27,107,-38,150,4104,40,42,813,1735,1843,2039,2219,2053,1805,1876,1997
314729,23360,-9600,24191,-8577,316,1007,71,-7,104,-228,205,4207,44,46,807,1735,1843,2039,2219,2053,1805,1876,1997
315730,23416,-9552,24256,-8512,777,1128,86,23,93,47,192,3756,55,46,813,1735,1843,2039,2219,2053,1805,1876,1997
316731,23480,-9488,24321,-8447,678,929,102,86,83,457,64,4351,35,29,807,1731,1859,2045,2232,2056,1790,1865,1997
317732,23548,-9428,24386,-8382,625,986,111,122,90,355,76,3996,39,34,810,1731,1859,2045,2232,2056,1790,1865,1997
318733,23600,-9392,24451,-8317,841,1322,107,164,83,181,346,4087,40,42,810,1731,1859,2045,2232,2056,1790,1865,1997
319734,23672,-9308,24516,-8252,583,700,94,168,85,225,234,4100,46,41,804,1731,1859,2045,2232,2056,1790,1865,1997
320735,23720,-9256,24581,-8187,905,1115,91,151,98,292,112,4021,51,36,813,1731,1859,2045,2232,2056,1790,1865,1997
321736,23780,-9200,24646,-8122,761,1077,86,136,106,-140,120,4076,37,42,806,1731,1859,2045,2232,2056,1790,1865,1997
322737,23848,-9144,24711,-8057,657,1088,65,127,102,-66,216,3982,58,40,808,1768,1873,2067,2261,1999,1762,1850,1953
323738,23896,-9076,24776,-7992,929,935,41,123,110,-46,129,4181,45,49,808,1768,1873,2067,2261,1999,1762,1850,1953
324739,23968,-9032,24841,-7927,620,1261,14,84,111,108,125,3796,43,32,807,1768,1873,2067,2261,1999,1762,1850,1953
325740,24040,-8976,24906,-7862,612,1122,-5,48,111,-13,54,4264,54,37,805,1768,1873,2067,2261,1999,1762,1850,1953
326741,24084,-8900,24971,-7797,988,860,-8,23,107,102,1,4155,54,39,809,1768,1873,2067,2261,1999,1762,1850,1953
327742,24156,-8852,25036,-7732,630,1231,3,21,109,108,-212,4155,52,32,807,1768,1872,2067,2249,1996,1773,1841,1958
328743,24232,-8772,25101,-7667,566,812,22,28,114,-46,-199,4334,58,39,807,1768,1872,2067,2249,1996,1773,1841,1958
329744,24312,-8736,25166,-7602,499,1399,32,48,115,82,-182,4232,48,35,812,1768,1872,2067,2249,1996,1773,1841,1958
330745,24372,-8684,25231,-7537,755,1215,63,94,130,246,-282,4398,39,43,806,1768,1872,2067,2249,1996,1773,1841,1958
331746,24440,-8608,25296,-7472,651,902,71,102,159,33,-159,3942,41,40,806,1768,1872,2067,2249,1996,1773,1841,1958
332747,24528,-8568,25361,-7407,374,1383,88,135,164,33,31,4330,56,37,811,1768,1872,2067,2249,1996,1773,1841,1958
333748,24580,-8512,25426,-7342,840,1195,109,162,172,221,12,4182,53,44,807,1751,1859,2060,2246,2043,1795,1865,1988
334749,24644,-8436,25491,-7277,691,931,132,145,172,191,268,4146,54,38,805,1751,1859,2060,2246,2043,1795,1865,1988
335750,24700,-8408,25556,-7212,803,1576,150,157,172,-90,384,4241,53,43,810,1751,1859,2060,2246,2043,1795,1865,1988
336751,24764,-8344,25621,-7147,705,1129,162,200,142,348,266,4112,42,42,800,1751,1859,2060,2246,2043,1795,1865,1988
337752,24836,-8288,25686,-7082,596,1240,174,227,139,270,187,4067,48,44,807,1751,1859,2060,2246,2043,1795,1865,1988
338753,24888,-8228,25751,-7017,863,1197,166,234,134,-149,549,3966,48,35,807,1760,1820,1999,2223,2031,1786,1870,1947
339754,24944,-8184,25816,-6952,824,1422,142,253,123,-176,360,4254,35,37,805,1760,1820,1999,2223,2031,1786,1870,1947
340755,25004,-8108,25881,-6887,780,1010,134,263,103,519,342,4097,39,49,802,1760,1820,1999,2223,2031,1786,1870,1947
341756,25064,-8060,25946,-6822,787,1381,142,222,97,385,331,4165,39,46,808,1760,1820,1999,2223,2031,1786,1870,1947
342757,25128,-8028,26011,-6757,738,1622,149,222,82,222,166,4395,40,45,801,1760,1820,1999,2223,2031,1786,1870,1947
343758,25172,-7968,26076,-6692,1014,1278,163,252,76,230,-53,4215,40,33,801,1760,1820,1999,2223,2031,1786,1870,1947
344759,25244,-7908,26141,-6627,656,1285,176,260,93,72,-82,4084,43,45,802,1791,1908,2096,2286,2064,1824,1904,2016
345760,25296,-7848,26206,-6562,922,1291,192,265,109,-213,-56,4260,59,51,805,1791,1908,2096,2286,2064,1824,1904,2016
346761,25356,-7792,26271,-6497,828,1353,198,273,112,329,-170,4129,46,33,803,1791,1908,2096,2286,2064,1824,1904,2016
347762,25440,-7720,26336,-6432,506,1145,222,284,127,456,-413,4338,43,36,803,1791,1908,2096,2286,2064,1824,1904,2016
348763,25496,-7668,26401,-6367,867,1412,232,270,124,105,-102,4106,59,44,809,1791,1908,2096,2286,2064,1824,1904,2016
349764,25572,-7620,26466,-6302,604,1482,241,276,127,-78,-291,4008,46,31,802,1759,1879,2079,2263,2023,1787,1855,1975
350765,25636,-7556,26531,-6237,756,1285,239,275,140,174,-303,4041,45,47,804,1759,1879,2079,2263,2023,1787,1855,1975
351766,25728,-7500,26596,-6172,373,1396,233,249,143,19,-24,3874,45,39,804,1759,1879,2079,2263,2023,1787,1855,1975
352767,25796,-7436,26661,-6107,669,1298,231,262,140,15,26,4080,46,36,806,1759,1879,2079,2263,2023,1787,1855,1975
353768,25844,-7392,26726,-6042,941,1573,224,255,116,459,35,3847,52,39,805,1759,1879,2079,2263,2023,1787,1855,1975
354769,25908,-7344,26791,-5977,742,1545,210,241,99,280,286,4073,54,33,798,1759,1879,2079,2263,2023,1787,1855,1975
355770,25972,-7292,26856,-5912,744,1511,211,264,74,405,355,3972,53,43,802,1765,1873,2061,2251,2016,1776,1846,1956
356771,26044,-7232,26921,-5847,636,1418,199,254,61,442,176,4021,42,48,802,1765,1873,2061,2251,2016,1776,1846,1956
357772,26100,-7156,26986,-5782,847,1205,216,294,68,29,97,4283,42,46,804,1765,1873,2061,2251,2016,1776,1846,1956
358773,26164,-7112,27051,-5717,748,1631,211,296,69,-253,380,3985,40,39,805,1765,1873,2061,2251,2016,1776,1846,1956
359774,26232,-7048,27116,-5652,696,1383,217,305,64,47,332,4275,42,35,798,1765,1873,2061,2251,2016,1776,1846,1956
360775,26312,-6992,27181,-5587,527,1495,235,286,63,394,249,4054,43,34,804,1748,1855,2031,2227,2022,1771,1850,1965
361776,26360,-6944,27246,-5522,948,1615,257,265,58,113,255,4082,39,42,804,1748,1855,2031,2227,2022,1771,1850,1965
362777,26424,-6868,27311,-5457,750,1253,285,258,53,-101,247,4048,53,48,798,1748,1855,2031,2227,2022,1771,1850,1965
363778,26476,-6804,27376,-5392,916,1404,309,234,38,-157,238,4055,48,46,805,1748,1855,2031,2227,2022,1771,1850,1965
364779,26552,-6744,27441,-5327,603,1461,329,217,18,41,202,4047,42,34,801,1748,1855,2031,2227,2022,1771,1850,1965
365780,26624,-6672,27506,-5262,645,1303,348,207,4,174,188,4075,50,44,803,1748,1855,2031,2227,2022,1771,1850,1965
366781,26676,-6632,27571,-5197,911,1734,368,197,-14,298,128,4004,49,44,805,1731,1846,2014,2183,2025,1778,1845,1961
367782,26752,-6568,27636,-5132,598,1436,411,196,3,13,-182,4203,41,44,797,1731,1846,2014,2183,2025,1778,1845,1961
368783,26812,-6492,27701,-5067,805,1273,421,134,15,-417,135,3768,53,42,805,1731,1846,2014,2183,2025,1778,1845,1961
369784,26880,-6444,27766,-5002,701,1645,420,110,20,-425,70,4037,53,44,804,1731,1846,2014,2183,2025,1778,1845,1961
370785,26964,-6400,27831,-4937,478,1720,421,104,21,355,53,3994,58,34,800,1731,1846,2014,2183,2025,1778,1845,1961
371786,27032,-6336,27896,-4872,675,1473,425,96,20,216,-41,3943,45,43,801,1745,1832,2030,2238,1999,1756,1832,1940
372787,27100,-6300,27961,-4807,672,1858,431,98,19,-112,75,3994,59,35,802,1745,1832,2030,2238,1999,1756,1832,1940
373788,27172,-6252,28026,-4742,613,1730,413,94,1,5,221,3782,54,41,798,1745,1832,2030,2238,1999,1756,1832,1940
374789,27228,-6192,28091,-4677,825,1586,389,101,-21,202,292,3861,40,42,799,1745,1832,2030,2238,1999,1756,1832,1940
375790,27316,-6144,28156,-4612,397,1758,369,86,-35,387,424,3814,39,29,797,1745,1832,2030,2238,1999,1756,1832,1940
376791,27384,-6100,28221,-4547,643,1834,357,85,-54,306,314,3935,40,39,798,1745,1832,2030,2238,1999,1756,1832,1940
377792,27436,-6052,28286,-4482,860,1805,362,54,-60,-112,49,3988,53,24,797,1736,1840,2068,2257,1999,1759,1812,1920
378793,27496,-6004,28351,-4417,766,1827,357,25,-84,-234,363,3967,44,23,795,1736,1840,2068,2257,1999,1759,1812,1920
379794,27564,-5972,28416,-4352,663,2067,357,22,-89,-133,322,4090,46,29,796,1736,1840,2068,2257,1999,1759,1812,1920
380795,27620,-5932,28481,-4287,825,1999,355,26,-95,156,307,3888,51,24,792,1736,1840,2068,2257,1999,1759,1812,1920
381796,27680,-5880,28546,-4222,781,1865,360,2,-96,-128,304,3987,51,28,792,1736,1840,2068,2257,1999,1759,1812,1920
382797,27732,-5844,28611,-4157,896,2101,368,6,-101,-233,316,4078,39,33,795,1758,1856,2052,2226,2012,1768,1847,1969
383798,27788,-5796,28676,-4092,858,1973,396,-17,-99,-371,252,4011,38,22,790,1758,1856,2052,2226,2012,1768,1847,1969
384799,27860,-5760,28741,-4027,650,2159,420,-39,-99,-315,371,4085,39,25,793,1758,1856,2052,2226,2012,1768,1847,1969
385800,27904,-5720,28806,-3962,1026,2139,451,-54,-105,-293,355,3952,55,24,792,1758,1856,2052,2226,2012,1768,1847,1969
386801,27964,-5668,28871,-3897,833,2006,473,-73,-90,-426,161,4145,48,33,788,1758,1856,2052,2226,2012,1768,1847,1969
387802,28036,-5612,28936,-3832,674,1968,509,-119,-76,-720,168,4109,47,30,792,1758,1856,2052,2226,2012,1768,1847,1969
388803,28096,-5576,29001,-3767,830,2254,522,-143,-79,-443,390,4107,58,37,794,1751,1863,2047,2239,2079,1823,1883,2015
389804,28156,-5528,29066,-3702,837,2126,539,-134,-85,-36,307,3957,59,35,789,1751,1863,2047,2239,2079,1823,1883,2015
390805,28228,-5460,29131,-3637,679,1873,538,-120,-78,-72,409,3791,48,40,790,1751,1863,2047,2239,2079,1823,1883,2015
391806,28304,-5388,29196,-3572,615,1814,533,-132,-74,-238,564,3799,61,42,797,1751,1863,2047,2239,2079,1823,1883,2015
392807,28380,-5348,29261,-3507,603,2246,523,-157,-75,-357,508,3772,60,34,799,1751,1863,2047,2239,2079,1823,1883,2015
393808,28440,-5272,29326,-3442,809,1783,506,-188,-92,-434,393,3903,52,32,788,1737,1837,2020,2204,2004,1768,1848,1968
394809,28504,-5224,29391,-3377,760,2154,513,-186,-116,-332,287,4183,61,31,797,1737,1837,2020,2204,2004,1768,1848,1968
395810,28576,-5152,29456,-3312,653,1847,527,-189,-140,-15,441,4099,55,37,792,1737,1837,2020,2204,2004,1768,1848,1968
396811,28644,-5076,29521,-3247,699,1784,529,-202,-156,217,487,3890,47,50,797,1737,1837,2020,2204,2004,1768,1848,1968
397812,28732,-5020,29586,-3182,421,2045,527,-227,-165,-68,513,4034,42,45,798,1737,1837,2020,2204,2004,1768,1848,1968
398813,28796,-4944,29651,-3117,723,1783,517,-277,-180,-346,442,4087,43,40,796,1737,1837,2020,2204,2004,1768,1848,1968
399814,28852,-4884,29716,-3052,834,1990,515,-274,-182,-448,304,4299,37,49,797,1751,1856,2036,2216,1998,1747,1832,1948
400815,28924,-4812,29781,-2987,626,1832,510,-252,-183,-132,331,4282,37,48,793,1751,1856,2036,2216,1998,1747,1832,1948
401816,28976,-4732,29846,-2922,893,1714,525,-257,-174,-187,210,4305,42,40,798,1751,1856,2036,2216,1998,1747,1832,1948
402817,29028,-4676,29911,-2857,908,2026,546,-271,-169,-305,287,4509,55,40,797,1751,1856,2036,2216,1998,1747,1832,1948
403818,29084,-4576,29976,-2792,869,1434,573,-321,-165,-611,252,4150,40,43,792,1751,1856,2036,2216,1998,1747,1832,1948
404819,29140,-4512,30041,-2727,881,1885,589,-363,-163,-584,471,4367,51,42,799,1751,1852,2035,2232,2003,1756,1833,1946
405820,29216,-4452,30106,-2662,618,1943,606,-403,-148,-271,486,4015,58,51,795,1751,1852,2035,2232,2003,1756,1833,1946
406821,29272,-4392,30171,-2597,879,1950,599,-439,-131,-402,510,3950,49,48,796,1751,1852,2035,2232,2003,1756,1833,1946
407822,29348,-4308,30236,-2532,616,1626,597,-498,-123,-680,690,3999,56,46,792,1751,1852,2035,2232,2003,1756,1833,1946
408823,29424,-4248,30301,-2467,603,1934,588,-583,-102,-826,451,3777,48,37,801,1751,1852,2035,2232,2003,1756,1833,1946
409824,29492,-4188,30366,-2402,699,1941,597,-688,-87,-869,241,4081,40,46,797,1751,1852,2035,2232,2003,1756,1833,1946
410825,29572,-4116,30431,-2337,532,1782,621,-747,-104,-581,536,4326,39,31,794,1749,1855,2055,2233,2000,1743,1860,1979
411826,29620,-4060,30496,-2272,953,1994,640,-744,-120,-18,609,3988,44,34,799,1749,1855,2055,2233,2000,1743,1860,1979
412827,29684,-4012,30561,-2207,754,2116,645,-719,-126,77,628,4230,40,35,791,1749,1855,2055,2233,2000,1743,1860,1979
413828,29752,-3944,30626,-2142,701,1862,653,-725,-141,13,838,4222,40,50,793,1749,1855,2055,2233,2000,1743,1860,1979
414829,29816,-3868,30691,-2077,753,1750,661,-702,-166,282,955,4288,36,47,797,1749,1855,2055,2233,2000,1743,1860,1979
415830,29860,-3796,30756,-2012,1028,1792,665,-628,-185,372,698,4307,35,36,797,1774,1864,2048,2229,2021,1774,1861,1984
416831,29928,-3736,30821,-1947,726,1948,671,-595,-204,298,615,3893,42,44,794,1774,1864,2048,2229,2021,1774,1861,1984
417832,29988,-3688,30886,-1882,832,2120,693,-641,-217,-334,450,4506,37,40,795,1774,1864,2048,2229,2021,1774,1861,1984
418833,30036,-3628,30951,-1817,1002,1977,716,-710,-216,-254,563,4339,39,35,792,1774,1864,2048,2229,2021,1774,1861,1984
419834,30108,-3548,31016,-1752,695,1709,733,-711,-202,-183,498,4154,39,44,791,1774,1864,2048,2229,2021,1774,1861,1984
420835,30160,-3480,31081,-1687,961,1856,731,-740,-192,-566,504,4144,59,53,798,1774,1864,2048,2229,2021,1774,1861,1984
421836,30220,-3420,31146,-1622,867,1963,726,-777,-173,-977,360,4199,39,37,795,1737,1842,2049,2226,2020,1758,1828,1948
422837,30288,-3360,31211,-1557,764,1970,735,-841,-177,-499,415,4114,52,50,794,1737,1842,2049,2226,2020,1758,1828,1948
423838,30356,-3300,31276,-1492,761,1977,758,-860,-172,-162,657,4355,54,43,794,1737,1842,2049,2226,2020,1758,1828,1948
424839,30420,-3244,31341,-1427,812,2039,763,-870,-161,140,706,3838,43,42,794,1737,1842,2049,2226,2020,1758,1828,1948
425840,30488,-3176,31406,-1362,759,1886,759,-921,-140,-494,555,3897,42,46,792,1737,1842,2049,2226,2020,1758,1828,1948
426841,30532,-3092,31471,-1297,1085,1663,753,-963,-111,-583,879,4319,58,37,795,1790,1911,2111,2277,2048,1808,1882,2004
427842,30612,-3024,31536,-1232,616,1860,740,-896,-74,127,911,3957,46,40,794,1790,1911,2111,2277,2048,1808,1882,2004
428843,30660,-2956,31601,-1167,1038,1857,712,-844,-46,158,755,3799,58,39,797,1790,1911,2111,2277,2048,1808,1882,2004
429844,30720,-2892,31666,-1102,894,1909,681,-831,-15,-247,726,3972,48,40,794,1790,1911,2111,2277,2048,1808,1882,2004
430845,30788,-2824,31731,-1037,791,1856,643,-826,-11,-734,651,4204,48,49,793,1790,1911,2111,2277,2048,1808,1882,2004
431846,30836,-2760,31796,-972,1062,1908,642,-769,-42,-466,646,4726,50,47,795,1790,1911,2111,2277,2048,1808,1882,2004
432847,30904,-2676,31861,-907,809,1635,663,-706,-22,1053,1083,3850,55,38,792,1751,1855,2063,2239,2023,1781,1851,1967
433848,30980,-2612,31926,-842,696,1887,659,-684,-9,870,885,3484,49,49,797,1751,1855,2063,2239,2023,1781,1851,1967
434849,31056,-2524,31991,-777,683,1560,603,-711,-18,-647,957,3732,50,41,797,1751,1855,2063,2239,2023,1781,1851,1967
435850,31140,-2452,32056,-712,560,1752,570,-710,-22,-265,976,3739,66,43,801,1751,1855,2063,2239,2023,1781,1851,1967
436852,31200,-2380,32121,-647,867,1744,552,-721,-10,84,625,3937,61,55,799,1751,1855,2063,2239,2023,1781,1851,1967
437852,31284,-2300,32186,-582,544,1627,557,-735,-16,-497,545,4525,54,43,797,1714,1818,2028,2185,2054,1809,1862,1990
438853,31368,-2220,32251,-517,520,1608,593,-687,-9,-132,863,4264,62,42,801,1714,1818,2028,2185,2054,1809,1862,1990
439854,31444,-2156,32316,-452,608,1811,623,-662,-4,269,764,4174,57,41,802,1714,1818,2028,2185,2054,1809,1862,1990
440855,31492,-2096,32381,-387,979,1868,616,-653,3,152,1010,3982,56,51,796,1714,1818,2028,2185,2054,1809,1862,1990
441856,31560,-2012,32446,-322,725,1544,603,-630,5,-308,1130,3912,47,38,794,1714,1818,2028,2185,2054,1809,1862,1990
442857,31624,-1940,32511,-257,777,1687,566,-637,-1,6,1122,3755,44,43,801,1714,1818,2028,2185,2054,1809,1862,1990
443858,31692,-1864,32576,-192,724,1625,531,-608,24,174,1086,4103,56,40,798,1696,1802,2013,2177,2059,1803,1843,1967
444859,31752,-1808,32641,-127,830,1886,496,-533,59,27,987,3812,55,50,797,1696,1802,2013,2177,2059,1803,1843,1967
445860,31820,-1720,32706,-62,727,1458,459,-464,83,-37,970,3771,41,42,792,1696,1802,2013,2177,2059,1803,1843,1967
446861,31888,-1656,32771,3,723,1760,425,-418,134,-36,1112,3746,41,42,801,1696,1802,2013,2177,2059,1803,1843,1967
447862,31948,-1596,32836,68,829,1817,396,-419,163,295,1212,3208,45,40,798,1696,1802,2013,2177,2059,1803,1843,1967
448863,32004,-1540,32901,133,891,1879,346,-464,186,19,1015,3393,43,46,795,1692,1801,2003,2152,2034,1792,1844,1963
449864,32092,-1460,33100,332,1314,2411,297,-483,223,-491,1017,3638,46,35,795,1692,1801,2003,2152,2034,1792,1844,1963
450865,32160,-1412,33165,397,1560,2833,253,-439,263,-308,1010,3474,45,38,780,1692,1801,2003,2152,2034,1792,1844,1963
451866,32252,-1324,33230,462,1228,2306,217,-388,280,241,970,3633,60,50,771,1692,1801,2003,2152,2034,1792,1844,1963
452867,32316,-1244,33295,527,1580,2387,190,-384,288,331,1028,3603,62,28,783,1692,1801,2003,2152,2034,1792,1844,1963
453868,32416,-1152,33360,592,1087,2205,171,-401,306,-6,878,3667,77,48,780,1692,1801,2003,2152,2034,1792,1844,1963
454869,32512,-1064,33425,657,1100,2228,152,-413,335,-125,929,3651,82,61,788,1643,1744,1974,2120,1996,1730,1818,1951
455870,32624,-956,33490,722,843,1926,116,-428,330,133,986,3467,84,67,788,1643,1744,1974,2120,1996,1730,1818,1951
456871,32692,-860,33555,787,1390,2039,78,-413,326,140,842,3824,73,68,795,1643,1744,1974,2120,1996,1730,1818,1951
457872,32808,-752,33620,852,728,1838,58,-376,327,192,952,3639,79,73,788,1643,1744,1974,2120,1996,1730,1818,1951
458873,32916,-636,33685,917,775,1675,33,-379,314,419,1394,3604,76,65,797,1643,1744,1974,2120,1996,1730,1818,1951
459874,33016,-544,33750,982,832,1943,22,-392,302,182,1225,3876,68,62,799,1656,1755,1968,2136,2052,1768,1824,1986
460875,33116,-448,33815,1047,791,1855,18,-401,291,229,1456,3660,77,69,796,1656,1755,1968,2136,2052,1768,1824,1986
461876,33224,-328,33880,1112,638,1489,-8,-428,270,55,1578,3792,84,71,795,1656,1755,1968,2136,2052,1768,1824,1986
462877,33340,-228,33945,1177,476,1698,-27,-437,273,245,1524,4090,84,71,802,1656,1755,1968,2136,2052,1768,1824,1986
463878,33464,-144,34010,1242,304,1874,-43,-452,322,220,1490,3334,78,57,802,1656,1755,1968,2136,2052,1768,1824,1986
464879,33556,-28,34075,1307,672,1413,-80,-465,338,369,1400,3563,59,63,801,1656,1755,1968,2136,2052,1768,1824,1986
465880,33648,68,34140,1372,639,1625,-113,-500,367,-314,1463,3611,61,61,803,1686,1794,2005,2176,2066,1800,1877,2008
466881,33732,148,34205,1437,716,1808,-146,-496,390,-206,1531,3616,70,66,802,1686,1794,2005,2176,2066,1800,1877,2008
467882,33812,244,34270,1502,748,1570,-165,-480,415,237,1398,3303,64,54,798,1686,1794,2005,2176,2066,1800,1877,2008
468883,33904,320,34335,1567,565,1808,-176,-483,446,496,1821,3677,70,55,801,1686,1794,2005,2176,2066,1800,1877,2008
469884,33996,420,34400,1632,533,1465,-191,-517,474,29,1509,3316,70,64,799,1686,1794,2005,2176,2066,1800,1877,2008
470885,34072,492,34465,1697,719,1807,-192,-534,497,-245,1481,3621,60,63,803,1751,1871,2079,2231,2087,1823,1887,2036
471886,34164,588,34530,1762,486,1470,-201,-537,526,201,1590,3434,57,61,799,1751,1871,2079,2231,2087,1823,1887,2036
472887,34224,672,34595,1827,892,1596,-215,-555,555,237,1216,3434,60,57,803,1751,1871,2079,2231,2087,1823,1887,2036
473888,34308,732,34660,1892,569,1904,-233,-568,571,96,1252,3729,67,54,799,1751,1871,2079,2231,2087,1823,1887,2036
474889,34404,836,34725,1957,381,1306,-262,-582,590,-195,1503,3517,53,55,798,1751,1871,2079,2231,2087,1823,1887,2036
475890,34468,908,34790,2022,783,1698,-285,-562,579,82,1353,3664,66,49,805,1751,1871,2079,2231,2087,1823,1887,2036
476891,34540,988,34855,2087,674,1580,-319,-573,569,124,1456,3714,49,60,801,1719,1834,2053,2201,2014,1759,1824,1953
477892,34612,1092,34920,2152,666,1233,-335,-590,564,308,1601,3593,66,52,799,1719,1834,2053,2201,2014,1759,1824,1953
478893,34700,1168,34985,2217,438,1570,-345,-621,553,383,1565,3502,55,54,802,1719,1834,2053,2201,2014,1759,1824,1953
479894,34776,1240,35050,2282,575,1611,-366,-640,537,424,1572,3715,46,52,804,1719,1834,2053,2201,2014,1759,1824,1953
480895,34828,1304,35115,2347,891,1714,-392,-643,505,263,1434,3501,56,39,801,1719,1834,2053,2201,2014,1759,1824,1953
481896,34912,1384,35180,2412,468,1495,-417,-642,508,-148,1551,3738,45,53,798,1705,1812,2017,2174,2010,1767,1824,1946
482897,34984,1448,35245,2477,609,1698,-434,-622,509,214,1701,3552,55,40,803,1705,1812,2017,2174,2010,1767,1824,1946
483898,35036,1524,35310,2542,875,1534,-446,-608,512,472,1615,3709,50,43,800,1705,1812,2017,2174,2010,1767,1824,1946
484899,35120,1604,35375,2607,452,1466,-431,-616,519,517,1673,3531,46,44,799,1705,1812,2017,2174,2010,1767,1824,1946
485900,35184,1688,35440,2672,703,1394,-431,-624,530,329,1890,3560,58,48,803,1705,1812,2017,2174,2010,1767,1824,1946
486904,35264,1768,35505,2737,486,1425,-424,-617,544,284,1686,3612,44,50,803,1705,1812,2017,2174,2010,1767,1824,1946
487902,35340,1832,35570,2802,522,1627,-434,-600,572,346,1622,3549,52,46,804,1694,1800,2000,2151,2012,1766,1841,1965
488903,35396,1904,35635,2867,783,1519,-449,-569,603,108,1547,3552,54,54,802,1694,1800,2000,2151,2012,1766,1841,1965
489904,35464,1984,35700,2932,630,1401,-471,-520,661,8,1473,3441,44,51,801,1694,1800,2000,2151,2012,1766,1841,1965
490905,35536,2060,35765,2997,571,1438,-497,-500,716,201,1558,3373,60,57,803,1694,1800,2000,2151,2012,1766,1841,1965
491906,35620,2136,35830,3062,398,1425,-513,-488,748,244,1543,3433,50,54,803,1694,1800,2000,2151,2012,1766,1841,1965
492907,35664,2200,35895,3127,923,1576,-516,-487,769,110,1481,3396,41,54,806,1692,1804,2007,2160,2032,1791,1839,1965
493908,35748,2264,35960,3192,400,1578,-514,-459,772,207,1512,3347,45,52,801,1692,1804,2007,2160,2032,1791,1839,1965
494909,35808,2340,36025,3257,706,1415,-529,-434,770,264,1487,3313,44,56,802,1692,1804,2007,2160,2032,1791,1839,1965
495910,35872,2428,36090,3322,658,1237,-552,-406,765,260,1427,3488,56,62,801,1692,1804,2007,2160,2032,1791,1839,1965
496911,35960,2512,36155,3387,330,1265,-578,-385,765,150,1233,3327,45,46,805,1692,1804,2007,2160,2032,1791,1839,1965
497912,36016,2600,36220,3452,741,1187,-602,-358,767,93,1140,3452,43,56,808,1661,1759,1985,2153,2015,1759,1825,1952
498913,36088,2680,36285,3517,533,1268,-607,-325,778,408,1188,3288,58,44,806,1661,1759,1985,2153,2015,1759,1825,1952
499914,36148,2776,36350,3582,689,1031,-615,-315,755,661,1253,3258,58,49,807,1661,1759,1985,2153,2015,1759,1825,1952
500915,36236,2852,36415,3647,311,1268,-616,-323,722,259,1147,3468,44,47,807,1661,1759,1985,2153,2015,1759,1825,1952
501916,36320,2916,36480,3712,338,1419,-630,-313,698,171,1254,3584,53,52,808,1661,1759,1985,2153,2015,1759,1825,1952
502917,36372,3004,36545,3777,754,1091,-653,-293,664,614,1330,3452,45,46,807,1661,1759,1985,2153,2015,1759,1825,1952
503918,36460,3064,36610,3842,276,1448,-692,-273,657,670,1300,3475,40,40,806,1680,1808,2016,2142,1983,1776,1832,1959
504919,36528,3140,36675,3907,522,1235,-722,-258,665,590,1384,3498,39,49,806,1680,1808,2016,2142,1983,1776,1832,1959
505920,36600,3220,36740,3972,463,1166,-760,-245,669,397,1356,3400,40,52,807,1680,1808,2016,2142,1983,1776,1832,1959
506921,36676,3304,36805,4037,400,1094,-792,-232,667,428,1300,3568,41,43,808,1680,1808,2016,2142,1983,1776,1832,1959
507922,36748,3380,36870,4102,441,1181,-820,-217,698,353,1348,3451,41,57,810,1680,1808,2016,2142,1983,1776,1832,1959
508923,36816,3464,36935,4167,488,1058,-848,-191,714,662,1427,3412,51,56,809,1702,1819,2024,2184,2029,1787,1851,1975
509924,36880,3532,37000,4232,539,1254,-884,-130,742,298,1364,3634,45,59,810,1702,1819,2024,2184,2029,1787,1851,1975
510925,36956,3612,37065,4297,376,1087,-918,-77,787,339,1601,3338,35,47,807,1702,1819,2024,2184,2029,1787,1851,1975
511926,37012,3688,37130,4362,637,1123,-943,-88,831,264,1271,3098,53,52,809,1702,1819,2024,2184,2029,1787,1851,1975
512927,37064,3780,37195,4427,702,890,-928,-127,858,394,1239,3323,43,58,806,1702,1819,2024,2184,2029,1787,1851,1975
513928,37144,3868,37260,4492,334,912,-907,-183,865,137,1182,3231,54,60,809,1702,1819,2024,2184,2029,1787,1851,1975
514929,37216,3980,37325,4557,426,556,-873,-171,872,169,967,3566,44,64,812,1687,1807,1999,2147,2075,1807,1867,1999
515930,37296,4064,37390,4622,307,883,-819,-167,896,573,1012,3156,56,56,815,1687,1807,1999,2147,2075,1807,1867,1999
516931,37344,4148,37455,4687,728,859,-780,-201,886,497,947,3032,55,60,813,1687,1807,1999,2147,2075,1807,1867,1999
517932,37420,4240,37520,4752,365,727,-764,-232,871,238,987,3550,55,62,811,1687,1807,1999,2147,2075,1807,1867,1999
518933,37500,4324,37585,4817,296,804,-741,-232,864,290,998,3315,57,63,814,1687,1807,1999,2147,2075,1807,1867,1999
519934,37572,4420,37650,4882,389,616,-748,-216,843,794,1142,3203,42,48,814,1675,1806,2002,2139,2037,1766,1836,1967
520935,37648,4520,37715,4947,325,524,-734,-180,825,855,1088,3691,55,51,815,1675,1806,2002,2139,2037,1766,1836,1967
521936,37720,4592,37780,5012,367,865,-738,-164,808,532,1344,3098,42,60,816,1675,1806,2002,2139,2037,1766,1836,1967
522937,37796,4676,37845,5077,303,692,-755,-139,774,502,1208,3336,52,58,814,1675,1806,2002,2139,2037,1766,1836,1967
523938,37852,4772,37910,5142,564,504,-799,-130,752,681,1258,3389,54,44,814,1675,1806,2002,2139,2037,1766,1836,1967
524939,37924,4848,37975,5207,356,742,-845,-127,744,546,1271,3026,56,52,814,1675,1806,2002,2139,2037,1766,1836,1967
525940,38016,4912,38040,5272,73,893,-903,-131,737,523,1083,3095,58,60,814,1704,1832,2008,2154,1975,1723,1804,1920
526941,38092,5008,38105,5337,259,455,-945,-152,721,516,984,3273,40,59,814,1704,1832,2008,2154,1975,1723,1804,1920
527942,38160,5092,38170,5402,356,582,-988,-191,717,170,849,3109,59,47,816,1704,1832,2008,2154,1975,1723,1804,1920
528943,38236,5180,38235,5467,242,504,-1009,-212,728,288,761,3325,41,52,816,1704,1832,2008,2154,1975,1723,1804,1920
529944,38304,5276,38300,5532,339,366,-1004,-229,755,422,702,3231,39,49,814,1704,1832,2008,2154,1975,1723,1804,1920
530945,38376,5368,38365,5597,280,383,-976,-244,764,483,349,3263,40,48,817,1693,1820,1994,2131,1997,1754,1828,1959
531946,38452,5448,38430,5662,217,515,-930,-260,783,400,318,3432,48,47,818,1693,1820,1994,2131,1997,1754,1828,1959
532947,38536,5520,38495,5727,93,606,-874,-260,809,379,431,3332,43,53,818,1693,1820,1994,2131,1997,1754,1828,1959
533948,38624,5608,38560,5792,15,378,-820,-246,829,501,290,3393,53,54,817,1693,1820,1994,2131,1997,1754,1828,1959
534949,38672,5684,38625,5857,536,516,-754,-212,848,669,367,3528,40,42,818,1693,1820,1994,2131,1997,1754,1828,1959
535950,38744,5768,38690,5922,228,392,-707,-199,870,544,490,3125,42,60,817,1693,1820,1994,2131,1997,1754,1828,1959
536951,38812,5852,38755,5987,274,369,-670,-208,875,237,665,3171,41,53,817,1661,1796,1978,2118,2040,1785,1857,1976
537952,38896,5932,38820,6052,51,401,-633,-177,881,308,505,3301,40,48,818,1661,1796,1978,2118,2040,1785,1857,1976
538953,38996,6024,38885,6117,-193,218,-614,-156,874,762,543,2933,49,58,819,1661,1796,1978,2118,2040,1785,1857,1976
539954,39052,6104,38950,6182,368,350,-616,-171,865,338,695,3026,46,48,813,1661,1796,1978,2118,2040,1785,1857,1976
540955,39108,6212,39015,6247,379,-53,-634,-172,851,-107,888,2908,50,52,813,1661,1796,1978,2118,2040,1785,1857,1976
541956,39184,6312,39080,6312,116,5,-658,-147,837,131,827,3001,44,47,819,1687,1818,1987,2154,2001,1711,1792,1928
542957,39260,6432,39145,6377,102,-313,-677,-115,828,509,589,2968,44,61,820,1687,1818,1987,2154,2001,1711,1792,1928
543958,39376,6592,39210,6442,-460,-929,-678,-78,785,815,494,2932,48,59,820,1687,1818,1987,2154,2001,1711,1792,1928
544959,39496,6692,39275,6507,-577,-221,-670,-62,737,565,323,3080,41,51,805,1687,1818,1987,2154,2001,1711,1792,1928
545960,39620,6780,39340,6572,-699,-99,-637,-49,711,215,333,3380,46,43,817,1687,1818,1987,2154,2001,1711,1792,1928
546961,39756,6852,39405,6637,-936,92,-618,-61,668,104,-183,3198,39,45,814,1687,1818,1987,2154,2001,1711,1792,1928
547962,39828,6924,39470,6702,-145,83,-625,-107,627,96,-270,3221,37,38,821,1707,1826,1991,2160,1968,1728,1800,1853
548963,39884,6988,39535,6767,66,184,-606,-104,632,139,11,3738,54,49,821,1707,1826,1991,2160,1968,1728,1800,1853
549964,39968,7060,39600,6832,-307,75,-588,-92,655,82,7,2857,51,52,817,1707,1826,1991,2160,1968,1728,1800,1853
550965,40040,7144,39665,6897,-166,-98,-583,-36,653,412,-313,3342,56,41,810,1707,1826,1991,2160,1968,1728,1800,1853
551966,40112,7212,39730,6962,-175,98,-570,26,640,611,-179,3380,52,54,821,1707,1826,1991,2160,1968,1728,1800,1853
552967,40180,7308,39795,7027,-128,-290,-539,29,639,91,-207,3130,58,43,810,1699,1820,1968,2156,1962,1733,1811,1920
553968,40244,7384,39860,7092,-77,-53,-507,49,657,-28,-399,3369,54,48,811,1699,1820,1968,2156,1962,1733,1811,1920
554969,40320,7444,39925,7157,-241,153,-480,57,682,209,-485,3362,53,51,816,1699,1820,1968,2156,1962,1733,1811,1920
555970,40392,7528,39990,7222,-199,-170,-451,37,726,120,-583,3108,59,40,811,1699,1820,1968,2156,1962,1733,1811,1920
556971,40476,7604,40055,7287,-372,-83,-420,27,759,150,-462,3343,48,40,821,1699,1820,1968,2156,1962,1733,1811,1920
557972,40548,7664,40120,7352,-232,122,-400,39,774,40,-241,3216,39,48,804,1699,1820,1968,2156,1962,1733,1811,1920
558973,40604,7744,40185,7417,-21,-147,-385,50,775,121,-242,3256,48,52,820,1695,1817,2006,2183,1991,1762,1844,1916
559974,40680,7832,40250,7482,-284,-275,-385,82,785,209,-332,3307,53,44,821,1695,1817,2006,2183,1991,1762,1844,1916
560975,40760,7920,40315,7547,-353,-303,-378,102,797,328,-166,3281,45,48,809,1695,1817,2006,2183,1991,1762,1844,1916
561976,40824,8000,40380,7612,-151,-221,-378,107,779,223,70,3265,49,56,820,1695,1817,2006,2183,1991,1762,1844,1916
562977,40896,8088,40445,7677,-260,-349,-387,128,740,100,-16,3468,48,43,820,1695,1817,2006,2183,1991,1762,1844,1916
563978,40976,8168,40510,7742,-379,-268,-391,155,699,218,-78,3590,42,50,818,1735,1851,2014,2203,2016,1778,1859,1957
564979,41052,8244,40575,7807,-343,-232,-389,186,651,396,-81,3653,46,50,819,1735,1851,2014,2203,2016,1778,1859,1957
565980,41104,8328,40640,7872,-27,-355,-393,213,606,106,-379,3643,53,47,820,1735,1851,2014,2203,2016,1778,1859,1957
566981,41168,8392,40705,7937,-176,-104,-406,247,566,-160,-467,3905,42,54,820,1735,1851,2014,2203,2016,1778,1859,1957
567982,41240,8464,40770,8002,-284,-212,-410,238,555,-165,-568,3773,55,58,820,1735,1851,2014,2203,2016,1778,1859,1957
568983,41324,8532,40835,8067,-458,-166,-404,199,540,117,-814,3859,43,43,804,1735,1851,2014,2203,2016,1778,1859,1957
569984,41400,8628,40900,8132,-372,-554,-366,186,522,-180,-1048,3889,41,41,821,1734,1841,2015,2202,2038,1800,1844,1943
570985,41456,8700,40965,8197,-111,-264,-331,177,521,-358,-1172,4054,54,57,820,1734,1841,2015,2202,2038,1800,1844,1943
571986,41532,8772,41030,8262,-374,-272,-299,179,524,-408,-1196,4037,55,42,817,1734,1841,2015,2202,2038,1800,1844,1943
572987,41584,8856,41095,8327,-58,-445,-277,159,549,-348,-1314,3886,42,53,808,1734,1841,2015,2202,2038,1800,1844,1943
573988,41676,8944,41160,8392,-591,-523,-251,151,589,-165,-1364,4075,56,41,820,1734,1841,2015,2202,2038,1800,1844,1943
574989,41756,9004,41225,8457,-461,-167,-226,111,650,-120,-1421,3724,47,50,808,1737,1856,2044,2221,2033,1798,1881,1977
575990,41848,9088,41290,8522,-644,-491,-215,132,685,-67,-1439,4198,56,39,807,1737,1856,2044,2221,2033,1798,1881,1977
576991,41936,9152,41355,8587,-622,-240,-238,237,737,139,-1387,4340,54,41,821,1737,1856,2044,2221,2033,1798,1881,1977
577992,42016,9252,41420,8652,-540,-733,-297,390,815,520,-1420,4508,45,44,818,1737,1856,2044,2221,2033,1798,1881,1977
578993,42096,9312,41485,8717,-559,-227,-398,541,896,712,-1151,4263,52,37,820,1737,1856,2044,2221,2033,1798,1881,1977
579994,42168,9372,41550,8782,-468,-222,-503,672,934,372,-972,4763,49,51,811,1737,1856,2044,2221,2033,1798,1881,1977
580995,42248,9444,41615,8847,-586,-380,-592,720,956,72,-989,4224,61,45,819,1788,1903,2053,2286,2036,1814,1898,1982
581996,42308,9512,41680,8912,-330,-334,-650,704,972,272,-936,4121,47,50,820,1788,1903,2053,2286,2036,1814,1898,1982
582997,42412,9580,41745,8977,-929,-338,-670,647,954,21,-952,4177,48,52,819,1788,1903,2053,2286,2036,1814,1898,1982
583998,42500,9636,41810,9042,-757,-177,-663,565,896,-458,-884,4133,63,40,815,1788,1903,2053,2286,2036,1814,1898,1982
584999,42584,9716,41875,9107,-730,-496,-664,435,831,-764,-899,4056,47,44,820,1788,1903,2053,2286,2036,1814,1898,1982
586000,42676,9780,41940,9172,-863,-295,-639,290,779,-450,-1105,3952,60,42,821,1778,1866,2061,2280,2144,1900,1956,2053
587001,42760,9864,42005,9237,-787,-568,-599,171,734,-231,-1362,4088,59,40,818,1778,1866,2061,2280,2144,1900,1956,2053
588002,42868,9928,42070,9302,-1140,-317,-542,79,684,-326,-1678,4289,58,46,818,1778,1866,2061,2280,2144,1900,1956,2053
589003,42952,10012,42135,9367,-863,-591,-485,-1,658,148,-1828,4177,69,45,817,1778,1866,2061,2280,2144,1900,1956,2053
590004,43044,10080,42200,9432,-997,-395,-454,-69,666,811,-1911,4250,68,51,820,1778,1866,2061,2280,2144,1900,1956,2053
591005,43124,10148,42265,9497,-865,-398,-451,16,707,647,-2009,4944,63,44,817,1778,1866,2061,2280,2144,1900,1956,2053
592006,43216,10212,42330,9562,-1048,-347,-503,248,767,788,-1884,5255,54,46,818,1753,1792,2048,2240,2138,1877,1936,2048
593007,43312,10280,42395,9627,-1137,-402,-594,520,841,1409,-2033,5129,63,44,819,1753,1792,2048,2240,2138,1877,1936,2048
594008,43412,10328,42460,9692,-1230,-131,-692,695,931,1700,-2039,4709,51,49,819,1753,1792,2048,2240,2138,1877,1936,2048
595009,43500,10372,42525,9757,-1108,-55,-787,731,1020,1071,-1776,4646,54,37,819,1753,1792,2048,2240,2138,1877,1936,2048
596010,43620,10456,42590,9822,-1576,-578,-862,699,1082,13,-1592,4381,51,49,821,1753,1792,2048,2240,2138,1877,1936,2048
597011,43712,10508,42655,9887,-1259,-164,-923,674,1113,-530,-1430,4364,53,47,822,1781,1905,2073,2274,2083,1843,1920,2021
598012,43808,10580,42720,9952,-1347,-422,-977,570,1125,-157,-1368,4160,52,43,815,1781,1905,2073,2274,2083,1843,1920,2021
599013,43912,10628,42785,10017,-1495,-101,-1017,364,1134,-590,-1689,3863,55,35,820,1781,1905,2073,2274,2083,1843,1920,2021
600014,44004,10704,42850,10082,-1378,-465,-1017,159,1139,-811,-1510,3849,56,41,819,1781,1905,2073,2274,2083,1843,1920,2021
601015,44124,10776,42915,10147,-1796,-424,-1003,-58,1119,-623,-1716,3847,73,33,822,1781,1905,2073,2274,2083,1843,1920,2021
602016,44212,10828,42980,10212,-1424,-158,-995,-208,1065,-186,-1998,4000,54,44,819,1781,1905,2073,2274,2083,1843,1920,2021
603017,44316,10900,43045,10277,-1673,-417,-1003,-287,1006,270,-2044,4295,58,33,818,1768,1883,2068,2268,2124,1872,1944,2044
604018,44404,10952,43110,10342,-1501,-151,-1022,-290,946,308,-1958,4364,56,36,821,1768,1883,2068,2268,2124,1872,1944,2044
605019,44520,11008,43175,10407,-1914,-191,-1025,-202,910,930,-1944,4794,59,41,819,1768,1883,2068,2268,2124,1872,1944,2044
606020,44592,11068,43240,10472,-1373,-235,-1018,-119,861,1659,-1866,4714,62,37,821,1768,1883,2068,2268,2124,1872,1944,2044
607021,44692,11120,43305,10537,-1767,-119,-1001,-127,799,1701,-1670,4400,67,40,821,1768,1883,2068,2268,2124,1872,1944,2044
608022,44796,11180,43370,10602,-1864,-213,-975,-156,745,1201,-1892,4335,66,36,821,1764,1887,2060,2255,2104,1817,1936,2035
609023,44900,11236,43435,10667,-1913,-152,-952,-128,704,1286,-1624,4768,67,38,811,1764,1887,2060,2255,2104,1817,1936,2035
610024,45000,11296,43500,10732,-1906,-197,-950,-117,719,838,-1549,4084,73,41,821,1764,1887,2060,2255,2104,1817,1936,2035
611025,45080,11356,43565,10797,-1675,-191,-969,-162,745,769,-1718,4254,56,31,821,1764,1887,2060,2255,2104,1817,1936,2035
612028,45196,11404,43630,10862,-2187,-20,-996,-214,771,437,-1696,4302,53,38,821,1764,1887,2060,2255,2104,1817,1936,2035
613027,45300,11472,43695,10927,-2086,-274,-1033,-304,799,607,-1196,4115,69,48,815,1764,1887,2060,2255,2104,1817,1936,2035
614028,45396,11532,43760,10992,-2025,-169,-1071,-461,845,591,-1373,3631,60,35,822,1794,1918,2062,2308,2044,1816,1909,1983
615029,45516,11596,43825,11057,-2392,-217,-1095,-589,884,154,-1599,3929,73,35,819,1794,1918,2062,2308,2044,1816,1909,1983
616030,45616,11644,43890,11122,-2185,3,-1071,-620,900,53,-1512,4515,61,35,820,1794,1918,2062,2308,2044,1816,1909,1983
617031,45708,11708,43955,11187,-2119,-195,-1033,-665,904,447,-1389,3974,62,39,817,1794,1918,2062,2308,2044,1816,1909,1983
618032,45824,11760,44020,11252,-2482,-30,-976,-740,878,899,-1407,4240,64,35,822,1794,1918,2062,2308,2044,1816,1909,1983
619033,45920,11808,44085,11317,-2270,40,-932,-810,845,544,-1613,4242,69,37,821,1814,1936,2104,2328,2025,1800,1888,1961
620034,46020,11876,44150,11382,-2364,-214,-885,-795,800,802,-1455,4633,68,43,823,1814,1936,2104,2328,2025,1800,1888,1961
621035,46128,11944,44215,11447,-2517,-217,-858,-731,744,1168,-1564,4320,72,35,820,1814,1936,2104,2328,2025,1800,1888,1961
622036,46228,12008,44280,11512,-2460,-166,-848,-647,682,1154,-1496,4383,62,35,821,1814,1936,2104,2328,2025,1800,1888,1961
623037,46320,12080,44345,11577,-2394,-275,-876,-607,613,1367,-1299,4261,54,37,821,1814,1936,2104,2328,2025,1800,1888,1961
624038,46412,12132,44410,11642,-2428,-10,-906,-601,560,1141,-1363,4174,63,41,822,1814,1936,2104,2328,2025,1800,1888,1961
625039,46500,12204,44475,11707,-2406,-268,-930,-620,500,795,-1258,4301,57,48,819,1834,1943,2118,2349,2003,1786,1871,1948
626040,46604,12248,44540,11772,-2655,107,-937,-651,434,796,-1066,4052,56,35,822,1834,1943,2118,2349,2003,1786,1871,1948
627041,46680,12316,44605,11837,-2319,-196,-934,-684,405,981,-1431,4530,66,35,820,1834,1943,2118,2349,2003,1786,1871,1948
628042,46768,12396,44670,11902,-2499,-365,-878,-683,399,815,-1565,4629,56,41,822,1834,1943,2118,2349,2003,1786,1871,1948
629043,46868,12448,44735,11967,-2692,1,-801,-625,400,878,-1653,4943,47,48,820,1834,1943,2118,2349,2003,1786,1871,1948
630044,46976,12508,44800,12032,-2845,-94,-706,-545,374,1343,-1406,5335,63,46,820,1815,1917,2106,2335,2040,1826,1875,1969
631045,47044,12544,44865,12097,-2349,242,-634,-484,374,1242,-1604,4907,65,40,822,1815,1917,2106,2335,2040,1826,1875,1969
632046,47152,12628,44930,12162,-2903,-381,-559,-407,366,1330,-1442,5257,63,36,820,1815,1917,2106,2335,2040,1826,1875,1969
633047,47248,12684,44995,12227,-2792,-20,-502,-320,365,1264,-1238,4974,49,36,819,1815,1917,2106,2335,2040,1826,1875,1969
634048,47360,12728,45060,12292,-3050,155,-463,-262,363,1245,-1032,4690,60,41,819,1815,1917,2106,2335,2040,1826,1875,1969
635049,47440,12784,45125,12357,-2669,15,-444,-170,367,876,-1241,4631,55,48,822,1815,1917,2106,2335,2040,1826,1875,1969
636050,47480,12832,45190,12422,-2140,136,-453,-135,352,965,-945,4307,60,34,821,1822,1928,2126,2382,2052,1846,1918,1966
637051,47584,12900,45255,12487,-2988,-118,-448,-86,324,876,-777,4561,47,40,822,1822,1928,2126,2382,2052,1846,1918,1966
638052,47660,12952,45320,12552,-2652,98,-436,-39,283,870,-768,4349,53,42,822,1822,1928,2126,2382,2052,1846,1918,1966
639053,47740,13016,45385,12617,-2721,-51,-416,12,247,611,-1005,4234,58,44,821,1822,1928,2126,2382,2052,1846,1918,1966
640054,47832,13072,45450,12682,-2905,60,-405,42,213,1022,-965,4416,55,44,822,1822,1928,2126,2382,2052,1846,1918,1966
641055,47920,13152,45515,12747,-2884,-258,-355,67,157,1424,-850,4532,50,39,822,1858,1956,2154,2439,2038,1833,1895,1940
642056,48028,13224,45580,12812,-3188,-167,-280,119,93,719,-1092,4582,55,41,811,1858,1956,2154,2439,2038,1833,1895,1940
643057,48100,13288,45645,12877,-2747,-66,-206,186,55,501,-1373,4636,44,34,821,1858,1956,2154,2439,2038,1833,1895,1940
644058,48176,13344,45710,12942,-2812,45,-152,242,36,871,-1313,4549,52,46,821,1858,1956,2154,2439,2038,1833,1895,1940
645059,48248,13404,45775,13007,-2771,1,-101,325,14,1062,-1294,4775,40,48,822,1858,1956,2154,2439,2038,1833,1895,1940
646060,48332,13468,45840,13072,-2945,-48,-48,414,-4,1119,-1169,4657,49,40,815,1858,1956,2154,2439,2038,1833,1895,1940
647061,48408,13516,45905,13137,-2860,173,9,458,-20,879,-1289,4231,34,49,822,1850,1942,2095,2389,1988,1778,1845,1905
648062,48476,13572,45970,13202,-2765,83,48,519,-39,978,-1201,4598,51,48,822,1850,1942,2095,2389,1988,1778,1845,1905
649063,48540,13640,46035,13267,-2714,-71,87,573,-43,1197,-1158,4344,33,34,819,1850,1942,2095,2389,1988,1778,1845,1905
650064,48616,13680,46100,13332,-2879,310,118,641,-41,1091,-1078,4168,31,41,816,1850,1942,2095,2389,1988,1778,1845,1905
651065,48672,13756,46165,13397,-2618,-154,152,703,-57,976,-920,4224,36,35,822,1850,1942,2095,2389,1988,1778,1845,1905
652066,48740,13808,46230,13462,-2772,162,181,748,-67,790,-885,3946,47,41,821,1834,1928,2112,2353,1943,1739,1823,1875
653067,48800,13884,46295,13527,-2667,-151,203,740,-75,774,-797,3678,39,47,821,1834,1928,2112,2353,1943,1739,1823,1875
654068,48856,13948,46360,13592,-2607,0,221,726,-87,765,-655,3680,28,34,819,1834,1928,2112,2353,1943,1739,1823,1875
655069,48908,14004,46425,13657,-2543,110,245,684,-107,616,-624,3477,28,35,821,1834,1928,2112,2353,1943,1739,1823,1875
656070,48968,14076,46490,13722,-2637,-99,273,644,-125,310,-683,3443,42,35,822,1834,1928,2112,2353,1943,1739,1823,1875
657071,49020,14144,46555,13787,-2523,-52,312,598,-149,569,-566,3514,36,32,822,1834,1928,2112,2353,1943,1739,1823,1875
658072,49064,14208,46620,13852,-2398,-1,370,545,-172,521,-673,3213,38,37,821,1821,1917,2084,2315,1957,1753,1840,1917
659073,49124,14276,46685,13917,-2593,-55,425,505,-191,545,-620,3367,29,47,822,1821,1917,2084,2315,1957,1753,1840,1917
660074,49164,14324,46750,13982,-2313,216,485,484,-208,701,-577,3274,25,33,822,1821,1917,2084,2315,1957,1753,1840,1917
661075,49220,14372,46815,14047,-2503,237,548,469,-237,631,-681,3420,30,44,822,1821,1917,2084,2315,1957,1753,1840,1917
662077,49264,14452,46880,14112,-2329,-183,620,468,-264,788,-651,3388,20,40,821,1821,1917,2084,2315,1957,1753,1840,1917
663077,49304,14496,46945,14177,-2249,293,676,467,-279,818,-584,3327,19,43,822,1783,1883,2058,2270,1981,1753,1872,1930
664078,49336,14540,47010,14242,-2110,319,711,448,-287,737,-573,3126,28,35,821,1783,1883,2058,2270,1981,1753,1872,1930
665079,49360,14568,47075,14307,-1961,564,745,430,-290,622,-652,3401,14,44,821,1783,1883,2058,2270,1981,1753,1872,1930
666080,49408,14580,47140,14372,-2240,829,770,408,-282,491,-671,3244,17,46,819,1783,1883,2058,2270,1981,1753,1872,1930
667081,49440,14652,47205,14437,-2001,70,792,382,-279,458,-616,3248,34,38,817,1783,1883,2058,2270,1981,1753,1872,1930
668082,49476,14712,47270,14502,-2016,226,802,345,-263,408,-606,3214,11,39,816,1783,1883,2058,2270,1981,1753,1872,1930
669083,49496,14812,47335,14567,-1762,-317,825,342,-239,571,-672,3268,10,46,822,1772,1878,2048,2209,1963,1740,1824,1909
670084,49520,14852,47400,14632,-1763,464,847,366,-228,511,-687,3495,17,43,821,1772,1878,2048,2209,1963,1740,1824,1909
671085,49540,14916,47465,14697,-1659,165,879,356,-227,268,-705,3175,10,45,820,1772,1878,2048,2209,1963,1740,1824,1909
672086,49560,14980,47530,14762,-1605,165,902,354,-213,240,-653,3522,6,34,819,1772,1878,2048,2209,1963,1740,1824,1909
673087,49572,15068,47595,14827,-1441,-163,920,330,-211,387,-538,3354,19,43,822,1772,1878,2048,2209,1963,1740,1824,1909
674088,49596,15116,47660,14892,-1542,358,941,313,-223,343,-581,3598,12,32,822,1748,1872,2054,2263,1959,1747,1821,1904
675089,49608,15168,47725,14957,-1328,324,970,295,-251,315,-499,3553,4,32,821,1748,1872,2054,2263,1959,1747,1821,1904
676090,49636,15228,47790,15022,-1483,230,992,270,-285,322,-349,3367,14,49,820,1748,1872,2054,2263,1959,1747,1821,1904
677091,49632,15288,47855,15087,-1000,236,991,229,-300,323,-348,3353,9,48,821,1748,1872,2054,2263,1959,1747,1821,1904
678092,49640,15356,47920,15152,-1081,132,980,187,-300,404,-357,3167,18,43,821,1748,1872,2054,2263,1959,1747,1821,1904
679093,49652,15444,47985,15217,-1066,-146,962,168,-301,343,-260,3352,1,42,810,1748,1872,2054,2263,1959,1747,1821,1904
680094,49660,15508,48050,15282,-948,156,965,185,-302,500,-240,3474,2,46,822,1783,1877,2076,2302,2002,1783,1857,1942
681095,49660,15564,48115,15347,-769,267,985,233,-300,670,-232,3773,13,43,822,1783,1877,2076,2302,2002,1783,1857,1942
682096,49668,15640,48180,15412,-800,3,1001,284,-299,715,-222,3866,10,36,822,1783,1877,2076,2302,2002,1783,1857,1942
683097,49660,15700,48245,15477,-512,209,1027,339,-289,823,-314,4025,-4,33,814,1783,1877,2076,2302,2002,1783,1857,1942
684098,49648,15772,48310,15542,-368,50,1064,395,-282,677,-363,4331,11,38,820,1783,1877,2076,2302,2002,1783,1857,1942
685099,49664,15832,48375,15607,-659,206,1089,412,-277,699,-255,3885,10,30,822,1780,1874,2070,2289,2051,1826,1887,1979
686100,49664,15888,48440,15672,-380,267,1087,380,-259,487,-177,3760,-2,32,822,1780,1874,2070,2289,2051,1826,1887,1979
687101,49652,15956,48505,15737,-137,113,1076,360,-237,247,-181,3892,-4,37,819,1780,1874,2070,2289,2051,1826,1887,1979
688102,49672,16012,48570,15802,-482,274,1069,357,-214,239,-125,3949,2,37,821,1780,1874,2070,2289,2051,1826,1887,1979
689103,49660,16076,48635,15867,11,175,1068,371,-211,423,-2,4097,0,35,813,1780,1874,2070,2289,2051,1826,1887,1979
690104,49652,16132,48700,15932,50,286,1064,373,-208,315,71,3922,9,42,821,1780,1874,2070,2289,2051,1826,1887,1979
691105,49668,16200,48765,15997,-191,133,1051,374,-201,188,128,4120,9,30,822,1775,1875,2082,2292,2065,1828,1897,2002
692106,49664,16240,48830,16062,143,513,1033,377,-200,371,93,4174,-3,31,821,1775,1875,2082,2292,2065,1828,1897,2002
693107,49652,16304,48895,16127,337,214,1006,385,-214,307,163,4347,4,43,807,1775,1875,2082,2292,2065,1828,1897,2002
694108,49660,16356,48960,16192,157,380,973,413,-223,375,157,4481,9,37,818,1775,1875,2082,2292,2065,1828,1897,2002
695109,49648,16408,49025,16257,500,396,941,453,-225,442,176,4723,7,32,819,1775,1875,2082,2292,2065,1828,1897,2002
696110,49660,16488,49090,16322,265,27,914,488,-231,363,219,4732,1,46,819,1771,1843,2048,2277,2099,1854,1908,2028
697111,49660,16560,49155,16387,494,118,891,495,-229,342,230,4750,13,34,816,1771,1843,2048,2277,2099,1854,1908,2028
698112,49672,16608,49220,16452,409,439,862,501,-228,192,299,4796,4,32,821,1771,1843,2048,2277,2099,1854,1908,2028
699113,49684,16656,49285,16517,472,460,834,502,-232,370,181,4557,15,31,818,1771,1843,2048,2277,2099,1854,1908,2028
700114,49692,16724,49484,16716,756,370,800,487,-239,342,278,4644,10,36,815,1771,1843,2048,2277,2099,1854,1908,2028
701115,49700,16796,49549,16781,825,311,762,447,-232,35,467,4527,14,37,814,1771,1843,2048,2277,2099,1854,1908,2028
702116,49732,16860,49614,16846,565,412,721,408,-226,7,591,4381,24,41,814,1770,1881,2104,2285,2146,1897,1943,2078
703117,49752,16932,49679,16911,770,304,680,387,-231,241,646,4513,34,38,814,1770,1881,2104,2285,2146,1897,1943,2078
704118,49792,17008,49744,16976,551,240,640,370,-229,318,587,4390,34,41,816,1770,1881,2104,2285,2146,1897,1943,2078
705119,49844,17064,49809,17041,417,501,603,345,-208,363,426,4528,22,44,814,1770,1881,2104,2285,2146,1897,1943,2078
706120,49868,17144,49874,17106,817,183,607,357,-220,401,542,4955,34,46,817,1770,1881,2104,2285,2146,1897,1943,2078
707121,49928,17212,49939,17171,373,329,616,374,-264,528,771,4860,34,49,817,1780,1892,2118,2292,2188,1930,1970,2106
708122,49984,17288,50004,17236,434,216,589,350,-265,418,700,4396,36,44,815,1780,1892,2118,2292,2188,1930,1970,2106
709123,50028,17360,50069,17301,610,257,554,330,-270,217,1039,4486,43,46,819,1780,1892,2118,2292,2188,1930,1970,2106
710124,50076,17440,50134,17366,580,139,523,336,-287,-55,968,4691,30,48,819,1780,1892,2118,2292,2188,1930,1970,2106
711125,50132,17520,50199,17431,491,121,471,291,-289,-23,947,4275,32,52,817,1780,1892,2118,2292,2188,1930,1970,2106
712129,50180,17584,50264,17496,612,322,415,277,-301,103,1212,4326,44,40,818,1780,1892,2118,2292,2188,1930,1970,2106
713127,50248,17668,50329,17561,358,49,363,257,-311,49,1160,4377,35,54,818,1776,1892,2118,2292,2151,1887,1951,2063
714128,50300,17740,50394,17626,574,190,307,217,-315,-252,1093,4252,39,53,816,1776,1892,2118,2292,2151,1887,1951,2063
715129,50360,17832,50459,17691,480,-93,259,225,-329,-185,1186,4510,36,52,820,1776,1892,2118,2292,2151,1887,1951,2063
716130,50420,17892,50524,17756,486,313,229,286,-344,194,852,4286,51,51,818,1776,1892,2118,2292,2151,1887,1951,2063
717131,50500,17964,50589,17821,218,155,216,310,-363,359,469,3881,34,41,817,1776,1892,2118,2292,2151,1887,1951,2063
718132,50540,18040,50654,17886,749,92,197,305,-387,224,420,4044,51,38,816,1767,1872,2089,2257,2111,1855,1899,2030
719133,50620,18088,50719,17951,230,462,197,302,-396,-83,329,3695,47,44,821,1767,1872,2089,2257,2111,1855,1899,2030
720134,50692,18172,50784,18016,322,-11,192,287,-421,89,406,3827,49,41,816,1767,1872,2089,2257,2111,1855,1899,2030
721135,50760,18228,50849,18081,368,350,186,287,-445,101,463,3748,54,37,818,1767,1872,2089,2257,2111,1855,1899,2030
722136,50832,18312,50914,18146,310,-23,156,277,-460,-75,742,3577,47,37,821,1767,1872,2089,2257,2111,1855,1899,2030
723137,50908,18364,50979,18211,246,392,111,275,-470,-179,936,3570,36,36,819,1732,1839,2055,2228,2048,1855,1899,2030
724138,50956,18436,51044,18276,617,133,62,244,-480,-316,1010,3520,50,37,820,1732,1839,2055,2228,2048,1811,1855,1957
725139,51036,18524,51109,18341,199,-95,7,213,-489,-266,1060,3531,39,41,819,1732,1839,2055,2228,2048,1811,1855,1957
726140,51088,18580,51174,18406,565,316,-29,193,-500,-127,1096,3574,49,44,818,1732,1839,2055,2228,2048,1811,1855,1957
727141,51180,18660,51239,18471,33,-2,-52,189,-506,-81,941,3460,39,46,821,1732,1839,2055,2228,2048,1811,1855,1957
728142,51236,18704,51304,18536,494,473,-62,230,-520,193,922,3634,52,36,817,1732,1839,2055,2228,2048,1811,1855,1957
729143,51328,18788,51369,18601,11,-50,-64,249,-532,352,753,3235,38,35,822,1716,1816,2027,2212,2021,1795,1849,1953
730144,51368,18844,51434,18666,691,311,-61,264,-541,405,640,3426,37,43,817,1716,1816,2027,2212,2021,1795,1849,1953
731145,51444,18916,51499,18731,228,103,-56,278,-543,402,688,3378,45,35,822,1716,1816,2027,2212,2021,1795,1849,1953
732146,51508,18980,51564,18796,379,204,-53,300,-548,318,726,3249,41,31,816,1716,1816,2027,2212,2021,1795,1849,1953
733147,51564,19016,51629,18861,490,589,-45,324,-560,326,861,3413,34,34,820,1716,1816,2027,2212,2021,1795,1849,1953
734148,51620,19072,51694,18926,501,350,-38,313,-566,126,776,3072,47,31,817,1720,1822,2033,2218,2034,1804,1856,1960
735149,51688,19112,51759,18991,347,581,-39,307,-567,-71,793,3268,42,45,813,1720,1822,2033,2218,2034,1804,1856,1960
736150,51752,19200,51824,19056,398,-47,-27,290,-572,-39,892,3087,53,30,817,1720,1822,2033,2218,2034,1804,1856,1960
737151,51812,19252,51889,19121,454,419,-23,280,-570,-10,720,3146,41,46,817,1720,1822,2033,2218,2034,1804,1856,1960
738152,51876,19304,51954,19186,406,433,-17,255,-569,5,570,2968,41,32,820,1720,1822,2033,2218,2034,1804,1856,1960
739153,51940,19364,52019,19251,407,340,-23,222,-562,-97,671,3012,51,32,817,1720,1822,2033,2218,2034,1804,1856,1960
740154,52000,19412,52084,19316,463,510,-32,179,-546,-240,714,3167,34,43,817,1745,1849,2061,2250,2017,1784,1842,1944
741155,52052,19496,52149,19381,579,37,-52,161,-545,-106,798,3165,47,34,818,1745,1849,2061,2250,2017,1784,1842,1944
742156,52120,19540,52214,19446,375,563,-77,176,-550,41,749,3406,31,36,816,1745,1849,2061,2250,2017,1784,1842,1944
743157,52176,19624,52279,19511,536,40,-120,201,-539,375,841,2978,50,35,818,1745,1849,2061,2250,2017,1784,1842,1944
744158,52240,19680,52344,19576,437,401,-172,230,-555,859,830,3115,45,44,817,1745,1849,2061,2250,2017,1784,1842,1944
745159,52292,19748,52409,19641,603,247,-193,242,-566,452,483,3546,33,35,819,1759,1863,2068,2247,2006,1778,1839,1950
746160,52360,19796,52474,19706,400,518,-190,256,-580,303,489,3667,35,41,817,1759,1863,2068,2247,2006,1778,1839,1950
747161,52416,19852,52539,19771,561,429,-186,298,-568,398,528,3679,36,29,817,1759,1863,2068,2247,2006,1778,1839,1950
748162,52468,19924,52604,19836,627,220,-189,283,-552,584,583,3482,37,29,816,1759,1863,2068,2247,2006,1778,1839,1950
749163,52532,19956,52669,19901,478,760,-203,243,-545,363,566,3512,29,36,816,1759,1863,2068,2247,2006,1778,1839,1950
750164,52588,20012,52734,19966,589,471,-200,211,-534,166,317,3508,31,37,817,1759,1863,2068,2247,2006,1778,1839,1950
751165,52632,20072,52799,20031,764,427,-181,199,-513,253,369,3989,47,30,811,1741,1843,2050,2228,2039,1809,1866,1963
752166,52680,20128,52864,20096,735,488,-166,169,-480,349,616,3577,44,31,813,1741,1843,2050,2228,2039,1809,1866,1963
753167,52744,20184,52929,20161,536,499,-144,103,-437,210,486,3713,50,35,814,1741,1843,2050,2228,2039,1809,1866,1963
754168,52800,20248,52994,20226,647,401,-122,51,-400,55,580,3997,35,32,814,1741,1843,2050,2228,2039,1809,1866,1963
755169,52868,20312,53059,20291,495,402,-104,21,-377,182,696,3874,49,29,815,1741,1843,2050,2228,2039,1809,1866,1963
756170,52924,20372,53124,20356,656,458,-94,39,-350,437,655,4114,43,43,816,1751,1864,2088,2276,2096,1856,1908,2018
757171,52988,20412,53189,20421,557,738,-88,53,-323,638,761,3911,48,34,817,1751,1864,2088,2276,2096,1856,1908,2018
758172,53040,20452,53254,20486,723,769,-95,75,-302,569,808,3971,51,42,814,1751,1864,2088,2276,2096,1856,1908,2018
759173,53116,20512,53319,20551,409,525,-99,99,-298,598,855,4084,43,42,813,1751,1864,2088,2276,2096,1856,1908,2018
760174,53184,20580,53384,20616,506,421,-124,131,-285,610,772,4052,37,42,812,1751,1864,2088,2276,2096,1856,1908,2018
761175,53228,20640,53449,20681,831,528,-143,167,-272,650,684,4054,45,33,817,1751,1864,2088,2276,2096,1856,1908,2018
762176,53292,20716,53514,20746,582,314,-178,195,-258,542,658,4023,50,39,816,1791,1901,2110,2310,2078,1838,1903,2010
763177,53368,20760,53579,20811,419,740,-194,206,-254,379,647,4005,47,47,813,1791,1901,2110,2310,2078,1838,1903,2010
764178,53412,20840,53644,20876,845,271,-227,188,-233,188,465,4030,48,31,817,1791,1901,2110,2310,2078,1838,1903,2010
765179,53468,20896,53709,20941,706,582,-236,159,-219,135,380,4129,34,35,815,1791,1901,2110,2310,2078,1838,1903,2010
766180,53536,20948,53774,21006,552,648,-257,125,-209,62,330,4192,34,37,814,1791,1901,2110,2310,2078,1838,1903,2010
767181,53596,21028,53839,21071,658,280,-253,100,-198,-3,162,4392,40,33,813,1815,1916,2136,2332,2088,1848,1895,1999
768182,53656,21096,53904,21136,665,426,-265,94,-164,154,129,4359,40,34,812,1815,1916,2136,2332,2088,1848,1895,1999
769183,53704,21176,53969,21201,836,258,-247,107,-145,316,173,4387,48,32,814,1815,1916,2136,2332,2088,1848,1895,1999
770184,53768,21216,54034,21266,637,789,-248,131,-119,370,177,4446,36,44,815,1815,1916,2136,2332,2088,1848,1895,1999
771185,53824,21296,54099,21331,748,270,-244,160,-84,325,108,4583,35,44,814,1815,1916,2136,2332,2088,1848,1895,1999
772186,53892,21352,54164,21396,595,581,-248,203,-55,423,217,4558,38,41,812,1815,1916,2136,2332,2088,1848,1895,1999
773187,53964,21408,54229,21461,536,592,-256,224,-24,406,207,4497,50,28,815,1797,1898,2117,2307,2083,1846,1888,1993
774188,54004,21472,54294,21526,967,493,-263,257,8,464,270,4535,45,36,814,1797,1898,2117,2307,2083,1846,1888,1993
775189,54072,21508,54359,21591,613,879,-276,267,35,450,372,4351,45,31,815,1797,1898,2117,2307,2083,1846,1888,1993
776190,54136,21576,54424,21656,664,475,-292,276,60,295,443,4330,45,36,811,1797,1898,2117,2307,2083,1846,1888,1993
777191,54200,21632,54489,21721,665,636,-314,279,71,219,512,4216,47,34,811,1797,1898,2117,2307,2083,1846,1888,1993
778192,54252,21692,54554,21786,832,592,-327,278,90,291,525,4286,49,41,815,1779,1877,2087,2287,2083,1846,1902,2009
779193,54312,21764,54619,21851,738,434,-333,287,111,267,494,4218,36,33,813,1779,1877,2087,2287,2083,1846,1902,2009
780194,54360,21820,54684,21916,909,645,-332,288,116,237,542,4266,54,39,812,1779,1877,2087,2287,2083,1846,1902,2009
781195,54436,21888,54749,21981,546,491,-335,299,124,228,431,4218,50,39,814,1779,1877,2087,2287,2083,1846,1902,2009
782196,54500,21944,54814,22046,697,652,-324,300,131,126,462,4288,47,33,811,1779,1877,2087,2287,2083,1846,1902,2009
783197,54564,21996,54879,22111,698,718,-323,320,130,51,363,4186,45,43,815,1779,1877,2087,2287,2083,1846,1902,2009
784198,54640,22064,54944,22176,535,514,-307,315,134,-36,214,4193,51,40,813,1768,1867,2085,2288,2083,1846,1909,2008
785199,54708,22128,55009,22241,631,565,-298,309,153,-31,132,4046,56,34,810,1768,1867,2085,2288,2083,1846,1909,2008
786200,54780,22176,55074,22306,573,786,-277,308,166,12,102,4049,40,35,813,1768,1867,2085,2288,2083,1846,1909,2008
787201,54836,22244,55139,22371,784,534,-257,324,173,51,-27,3973,51,47,814,1768,1867,2085,2288,2083,1846,1909,2008
788202,54912,22308,55204,22436,521,585,-242,322,199,-21,-159,3939,56,32,813,1768,1867,2085,2288,2083,1846,1909,2008
789203,54972,22368,55269,22501,727,641,-230,341,224,85,-107,4136,55,47,813,1767,1883,2093,2287,2057,1815,1871,1967
790204,55052,22416,55334,22566,459,812,-223,348,241,165,-171,4009,52,33,815,1767,1883,2093,2287,2057,1815,1871,1967
791205,55116,22480,55399,22631,660,613,-213,359,251,125,-81,4183,40,44,813,1767,1883,2093,2287,2057,1815,1871,1967
792206,55168,22548,55464,22696,826,559,-219,385,269,24,-94,3993,36,46,813,1767,1883,2093,2287,2057,1815,1871,1967
793207,55236,22608,55529,22761,622,665,-242,404,292,104,-86,3983,52,38,813,1767,1883,2093,2287,2057,1815,1871,1967
794208,55288,22668,55594,22826,838,671,-282,430,313,-135,-63,3709,41,36,812,1767,1883,2093,2287,2057,1815,1871,1967
795209,55368,22744,55659,22891,471,458,-330,404,334,-512,-166,3486,56,35,813,1800,1896,2112,2320,1984,1760,1856,1940
796210,55440,22792,55724,22956,562,829,-359,344,331,-608,65,3315,50,32,811,1800,1896,2112,2320,1984,1760,1856,1940
797211,55504,22844,55789,23021,663,795,-386,299,321,-542,-50,3518,51,40,816,1800,1896,2112,2320,1984,1760,1856,1940
798212,55572,22904,55854,23086,610,701,-388,281,312,-99,-45,3737,50,46,812,1800,1896,2112,2320,1984,1760,1856,1940
799213,55636,22968,55919,23151,661,652,-377,274,304,82,-38,3797,47,31,812,1800,1896,2112,2320,1984,1760,1856,1940
800214,55692,23032,55984,23216,772,653,-349,290,288,243,26,3898,53,37,813,1802,1895,2091,2291,2023,1799,1871,1967
801215,55752,23084,56049,23281,728,819,-307,309,264,369,98,3964,49,44,813,1802,1895,2091,2291,2023,1799,1871,1967
802216,55808,23156,56114,23346,789,560,-270,359,246,472,50,4242,46,44,809,1802,1895,2091,2291,2023,1799,1871,1967
803217,55876,23212,56179,23411,635,771,-215,402,236,441,106,4135,47,43,808,1802,1895,2091,2291,2023,1799,1871,1967
804218,55936,23252,56244,23476,741,1003,-156,410,233,170,108,4044,50,42,812,1802,1895,2091,2291,2023,1799,1871,1967
805219,55996,23320,56309,23541,749,649,-91,394,245,-306,147,4073,39,28,812,1802,1895,2091,2291,2023,1799,1871,1967
806220,56056,23388,56374,23606,755,646,-46,315,257,-279,336,3524,46,46,808,1760,1850,2044,2250,2031,1803,1871,1957
807221,56124,23432,56439,23671,651,971,-7,171,277,-404,177,3676,52,45,812,1760,1850,2044,2250,2031,1803,1871,1957
808222,56196,23496,56504,23736,592,722,35,52,288,-443,136,3918,46,33,812,1760,1850,2044,2250,2031,1803,1871,1957
809223,56252,23552,56569,23801,803,833,65,-1,279,-122,336,3838,43,44,810,1760,1850,2044,2250,2031,1803,1871,1957
810224,56312,23604,56634,23866,760,899,63,-51,274,366,491,3580,40,44,813,1760,1850,2044,2250,2031,1803,1871,1957
811225,56360,23648,56699,23931,930,1025,43,-102,254,601,649,3522,51,48,810,1779,1888,2084,2298,1995,1780,1856,1937
812226,56412,23708,56764,23996,896,831,-4,-92,218,801,647,3286,42,43,809,1779,1888,2084,2298,1995,1780,1856,1937
813227,56484,23784,56829,24061,639,618,-32,-31,179,1602,619,3473,52,47,806,1779,1888,2084,2298,1995,1780,1856,1937
814228,56528,23856,56894,24126,1014,659,-12,6,203,1529,390,3872,52,44,808,1779,1888,2084,2298,1995,1780,1856,1937
815229,56580,23924,56959,24191,930,706,49,23,236,708,205,3999,46,43,813,1779,1888,2084,2298,1995,1780,1856,1937
816230,56640,24008,57024,24256,836,483,120,37,259,212,179,4026,41,51,809,1779,1888,2084,2298,1995,1780,1856,1937
817231,56696,24072,57089,24321,897,734,161,90,249,628,287,4107,41,40,809,1808,1920,2117,2312,1991,1768,1832,1929
818232,56748,24128,57154,24386,963,845,181,177,223,927,177,3892,36,51,812,1808,1920,2117,2312,1991,1768,1832,1929
819233,56812,24220,57219,24451,814,362,180,273,178,995,198,3873,40,39,808,1808,1920,2117,2312,1991,1768,1832,1929
820234,56856,24276,57284,24516,1091,823,184,335,136,563,91,3782,49,38,805,1808,1920,2117,2312,1991,1768,1832,1929
821235,56912,24348,57349,24581,952,615,182,357,90,258,195,3857,37,39,813,1808,1920,2117,2312,1991,1768,1832,1929
822236,56972,24400,57414,24646,908,881,181,333,63,-52,306,3780,35,39,806,1821,1911,2116,2320,1980,1783,1839,1897
823237,57028,24504,57479,24711,969,183,179,271,56,-206,505,3854,37,50,810,1821,1911,2116,2320,1980,1783,1839,1897
824238,57092,24560,57544,24776,870,794,171,181,45,-232,637,3857,53,47,808,1821,1911,2116,2320,1980,1783,1839,1897
825239,57160,24612,57609,24841,817,860,162,131,30,-32,527,4008,53,46,813,1821,1911,2116,2320,1980,1783,1839,1897
826240,57204,24688,57674,24906,1143,548,161,89,31,263,594,4155,50,32,809,1821,1911,2116,2320,1980,1783,1839,1897
827241,57268,24744,57739,24971,894,809,178,74,34,340,480,4301,40,35,809,1821,1911,2116,2320,1980,1783,1839,1897
828242,57328,24796,57804,25036,951,874,194,95,37,895,487,4463,41,32,809,1763,1847,2087,2313,2023,1819,1866,1948
829243,57404,24848,57869,25101,737,890,225,116,54,956,509,4530,49,43,809,1763,1847,2087,2313,2023,1819,1866,1948
830244,57456,24916,57934,25166,1053,687,254,171,72,1048,530,4489,45,41,807,1763,1847,2087,2313,2023,1819,1866,1948
831245,57520,24976,57999,25231,904,793,273,257,94,1255,359,4460,42,47,809,1763,1847,2087,2313,2023,1819,1866,1948
832246,57560,25048,58064,25296,1236,634,285,373,116,1473,358,4339,35,39,808,1763,1847,2087,2313,2023,1819,1866,1948
833247,57620,25104,58129,25361,992,845,293,453,143,1463,302,4237,50,38,809,1728,1840,2064,2248,2064,1872,1928,1996
834248,57680,25164,58194,25426,998,801,291,518,179,1207,186,4002,39,34,806,1728,1840,2064,2248,2064,1872,1928,1996
835249,57756,25196,58259,25491,785,1192,285,555,201,936,316,3892,43,40,807,1728,1840,2064,2248,2064,1872,1928,1996
836250,57804,25256,58324,25556,1155,848,279,572,218,412,287,3980,47,33,806,1728,1840,2064,2248,2064,1872,1928,1996
837253,57856,25324,58389,25621,1122,745,271,561,224,233,181,4049,42,39,803,1728,1840,2064,2248,2064,1872,1928,1996
838252,57920,25400,58454,25686,973,632,266,541,217,213,141,3905,39,43,805,1728,1840,2064,2248,2064,1872,1928,1996
839253,57976,25448,58519,25751,1084,1002,257,496,210,177,19,3738,45,45,806,1807,1915,2143,2351,2143,1895,1943,2047
840254,58032,25504,58584,25816,1095,913,245,448,207,-221,116,3846,50,40,809,1807,1915,2143,2351,2143,1895,1943,2047
841255,58100,25568,58649,25881,942,815,233,419,200,-330,191,3842,49,36,804,1807,1915,2143,2351,2143,1895,1943,2047
842256,58152,25632,58714,25946,1159,816,212,404,190,-226,78,4015,38,48,805,1807,1915,2143,2351,2143,1895,1943,2047
843257,58220,25680,58779,26011,955,1037,194,409,183,-7,148,4095,42,37,808,1807,1915,2143,2351,2143,1895,1943,2047
844258,58276,25760,58844,26076,1116,618,170,414,189,-20,28,3925,58,47,806,1779,1877,2083,2269,2047,1799,1864,1967
845259,58316,25832,58909,26141,1346,710,151,433,199,5,-30,4254,50,49,806,1779,1877,2083,2269,2047,1799,1864,1967
846260,58392,25896,58974,26206,883,812,131,453,205,314,173,4206,41,37,807,1779,1877,2083,2269,2047,1799,1864,1967
847261,58428,25972,59039,26271,1419,648,107,488,213,455,55,4215,56,39,804,1779,1877,2083,2269,2047,1799,1864,1967
848262,58512,26028,59104,26336,796,909,72,515,232,554,207,4463,56,50,808,1779,1877,2083,2269,2047,1799,1864,1967
849263,58552,26072,59169,26401,1377,1085,67,529,244,466,408,4337,55,42,804,1779,1877,2083,2269,2047,1799,1864,1967
850264,58628,26148,59234,26466,913,672,52,540,265,456,241,4364,38,39,808,1767,1871,2063,2248,2019,1793,1859,1956
851265,58688,26228,59299,26531,1120,603,61,554,285,694,395,4416,53,55,800,1767,1871,2063,2248,2019,1793,1859,1956
852266,58768,26300,59364,26596,852,695,59,516,311,546,380,4125,55,49,810,1767,1871,2063,2248,2019,1793,1859,1956
853267,58820,26344,59429,26661,1218,1070,66,488,332,369,308,4157,56,42,806,1767,1871,2063,2248,2019,1793,1859,1956
854268,58896,26436,59494,26726,904,439,74,427,349,309,569,4046,54,38,808,1767,1871,2063,2248,2019,1793,1859,1956
855269,58952,26504,59559,26791,1166,735,83,349,364,178,404,3997,43,54,802,1748,1859,2077,2287,2059,1844,1899,1972
856270,59012,26568,59624,26856,1123,786,90,299,383,287,345,3870,36,53,811,1748,1859,2077,2287,2059,1844,1899,1972
857271,59072,26652,59689,26921,1129,513,94,231,402,224,516,3700,44,52,806,1748,1859,2077,2287,2059,1844,1899,1972
858272,59132,26716,59754,26986,1135,764,105,185,419,49,426,3800,39,42,806,1748,1859,2077,2287,2059,1844,1899,1972
859273,59180,26772,59819,27051,1306,875,101,165,424,53,496,3749,37,47,809,1748,1859,2077,2287,2059,1844,1899,1972
860274,59248,26844,59884,27116,1053,667,123,155,422,166,495,3738,45,40,806,1748,1859,2077,2287,2059,1844,1899,1972
861275,59300,26904,59949,27181,1269,823,127,149,422,194,422,3840,55,54,803,1784,1878,2097,2306,2088,1858,1902,1991
862276,59348,26972,60014,27246,1339,719,148,171,409,111,507,3955,50,50,808,1784,1878,2097,2306,2088,1858,1902,1991
863277,59408,27044,60079,27311,1196,660,156,189,405,-23,339,3857,51,43,804,1784,1878,2097,2306,2088,1858,1902,1991
864278,59456,27096,60144,27376,1367,927,162,188,391,-41,380,4018,53,41,804,1784,1878,2097,2306,2088,1858,1902,1991
865279,59532,27184,60209,27441,1004,449,163,194,369,-276,493,4026,51,44,806,1784,1878,2097,2306,2088,1858,1902,1991
866280,59576,27244,60274,27506,1430,805,169,200,342,-134,465,4133,39,52,801,1791,1890,2096,2283,2015,1788,1849,1920
867281,59628,27308,60339,27571,1345,757,176,206,328,-91,510,4277,35,48,811,1791,1890,2096,2283,2015,1788,1849,1920
868282,59692,27364,60404,27636,1198,868,182,195,316,-297,562,4261,56,42,801,1791,1890,2096,2283,2015,1788,1849,1920
869283,59756,27432,60469,27701,1199,714,178,182,323,-329,436,4249,55,43,804,1791,1890,2096,2283,2015,1788,1849,1920
870284,59812,27488,60534,27766,1310,875,184,174,321,-165,572,4454,54,35,802,1791,1890,2096,2283,2015,1788,1849,1920
871285,59852,27544,60599,27831,1541,886,191,170,320,-278,617,4435,54,46,804,1791,1890,2096,2283,2015,1788,1849,1920
872286,59932,27592,60664,27896,1023,1007,192,191,320,-26,589,4381,36,36,802,1790,1892,2098,2298,1952,1728,1808,1920
873287,59996,27656,60729,27961,1224,808,197,219,331,245,619,4303,39,31,799,1790,1892,2098,2298,1952,1728,1808,1920
874288,60040,27712,60794,28026,1500,920,193,239,331,258,778,4247,46,43,804,1790,1892,2098,2298,1952,1728,1808,1920
875289,60100,27768,60859,28091,1307,931,197,261,333,121,599,4202,34,33,804,1790,1892,2098,2298,1952,1728,1808,1920
876290,60156,27832,60924,28156,1368,832,198,276,335,335,681,3951,49,44,799,1790,1892,2098,2298,1952,1728,1808,1920
877291,60200,27904,60989,28221,1544,723,212,273,341,310,771,3934,49,42,802,1843,1947,2175,2399,2079,1855,1919,2007
879293,60328,28020,61119,28351,1397,541,228,256,324,94,828,3753,37,43,801,1843,1947,2175,2399,2079,1855,1919,2007
880294,60408,28076,61184,28416,1079,952,245,218,319,6,867,3682,41,53,799,1843,1947,2175,2399,2079,1855,1919,2007
881295,60444,28140,61249,28481,1664,853,264,192,304,99,801,3619,47,41,805,1843,1947,2175,2399,2079,1855,1919,2007
882296,60500,28204,61314,28546,1426,855,279,168,292,26,781,3673,40,39,796,1843,1947,2175,2399,2079,1855,1919,2007
883297,60556,28252,61379,28611,1437,1076,306,145,281,-3,811,3656,53,49,800,1811,1893,2107,2323,2071,1861,1895,1981
884298,60624,28320,61444,28676,1283,822,325,129,263,60,814,3857,47,47,798,1811,1893,2107,2323,2071,1861,1895,1981
885299,60672,28396,61509,28741,1555,709,349,128,239,154,850,3887,53,57,803,1811,1893,2107,2323,2071,1861,1895,1981
886300,60728,28464,61574,28806,1466,805,368,118,228,26,752,3939,43,53,799,1811,1893,2107,2323,2071,1861,1895,1981
887302,60780,28540,61639,28871,1532,692,372,138,224,27,632,4152,50,46,799,1811,1893,2107,2323,2071,1861,1895,1981
888302,60840,28604,61704,28936,1439,843,374,163,225,69,658,3910,55,54,801,1763,1850,2066,2281,2028,1803,1850,1942
889303,60892,28692,61769,29001,1555,515,368,179,227,6,749,4278,55,55,801,1763,1850,2066,2281,2028,1803,1850,1942
890304,60964,28752,61834,29066,1297,872,358,208,229,-15,655,4195,53,57,803,1763,1850,2066,2281,2028,1803,1850,1942
891305,61000,28820,61899,29131,1783,768,343,244,238,51,747,4292,40,40,802,1763,1850,2066,2281,2028,1803,1850,1942
892306,61068,28904,61964,29196,1379,545,337,270,234,157,842,4243,45,41,796,1763,1850,2066,2281,2028,1803,1850,1942
893307,61132,28980,62029,29261,1430,632,319,298,240,13,702,4240,46,42,805,1763,1850,2066,2281,2028,1803,1850,1942
894308,61188,29032,62094,29326,1542,947,306,323,242,64,770,4156,56,50,803,1747,1850,2067,2255,1992,1772,1828,1932
895309,61252,29092,62159,29391,1444,853,296,337,231,137,809,4183,51,50,799,1747,1850,2067,2255,1992,1772,1828,1932
896310,61312,29144,62224,29456,1500,969,281,348,223,133,764,4066,45,39,800,1747,1850,2067,2255,1992,1772,1828,1932
897311,61376,29216,62289,29521,1452,711,270,356,211,228,817,3911,47,43,798,1747,1850,2067,2255,1992,1772,1828,1932
898312,61444,29292,62354,29586,1398,647,256,353,200,156,805,3935,53,41,802,1747,1850,2067,2255,1992,1772,1828,1932
899313,61484,29340,62419,29651,1779,1019,238,357,194,268,702,3663,50,50,803,1761,1855,2069,2270,2027,1808,1863,1972
900314,61552,29412,62484,29716,1426,711,233,338,201,274,860,3678,53,53,794,1761,1855,2069,2270,2027,1808,1863,1972
901315,61612,29464,62549,29781,1532,976,226,341,188,389,941,3879,50,42,802,1761,1855,2069,2270,2027,1808,1863,1972
902316,61648,29524,62614,29846,1868,883,226,351,162,529,1061,3836,39,52,798,1761,1855,2069,2270,2027,1808,1863,1972
903317,61720,29616,62679,29911,1410,450,228,349,165,676,844,3782,56,49,792,1761,1855,2069,2270,2027,1808,1863,1972
904318,61788,29660,62744,29976,1456,1075,227,281,171,501,940,3386,41,58,802,1761,1855,2069,2270,2027,1808,1863,1972
905319,61824,29732,62809,30041,1892,717,212,268,168,410,957,3959,47,41,798,1734,1824,2095,2300,2076,1847,1841,1952
906320,61888,29804,62874,30106,1544,708,208,258,168,296,983,3538,37,52,794,1734,1824,2095,2300,2076,1847,1841,1952
907321,61940,29860,62939,30171,1710,920,190,279,184,719,838,4060,36,45,800,1734,1824,2095,2300,2076,1847,1841,1952
908322,61996,29940,63004,30236,1672,602,181,291,202,706,914,3947,47,46,795,1734,1824,2095,2300,2076,1847,1841,1952
909323,62056,30004,63069,30301,1628,803,173,283,207,466,868,3907,51,43,799,1734,1824,2095,2300,2076,1847,1841,1952
910324,62096,30068,63134,30366,1909,804,157,296,217,442,743,4166,37,43,798,1728,1855,2097,2280,2064,1836,1873,1988
911325,62156,30144,63199,30431,1666,641,135,299,219,554,920,3997,33,47,794,1728,1855,2097,2280,2064,1836,1873,1988
912326,62196,30208,63264,30496,1946,792,119,312,219,458,955,4362,50,56,799,1728,1855,2097,2280,2064,1836,1873,1988
913327,62236,30284,63329,30561,1978,629,94,347,212,515,841,4220,52,41,793,1728,1855,2097,2280,2064,1836,1873,1988
914328,62296,30352,63394,30626,1734,725,84,356,201,559,976,4244,53,46,794,1728,1855,2097,2280,2064,1836,1873,1988
915329,62352,30400,63459,30691,1795,996,64,351,201,271,1066,4240,54,44,797,1728,1855,2097,2280,2064,1836,1873,1988
916330,62424,30456,63524,30756,1587,908,52,367,193,165,981,4259,42,52,794,1760,1850,2080,2266,2056,1818,1867,1968
917331,62484,30524,63589,30821,1743,754,34,387,182,568,996,4201,45,57,798,1760,1850,2080,2266,2056,1818,1867,1968
918332,62548,30584,63654,30886,1696,860,23,424,175,597,959,4161,59,42,797,1760,1850,2080,2266,2056,1818,1867,1968
919333,62624,30644,63719,30951,1532,866,0,471,158,602,946,4121,51,47,797,1760,1850,2080,2266,2056,1818,1867,1968
920334,62684,30708,63784,31016,1738,817,-20,500,139,535,1014,4001,46,57,798,1760,1850,2080,2266,2056,1818,1867,1968
921335,62740,30796,63849,31081,1800,489,-37,528,112,516,1036,4060,61,56,796,1775,1887,2123,2319,2095,1871,1911,2015
922336,62832,30868,63914,31146,1317,681,-57,560,108,596,958,4020,49,51,799,1775,1887,2123,2319,2095,1871,1911,2015
923337,62876,30920,63979,31211,1944,947,-75,582,97,757,1275,4055,61,54,804,1775,1887,2123,2319,2095,1871,1911,2015
924338,62948,30988,64044,31276,1585,743,-87,604,80,556,1101,4028,44,52,791,1775,1887,2123,2319,2095,1871,1911,2015
925339,63016,31060,64109,31341,1633,685,-105,606,79,650,1191,3998,43,55,799,1775,1887,2123,2319,2095,1871,1911,2015
926340,63072,31128,64174,31406,1794,732,-112,617,75,563,1278,3929,53,46,799,1775,1887,2123,2319,2095,1871,1911,2015
927341,63132,31200,64239,31471,1750,673,-135,616,75,483,1039,3931,44,51,797,1776,1876,2117,2318,2065,1847,1895,1987
928342,63192,31260,64304,31536,1757,829,-140,619,67,668,1275,3857,43,44,798,1776,1876,2117,2318,2065,1847,1895,1987
929343,63264,31340,64369,31601,1598,561,-159,631,66,637,1208,3914,44,43,796,1776,1876,2117,2318,2065,1847,1895,1987
930344,63320,31412,64434,31666,1810,653,-173,633,53,807,1175,3982,39,44,801,1776,1876,2117,2318,2065,1847,1895,1987
931345,63380,31456,64499,31731,1766,1028,-188,629,47,658,1090,3814,48,46,796,1776,1876,2117,2318,2065,1847,1895,1987
932346,63428,31524,64564,31796,1937,725,-198,636,35,690,1170,4036,37,42,793,1767,1865,2105,2297,2064,1855,1885,1969
933347,63480,31592,64629,31861,1904,721,-204,656,44,648,1164,4036,43,57,794,1767,1865,2105,2297,2064,1855,1885,1969
934348,63520,31656,64694,31926,2085,772,-210,686,38,779,1263,4170,52,49,794,1767,1865,2105,2297,2064,1855,1885,1969
935349,63580,31716,64759,31991,1842,828,-221,718,19,730,1185,4101,37,52,791,1767,1865,2105,2297,2064,1855,1885,1969
936350,63648,31772,64824,32056,1738,890,-224,733,8,655,1261,4168,54,57,795,1767,1865,2105,2297,2064,1855,1885,1969
937354,63700,31844,64889,32121,1955,682,-239,743,-17,586,1324,4161,58,54,794,1767,1865,2105,2297,2064,1855,1885,1969
938352,63764,31900,64954,32186,1806,893,-246,764,-51,586,1257,4139,43,47,792,1737,1838,2067,2253,2022,1803,1844,1939
939353,63840,31968,65019,32251,1644,739,-264,788,-76,637,1309,4221,61,58,793,1737,1838,2067,2253,2022,1803,1844,1939
940354,63900,32024,65084,32316,1850,900,-283,807,-107,575,1357,4288,46,43,798,1737,1838,2067,2253,2022,1803,1844,1939
941355,63976,32080,65149,32381,1636,911,-302,848,-148,478,1299,4183,49,43,793,1737,1838,2067,2253,2022,1803,1844,1939
942356,64036,32156,65214,32446,1843,648,-319,863,-186,577,1431,4137,49,51,795,1737,1838,2067,2253,2022,1803,1844,1939
943357,64104,32220,65279,32511,1740,799,-332,877,-213,351,1368,4119,56,47,796,1713,1825,2056,2247,2023,1787,1831,1945
944358,64172,32284,65344,32576,1737,800,-353,892,-245,392,1334,4062,43,51,797,1713,1825,2056,2247,2023,1787,1831,1945
945359,64236,32360,65409,32641,1788,638,-360,911,-267,407,1408,3906,48,50,796,1713,1825,2056,2247,2023,1787,1831,1945
946360,64312,32416,65474,32706,1626,899,-382,925,-277,500,1316,4009,47,45,797,1713,1825,2056,2247,2023,1787,1831,1945
947361,64372,32472,65539,32771,1832,909,-394,960,-294,653,1331,3959,45,53,797,1713,1825,2056,2247,2023,1787,1831,1945
948362,64432,32548,65604,32836,1839,646,-414,953,-316,488,1438,3682,52,42,794,1736,1856,2080,2280,2068,1844,1843,1945
949363,64508,32600,65669,32901,1626,962,-426,946,-329,294,1292,3734,42,59,796,1736,1856,2080,2280,2068,1844,1843,1936
950364,64584,32660,65868,33100,1776,1032,-447,940,-337,476,1360,3610,42,57,795,1736,1856,2080,2280,2068,1844,1843,1936
951365,64628,32744,65933,33165,2203,708,-460,943,-357,653,1441,3694,46,59,793,1736,1856,2080,2280,2068,1844,1843,1936
952366,64708,32820,65998,33230,1734,795,-479,939,-378,600,1332,3587,57,65,790,1736,1856,2080,2280,2068,1844,1843,1936
953367,64796,32884,66063,33295,1607,947,-491,935,-404,601,1364,3590,42,59,796,1736,1856,2080,2280,2068,1844,1843,1936
954368,64840,32948,66128,33360,2183,948,-497,907,-433,550,1460,3658,50,60,796,1774,1864,2104,2304,2080,1853,1888,1990
955369,64924,33040,66193,33425,1661,565,-503,912,-467,498,1402,3810,65,60,785,1774,1864,2104,2304,2080,1853,1888,1990
956370,64988,33120,66258,33490,1912,697,-507,918,-495,684,1468,3695,67,67,799,1774,1864,2104,2304,2080,1853,1888,1990
957371,65060,33184,66323,33555,1804,898,-508,910,-520,759,1453,3894,53,48,794,1774,1864,2104,2304,2080,1853,1888,1990
958372,65148,33264,66388,33620,1576,680,-510,911,-543,575,1584,4053,53,64,794,1774,1864,2104,2304,2080,1853,1888,1990
959373,65220,33364,66453,33685,1769,387,-516,913,-575,362,1619,3951,52,55,800,1787,1879,2088,2296,2088,1858,1903,1999
960374,65304,33424,66518,33750,1595,894,-521,914,-610,453,1425,3932,68,55,800,1787,1879,2088,2296,2088,1858,1903,1999
961375,65396,33528,66583,33815,1463,297,-540,914,-636,708,1516,3952,67,56,798,1787,1879,2088,2296,2088,1858,1903,1999
962376,65468,33612,66648,33880,1705,524,-550,898,-675,409,1615,3792,64,54,804,1787,1879,2088,2296,2088,1858,1903,1999
963377,65544,33680,66713,33945,1643,720,-574,905,-725,172,1422,4017,63,56,799,1787,1879,2088,2296,2088,1858,1903,1999
964378,65632,33744,66778,34010,1464,771,-596,923,-747,346,1237,3949,66,57,798,1787,1879,2088,2296,2088,1858,1903,1999
965379,65704,33824,66843,34075,1657,553,-601,927,-781,620,1701,3892,52,56,800,1743,1839,2063,2255,2031,1805,1851,1951
966380,65788,33880,66908,34140,1484,864,-609,882,-813,90,1636,3618,62,51,800,1743,1839,2063,2255,2031,1805,1851,1951
967381,65852,33964,66973,34205,1735,491,-633,898,-820,8,1276,4063,66,50,800,1743,1839,2063,2255,2031,1805,1851,1951
968382,65928,34044,67038,34270,1572,522,-647,924,-824,535,1512,3661,62,60,799,1743,1839,2063,2255,2031,1805,1851,1951
969383,66012,34120,67103,34335,1449,559,-662,915,-837,350,1438,3474,52,64,801,1743,1839,2063,2255,2031,1805,1851,1951
970384,66084,34200,67168,34400,1592,492,-668,883,-879,21,1583,3487,48,62,803,1747,1860,2084,2263,2036,1817,1866,1978
971385,66156,34292,67233,34465,1583,309,-686,856,-901,-254,1392,3135,61,50,799,1747,1860,2084,2263,2036,1817,1866,1978
972386,66216,34360,67298,34530,1739,605,-702,875,-895,183,1234,3620,46,57,801,1747,1860,2084,2263,2036,1817,1866,1978
973387,66280,34428,67363,34595,1692,601,-724,905,-903,779,1289,3370,53,52,798,1747,1860,2084,2263,2036,1817,1866,1978
974388,66376,34520,67428,34660,1254,268,-725,888,-929,368,1493,3153,61,53,799,1747,1860,2084,2263,2036,1817,1866,1978
975389,66440,34584,67493,34725,1656,620,-724,820,-962,-181,1626,3003,49,51,807,1747,1860,2084,2263,2036,1817,1866,1978
976390,66520,34664,67558,34790,1438,401,-739,799,-986,-238,1285,3255,45,60,799,1764,1864,2100,2288,2047,1825,1865,1975
977391,66584,34748,67623,34855,1639,328,-762,819,-1002,653,1201,3384,51,49,804,1764,1864,2100,2288,2047,1825,1865,1975
978392,66656,34836,67688,34920,1531,250,-769,831,-1015,920,1331,3166,50,59,802,1764,1864,2100,2288,2047,1825,1865,1975
979393,66756,34904,67753,34985,1139,496,-779,803,-1040,241,1403,3218,51,50,804,1764,1864,2100,2288,2047,1825,1865,1975
980394,66832,34968,67818,35050,1426,548,-776,777,-1086,-139,1549,3426,62,52,807,1764,1864,2100,2288,2047,1825,1865,1975
981395,66892,35048,67883,35115,1632,329,-774,753,-1106,75,1371,3414,56,44,803,1731,1835,2060,2232,2026,1803,1845,1946
982396,66988,35116,67948,35180,1144,476,-785,771,-1109,548,1221,3734,51,51,802,1731,1835,2060,2232,2026,1803,1845,1946
983397,67064,35192,68013,35245,1382,362,-789,767,-1111,431,1434,3531,64,45,808,1731,1835,2060,2232,2026,1803,1845,1946
984398,67156,35260,68078,35310,1149,459,-784,710,-1145,-192,1607,3446,49,59,805,1731,1835,2060,2232,2026,1803,1845,1946
985399,67240,35312,68143,35375,1226,674,-795,675,-1171,-386,1262,3514,50,46,807,1731,1835,2060,2232,2026,1803,1845,1946
986400,67320,35392,68208,35440,1258,306,-823,674,-1180,259,1150,3660,49,42,806,1731,1835,2060,2232,2026,1803,1845,1946
987401,67396,35460,68273,35505,1295,452,-832,648,-1178,437,1184,3217,50,58,807,1695,1793,2028,2207,2001,1777,1827,1936
988402,67492,35512,68338,35570,1007,668,-839,627,-1197,-271,1194,3301,64,44,806,1695,1793,2028,2207,2001,1777,1827,1936
989403,67580,35588,68403,35635,1080,355,-858,620,-1211,-312,1225,3399,66,48,807,1695,1793,2028,2207,2001,1777,1827,1936
990404,67664,35672,68468,35700,1107,232,-868,617,-1208,-27,1113,3201,64,43,810,1695,1793,2028,2207,2001,1777,1827,1936
991405,67752,35748,68533,35765,1029,318,-889,636,-1208,115,1177,3316,60,44,810,1695,1793,2028,2207,2001,1777,1827,1936
992406,67832,35816,68598,35830,1112,415,-899,631,-1203,-98,1143,2884,61,56,811,1706,1801,2016,2216,2008,1791,1850,1966
993407,67920,35872,68663,35895,983,576,-909,601,-1198,-305,1175,3010,68,55,809,1706,1801,2016,2216,2008,1791,1850,1966
994408,67996,35952,68728,35960,1120,257,-913,587,-1196,-175,1077,3025,53,55,809,1706,1801,2016,2216,2008,1791,1850,1966
995409,68084,36004,68793,36025,943,623,-929,576,-1207,97,1166,2916,66,55,810,1706,1801,2016,2216,2008,1791,1850,1966
996410,68180,36072,68858,36090,805,419,-940,531,-1219,-71,1087,2662,52,55,809,1706,1801,2016,2216,2008,1791,1850,1966
997411,68268,36144,68923,36155,877,361,-944,516,-1241,-463,920,2875,56,50,812,1706,1801,2016,2216,2008,1791,1850,1966
998412,68364,36224,68988,36220,739,243,-957,510,-1263,-81,1058,2801,60,44,812,1762,1866,2080,2264,2058,1825,1856,1968
999413,68448,36296,69053,36285,867,334,-974,492,-1271,104,885,2782,61,52,814,1762,1866,2080,2264,2058,1825,1856,1968
1000414,68540,36364,69118,36350,734,380,-983,459,-1281,-94,925,2764,58,51,813,1762,1866,2080,2264,2058,1825,1856,1968
1001415,68624,36428,69183,36415,811,432,-996,434,-1298,-174,923,2862,55,50,813,1762,1866,2080,2264,2058,1825,1856,1968
1002416,68708,36500,69248,36480,788,323,-1006,425,-1320,89,920,3097,50,43,812,1762,1866,2080,2264,2058,1825,1856,1968
1003417,68800,36568,69313,36545,655,369,-1010,397,-1315,-71,753,2924,65,47,813,1753,1842,2056,2242,2029,1804,1855,1967
1004418,68888,36648,69378,36610,678,201,-1015,367,-1312,-81,811,2978,47,55,814,1753,1842,2056,2242,2029,1804,1855,1967
1005419,68972,36720,69443,36675,704,293,-1020,347,-1304,-197,876,3257,52,50,815,1753,1842,2056,2242,2029,1804,1855,1967
1006420,69068,36800,69508,36740,517,174,-1018,321,-1307,22,890,3043,66,50,812,1753,1842,2056,2242,2029,1804,1855,1967
1007421,69160,36872,69573,36805,534,266,-1020,263,-1295,-119,800,2987,51,59,817,1753,1842,2056,2242,2029,1804,1855,1967
1008422,69228,36932,69638,36870,830,422,-1024,236,-1275,-550,627,3257,49,56,816,1753,1842,2056,2242,2029,1804,1855,1967
1009423,69324,37008,69703,36935,442,208,-1040,216,-1273,-223,858,3172,49,52,812,1706,1802,2009,2189,1990,1762,1820,1925
1010424,69416,37068,69768,37000,460,414,-1039,204,-1266,33,708,3328,49,46,817,1706,1802,2009,2189,1990,1762,1820,1925
1011425,69496,37140,69833,37065,592,256,-1044,161,-1253,-197,689,2958,47,54,816,1706,1802,2009,2189,1990,1762,1820,1925
1012426,69580,37228,69898,37130,519,28,-1045,162,-1243,-332,579,3264,49,53,816,1706,1802,2009,2189,1990,1762,1820,1925
1013427,69660,37316,69963,37195,550,0,-1057,144,-1235,-221,589,2953,45,47,818,1706,1802,2009,2189,1990,1762,1820,1925
1014428,69756,37380,70028,37260,313,301,-1072,126,-1231,-398,488,2862,60,49,817,1707,1811,2016,2200,2001,1770,1835,1949
1015429,69836,37468,70093,37325,494,-27,-1085,128,-1240,-103,607,3057,60,54,818,1707,1811,2016,2200,2001,1770,1835,1949
1016430,69940,37560,70158,37390,147,-110,-1089,120,-1244,-282,563,2721,52,46,818,1707,1811,2016,2200,2001,1770,1835,1949
1017431,70000,37624,70223,37455,703,241,-1094,82,-1244,-541,423,2802,40,57,820,1707,1811,2016,2200,2001,1770,1835,1949
1018432,70104,37708,70288,37520,105,-32,-1089,72,-1236,-437,360,2867,36,50,815,1707,1811,2016,2200,2001,1770,1835,1949
1019433,70180,37784,70353,37585,442,55,-1073,83,-1220,-117,467,3062,53,47,821,1707,1811,2016,2200,2001,1770,1835,1949
1020434,70260,37848,70418,37650,374,206,-1055,84,-1206,-156,492,2910,56,43,818,1742,1844,2053,2239,2029,1793,1856,1966
1021435,70344,37932,70483,37715,301,-68,-1045,57,-1202,-545,407,2599,40,57,818,1742,1844,2053,2239,2029,1793,1856,1966
1022436,70416,38000,70548,37780,443,128,-1035,42,-1183,-503,294,3093,51,59,819,1742,1844,2053,2239,2029,1793,1856,1966
1023437,70500,38072,70613,37845,269,69,-1037,38,-1170,-174,366,2795,56,53,816,1742,1844,2053,2239,2029,1793,1856,1966
1024438,70588,38180,70678,37910,191,-433,-1033,28,-1162,-270,395,3045,44,52,820,1742,1844,2053,2239,2029,1793,1856,1966
1025439,70684,38232,70743,37975,54,283,-1049,16,-1155,-309,320,2829,40,43,817,1760,1856,2059,2254,2005,1775,1834,1931
1026440,70772,38308,70808,38040,125,-31,-1070,12,-1140,-484,183,2902,45,50,820,1760,1856,2059,2254,2005,1775,1834,1931
1027441,70844,38380,70873,38105,317,11,-1092,-11,-1115,-290,293,2885,54,48,821,1760,1856,2059,2254,2005,1775,1834,1931
