%  Data file recorded 2016/9/29  18:49:18
%  Stride Frequency         = [1, 1]
%  Lead In /Lead Out        = 
%  Deltas (Fractional)      = [0.25, 0.25, 0.25],[0.25, 0.25, 0.25]
%  Phase                    = 32768
%  Experiment.py 
%  Motor Gains    = [5000, 400, 200, 0, 300, 5000, 400, 200, 0, 300]
% Columns: 
% time | Right Leg Pos | Left Leg Pos | Commanded Right Leg Pos | Commanded Left Leg Pos | DCR | DCL | GyroX | GyroY | GyroZ | AX | AY | AZ | RBEMF | LBEMF | VBatt | S1 | S2 | S3 | S4 | S5 | S6 | S7 | S8
213,17912,-15624,17526,-15242,-3800,-3800,-5,-6,0,-99,232,3949,-3,6,852,1781,1884,2079,2246,2035,1796,1870,1998
1214,17912,-15624,17526,-15242,-3800,-3800,-6,-5,1,-90,216,3935,-2,6,852,1781,1884,2079,2246,2035,1796,1870,1998
2215,17912,-15632,17526,-15242,-3800,-3800,-5,-3,0,-95,202,3935,4,5,852,1781,1884,2079,2246,2035,1796,1870,1998
3216,17912,-15624,17526,-15242,-3800,-3800,-5,-3,-2,-105,222,3934,5,6,852,1781,1884,2079,2246,2035,1796,1870,1998
4217,17900,-15628,17526,-15242,-3800,-3800,-6,-3,0,-98,214,3933,9,6,852,1781,1884,2079,2246,2035,1796,1870,1998
5218,17900,-15620,17526,-15242,-3800,-3800,-6,-5,2,-88,215,3944,1,5,852,1781,1884,2079,2246,2035,1796,1870,1998
6219,17912,-15636,17526,-15242,-3800,-3800,-7,-5,1,-107,238,3937,-8,6,852,1781,1884,2079,2246,2035,1796,1870,1998
7220,17916,-15616,17526,-15242,-3800,-3800,-8,-5,1,-94,233,3958,-10,6,852,1781,1884,2079,2246,2035,1796,1870,1998
8221,17916,-15628,17526,-15242,-3800,-3800,-8,-3,2,-84,211,3931,2,6,852,1781,1884,2079,2246,2035,1796,1870,1998
9222,17900,-15632,17526,-15242,-3800,-3800,-10,-1,2,-72,202,3898,3,3,852,1781,1884,2079,2246,2035,1796,1870,1998
10223,17916,-15632,17526,-15242,-3800,-3800,-9,-1,0,-74,217,3929,5,5,852,1781,1884,2079,2246,2035,1796,1870,1998
11224,17912,-15632,17526,-15242,-3800,-3800,-10,-3,0,-102,214,3945,9,5,852,1781,1884,2079,2246,2035,1796,1870,1998
12225,17916,-15632,17526,-15242,-3800,-3800,-8,-4,-6,-102,211,3924,3,1,852,1781,1884,2079,2246,2035,1796,1870,1998
13226,17904,-15632,17526,-15242,-3800,-3800,-8,-4,-4,-98,219,3901,1,5,852,1781,1884,2079,2246,2035,1796,1870,1998
14227,17916,-15636,17526,-15242,-3800,-3800,-8,-2,-3,-85,206,3917,-6,6,852,1781,1884,2079,2246,2035,1796,1870,1998
15228,17904,-15636,17526,-15242,-3800,-3800,-10,-1,1,-101,217,3933,-8,3,852,1781,1884,2079,2246,2035,1796,1870,1998
16229,17908,-15636,17526,-15242,-3800,-3800,-11,1,4,-77,198,3938,-8,4,852,1781,1884,2079,2246,2035,1796,1870,1998
17230,17904,-15636,17526,-15242,-3800,-3800,-5,1,3,-71,217,3943,-8,5,852,1781,1884,2079,2246,2035,1796,1870,1998
18231,17908,-15628,17526,-15242,-3800,-3800,-2,0,3,-85,231,3919,-3,5,852,1781,1884,2079,2246,2035,1796,1870,1998
19232,17912,-15624,17526,-15242,-3800,-3800,-6,-2,0,-84,204,3936,1,6,851,1781,1884,2079,2246,2035,1796,1870,1998
20233,17904,-15636,17526,-15242,-3800,-3800,-10,-2,-1,-65,215,3924,8,-6,851,1781,1884,2079,2246,2035,1796,1870,1998
21234,17916,-15632,17526,-15242,-3800,-3800,-9,-3,-1,-71,228,3911,-2,-6,851,1781,1884,2079,2246,2035,1796,1870,1998
22235,17904,-15628,17526,-15242,-3800,-3800,-8,-4,1,-111,228,3890,-10,-8,852,1781,1884,2079,2246,2035,1796,1870,1998
23236,17916,-15636,17526,-15242,-3800,-3800,-8,-4,2,-99,220,3901,2,-6,852,1781,1884,2079,2246,2035,1796,1870,1998
24237,17912,-15636,17526,-15242,-3800,-3800,-9,-4,3,-92,210,3895,9,-6,852,1781,1884,2079,2246,2035,1796,1870,1998
25238,17900,-15632,17526,-15242,-3800,-3800,-10,-7,3,-86,211,3965,5,0,852,1781,1884,2079,2246,2035,1796,1870,1998
26239,17912,-15628,17526,-15242,-3800,-3800,-8,-6,4,-87,213,3941,-8,4,852,1781,1884,2079,2246,2035,1796,1870,1998
27240,17912,-15620,17526,-15242,-3800,-3800,-6,-6,3,-79,231,3908,-7,1,852,1781,1884,2079,2246,2035,1796,1870,1998
28241,17904,-15640,17526,-15242,-3800,-3800,-5,-7,1,-69,216,3938,3,5,852,1781,1884,2079,2246,2035,1796,1870,1998
29242,17908,-15636,17526,-15242,-3800,-3800,-5,-5,2,-72,216,3901,9,5,851,1781,1884,2079,2246,2035,1796,1870,1998
30243,17924,-15628,17526,-15242,-3800,-3800,-7,-6,-2,-75,224,3924,5,6,852,1781,1884,2079,2246,2035,1796,1870,1998
31244,17904,-15620,17526,-15242,-3800,-3800,-7,-7,2,-82,212,3914,-5,4,852,1781,1884,2079,2246,2035,1796,1870,1998
32245,17916,-15624,17526,-15242,-3800,-3800,-6,-7,1,-80,237,3923,-7,0,852,1781,1884,2079,2246,2035,1796,1870,1998
33246,17908,-15620,17526,-15242,-3800,-3800,-7,-5,1,-67,221,3935,3,5,852,1781,1884,2079,2246,2035,1796,1870,1998
34247,17892,-15632,17526,-15242,-3800,-3800,-7,-3,3,-78,216,3921,9,3,852,1781,1884,2079,2246,2035,1796,1870,1998
35248,17908,-15620,17526,-15242,-3800,-3800,-7,-4,4,-86,232,3938,-8,-1,852,1781,1884,2079,2246,2035,1796,1870,1998
36249,17908,-15628,17526,-15242,-3800,-3800,-7,-6,1,-76,232,3934,-10,0,851,1781,1884,2079,2246,2035,1796,1870,1998
37250,17908,-15624,17526,-15242,-3800,-3800,-5,-5,1,-87,219,3924,3,-7,851,1781,1884,2079,2246,2035,1796,1870,1998
38251,17912,-15616,17526,-15242,-3800,-3800,-4,-3,2,-82,212,3938,0,-7,851,1781,1884,2079,2246,2035,1796,1870,1998
39252,17912,-15628,17526,-15242,-3800,-3800,-7,-2,1,-92,231,3944,-9,-3,851,1781,1884,2079,2246,2035,1796,1870,1998
40253,17908,-15640,17526,-15242,-3800,-3800,-8,-3,1,-75,232,3951,-10,-2,852,1781,1884,2079,2246,2035,1796,1870,1998
41254,17916,-15620,17526,-15242,-3800,-3800,-8,-4,1,-88,208,3951,-3,-4,852,1781,1884,2079,2246,2035,1796,1870,1998
42255,17912,-15628,17526,-15242,-3800,-3800,-6,-4,1,-75,210,3941,4,4,852,1781,1884,2079,2246,2035,1796,1870,1998
43256,17904,-15628,17526,-15242,-3800,-3800,-7,-1,1,-71,202,3927,5,0,852,1781,1884,2079,2246,2035,1796,1870,1998
44257,17912,-15636,17526,-15242,-3800,-3800,-8,-2,3,-99,211,3923,7,-1,852,1781,1884,2079,2246,2035,1796,1870,1998
45258,17912,-15620,17526,-15242,-3800,-3800,-8,-3,1,-86,219,3925,3,5,852,1781,1884,2079,2246,2035,1796,1870,1998
46259,17912,-15636,17526,-15242,-3800,-3800,-8,-2,-3,-75,220,3967,-1,3,852,1781,1884,2079,2246,2035,1796,1870,1998
47260,17904,-15636,17526,-15242,-3800,-3800,-7,-3,-3,-76,228,3938,-10,3,851,1781,1884,2079,2246,2035,1796,1870,1998
48261,17908,-15636,17526,-15242,-3800,-3800,-7,-4,2,-99,229,3950,-9,5,851,1781,1884,2079,2246,2035,1796,1870,1998
49262,17916,-15636,17526,-15242,-3800,-3800,-7,-3,2,-105,238,3929,-4,-1,852,1781,1884,2079,2246,2035,1796,1870,1998
50263,17904,-15636,17526,-15242,-3800,-3800,-6,-3,-2,-87,230,3885,9,-5,852,1781,1884,2079,2246,2035,1796,1870,1998
51264,17912,-15636,17526,-15242,-3800,-3800,-9,-4,-5,-68,249,3936,8,-4,852,1781,1884,2079,2246,2035,1796,1870,1998
52265,17912,-15616,17526,-15242,-3800,-3800,-9,-2,-4,-88,210,3949,3,-8,852,1781,1884,2079,2246,2035,1796,1870,1998
53266,17908,-15640,17526,-15242,-3800,-3800,-7,0,-3,-87,228,3939,-4,-6,851,1781,1884,2079,2246,2035,1796,1870,1998
54267,17920,-15632,17526,-15242,-3800,-3800,-9,1,0,-82,216,3945,-3,1,851,1781,1884,2079,2246,2035,1796,1870,1998
55268,17904,-15644,17526,-15242,-3800,-3800,-7,-2,0,-76,229,3956,-6,6,852,1781,1884,2079,2246,2035,1796,1870,1998
56269,17920,-15632,17526,-15242,-3800,-3800,-7,-5,-1,-84,226,3930,-8,3,852,1781,1884,2079,2246,2035,1796,1870,1998
57270,17916,-15616,17526,-15242,-3800,-3800,-9,-6,2,-118,233,3914,0,5,852,1781,1884,2079,2246,2035,1796,1870,1998
58271,17908,-15632,17526,-15242,-3800,-3800,-11,-3,0,-87,220,3940,7,2,852,1781,1884,2079,2246,2035,1796,1870,1998
59272,17908,-15620,17526,-15242,-3800,-3800,-9,-1,-3,-80,219,3925,4,-3,851,1781,1884,2079,2246,2035,1796,1870,1998
60273,17904,-15624,17526,-15242,-3800,-3800,-7,-3,-1,-93,200,3947,-2,-4,852,1781,1884,2079,2246,2035,1796,1870,1998
61274,17916,-15628,17526,-15242,-3800,-3800,-8,-3,2,-73,198,3905,-6,-8,851,1781,1884,2079,2246,2035,1796,1870,1998
62275,17896,-15636,17526,-15242,-3800,-3800,-8,-4,2,-96,219,3910,-8,-8,852,1781,1884,2079,2246,2035,1796,1870,1998
63276,17904,-15628,17526,-15242,-3800,-3800,-6,-4,0,-73,219,3921,-3,-8,852,1781,1884,2079,2246,2035,1796,1870,1998
64277,17908,-15620,17526,-15242,-3800,-3800,-6,-6,-2,-79,221,3887,5,-8,852,1781,1884,2079,2246,2035,1796,1870,1998
65278,17908,-15616,17526,-15242,-3800,-3800,-10,-5,0,-103,213,3898,7,-7,852,1781,1884,2079,2246,2035,1796,1870,1998
66279,17904,-15616,17526,-15242,-3800,-3800,-12,-4,3,-89,215,3908,-4,-8,852,1781,1884,2079,2246,2035,1796,1870,1998
67280,17904,-15620,17526,-15242,-3800,-3800,-10,-3,2,-78,212,3914,-8,-8,852,1781,1884,2079,2246,2035,1796,1870,1998
68281,17908,-15628,17526,-15242,-3800,-3800,-9,-2,1,-63,211,3940,-5,-8,852,1781,1884,2079,2246,2035,1796,1870,1998
69282,17904,-15624,17526,-15242,-3800,-3800,-9,-5,0,-51,194,3950,7,-5,852,1781,1884,2079,2246,2035,1796,1870,1998
70283,17904,-15628,17526,-15242,-3800,-3800,-9,-6,-2,-78,224,3919,9,-7,851,1781,1884,2079,2246,2035,1796,1870,1998
71284,17912,-15628,17526,-15242,-3800,-3800,-6,-4,1,-102,231,3916,-5,-7,851,1781,1884,2079,2246,2035,1796,1870,1998
72285,17908,-15632,17526,-15242,-3800,-3800,-5,-5,5,-102,217,3925,-9,-8,852,1781,1884,2079,2246,2035,1796,1870,1998
73286,17916,-15628,17526,-15242,-3800,-3800,-7,-4,5,-77,224,3915,-7,-8,851,1781,1884,2079,2246,2035,1796,1870,1998
74287,17916,-15624,17526,-15242,-3800,-3800,-8,-4,2,-79,224,3944,8,-8,851,1781,1884,2079,2246,2035,1796,1870,1998
75288,17908,-15624,17526,-15242,-3800,-3800,-7,-4,2,-55,222,3922,8,-8,852,1781,1884,2079,2246,2035,1796,1870,1998
76289,17896,-15640,17526,-15242,-3800,-3800,-6,-5,3,-71,221,3883,6,-8,852,1781,1884,2079,2246,2035,1796,1870,1998
77290,17900,-15632,17526,-15242,-3800,-3800,-6,-4,0,-69,235,3912,-5,-8,851,1781,1884,2079,2246,2035,1796,1870,1998
78291,17912,-15628,17526,-15242,-3800,-3800,-6,-3,-1,-82,208,3936,-8,-8,852,1781,1884,2079,2246,2035,1796,1870,1998
79292,17912,-15628,17526,-15242,-3800,-3800,-7,-2,1,-61,208,3921,-10,-8,852,1781,1884,2079,2246,2035,1796,1870,1998
80293,17912,-15624,17526,-15242,-3800,-3800,-6,-3,0,-71,212,3906,3,-8,852,1781,1884,2079,2246,2035,1796,1870,1998
81294,17916,-15636,17526,-15242,-3800,-3800,-5,-4,-1,-85,210,3896,9,-8,852,1781,1884,2079,2246,2035,1796,1870,1998
82295,17912,-15624,17526,-15242,-3800,-3800,-4,-4,2,-90,216,3925,4,-8,852,1781,1884,2079,2246,2035,1796,1870,1998
83296,17916,-15632,17526,-15242,-3800,-3800,-5,-5,2,-91,195,3907,-9,-8,852,1781,1884,2079,2246,2035,1796,1870,1998
84297,17912,-15644,17526,-15242,-3800,-3800,-7,-7,3,-77,210,3885,-8,-8,852,1781,1884,2079,2246,2035,1796,1870,1998
85298,17912,-15628,17526,-15242,-3800,-3800,-10,-5,3,-69,230,3889,5,-8,852,1781,1884,2079,2246,2035,1796,1870,1998
86299,17920,-15628,17526,-15242,-3800,-3800,-10,-3,1,-75,236,3914,-3,-3,851,1781,1884,2079,2246,2035,1796,1870,1998
87300,17912,-15640,17526,-15242,-3800,-3800,-7,-1,1,-86,231,3910,-9,4,851,1781,1884,2079,2246,2035,1796,1870,1998
88301,17904,-15632,17526,-15242,-3800,-3800,-5,-4,3,-109,210,3906,-6,0,851,1781,1884,2079,2246,2035,1796,1870,1998
89302,17900,-15628,17526,-15242,-3800,-3800,-3,-5,1,-100,195,3928,9,-7,852,1781,1884,2079,2246,2035,1796,1870,1998
90303,17908,-15632,17526,-15242,-3800,-3800,-3,-5,2,-81,215,3924,4,-7,852,1781,1884,2079,2246,2035,1796,1870,1998
91304,17920,-15624,17526,-15242,-3800,-3800,-3,-4,4,-64,229,3928,-7,-7,852,1781,1884,2079,2246,2035,1796,1870,1998
92305,17900,-15624,17526,-15242,-3800,-3800,-5,-4,5,-79,237,3920,-2,-2,852,1781,1884,2079,2246,2035,1796,1870,1998
93306,17900,-15632,17526,-15242,-3800,-3800,-5,-3,1,-69,214,3918,3,-4,852,1781,1884,2079,2246,2035,1796,1870,1998
94307,17912,-15620,17526,-15242,-3800,-3800,-8,-3,0,-87,215,3911,9,1,852,1781,1884,2079,2246,2035,1796,1870,1998
95308,17912,-15616,17526,-15242,-3800,-3800,-8,-3,1,-75,248,3905,5,1,852,1781,1884,2079,2246,2035,1796,1870,1998
96309,17916,-15628,17526,-15242,-3800,-3800,-6,-2,2,-73,230,3920,-2,-7,852,1781,1884,2079,2246,2035,1796,1870,1998
97310,17904,-15624,17526,-15242,-3800,-3800,-6,-1,1,-88,244,3886,-9,-6,852,1781,1884,2079,2246,2035,1796,1870,1998
98311,17916,-15624,17526,-15242,-3800,-3800,-9,-3,0,-78,233,3914,2,-7,852,1781,1884,2079,2246,2035,1796,1870,1998
99312,17908,-15632,17526,-15242,-3800,-3800,-9,-6,-1,-73,247,3963,9,-8,852,1781,1884,2079,2246,2035,1796,1870,1998
100313,17908,-15624,17526,-15242,-3800,-3800,-7,-7,0,-88,239,3937,3,-8,852,1781,1884,2079,2246,2035,1796,1870,1998
101314,17908,-15620,17526,-15242,-3800,-3800,-8,-5,3,-97,231,3924,-8,-8,852,1781,1884,2079,2246,2035,1796,1870,1998
102315,17912,-15624,17526,-15242,-3800,-3800,-9,-6,1,-86,236,3901,0,-7,852,1781,1884,2079,2246,2035,1796,1870,1998
103316,17924,-15628,17526,-15242,-3800,-3800,-9,-6,-1,-53,234,3899,7,-4,852,1781,1884,2079,2246,2035,1796,1870,1998
104317,17912,-15640,17526,-15242,-3800,-3800,-9,-3,2,-64,230,3910,0,-7,851,1781,1884,2079,2246,2035,1796,1870,1998
105318,17896,-15632,17526,-15242,-3800,-3800,-8,-2,4,-61,231,3901,-9,-6,851,1781,1884,2079,2246,2035,1796,1870,1998
106319,17908,-15636,17526,-15242,-3800,-3800,-8,-1,0,-60,216,3924,0,-7,852,1781,1884,2079,2246,2035,1796,1870,1998
107320,17916,-15620,17526,-15242,-3800,-3800,-10,-1,1,-92,210,3938,6,-8,852,1781,1884,2079,2246,2035,1796,1870,1998
108321,17920,-15636,17526,-15242,-3800,-3800,-8,-3,3,-106,223,3947,-8,-8,852,1781,1884,2079,2246,2035,1796,1870,1998
109322,17904,-15620,17526,-15242,-3800,-3800,-7,-6,1,-108,236,3935,-6,-8,852,1781,1884,2079,2246,2035,1796,1870,1998
110323,17908,-15624,17526,-15242,-3800,-3800,-5,-5,-1,-70,206,3930,9,-8,852,1781,1884,2079,2246,2035,1796,1870,1998
111324,17896,-15632,17526,-15242,-3800,-3800,-5,-3,-3,-85,228,3946,2,-6,852,1781,1884,2079,2246,2035,1796,1870,1998
112325,17916,-15620,17526,-15242,-3800,-3800,-6,-4,-2,-76,232,3943,-8,-8,851,1781,1884,2079,2246,2035,1796,1870,1998
113326,17904,-15636,17526,-15242,-3800,-3800,-7,-3,-1,-70,239,3927,6,-8,852,1781,1884,2079,2246,2035,1796,1870,1998
114327,17916,-15612,17526,-15242,-3800,-3800,-7,-1,-2,-83,220,3913,9,-7,852,1781,1884,2079,2246,2035,1796,1870,1998
115328,17908,-15628,17526,-15242,-3800,-3800,-9,1,-1,-73,222,3902,-3,-8,852,1781,1884,2079,2246,2035,1796,1870,1998
116329,17908,-15632,17526,-15242,-3800,-3800,-8,-1,2,-68,239,3946,-5,-8,851,1781,1884,2079,2246,2035,1796,1870,1998
117330,17912,-15624,17526,-15242,-3800,-3800,-6,-3,-1,-68,237,3926,6,-8,852,1781,1884,2079,2246,2035,1796,1870,1998
118331,17924,-15640,17526,-15242,-3800,-3800,-9,0,0,-75,222,3935,8,-8,852,1781,1884,2079,2246,2035,1796,1870,1998
119332,17908,-15628,17526,-15242,-3800,-3800,-11,-1,2,-69,244,3927,-8,-5,851,1781,1884,2079,2246,2035,1796,1870,1998
120333,17908,-15628,17526,-15242,-3800,-3800,-10,-2,2,-70,232,3905,-7,-8,851,1781,1884,2079,2246,2035,1796,1870,1998
121334,17908,-15624,17526,-15242,-3800,-3800,-9,-1,0,-65,233,3930,0,-5,851,1781,1884,2079,2246,2035,1796,1870,1998
122335,17912,-15632,17526,-15242,-3800,-3800,-5,-4,0,-83,230,3919,9,0,852,1781,1884,2079,2246,2035,1796,1870,1998
123336,17916,-15636,17526,-15242,-3800,-3800,-5,-5,2,-72,215,3938,5,-4,851,1781,1884,2079,2246,2035,1796,1870,1998
124337,17912,-15624,17526,-15242,-3800,-3800,-7,-3,2,-72,218,3923,-3,1,851,1781,1884,2079,2246,2035,1796,1870,1998
125338,17912,-15632,17526,-15242,-3800,-3800,-5,-3,2,-79,209,3903,-8,4,851,1781,1884,2079,2246,2035,1796,1870,1998
126339,17912,-15624,17526,-15242,-3800,-3800,-5,-3,2,-81,206,3902,-5,5,852,1781,1884,2079,2246,2035,1796,1870,1998
127340,17916,-15632,17526,-15242,-3800,-3800,-6,-2,0,-77,208,3912,2,6,852,1781,1884,2079,2246,2035,1796,1870,1998
128341,17916,-15632,17526,-15242,-3800,-3800,-6,-2,-2,-47,218,3906,9,5,852,1781,1884,2079,2246,2035,1796,1870,1998
129342,17892,-15636,17526,-15242,-3800,-3800,-6,-2,1,-61,222,3891,6,6,852,1781,1884,2079,2246,2035,1796,1870,1998
130343,17904,-15632,17526,-15242,-3800,-3800,-7,-1,2,-93,219,3919,-4,3,852,1781,1884,2079,2246,2035,1796,1870,1998
131344,17912,-15624,17526,-15242,-3800,-3800,-8,-1,1,-80,229,3911,-10,-2,852,1781,1884,2079,2246,2035,1796,1870,1998
132345,17912,-15628,17526,-15242,-3800,-3800,-7,-4,2,-97,222,3932,-8,0,852,1781,1884,2079,2246,2035,1796,1870,1998
133346,17904,-15628,17526,-15242,-3800,-3800,-5,-6,2,-75,214,3937,2,-6,852,1781,1884,2079,2246,2035,1796,1870,1998
134347,17916,-15628,17526,-15242,-3800,-3800,-5,-4,3,-71,233,3903,9,-8,852,1781,1884,2079,2246,2035,1796,1870,1998
135348,17916,-15620,17526,-15242,-3800,-3800,-6,-3,1,-71,232,3893,1,-7,852,1781,1884,2079,2246,2035,1796,1870,1998
136349,17912,-15640,17526,-15242,-3800,-3800,-5,-2,0,-64,200,3923,-9,-8,851,1781,1884,2079,2246,2035,1796,1870,1998
137350,17904,-15628,17526,-15242,-3800,-3800,-4,-6,0,-92,231,3935,1,-7,851,1781,1884,2079,2246,2035,1796,1870,1998
138351,17912,-15636,17526,-15242,-3800,-3800,-4,-6,5,-113,232,3929,2,-7,851,1781,1884,2079,2246,2035,1796,1870,1998
139352,17908,-15628,17526,-15242,-3800,-3800,-5,-6,6,-106,243,3922,3,-2,851,1781,1884,2079,2246,2035,1796,1870,1998
140353,17912,-15620,17526,-15242,-3800,-3800,-6,-2,4,-72,244,3924,7,1,852,1781,1884,2079,2246,2035,1796,1870,1998
141354,17912,-15632,17526,-15242,-3800,-3800,-7,-2,2,-73,214,3908,7,-6,852,1781,1884,2079,2246,2035,1796,1870,1998
142355,17916,-15628,17526,-15242,-3800,-3800,-7,-2,0,-88,250,3926,6,-5,852,1781,1884,2079,2246,2035,1796,1870,1998
143356,17904,-15632,17526,-15242,-3800,-3800,-8,-4,3,-77,236,3935,-4,-5,852,1781,1884,2079,2246,2035,1796,1870,1998
144357,17912,-15628,17526,-15242,-3800,-3800,-4,-4,3,-76,192,3917,-9,-7,852,1781,1884,2079,2246,2035,1796,1870,1998
145358,17904,-15632,17526,-15242,-3800,-3800,-1,-4,-2,-82,207,3915,-1,-4,851,1781,1884,2079,2246,2035,1796,1870,1998
146359,17916,-15616,17526,-15242,-3800,-3800,-2,-3,-1,-90,221,3901,7,0,851,1781,1884,2079,2246,2035,1796,1870,1998
147360,17892,-15636,17526,-15242,-3800,-3800,-6,-1,1,-90,219,3936,-4,-5,852,1781,1884,2079,2246,2035,1796,1870,1998
148361,17912,-15632,17526,-15242,-3800,-3800,-7,-1,2,-80,210,3952,-9,-2,852,1781,1884,2079,2246,2035,1796,1870,1998
149362,17916,-15624,17526,-15242,-3800,-3800,-8,-3,2,-105,233,3922,2,-1,852,1781,1884,2079,2246,2035,1796,1870,1998
150363,17908,-15636,17526,-15242,-3800,-3800,-7,-4,0,-88,222,3927,8,-7,852,1781,1884,2079,2246,2035,1796,1870,1998
151364,17912,-15632,17526,-15242,-3800,-3800,-8,-4,1,-88,211,3919,9,-7,851,1781,1884,2079,2246,2035,1796,1870,1998
152365,17916,-15628,17526,-15242,-3800,-3800,-9,-2,0,-77,226,3917,-2,-8,851,1781,1884,2079,2246,2035,1796,1870,1998
153366,17908,-15628,17526,-15242,-3800,-3800,-10,-3,-1,-79,215,3917,-7,-4,851,1781,1884,2079,2246,2035,1796,1870,1998
154367,17904,-15636,17526,-15242,-3800,-3800,-9,-3,2,-94,223,3942,-9,1,851,1781,1884,2079,2246,2035,1796,1870,1998
155368,17908,-15628,17526,-15242,-3800,-3800,-8,-3,4,-67,209,3940,-7,2,851,1781,1884,2079,2246,2035,1796,1870,1998
156369,17904,-15628,17526,-15242,-3800,-3800,-8,-2,-1,-109,204,3891,2,6,852,1781,1884,2079,2246,2035,1796,1870,1998
157370,17904,-15628,17526,-15242,-3800,-3800,-9,-1,-1,-97,201,3894,8,6,852,1781,1884,2079,2246,2035,1796,1870,1998
158371,17908,-15620,17526,-15242,-3800,-3800,-9,-1,-1,-91,203,3931,-8,2,852,1781,1884,2079,2246,2035,1796,1870,1998
159372,17904,-15624,17526,-15242,-3800,-3800,-7,0,-1,-80,220,3914,-3,-7,852,1781,1884,2079,2246,2035,1796,1870,1998
160373,17908,-15628,17526,-15242,-3800,-3800,-8,-1,1,-89,244,3927,9,-8,852,1781,1884,2079,2246,2035,1796,1870,1998
161374,17904,-15636,17526,-15242,-3800,-3800,-7,-4,2,-109,236,3938,-8,-5,851,1781,1884,2079,2246,2035,1796,1870,1998
162375,17916,-15628,17526,-15242,-3800,-3800,-4,-5,0,-104,214,3911,-8,6,852,1781,1884,2079,2246,2035,1796,1870,1998
163376,17908,-15636,17526,-15242,-3800,-3800,-7,-6,-1,-100,210,3914,6,4,851,1781,1884,2079,2246,2035,1796,1870,1998
164377,17904,-15620,17526,-15242,-3800,-3800,-10,-3,0,-118,203,3919,4,-1,851,1781,1884,2079,2246,2035,1796,1870,1998
165378,17912,-15624,17526,-15242,-3800,-3800,-9,-4,-2,-108,223,3945,-7,-8,851,1781,1884,2079,2246,2035,1796,1870,1998
166379,17912,-15636,17526,-15242,-3800,-3800,-8,-4,-2,-81,241,3927,-9,-4,852,1781,1884,2079,2246,2035,1796,1870,1998
167380,17904,-15640,17526,-15242,-3800,-3800,-8,-4,-2,-79,241,3906,4,0,852,1781,1884,2079,2246,2035,1796,1870,1998
168381,17904,-15624,17526,-15242,-3800,-3800,-7,-2,-2,-100,240,3909,9,6,851,1781,1884,2079,2246,2035,1796,1870,1998
169382,17912,-15628,17526,-15242,-3800,-3800,-8,-3,-3,-92,226,3934,2,4,852,1781,1884,2079,2246,2035,1796,1870,1998
170383,17916,-15616,17526,-15242,-3800,-3800,-11,-3,-2,-63,217,3907,-6,2,851,1781,1884,2079,2246,2035,1796,1870,1998
171384,17916,-15648,17526,-15242,-3800,-3800,-11,-5,-1,-78,200,3932,9,-6,851,1781,1884,2079,2246,2035,1796,1870,1998
172385,17916,-15636,17526,-15242,-3800,-3800,-9,-3,0,-83,225,3923,7,-2,851,1781,1884,2079,2246,2035,1796,1870,1998
173386,17908,-15624,17526,-15242,-3800,-3800,-10,-3,-1,-66,228,3908,-7,4,852,1781,1884,2079,2246,2035,1796,1870,1998
174387,17900,-15628,17526,-15242,-3800,-3800,-9,-4,2,-56,230,3964,-2,-3,851,1781,1884,2079,2246,2035,1796,1870,1998
175388,17912,-15640,17526,-15242,-3800,-3800,-8,-4,1,-90,236,3924,9,-6,851,1781,1884,2079,2246,2035,1796,1870,1998
176389,17904,-15632,17526,-15242,-3800,-3800,-8,-5,-3,-113,223,3947,-10,-8,852,1781,1884,2079,2246,2035,1796,1870,1998
177390,17912,-15628,17526,-15242,-3800,-3800,-6,-5,-2,-75,227,3912,-2,-7,852,1781,1884,2079,2246,2035,1796,1870,1998
178391,17912,-15628,17526,-15242,-3800,-3800,-5,-1,0,-87,227,3890,8,-6,852,1781,1884,2079,2246,2035,1796,1870,1998
179392,17912,-15640,17526,-15242,-3800,-3800,-6,-4,1,-73,224,3896,-4,-8,851,1781,1884,2079,2246,2035,1796,1870,1998
180393,17904,-15628,17526,-15242,-3800,-3800,-5,-4,3,-73,228,3901,-9,-4,851,1781,1884,2079,2246,2035,1796,1870,1998
181394,17908,-15636,17526,-15242,-3800,-3800,-3,-4,1,-68,210,3903,-6,-4,851,1781,1884,2079,2246,2035,1796,1870,1998
182395,17908,-15640,17526,-15242,-3800,-3800,-3,-5,-3,-56,201,3880,8,-2,851,1781,1884,2079,2246,2035,1796,1870,1998
183396,17904,-15632,17526,-15242,-3800,-3800,-6,-5,0,-82,203,3885,8,5,851,1781,1884,2079,2246,2035,1796,1870,1998
184397,17908,-15632,17526,-15242,-3800,-3800,-8,-6,0,-66,207,3952,-5,5,851,1781,1884,2079,2246,2035,1796,1870,1998
185398,17916,-15632,17526,-15242,-3800,-3800,-7,-5,2,-86,210,3956,-8,6,852,1781,1884,2079,2246,2035,1796,1870,1998
186399,17904,-15636,17526,-15242,-3800,-3800,-6,-5,2,-84,244,3965,-2,0,851,1781,1884,2079,2246,2035,1796,1870,1998
187400,17916,-15620,17526,-15242,-3800,-3800,-6,-4,4,-84,237,3947,2,3,852,1781,1884,2079,2246,2035,1796,1870,1998
188401,17912,-15616,17526,-15242,-3800,-3800,-6,-6,0,-101,224,3890,7,6,851,1781,1884,2079,2246,2035,1796,1870,1998
189402,17908,-15612,17526,-15242,-3800,-3800,-6,-6,-1,-92,202,3917,0,5,850,1781,1884,2079,2246,2035,1796,1870,1998
190403,17916,-15632,17526,-15242,-3800,-3800,-2,-3,1,-71,216,3943,-6,5,851,1781,1884,2079,2246,2035,1796,1870,1998
191404,17920,-15632,17526,-15242,-3800,-3800,-5,-2,2,-59,211,3949,-6,1,851,1781,1884,2079,2246,2035,1796,1870,1998
192405,17916,-15628,17526,-15242,-3800,-3800,-8,-3,2,-76,220,3946,-7,4,851,1781,1884,2079,2246,2035,1796,1870,1998
193406,17920,-15616,17526,-15242,-3800,-3800,-8,-2,1,-78,206,3904,2,3,851,1781,1884,2079,2246,2035,1796,1870,1998
194407,17904,-15628,17526,-15242,-3800,-3800,-5,-1,2,-68,225,3929,8,1,851,1781,1884,2079,2246,2035,1796,1870,1998
195408,17916,-15636,17526,-15242,-3800,-3800,-3,-2,2,-75,218,3904,-2,4,851,1781,1884,2079,2246,2035,1796,1870,1998
196409,17896,-15628,17526,-15242,-3800,-3800,-3,-4,2,-84,199,3921,-10,0,851,1781,1884,2079,2246,2035,1796,1870,1998
197410,17900,-15620,17526,-15242,-3800,-3800,-4,-7,0,-96,208,3940,5,1,851,1781,1884,2079,2246,2035,1796,1870,1998
198411,17920,-15628,17526,-15242,-3800,-3800,-6,-6,1,-89,223,3921,8,5,851,1781,1884,2079,2246,2035,1796,1870,1998
199412,17916,-15632,17526,-15242,-3800,-3800,-9,-3,2,-85,191,3969,-5,5,851,1781,1884,2079,2246,2035,1796,1870,1998
200413,17912,-15636,17591,-15177,83,1035,-10,-3,1,-103,192,3922,-5,5,851,1781,1884,2079,2246,2035,1796,1870,1998
201414,17908,-15632,17656,-15112,166,1009,-8,-5,1,-84,188,3922,1,-8,846,1781,1884,2079,2246,2035,1796,1870,1998
202415,17916,-15628,17721,-15047,85,1084,-8,-6,1,-83,198,3933,10,7,846,1781,1884,2079,2246,2035,1796,1870,1998
203416,17916,-15604,17786,-14982,265,884,-9,-6,0,-115,219,3948,1,13,845,1781,1884,2079,2246,2035,1796,1870,1998
204417,17912,-15560,17851,-14917,399,659,-10,-12,-1,-137,241,3941,9,23,846,1781,1884,2079,2246,2035,1796,1870,1998
205418,17912,-15532,17916,-14852,428,906,-10,-22,2,-154,226,3933,11,16,847,1781,1884,2079,2246,2035,1796,1870,1998
206419,17908,-15496,17981,-14787,563,841,-8,-34,2,-141,202,3949,11,19,845,1781,1884,2079,2246,2035,1796,1870,1998
207420,17916,-15452,18046,-14722,482,767,-6,-38,-4,-101,218,3999,0,33,845,1781,1884,2079,2246,2035,1796,1870,1998
208421,17912,-15396,18111,-14657,716,628,-7,-44,-5,-112,190,4014,0,24,846,1781,1884,2079,2246,2035,1796,1870,1998
209422,17940,-15348,18176,-14592,362,749,-6,-42,-11,-133,191,4033,11,23,845,1781,1884,2079,2246,2035,1796,1870,1998
210423,17932,-15292,18241,-14527,901,660,-10,-49,-16,-128,199,3954,8,27,847,1781,1884,2079,2246,2035,1796,1870,1998
211424,17944,-15240,18306,-14462,715,726,-12,-54,-19,-127,150,3948,10,41,843,1781,1884,2079,2246,2035,1796,1870,1998
212425,17972,-15172,18371,-14397,562,524,-21,-54,-22,-131,139,3945,27,31,845,1781,1884,2079,2246,2035,1796,1870,1998
213426,17980,-15096,18436,-14332,881,410,-25,-65,-20,-163,110,3929,17,32,847,1781,1884,2079,2246,2035,1796,1870,1998
214427,18008,-15028,18501,-14267,676,506,-34,-92,-28,-266,80,3909,13,34,845,1781,1884,2079,2246,2035,1796,1870,1998
215428,18044,-14972,18566,-14202,612,667,-36,-109,-35,-296,119,4035,20,37,846,1781,1884,2079,2246,2035,1796,1870,1998
216429,18076,-14904,18631,-14137,702,515,-43,-140,-38,-230,220,3919,32,47,846,1781,1884,2079,2246,2035,1796,1870,1998
217430,18112,-14836,18696,-14072,688,511,-52,-156,-48,-250,134,4101,30,42,846,1781,1884,2079,2246,2035,1796,1870,1998
218431,18160,-14760,18761,-14007,559,398,-57,-139,-50,-170,52,4099,27,39,846,1781,1884,2079,2246,2035,1796,1870,1998
219432,18184,-14676,18826,-13942,909,275,-54,-124,-54,-44,31,4012,27,46,848,1781,1884,2079,2246,2035,1796,1870,1998
220433,18240,-14620,18891,-13877,520,636,-39,-108,-65,-130,101,4042,36,47,846,1781,1884,2079,2246,2035,1796,1870,1998
221434,18284,-14556,18956,-13812,696,538,-30,-111,-71,-242,35,4068,37,48,847,1781,1884,2079,2246,2035,1796,1870,1998
222435,18324,-14492,19021,-13747,777,539,-19,-129,-68,-376,148,4114,26,37,846,1781,1884,2079,2246,2035,1796,1870,1998
223436,18364,-14428,19086,-13682,808,541,-11,-165,-64,-371,238,4152,41,49,845,1781,1884,2079,2246,2035,1796,1870,1998
224437,18420,-14364,19151,-13617,619,542,-4,-207,-61,-448,131,4014,27,50,845,1781,1884,2079,2246,2035,1796,1870,1998
225438,18476,-14292,19216,-13552,631,434,-3,-247,-58,-427,256,4256,34,42,847,1781,1884,2079,2246,2035,1796,1870,1998
226439,18520,-14224,19281,-13487,806,480,2,-256,-54,-436,182,4068,29,41,847,1781,1884,2079,2246,2035,1796,1870,1998
227440,18588,-14152,19346,-13422,503,423,-4,-272,-50,-278,160,4035,36,37,846,1781,1884,2079,2246,2035,1796,1870,1998
228441,18628,-14088,19411,-13357,883,524,-6,-254,-57,-197,175,4143,29,38,848,1781,1884,2079,2246,2035,1796,1870,1998
229442,18692,-14032,19476,-13292,586,635,-12,-235,-53,-84,80,4022,31,31,845,1781,1884,2079,2246,2035,1796,1870,1998
230443,18744,-13956,19541,-13227,751,372,-16,-194,-59,-105,172,4095,32,39,846,1781,1884,2079,2246,2035,1796,1870,1998
231444,18792,-13888,19606,-13162,822,469,-18,-192,-68,-114,158,3784,30,34,847,1781,1884,2079,2246,2035,1796,1870,1998
232445,18852,-13832,19671,-13097,679,630,-21,-194,-76,-314,62,4047,35,47,846,1781,1884,2079,2246,2035,1796,1870,1998
233446,18908,-13772,19736,-13032,740,586,-29,-206,-80,-248,91,4000,30,40,846,1781,1884,2079,2246,2035,1796,1870,1998
234447,18960,-13700,19801,-12967,806,428,-19,-217,-80,-318,78,3973,46,39,846,1781,1884,2079,2246,2035,1796,1870,1998
235448,19012,-13636,19866,-12902,822,529,-18,-233,-83,-313,56,4040,36,43,846,1781,1884,2079,2246,2035,1796,1870,1998
236449,19080,-13572,19931,-12837,619,531,-4,-244,-86,-385,48,3998,36,35,846,1781,1884,2079,2246,2035,1796,1870,1998
237450,19160,-13516,19996,-12772,451,643,2,-265,-95,-308,146,3848,51,40,847,1781,1884,2079,2246,2035,1796,1870,1998
238451,19228,-13444,20061,-12707,597,434,11,-277,-87,-427,13,3965,42,44,847,1781,1884,2079,2246,2035,1796,1870,1998
239452,19288,-13376,20126,-12642,704,480,16,-248,-91,-233,53,4005,39,37,847,1781,1884,2079,2246,2035,1796,1870,1998
240453,19344,-13316,20191,-12577,765,587,23,-224,-89,-51,33,3828,30,32,846,1781,1884,2079,2246,2035,1796,1870,1998
241454,19408,-13272,20256,-12512,667,813,28,-208,-79,-255,2,4047,43,45,846,1781,1884,2079,2246,2035,1796,1870,1998
242455,19472,-13192,20321,-12447,669,345,35,-196,-67,-290,142,3995,45,41,845,1781,1884,2079,2246,2035,1796,1870,1998
243456,19540,-13124,20386,-12382,615,491,31,-191,-57,-317,179,3960,47,36,847,1781,1884,2079,2246,2035,1796,1870,1998
244457,19592,-13060,20451,-12317,831,542,39,-183,-46,-150,64,3881,46,32,847,1781,1884,2079,2246,2035,1796,1870,1998
245458,19644,-12996,20516,-12252,848,545,35,-180,-29,-273,140,3950,47,40,845,1781,1884,2079,2246,2035,1796,1870,1998
246459,19700,-12944,20581,-12187,809,711,43,-152,-23,-146,199,3921,48,39,845,1781,1884,2079,2246,2035,1796,1870,1998
247460,19768,-12880,20646,-12122,655,562,35,-148,-13,-190,160,3830,32,45,845,1781,1884,2079,2246,2035,1796,1870,1998
248461,19820,-12800,20711,-12057,872,344,50,-142,-19,-133,272,3961,47,49,846,1781,1884,2079,2246,2035,1796,1870,1998
249462,19876,-12740,20776,-11992,833,601,50,-141,-8,-267,103,3786,30,35,846,1781,1884,2079,2246,2035,1796,1870,1998
250463,19944,-12696,20841,-11927,679,826,67,-143,-11,-103,213,3995,38,45,845,1781,1884,2079,2246,2035,1796,1870,1998
251464,19996,-12620,20906,-11862,896,413,87,-133,-19,-89,209,3899,35,32,845,1781,1884,2079,2246,2035,1796,1870,1998
252465,20056,-12556,20971,-11797,802,565,100,-134,-20,-101,171,3907,30,47,846,1781,1884,2079,2246,2035,1796,1870,1998
253466,20100,-12500,21036,-11732,1028,676,117,-124,-26,-58,228,3992,48,34,845,1781,1884,2079,2246,2035,1796,1870,1998
254467,20152,-12444,21101,-11667,945,687,129,-142,-31,-189,201,3758,46,34,844,1781,1884,2079,2246,2035,1796,1870,1998
255468,20216,-12364,21166,-11602,796,370,142,-126,-36,-147,145,4104,51,40,844,1781,1884,2079,2246,2035,1796,1870,1998
256469,20272,-12304,21231,-11537,907,626,153,-123,-37,-20,223,3792,34,40,847,1781,1884,2079,2246,2035,1796,1870,1998
257470,20356,-12248,21296,-11472,535,687,160,-122,-35,-203,108,3950,32,41,845,1781,1884,2079,2246,2035,1796,1870,1998
258471,20416,-12172,21361,-11407,841,424,154,-116,-25,-201,158,3901,32,33,847,1781,1884,2079,2246,2035,1796,1870,1998
259472,20476,-12112,21426,-11342,848,630,148,-107,-13,-83,216,3857,43,35,845,1781,1884,2079,2246,2035,1796,1870,1998
260473,20524,-12044,21491,-11277,1019,527,137,-104,0,34,136,3796,29,33,845,1781,1884,2079,2246,2035,1796,1870,1998
261474,20596,-12000,21556,-11212,710,852,137,-124,10,-158,62,3816,36,37,844,1781,1884,2079,2246,2035,1796,1870,1998
262475,20640,-11928,21621,-11147,1087,495,141,-123,1,-329,89,3797,48,40,845,1781,1884,2079,2246,2035,1796,1870,1998
263476,20696,-11864,21686,-11082,948,596,144,-120,2,-214,124,3824,45,33,844,1781,1884,2079,2246,2035,1796,1870,1998
264477,20772,-11804,21751,-11017,685,652,134,-124,6,-86,191,3879,36,50,844,1781,1884,2079,2246,2035,1796,1870,1998
265478,20820,-11736,21816,-10952,1056,550,130,-125,7,-84,215,3859,44,34,846,1781,1884,2079,2246,2035,1796,1870,1998
266479,20876,-11676,21881,-10887,967,656,127,-137,1,-170,247,3999,30,32,844,1781,1884,2079,2246,2035,1796,1870,1998
267480,20920,-11616,21946,-10822,1144,662,145,-146,-13,-189,269,3989,41,39,844,1781,1884,2079,2246,2035,1796,1870,1998
268481,20972,-11544,22011,-10757,1060,503,156,-146,-29,-20,296,4020,46,47,843,1781,1884,2079,2246,2035,1796,1870,1998
269482,21044,-11488,22076,-10692,801,715,174,-143,-30,43,186,4094,36,48,844,1781,1884,2079,2246,2035,1796,1870,1998
270483,21088,-11416,22141,-10627,1178,507,191,-158,-25,-200,203,4067,34,48,845,1781,1884,2079,2246,2035,1796,1870,1998
271484,21168,-11352,22206,-10562,710,608,205,-177,-34,-343,272,4077,49,41,843,1781,1884,2079,2246,2035,1796,1870,1998
272485,21228,-11292,22271,-10497,966,665,208,-176,-40,-296,224,4057,52,38,846,1781,1884,2079,2246,2035,1796,1870,1998
273486,21284,-11228,22336,-10432,1028,616,220,-187,-30,18,219,4011,40,29,844,1781,1884,2079,2246,2035,1796,1870,1998
274487,21340,-11168,22401,-10367,1039,672,231,-200,-25,-24,276,4032,31,37,842,1781,1884,2079,2246,2035,1796,1870,1998
275488,21388,-11108,22466,-10302,1160,679,237,-210,-23,-198,238,4001,40,46,843,1781,1884,2079,2246,2035,1796,1870,1998
276489,21440,-11036,22531,-10237,1126,521,242,-217,-19,-102,306,3942,50,38,843,1781,1884,2079,2246,2035,1796,1870,1998
277490,21504,-10988,22596,-10172,978,842,242,-235,-19,-56,233,3869,34,47,843,1781,1884,2079,2246,2035,1796,1870,1998
278491,21564,-10928,22661,-10107,1035,698,245,-241,-11,-138,96,3892,36,46,843,1781,1884,2079,2246,2035,1796,1870,1998
279492,21620,-10860,22726,-10042,1096,595,245,-240,-3,-195,90,4066,37,33,844,1781,1884,2079,2246,2035,1796,1870,1998
280493,21668,-10804,22791,-9977,1217,756,234,-230,-3,-114,164,3993,50,46,844,1781,1884,2079,2246,2035,1796,1870,1998
281494,21740,-10740,22856,-9912,909,657,223,-220,1,61,166,3888,38,33,842,1781,1884,2079,2246,2035,1796,1870,1998
282495,21836,-10652,22921,-9847,572,330,222,-223,11,-7,174,3893,55,40,844,1781,1884,2079,2246,2035,1796,1870,1998
283496,21892,-10612,22986,-9782,1083,961,217,-232,8,-161,158,3840,37,39,848,1781,1884,2079,2246,2035,1796,1870,1998
284497,21944,-10564,23051,-9717,1149,881,215,-235,8,-128,42,3881,33,32,841,1781,1884,2079,2246,2035,1796,1870,1998
285498,22012,-10504,23116,-9652,946,739,211,-222,-3,4,81,4089,50,43,841,1781,1884,2079,2246,2035,1796,1870,1998
286499,22072,-10448,23181,-9587,1052,800,207,-221,-3,0,70,3898,36,40,844,1781,1884,2079,2246,2035,1796,1870,1998
287500,22140,-10384,23246,-9522,950,701,214,-215,0,-163,60,4093,50,42,843,1781,1884,2079,2246,2035,1796,1870,1998
288501,22196,-10332,23311,-9457,1111,868,217,-215,3,-182,63,4147,45,32,844,1781,1884,2079,2246,2035,1796,1870,1998
289502,22260,-10256,23376,-9392,1013,554,223,-226,8,-179,171,4180,31,43,842,1781,1884,2079,2246,2035,1796,1870,1998
290503,22320,-10212,23441,-9327,1069,980,227,-219,21,53,186,4238,47,33,844,1781,1884,2079,2246,2035,1796,1870,1998
291504,22368,-10164,23506,-9262,1240,952,235,-201,32,48,226,4253,36,42,840,1781,1884,2079,2246,2035,1796,1870,1998
292505,22432,-10092,23571,-9197,1042,643,242,-183,29,74,320,4184,31,35,840,1781,1884,2079,2246,2035,1796,1870,1998
293506,22484,-10020,23636,-9132,1208,634,254,-172,36,-109,114,4115,40,44,843,1781,1884,2079,2246,2035,1796,1870,1998
294507,22540,-9960,23701,-9067,1170,792,254,-180,36,-42,420,4036,47,31,843,1781,1884,2079,2246,2035,1796,1870,1998
295508,22588,-9908,23766,-9002,1290,907,257,-148,29,23,422,4102,45,32,842,1781,1884,2079,2246,2035,1796,1870,1998
296509,22640,-9852,23831,-8937,1257,868,246,-105,33,149,422,4085,45,43,840,1781,1884,2079,2246,2035,1796,1870,1998
297510,22708,-9816,23896,-8872,1054,1155,236,-84,55,0,356,3918,49,40,841,1781,1884,2079,2246,2035,1796,1870,1998
298511,22776,-9748,23961,-8807,1050,751,248,-78,71,-292,276,4098,45,41,840,1781,1884,2079,2246,2035,1796,1870,1998
299512,22824,-9700,24026,-8742,1322,1022,248,-50,99,-482,121,4076,46,45,843,1781,1884,2079,2246,2035,1796,1870,1998
300513,22888,-9636,24091,-8677,1123,824,241,-49,129,-228,411,3743,54,45,839,1781,1884,2079,2246,2035,1796,1870,1998
301514,22960,-9576,24156,-8612,1015,880,207,-66,169,-447,342,3399,41,46,842,1781,1884,2079,2246,2035,1796,1870,1998
302515,23044,-9508,24221,-8547,842,777,189,-80,197,-913,457,3705,54,30,842,1781,1884,2079,2246,2035,1796,1870,1998
303516,23100,-9476,24286,-8482,1204,1268,214,-67,184,-379,324,4107,44,33,844,1781,1884,2079,2246,2035,1796,1870,1998
304517,23172,-9400,24351,-8417,996,704,241,-35,186,290,-75,4061,43,42,838,1781,1884,2079,2246,2035,1796,1870,1998
305518,23236,-9340,24416,-8352,1098,912,264,-9,196,250,275,3903,53,48,843,1781,1884,2079,2246,2035,1796,1870,1998
306519,23304,-9280,24481,-8287,1044,918,258,-10,183,-405,408,3732,44,44,842,1781,1884,2079,2246,2035,1796,1870,1998
307520,23380,-9220,24546,-8222,932,924,249,-23,169,-208,149,3951,36,46,842,1781,1884,2079,2246,2035,1796,1870,1998
308521,23440,-9176,24611,-8157,1138,1150,240,-50,172,16,161,3883,34,31,842,1781,1884,2079,2246,2035,1796,1870,1998
309522,23500,-9108,24676,-8092,1144,847,225,-61,173,99,363,3825,31,29,839,1781,1884,2079,2246,2035,1796,1870,1998
310523,23556,-9052,24741,-8027,1206,1008,213,-27,160,282,276,4113,51,35,841,1781,1884,2079,2246,2035,1796,1870,1998
311524,23600,-8984,24806,-7962,1382,855,221,-8,126,0,325,3942,44,30,840,1781,1884,2079,2246,2035,1796,1870,1998
312525,23672,-8944,24871,-7897,1024,1236,229,8,115,-434,404,4105,36,46,839,1781,1884,2079,2246,2035,1796,1870,1998
313526,23752,-8880,24936,-7832,906,938,237,-19,95,25,677,3775,38,35,839,1781,1884,2079,2246,2035,1796,1870,1998
314527,23796,-8816,25001,-7767,1382,939,227,-40,90,154,561,3829,36,32,842,1781,1884,2079,2246,2035,1796,1870,1998
315528,23848,-8768,25066,-7702,1298,1160,228,-57,99,312,601,4022,51,37,839,1781,1884,2079,2246,2035,1796,1870,1998
316529,23892,-8712,25131,-7637,1425,1072,220,-45,112,-134,498,4051,44,47,838,1781,1884,2079,2246,2035,1796,1870,1998
317530,23984,-8652,25196,-7572,792,1028,229,-51,130,-691,430,4037,54,33,838,1781,1884,2079,2246,2035,1796,1870,1998
318531,24040,-8608,25261,-7507,1254,1254,237,-39,142,-424,519,4003,49,47,843,1781,1884,2079,2246,2035,1796,1870,1998
319532,24092,-8528,25326,-7442,1320,786,238,-59,181,-116,211,3832,42,42,838,1781,1884,2079,2246,2035,1796,1870,1998
320533,24160,-8476,25391,-7377,1116,1152,270,-84,191,-198,439,3861,55,34,840,1781,1884,2079,2246,2035,1796,1870,1998
321534,24228,-8428,25456,-7312,1114,1224,278,-127,199,-450,508,3948,56,43,839,1781,1884,2079,2246,2035,1796,1870,1998
322535,24308,-8376,25521,-7247,945,1190,288,-152,212,177,333,3677,57,42,839,1781,1884,2079,2246,2035,1796,1870,1998
323536,24392,-8324,25586,-7182,873,1207,302,-206,201,342,517,3503,53,40,840,1781,1884,2079,2246,2035,1796,1870,1998
324537,24472,-8272,25651,-7117,905,1222,318,-243,204,-467,18,3754,45,42,841,1781,1884,2079,2246,2035,1796,1870,1998
325538,24536,-8204,25716,-7052,1107,1020,341,-196,191,-556,274,4344,36,32,839,1781,1884,2079,2246,2035,1796,1870,1998
326539,24564,-8144,25781,-6987,1602,1126,333,-143,160,46,447,3639,38,38,840,1781,1884,2079,2246,2035,1796,1870,1998
327540,24628,-8076,25846,-6922,1154,1022,335,-103,149,373,254,4189,36,32,836,1781,1884,2079,2246,2035,1796,1870,1998
328541,24696,-8020,25911,-6857,1101,1184,339,-151,118,296,463,3853,37,47,840,1781,1884,2079,2246,2035,1796,1870,1998
329542,24752,-7984,25976,-6792,1263,1470,345,-195,85,122,297,3962,36,45,839,1781,1884,2079,2246,2035,1796,1870,1998
330543,24808,-7924,26041,-6727,1274,1177,339,-203,49,431,421,4075,40,30,836,1781,1884,2079,2246,2035,1796,1870,1998
331544,24864,-7856,26106,-6662,1285,1073,339,-225,14,292,619,3637,34,41,838,1781,1884,2079,2246,2035,1796,1870,1998
332545,24924,-7796,26171,-6597,1242,1180,337,-243,-5,9,394,4134,36,33,839,1781,1884,2079,2246,2035,1796,1870,1998
333546,24988,-7740,26236,-6532,1193,1241,336,-243,-25,222,404,4180,54,42,838,1781,1884,2079,2246,2035,1796,1870,1998
334547,25056,-7692,26301,-6467,1140,1363,358,-248,-40,212,512,4097,46,30,838,1781,1884,2079,2246,2035,1796,1870,1998
335548,25120,-7644,26366,-6402,1191,1384,359,-243,-32,32,374,3985,55,40,838,1781,1884,2079,2246,2035,1796,1870,1998
336549,25176,-7576,26431,-6337,1303,1131,364,-236,-13,243,379,4056,45,34,837,1781,1884,2079,2246,2035,1796,1870,1998
337550,25236,-7516,26496,-6272,1260,1237,380,-246,4,82,515,3969,43,41,838,1781,1884,2079,2246,2035,1796,1870,1998
338551,25292,-7472,26561,-6207,1322,1464,388,-227,15,47,375,4269,40,32,837,1781,1884,2079,2246,2035,1796,1870,1998
339552,25336,-7400,26626,-6142,1497,1105,411,-194,16,243,411,4166,57,37,835,1781,1884,2079,2246,2035,1796,1870,1998
340553,25392,-7340,26691,-6077,1359,1261,438,-191,39,166,260,3963,43,40,837,1781,1884,2079,2246,2035,1796,1870,1998
341554,25440,-7296,26756,-6012,1480,1488,453,-173,27,527,714,4375,42,44,837,1781,1884,2079,2246,2035,1796,1870,1998
342555,25504,-7228,26821,-5947,1282,1184,469,-159,15,203,693,3901,46,49,833,1781,1884,2079,2246,2035,1796,1870,1998
343556,25580,-7176,26886,-5882,1119,1401,471,-166,9,75,527,4140,48,37,838,1781,1884,2079,2246,2035,1796,1870,1998
344557,25668,-7096,26951,-5817,942,1033,498,-164,-7,104,466,4110,52,52,837,1781,1884,2079,2246,2035,1796,1870,1998
345558,25740,-7020,27016,-5752,1133,1070,535,-200,-11,-28,445,4169,48,47,841,1781,1884,2079,2246,2035,1796,1870,1998
346559,25796,-6964,27081,-5687,1345,1331,561,-165,-43,-25,461,4445,27,47,839,1781,1884,2079,2246,2035,1796,1870,1998
347560,25864,-6896,27146,-5622,1191,1179,577,-102,-44,-223,306,4306,33,47,836,1781,1884,2079,2246,2035,1796,1870,1998
348561,25908,-6836,27211,-5557,1518,1285,600,-76,-57,40,493,4157,30,37,838,1781,1884,2079,2246,2035,1796,1870,1998
349562,25960,-6780,27276,-5492,1434,1347,608,-67,-68,-68,320,4458,36,38,835,1781,1884,2079,2246,2035,1796,1870,1998
350563,26028,-6700,27341,-5427,1231,1028,619,-26,-82,196,374,4337,52,38,835,1781,1884,2079,2246,2035,1796,1870,1998
351564,26096,-6648,27406,-5362,1228,1395,612,-35,-92,-102,482,4228,57,37,839,1781,1884,2079,2246,2035,1796,1870,1998
352565,26156,-6568,27471,-5297,1335,1027,591,-28,-110,41,558,4001,41,42,837,1781,1884,2079,2246,2035,1796,1870,1998
353566,26228,-6516,27536,-5232,1176,1394,573,-61,-128,517,701,3937,55,49,838,1781,1884,2079,2246,2035,1796,1870,1998
354567,26292,-6464,27601,-5167,1278,1410,558,-92,-143,705,706,3955,40,47,837,1781,1884,2079,2246,2035,1796,1870,1998
355568,26360,-6400,27666,-5102,1225,1262,548,-97,-161,578,639,3897,47,37,836,1781,1884,2079,2246,2035,1796,1870,1998
356569,26436,-6344,27731,-5037,1112,1373,545,-96,-174,313,595,3796,44,33,838,1781,1884,2079,2246,2035,1796,1870,1998
357570,26496,-6284,27796,-4972,1318,1330,554,-98,-186,469,584,4048,47,45,837,1781,1884,2079,2246,2035,1796,1870,1998
358571,26568,-6228,27861,-4907,1161,1391,572,-60,-184,682,130,4104,48,40,836,1781,1884,2079,2246,2035,1796,1870,1998
359572,26620,-6188,27926,-4842,1427,1623,606,-88,-170,122,146,4121,44,32,836,1781,1884,2079,2246,2035,1796,1870,1998
360573,26684,-6128,27991,-4777,1279,1379,622,-64,-157,-265,165,4581,43,42,833,1781,1884,2079,2246,2035,1796,1870,1998
361574,26736,-6088,28056,-4712,1445,1660,636,-17,-144,977,331,4294,57,39,836,1781,1884,2079,2246,2035,1796,1870,1998
362575,26788,-6036,28121,-4647,1462,1526,665,9,-152,911,508,4389,47,29,833,1781,1884,2079,2246,2035,1796,1870,1998
363576,26868,-5988,28186,-4582,1093,1598,674,39,-155,111,656,4229,50,31,834,1781,1884,2079,2246,2035,1796,1870,1998
364577,26944,-5948,28251,-4517,1131,1728,692,66,-174,269,788,4456,55,40,836,1781,1884,2079,2246,2035,1796,1870,1998
365578,27024,-5920,28316,-4452,1063,1924,685,48,-192,389,759,3889,40,33,834,1781,1884,2079,2246,2035,1796,1870,1998
366579,27108,-5860,28381,-4387,990,1531,681,79,-218,319,854,4319,46,37,833,1781,1884,2079,2246,2035,1796,1870,1998
367580,27176,-5808,28446,-4322,1187,1647,672,136,-226,-57,787,4259,42,37,837,1781,1884,2079,2246,2035,1796,1870,1998
368581,27252,-5744,28511,-4257,1074,1500,692,133,-226,-520,275,4145,33,38,834,1781,1884,2079,2246,2035,1796,1870,1998
369582,27312,-5700,28576,-4192,1280,1775,720,89,-209,-1401,96,4815,35,24,836,1781,1884,2079,2246,2035,1796,1870,1998
370583,27368,-5672,28641,-4127,1342,2021,728,66,-214,-986,371,4363,33,34,833,1781,1884,2079,2246,2035,1796,1870,1998
371584,27420,-5624,28706,-4062,1408,1792,732,73,-202,56,401,4181,37,26,830,1781,1884,2079,2246,2035,1796,1870,1998
372585,27488,-5556,28771,-3997,1206,1540,716,4,-207,246,691,3847,45,39,832,1781,1884,2079,2246,2035,1796,1870,1998
373586,27560,-5496,28836,-3932,1147,1646,684,-57,-217,150,811,3754,54,33,835,1781,1884,2079,2246,2035,1796,1870,1998
374587,27624,-5444,28901,-3867,1248,1763,662,-84,-226,336,556,3631,56,40,835,1781,1884,2079,2246,2035,1796,1870,1998
375588,27684,-5388,28966,-3802,1305,1725,657,-99,-252,-3,590,3738,54,33,833,1781,1884,2079,2246,2035,1796,1870,1998
376589,27756,-5300,29031,-3737,1147,1296,651,-60,-280,481,709,3903,45,44,832,1781,1884,2079,2246,2035,1796,1870,1998
377590,27816,-5244,29096,-3672,1304,1708,652,-6,-293,1048,440,3832,57,47,838,1781,1884,2079,2246,2035,1796,1870,1998
378591,27872,-5208,29161,-3607,1365,1994,643,6,-297,792,462,3682,55,37,834,1781,1884,2079,2246,2035,1796,1870,1998
379592,27948,-5128,29226,-3542,1103,1427,656,42,-292,327,334,3981,62,37,831,1781,1884,2079,2246,2035,1796,1870,1998
380593,28008,-5052,29291,-3477,1309,1464,641,8,-286,786,389,3706,63,40,837,1781,1884,2079,2246,2035,1796,1870,1998
381594,28060,-4980,29356,-3412,1426,1506,653,0,-284,689,487,4055,55,42,835,1781,1884,2079,2246,2035,1796,1870,1998
382595,28168,-4904,29421,-3347,673,1443,664,2,-293,241,689,4105,46,56,834,1781,1884,2079,2246,2035,1796,1870,1998
383596,28248,-4844,29486,-3282,1006,1649,686,-2,-305,-49,684,4135,54,52,839,1781,1884,2079,2246,2035,1796,1870,1998
384597,28332,-4764,29551,-3217,933,1382,685,-3,-295,-36,499,4096,44,36,836,1781,1884,2079,2246,2035,1796,1870,1998
385598,28424,-4688,29616,-3152,801,1420,690,-30,-309,-43,867,4383,46,51,839,1781,1884,2079,2246,2035,1796,1870,1998
386599,28480,-4620,29681,-3087,1262,1516,672,-38,-327,-359,887,4269,36,42,839,1781,1884,2079,2246,2035,1796,1870,1998
387600,28540,-4564,29746,-3022,1219,1678,658,-13,-317,-928,310,4463,48,33,835,1781,1884,2079,2246,2035,1796,1870,1998
388601,28604,-4492,29811,-2957,1170,1469,651,4,-295,-869,666,4344,37,42,834,1781,1884,2079,2246,2035,1796,1870,1998
389602,28672,-4424,29876,-2892,1117,1517,634,-26,-297,-447,810,4039,41,41,836,1781,1884,2079,2246,2035,1796,1870,1998
390603,28748,-4368,29941,-2827,1004,1679,611,-103,-307,-97,729,4036,50,48,836,1781,1884,2079,2246,2035,1796,1870,1998
391604,28816,-4296,30006,-2762,1101,1470,580,-213,-303,-15,948,3726,37,41,835,1781,1884,2079,2246,2035,1796,1870,1998
392605,28880,-4228,30071,-2697,1152,1517,565,-292,-309,-685,976,3524,38,34,837,1781,1884,2079,2246,2035,1796,1870,1998
393606,28944,-4172,30136,-2632,1154,1678,552,-349,-314,-926,765,3863,45,40,835,1781,1884,2079,2246,2035,1796,1870,1998
394607,29024,-4092,30201,-2567,936,1361,578,-353,-314,1,800,3904,55,37,834,1781,1884,2079,2246,2035,1796,1870,1998
395608,29072,-4048,30266,-2502,1357,1837,589,-329,-315,555,602,3541,53,46,839,1781,1884,2079,2246,2035,1796,1870,1998
396609,29136,-3992,30331,-2437,1159,1699,599,-322,-316,144,716,3739,43,35,832,1781,1884,2079,2246,2035,1796,1870,1998
397610,29212,-3920,30396,-2372,996,1491,608,-292,-321,46,790,3776,51,39,835,1781,1884,2079,2246,2035,1796,1870,1998
398611,29252,-3844,30461,-2307,1477,1428,623,-262,-324,501,668,3630,52,46,837,1781,1884,2079,2246,2035,1796,1870,1998
399612,29320,-3796,30526,-2242,1124,1799,632,-241,-336,1069,869,3956,54,34,834,1781,1884,2079,2246,2035,1796,1870,1998
400613,29416,-3740,30591,-2177,737,1710,622,-198,-344,1026,949,3796,48,40,834,1781,1884,2079,2246,2035,1796,1870,1998
401614,29532,-3672,30656,-2112,425,1558,605,-174,-349,483,797,3699,50,45,837,1781,1884,2079,2246,2035,1796,1870,1998
402615,29600,-3620,30721,-2047,1021,1775,569,-180,-334,-145,771,3705,36,42,840,1781,1884,2079,2246,2035,1796,1870,1998
403616,29664,-3532,30786,-1982,1073,1297,553,-183,-340,-338,1037,3931,45,41,834,1781,1884,2079,2246,2035,1796,1870,1998
404617,29732,-3492,30851,-1917,1019,1928,536,-194,-356,-541,978,3871,30,33,838,1781,1884,2079,2246,2035,1796,1870,1998
405618,29792,-3424,30916,-1852,1127,1574,528,-226,-341,-497,968,4139,36,31,833,1781,1884,2079,2246,2035,1796,1870,1998
406619,29840,-3360,30981,-1787,1297,1627,498,-267,-328,-205,1078,3790,37,46,835,1781,1884,2079,2246,2035,1796,1870,1998
407620,29908,-3304,31046,-1722,1045,1739,471,-357,-330,-766,1053,3596,32,44,834,1781,1884,2079,2246,2035,1796,1870,1998
408621,29964,-3236,31111,-1657,1206,1585,450,-490,-327,-1041,1077,3968,36,39,835,1781,1884,2079,2246,2035,1796,1870,1998
409622,30040,-3180,31176,-1592,942,1747,443,-582,-331,-127,986,4055,51,35,835,1781,1884,2079,2246,2035,1796,1870,1998
410623,30108,-3112,31241,-1527,1040,1593,450,-646,-318,-47,811,3718,49,39,835,1781,1884,2079,2246,2035,1796,1870,1998
411624,30180,-3044,31306,-1462,981,1591,460,-662,-284,-475,882,3926,41,33,836,1781,1884,2079,2246,2035,1796,1870,1998
412625,30260,-2992,31371,-1397,864,1808,458,-630,-273,-313,758,3775,50,47,836,1781,1884,2079,2246,2035,1796,1870,1998
413626,30312,-2912,31436,-1332,1230,1439,459,-585,-258,151,845,3664,37,45,836,1781,1884,2079,2246,2035,1796,1870,1998
414627,30380,-2844,31501,-1267,1027,1587,449,-543,-241,486,935,3724,49,38,836,1781,1884,2079,2246,2035,1796,1870,1998
415628,30452,-2760,31566,-1202,968,1363,437,-498,-245,515,1033,3673,52,46,836,1781,1884,2079,2246,2035,1796,1870,1998
416629,30512,-2700,31631,-1137,1124,1670,423,-427,-253,414,1025,3641,43,47,838,1781,1884,2079,2246,2035,1796,1870,1998
417630,30584,-2628,31696,-1072,967,1513,394,-355,-267,541,1036,3536,56,42,835,1781,1884,2079,2246,2035,1796,1870,1998
418631,30628,-2576,31761,-1007,1343,1779,377,-274,-271,561,1034,3604,59,47,837,1781,1884,2079,2246,2035,1796,1870,1998
419632,30692,-2512,31826,-942,1095,1631,352,-271,-272,761,1151,3443,57,37,832,1781,1884,2079,2246,2035,1796,1870,1998
420633,30772,-2440,31891,-877,876,1522,328,-278,-277,248,1140,3524,44,36,835,1781,1884,2079,2246,2035,1796,1870,1998
421634,30828,-2372,31956,-812,1188,1570,313,-278,-297,-504,1227,3523,43,47,837,1781,1884,2079,2246,2035,1796,1870,1998
422635,30896,-2320,32021,-747,1035,1787,304,-254,-306,-312,1156,3766,47,39,835,1781,1884,2079,2246,2035,1796,1870,1998
423636,30984,-2256,32086,-682,757,1638,294,-270,-318,-22,1194,3731,61,40,834,1781,1884,2079,2246,2035,1796,1870,1998
424637,31084,-2200,32151,-617,565,1750,274,-288,-303,-435,986,3893,48,39,837,1781,1884,2079,2246,2035,1796,1870,1998
425638,31156,-2136,32216,-552,906,1651,250,-303,-270,-958,836,3861,57,43,837,1781,1884,2079,2246,2035,1796,1870,1998
426639,31228,-2068,32281,-487,899,1598,241,-278,-258,-1030,942,3934,48,42,836,1781,1884,2079,2246,2035,1796,1870,1998
427640,31308,-2012,32346,-422,781,1760,234,-310,-242,-450,1001,3780,55,35,836,1781,1884,2079,2246,2035,1796,1870,1998
428641,31388,-1960,32411,-357,762,1826,233,-404,-217,376,946,3839,42,31,836,1781,1884,2079,2246,2035,1796,1870,1998
429642,31452,-1896,32476,-292,965,1679,223,-493,-208,32,1032,3691,39,42,836,1781,1884,2079,2246,2035,1796,1870,1998
430643,31516,-1852,32541,-227,966,1954,212,-525,-212,-563,1204,3781,39,37,836,1781,1884,2079,2246,2035,1796,1870,1998
431644,31584,-1780,32606,-162,913,1597,207,-479,-221,93,1227,3925,55,30,833,1781,1884,2079,2246,2035,1796,1870,1998
432645,31656,-1712,32671,-97,855,1644,188,-411,-208,864,1116,3707,55,31,836,1781,1884,2079,2246,2035,1796,1870,1998
433646,31736,-1668,32736,-32,736,1970,177,-353,-182,724,1249,3736,41,34,836,1781,1884,2079,2246,2035,1796,1870,1998
434647,31784,-1620,32801,33,1158,1941,150,-337,-158,215,1134,3653,35,38,834,1781,1884,2079,2246,2035,1796,1870,1998
435648,31844,-1564,32866,98,1014,1852,125,-317,-153,287,1182,3655,40,26,832,1781,1884,2079,2246,2035,1796,1870,1998
436649,31908,-1504,32931,163,966,1809,93,-259,-136,462,1347,3730,54,39,834,1781,1884,2079,2246,2035,1796,1870,1998
437650,31956,-1456,32996,228,1187,1981,73,-197,-103,639,1431,3809,39,41,834,1781,1884,2079,2246,2035,1796,1870,1998
438651,32036,-1380,33061,293,769,1618,61,-140,-99,714,1427,3649,57,38,832,1781,1884,2079,2246,2035,1796,1870,1998
439652,32116,-1328,33126,358,751,1935,49,-135,-101,335,1529,3845,43,32,837,1781,1884,2079,2246,2035,1796,1870,1998
440653,32192,-1268,33191,423,788,1842,37,-135,-108,-75,1486,3852,41,40,835,1781,1884,2079,2246,2035,1796,1870,1998
441654,32256,-1220,33256,488,939,2012,18,-128,-119,-458,1313,3727,38,40,835,1781,1884,2079,2246,2035,1796,1870,1998
442655,32344,-1160,33321,553,612,1870,11,-120,-111,-494,1318,3923,40,32,833,1781,1884,2079,2246,2035,1796,1870,1998
443656,32392,-1092,33386,618,1133,1767,1,-140,-108,-394,1425,3755,46,30,836,1781,1884,2079,2246,2035,1796,1870,1998
444657,32456,-1040,33451,683,935,1983,-18,-181,-107,-767,1104,3869,42,41,833,1781,1884,2079,2246,2035,1796,1870,1998
445658,32528,-972,33516,748,827,1780,-31,-245,-109,-675,1294,3743,43,34,833,1781,1884,2079,2246,2035,1796,1870,1998
446659,32596,-892,33581,813,873,1613,-38,-315,-104,-330,1291,3880,44,33,836,1781,1884,2079,2246,2035,1796,1870,1998
447660,32668,-836,33646,878,815,1924,-39,-368,-106,-8,1285,3753,39,46,836,1781,1884,2079,2246,2035,1796,1870,1998
448661,32724,-776,33711,943,1026,1881,-39,-420,-98,-225,1368,3686,51,41,834,1781,1884,2079,2246,2035,1796,1870,1998
449662,32784,-700,33910,1142,1833,2518,-51,-440,-82,-176,1308,4035,37,48,834,1781,1884,2079,2246,2035,1796,1870,1998
450663,32864,-612,33975,1207,1566,2341,-53,-429,-57,315,1311,3921,41,36,821,1781,1884,2079,2246,2035,1796,1870,1998
451664,32924,-556,34040,1272,1822,2753,-60,-424,-19,407,1360,3957,62,45,825,1781,1884,2079,2246,2035,1796,1870,1998
452665,33020,-464,34105,1337,1335,2271,-65,-396,11,264,1267,3852,52,59,820,1781,1884,2079,2246,2035,1796,1870,1998
453666,33120,-380,34170,1402,1242,2348,-80,-405,48,168,1262,3884,78,50,829,1781,1884,2079,2246,2035,1796,1870,1998
454667,33208,-244,34235,1467,1365,1612,-97,-377,85,474,1431,4081,66,68,829,1781,1884,2079,2246,2035,1796,1870,1998
455668,33312,-140,34300,1532,1118,1966,-108,-358,126,668,1595,4025,81,68,834,1781,1884,2079,2246,2035,1796,1870,1998
456669,33464,-52,34365,1597,411,2137,-88,-364,133,1048,1764,4047,72,66,833,1781,1884,2079,2246,2035,1796,1870,1998
457670,33592,80,34430,1662,635,1507,-104,-425,148,411,1326,3724,65,70,835,1781,1884,2079,2246,2035,1796,1870,1998
458671,33700,160,34495,1727,833,2138,-150,-463,153,-184,1630,4262,63,66,839,1781,1884,2079,2246,2035,1796,1870,1998
459672,33780,260,34560,1792,1165,1847,-169,-424,144,-470,1599,4082,72,54,833,1781,1884,2079,2246,2035,1796,1870,1998
460673,33880,376,34625,1857,873,1585,-176,-447,140,-807,1632,3802,56,60,834,1781,1884,2079,2246,2035,1796,1870,1998
461674,33992,472,34690,1922,666,1798,-192,-544,125,-44,1793,4438,56,73,836,1781,1884,2079,2246,2035,1796,1870,1998
462675,34084,576,34755,1987,883,1651,-200,-648,123,278,1864,4378,72,61,836,1781,1884,2079,2246,2035,1796,1870,1998
463676,34188,668,34820,2052,685,1768,-194,-760,114,-480,1856,3952,66,67,837,1781,1884,2079,2246,2035,1796,1870,1998
464677,34284,768,34885,2117,748,1626,-204,-867,75,-1100,1734,4204,61,51,837,1781,1884,2079,2246,2035,1796,1870,1998
465678,34360,840,34950,2182,985,1968,-208,-924,71,-494,1691,4543,54,64,838,1781,1884,2079,2246,2035,1796,1870,1998
466679,34464,952,35015,2247,587,1411,-209,-913,92,10,1433,4275,54,64,834,1781,1884,2079,2246,2035,1796,1870,1998
467680,34564,1024,35080,2312,594,1903,-223,-891,111,-211,1464,4200,55,59,840,1781,1884,2079,2246,2035,1796,1870,1998
468681,34664,1124,35145,2377,552,1511,-218,-896,148,-313,1414,4327,69,51,836,1781,1884,2079,2246,2035,1796,1870,1998
469682,34748,1192,35210,2442,729,1907,-213,-912,180,79,1621,4010,69,41,840,1781,1884,2079,2246,2035,1796,1870,1998
470683,34832,1272,35275,2507,706,1740,-215,-920,191,359,1572,3882,56,44,835,1781,1884,2079,2246,2035,1796,1870,1998
471684,34932,1388,35340,2572,464,1228,-226,-882,204,292,1711,4075,65,40,837,1781,1884,2079,2246,2035,1796,1870,1998
472685,35016,1436,35405,2637,640,2100,-243,-833,244,-249,1800,4048,47,46,842,1781,1884,2079,2246,2035,1796,1870,1998
473686,35100,1512,35470,2702,617,1736,-279,-799,291,-416,1538,3944,52,47,834,1781,1884,2079,2246,2035,1796,1870,1998
474687,35176,1588,35535,2767,704,1724,-311,-800,304,-12,1652,4002,44,39,837,1781,1884,2079,2246,2035,1796,1870,1998
475688,35264,1660,35600,2832,527,1765,-337,-834,334,226,1773,4047,60,39,837,1781,1884,2079,2246,2035,1796,1870,1998
476689,35332,1744,35665,2897,773,1592,-368,-860,367,28,1759,3693,59,48,838,1781,1884,2079,2246,2035,1796,1870,1998
477690,35408,1828,35730,2962,660,1570,-407,-924,383,-523,1950,3553,42,48,837,1781,1884,2079,2246,2035,1796,1870,1998
478691,35488,1888,35795,3027,591,1876,-444,-995,371,-438,1976,4032,40,44,838,1781,1884,2079,2246,2035,1796,1870,1998
479692,35564,1968,35860,3092,628,1609,-464,-1017,365,-53,1703,3938,52,39,837,1781,1884,2079,2246,2035,1796,1870,1998
480693,35620,2060,35925,3157,889,1426,-489,-1032,363,85,1741,3991,46,36,839,1781,1884,2079,2246,2035,1796,1870,1998
481694,35684,2108,35990,3222,790,1997,-508,-1050,359,-226,1776,4177,50,38,838,1781,1884,2079,2246,2035,1796,1870,1998
482695,35780,2200,36055,3287,352,1414,-516,-1050,367,-329,1510,4033,50,50,834,1781,1884,2079,2246,2035,1796,1870,1998
483696,35864,2264,36120,3352,479,1766,-509,-1045,380,58,1484,3873,42,41,841,1781,1884,2079,2246,2035,1796,1870,1998
484697,35912,2328,36185,3417,951,1768,-513,-1050,401,-80,1483,4017,51,40,838,1781,1884,2079,2246,2035,1796,1870,1998
485698,35984,2424,36250,3482,642,1330,-502,-1038,421,-102,1482,3941,36,52,835,1781,1884,2079,2246,2035,1796,1870,1998
486699,36060,2496,36315,3547,579,1622,-498,-1021,437,-141,1389,3736,41,50,840,1781,1884,2079,2246,2035,1796,1870,1998
487700,36136,2596,36380,3612,565,1230,-496,-967,465,-73,1517,4084,57,50,839,1781,1884,2079,2246,2035,1796,1870,1998
488701,36216,2680,36445,3677,497,1407,-493,-899,516,187,1502,3561,44,41,842,1781,1884,2079,2246,2035,1796,1870,1998
489702,36280,2768,36510,3742,698,1329,-474,-836,572,154,1424,3447,37,42,841,1781,1884,2079,2246,2035,1796,1870,1998
490703,36364,2836,36575,3807,425,1576,-471,-805,613,-107,1375,3249,51,37,840,1781,1884,2079,2246,2035,1796,1870,1998
491704,36424,2916,36640,3872,731,1408,-475,-798,649,-480,1233,3117,39,38,840,1781,1884,2079,2246,2035,1796,1870,1998
492705,36504,2996,36705,3937,463,1390,-522,-768,695,-319,1528,3328,35,34,839,1781,1884,2079,2246,2035,1796,1870,1998
493706,36580,3068,36770,4002,499,1482,-557,-686,753,-185,1715,3273,36,40,841,1781,1884,2079,2246,2035,1796,1870,1998
494707,36640,3148,36835,4067,706,1364,-627,-644,791,-166,1695,2880,35,47,840,1781,1884,2079,2246,2035,1796,1870,1998
495708,36712,3216,36900,4132,547,1511,-687,-610,804,-256,1710,3252,50,44,839,1781,1884,2079,2246,2035,1796,1870,1998
496709,36788,3280,36965,4197,485,1562,-742,-611,822,-433,1690,2954,36,50,839,1781,1884,2079,2246,2035,1796,1870,1998
497710,36840,3360,37030,4262,800,1345,-785,-608,848,-392,1472,3072,48,52,840,1781,1884,2079,2246,2035,1796,1870,1998
498711,36916,3448,37095,4327,487,1216,-819,-574,868,-100,1439,3205,49,41,840,1781,1884,2079,2246,2035,1796,1870,1998
499712,37000,3516,37160,4392,364,1463,-843,-534,894,42,1414,3205,44,50,843,1781,1884,2079,2246,2035,1796,1870,1998
500713,37040,3596,37225,4457,944,1296,-852,-492,920,27,1201,3113,48,49,841,1781,1884,2079,2246,2035,1796,1870,1998
501714,37104,3676,37290,4522,646,1277,-862,-451,940,43,1159,3258,48,42,839,1781,1884,2079,2246,2035,1796,1870,1998
502715,37188,3756,37355,4587,372,1259,-857,-421,958,259,1196,3318,55,50,841,1781,1884,2079,2246,2035,1796,1870,1998
503716,37248,3840,37420,4652,678,1187,-845,-391,981,262,1009,3103,54,59,843,1781,1884,2079,2246,2035,1796,1870,1998
504717,37336,3948,37485,4717,300,834,-819,-368,1001,110,924,3243,50,60,842,1781,1884,2079,2246,2035,1796,1870,1998
505718,37396,4036,37550,4782,656,1056,-780,-318,1055,330,1193,3353,44,57,846,1781,1884,2079,2246,2035,1796,1870,1998
506719,37464,4132,37615,4847,553,918,-747,-303,1092,474,1064,2854,37,49,842,1781,1884,2079,2246,2035,1796,1870,1998
507720,37532,4224,37680,4912,549,936,-744,-324,1115,-11,931,2939,36,45,844,1781,1884,2079,2246,2035,1796,1870,1998
508721,37596,4292,37745,4977,600,1233,-747,-338,1147,-166,1235,3022,47,54,844,1781,1884,2079,2246,2035,1796,1870,1998
509722,37680,4384,37810,5042,327,900,-768,-330,1192,-23,1191,2651,52,56,842,1781,1884,2079,2246,2035,1796,1870,1998
510723,37740,4464,37875,5107,633,1032,-783,-313,1237,289,1268,2809,47,59,845,1781,1884,2079,2246,2035,1796,1870,1998
511724,37800,4544,37940,5172,639,1014,-815,-307,1279,304,1385,2501,41,45,843,1781,1884,2079,2246,2035,1796,1870,1998
512725,37880,4636,38005,5237,371,831,-840,-313,1319,-110,1401,2665,51,57,843,1781,1884,2079,2246,2035,1796,1870,1998
513726,37960,4720,38070,5302,354,908,-875,-300,1348,-76,1310,2639,53,49,846,1781,1884,2079,2246,2035,1796,1870,1998
514727,38032,4800,38135,5367,445,940,-901,-285,1374,152,1350,2731,43,38,845,1781,1884,2079,2246,2035,1796,1870,1998
515728,38104,4844,38200,5432,437,1416,-913,-250,1400,263,1149,2694,50,52,844,1781,1884,2079,2246,2035,1796,1870,1998
516729,38184,4936,38265,5497,318,783,-925,-199,1407,292,1112,2800,34,49,842,1781,1884,2079,2246,2035,1796,1870,1998
517730,38252,5048,38330,5562,465,476,-925,-180,1411,220,1029,2754,49,52,846,1781,1884,2079,2246,2035,1796,1870,1998
518731,38312,5136,38395,5627,571,748,-921,-170,1420,165,823,2910,40,42,847,1781,1884,2079,2246,2035,1796,1870,1998
519732,38396,5204,38460,5692,248,994,-897,-163,1438,262,816,2868,38,54,845,1781,1884,2079,2246,2035,1796,1870,1998
520733,38464,5288,38525,5757,444,772,-877,-169,1440,338,637,2826,52,54,845,1781,1884,2079,2246,2035,1796,1870,1998
521734,38524,5376,38590,5822,550,694,-854,-188,1433,100,463,2970,32,51,846,1781,1884,2079,2246,2035,1796,1870,1998
522735,38592,5460,38655,5887,446,721,-831,-202,1435,-29,576,3171,34,42,846,1781,1884,2079,2246,2035,1796,1870,1998
523736,38688,5540,38720,5952,59,752,-812,-214,1442,159,551,2928,52,46,846,1781,1884,2079,2246,2035,1796,1870,1998
524737,38740,5620,38785,6017,624,734,-792,-230,1450,375,537,3048,39,41,847,1781,1884,2079,2246,2035,1796,1870,1998
525738,38812,5704,38850,6082,366,661,-773,-255,1473,336,496,3002,42,48,846,1781,1884,2079,2246,2035,1796,1870,1998
526739,38860,5780,38915,6147,687,748,-757,-272,1481,358,626,2999,53,52,847,1781,1884,2079,2246,2035,1796,1870,1998
527740,38944,5860,38980,6212,213,680,-758,-297,1493,271,645,2881,51,53,845,1781,1884,2079,2246,2035,1796,1870,1998
528741,39008,5936,39045,6277,465,717,-780,-302,1507,377,624,3009,42,54,847,1781,1884,2079,2246,2035,1796,1870,1998
529742,39096,6028,39110,6342,137,484,-808,-302,1528,499,558,2923,36,42,846,1781,1884,2079,2246,2035,1796,1870,1998
530743,39180,6100,39175,6407,163,725,-831,-325,1513,622,706,2875,41,44,848,1781,1884,2079,2246,2035,1796,1870,1998
531744,39248,6168,39240,6472,360,772,-840,-338,1516,423,665,3015,53,49,847,1781,1884,2079,2246,2035,1796,1870,1998
532745,39320,6248,39305,6537,301,603,-846,-344,1502,454,753,3006,50,44,846,1781,1884,2079,2246,2035,1796,1870,1998
533746,39400,6340,39370,6602,183,420,-838,-352,1497,498,509,2880,54,50,847,1781,1884,2079,2246,2035,1796,1870,1998
534747,39464,6436,39435,6667,384,333,-836,-365,1467,558,474,3060,51,42,849,1781,1884,2079,2246,2035,1796,1870,1998
535748,39552,6528,39500,6732,56,351,-803,-359,1468,401,538,3230,34,54,848,1781,1884,2079,2246,2035,1796,1870,1998
536749,39632,6612,39565,6797,138,427,-779,-384,1463,632,517,2924,43,51,850,1781,1884,2079,2246,2035,1796,1870,1998
537750,39704,6680,39630,6862,229,624,-753,-385,1438,318,82,3189,36,43,849,1781,1884,2079,2246,2035,1796,1870,1998
538751,39784,6776,39695,6927,111,236,-736,-386,1419,330,230,3297,48,51,847,1781,1884,2079,2246,2035,1796,1870,1998
539752,39848,6868,39760,6992,312,253,-703,-393,1407,265,261,3166,46,55,850,1781,1884,2079,2246,2035,1796,1870,1998
540753,39932,6956,39825,7057,39,275,-678,-390,1394,167,171,3285,36,50,849,1781,1884,2079,2246,2035,1796,1870,1998
541754,40052,7056,39890,7122,-478,82,-650,-373,1379,231,-9,3320,52,52,850,1781,1884,2079,2246,2035,1796,1870,1998
542755,40184,7140,39955,7187,-710,259,-633,-363,1365,272,-38,3423,45,51,850,1781,1884,2079,2246,2035,1796,1870,1998
543756,40316,7216,40020,7252,-793,345,-616,-324,1364,340,-195,3541,49,47,850,1781,1884,2079,2246,2035,1796,1870,1998
544757,40452,7288,40085,7317,-929,387,-613,-288,1363,354,-282,3488,33,50,850,1781,1884,2079,2246,2035,1796,1870,1998
545758,40516,7396,40150,7382,-28,-116,-616,-247,1344,357,-183,3332,36,41,849,1781,1884,2079,2246,2035,1796,1870,1998
546759,40588,7500,40215,7447,-137,-113,-616,-216,1323,166,134,3522,50,42,849,1781,1884,2079,2246,2035,1796,1870,1998
547760,40656,7628,40280,7512,-90,-490,-612,-216,1285,96,397,3171,35,42,846,1781,1884,2079,2246,2035,1796,1870,1998
548761,40748,7752,40345,7577,-423,-512,-599,-194,1243,304,22,3354,47,44,847,1781,1884,2079,2246,2035,1796,1870,1998
549762,40820,7852,40410,7642,-182,-255,-583,-171,1217,748,185,3420,37,43,848,1781,1884,2079,2246,2035,1796,1870,1998
550763,40892,7912,40475,7707,-192,251,-562,-187,1194,637,81,3376,46,39,850,1781,1884,2079,2246,2035,1796,1870,1998
551764,40960,7996,40540,7772,-145,-72,-575,-195,1161,19,-294,3591,41,31,843,1781,1884,2079,2246,2035,1796,1870,1998
552765,41044,8088,40605,7837,-368,-205,-591,-173,1155,141,-261,3778,39,46,845,1781,1884,2079,2246,2035,1796,1870,1998
553766,41096,8148,40670,7902,47,201,-597,-130,1187,528,-421,3364,35,50,850,1781,1884,2079,2246,2035,1796,1870,1998
554767,41172,8228,40735,7967,-266,-68,-568,-62,1212,946,-497,3448,33,37,850,1781,1884,2079,2246,2035,1796,1870,1998
555768,41236,8276,40800,8032,-115,353,-574,-20,1218,967,-509,3627,38,47,850,1781,1884,2079,2246,2035,1796,1870,1998
556769,41296,8352,40865,8097,-60,-11,-588,-6,1201,623,-452,3799,50,39,850,1781,1884,2079,2246,2035,1796,1870,1998
557770,41364,8436,40930,8162,-163,-134,-579,54,1189,362,-527,4086,34,35,850,1781,1884,2079,2246,2035,1796,1870,1998
558771,41436,8492,40995,8227,-222,227,-547,131,1171,827,-476,3955,44,46,845,1781,1884,2079,2246,2035,1796,1870,1998
559772,41520,8576,41060,8292,-395,-146,-512,195,1155,892,-515,4060,36,44,841,1781,1884,2079,2246,2035,1796,1870,1998
560773,41588,8632,41125,8357,-199,215,-506,209,1150,587,-649,4013,40,46,847,1781,1884,2079,2246,2035,1796,1870,1998
561774,41664,8696,41190,8422,-312,116,-500,212,1133,127,-482,4268,36,43,850,1781,1884,2079,2246,2035,1796,1870,1998
562775,41720,8780,41255,8487,-52,-157,-487,207,1108,-168,-604,3980,52,36,850,1781,1884,2079,2246,2035,1796,1870,1998
563776,41816,8852,41320,8552,-590,-17,-461,193,1090,442,-950,3578,35,47,850,1781,1884,2079,2246,2035,1796,1870,1998
564777,41880,8936,41385,8617,-189,-190,-440,194,1091,704,-877,4079,38,49,846,1781,1884,2079,2246,2035,1796,1870,1998
565778,41980,9008,41450,8682,-681,-48,-446,196,1082,213,-799,4251,35,42,850,1781,1884,2079,2246,2035,1796,1870,1998
566779,42080,9072,41515,8747,-724,53,-460,238,1067,45,-810,4005,40,50,850,1781,1884,2079,2246,2035,1796,1870,1998
567780,42164,9148,41580,8812,-548,-111,-489,317,1074,520,-1041,4434,39,37,851,1781,1884,2079,2246,2035,1796,1870,1998
568781,42244,9216,41645,8877,-517,-14,-525,416,1082,776,-864,4248,43,41,848,1781,1884,2079,2246,2035,1796,1870,1998
569782,42312,9304,41710,8942,-370,-292,-567,451,1095,573,-800,4185,55,48,851,1781,1884,2079,2246,2035,1796,1870,1998
570783,42392,9368,41775,9007,-539,9,-606,486,1098,318,-1108,4217,54,49,850,1781,1884,2079,2246,2035,1796,1870,1998
571784,42488,9460,41840,9072,-777,-375,-618,485,1090,361,-1123,3903,55,52,851,1781,1884,2079,2246,2035,1796,1870,1998
572785,42572,9540,41905,9137,-651,-243,-607,468,1075,341,-1149,3986,41,54,848,1781,1884,2079,2246,2035,1796,1870,1998
573786,42660,9604,41970,9202,-729,-42,-596,419,1067,341,-1226,3789,58,54,850,1781,1884,2079,2246,2035,1796,1870,1998
574787,42740,9696,42035,9267,-647,-425,-591,360,1063,146,-1469,4046,46,41,851,1781,1884,2079,2246,2035,1796,1870,1998
575788,42832,9776,42100,9332,-831,-293,-585,332,1064,440,-1542,3926,60,52,849,1781,1884,2079,2246,2035,1796,1870,1998
576789,42940,9860,42165,9397,-1084,-367,-574,312,1080,600,-1490,4193,51,53,849,1781,1884,2079,2246,2035,1796,1870,1998
577790,43032,9924,42230,9462,-917,-116,-573,334,1092,599,-1577,4352,55,39,850,1781,1884,2079,2246,2035,1796,1870,1998
578791,43124,9996,42295,9527,-949,-225,-585,347,1101,546,-1740,4170,48,52,851,1781,1884,2079,2246,2035,1796,1870,1998
579792,43224,10092,42360,9592,-1093,-563,-600,324,1113,802,-1669,4272,65,47,850,1781,1884,2079,2246,2035,1796,1870,1998
580793,43344,10164,42425,9657,-1410,-271,-623,304,1130,670,-1779,4444,65,39,847,1781,1884,2079,2246,2035,1796,1870,1998
581794,43436,10224,42490,9722,-1093,-115,-659,246,1127,933,-1732,4047,63,41,850,1781,1884,2079,2246,2035,1796,1870,1998
582795,43576,10296,42555,9787,-1786,-274,-702,159,1097,665,-1634,4293,51,37,851,1781,1884,2079,2246,2035,1796,1870,1998
583796,43668,10360,42620,9852,-1219,-174,-751,87,1080,37,-1648,4366,50,42,850,1781,1884,2079,2246,2035,1796,1870,1998
584797,43768,10424,42685,9917,-1363,-172,-798,36,1067,554,-1613,4557,60,46,850,1781,1884,2079,2246,2035,1796,1870,1998
585798,43888,10492,42750,9982,-1680,-226,-827,-32,1051,614,-1573,4284,52,44,851,1781,1884,2079,2246,2035,1796,1870,1998
586799,43996,10560,42815,10047,-1582,-230,-838,-159,1024,271,-1712,4286,70,40,851,1781,1884,2079,2246,2035,1796,1870,1998
587800,44108,10628,42880,10112,-1691,-233,-836,-264,993,296,-1948,4441,55,37,851,1781,1884,2079,2246,2035,1796,1870,1998
588801,44224,10700,42945,10177,-1803,-293,-828,-369,987,464,-2101,3984,72,35,850,1781,1884,2079,2246,2035,1796,1870,1998
589802,44352,10776,43010,10242,-2031,-356,-825,-416,989,665,-2098,4178,64,48,850,1781,1884,2079,2246,2035,1796,1870,1998
590803,44468,10844,43075,10307,-1943,-260,-821,-421,996,731,-2347,4259,58,45,850,1781,1884,2079,2246,2035,1796,1870,1998
591804,44600,10912,43140,10372,-2226,-264,-819,-370,1013,670,-2327,4193,71,37,850,1781,1884,2079,2246,2035,1796,1870,1998
592805,44728,10964,43205,10437,-2253,-48,-830,-304,1033,624,-2354,4260,75,29,850,1781,1884,2079,2246,2035,1796,1870,1998
593806,44824,11028,43270,10502,-1891,-198,-863,-261,1044,907,-2365,4475,73,32,845,1781,1884,2079,2246,2035,1796,1870,1998
594807,44964,11088,43335,10567,-2534,-141,-882,-269,1046,765,-2230,3935,69,30,851,1781,1884,2079,2246,2035,1796,1870,1998
595808,45088,11132,43400,10632,-2406,84,-895,-282,1022,610,-1960,4280,63,32,851,1781,1884,2079,2246,2035,1796,1870,1998
596809,45196,11212,43465,10697,-2260,-384,-877,-349,1009,389,-2142,4004,67,41,851,1781,1884,2079,2246,2035,1796,1870,1998
597810,45336,11264,43530,10762,-2752,-18,-870,-456,996,199,-2315,3982,79,47,845,1781,1884,2079,2246,2035,1796,1870,1998
598811,45456,11328,43595,10827,-2569,-168,-857,-548,971,109,-2354,4246,79,42,851,1781,1884,2079,2246,2035,1796,1870,1998
599812,45572,11396,43660,10892,-2582,-222,-848,-608,938,133,-2408,4268,66,34,851,1781,1884,2079,2246,2035,1796,1870,1998
600813,45732,11456,43725,10957,-3249,-116,-830,-645,905,99,-2323,4267,79,47,850,1781,1884,2079,2246,2035,1796,1870,1998
601814,45852,11524,43790,11022,-2817,-219,-803,-679,867,609,-2177,4664,77,34,849,1781,1884,2079,2246,2035,1796,1870,1998
602815,45988,11576,43855,11087,-3104,-3,-777,-658,853,786,-2288,4709,81,47,850,1781,1884,2079,2246,2035,1796,1870,1998
603816,46132,11648,43920,11152,-3302,-263,-745,-671,837,983,-2283,4579,66,40,851,1781,1884,2079,2246,2035,1796,1870,1998
604817,46256,11712,43985,11217,-3125,-162,-702,-641,805,1265,-2371,4974,74,38,851,1781,1884,2079,2246,2035,1796,1870,1998
605818,46400,11748,44050,11282,-3472,224,-667,-592,768,1119,-2240,4739,71,42,849,1781,1884,2079,2246,2035,1796,1870,1998
606819,46524,11820,44115,11347,-3295,-235,-642,-527,747,1017,-2055,4572,70,47,851,1781,1884,2079,2246,2035,1796,1870,1998
607820,46632,11872,44180,11412,-3149,31,-624,-460,734,1030,-2107,4679,72,40,851,1781,1884,2079,2246,2035,1796,1870,1998
608821,46764,11948,44245,11477,-3531,-283,-601,-420,727,990,-2052,4424,66,49,851,1781,1884,2079,2246,2035,1796,1870,1998
609822,46904,12028,44310,11542,-3724,-352,-554,-369,718,835,-2023,4691,79,50,849,1781,1884,2079,2246,2035,1796,1870,1998
610823,47000,12096,44375,11607,-3213,-205,-495,-313,724,829,-2179,4872,75,51,850,1781,1884,2079,2246,2035,1796,1870,1998
611824,47160,12148,44440,11672,-3800,10,-416,-265,710,884,-2022,4876,76,44,851,1781,1884,2079,2246,2035,1796,1870,1998
612825,47288,12208,44505,11737,-3800,-83,-338,-207,704,552,-2116,4954,66,35,851,1781,1884,2079,2246,2035,1796,1870,1998
613826,47392,12280,44570,11802,-3556,-243,-247,-113,691,891,-1933,5318,82,38,851,1781,1884,2079,2246,2035,1796,1870,1998
614827,47536,12348,44635,11867,-3800,-197,-156,-99,670,635,-1941,4576,63,46,850,1781,1884,2079,2246,2035,1796,1870,1998
615828,47652,12416,44700,11932,-3800,-200,-79,-92,644,275,-1890,4688,78,32,851,1781,1884,2079,2246,2035,1796,1870,1998
616829,47768,12480,44765,11997,-3800,-149,3,-53,582,761,-1509,4815,66,36,851,1781,1884,2079,2246,2035,1796,1870,1998
617830,47904,12536,44830,12062,-3800,-38,70,-91,530,179,-1499,3904,77,39,851,1781,1884,2079,2246,2035,1796,1870,1998
618831,47992,12584,44895,12127,-3697,83,129,-58,467,335,-1408,4901,77,36,851,1781,1884,2079,2246,2035,1796,1870,1998
619832,48140,12656,44960,12192,-3800,-227,187,-4,411,834,-1505,4427,72,49,851,1781,1884,2079,2246,2035,1796,1870,1998
620833,48228,12704,45025,12257,-3800,94,234,30,359,754,-1406,4334,72,48,851,1781,1884,2079,2246,2035,1796,1870,1998
621834,48336,12768,45090,12322,-3800,-105,275,125,293,1093,-1405,4993,65,32,851,1781,1884,2079,2246,2035,1796,1870,1998
622835,48408,12832,45155,12387,-3692,-104,319,188,243,1015,-1429,4448,59,43,851,1781,1884,2079,2246,2035,1796,1870,1998
623836,48496,12868,45220,12452,-3800,282,366,253,196,910,-1377,4823,66,43,851,1781,1884,2079,2246,2035,1796,1870,1998
624837,48540,12940,45285,12517,-3348,-177,417,306,155,806,-1450,4717,62,43,850,1781,1884,2079,2246,2035,1796,1870,1998
625838,48612,12992,45350,12582,-3707,88,484,367,129,1034,-1402,4990,63,39,851,1781,1884,2079,2246,2035,1796,1870,1998
626839,48728,13068,45415,12647,-3800,-225,548,403,105,870,-1363,4747,48,36,845,1781,1884,2079,2246,2035,1796,1870,1998
627840,48820,13144,45480,12712,-3800,-239,621,415,84,860,-1315,5134,50,37,851,1781,1884,2079,2246,2035,1796,1870,1998
628841,48924,13188,45545,12777,-3800,187,705,417,48,782,-1293,4940,56,32,850,1781,1884,2079,2246,2035,1796,1870,1998
629842,49008,13260,45610,12842,-3800,-172,765,414,37,600,-1434,5081,51,37,851,1781,1884,2079,2246,2035,1796,1870,1998
630843,49112,13304,45675,12907,-3800,204,833,403,-3,781,-1085,4829,46,36,847,1781,1884,2079,2246,2035,1796,1870,1998
631844,49200,13368,45740,12972,-3800,-46,872,341,-29,417,-1028,4658,51,35,850,1781,1884,2079,2246,2035,1796,1870,1998
632845,49280,13432,45805,13037,-3800,-45,920,295,-80,621,-882,4575,54,44,851,1781,1884,2079,2246,2035,1796,1870,1998
633846,49368,13480,45870,13102,-3800,176,936,259,-119,616,-777,4314,46,34,851,1781,1884,2079,2246,2035,1796,1870,1998
634847,49452,13552,45935,13167,-3800,-132,962,234,-174,726,-509,4136,50,46,849,1781,1884,2079,2246,2035,1796,1870,1998
635848,49512,13612,46000,13232,-3800,24,966,198,-221,464,-499,3812,48,31,851,1781,1884,2079,2246,2035,1796,1870,1998
636849,49580,13648,46065,13297,-3800,359,972,189,-296,787,-436,4070,40,44,851,1781,1884,2079,2246,2035,1796,1870,1998
637850,49656,13728,46130,13362,-3800,-209,975,175,-349,800,-410,3799,42,35,851,1781,1884,2079,2246,2035,1796,1870,1998
638851,49704,13772,46195,13427,-3726,265,992,176,-417,970,-374,4090,29,31,850,1781,1884,2079,2246,2035,1796,1870,1998
639852,49764,13852,46260,13492,-3800,-203,1002,185,-491,973,-221,4014,23,31,850,1781,1884,2079,2246,2035,1796,1870,1998
640853,49816,13916,46325,13557,-3757,-2,990,164,-543,585,-191,3520,26,47,851,1781,1884,2079,2246,2035,1796,1870,1998
641854,49856,13976,46390,13622,-3577,54,959,136,-576,432,-271,3605,37,30,851,1781,1884,2079,2246,2035,1796,1870,1998
642855,49896,14028,46455,13687,-3548,170,930,63,-598,240,-217,3328,36,45,851,1781,1884,2079,2246,2035,1796,1870,1998
643856,49952,14096,46520,13752,-3739,-33,932,-4,-624,171,-234,3721,34,43,851,1781,1884,2079,2246,2035,1796,1870,1998
644857,49984,14160,46585,13817,-3400,18,939,-63,-640,203,-283,3560,35,33,851,1781,1884,2079,2246,2035,1796,1870,1998
645858,50028,14204,46650,13882,-3525,292,948,-94,-653,315,-212,3819,33,39,851,1781,1884,2079,2246,2035,1796,1870,1998
646859,50080,14272,46715,13947,-3611,-11,949,-109,-661,300,-222,3960,31,29,850,1781,1884,2079,2246,2035,1796,1870,1998
647860,50108,14316,46780,14012,-3267,314,958,-103,-667,366,-130,4131,26,36,851,1781,1884,2079,2246,2035,1796,1870,1998
648861,50144,14388,46845,14077,-3333,-44,965,-86,-672,419,-162,4125,22,41,850,1781,1884,2079,2246,2035,1796,1870,1998
649862,50168,14436,46910,14142,-3134,277,956,-76,-680,478,33,4090,9,43,851,1781,1884,2079,2246,2035,1796,1870,1998
650863,50212,14504,46975,14207,-3360,23,928,-91,-696,364,112,4012,18,30,851,1781,1884,2079,2246,2035,1796,1870,1998
651864,50224,14560,47040,14272,-2896,184,897,-97,-720,276,246,4122,7,42,851,1781,1884,2079,2246,2035,1796,1870,1998
652865,50240,14600,47105,14337,-2887,414,858,-59,-754,493,349,3917,7,39,851,1781,1884,2079,2246,2035,1796,1870,1998
653866,50260,14644,47170,14402,-2883,389,812,-41,-770,584,548,3689,5,30,850,1781,1884,2079,2246,2035,1796,1870,1998
654867,50268,14712,47235,14467,-2665,85,766,-61,-794,120,766,3733,11,29,850,1781,1884,2079,2246,2035,1796,1870,1998
655868,50296,14748,47300,14532,-2872,521,725,-77,-830,-79,781,3752,5,42,851,1781,1884,2079,2246,2035,1796,1870,1998
656869,50312,14788,47365,14597,-2663,501,687,-104,-864,142,829,3454,2,40,850,1781,1884,2079,2246,2035,1796,1870,1998
657870,50320,14848,47430,14662,-2494,257,640,-168,-878,-36,865,3643,9,47,849,1781,1884,2079,2246,2035,1796,1870,1998
658871,50344,14920,47495,14727,-2645,99,607,-165,-891,-109,833,3529,4,46,851,1781,1884,2079,2246,2035,1796,1870,1998
659872,50344,14972,47560,14792,-2267,365,574,-151,-886,187,884,3458,-1,33,844,1781,1884,2079,2246,2035,1796,1870,1998
660873,50336,15036,47625,14857,-2079,216,555,-161,-873,150,710,3365,10,36,850,1781,1884,2079,2246,2035,1796,1870,1998
661874,50348,15108,47690,14922,-2265,107,541,-136,-861,-73,737,3671,-3,46,851,1781,1884,2079,2246,2035,1796,1870,1998
662875,50352,15196,47755,14987,-2092,-121,541,-91,-847,151,696,3486,12,35,851,1781,1884,2079,2246,2035,1796,1870,1998
663876,50348,15268,47820,15052,-1908,71,544,-35,-821,384,788,3697,12,47,846,1781,1884,2079,2246,2035,1796,1870,1998
664877,50352,15348,47885,15117,-1935,-47,532,37,-801,321,817,3452,11,46,851,1781,1884,2079,2246,2035,1796,1870,1998
665878,50360,15400,47950,15182,-1916,317,492,139,-805,762,793,3219,-5,46,850,1781,1884,2079,2246,2035,1796,1870,1998
666879,50356,15484,48015,15247,-1683,-106,439,195,-811,605,731,3269,10,39,850,1781,1884,2079,2246,2035,1796,1870,1998
667880,50364,15560,48080,15312,-1765,-19,399,227,-809,131,851,3408,1,31,848,1781,1884,2079,2246,2035,1796,1870,1998
668881,50372,15640,48145,15377,-1696,-88,380,252,-790,-155,884,3591,10,42,851,1781,1884,2079,2246,2035,1796,1870,1998
669882,50360,15708,48210,15442,-1353,59,367,276,-765,-110,954,3767,-2,46,851,1781,1884,2079,2246,2035,1796,1870,1998
670883,50364,15784,48275,15507,-1479,-55,352,255,-742,-303,1084,3707,-7,45,851,1781,1884,2079,2246,2035,1796,1870,1998
671884,50364,15840,48340,15572,-1350,206,354,221,-714,-467,946,3929,7,43,850,1781,1884,2079,2246,2035,1796,1870,1998
672885,50368,15900,48405,15637,-1327,162,347,170,-692,-450,1039,3969,0,38,851,1781,1884,2079,2246,2035,1796,1870,1998
673886,50372,15976,48470,15702,-1253,-51,335,150,-671,-487,1180,4160,4,31,851,1781,1884,2079,2246,2035,1796,1870,1998
674887,50376,16048,48535,15767,-1179,-10,326,170,-644,-200,1264,4090,0,40,851,1781,1884,2079,2246,2035,1796,1870,1998
675888,50384,16104,48600,15832,-1160,200,315,229,-629,251,1299,4128,9,35,851,1781,1884,2079,2246,2035,1796,1870,1998
676889,50372,16152,48665,15897,-817,321,314,272,-619,602,951,3725,7,37,851,1781,1884,2079,2246,2035,1796,1870,1998
677890,50372,16220,48730,15962,-889,68,298,254,-604,317,1137,3714,12,40,850,1781,1884,2079,2246,2035,1796,1870,1998
678891,50384,16268,48795,16027,-974,338,283,249,-575,-295,1463,3866,2,39,851,1781,1884,2079,2246,2035,1796,1870,1998
679892,50392,16340,48860,16092,-856,30,263,307,-558,235,1447,3655,-5,42,850,1781,1884,2079,2246,2035,1796,1870,1998
680893,50396,16404,48925,16157,-731,131,237,340,-541,605,1523,3607,-7,32,851,1781,1884,2079,2246,2035,1796,1870,1998
681894,50400,16472,48990,16222,-658,77,215,329,-511,251,1458,3389,-6,33,851,1781,1884,2079,2246,2035,1796,1870,1998
682895,50396,16544,49055,16287,-473,19,192,298,-481,-113,1340,3430,0,34,851,1781,1884,2079,2246,2035,1796,1870,1998
683896,50392,16616,49120,16352,-390,10,177,242,-456,-8,1178,3342,5,28,851,1781,1884,2079,2246,2035,1796,1870,1998
684897,50404,16700,49185,16417,-526,-163,173,188,-423,90,1232,3331,12,43,851,1781,1884,2079,2246,2035,1796,1870,1998
685898,50396,16760,49250,16482,-187,142,178,151,-388,-151,1229,3489,-3,28,851,1781,1884,2079,2246,2035,1796,1870,1998
686899,50400,16808,49315,16547,-263,313,176,132,-354,-56,1124,3457,-7,40,851,1781,1884,2079,2246,2035,1796,1870,1998
687900,50404,16876,49380,16612,-189,59,168,101,-323,-32,1230,3587,4,30,846,1781,1884,2079,2246,2035,1796,1870,1998
688901,50404,16920,49445,16677,-60,385,147,41,-285,-269,1108,3676,-2,28,851,1781,1884,2079,2246,2035,1796,1870,1998
689902,50408,16988,49510,16742,-37,81,141,3,-251,-188,1124,3682,12,25,849,1781,1884,2079,2246,2035,1796,1870,1998
690903,50412,17048,49575,16807,38,187,129,-26,-219,27,1140,3764,-3,28,851,1781,1884,2079,2246,2035,1796,1870,1998
691904,50416,17112,49640,16872,112,139,115,-42,-189,-76,1138,3906,-7,33,851,1781,1884,2079,2246,2035,1796,1870,1998
692905,50416,17184,49705,16937,241,30,94,-44,-156,-84,1154,3911,-6,29,851,1781,1884,2079,2246,2035,1796,1870,1998
693906,50432,17244,49770,17002,100,186,72,-41,-125,29,1190,3955,11,38,851,1781,1884,2079,2246,2035,1796,1870,1998
694907,50432,17308,49835,17067,380,137,45,-39,-99,-62,1229,3957,-3,29,851,1781,1884,2079,2246,2035,1796,1870,1998
695908,50436,17372,49900,17132,404,138,18,-42,-70,3,1257,3904,12,24,850,1781,1884,2079,2246,2035,1796,1870,1998
696909,50444,17436,49965,17197,424,139,-7,-42,-47,-82,1255,4004,2,36,850,1781,1884,2079,2246,2035,1796,1870,1998
697910,50468,17480,50030,17262,273,414,-33,-40,-20,-91,1172,3949,15,39,850,1781,1884,2079,2246,2035,1796,1870,1998
698911,50464,17548,50095,17327,707,111,-53,-34,9,43,1143,3983,6,31,849,1781,1884,2079,2246,2035,1796,1870,1998
699912,50488,17608,50294,17526,571,380,-71,-29,27,-65,1181,3874,11,37,847,1781,1884,2079,2246,2035,1796,1870,1998
700913,50508,17680,50359,17591,676,222,-82,-26,50,-14,1117,3833,21,42,847,1781,1884,2079,2246,2035,1796,1870,1998
701914,50524,17740,50424,17656,785,378,-95,-10,79,2,974,3783,15,42,847,1781,1884,2079,2246,2035,1796,1870,1998
702915,50552,17792,50489,17721,681,494,-103,-2,111,-2,994,3710,9,30,847,1781,1884,2079,2246,2035,1796,1870,1998
703916,50564,17860,50554,17786,945,290,-116,3,132,-11,898,3615,28,36,847,1781,1884,2079,2246,2035,1796,1870,1998
704917,50608,17928,50619,17851,571,287,-128,7,153,30,876,3637,20,44,846,1781,1884,2079,2246,2035,1796,1870,1998
705918,50648,17980,50684,17916,651,502,-143,11,175,75,776,3472,20,47,847,1781,1884,2079,2246,2035,1796,1870,1998
706919,50700,18064,50749,17981,517,79,-162,20,194,112,797,3490,37,38,847,1781,1884,2079,2246,2035,1796,1870,1998
707920,50744,18132,50814,18046,643,276,-184,33,209,93,670,3432,40,45,849,1781,1884,2079,2246,2035,1796,1870,1998
708921,50804,18204,50879,18111,449,217,-205,54,230,173,675,3411,25,46,848,1781,1884,2079,2246,2035,1796,1870,1998
709922,50868,18272,50944,18176,400,263,-227,68,239,376,723,3407,28,47,849,1781,1884,2079,2246,2035,1796,1870,1998
710923,50936,18344,51009,18241,347,205,-260,86,245,184,595,3371,30,33,849,1781,1884,2079,2246,2035,1796,1870,1998
711924,50992,18420,51074,18306,508,141,-294,114,254,278,626,3543,36,40,850,1781,1884,2079,2246,2035,1796,1870,1998
712925,51056,18492,51139,18371,409,183,-332,124,273,249,548,3367,30,33,849,1781,1884,2079,2246,2035,1796,1870,1998
713926,51116,18560,51204,18436,465,229,-367,142,273,322,617,3633,32,34,849,1781,1884,2079,2246,2035,1796,1870,1998
714927,51212,18616,51269,18501,-23,390,-397,149,277,294,494,3551,32,27,849,1781,1884,2079,2246,2035,1796,1870,1998
715928,51272,18692,51334,18566,433,126,-429,159,280,306,500,3673,33,30,850,1781,1884,2079,2246,2035,1796,1870,1998
716929,51348,18760,51399,18631,220,222,-454,169,285,278,344,3723,48,42,848,1781,1884,2079,2246,2035,1796,1870,1998
717930,51412,18840,51464,18696,371,54,-478,181,299,316,237,3708,47,30,850,1781,1884,2079,2246,2035,1796,1870,1998
718931,51468,18896,51529,18761,482,365,-493,182,308,394,375,3800,34,29,850,1781,1884,2079,2246,2035,1796,1870,1998
719932,51552,18948,51594,18826,109,431,-509,195,317,312,259,3812,48,32,849,1781,1884,2079,2246,2035,1796,1870,1998
720933,51616,19012,51659,18891,360,282,-507,196,316,390,345,3901,49,25,849,1781,1884,2079,2246,2035,1796,1870,1998
721934,51688,19076,51724,18956,251,283,-517,182,323,346,224,3782,45,41,849,1781,1884,2079,2246,2035,1796,1870,1998
722935,51752,19140,51789,19021,353,284,-517,203,327,481,245,3975,40,41,850,1781,1884,2079,2246,2035,1796,1870,1998
723936,51808,19204,51854,19086,464,285,-514,213,335,503,262,3803,39,32,850,1781,1884,2079,2246,2035,1796,1870,1998
724937,51892,19268,51919,19151,90,287,-513,205,338,454,241,3843,36,42,849,1781,1884,2079,2246,2035,1796,1870,1998
725938,51984,19324,51984,19216,-42,398,-508,225,338,576,331,4031,46,40,850,1781,1884,2079,2246,2035,1796,1870,1998
726939,52060,19364,52049,19281,144,628,-502,217,330,418,282,3596,50,26,850,1781,1884,2079,2246,2035,1796,1870,1998
727940,52124,19444,52114,19346,295,110,-493,213,317,571,144,4288,46,29,849,1781,1884,2079,2246,2035,1796,1870,1998
728941,52180,19516,52179,19411,406,201,-488,216,311,655,172,3801,47,31,850,1781,1884,2079,2246,2035,1796,1870,1998
729942,52244,19584,52244,19476,308,248,-480,198,309,633,271,3780,44,26,850,1781,1884,2079,2246,2035,1796,1870,1998
730943,52328,19644,52309,19541,34,354,-468,185,297,528,200,3827,51,26,849,1781,1884,2079,2246,2035,1796,1870,1998
731944,52384,19708,52374,19606,395,305,-468,169,286,413,118,3986,50,24,850,1781,1884,2079,2246,2035,1796,1870,1998
732945,52440,19764,52439,19671,406,416,-463,156,279,652,157,3999,43,31,849,1781,1884,2079,2246,2035,1796,1870,1998
733946,52520,19816,52504,19736,88,482,-453,152,272,657,89,3891,48,37,848,1781,1884,2079,2246,2035,1796,1870,1998
734947,52576,19884,52569,19801,399,278,-445,191,260,714,27,4112,45,39,849,1781,1884,2079,2246,2035,1796,1870,1998
735948,52656,19956,52634,19866,81,220,-423,184,228,928,25,3927,32,37,849,1781,1884,2079,2246,2035,1796,1870,1998
736949,52708,19992,52699,19931,447,705,-416,110,225,327,-152,3934,33,25,850,1781,1884,2079,2246,2035,1796,1870,1998
737950,52784,20044,52764,19996,133,521,-410,119,228,187,-170,4363,33,40,847,1781,1884,2079,2246,2035,1796,1870,1998
738951,52852,20116,52829,20061,229,262,-398,178,220,628,-165,4225,49,26,849,1781,1884,2079,2246,2035,1796,1870,1998
739952,52908,20184,52894,20126,390,308,-379,189,211,1083,-57,4253,33,32,850,1781,1884,2079,2246,2035,1796,1870,1998
740953,52984,20244,52959,20191,127,414,-354,146,212,589,-451,4114,49,25,849,1781,1884,2079,2246,2035,1796,1870,1998
741954,53040,20288,53024,20256,388,639,-329,104,200,171,-289,4459,34,32,849,1781,1884,2079,2246,2035,1796,1870,1998
742955,53104,20352,53089,20321,289,391,-298,72,182,237,-255,4434,31,31,848,1781,1884,2079,2246,2035,1796,1870,1998
743956,53176,20412,53154,20386,181,447,-273,89,180,566,-407,4537,38,28,849,1781,1884,2079,2246,2035,1796,1870,1998
744957,53220,20488,53219,20451,556,233,-246,117,168,728,-238,4713,28,34,849,1781,1884,2079,2246,2035,1796,1870,1998
745958,53300,20536,53284,20516,88,604,-208,147,154,621,-332,4639,31,39,849,1781,1884,2079,2246,2035,1796,1870,1998
746959,53364,20600,53349,20581,289,405,-171,192,137,614,-431,4920,38,26,849,1781,1884,2079,2246,2035,1796,1870,1998
747960,53428,20664,53414,20646,290,407,-133,225,112,730,-343,4723,47,40,849,1781,1884,2079,2246,2035,1796,1870,1998
748961,53488,20720,53479,20711,347,518,-94,270,92,672,-362,4738,47,33,849,1781,1884,2079,2246,2035,1796,1870,1998
749962,53532,20772,53544,20776,572,583,-70,297,76,493,-334,4556,27,30,849,1781,1884,2079,2246,2035,1796,1870,1998
750963,53604,20836,53609,20841,214,435,-51,320,51,416,-239,4386,34,43,846,1781,1884,2079,2246,2035,1796,1870,1998
751964,53668,20888,53674,20906,315,600,-41,319,26,298,-185,4277,28,34,848,1781,1884,2079,2246,2035,1796,1870,1998
752965,53724,20964,53739,20971,426,287,-27,307,3,255,-224,4188,33,30,848,1781,1884,2079,2246,2035,1796,1870,1998
753966,53784,21020,53804,21036,382,548,-21,296,-9,278,-294,4108,43,40,849,1781,1884,2079,2246,2035,1796,1870,1998
754967,53840,21088,53869,21101,443,394,-10,292,-41,301,-234,4094,39,36,848,1781,1884,2079,2246,2035,1796,1870,1998
755968,53888,21152,53934,21166,564,446,-35,327,-74,423,-279,3692,45,29,848,1781,1884,2079,2246,2035,1796,1870,1998
756969,53960,21220,53999,21231,255,392,-44,332,-112,910,-300,3859,29,29,847,1781,1884,2079,2246,2035,1796,1870,1998
757970,54024,21280,54064,21296,356,498,-16,263,-111,316,-623,4252,43,27,849,1781,1884,2079,2246,2035,1796,1870,1998
758971,54088,21332,54129,21361,358,614,31,247,-128,171,-554,4291,28,35,848,1781,1884,2079,2246,2035,1796,1870,1998
759972,54144,21404,54194,21426,469,355,62,266,-154,792,-547,4064,38,31,848,1781,1884,2079,2246,2035,1796,1870,1998
760973,54192,21460,54259,21491,589,566,102,212,-151,812,-758,4144,44,26,847,1781,1884,2079,2246,2035,1796,1870,1998
761974,54272,21496,54324,21556,171,852,134,195,-159,406,-799,4355,28,38,847,1781,1884,2079,2246,2035,1796,1870,1998
762975,54316,21568,54389,21621,647,393,156,226,-185,654,-666,4123,26,38,847,1781,1884,2079,2246,2035,1796,1870,1998
763976,54388,21648,54454,21686,288,275,171,244,-187,832,-639,4337,36,31,847,1781,1884,2079,2246,2035,1796,1870,1998
764977,54432,21716,54519,21751,664,421,197,222,-193,588,-656,4173,45,43,848,1781,1884,2079,2246,2035,1796,1870,1998
765978,54500,21796,54584,21816,360,253,205,217,-210,408,-617,4248,35,28,848,1781,1884,2079,2246,2035,1796,1870,1998
766979,54564,21852,54649,21881,411,564,196,208,-230,505,-500,4051,29,32,848,1781,1884,2079,2246,2035,1796,1870,1998
767980,54632,21912,54714,21946,358,520,172,190,-243,456,-260,4049,35,41,847,1781,1884,2079,2246,2035,1796,1870,1998
768981,54700,21972,54779,22011,354,526,148,160,-271,101,-261,3753,29,40,847,1781,1884,2079,2246,2035,1796,1870,1998
769982,54768,22056,54844,22076,350,203,138,126,-286,-105,-336,3951,40,36,848,1781,1884,2079,2246,2035,1796,1870,1998
770983,54840,22092,54909,22141,292,838,127,97,-299,133,-314,3869,28,28,849,1781,1884,2079,2246,2035,1796,1870,1998
771984,54904,22148,54974,22206,393,599,120,88,-321,237,-202,3897,48,30,847,1781,1884,2079,2246,2035,1796,1870,1998
772985,54948,22212,55039,22271,669,502,93,73,-336,237,-135,3624,37,32,847,1781,1884,2079,2246,2035,1796,1870,1998
773986,55024,22268,55104,22336,255,613,86,46,-359,37,-83,3544,34,45,847,1781,1884,2079,2246,2035,1796,1870,1998
774987,55080,22336,55169,22401,516,459,72,32,-377,115,-227,3571,46,34,847,1781,1884,2079,2246,2035,1796,1870,1998
775988,55124,22428,55234,22466,692,126,93,20,-413,461,-302,3672,37,40,848,1781,1884,2079,2246,2035,1796,1870,1998
776989,55192,22476,55299,22531,389,697,124,-1,-418,451,-376,3672,47,34,847,1781,1884,2079,2246,2035,1796,1870,1998
777990,55248,22552,55364,22596,550,333,162,-17,-404,215,-320,3777,32,36,847,1781,1884,2079,2246,2035,1796,1870,1998
778991,55344,22612,55429,22661,12,539,196,-17,-398,1,-249,3760,33,38,847,1781,1884,2079,2246,2035,1796,1870,1998
779992,55408,22672,55494,22726,413,545,228,-21,-404,208,-158,3792,48,40,849,1781,1884,2079,2246,2035,1796,1870,1998
780993,55456,22744,55559,22791,634,387,254,-40,-392,250,-249,3644,30,30,848,1781,1884,2079,2246,2035,1796,1870,1998
781994,55520,22816,55624,22856,435,378,251,-58,-377,123,-282,3654,34,27,847,1781,1884,2079,2246,2035,1796,1870,1998
782995,55588,22872,55689,22921,382,589,235,-52,-369,50,-117,3674,34,39,848,1781,1884,2079,2246,2035,1796,1870,1998
783996,55660,22924,55754,22986,323,655,233,-32,-377,223,76,3864,32,24,847,1781,1884,2079,2246,2035,1796,1870,1998
784997,55708,22992,55819,23051,644,452,222,-29,-377,146,50,3857,35,37,847,1781,1884,2079,2246,2035,1796,1870,1998
785998,55768,23048,55884,23116,500,613,208,-23,-377,46,48,3761,29,32,847,1781,1884,2079,2246,2035,1796,1870,1998
786999,55844,23128,55949,23181,287,294,174,-17,-368,56,197,3843,33,27,847,1781,1884,2079,2246,2035,1796,1870,1998
788000,55900,23176,56014,23246,548,715,154,-27,-366,19,234,3936,46,31,849,1781,1884,2079,2246,2035,1796,1870,1998
789001,55952,23240,56079,23311,614,516,138,-17,-370,-51,188,4209,44,35,847,1781,1884,2079,2246,2035,1796,1870,1998
790002,56004,23300,56144,23376,629,572,133,2,-380,14,201,4142,38,30,847,1781,1884,2079,2246,2035,1796,1870,1998
791003,56056,23360,56209,23441,645,578,114,41,-384,-17,279,4012,34,41,847,1781,1884,2079,2246,2035,1796,1870,1998
792004,56100,23416,56274,23506,771,639,84,89,-410,307,371,3755,46,38,846,1781,1884,2079,2246,2035,1796,1870,1998
793005,56172,23472,56339,23571,412,650,77,97,-418,294,126,4026,37,34,846,1781,1884,2079,2246,2035,1796,1870,1998
794006,56224,23532,56404,23636,678,606,106,110,-415,-147,108,4305,31,35,846,1781,1884,2079,2246,2035,1796,1870,1998
795007,56304,23588,56469,23701,310,667,123,118,-415,-52,371,3780,32,42,846,1781,1884,2079,2246,2035,1796,1870,1998
796008,56368,23656,56534,23766,511,514,153,79,-419,212,375,3768,41,30,847,1781,1884,2079,2246,2035,1796,1870,1998
797009,56432,23708,56599,23831,512,730,172,51,-415,28,337,4061,43,39,847,1781,1884,2079,2246,2035,1796,1870,1998
798010,56476,23784,56664,23896,788,416,220,75,-399,45,280,3992,38,44,847,1781,1884,2079,2246,2035,1796,1870,1998
799011,56544,23840,56729,23961,485,677,263,134,-373,513,378,4084,27,42,846,1781,1884,2079,2246,2035,1796,1870,1998
800012,56584,23916,56794,24026,866,414,313,181,-354,506,506,3964,41,41,846,1781,1884,2079,2246,2035,1796,1870,1998
801013,56632,23964,56859,24091,787,785,333,257,-334,329,546,4140,28,37,846,1781,1884,2079,2246,2035,1796,1870,1998
802014,56680,24040,56924,24156,807,421,339,328,-316,339,687,3883,33,45,844,1781,1884,2079,2246,2035,1796,1870,1998
803015,56740,24104,56989,24221,663,572,329,367,-317,297,788,3700,42,45,844,1781,1884,2079,2246,2035,1796,1870,1998
804016,56800,24172,57054,24286,670,519,312,362,-334,163,735,3768,46,35,846,1781,1884,2079,2246,2035,1796,1870,1998
805017,56856,24252,57119,24351,731,350,304,342,-319,-61,772,3667,46,29,846,1781,1884,2079,2246,2035,1796,1870,1998
806018,56924,24308,57184,24416,577,661,295,310,-318,-167,830,3972,33,27,846,1781,1884,2079,2246,2035,1796,1870,1998
807019,56968,24360,57249,24481,903,727,290,323,-325,88,799,3990,36,28,847,1781,1884,2079,2246,2035,1796,1870,1998
808020,57036,24436,57314,24546,599,415,281,302,-322,123,790,3928,36,39,845,1781,1884,2079,2246,2035,1796,1870,1998
809021,57088,24496,57379,24611,815,621,276,254,-322,6,655,4119,29,41,845,1781,1884,2079,2246,2035,1796,1870,1998
810022,57152,24552,57444,24676,667,682,267,228,-329,58,535,4190,34,27,847,1781,1884,2079,2246,2035,1796,1870,1998
811023,57188,24608,57509,24741,1052,693,253,211,-332,258,654,4032,43,27,845,1781,1884,2079,2246,2035,1796,1870,1998
812024,57268,24700,57574,24806,484,210,252,198,-332,327,481,4013,44,42,845,1781,1884,2079,2246,2035,1796,1870,1998
813025,57324,24724,57639,24871,795,1110,268,210,-329,508,415,4451,49,29,843,1781,1884,2079,2246,2035,1796,1870,1998
814026,57388,24788,57704,24936,696,611,293,241,-313,420,395,4315,36,33,849,1781,1884,2079,2246,2035,1796,1870,1998
815027,57448,24848,57769,25001,752,667,321,258,-297,342,453,4236,35,28,842,1781,1884,2079,2246,2035,1796,1870,1998
816028,57496,24912,57834,25066,923,618,344,279,-276,394,334,4264,41,34,846,1781,1884,2079,2246,2035,1796,1870,1998
817029,57564,24972,57899,25131,669,675,359,304,-250,341,386,4108,37,30,845,1781,1884,2079,2246,2035,1796,1870,1998
818030,57616,25024,57964,25196,886,790,357,321,-230,334,534,3972,47,25,844,1781,1884,2079,2246,2035,1796,1870,1998
819031,57676,25092,58029,25261,792,587,355,309,-216,175,599,3665,34,37,844,1781,1884,2079,2246,2035,1796,1870,1998
820032,57732,25132,58094,25326,853,967,339,264,-199,-10,671,3788,37,28,843,1781,1884,2079,2246,2035,1796,1870,1998
821033,57804,25184,58159,25391,645,833,333,212,-189,-201,844,3721,46,26,845,1781,1884,2079,2246,2035,1796,1870,1998
822034,57848,25236,58224,25456,1020,849,321,162,-174,-184,836,3919,32,35,842,1781,1884,2079,2246,2035,1796,1870,1998
823035,57900,25288,58289,25521,936,865,311,111,-166,-37,875,3771,39,28,845,1781,1884,2079,2246,2035,1796,1870,1998
824036,57960,25344,58354,25586,842,826,301,62,-165,77,844,3731,45,35,842,1781,1884,2079,2246,2035,1796,1870,1998
825037,58012,25404,58419,25651,958,783,283,16,-160,19,834,3812,47,41,843,1781,1884,2079,2246,2035,1796,1870,1998
826038,58072,25468,58484,25716,865,734,280,6,-155,26,740,3928,29,24,843,1781,1884,2079,2246,2035,1796,1870,1998
827039,58128,25520,58549,25781,926,900,282,23,-151,317,673,3983,47,32,843,1781,1884,2079,2246,2035,1796,1870,1998
828040,58188,25588,58614,25846,883,696,291,47,-135,285,648,4103,48,27,844,1781,1884,2079,2246,2035,1796,1870,1998
829041,58256,25640,58679,25911,779,912,305,61,-119,240,635,4200,33,42,843,1781,1884,2079,2246,2035,1796,1870,1998
830042,58304,25700,58744,25976,1050,818,306,67,-102,347,513,4195,35,28,844,1781,1884,2079,2246,2035,1796,1870,1998
831043,58352,25768,58809,26041,1070,715,312,63,-90,345,382,4131,44,41,843,1781,1884,2079,2246,2035,1796,1870,1998
832044,58400,25840,58874,26106,1092,656,304,48,-75,16,354,4269,46,29,842,1781,1884,2079,2246,2035,1796,1870,1998
833045,58460,25884,58939,26171,948,1032,304,61,-67,56,347,4244,42,36,842,1781,1884,2079,2246,2035,1796,1870,1998
834046,58520,25952,59004,26236,954,728,296,38,-51,269,393,4164,45,42,843,1781,1884,2079,2246,2035,1796,1870,1998
835047,58576,26016,59069,26301,1015,780,296,18,-33,79,348,4185,52,42,841,1781,1884,2079,2246,2035,1796,1870,1998
836048,58636,26064,59134,26366,971,1001,278,-5,-14,-64,392,4196,33,41,843,1781,1884,2079,2246,2035,1796,1870,1998
837049,58696,26128,59199,26431,979,802,275,-32,-5,29,348,3970,34,45,842,1781,1884,2079,2246,2035,1796,1870,1998
838050,58756,26184,59264,26496,985,913,260,-71,19,94,324,4100,43,39,841,1781,1884,2079,2246,2035,1796,1870,1998
839051,58816,26264,59329,26561,991,595,252,-63,35,139,462,4161,35,35,842,1781,1884,2079,2246,2035,1796,1870,1998
840052,58872,26324,59394,26626,1052,851,238,-50,59,138,347,3954,49,34,842,1781,1884,2079,2246,2035,1796,1870,1998
841053,58936,26416,59459,26691,953,418,232,-33,76,224,547,4080,45,34,843,1781,1884,2079,2246,2035,1796,1870,1998
842054,58992,26464,59524,26756,1064,989,220,-20,79,160,640,4004,48,38,842,1781,1884,2079,2246,2035,1796,1870,1998
843055,59052,26540,59589,26821,1021,626,208,-11,93,202,482,3950,40,42,845,1781,1884,2079,2246,2035,1796,1870,1998
844056,59116,26608,59654,26886,972,722,198,0,108,268,556,4064,37,32,841,1781,1884,2079,2246,2035,1796,1870,1998
845057,59176,26688,59719,26951,1028,555,209,15,119,282,569,3992,32,46,843,1781,1884,2079,2246,2035,1796,1870,1998
846058,59200,26736,59784,27016,1528,975,216,31,127,160,496,4022,46,34,843,1781,1884,2079,2246,2035,1796,1870,1998
847059,59264,26816,59849,27081,1030,557,225,40,138,128,598,3963,43,36,844,1781,1884,2079,2246,2035,1796,1870,1998
848060,59324,26872,59914,27146,1087,868,235,48,137,166,508,4006,40,35,837,1781,1884,2079,2246,2035,1796,1870,1998
849061,59384,26940,59979,27211,1093,714,256,45,150,187,456,3986,49,45,844,1781,1884,2079,2246,2035,1796,1870,1998
850062,59440,26992,60044,27276,1154,930,275,36,165,147,499,4056,36,46,841,1781,1884,2079,2246,2035,1796,1870,1998
851063,59480,27044,60109,27341,1384,946,306,42,178,127,319,4040,31,39,842,1781,1884,2079,2246,2035,1796,1870,1998
852064,59532,27120,60174,27406,1251,633,357,50,209,30,342,4108,37,35,841,1781,1884,2079,2246,2035,1796,1870,1998
853065,59588,27204,60239,27471,1212,509,395,83,239,234,257,4123,42,46,837,1781,1884,2079,2246,2035,1796,1870,1998
854066,59640,27256,60304,27536,1278,926,429,99,259,358,289,4048,40,36,840,1781,1884,2079,2246,2035,1796,1870,1998
855067,59724,27324,60369,27601,855,723,452,65,287,162,536,3928,50,45,843,1781,1884,2079,2246,2035,1796,1870,1998
856068,59760,27384,60434,27666,1491,829,463,87,320,19,581,4331,36,42,840,1781,1884,2079,2246,2035,1796,1870,1998
857069,59828,27432,60499,27731,1088,999,535,123,381,78,165,3773,45,39,844,1781,1884,2079,2246,2035,1796,1870,1998
858070,59880,27504,60564,27796,1303,691,558,130,429,493,495,4296,33,38,838,1781,1884,2079,2246,2035,1796,1870,1998
859071,59948,27552,60629,27861,1100,1012,546,140,478,345,233,3918,32,41,841,1781,1884,2079,2246,2035,1796,1870,1998
860072,59996,27620,60694,27926,1372,758,570,94,526,675,184,3487,45,32,841,1781,1884,2079,2246,2035,1796,1870,1998
861073,60056,27676,60759,27991,1228,919,632,62,596,417,241,3811,44,44,840,1781,1884,2079,2246,2035,1796,1870,1998
862074,60104,27736,60824,28056,1398,875,665,54,645,-34,363,3921,38,33,839,1781,1884,2079,2246,2035,1796,1870,1998
863075,60160,27784,60889,28121,1309,1047,649,38,670,261,810,3927,47,38,840,1781,1884,2079,2246,2035,1796,1870,1998
864076,60224,27852,60954,28186,1212,793,613,-8,713,468,737,3323,51,34,839,1781,1884,2079,2246,2035,1796,1870,1998
865077,60264,27920,61019,28251,1542,790,590,-82,744,145,616,3800,48,43,839,1781,1884,2079,2246,2035,1796,1870,1998
866078,60328,27992,61084,28316,1243,731,569,-160,741,-29,742,3593,42,36,841,1781,1884,2079,2246,2035,1796,1870,1998
867079,60376,28052,61149,28381,1465,887,552,-195,742,319,605,3593,35,45,839,1781,1884,2079,2246,2035,1796,1870,1998
868080,60448,28120,61214,28446,1157,783,531,-168,736,818,503,3874,47,43,841,1781,1884,2079,2246,2035,1796,1870,1998
869081,60504,28192,61279,28511,1368,725,521,-117,743,999,394,3631,36,42,838,1781,1884,2079,2246,2035,1796,1870,1998
870082,60556,28260,61344,28576,1433,771,530,-34,763,708,271,3786,39,40,840,1781,1884,2079,2246,2035,1796,1870,1998
871083,60620,28336,61409,28641,1286,658,539,39,796,612,238,3749,51,45,839,1781,1884,2079,2246,2035,1796,1870,1998
872084,60680,28404,61474,28706,1342,755,585,134,837,616,124,3840,40,55,839,1781,1884,2079,2246,2035,1796,1870,1998
873085,60740,28500,61539,28771,1348,367,637,178,882,324,161,3697,35,42,841,1781,1884,2079,2246,2035,1796,1870,1998
874086,60800,28580,61604,28836,1355,549,703,202,933,-116,68,3752,48,51,840,1781,1884,2079,2246,2035,1796,1870,1998
875087,60860,28640,61669,28901,1361,805,765,184,1002,-313,113,3724,46,38,842,1781,1884,2079,2246,2035,1796,1870,1998
876088,60912,28720,61734,28966,1477,537,844,160,1077,-492,203,3781,36,38,841,1781,1884,2079,2246,2035,1796,1870,1998
877089,60972,28800,61799,29031,1384,518,903,119,1133,-420,283,3724,38,45,839,1781,1884,2079,2246,2035,1796,1870,1998
878090,61028,28872,61864,29096,1445,610,955,66,1194,-564,413,3736,39,46,840,1781,1884,2079,2246,2035,1796,1870,1998
879091,61104,28960,61929,29161,1182,382,985,3,1239,-540,653,3743,46,46,841,1781,1884,2079,2246,2035,1796,1870,1998
880092,61156,29020,61994,29226,1497,738,1009,-59,1272,-528,711,3718,37,35,840,1781,1884,2079,2246,2035,1796,1870,1998
881093,61204,29076,62059,29291,1569,799,1011,-100,1301,-358,944,3732,47,46,843,1781,1884,2079,2246,2035,1796,1870,1998
882094,61268,29144,62124,29356,1370,645,996,-113,1315,-65,986,3914,36,38,839,1781,1884,2079,2246,2035,1796,1870,1998
883095,61324,29212,62189,29421,1481,643,972,-84,1313,388,1041,3946,55,50,838,1781,1884,2079,2246,2035,1796,1870,1998
884096,61372,29284,62254,29486,1603,584,931,-50,1303,603,1002,3845,38,43,840,1781,1884,2079,2246,2035,1796,1870,1998
885097,61452,29344,62319,29551,1185,740,887,9,1290,687,1018,4061,49,37,839,1781,1884,2079,2246,2035,1796,1870,1998
886098,61492,29404,62384,29616,1715,746,846,56,1278,663,846,4043,52,46,839,1781,1884,2079,2246,2035,1796,1870,1998
887099,61548,29484,62449,29681,1527,478,815,106,1265,710,687,4142,43,43,841,1781,1884,2079,2246,2035,1796,1870,1998
888100,61620,29564,62514,29746,1319,460,787,168,1243,795,513,4095,51,44,836,1781,1884,2079,2246,2035,1796,1870,1998
889101,61676,29628,62579,29811,1530,661,767,198,1235,686,405,4105,46,52,840,1781,1884,2079,2246,2035,1796,1870,1998
890102,61740,29680,62644,29876,1432,827,767,216,1222,394,275,4006,35,51,841,1781,1884,2079,2246,2035,1796,1870,1998
891103,61808,29752,62709,29941,1378,568,767,194,1216,57,160,3873,51,43,839,1781,1884,2079,2246,2035,1796,1870,1998
892104,61848,29828,62774,30006,1759,505,786,157,1227,-135,176,3882,46,40,839,1781,1884,2079,2246,2035,1796,1870,1998
893105,61896,29896,62839,30071,1681,601,789,127,1233,-309,132,3760,46,49,841,1781,1884,2079,2246,2035,1796,1870,1998
894106,61960,29980,62904,30136,1482,378,811,137,1243,-228,31,3949,34,41,837,1781,1884,2079,2246,2035,1796,1870,1998
895107,62008,30040,62969,30201,1704,684,832,137,1258,-267,238,3833,39,41,838,1781,1884,2079,2246,2035,1796,1870,1998
896108,62072,30116,63034,30266,1505,471,841,94,1272,-515,305,3482,40,41,840,1781,1884,2079,2246,2035,1796,1870,1998
897109,62108,30192,63099,30331,1890,458,850,64,1297,-504,442,3464,36,52,837,1781,1884,2079,2246,2035,1796,1870,1998
898110,62152,30248,63164,30396,1817,719,851,55,1320,-396,638,3693,41,52,840,1781,1884,2079,2246,2035,1796,1870,1998
899111,62212,30332,63229,30461,1623,346,853,94,1331,-219,726,3772,41,42,837,1781,1884,2079,2246,2035,1796,1870,1998
900112,62264,30380,63294,30526,1739,817,855,115,1334,-31,920,3688,37,46,836,1781,1884,2079,2246,2035,1796,1870,1998
901113,62328,30444,63359,30591,1591,618,863,120,1327,2,1149,3846,51,41,840,1781,1884,2079,2246,2035,1796,1870,1998
902114,62380,30516,63424,30656,1757,509,857,135,1310,-34,1278,3959,53,52,836,1781,1884,2079,2246,2035,1796,1870,1998
903115,62444,30580,63489,30721,1609,611,852,149,1278,142,1226,4038,39,50,838,1781,1884,2079,2246,2035,1796,1870,1998
904116,62500,30648,63554,30786,1720,557,840,158,1244,302,1214,4101,55,53,837,1781,1884,2079,2246,2035,1796,1870,1998
905117,62568,30724,63619,30851,1566,444,834,164,1202,424,1242,4269,46,42,838,1781,1884,2079,2246,2035,1796,1870,1998
906118,62628,30784,63684,30916,1674,650,821,145,1159,336,1068,4285,52,53,837,1781,1884,2079,2246,2035,1796,1870,1998
907119,62680,30848,63749,30981,1789,601,809,103,1111,257,993,4457,40,43,839,1781,1884,2079,2246,2035,1796,1870,1998
908120,62748,30904,63814,31046,1587,712,808,80,1068,258,958,4437,54,48,838,1781,1884,2079,2246,2035,1796,1870,1998
909121,62820,30980,63879,31111,1528,448,797,49,1040,255,648,4497,56,48,837,1781,1884,2079,2246,2035,1796,1870,1998
910122,62876,31056,63944,31176,1739,435,786,59,1002,361,676,4618,45,53,838,1781,1884,2079,2246,2035,1796,1870,1998
911123,62936,31132,64009,31241,1696,422,777,74,973,484,557,4529,34,44,840,1781,1884,2079,2246,2035,1796,1870,1998
912124,62980,31184,64074,31306,1922,737,762,86,969,308,278,4386,50,42,838,1781,1884,2079,2246,2035,1796,1870,1998
913125,63032,31268,64139,31371,1839,314,735,80,964,205,340,4197,32,49,838,1781,1884,2079,2246,2035,1796,1870,1998
914126,63112,31328,64204,31436,1471,620,706,62,953,173,191,4073,34,46,835,1781,1884,2079,2246,2035,1796,1870,1998
915127,63172,31412,64269,31501,1727,297,661,74,964,12,164,4019,36,52,838,1781,1884,2079,2246,2035,1796,1870,1998
916128,63208,31472,64334,31566,2063,603,624,124,969,-28,99,3905,44,41,839,1781,1884,2079,2246,2035,1796,1870,1998
917129,63264,31532,64399,31631,1824,609,587,121,975,65,103,3774,41,53,839,1781,1884,2079,2246,2035,1796,1870,1998
918130,63300,31604,64464,31696,2110,451,546,103,987,-157,228,3474,32,53,834,1781,1884,2079,2246,2035,1796,1870,1998
919131,63352,31668,64529,31761,1926,552,500,80,988,-294,453,3555,24,50,836,1781,1884,2079,2246,2035,1796,1870,1998
920132,63416,31744,64594,31826,1778,390,468,66,969,-235,546,3609,47,42,834,1781,1884,2079,2246,2035,1796,1870,1998
921133,63452,31800,64659,31891,2164,651,430,84,957,-249,581,3574,31,39,834,1781,1884,2079,2246,2035,1796,1870,1998
922134,63492,31872,64724,31956,2145,442,411,88,944,14,731,3827,32,43,837,1781,1884,2079,2246,2035,1796,1870,1998
923135,63552,31932,64789,32021,1902,598,409,100,923,42,679,4015,33,56,833,1781,1884,2079,2246,2035,1796,1870,1998
924136,63604,32008,64854,32086,2017,385,404,95,875,94,1062,3976,48,46,834,1781,1884,2079,2246,2035,1796,1870,1998
925137,63636,32064,64919,32151,2309,646,388,102,828,146,920,4172,46,49,836,1781,1884,2079,2246,2035,1796,1870,1998
926138,63712,32120,64984,32216,1745,657,385,123,769,464,1032,4200,33,40,836,1781,1884,2079,2246,2035,1796,1870,1998
927139,63776,32184,65049,32281,1897,558,380,140,715,573,1071,4280,56,39,832,1781,1884,2079,2246,2035,1796,1870,1998
928140,63832,32240,65114,32346,2008,669,388,176,654,533,1132,4648,40,37,836,1781,1884,2079,2246,2035,1796,1870,1998
929141,63880,32304,65179,32411,2130,570,399,226,588,648,1077,4807,40,41,836,1781,1884,2079,2246,2035,1796,1870,1998
930142,63944,32380,65244,32476,1931,407,415,274,551,776,946,4839,46,56,834,1781,1884,2079,2246,2035,1796,1870,1998
931143,64012,32436,65309,32541,1879,668,424,288,518,663,951,4647,47,52,833,1781,1884,2079,2246,2035,1796,1870,1998
932144,64068,32504,65374,32606,2040,514,424,278,493,453,733,4606,36,46,836,1781,1884,2079,2246,2035,1796,1870,1998
933145,64120,32564,65439,32671,2107,620,414,265,485,157,594,4366,28,39,835,1781,1884,2079,2246,2035,1796,1870,1998
934146,64164,32608,65504,32736,2232,846,393,255,492,16,412,4212,42,42,835,1781,1884,2079,2246,2035,1796,1870,1998
935147,64220,32668,65569,32801,2094,652,365,249,509,123,328,4166,32,43,833,1781,1884,2079,2246,2035,1796,1870,1998
936148,64272,32736,65634,32866,2160,548,345,243,538,177,257,4129,48,48,831,1781,1884,2079,2246,2035,1796,1870,1998
937149,64332,32808,65699,32931,2067,490,319,232,566,7,158,3948,41,50,833,1781,1884,2079,2246,2035,1796,1870,1998
938150,64396,32868,65764,32996,2018,646,283,206,582,-47,57,3670,33,59,832,1781,1884,2079,2246,2035,1796,1870,1998
939151,64432,32940,65829,33061,2405,487,249,186,593,26,98,3626,46,55,833,1781,1884,2079,2246,2035,1796,1870,1998
940152,64492,33008,65894,33126,2111,534,188,156,590,71,203,3401,24,52,834,1781,1884,2079,2246,2035,1796,1870,1998
941153,64540,33084,65959,33191,2283,420,135,118,574,173,290,3011,48,52,830,1781,1884,2079,2246,2035,1796,1870,1998
942154,64588,33148,66024,33256,2304,571,71,83,549,211,442,3126,32,54,833,1781,1884,2079,2246,2035,1796,1870,1998
943155,64648,33216,66089,33321,2161,518,33,75,517,149,446,3162,39,52,833,1781,1884,2079,2246,2035,1796,1870,1998
944156,64708,33292,66154,33386,2168,404,2,66,470,424,631,3299,37,59,832,1781,1884,2079,2246,2035,1796,1870,1998
945157,64776,33364,66219,33451,2064,446,-5,101,429,635,689,3638,31,59,833,1781,1884,2079,2246,2035,1796,1870,1998
946158,64816,33428,66284,33516,2445,547,-17,132,381,795,769,3712,33,55,834,1781,1884,2079,2246,2035,1796,1870,1998
947159,64868,33468,66349,33581,2311,878,-11,171,330,720,792,3649,23,62,835,1781,1884,2079,2246,2035,1796,1870,1998
948160,64948,33536,66414,33646,1944,525,-7,196,287,711,763,4068,47,54,830,1781,1884,2079,2246,2035,1796,1870,1998
949161,64988,33624,66479,33711,2475,247,14,234,239,623,871,3899,41,47,830,1781,1884,2079,2246,2035,1796,1870,1998
950162,65044,33708,66678,33910,2450,437,32,245,182,663,849,4080,22,57,835,1781,1884,2079,2246,2035,1796,1870,1998
951163,65120,33752,66743,33975,2188,963,46,232,167,371,597,4063,40,48,832,1781,1884,2079,2246,2035,1796,1870,1998
952164,65184,33824,66808,34040,2339,604,66,212,129,298,1374,3972,35,53,831,1781,1884,2079,2246,2035,1796,1870,1998
953165,65264,33888,66873,34105,2122,705,192,235,-74,957,3363,4416,39,49,831,1781,1884,2079,2246,2035,1796,1870,1998
954166,65324,33976,66938,34170,2378,377,311,369,-245,2588,2450,6654,56,47,832,1781,1884,2079,2246,2035,1796,1870,1998
955167,65400,34036,67003,34235,2165,733,415,442,-292,2005,2544,4106,32,55,832,1781,1884,2079,2246,2035,1796,1870,1998
956168,65468,34120,67068,34300,2263,410,545,510,-377,1006,3061,6947,48,61,831,1781,1884,2079,2246,2035,1796,1870,1998
957169,65532,34208,67133,34365,2314,332,580,642,-438,150,1950,4732,34,64,832,1781,1884,2079,2246,2035,1796,1870,1998
958170,65624,34264,67198,34430,1932,743,560,612,-436,1119,2243,3743,45,49,833,1781,1884,2079,2246,2035,1796,1870,1998
959171,65684,34340,67263,34495,2338,480,506,486,-420,588,1921,3113,62,61,833,1781,1884,2079,2246,2035,1796,1870,1998
960172,65752,34412,67328,34560,2235,521,436,348,-367,-1273,1714,3618,44,52,834,1781,1884,2079,2246,2035,1796,1870,1998
961173,65836,34492,67393,34625,2013,403,378,299,-325,-479,1560,3094,55,55,832,1781,1884,2079,2246,2035,1796,1870,1998
962174,65900,34560,67458,34690,2264,549,337,254,-251,479,1251,3159,43,65,833,1781,1884,2079,2246,2035,1796,1870,1998
963175,65972,34632,67523,34755,2157,491,314,257,-220,991,1503,3766,46,52,835,1781,1884,2079,2246,2035,1796,1870,1998
964176,66044,34716,67588,34820,2148,318,277,242,-191,396,1113,2892,38,52,832,1781,1884,2079,2246,2035,1796,1870,1998
965177,66108,34796,67653,34885,2250,350,259,306,-214,868,1103,4023,39,49,833,1781,1884,2079,2246,2035,1796,1870,1998
966178,66168,34872,67718,34950,2308,387,244,411,-271,1819,1290,3636,45,50,835,1781,1884,2079,2246,2035,1796,1870,1998
967179,66232,34944,67783,35015,2259,428,245,515,-333,1903,1238,3634,38,59,833,1781,1884,2079,2246,2035,1796,1870,1998
968180,66312,35020,67848,35080,2042,365,248,610,-449,1991,1848,4259,52,60,833,1781,1884,2079,2246,2035,1796,1870,1998
969181,66376,35084,67913,35145,2243,516,262,669,-575,1866,1813,3828,57,62,833,1781,1884,2079,2246,2035,1796,1870,1998
970182,66436,35148,67978,35210,2300,517,280,703,-719,1889,2128,3970,51,55,835,1781,1884,2079,2246,2035,1796,1870,1998
971183,66504,35228,68043,35275,2197,299,304,737,-856,1824,2338,4480,48,56,833,1781,1884,2079,2246,2035,1796,1870,1998
972184,66588,35284,68108,35340,1974,610,317,785,-983,1690,2654,4536,42,49,831,1781,1884,2079,2246,2035,1796,1870,1998
973185,66664,35356,68173,35405,2062,401,347,821,-1134,1775,2945,4662,54,54,832,1781,1884,2079,2246,2035,1796,1870,1998
974186,66744,35428,68238,35470,1993,393,360,857,-1240,1129,2974,4714,46,56,835,1781,1884,2079,2246,2035,1796,1870,1998
975187,66844,35492,68303,35535,1702,494,375,911,-1331,876,2922,4814,52,57,835,1781,1884,2079,2246,2035,1796,1870,1998
976188,66908,35552,68368,35600,2153,550,371,957,-1325,1295,2370,4990,56,58,835,1781,1884,2079,2246,2035,1796,1870,1998
977189,66988,35632,68433,35665,1935,282,400,958,-1334,900,3273,4698,43,46,838,1781,1884,2079,2246,2035,1796,1870,1998
978190,67080,35696,68498,35730,1752,483,377,907,-1312,-170,2703,4142,54,57,833,1781,1884,2079,2246,2035,1796,1870,1998
979191,67160,35748,68563,35795,1885,649,347,916,-1274,-351,2646,4394,57,46,836,1781,1884,2079,2246,2035,1796,1870,1998
980192,67224,35808,68628,35860,2087,555,309,912,-1233,453,2415,3674,48,55,838,1781,1884,2079,2246,2035,1796,1870,1998
981193,67320,35884,68693,35925,1650,342,291,916,-1151,532,2181,3962,43,44,835,1781,1884,2079,2246,2035,1796,1870,1998
982194,67404,35932,68758,35990,1777,712,246,839,-1102,-129,2379,3250,61,46,834,1781,1884,2079,2246,2035,1796,1870,1998
983195,67488,36008,68823,36055,1754,349,224,824,-1056,-98,1728,3455,50,50,839,1781,1884,2079,2246,2035,1796,1870,1998
984196,67576,36068,68888,36120,1677,555,198,793,-997,590,1549,3024,49,44,836,1781,1884,2079,2246,2035,1796,1870,1998
985197,67668,36116,68953,36185,1594,726,164,780,-955,1146,1224,3321,55,41,838,1781,1884,2079,2246,2035,1796,1870,1998
986198,67752,36200,69018,36250,1672,253,126,824,-980,1260,1492,3095,65,43,837,1781,1884,2079,2246,2035,1796,1870,1998
987199,67832,36272,69083,36315,1704,394,77,803,-1005,1013,1184,2922,49,49,838,1781,1884,2079,2246,2035,1796,1870,1998
988200,67908,36324,69148,36380,1741,660,28,819,-1038,1626,1129,3412,57,52,839,1781,1884,2079,2246,2035,1796,1870,1998
989201,68012,36392,69213,36445,1344,456,-39,871,-1104,1940,1408,3044,53,59,838,1781,1884,2079,2246,2035,1796,1870,1998
990202,68100,36476,69278,36510,1516,233,-109,876,-1200,1596,1650,3285,57,59,836,1781,1884,2079,2246,2035,1796,1870,1998
991203,68188,36528,69343,36575,1488,649,-155,931,-1310,1089,1607,3477,52,50,841,1781,1884,2079,2246,2035,1796,1870,1998
992204,68268,36616,69408,36640,1570,171,-220,929,-1401,1572,1753,3338,69,55,841,1781,1884,2079,2246,2035,1796,1870,1998
993205,68364,36660,69473,36705,1333,746,-307,909,-1491,1588,2239,3379,70,47,839,1781,1884,2079,2246,2035,1796,1870,1998
994206,68456,36756,69538,36770,1350,59,-402,838,-1581,722,2313,2693,58,60,840,1781,1884,2079,2246,2035,1796,1870,1998
995207,68556,36828,69603,36835,1209,350,-514,764,-1653,362,2601,3527,55,46,840,1781,1884,2079,2246,2035,1796,1870,1998
996208,68640,36896,69668,36900,1385,396,-626,708,-1702,401,2628,3048,64,44,843,1781,1884,2079,2246,2035,1796,1870,1998
997209,68732,36960,69733,36965,1252,448,-706,649,-1720,211,2553,3105,59,46,842,1781,1884,2079,2246,2035,1796,1870,1998
998210,68824,37040,69798,37030,1220,229,-785,597,-1724,-46,2695,3338,52,59,841,1781,1884,2079,2246,2035,1796,1870,1998
999211,68880,37116,69863,37095,1681,266,-828,556,-1700,-474,2580,3273,54,52,842,1781,1884,2079,2246,2035,1796,1870,1998
1000212,68984,37196,69928,37160,1035,198,-870,511,-1644,-572,2398,3277,45,46,843,1781,1884,2079,2246,2035,1796,1870,1998
1001213,69076,37264,69993,37225,1152,344,-887,543,-1571,-73,2227,3804,64,47,839,1781,1884,2079,2246,2035,1796,1870,1998
1002214,69152,37324,70058,37290,1338,450,-873,554,-1499,167,2318,3180,58,43,844,1781,1884,2079,2246,2035,1796,1870,1998
1003215,69248,37404,70123,37355,1052,182,-834,560,-1427,-418,1924,3535,52,50,843,1781,1884,2079,2246,2035,1796,1870,1998
1004216,69332,37480,70188,37420,1178,218,-803,594,-1361,-165,1562,3520,54,50,842,1781,1884,2079,2246,2035,1796,1870,1998
1005217,69428,37560,70253,37485,991,150,-769,640,-1302,203,1498,3404,60,48,844,1781,1884,2079,2246,2035,1796,1870,1998
1006218,69500,37628,70318,37550,1283,296,-731,649,-1270,62,1392,3049,64,48,843,1781,1884,2079,2246,2035,1796,1870,1998
1007219,69580,37700,70383,37615,1165,238,-696,657,-1274,69,1360,2854,42,45,845,1781,1884,2079,2246,2035,1796,1870,1998
1008220,69672,37764,70448,37680,982,339,-701,654,-1297,96,1354,3020,45,57,842,1781,1884,2079,2246,2035,1796,1870,1998
1009221,69740,37816,70513,37745,1278,505,-720,650,-1335,495,1383,2692,45,57,843,1781,1884,2079,2246,2035,1796,1870,1998
1010222,69824,37904,70578,37810,1056,27,-758,592,-1393,390,1617,2308,46,48,844,1781,1884,2079,2246,2035,1796,1870,1998
1011223,69908,37984,70643,37875,1033,108,-818,535,-1464,89,1648,2599,53,58,842,1781,1884,2079,2246,2035,1796,1870,1998
1012224,70000,38064,70708,37940,900,90,-901,474,-1543,171,1669,2379,63,56,845,1781,1884,2079,2246,2035,1796,1870,1998
1013225,70088,38116,70773,38005,923,456,-1005,418,-1616,283,1666,2316,48,54,845,1781,1884,2079,2246,2035,1796,1870,1998
1014226,70180,38192,70838,38070,840,143,-1116,359,-1680,166,1867,2242,43,57,845,1781,1884,2079,2246,2035,1796,1870,1998
1015227,70272,38260,70903,38135,807,239,-1232,305,-1734,-121,1775,2289,44,47,844,1781,1884,2079,2246,2035,1796,1870,1998
1016228,70360,38336,70968,38200,829,124,-1341,264,-1783,5,1636,2347,58,55,846,1781,1884,2079,2246,2035,1796,1870,1998
1017229,70444,38432,71033,38265,856,-163,-1445,248,-1809,-93,1593,2613,55,57,846,1781,1884,2079,2246,2035,1796,1870,1998
1018230,70536,38516,71098,38330,724,-37,-1531,218,-1815,-250,1515,2459,60,55,846,1781,1884,2079,2246,2035,1796,1870,1998
1019231,70612,38596,71163,38395,910,-5,-1585,179,-1792,-493,1290,2516,54,43,846,1781,1884,2079,2246,2035,1796,1870,1998
1020232,70716,38676,71228,38460,513,-23,-1613,172,-1759,-453,1343,2877,45,52,847,1781,1884,2079,2246,2035,1796,1870,1998
1021233,70804,38724,71293,38525,684,398,-1621,169,-1700,-584,1142,2930,59,52,846,1781,1884,2079,2246,2035,1796,1870,1998
1022234,70904,38796,71358,38590,493,89,-1596,168,-1625,-660,1124,2848,49,45,848,1781,1884,2079,2246,2035,1796,1870,1998
1023235,70984,38876,71423,38655,724,-29,-1548,148,-1547,-749,1128,2921,41,52,845,1781,1884,2079,2246,2035,1796,1870,1998
1024236,71080,38936,71488,38720,487,227,-1486,120,-1486,-1065,1095,3199,57,53,847,1781,1884,2079,2246,2035,1796,1870,1998
1025237,71164,39012,71553,38785,613,13,-1425,91,-1420,-1074,1025,2857,54,45,847,1781,1884,2079,2246,2035,1796,1870,1998
1026238,71252,39080,71618,38850,535,110,-1355,60,-1360,-903,1098,3033,54,39,847,1781,1884,2079,2246,2035,1796,1870,1998
1027239,71328,39172,71683,38915,672,-223,-1287,28,-1349,-631,1291,2953,36,48,848,1781,1884,2079,2246,2035,1796,1870,1998
1028240,71408,39256,71748,38980,605,-146,-1241,-22,-1344,-880,1210,2635,52,36,849,1781,1884,2079,2246,2035,1796,1870,1998
1029241,71496,39332,71813,39045,476,-61,-1215,-46,-1359,-865,1414,2795,45,50,847,1781,1884,2079,2246,2035,1796,1870,1998
