%  Data file recorded 2016/10/6  22:53:18
%  Stride Frequency         = [1, 1]
%  Lead In /Lead Out        = 
%  Deltas (Fractional)      = [0.25, 0.25, 0.25],[0.25, 0.25, 0.25]
%  Phase                    = 32768
%  Experiment.py 
%  Motor Gains    = [5000, 400, 200, 0, 300, 5000, 400, 200, 0, 300]
% Columns: 
% time | Right Leg Pos | Left Leg Pos | Commanded Right Leg Pos | Commanded Left Leg Pos | DCR | DCL | GyroX | GyroY | GyroZ | AX | AY | AZ | RBEMF | LBEMF | VBatt | S1 | S2 | S3 | S4 | S5 | S6 | S7 | S8
439,17736,-18528,15890,-16878,-3800,-2650,-146,145,-6,-66,25,3900,-6,-8,894,1787,1884,2091,2289,2063,1828,1881,1999
1440,17732,-18520,15890,-16878,-3800,-2910,-148,145,-7,-87,20,3908,-8,-2,894,1787,1884,2091,2289,2063,1828,1881,1999
2441,17728,-18516,15890,-16878,-3800,-2864,-147,144,-5,-65,27,3889,-4,2,894,1787,1884,2091,2289,2063,1828,1881,1999
3442,17732,-18524,15890,-16878,-3800,-2703,-145,144,-3,-69,26,3909,8,6,894,1787,1884,2091,2289,2063,1828,1881,1999
4443,17732,-18516,15890,-16878,-3800,-2913,-143,144,-5,-44,8,3922,0,-3,893,1788,1885,2092,2288,2062,1827,1878,1999
5444,17728,-18524,15890,-16878,-3800,-2702,-144,144,-10,-89,-8,3934,-10,-8,893,1788,1885,2092,2288,2062,1827,1878,1999
6445,17728,-18524,15890,-16878,-3800,-2802,-147,143,-8,-79,10,3911,-6,-4,893,1788,1885,2092,2288,2062,1827,1878,1999
7446,17736,-18508,15890,-16878,-3800,-3021,-150,143,-8,-56,-8,3924,8,6,894,1788,1885,2092,2288,2062,1827,1878,1999
8447,17724,-18524,15890,-16878,-3800,-2600,-149,143,-7,-60,22,3901,6,4,894,1788,1885,2092,2288,2062,1827,1878,1999
9448,17728,-18528,15890,-16878,-3800,-2745,-147,143,-7,-58,29,3916,-10,-4,894,1789,1886,2093,2289,2061,1828,1878,1999
10449,17740,-18524,15890,-16878,-3800,-2849,-145,146,-6,-79,15,3933,-8,-8,894,1789,1886,2093,2289,2061,1828,1878,1999
11450,17736,-18516,15890,-16878,-3800,-2908,-144,145,-7,-92,9,3947,6,-3,894,1789,1886,2093,2289,2061,1828,1878,1999
12451,17720,-18520,15890,-16878,-3800,-2753,-144,144,-8,-71,10,3919,4,4,894,1789,1886,2093,2289,2061,1828,1878,1999
13452,17728,-18512,15890,-16878,-3800,-2912,-145,143,-8,-76,20,3935,-7,-2,894,1789,1886,2093,2289,2061,1828,1878,1999
14453,17724,-18520,15890,-16878,-3800,-2702,-146,142,-7,-57,19,3890,-11,-8,894,1789,1886,2093,2289,2061,1828,1878,1999
15454,17732,-18512,15890,-16878,-3800,-2911,-146,142,-6,-48,35,3898,6,-5,894,1787,1884,2090,2288,2061,1829,1877,1999
16455,17732,-18520,15890,-16878,-3800,-2700,-145,142,-5,-67,27,3941,6,6,893,1787,1884,2090,2288,2061,1829,1877,1999
17456,17732,-18516,15890,-16878,-3800,-2855,-144,142,-5,-91,47,3927,-3,-2,894,1787,1884,2090,2288,2061,1829,1877,1999
18457,17728,-18524,15890,-16878,-3800,-2694,-145,142,-7,-100,23,3907,-10,-8,893,1787,1884,2090,2288,2061,1829,1877,1999
19458,17728,-18524,15890,-16878,-3800,-2793,-146,144,-7,-62,19,3935,2,2,892,1787,1884,2090,2288,2061,1829,1877,1999
20459,17740,-18524,15890,-16878,-3800,-2793,-145,145,-4,-57,24,3929,2,6,891,1788,1884,2092,2289,2061,1827,1877,1999
21460,17728,-18508,15890,-16878,-3800,-3012,-144,145,-6,-77,5,3935,-10,-2,894,1788,1884,2092,2289,2061,1827,1877,1999
22461,17748,-18512,15890,-16878,-3800,-2757,-141,142,-6,-66,34,3910,-11,-6,894,1788,1884,2092,2289,2061,1827,1877,1999
23462,17736,-18516,15890,-16878,-3800,-2751,-142,145,-4,-56,19,3929,-10,2,893,1788,1884,2092,2289,2061,1827,1877,1999
24463,17728,-18512,15890,-16878,-3800,-2855,-143,147,-4,-59,11,3896,-11,6,894,1788,1884,2092,2289,2061,1827,1877,1999
25464,17732,-18520,15890,-16878,-3800,-2695,-144,145,-7,-60,23,3891,-8,-7,894,1788,1884,2092,2289,2061,1827,1877,1999
26465,17736,-18516,15890,-16878,-3800,-2849,-142,144,-9,-56,48,3918,-3,-5,894,1790,1886,2092,2289,2062,1828,1879,2001
27466,17736,-18528,15890,-16878,-3800,-2633,-144,146,-6,-66,19,3913,8,6,894,1790,1886,2092,2289,2062,1828,1879,2001
28467,17736,-18524,15890,-16878,-3800,-2838,-145,144,-6,-59,37,3869,8,-5,894,1790,1886,2092,2289,2062,1828,1879,2001
29468,17732,-18516,15890,-16878,-3800,-2897,-144,144,-7,-67,48,3911,1,-8,893,1790,1886,2092,2289,2062,1828,1879,2001
30469,17740,-18516,15890,-16878,-3800,-2797,-144,146,-8,-82,16,3960,-10,1,893,1790,1886,2092,2289,2062,1828,1879,2001
31470,17732,-18520,15890,-16878,-3800,-2741,-142,146,-5,-70,27,3920,-11,0,894,1788,1884,2091,2288,2061,1826,1878,2002
32471,17736,-18524,15890,-16878,-3800,-2735,-143,144,-5,-59,18,3904,-9,-8,894,1788,1884,2091,2288,2061,1826,1878,2002
33472,17728,-18520,15890,-16878,-3800,-2840,-143,144,-4,-42,30,3932,7,-7,894,1788,1884,2091,2288,2061,1826,1878,2002
34473,17720,-18520,15890,-16878,-3800,-2789,-142,144,-4,-62,2,3946,3,6,894,1788,1884,2091,2288,2061,1826,1878,2002
35474,17728,-18524,15890,-16878,-3800,-2733,-143,144,-6,-75,17,3930,-10,2,893,1788,1884,2091,2288,2061,1826,1878,2002
36475,17736,-18524,15890,-16878,-3800,-2783,-144,144,-7,-78,34,3926,8,-1,892,1788,1884,2091,2288,2061,1826,1878,2002
37476,17744,-18516,15890,-16878,-3800,-2892,-143,144,-7,-66,21,3930,-11,-8,892,1788,1884,2090,2288,2062,1828,1879,2000
38477,17736,-18520,15890,-16878,-3800,-2737,-142,145,-7,-44,19,3918,-3,-6,894,1788,1884,2090,2288,2062,1828,1879,2000
39478,17728,-18516,15890,-16878,-3800,-2841,-145,145,-4,-41,19,3935,7,2,894,1788,1884,2090,2288,2062,1828,1879,2000
40479,17728,-18508,15890,-16878,-3800,-2900,-146,142,-1,-59,49,3935,-7,5,894,1788,1884,2090,2288,2062,1828,1879,2000
41480,17732,-18516,15890,-16878,-3800,-2690,-145,140,-4,-79,54,3909,-9,-2,894,1788,1884,2090,2288,2062,1828,1879,2000
42481,17732,-18524,15890,-16878,-3800,-2679,-145,142,-6,-71,19,3912,8,-8,893,1789,1888,2092,2289,2063,1829,1879,2002
43482,17740,-18508,15890,-16878,-3800,-2998,-145,143,-5,-72,17,3912,1,-4,893,1789,1888,2092,2289,2063,1829,1879,2002
44483,17728,-18524,15890,-16878,-3800,-2578,-145,143,-5,-60,29,3937,-11,2,893,1789,1888,2092,2289,2063,1829,1879,2002
45484,17740,-18520,15890,-16878,-3800,-2832,-144,143,-7,-67,40,3956,4,6,894,1789,1888,2092,2289,2063,1829,1879,2002
46485,17732,-18520,15890,-16878,-3800,-2782,-147,144,-6,-72,53,3919,8,-4,894,1789,1888,2092,2289,2063,1829,1879,2002
47486,17740,-18524,15890,-16878,-3800,-2726,-149,145,-7,-50,29,3878,-1,-8,893,1789,1888,2092,2289,2063,1829,1879,2002
48487,17720,-18520,15890,-16878,-3800,-2830,-148,144,-5,-56,26,3909,-11,-3,894,1787,1883,2093,2287,2061,1830,1882,2004
49488,17728,-18516,15890,-16878,-3800,-2835,-146,143,-4,-64,21,3959,2,5,894,1787,1883,2093,2287,2061,1830,1882,2004
50489,17732,-18520,15890,-16878,-3800,-2729,-145,144,-5,-66,21,3943,8,-5,893,1787,1883,2093,2287,2061,1830,1882,2004
51490,17732,-18520,15890,-16878,-3800,-2779,-147,145,-8,-48,34,3938,0,-8,893,1787,1883,2093,2287,2061,1830,1882,2004
52491,17724,-18520,15890,-16878,-3800,-2778,-146,145,-7,-70,35,3940,-2,5,894,1787,1883,2093,2287,2061,1830,1882,2004
53492,17736,-18512,15890,-16878,-3800,-2887,-147,146,-6,-71,43,3950,-11,7,891,1787,1883,2091,2288,2062,1828,1878,1999
54493,17732,-18520,15890,-16878,-3800,-2677,-145,146,-6,-72,26,3946,8,6,892,1787,1883,2091,2288,2062,1828,1878,1999
55494,17720,-18520,15890,-16878,-3800,-2776,-147,146,-5,-54,55,3930,8,-7,894,1787,1883,2091,2288,2062,1828,1878,1999
56495,17728,-18512,15890,-16878,-3800,-2885,-148,144,-4,-44,41,3903,8,-7,894,1787,1883,2091,2288,2062,1828,1878,1999
57496,17720,-18528,15890,-16878,-3800,-2565,-149,144,-7,-59,33,3901,8,4,894,1787,1883,2091,2288,2062,1828,1878,1999
58497,17724,-18520,15890,-16878,-3800,-2874,-149,144,-7,-47,42,3870,8,-2,893,1787,1883,2091,2288,2062,1828,1878,1999
59498,17740,-18520,15890,-16878,-3800,-2774,-148,143,-7,-51,56,3888,6,-8,893,1788,1885,2092,2289,2062,1828,1879,2000
60499,17732,-18524,15890,-16878,-3800,-2718,-148,144,-6,-58,14,3918,-7,-3,894,1788,1885,2092,2289,2062,1828,1879,2000
61500,17716,-18516,15890,-16878,-3800,-2877,-146,142,-5,-45,19,3908,-11,5,893,1788,1885,2092,2289,2062,1828,1879,2000
62501,17732,-18524,15890,-16878,-3800,-2667,-147,142,-8,-39,28,3930,-10,-7,894,1788,1885,2092,2289,2062,1828,1879,2000
63502,17736,-18528,15890,-16878,-3800,-2711,-148,141,-9,-58,43,3955,2,-6,893,1788,1885,2092,2289,2062,1828,1879,2000
64503,17748,-18520,15890,-16878,-3800,-2870,-147,141,-7,-56,28,3934,6,6,894,1787,1882,2090,2290,2063,1829,1880,2000
65504,17728,-18512,15890,-16878,-3800,-2880,-143,143,-4,-78,21,3922,8,1,894,1787,1882,2090,2290,2063,1829,1880,2000
66505,17724,-18516,15890,-16878,-3800,-2724,-142,142,-6,-91,40,3946,-7,-7,893,1787,1882,2090,2290,2063,1829,1880,2000
67506,17724,-18520,15890,-16878,-3800,-2719,-144,142,-8,-63,17,3919,-11,0,893,1787,1882,2090,2290,2063,1829,1880,2000
68507,17724,-18516,15890,-16878,-3800,-2823,-146,144,-9,-51,14,3923,-8,6,893,1787,1882,2090,2290,2063,1829,1880,2000
69508,17732,-18512,15890,-16878,-3800,-2827,-144,144,-8,-61,24,3930,6,-1,894,1787,1882,2090,2290,2063,1829,1880,2000
70509,17732,-18516,15890,-16878,-3800,-2722,-145,146,-8,-53,32,3938,7,-8,892,1788,1884,2091,2289,2062,1827,1878,1999
71510,17736,-18520,15890,-16878,-3800,-2716,-146,145,-11,-53,24,3927,-11,-8,891,1788,1884,2091,2289,2062,1827,1878,1999
72511,17744,-18524,15890,-16878,-3800,-2710,-145,144,-9,-61,48,3898,3,-4,894,1788,1884,2091,2289,2062,1827,1878,1999
73512,17732,-18524,15890,-16878,-3800,-2760,-145,142,-5,-66,45,3873,7,6,894,1788,1884,2091,2289,2062,1827,1878,1999
74513,17716,-18516,15890,-16878,-3800,-2869,-143,142,-7,-68,29,3893,8,-2,893,1788,1884,2091,2289,2062,1827,1878,1999
75514,17732,-18516,15890,-16878,-3800,-2769,-143,142,-8,-81,24,3914,3,-8,894,1789,1886,2093,2290,2062,1828,1878,2001
76515,17736,-18512,15890,-16878,-3800,-2823,-144,142,-9,-65,42,3946,-3,5,894,1789,1886,2093,2290,2062,1828,1878,2001
77516,17728,-18516,15890,-16878,-3800,-2717,-142,143,-10,-63,59,3922,-7,4,894,1789,1886,2093,2290,2062,1828,1878,2001
78517,17740,-18516,15890,-16878,-3800,-2767,-141,144,-7,-51,26,3922,-11,-7,893,1789,1886,2093,2290,2062,1828,1878,2001
79518,17740,-18520,15890,-16878,-3800,-2711,-143,147,-5,-63,19,3912,-3,1,894,1789,1886,2093,2290,2062,1828,1878,2001
80519,17740,-18516,15890,-16878,-3800,-2815,-145,145,-6,-90,37,3903,7,6,893,1789,1886,2093,2290,2062,1828,1878,2001
81520,17732,-18524,15890,-16878,-3800,-2655,-145,144,-6,-71,13,3950,3,1,893,1787,1886,2093,2292,2064,1828,1878,2002
82521,17732,-18516,15890,-16878,-3800,-2864,-144,146,-5,-57,19,3914,-1,-8,894,1787,1886,2093,2292,2064,1828,1878,2002
83522,17732,-18528,15890,-16878,-3800,-2599,-144,145,-8,-64,32,3921,-5,-2,893,1787,1886,2093,2292,2064,1828,1878,2002
84523,17728,-18528,15890,-16878,-3800,-2748,-146,145,-7,-69,10,3950,-10,6,894,1787,1886,2093,2292,2064,1828,1878,2002
85524,17724,-18512,15890,-16878,-3800,-2967,-145,145,-6,-81,10,3927,-11,-6,893,1787,1886,2093,2292,2064,1828,1878,2002
86525,17728,-18516,15890,-16878,-3800,-2712,-143,146,-7,-69,48,3934,-10,-8,894,1789,1885,2092,2289,2062,1829,1879,1999
87526,17724,-18524,15890,-16878,-3800,-2651,-145,146,-7,-76,51,3937,7,-1,892,1789,1885,2092,2289,2062,1829,1879,1999
88527,17724,-18520,15890,-16878,-3800,-2805,-144,144,-8,-92,46,3927,1,6,892,1789,1885,2092,2289,2062,1829,1879,1999
89528,17748,-18520,15890,-16878,-3800,-2755,-143,143,-8,-75,51,3933,-6,2,893,1789,1885,2092,2289,2062,1829,1879,1999
90529,17732,-18516,15890,-16878,-3800,-2809,-144,143,-4,-67,38,3919,-11,-8,894,1789,1885,2092,2289,2062,1829,1879,1999
91530,17732,-18516,15890,-16878,-3800,-2759,-144,142,-3,-77,25,3930,-7,2,894,1789,1885,2092,2289,2062,1829,1879,1999
92531,17732,-18524,15890,-16878,-3800,-2648,-145,142,-6,-63,28,3933,-1,6,894,1789,1885,2092,2290,2064,1828,1879,2000
93532,17732,-18512,15890,-16878,-3800,-2912,-145,142,-8,-58,26,3922,8,-5,893,1789,1885,2092,2290,2064,1828,1879,2000
94533,17732,-18520,15890,-16878,-3800,-2652,-143,145,-7,-53,44,3931,8,-1,893,1789,1885,2092,2290,2064,1828,1879,2000
95534,17740,-18516,15890,-16878,-3800,-2806,-144,145,-5,-54,26,3925,6,6,894,1789,1885,2092,2290,2064,1828,1879,2000
96535,17736,-18516,15890,-16878,-3800,-2755,-145,142,-4,-80,27,3924,-1,4,893,1789,1885,2092,2290,2064,1828,1879,2000
97536,17732,-18516,15890,-16878,-3800,-2755,-144,144,-7,-59,18,3921,-4,-9,894,1790,1885,2092,2289,2064,1829,1879,2001
98537,17736,-18508,15890,-16878,-3800,-2864,-144,146,-7,-64,33,3932,-10,-1,893,1790,1885,2092,2289,2064,1829,1879,2001
99538,17740,-18528,15890,-16878,-3800,-2489,-142,146,-6,-88,38,3954,-7,6,894,1790,1885,2092,2289,2064,1829,1879,2001
100539,17724,-18516,15890,-16878,-3800,-2903,-142,144,-7,-65,25,3954,-3,-6,893,1790,1885,2092,2289,2064,1829,1879,2001
101540,17716,-18516,15890,-16878,-3800,-2752,-145,142,-7,-81,37,3946,6,-7,893,1790,1885,2092,2289,2064,1829,1879,2001
102541,17728,-18516,15890,-16878,-3800,-2752,-146,140,-4,-89,13,3939,3,5,894,1789,1884,2091,2289,2063,1829,1877,1998
103542,17724,-18532,15890,-16878,-3800,-2531,-146,142,-3,-66,31,3904,0,-7,894,1789,1884,2091,2289,2063,1829,1877,1998
104543,17736,-18516,15890,-16878,-3800,-2950,-147,145,-3,-56,26,3905,-10,-7,891,1789,1884,2091,2289,2063,1829,1877,1998
105544,17736,-18528,15890,-16878,-3800,-2585,-146,146,-4,-59,29,3926,6,2,892,1789,1884,2091,2289,2063,1829,1877,1998
106545,17728,-18512,15890,-16878,-3800,-2954,-146,144,-4,-75,27,3905,8,-2,894,1789,1884,2091,2289,2063,1829,1877,1998
107546,17724,-18516,15890,-16878,-3800,-2699,-146,142,-7,-95,38,3966,9,-8,894,1789,1884,2091,2289,2063,1829,1877,1998
108547,17728,-18528,15890,-16878,-3800,-2583,-144,142,-6,-74,47,3957,-3,0,893,1789,1884,2092,2289,2062,1827,1879,1999
109548,17740,-18520,15890,-16878,-3800,-2842,-145,145,-5,-88,32,3914,-9,2,894,1789,1884,2092,2289,2062,1827,1879,1999
110549,17728,-18516,15890,-16878,-3800,-2797,-146,146,-6,-53,41,3900,-11,-8,894,1789,1884,2092,2289,2062,1827,1879,1999
111550,17720,-18516,15890,-16878,-3800,-2746,-145,145,-7,-42,13,3942,-2,1,894,1789,1884,2092,2289,2062,1827,1879,1999
112551,17728,-18520,15890,-16878,-3800,-2690,-145,145,-6,-52,22,3927,2,0,893,1789,1884,2092,2289,2062,1827,1879,1999
113552,17732,-18528,15890,-16878,-3800,-2630,-147,143,-4,-52,38,3959,5,-8,894,1789,1884,2090,2288,2061,1827,1879,2000
114553,17736,-18524,15890,-16878,-3800,-2784,-145,144,-5,-58,38,3937,8,3,894,1789,1884,2090,2288,2061,1827,1879,2000
115554,17724,-18520,15890,-16878,-3800,-2789,-146,145,-7,-54,21,3918,3,-1,894,1789,1884,2090,2288,2061,1827,1879,2000
116555,17736,-18516,15890,-16878,-3800,-2793,-146,144,-8,-76,35,3947,-3,-8,893,1789,1884,2090,2288,2061,1827,1879,2000
117556,17732,-18520,15890,-16878,-3800,-2687,-144,142,-9,-58,38,3960,-11,-4,893,1789,1884,2090,2288,2061,1827,1879,2000
118557,17740,-18520,15890,-16878,-3800,-2737,-143,143,-7,-48,30,3895,-11,6,894,1789,1884,2090,2288,2061,1827,1879,2000
119558,17744,-18512,15890,-16878,-3800,-2846,-143,143,-6,-71,28,3882,-7,-3,894,1789,1884,2091,2287,2059,1826,1878,1999
120559,17736,-18528,15890,-16878,-3800,-2526,-144,144,-4,-77,29,3936,5,-7,894,1789,1884,2091,2287,2059,1826,1878,1999
121560,17732,-18516,15890,-16878,-3800,-2890,-145,143,-8,-97,46,3947,5,7,892,1789,1884,2091,2287,2059,1826,1878,1999
122561,17736,-18524,15890,-16878,-3800,-2629,-143,140,-8,-74,44,3938,-11,2,891,1789,1884,2091,2287,2059,1826,1878,1999
123562,17740,-18516,15890,-16878,-3800,-2839,-145,140,-7,-45,36,3911,-2,-6,893,1789,1884,2091,2287,2059,1826,1878,1999
124563,17728,-18520,15890,-16878,-3800,-2683,-147,141,-7,-34,0,3914,6,-5,894,1789,1885,2090,2288,2062,1828,1878,1999
125564,17728,-18520,15890,-16878,-3800,-2732,-147,145,-9,-55,30,3908,9,6,893,1789,1885,2090,2288,2062,1828,1878,1999
126565,17736,-18528,15890,-16878,-3800,-2622,-145,144,-9,-88,61,3926,-3,-3,894,1789,1885,2090,2288,2062,1828,1878,1999
127566,17724,-18516,15890,-16878,-3800,-2886,-145,145,-7,-83,49,3941,-6,-1,894,1789,1885,2090,2288,2062,1828,1878,1999
128567,17736,-18512,15890,-16878,-3800,-2791,-146,144,-6,-63,29,3935,-8,6,893,1789,1885,2090,2288,2062,1828,1878,1999
129568,17732,-18516,15890,-16878,-3800,-2685,-146,142,-7,-59,21,3952,-9,-7,893,1789,1885,2090,2288,2062,1828,1878,1999
130569,17732,-18528,15890,-16878,-3800,-2569,-144,142,-8,-49,19,3920,-4,6,894,1788,1884,2090,2288,2062,1827,1879,2001
131570,17732,-18524,15890,-16878,-3800,-2774,-143,143,-10,-83,15,3908,6,-4,894,1788,1884,2090,2288,2062,1827,1879,2001
132571,17724,-18520,15890,-16878,-3800,-2778,-143,143,-7,-76,19,3918,1,-4,893,1788,1884,2090,2288,2062,1827,1879,2001
133572,17728,-18528,15890,-16878,-3800,-2617,-146,143,-7,-51,43,3935,-10,0,893,1788,1884,2090,2288,2062,1827,1879,2001
134573,17744,-18528,15890,-16878,-3800,-2717,-145,144,-6,-63,32,3933,-11,-8,894,1788,1884,2090,2288,2062,1827,1879,2001
135574,17736,-18516,15890,-16878,-3800,-2881,-146,145,-7,-72,40,3951,2,6,894,1789,1884,2091,2287,2063,1827,1875,2002
136575,17724,-18524,15890,-16878,-3800,-2621,-146,146,-6,-44,30,3957,5,-8,893,1789,1884,2091,2287,2063,1827,1875,2002
137576,17728,-18516,15890,-16878,-3800,-2830,-144,144,-6,-34,10,3940,8,5,893,1789,1884,2091,2287,2063,1827,1875,2002
138577,17732,-18516,15890,-16878,-3800,-2729,-146,144,-6,-47,31,3934,-10,4,892,1789,1884,2091,2287,2063,1827,1875,2002
139578,17724,-18512,15890,-16878,-3800,-2784,-148,144,-5,-66,44,3915,3,-8,892,1789,1884,2091,2287,2063,1827,1875,2002
140579,17724,-18516,15890,-16878,-3800,-2678,-147,144,-6,-50,16,3922,8,-1,894,1789,1884,2091,2287,2063,1827,1875,2002
141580,17736,-18516,15890,-16878,-3800,-2727,-147,145,-7,-52,1,3916,-1,6,893,1789,1884,2092,2289,2063,1829,1880,2001
142581,17736,-18516,15890,-16878,-3800,-2727,-147,146,-7,-66,8,3903,-5,-7,893,1789,1884,2092,2289,2063,1829,1880,2001
143582,17732,-18516,15890,-16878,-3800,-2726,-148,145,-8,-41,36,3916,-6,-7,893,1789,1884,2092,2289,2063,1829,1880,2001
144583,17728,-18528,15890,-16878,-3800,-2561,-146,145,-10,-59,34,3903,-11,3,894,1789,1884,2092,2289,2063,1829,1880,2001
145584,17744,-18528,15890,-16878,-3800,-2710,-146,142,-6,-77,9,3905,-10,2,893,1789,1884,2092,2289,2063,1829,1880,2001
146585,17728,-18512,15890,-16878,-3800,-2929,-147,142,-3,-48,17,3928,-4,-8,893,1789,1885,2091,2289,2062,1828,1879,2001
147586,17732,-18516,15890,-16878,-3800,-2674,-148,141,-5,-57,28,3944,8,-6,894,1789,1885,2091,2289,2062,1828,1879,2001
148587,17728,-18524,15890,-16878,-3800,-2613,-146,143,-6,-54,38,3922,1,5,893,1789,1885,2091,2289,2062,1828,1879,2001
149588,17732,-18516,15890,-16878,-3800,-2822,-144,144,-9,-80,35,3925,-6,-8,893,1789,1885,2091,2289,2062,1828,1879,2001
150589,17732,-18524,15890,-16878,-3800,-2612,-146,143,-7,-56,26,3927,-9,1,893,1789,1885,2091,2289,2062,1828,1879,2001
151590,17732,-18524,15890,-16878,-3800,-2711,-147,143,-7,-49,26,3906,-3,-3,893,1789,1885,2091,2289,2062,1828,1879,2001
152591,17732,-18532,15890,-16878,-3800,-2601,-145,144,-5,-58,18,3895,6,-8,893,1790,1886,2091,2287,2062,1830,1880,2001
153592,17732,-18524,15890,-16878,-3800,-2810,-144,146,-4,-55,44,3912,5,2,893,1790,1886,2091,2287,2062,1830,1880,2001
154593,17740,-18516,15890,-16878,-3800,-2819,-147,146,-2,-54,65,3957,-3,-1,893,1790,1886,2091,2287,2062,1830,1880,2001
155594,17736,-18516,15890,-16878,-3800,-2719,-147,143,-3,-83,43,3946,-11,-8,891,1790,1886,2091,2287,2062,1830,1880,2001
156595,17732,-18520,15890,-16878,-3800,-2663,-149,145,-5,-63,24,3915,9,-5,891,1790,1886,2091,2287,2062,1830,1880,2001
157596,17732,-18516,15890,-16878,-3800,-2767,-147,143,-7,-85,24,3939,6,1,893,1788,1884,2091,2288,2063,1828,1879,2001
158597,17732,-18520,15890,-16878,-3800,-2662,-150,143,-6,-82,21,3928,2,-9,894,1788,1884,2091,2288,2063,1828,1879,2001
159598,17724,-18520,15890,-16878,-3800,-2711,-149,146,-6,-69,27,3880,-6,1,894,1788,1884,2091,2288,2063,1828,1879,2001
160599,17724,-18516,15890,-16878,-3800,-2766,-146,144,-3,-75,33,3908,1,-2,893,1788,1884,2091,2288,2063,1828,1879,2001
161600,17736,-18516,15890,-16878,-3800,-2715,-147,144,-5,-61,28,3908,4,-8,894,1788,1884,2091,2288,2063,1828,1879,2001
162601,17728,-18532,15890,-16878,-3800,-2494,-146,143,-3,-82,15,3928,5,5,894,1788,1884,2091,2288,2063,1828,1879,2001
163602,17724,-18524,15890,-16878,-3800,-2804,-147,145,-4,-91,7,3911,6,-6,894,1789,1884,2091,2287,2062,1827,1879,2000
164603,17724,-18516,15890,-16878,-3800,-2813,-146,144,-7,-46,29,3908,7,-4,894,1789,1884,2091,2287,2062,1827,1879,2000
165604,17732,-18532,15890,-16878,-3800,-2492,-149,144,-7,-56,32,3911,-4,6,893,1789,1884,2091,2287,2062,1827,1879,2000
166605,17728,-18524,15890,-16878,-3800,-2802,-149,145,-6,-61,36,3926,-6,-7,893,1789,1884,2091,2287,2062,1827,1879,2000
167606,17720,-18520,15890,-16878,-3800,-2756,-144,145,-5,-58,33,3952,-10,-3,893,1789,1884,2091,2287,2062,1827,1879,2000
168607,17720,-18524,15890,-16878,-3800,-2651,-143,144,-5,-64,34,3916,-11,6,894,1791,1883,2090,2287,2063,1828,1880,2000
169608,17740,-18520,15890,-16878,-3800,-2755,-145,146,-6,-54,52,3913,-11,-7,893,1791,1883,2090,2287,2063,1828,1880,2000
170609,17736,-18516,15890,-16878,-3800,-2759,-147,145,-3,-71,39,3905,-10,-3,893,1791,1883,2090,2287,2063,1828,1880,2000
171610,17736,-18528,15890,-16878,-3800,-2544,-147,145,-4,-94,53,3924,-8,6,894,1791,1883,2090,2287,2063,1828,1880,2000
172611,17728,-18516,15890,-16878,-3800,-2858,-143,145,-5,-87,59,3888,-4,-2,892,1791,1883,2090,2287,2063,1828,1880,2000
173612,17744,-18524,15890,-16878,-3800,-2597,-142,144,-8,-80,43,3940,8,-6,891,1791,1883,2090,2287,2063,1828,1880,2000
174613,17732,-18512,15890,-16878,-3800,-2862,-145,143,-8,-82,36,3961,4,-5,893,1789,1885,2091,2288,2061,1828,1878,2001
175614,17732,-18528,15890,-16878,-3800,-2491,-144,142,-5,-87,34,3912,6,6,893,1789,1885,2091,2288,2061,1828,1878,2001
176615,17732,-18516,15890,-16878,-3800,-2856,-143,142,-5,-80,38,3938,8,-4,894,1789,1885,2091,2288,2061,1828,1878,2001
177616,17732,-18520,15890,-16878,-3800,-2650,-143,145,-6,-70,38,3934,2,-8,893,1789,1885,2091,2288,2061,1828,1878,2001
178617,17732,-18512,15890,-16878,-3800,-2809,-143,144,-5,-71,62,3913,1,6,893,1789,1885,2091,2288,2061,1828,1878,2001
179618,17720,-18512,15890,-16878,-3800,-2709,-145,145,-5,-72,25,3899,1,-3,894,1789,1884,2092,2289,2062,1827,1878,2000
180619,17732,-18524,15890,-16878,-3800,-2543,-146,146,-4,-86,29,3898,-6,-7,893,1789,1884,2092,2289,2062,1827,1878,2000
181620,17740,-18528,15890,-16878,-3800,-2637,-146,144,-6,-95,39,3911,-4,5,893,1789,1884,2092,2289,2062,1827,1878,2000
182621,17732,-18524,15890,-16878,-3800,-2742,-143,142,-6,-79,25,3930,-3,-7,893,1789,1884,2092,2289,2062,1827,1878,2000
183622,17736,-18520,15890,-16878,-3800,-2746,-142,143,-5,-61,20,3908,-9,-2,893,1789,1884,2092,2289,2062,1827,1878,2000
184623,17728,-18524,15890,-16878,-3800,-2641,-145,145,-6,-72,49,3947,-4,2,894,1789,1884,2092,2289,2062,1827,1878,2000
185624,17736,-18516,15890,-16878,-3800,-2800,-144,146,-8,-51,24,3944,-2,-8,894,1791,1886,2092,2289,2064,1828,1880,2001
186625,17728,-18528,15890,-16878,-3800,-2534,-143,143,-9,-61,33,3916,-8,-3,893,1791,1886,2092,2289,2064,1828,1880,2001
187626,17736,-18528,15890,-16878,-3800,-2684,-144,140,-6,-68,36,3944,-9,5,894,1791,1886,2092,2289,2064,1828,1880,2001
188627,17732,-18520,15890,-16878,-3800,-2793,-145,140,-3,-50,40,3927,-8,-6,893,1791,1886,2092,2289,2064,1828,1880,2001
189628,17732,-18524,15890,-16878,-3800,-2637,-145,143,-4,-63,17,3889,-11,-8,892,1791,1886,2092,2289,2064,1828,1880,2001
190629,17732,-18524,15890,-16878,-3800,-2687,-145,143,-8,-61,31,3920,2,5,892,1790,1884,2091,2289,2063,1830,1877,2002
191630,17736,-18520,15890,-16878,-3800,-2741,-145,143,-9,-65,42,3945,6,0,893,1790,1884,2091,2289,2063,1830,1877,2002
192631,17736,-18508,15890,-16878,-3800,-2856,-144,142,-9,-48,39,3952,9,-7,893,1790,1884,2091,2289,2063,1830,1877,2002
193632,17732,-18520,15890,-16878,-3800,-2540,-144,140,-7,-59,37,3920,3,5,893,1790,1884,2091,2289,2063,1830,1877,2002
194633,17732,-18524,15890,-16878,-3800,-2634,-147,142,-6,-61,42,3942,-6,-5,893,1790,1884,2091,2289,2063,1830,1877,2002
195634,17740,-18516,15890,-16878,-3800,-2794,-146,144,-9,-88,20,3945,-6,-8,894,1790,1884,2091,2289,2063,1830,1877,2002
196635,17744,-18516,15890,-16878,-3800,-2693,-146,144,-9,-64,27,3919,-10,7,894,1790,1884,2090,2288,2061,1827,1878,2001
197636,17724,-18528,15890,-16878,-3800,-2527,-148,143,-5,-63,27,3905,-10,-6,893,1790,1884,2090,2288,2061,1827,1878,2001
198637,17732,-18524,15955,-16813,-1845,2463,-147,143,-5,-89,37,3922,-6,-6,893,1790,1884,2090,2288,2061,1827,1878,2001
199638,17736,-18520,16020,-16748,-1721,2538,-147,144,-6,-63,28,3935,-2,-14,894,1790,1884,2090,2288,2061,1827,1878,2001
200639,17724,-18512,16085,-16683,-1428,2558,-153,150,-6,-62,44,3919,3,10,860,1790,1884,2090,2288,2061,1827,1878,2001
201640,17728,-18468,16150,-16618,-1554,2135,-156,136,-3,-68,37,3887,14,31,859,1789,1884,2090,2288,2062,1827,1879,2000
202641,17732,-18364,16215,-16553,-1480,1337,-149,127,-11,-109,16,4015,5,56,861,1789,1884,2090,2288,2062,1827,1879,2000
203642,17736,-18276,16280,-16488,-1407,1510,-156,110,-14,-385,-19,4082,1,65,859,1789,1884,2090,2288,2062,1827,1879,2000
204643,17720,-18120,16345,-16423,-1058,550,-151,63,-25,-317,-75,4154,0,70,881,1789,1884,2090,2288,2062,1827,1879,2000
205644,17732,-17976,16410,-16358,-1344,604,-153,19,-27,-294,-32,4273,14,77,878,1789,1884,2090,2288,2062,1827,1879,2000
206645,17728,-17836,16475,-16293,-1060,563,-138,32,-27,-29,-32,4304,12,77,887,1789,1884,2090,2288,2062,1827,1879,2000
207646,17736,-17696,16540,-16228,-1141,471,-141,48,-34,443,-58,3677,4,78,871,1788,1881,2092,2288,2067,1833,1886,2012
208647,17724,-17552,16605,-16163,-797,326,-160,85,-70,391,-192,3877,13,78,890,1788,1881,2092,2288,2067,1833,1886,2012
209648,17724,-17388,16670,-16098,-869,-44,-179,184,-106,570,-323,3438,-3,80,891,1788,1881,2092,2288,2067,1833,1886,2012
210649,17728,-17272,16735,-16033,-845,494,-188,195,-132,312,-231,3432,-4,73,892,1788,1881,2092,2288,2067,1833,1886,2012
211650,17736,-17100,16800,-15968,-825,-337,-193,174,-148,-270,-240,3825,-5,79,888,1788,1881,2092,2288,2067,1833,1886,2012
212651,17732,-16976,16865,-15903,-592,192,-173,130,-147,-219,-92,3784,-3,74,890,1800,1898,2101,2270,2071,1836,1886,2005
213652,17728,-16832,16930,-15838,-508,-154,-166,23,-140,-499,-169,4177,11,70,891,1800,1898,2101,2270,2071,1836,1886,2005
214653,17716,-16684,16995,-15773,-314,-304,-156,-102,-140,-787,-119,3963,7,67,892,1800,1898,2101,2270,2071,1836,1886,2005
215654,17732,-16564,17060,-15708,-605,-22,-164,-195,-149,-782,-141,4313,13,74,890,1800,1898,2101,2270,2071,1836,1886,2005
216655,17740,-16424,17125,-15643,-435,-363,-174,-232,-153,-162,-184,3985,-5,77,891,1800,1898,2101,2270,2071,1836,1886,2005
217656,17724,-16300,17190,-15578,-36,-234,-174,-213,-152,166,-59,4470,13,74,894,1800,1898,2101,2270,2071,1836,1886,2005
218657,17740,-16196,17255,-15513,-377,-32,-178,-163,-157,295,-92,4128,-8,63,891,1758,1884,2081,2277,2059,1824,1885,2011
219658,17732,-16076,17320,-15448,12,-299,-180,-94,-174,391,-115,4328,-7,49,892,1758,1884,2081,2277,2059,1824,1885,2011
220659,17740,-15968,17385,-15383,-119,-201,-180,-19,-178,382,-128,4396,0,58,893,1758,1884,2081,2277,2059,1824,1885,2011
221660,17732,-15856,17450,-15318,170,-308,-177,37,-184,385,-231,4180,0,48,891,1758,1884,2081,2277,2059,1824,1885,2011
222663,17732,-15756,17515,-15253,150,-200,-165,73,-191,209,-230,4194,9,42,884,1758,1884,2081,2277,2059,1824,1885,2011
223662,17732,-15660,17580,-15188,229,-188,-151,73,-197,-135,-201,3995,-2,41,889,1790,1895,2091,2287,2073,1835,1895,2020
224663,17728,-15576,17645,-15123,363,-62,-151,33,-207,-250,-196,3954,-3,44,889,1790,1895,2091,2287,2073,1835,1895,2020
225664,17728,-15508,17710,-15058,393,135,-150,-26,-224,-295,-179,3841,6,50,891,1790,1895,2091,2287,2073,1835,1895,2020
226665,17736,-15432,17775,-14993,362,22,-145,-86,-220,-545,-69,3952,7,52,891,1790,1895,2091,2287,2073,1835,1895,2020
227666,17716,-15352,17840,-14928,816,-46,-146,-82,-205,-349,249,3777,0,52,890,1790,1895,2091,2287,2073,1835,1895,2020
228667,17736,-15268,17905,-14863,371,-119,-182,-32,-188,19,401,3339,18,44,886,1790,1895,2091,2287,2073,1835,1895,2020
229668,17752,-15212,17970,-14798,481,242,-252,30,-202,24,339,3243,24,38,890,1807,1902,2112,2320,2074,1841,1887,2003
230669,17764,-15132,18035,-14733,595,-76,-319,75,-221,-125,297,3380,24,35,888,1807,1902,2112,2320,2074,1841,1887,2003
231670,17776,-15080,18100,-14668,660,289,-338,84,-221,-317,5,3616,10,35,888,1807,1902,2112,2320,2074,1841,1887,2003
232671,17796,-15012,18165,-14603,615,86,-320,58,-225,-241,-91,3606,30,32,886,1807,1902,2112,2320,2074,1841,1887,2003
233672,17832,-14956,18230,-14538,450,248,-269,3,-230,-431,-251,4091,29,33,888,1807,1902,2112,2320,2074,1841,1887,2003
234673,17872,-14880,18295,-14473,432,-16,-211,-40,-236,-410,-312,4254,19,29,889,1789,1868,2083,2273,2069,1833,1862,1982
235674,17924,-14828,18360,-14408,298,300,-154,-52,-233,-262,-136,4173,27,43,891,1789,1868,2083,2273,2069,1833,1862,1982
236675,17960,-14752,18425,-14343,533,-13,-118,-50,-222,-152,-110,4066,35,30,890,1789,1868,2083,2273,2069,1833,1862,1982
237676,18000,-14704,18490,-14278,514,358,-108,-12,-224,-48,-12,4058,29,31,889,1789,1868,2083,2273,2069,1833,1862,1982
238677,18060,-14656,18555,-14213,270,378,-121,51,-211,86,-11,4067,39,30,888,1789,1868,2083,2273,2069,1833,1862,1982
239678,18112,-14616,18620,-14148,386,510,-140,122,-180,252,69,3887,19,37,888,1789,1868,2083,2273,2069,1833,1862,1982
240679,18152,-14544,18685,-14083,567,101,-164,180,-150,171,126,3874,38,26,886,1754,1844,2060,2252,2034,1804,1851,1970
241680,18204,-14516,18750,-14018,433,696,-177,221,-121,-61,275,3998,21,29,889,1754,1844,2060,2252,2034,1804,1851,1970
242681,18272,-14464,18815,-13953,229,412,-200,236,-98,-102,220,3753,27,26,885,1754,1844,2060,2252,2034,1804,1851,1970
243682,18316,-14412,18880,-13888,555,428,-217,252,-74,-194,279,3732,26,35,889,1754,1844,2060,2252,2034,1804,1851,1970
244683,18372,-14348,18945,-13823,416,279,-231,199,-53,-366,349,3484,24,32,887,1754,1844,2060,2252,2034,1804,1851,1970
245684,18428,-14304,19010,-13758,428,556,-242,128,-39,-665,365,3608,42,32,889,1784,1876,2079,2287,2039,1809,1871,1992
246685,18500,-14232,19075,-13693,219,197,-250,81,-20,-593,304,3569,33,40,887,1784,1876,2079,2287,2039,1809,1871,1992
247686,18560,-14192,19140,-13628,376,628,-248,55,-17,-297,246,3433,27,38,891,1784,1876,2079,2287,2039,1809,1871,1992
248687,18612,-14140,19205,-13563,491,494,-239,37,-16,-196,203,3582,25,29,886,1784,1876,2079,2287,2039,1809,1871,1992
249688,18680,-14088,19270,-13498,289,511,-226,48,-20,-242,-30,3694,44,31,887,1784,1876,2079,2287,2039,1809,1871,1992
250689,18744,-14028,19335,-13433,340,417,-202,70,-35,3,-53,3786,37,39,888,1784,1876,2079,2287,2039,1809,1871,1992
251690,18792,-13976,19400,-13368,561,533,-171,75,-54,168,-203,3965,39,26,889,1804,1899,2103,2295,2075,1832,1886,2019
252691,18844,-13916,19465,-13303,527,439,-140,77,-67,125,-135,4023,31,31,885,1804,1899,2103,2295,2075,1832,1886,2019
253692,18916,-13872,19530,-13238,268,664,-108,75,-68,31,-155,4067,47,37,887,1804,1899,2103,2295,2075,1832,1886,2019
254693,18984,-13800,19595,-13173,315,307,-90,73,-76,6,-104,4162,31,30,886,1804,1899,2103,2295,2075,1832,1886,2019
255694,19064,-13752,19660,-13108,147,628,-79,74,-72,-82,-8,4277,30,42,890,1804,1899,2103,2295,2075,1832,1886,2019
256695,19104,-13692,19725,-13043,678,484,-85,36,-50,-199,-88,3849,34,26,886,1798,1896,2101,2289,2059,1817,1873,1998
257696,19184,-13640,19790,-12978,159,600,-97,9,-36,-238,14,4203,30,33,883,1798,1896,2101,2289,2059,1817,1873,1998
258697,19248,-13576,19855,-12913,361,452,-119,-11,-18,-247,58,4151,39,41,888,1798,1896,2101,2289,2059,1817,1873,1998
259698,19316,-13508,19920,-12848,308,398,-130,-57,14,-293,44,4059,30,28,888,1798,1896,2101,2289,2059,1817,1873,1998
260699,19384,-13444,19985,-12783,304,449,-142,-101,42,-264,135,4167,44,42,889,1798,1896,2101,2289,2059,1817,1873,1998
261700,19452,-13388,20050,-12718,300,560,-157,-126,57,-262,142,4223,31,31,889,1798,1896,2101,2289,2059,1817,1873,1998
262701,19492,-13328,20115,-12653,681,517,-163,-135,70,-162,126,4229,32,40,887,1809,1903,2103,2306,2047,1820,1880,2000
263702,19580,-13268,20180,-12588,54,524,-168,-129,76,-3,96,4285,36,43,884,1809,1903,2103,2306,2047,1820,1880,2000
264703,19640,-13208,20245,-12523,410,530,-167,-139,77,-64,-8,4151,34,28,890,1809,1903,2103,2306,2047,1820,1880,2000
265704,19700,-13144,20310,-12458,416,481,-154,-139,71,-33,-12,4228,45,30,887,1809,1903,2103,2306,2047,1820,1880,2000
266705,19764,-13100,20375,-12393,367,758,-138,-144,63,-22,16,4148,47,42,887,1809,1903,2103,2306,2047,1820,1880,2000
267706,19836,-13036,20440,-12328,260,509,-116,-147,43,-21,-28,4088,46,38,885,1811,1906,2111,2311,2087,1851,1905,2031
268707,19880,-12980,20505,-12263,635,620,-95,-148,15,-26,-23,4135,47,43,888,1811,1906,2111,2311,2087,1851,1905,2031
269708,19964,-12924,20570,-12198,112,631,-79,-154,-1,-127,-99,3965,26,32,884,1811,1906,2111,2311,2087,1851,1905,2031
270709,20016,-12860,20635,-12133,528,533,-60,-142,-18,-14,-74,4086,30,38,888,1811,1906,2111,2311,2087,1851,1905,2031
271710,20068,-12784,20700,-12068,545,370,-49,-134,-30,-115,-65,4018,35,44,886,1811,1906,2111,2311,2087,1851,1905,2031
272711,20116,-12732,20765,-12003,616,685,-36,-130,-39,-155,-56,3990,28,34,887,1811,1906,2111,2311,2087,1851,1905,2031
273712,20184,-12664,20830,-11938,362,483,-37,-126,-42,-211,-42,4039,35,37,882,1809,1903,2112,2311,2090,1849,1900,2019
274713,20248,-12608,20895,-11873,413,644,-35,-119,-40,-236,-32,4069,48,45,886,1809,1903,2112,2311,2090,1849,1900,2019
275714,20324,-12552,20960,-11808,250,655,-33,-125,-38,-327,-68,4014,45,36,886,1809,1903,2112,2311,2090,1849,1900,2019
276715,20392,-12480,21025,-11743,347,446,-35,-120,-25,-321,-57,4055,41,42,887,1809,1903,2112,2311,2090,1849,1900,2019
277716,20456,-12416,21090,-11678,398,548,-39,-113,-10,-278,-91,4186,28,28,888,1809,1903,2112,2311,2090,1849,1900,2019
278717,20528,-12380,21155,-11613,290,934,-41,-95,-4,-201,-39,4206,40,37,887,1795,1890,2095,2300,2046,1816,1865,1977
279718,20580,-12288,21220,-11548,556,201,-49,-80,11,-177,-128,4248,43,29,883,1795,1890,2095,2300,2046,1816,1865,1977
280719,20640,-12244,21285,-11483,463,827,-47,-64,25,-111,-94,4183,26,32,888,1795,1890,2095,2300,2046,1816,1865,1977
281720,20700,-12176,21350,-11418,469,524,-55,-45,24,-202,-25,4222,43,30,883,1795,1890,2095,2300,2046,1816,1865,1977
282721,20752,-12108,21415,-11353,585,520,-46,-15,15,-33,6,4185,34,41,886,1795,1890,2095,2300,2046,1816,1865,1977
283722,20812,-12056,21480,-11288,491,736,-37,5,18,53,-100,4215,29,42,885,1795,1890,2095,2300,2046,1816,1865,1977
284723,20868,-11984,21545,-11223,553,478,-21,21,13,-8,-66,4069,42,42,884,1792,1883,2088,2294,2037,1812,1864,1980
285724,20924,-11924,21610,-11158,564,635,-10,39,-4,-101,-76,4081,37,44,885,1792,1883,2088,2294,2037,1812,1864,1980
286725,20996,-11844,21675,-11093,355,366,4,46,-13,-74,-124,4063,43,36,884,1792,1883,2088,2294,2037,1812,1864,1980
287726,21040,-11812,21740,-11028,731,1008,7,42,-14,-126,-3,3765,25,36,888,1792,1883,2088,2294,2037,1812,1864,1980
288727,21096,-11744,21805,-10963,593,554,5,29,-22,-227,20,3738,37,42,878,1792,1883,2088,2294,2037,1812,1864,1980
289728,21148,-11668,21870,-10898,659,440,6,30,-41,-155,108,3931,28,46,885,1798,1888,2098,2306,2056,1828,1879,1997
290729,21220,-11612,21935,-10833,400,701,12,16,-43,-192,67,3569,46,42,884,1798,1888,2098,2306,2056,1828,1879,1997
291730,21260,-11564,22000,-10768,832,823,17,6,-49,-120,28,3893,28,31,884,1798,1888,2098,2306,2056,1828,1879,1997
292731,21324,-11508,22065,-10703,533,734,25,10,-52,-86,-17,3719,43,44,879,1798,1888,2098,2306,2056,1828,1879,1997
293732,21384,-11428,22130,-10638,589,416,30,10,-52,-60,185,3827,42,46,883,1798,1888,2098,2306,2056,1828,1879,1997
294733,21448,-11372,22195,-10573,540,728,31,46,-53,-56,223,3883,27,46,886,1798,1888,2098,2306,2056,1828,1879,1997
295734,21492,-11296,22260,-10508,817,464,35,92,-59,116,120,3946,41,46,883,1802,1892,2099,2295,2063,1828,1881,2002
296735,21552,-11244,22325,-10443,623,780,49,135,-62,133,104,4033,37,33,883,1802,1892,2099,2295,2063,1828,1881,2002
297736,21628,-11172,22390,-10378,410,523,60,154,-48,-103,17,4069,46,34,882,1802,1892,2099,2295,2063,1828,1881,2002
298737,21688,-11116,22455,-10313,617,734,63,162,-40,-174,114,3958,49,43,886,1802,1892,2099,2295,2063,1828,1881,2002
299738,21740,-11040,22520,-10248,733,470,66,155,-46,-301,141,3853,43,42,883,1802,1892,2099,2295,2063,1828,1881,2002
300739,21828,-10992,22585,-10183,255,841,72,153,-59,-239,203,4065,42,41,884,1785,1880,2083,2277,2050,1815,1865,1986
301740,21892,-10936,22650,-10118,556,753,75,144,-56,-284,129,3843,35,36,884,1785,1880,2083,2277,2050,1815,1865,1986
302741,21960,-10876,22715,-10053,503,709,68,134,-61,-211,138,3968,32,37,882,1785,1880,2083,2277,2050,1815,1865,1986
303742,22032,-10828,22780,-9988,445,880,60,115,-58,-312,1,3876,46,33,884,1785,1880,2083,2277,2050,1815,1865,1986
304743,22088,-10752,22845,-9923,656,517,53,86,-61,-357,92,3824,38,41,883,1785,1880,2083,2277,2050,1815,1865,1986
305744,22156,-10692,22910,-9858,503,724,50,67,-76,-479,129,3855,48,31,884,1785,1880,2083,2277,2050,1815,1865,1986
306745,22216,-10636,22975,-9793,609,785,50,78,-95,-285,153,3874,48,43,884,1780,1874,2082,2277,2049,1817,1867,1993
307746,22288,-10564,23040,-9728,450,577,80,100,-94,-110,41,4080,31,28,880,1780,1874,2082,2277,2049,1817,1867,1993
308747,22364,-10496,23105,-9663,387,623,117,137,-111,-64,226,4155,46,29,884,1780,1874,2082,2277,2049,1817,1867,1993
309748,22412,-10460,23170,-9598,759,1059,117,183,-141,6,126,3907,32,25,885,1780,1874,2082,2277,2049,1817,1867,1993
310749,22480,-10388,23235,-9533,505,601,105,234,-145,51,220,4081,41,41,877,1780,1874,2082,2277,2049,1817,1867,1993
311750,22540,-10324,23300,-9468,611,702,99,232,-127,-82,286,3736,49,30,885,1789,1882,2093,2291,2055,1828,1878,1998
312751,22600,-10272,23365,-9403,618,868,91,201,-127,-460,352,3791,41,32,883,1789,1882,2093,2291,2055,1828,1878,1998
313752,22652,-10216,23430,-9338,734,830,101,169,-148,-482,324,3686,49,42,881,1789,1882,2093,2291,2055,1828,1878,1998
314753,22712,-10156,23495,-9273,640,786,116,121,-168,-254,359,3747,50,32,880,1789,1882,2093,2291,2055,1828,1878,1998
315754,22784,-10104,23560,-9208,482,902,138,69,-183,-304,332,3738,34,33,881,1789,1882,2093,2291,2055,1828,1878,1998
316755,22860,-10052,23625,-9143,419,919,136,23,-185,-397,159,3509,38,38,882,1789,1882,2093,2291,2055,1828,1878,1998
317756,22924,-9968,23690,-9078,571,496,145,-2,-187,-268,221,3779,35,41,882,1794,1884,2094,2296,2055,1824,1872,1993
318757,23004,-9904,23755,-9013,352,747,140,-39,-178,-262,228,3479,48,28,885,1794,1884,2094,2296,2055,1824,1872,1993
319758,23052,-9860,23820,-8948,774,1024,150,-36,-175,-41,133,3922,46,28,884,1794,1884,2094,2296,2055,1824,1872,1993
320759,23116,-9800,23885,-8883,575,830,153,2,-169,33,167,3992,42,40,877,1794,1884,2094,2296,2055,1824,1872,1993
321760,23196,-9756,23950,-8818,357,1056,160,42,-171,62,272,3918,46,36,882,1794,1884,2094,2296,2055,1824,1872,1993
322761,23260,-9680,24015,-8753,558,643,156,99,-150,-25,-63,4377,39,40,881,1795,1889,2091,2281,2038,1802,1861,1987
323762,23320,-9604,24080,-8688,615,630,157,129,-150,-32,172,4085,33,35,883,1795,1889,2091,2281,2038,1802,1861,1987
324763,23380,-9552,24145,-8623,621,946,151,134,-151,-125,163,4226,47,38,883,1795,1889,2091,2281,2038,1802,1861,1987
325764,23448,-9480,24210,-8558,518,688,160,121,-151,-159,98,4256,43,28,877,1795,1889,2091,2281,2038,1802,1861,1987
326765,23520,-9448,24275,-8493,460,1228,164,51,-156,-446,8,3796,37,40,883,1795,1889,2091,2281,2038,1802,1861,1987
327766,23580,-9388,24340,-8428,616,884,172,25,-180,-392,192,4251,34,33,877,1787,1881,2085,2278,2047,1812,1868,1996
328767,23640,-9316,24405,-8363,622,727,173,21,-205,-175,116,3973,43,35,880,1787,1881,2085,2278,2047,1812,1868,1996
329768,23708,-9260,24470,-8298,519,938,179,17,-224,-112,241,4187,44,37,883,1787,1881,2085,2278,2047,1812,1868,1996
330769,23760,-9192,24535,-8233,736,784,180,17,-243,-131,253,4125,41,44,881,1787,1881,2085,2278,2047,1812,1868,1996
331770,23820,-9128,24600,-8168,642,836,183,-1,-255,-106,113,3969,42,36,881,1787,1881,2085,2278,2047,1812,1868,1996
332771,23896,-9076,24665,-8103,428,1002,198,9,-267,27,171,4224,34,36,881,1787,1881,2085,2278,2047,1812,1868,1996
333772,23940,-9016,24730,-8038,855,909,206,14,-272,8,275,3811,47,27,881,1796,1891,2100,2301,2076,1841,1893,2018
334773,23996,-8964,24795,-7973,716,1025,217,23,-280,121,285,4169,40,32,878,1796,1891,2100,2301,2076,1841,1893,2018
335774,24080,-8900,24860,-7908,343,876,222,56,-262,66,169,4078,52,35,878,1796,1891,2100,2301,2076,1841,1893,2018
336775,24128,-8848,24925,-7843,813,1043,231,65,-253,175,84,3730,42,27,883,1796,1891,2100,2301,2076,1841,1893,2018
337776,24204,-8796,24990,-7778,451,1059,251,81,-241,139,103,4197,32,40,876,1796,1891,2100,2301,2076,1841,1893,2018
338777,24272,-8720,25055,-7713,547,746,250,59,-219,-83,60,3587,52,32,879,1807,1899,2113,2319,2085,1850,1895,2014
339778,24344,-8688,25120,-7648,489,1337,250,52,-195,66,105,4001,30,33,883,1807,1899,2113,2319,2085,1850,1895,2014
340779,24424,-8616,25185,-7583,371,828,245,38,-173,84,162,3916,41,40,876,1807,1899,2113,2319,2085,1850,1895,2014
341780,24476,-8548,25250,-7518,737,876,241,15,-156,-59,144,3983,31,44,884,1807,1899,2113,2319,2085,1850,1895,2014
342781,24552,-8508,25315,-7453,424,1256,231,8,-145,95,-57,3937,43,31,878,1807,1899,2113,2319,2085,1850,1895,2014
343782,24608,-8444,25380,-7388,686,958,255,23,-160,179,-130,4298,41,33,877,1807,1899,2113,2319,2085,1850,1895,2014
344783,24664,-8364,25445,-7323,697,740,291,10,-168,-196,-23,4034,41,32,879,1801,1889,2099,2301,2061,1824,1870,1990
345784,24736,-8332,25510,-7258,488,1381,311,-14,-203,188,348,4160,33,30,882,1801,1889,2099,2301,2061,1824,1870,1990
346785,24788,-8268,25575,-7193,754,983,326,-20,-212,330,227,4083,34,28,875,1801,1889,2099,2301,2061,1824,1870,1990
347786,24856,-8208,25640,-7128,552,1039,323,-36,-222,334,283,4100,32,41,878,1801,1889,2099,2301,2061,1824,1870,1990
348787,24924,-8148,25705,-7063,548,1045,306,8,-230,75,218,4436,45,34,879,1801,1889,2099,2301,2061,1824,1870,1990
349788,24996,-8092,25770,-6998,489,1107,295,83,-234,464,178,4434,39,43,879,1790,1881,2083,2277,2036,1798,1857,1981
350789,25036,-8044,25835,-6933,921,1228,281,139,-233,694,159,4295,45,38,879,1790,1881,2083,2277,2036,1798,1857,1981
351790,25104,-7980,25900,-6868,567,1030,273,155,-225,326,209,4065,29,36,873,1790,1881,2083,2277,2036,1798,1857,1981
352791,25160,-7928,25965,-6803,728,1196,259,131,-218,-174,127,3913,38,38,879,1790,1881,2083,2277,2036,1798,1857,1981
353792,25220,-7868,26030,-6738,685,1103,249,104,-200,-305,78,3805,47,32,876,1790,1881,2083,2277,2036,1798,1857,1981
354793,25272,-7812,26095,-6673,801,1164,247,91,-183,10,165,3731,33,36,878,1790,1881,2083,2277,2036,1798,1857,1981
355794,25336,-7748,26160,-6608,652,1065,246,82,-161,41,68,3795,31,43,875,1792,1888,2093,2289,2062,1822,1877,2009
356795,25404,-7692,26225,-6543,599,1177,235,82,-151,-54,26,3900,46,42,877,1792,1888,2093,2289,2062,1822,1877,2009
357796,25452,-7644,26290,-6478,870,1298,240,81,-142,64,4,3738,42,28,878,1792,1888,2093,2289,2062,1822,1877,2009
358797,25540,-7596,26355,-6413,342,1320,249,81,-140,319,71,3801,37,28,873,1792,1888,2093,2289,2062,1822,1877,2009
359798,25616,-7528,26420,-6348,479,1066,261,75,-134,416,81,3653,50,45,876,1792,1888,2093,2289,2062,1822,1877,2009
360799,25672,-7472,26485,-6283,741,1228,267,53,-107,64,11,3622,39,40,880,1782,1877,2088,2280,2097,1851,1893,2026
361800,25756,-7384,26550,-6218,368,800,278,48,-106,137,47,3708,33,37,875,1782,1877,2088,2280,2097,1851,1893,2026
362801,25812,-7332,26615,-6153,729,1266,292,42,-124,127,60,3771,33,35,884,1782,1877,2088,2280,2097,1851,1893,2026
363802,25876,-7292,26680,-6088,631,1447,302,35,-131,411,216,3898,45,37,873,1782,1877,2088,2280,2097,1851,1893,2026
364803,25936,-7232,26745,-6023,687,1203,339,59,-126,875,-508,4179,31,43,873,1782,1877,2088,2280,2097,1851,1893,2026
365804,25996,-7192,26810,-5958,693,1485,394,-21,-84,-574,-454,4162,36,44,876,1782,1877,2088,2280,2097,1851,1893,2026
366805,26084,-7112,26875,-5893,315,967,403,-72,-122,-1024,143,4440,44,46,872,1767,1859,2070,2263,2075,1828,1874,1994
367806,26140,-7048,26940,-5828,727,1169,417,0,-107,610,-247,4598,46,48,882,1767,1859,2070,2263,2075,1828,1874,1994
368807,26184,-6988,27005,-5763,903,1225,427,-58,-84,1215,125,3842,39,41,876,1767,1859,2070,2263,2075,1828,1874,1994
369808,26244,-6920,27070,-5698,709,1122,389,-100,-77,-243,357,4541,32,37,874,1767,1859,2070,2263,2075,1828,1874,1994
370809,26308,-6856,27135,-5633,661,1173,356,-5,-82,300,344,4395,46,35,877,1767,1859,2070,2263,2075,1828,1874,1994
371810,26376,-6804,27200,-5568,607,1340,305,-26,-62,714,226,3611,33,37,877,1788,1884,2082,2290,2032,1797,1864,1984
372811,26444,-6728,27265,-5503,604,1027,260,-30,-43,62,317,4245,49,39,875,1788,1884,2082,2290,2032,1797,1864,1984
373812,26500,-6660,27330,-5438,766,1124,226,-4,-26,-26,165,4004,43,46,879,1788,1884,2082,2290,2032,1797,1864,1984
374813,26560,-6608,27395,-5373,722,1340,205,5,-11,237,214,4081,45,31,877,1788,1884,2082,2290,2032,1797,1864,1984
375814,26628,-6544,27460,-5308,618,1191,192,-14,-5,349,130,3878,46,40,875,1788,1884,2082,2290,2032,1797,1864,1984
376815,26696,-6488,27525,-5243,615,1303,212,-28,13,-75,-239,4193,39,46,876,1788,1884,2082,2290,2032,1797,1864,1984
377816,26744,-6428,27590,-5178,886,1259,241,-90,34,-391,-109,4066,50,45,876,1815,1910,2110,2308,2077,1835,1891,2030
378817,26816,-6368,27655,-5113,578,1266,284,-98,36,-331,-336,4294,48,33,872,1815,1910,2110,2308,2077,1835,1891,2030
379818,26876,-6280,27720,-5048,735,888,326,-106,43,265,-289,4075,45,35,877,1815,1910,2110,2308,2077,1835,1891,2030
380819,26956,-6236,27785,-4983,466,1465,381,-126,67,38,-422,4121,49,44,880,1815,1910,2110,2308,2077,1835,1891,2030
381820,27016,-6180,27850,-4918,723,1326,417,-145,61,-196,-142,4040,35,43,874,1815,1910,2110,2308,2077,1835,1891,2030
382821,27104,-6128,27915,-4853,344,1393,446,-130,58,-36,-55,4225,45,30,874,1802,1901,2117,2305,2108,1854,1900,2032
383822,27156,-6076,27980,-4788,811,1409,466,-137,63,199,119,3938,37,42,876,1802,1901,2117,2305,2108,1854,1900,2032
384823,27220,-5992,28045,-4723,663,987,473,-150,68,155,327,4057,44,39,871,1802,1901,2117,2305,2108,1854,1900,2032
385824,27272,-5964,28110,-4658,828,1732,465,-140,81,311,479,4231,38,42,879,1802,1901,2117,2305,2108,1854,1900,2032
386825,27340,-5916,28175,-4593,626,1503,455,-143,91,343,512,3851,41,23,867,1802,1901,2117,2305,2108,1854,1900,2032
387826,27424,-5872,28240,-4528,403,1579,436,-155,102,-42,375,4045,30,27,872,1802,1901,2117,2305,2108,1854,1900,2032
388827,27480,-5800,28305,-4463,764,1222,412,-181,99,-58,546,4063,46,22,873,1814,1903,2111,2317,2058,1818,1872,1984
389828,27540,-5760,28370,-4398,721,1652,401,-178,105,41,404,4283,43,21,875,1814,1903,2111,2317,2058,1818,1872,1984
390829,27592,-5712,28435,-4333,837,1574,396,-193,91,637,444,4073,33,24,869,1814,1903,2111,2317,2058,1818,1872,1984
391830,27640,-5668,28500,-4268,907,1649,416,-206,110,-60,93,4623,43,24,870,1814,1903,2111,2317,2058,1818,1872,1984
392831,27712,-5624,28565,-4203,600,1676,426,-194,111,-323,475,4293,41,37,867,1814,1903,2111,2317,2058,1818,1872,1984
393832,27772,-5576,28630,-4138,756,1647,420,-146,119,416,255,4221,49,24,867,1803,1887,2087,2294,2035,1803,1857,1976
394833,27832,-5520,28695,-4073,762,1559,419,-149,141,615,311,4066,42,27,869,1803,1887,2087,2294,2035,1803,1857,1976
395834,27884,-5484,28760,-4008,879,1844,419,-148,158,-14,10,4228,29,27,869,1803,1887,2087,2294,2035,1803,1857,1976
396835,27932,-5428,28825,-3943,950,1606,453,-121,168,-209,48,4297,34,41,865,1803,1887,2087,2294,2035,1803,1857,1976
397838,27996,-5360,28890,-3878,751,1454,478,-146,176,-156,14,4057,35,35,868,1803,1887,2087,2294,2035,1803,1857,1976
398837,28052,-5304,28955,-3813,863,1615,516,-181,195,-37,154,4259,54,44,872,1803,1887,2087,2294,2035,1803,1857,1976
399838,28120,-5216,29020,-3748,709,1187,543,-222,212,-201,196,4050,40,35,869,1786,1875,2089,2285,2058,1823,1869,1998
400839,28180,-5168,29085,-3683,815,1708,553,-268,213,-399,134,4035,51,48,876,1786,1875,2089,2285,2058,1823,1869,1998
401840,28252,-5112,29150,-3618,658,1620,555,-280,231,-436,60,4124,49,39,867,1786,1875,2089,2285,2058,1823,1869,1998
402841,28324,-5040,29215,-3553,649,1412,557,-253,229,-4,312,3916,34,34,871,1786,1875,2089,2285,2058,1823,1869,1998
403842,28396,-4968,29280,-3488,641,1404,549,-220,246,195,366,3990,36,36,874,1786,1875,2089,2285,2058,1823,1869,1998
404843,28464,-4884,29345,-3423,688,1232,554,-198,253,251,471,3809,37,44,874,1799,1895,2111,2308,2079,1834,1888,2019
405844,28520,-4824,29410,-3358,849,1538,548,-230,259,235,403,3940,49,50,875,1799,1895,2111,2308,2079,1834,1888,2019
406845,28576,-4768,29475,-3293,860,1600,562,-247,246,96,423,3895,33,34,870,1799,1895,2111,2308,2079,1834,1888,2019
407846,28644,-4696,29540,-3228,707,1391,552,-271,222,-323,480,4132,49,35,869,1799,1895,2111,2308,2079,1834,1888,2019
408847,28712,-4620,29605,-3163,704,1329,558,-246,222,418,741,4005,49,38,873,1799,1895,2111,2308,2079,1834,1888,2019
409848,28784,-4544,29670,-3098,645,1316,554,-274,227,453,577,3835,40,47,874,1799,1895,2111,2308,2079,1834,1888,2019
410849,28848,-4480,29735,-3033,747,1468,546,-305,204,-265,668,4411,40,33,874,1810,1902,2106,2300,2075,1829,1882,2011
411850,28924,-4400,29800,-2968,584,1250,550,-290,190,-246,674,4063,44,40,872,1810,1902,2106,2300,2075,1829,1882,2011
412851,28964,-4364,29865,-2903,1064,1836,526,-299,165,356,476,3919,39,38,877,1810,1902,2106,2300,2075,1829,1882,2011
413852,29032,-4300,29930,-2838,712,1488,530,-281,164,265,463,4313,43,29,864,1810,1902,2106,2300,2075,1829,1882,2011
414853,29076,-4220,29995,-2773,1037,1270,534,-259,149,432,627,3783,39,37,872,1810,1902,2106,2300,2075,1829,1882,2011
415854,29136,-4160,30060,-2708,843,1527,528,-279,143,113,406,3918,33,43,871,1792,1880,2087,2274,2069,1827,1873,2004
416855,29208,-4112,30125,-2643,686,1698,528,-317,157,-153,417,3960,44,37,869,1792,1880,2087,2274,2069,1827,1873,2004
417856,29260,-4040,30190,-2578,952,1390,542,-310,150,-446,355,4102,33,38,869,1792,1880,2087,2274,2069,1827,1873,2004
418857,29308,-3960,30255,-2513,1023,1272,543,-309,160,58,476,3997,29,45,870,1792,1880,2087,2274,2069,1827,1873,2004
419858,29352,-3912,30320,-2448,1099,1694,551,-339,187,125,527,3999,41,34,872,1792,1880,2087,2274,2069,1827,1873,2004
420859,29424,-3836,30385,-2383,741,1330,543,-383,188,-194,458,4003,40,33,865,1792,1880,2087,2274,2069,1827,1873,2004
421860,29504,-3788,30450,-2318,623,1702,538,-419,203,-539,293,3797,33,43,874,1760,1851,2069,2255,2063,1828,1864,1997
422861,29596,-3716,30515,-2253,440,1393,521,-417,206,-454,340,4041,32,42,870,1760,1851,2069,2255,2063,1828,1864,1997
423862,29652,-3664,30580,-2188,901,1660,528,-410,204,215,426,3757,47,37,876,1760,1851,2069,2255,2063,1828,1864,1997
424863,29724,-3616,30645,-2123,694,1732,519,-445,218,7,449,3821,28,42,867,1760,1851,2069,2255,2063,1828,1864,1997
425864,29768,-3528,30710,-2058,1069,1204,503,-443,191,-377,791,4019,45,33,869,1760,1851,2069,2255,2063,1828,1864,1997
426865,29836,-3464,30775,-1993,766,1506,476,-399,167,344,940,3813,25,50,871,1761,1855,2073,2261,2072,1831,1876,2009
427866,29884,-3400,30840,-1928,1037,1507,453,-386,145,309,840,3848,28,37,869,1761,1855,2073,2261,2072,1831,1876,2009
428867,29932,-3336,30905,-1863,1058,1510,421,-359,108,70,963,3900,27,38,868,1761,1855,2073,2261,2072,1831,1876,2009
429868,29996,-3252,30970,-1798,859,1236,413,-356,96,790,921,3620,44,42,867,1761,1855,2073,2261,2072,1831,1876,2009
430869,30060,-3188,31035,-1733,862,1489,380,-413,106,120,855,3680,35,50,874,1761,1855,2073,2261,2072,1831,1876,2009
431870,30112,-3124,31100,-1668,1028,1491,346,-402,86,-727,862,3717,36,40,870,1761,1855,2073,2261,2072,1831,1876,2009
432871,30176,-3052,31165,-1603,879,1382,338,-315,88,-54,819,3878,45,49,868,1772,1864,2081,2268,2091,1847,1887,2025
433872,30248,-2980,31230,-1538,771,1375,331,-295,94,484,859,3679,43,38,872,1772,1864,2081,2268,2091,1847,1887,2025
434873,30300,-2924,31295,-1473,1037,1586,304,-321,87,-103,811,3549,48,43,873,1772,1864,2081,2268,2091,1847,1887,2025
435874,30376,-2848,31360,-1408,725,1323,295,-337,89,-548,925,3913,30,50,867,1772,1864,2081,2268,2091,1847,1887,2025
436875,30432,-2756,31425,-1343,986,1090,283,-334,80,-265,844,3602,39,42,874,1772,1864,2081,2268,2091,1847,1887,2025
437876,30480,-2700,31490,-1278,1106,1552,280,-324,73,21,789,3883,27,37,874,1754,1847,2067,2241,2096,1846,1878,2015
438877,30552,-2640,31555,-1213,799,1508,279,-279,79,130,761,3770,38,38,867,1754,1847,2067,2241,2096,1846,1878,2015
439878,30604,-2580,31620,-1148,1065,1516,280,-282,65,106,801,3694,35,38,871,1754,1847,2067,2241,2096,1846,1878,2015
440879,30656,-2508,31685,-1083,1081,1357,275,-274,63,5,856,3954,42,35,867,1754,1847,2067,2241,2096,1846,1878,2015
441880,30708,-2452,31750,-1018,1097,1569,263,-269,65,53,838,3810,34,50,870,1754,1847,2067,2241,2096,1846,1878,2015
442881,30776,-2376,31815,-953,894,1307,244,-253,66,-8,925,3808,40,36,865,1754,1847,2067,2241,2096,1846,1878,2015
443882,30848,-2304,31880,-888,836,1348,227,-231,80,-31,976,3839,54,44,873,1729,1820,2049,2224,2070,1826,1852,1986
444883,30912,-2260,31945,-823,937,1725,208,-241,99,241,933,3628,44,31,871,1729,1820,2049,2224,2070,1826,1852,1986
445884,30940,-2188,32010,-758,1433,1366,190,-273,120,-18,975,3944,39,47,866,1729,1820,2049,2224,2070,1826,1852,1986
446885,31020,-2156,32075,-693,765,1907,159,-276,133,-356,1072,3947,36,32,866,1729,1820,2049,2224,2070,1826,1852,1986
447887,31104,-2084,32274,-494,1543,2249,124,-252,147,70,1094,3634,60,46,864,1729,1820,2049,2224,2070,1826,1852,1986
448887,31176,-2020,32339,-429,1685,2352,87,-249,173,274,1076,3726,41,32,850,1738,1828,2056,2242,2060,1823,1858,1994
449888,31252,-1944,32404,-364,1622,2188,46,-242,181,156,1192,3722,62,51,847,1738,1828,2056,2242,2060,1823,1858,1994
450889,31344,-1864,32469,-299,1390,2121,22,-208,180,10,1271,3843,68,55,849,1738,1828,2056,2242,2060,1823,1858,1994
451890,31464,-1776,32534,-234,973,1994,-3,-180,198,302,1174,3789,55,49,855,1738,1828,2056,2242,2060,1823,1858,1994
452891,31560,-1664,32599,-169,1235,1636,-18,-151,205,535,1123,3706,60,61,862,1738,1828,2056,2242,2060,1823,1858,1994
453892,31668,-1600,32664,-104,1033,2239,-26,-141,220,291,1201,3783,67,53,865,1738,1828,2056,2242,2060,1823,1858,1994
454893,31768,-1496,32729,-39,1091,1691,-22,-126,194,295,1347,3842,75,60,858,1763,1853,2079,2259,2095,1849,1883,2030
455894,31868,-1408,32794,26,1049,1864,-44,-143,175,247,1256,3750,66,50,866,1763,1853,2079,2259,2095,1849,1883,2030
456895,31956,-1320,32859,91,1171,1836,-42,-141,165,185,1339,4135,69,54,862,1763,1853,2079,2259,2095,1849,1883,2030
457896,32052,-1224,32924,156,1033,1699,-40,-151,154,43,1415,3834,69,57,863,1763,1853,2079,2259,2095,1849,1883,2030
458897,32156,-1148,32989,221,886,1937,-27,-144,135,327,1327,4230,63,48,867,1763,1853,2079,2259,2095,1849,1883,2030
459898,32264,-1056,33054,286,784,1704,-9,-170,150,193,1314,4121,67,54,864,1768,1859,2092,2266,2120,1862,1888,2036
460899,32376,-992,33119,351,676,2056,-6,-222,149,-95,1177,3989,56,41,868,1768,1859,2092,2266,2120,1862,1888,2036
461900,32472,-900,33184,416,839,1673,16,-253,140,-226,1345,4211,53,52,862,1768,1859,2092,2266,2120,1862,1888,2036
462901,32568,-836,33249,481,802,2025,19,-250,148,-238,1369,4207,61,55,869,1768,1859,2092,2266,2120,1862,1888,2036
463902,32668,-740,33314,546,709,1587,16,-247,153,404,1620,4243,57,46,864,1768,1859,2092,2266,2120,1862,1888,2036
464903,32744,-660,33379,611,996,1770,-2,-225,160,552,1672,4342,60,56,871,1768,1859,2092,2266,2120,1862,1888,2036
465904,32840,-592,33444,676,708,1916,-22,-234,188,194,1602,4107,47,51,864,1778,1880,2106,2284,2088,1840,1872,2013
466905,32912,-528,33509,741,1000,1968,-38,-196,181,304,1787,4244,62,55,865,1778,1880,2106,2284,2088,1840,1872,2013
467906,32996,-440,33574,806,827,1640,-66,-204,186,388,1617,4044,58,52,862,1778,1880,2106,2284,2088,1840,1872,2013
468907,33068,-356,33639,871,969,1667,-97,-200,195,314,1679,4436,50,49,869,1778,1880,2106,2284,2088,1840,1872,2013
469908,33144,-268,33704,936,905,1590,-111,-222,217,174,1728,3900,46,46,866,1778,1880,2106,2284,2088,1840,1872,2013
470909,33208,-196,33769,1001,1057,1782,-105,-231,232,455,1740,4316,60,46,869,1803,1899,2127,2312,2069,1832,1866,2003
471910,33276,-132,33834,1066,1004,1884,-101,-251,216,564,1681,3993,39,41,865,1803,1899,2127,2312,2069,1832,1866,2003
472911,33364,-48,33899,1131,726,1611,-111,-288,190,207,1654,4092,41,40,864,1803,1899,2127,2312,2069,1832,1866,2003
473912,33448,16,33964,1196,752,1863,-117,-319,187,48,1637,4215,56,39,870,1803,1899,2127,2312,2069,1832,1866,2003
474913,33524,76,34029,1261,839,1919,-124,-325,187,385,1494,4079,53,40,866,1803,1899,2127,2312,2069,1832,1866,2003
475914,33600,152,34094,1326,827,1707,-118,-324,158,678,1617,4222,35,48,864,1803,1899,2127,2312,2069,1832,1866,2003
476915,33664,224,34159,1391,978,1748,-100,-340,147,267,1652,3992,36,44,867,1801,1891,2124,2304,2084,1844,1870,2015
477916,33728,292,34224,1456,979,1795,-86,-371,132,219,1816,4255,46,39,866,1801,1891,2124,2304,2084,1844,1870,2015
478917,33800,360,34289,1521,870,1792,-70,-394,97,460,1888,4038,43,54,862,1801,1891,2124,2304,2084,1844,1870,2015
479918,33856,440,34354,1586,1081,1623,-74,-392,69,424,1827,4285,42,49,865,1801,1891,2124,2304,2084,1844,1870,2015
480919,33944,516,34419,1651,653,1661,-74,-367,55,337,1874,4291,48,52,866,1801,1891,2124,2304,2084,1844,1870,2015
481920,33972,588,34484,1716,1450,1702,-89,-359,48,392,1871,3932,52,48,870,1784,1872,2106,2280,2088,1842,1872,2017
482921,34056,656,34549,1781,726,1750,-100,-375,36,300,1813,4239,34,52,860,1784,1872,2106,2280,2088,1842,1872,2017
483922,34140,728,34614,1846,703,1691,-113,-377,47,181,1860,4019,53,43,868,1784,1872,2106,2280,2088,1842,1872,2017
484923,34200,800,34679,1911,1009,1684,-118,-384,51,186,1980,4055,49,38,870,1784,1872,2106,2280,2088,1842,1872,2017
485924,34268,880,34744,1976,906,1565,-128,-363,53,225,1786,4087,47,53,866,1784,1872,2106,2280,2088,1842,1872,2017
486925,34336,964,34809,2041,903,1492,-132,-345,58,339,1799,4156,54,44,869,1784,1872,2106,2280,2088,1842,1872,2017
487926,34404,1040,34874,2106,899,1580,-137,-324,66,258,1773,4061,43,42,870,1768,1867,2097,2267,2091,1845,1871,2017
488927,34460,1124,34939,2171,1060,1457,-139,-309,79,258,1834,4009,46,39,869,1768,1867,2097,2267,2091,1845,1871,2017
489928,34532,1192,35004,2236,852,1654,-134,-301,84,291,1774,4041,38,49,868,1768,1867,2097,2267,2091,1845,1871,2017
490929,34592,1256,35069,2301,1008,1705,-146,-294,77,379,1764,3779,41,50,868,1768,1867,2097,2267,2091,1845,1871,2017
491930,34672,1324,35134,2366,739,1651,-162,-297,70,301,1688,3871,47,44,866,1768,1867,2097,2267,2091,1845,1871,2017
492931,34740,1412,35199,2431,887,1374,-177,-281,71,148,1768,4017,59,49,869,1761,1859,2095,2266,2090,1845,1864,2007
493932,34808,1484,35264,2496,883,1566,-187,-270,67,515,1727,3682,43,48,871,1761,1859,2095,2266,2090,1845,1864,2007
494933,34884,1568,35329,2561,770,1394,-199,-258,60,555,1676,3991,41,40,869,1761,1859,2095,2266,2090,1845,1864,2007
495934,34960,1632,35394,2626,756,1645,-217,-268,57,364,1732,3655,53,38,870,1761,1859,2095,2266,2090,1845,1864,2007
496935,35032,1708,35459,2691,798,1481,-233,-269,46,379,1788,3862,40,39,868,1761,1859,2095,2266,2090,1845,1864,2007
497936,35112,1776,35524,2756,679,1579,-237,-252,36,552,1656,3721,48,39,871,1761,1859,2095,2266,2090,1845,1864,2007
498937,35180,1860,35589,2821,827,1356,-245,-241,22,691,1746,3699,41,39,871,1759,1848,2090,2264,2081,1840,1857,1996
499938,35252,1932,35654,2886,768,1497,-258,-220,4,472,1682,3866,56,41,872,1759,1848,2090,2264,2081,1840,1857,1996
500939,35328,2000,35719,2951,705,1544,-275,-176,-9,485,1676,3660,40,42,872,1759,1848,2090,2264,2081,1840,1857,1996
501940,35400,2084,35784,3016,746,1321,-290,-149,-11,614,1662,3736,48,52,871,1759,1848,2090,2264,2081,1840,1857,1996
502941,35476,2152,35849,3081,683,1518,-312,-129,-4,472,1619,3539,54,38,874,1759,1848,2090,2264,2081,1840,1857,1996
503942,35548,2232,35914,3146,724,1350,-327,-121,-8,271,1694,3582,37,40,872,1751,1838,2075,2249,2073,1833,1853,1987
504943,35620,2304,35979,3211,716,1442,-356,-118,-1,264,1551,3464,55,55,874,1751,1838,2075,2249,2073,1833,1853,1987
505944,35700,2372,36044,3276,598,1489,-376,-111,5,422,1780,3611,56,48,873,1751,1838,2075,2249,2073,1833,1853,1987
506945,35780,2452,36109,3341,580,1321,-420,-110,10,271,1844,3428,51,44,873,1751,1838,2075,2249,2073,1833,1853,1987
507946,35844,2540,36174,3406,781,1193,-458,-110,14,221,1604,3616,46,57,875,1751,1838,2075,2249,2073,1833,1853,1987
508947,35916,2656,36239,3471,673,781,-479,-87,32,467,1588,3614,35,47,876,1751,1838,2075,2249,2073,1833,1853,1987
509948,36004,2740,36304,3536,445,1158,-435,-121,97,794,1509,3371,39,54,882,1737,1831,2061,2228,2080,1835,1859,2003
510949,36068,2828,36369,3601,746,1080,-441,-165,91,-331,1281,3987,54,44,879,1737,1831,2061,2228,2080,1835,1859,2003
511950,36144,2904,36434,3666,583,1217,-486,-62,55,-501,1314,3775,50,43,878,1737,1831,2061,2228,2080,1835,1859,2003
512951,36228,2984,36499,3731,459,1149,-535,76,96,886,1482,3160,36,41,875,1737,1831,2061,2228,2080,1835,1859,2003
513952,36304,3056,36564,3796,547,1241,-585,90,137,1158,1280,3258,38,45,879,1737,1831,2061,2228,2080,1835,1859,2003
514953,36376,3136,36629,3861,588,1123,-595,89,173,53,1311,3444,53,49,877,1725,1824,2051,2212,2094,1842,1865,2015
515954,36444,3216,36694,3926,635,1105,-561,91,185,108,1442,3425,35,37,878,1725,1824,2051,2212,2094,1842,1865,2015
516955,36516,3292,36759,3991,576,1142,-529,69,171,459,1199,3145,39,42,878,1725,1824,2051,2212,2094,1842,1865,2015
517956,36620,3364,36824,4056,129,1183,-513,66,163,433,1293,3043,52,54,878,1725,1824,2051,2212,2094,1842,1865,2015
518957,36700,3436,36889,4121,410,1175,-525,75,165,446,1370,2901,55,44,881,1725,1824,2051,2212,2094,1842,1865,2015
519958,36768,3528,36954,4186,557,893,-564,85,173,506,1312,2894,52,44,880,1725,1824,2051,2212,2094,1842,1865,2015
520959,36848,3616,37019,4251,388,915,-594,104,188,499,1417,2942,41,59,882,1718,1813,2044,2210,2074,1823,1845,1975
521960,36916,3688,37084,4316,535,1106,-626,96,199,458,1432,2747,34,59,883,1718,1813,2044,2210,2074,1823,1845,1975
522961,36996,3764,37149,4381,366,1043,-651,88,190,495,1396,2860,50,50,879,1718,1813,2044,2210,2074,1823,1845,1975
523962,37068,3856,37214,4446,458,811,-687,79,180,428,1384,2673,32,57,881,1718,1813,2044,2210,2074,1823,1845,1975
524963,37136,3960,37279,4511,504,613,-733,78,176,409,1350,2994,38,60,884,1718,1813,2044,2210,2074,1823,1845,1975
525964,37212,4060,37344,4576,391,620,-767,102,214,492,1428,2855,35,61,885,1725,1810,2032,2202,2022,1784,1812,1938
526965,37284,4144,37409,4641,432,797,-791,132,248,776,1213,2767,43,44,886,1725,1810,2032,2202,2022,1784,1812,1938
527966,37368,4232,37474,4706,259,719,-831,138,267,503,1057,2960,53,43,884,1725,1810,2032,2202,2022,1784,1812,1938
528967,37432,4312,37539,4771,511,802,-873,138,289,188,1037,2799,52,51,886,1725,1810,2032,2202,2022,1784,1812,1938
529968,37488,4400,37604,4836,622,674,-908,155,324,430,920,2779,33,51,881,1725,1810,2032,2202,2022,1784,1812,1938
530969,37572,4480,37669,4901,249,755,-946,172,365,536,802,2734,37,44,883,1725,1810,2032,2202,2022,1784,1812,1938
531970,37644,4572,37734,4966,390,572,-963,211,411,389,862,2641,52,49,886,1700,1790,2008,2168,2022,1786,1817,1957
532971,37704,4644,37799,5031,546,814,-987,236,451,399,723,2612,54,39,887,1700,1790,2008,2168,2022,1786,1817,1957
533972,37796,4732,37864,5096,114,586,-997,219,479,191,789,2664,52,40,883,1700,1790,2008,2168,2022,1786,1817,1957
534973,37876,4804,37929,5161,245,777,-988,189,500,83,810,2417,39,54,888,1700,1790,2008,2168,2022,1786,1817,1957
535974,37956,4892,37994,5226,227,550,-972,182,509,280,693,2453,51,42,885,1700,1790,2008,2168,2022,1786,1817,1957
536975,38044,4976,38059,5291,99,577,-974,183,504,441,814,2611,52,43,888,1670,1769,1991,2143,2065,1815,1843,1979
537976,38108,5064,38124,5356,400,499,-967,167,516,187,821,2344,50,50,888,1670,1769,1991,2143,2065,1815,1843,1979
538977,38176,5168,38189,5421,346,251,-986,170,520,278,881,2544,32,46,887,1670,1769,1991,2143,2065,1815,1843,1979
539978,38268,5252,38254,5486,13,478,-972,162,530,604,819,2510,39,58,889,1670,1769,1991,2143,2065,1815,1843,1979
540979,38344,5328,38319,5551,200,565,-977,107,536,570,971,2238,51,44,890,1670,1769,1991,2143,2065,1815,1843,1979
541980,38408,5424,38384,5616,351,277,-970,88,528,155,797,2673,46,54,888,1670,1769,1991,2143,2065,1815,1843,1979
542981,38488,5508,38449,5681,133,404,-988,92,520,554,905,2566,43,56,890,1681,1783,1994,2158,2048,1797,1836,1959
543982,38560,5592,38514,5746,224,380,-996,97,527,597,1022,2590,35,41,890,1681,1783,1994,2158,2048,1797,1836,1959
544983,38640,5660,38579,5811,106,577,-1037,111,551,560,880,2567,33,39,890,1681,1783,1994,2158,2048,1797,1836,1959
545984,38708,5752,38644,5876,252,244,-1078,137,553,647,819,2757,32,55,888,1681,1783,1994,2158,2048,1797,1836,1959
546985,38768,5832,38709,5941,358,376,-1108,145,565,500,892,2840,41,42,889,1681,1783,1994,2158,2048,1797,1836,1959
547986,38832,5924,38774,6006,310,194,-1125,132,582,306,629,2703,39,42,889,1712,1813,2008,2178,1995,1760,1811,1934
548987,38916,6012,38839,6071,37,216,-1132,128,598,290,581,2993,37,56,890,1712,1813,2008,2178,1995,1760,1811,1934
549988,39008,6088,38904,6136,-96,352,-1123,104,613,307,267,2957,33,55,892,1712,1813,2008,2178,1995,1760,1811,1934
550989,39072,6164,38969,6201,255,339,-1110,66,639,115,133,2984,50,43,886,1712,1813,2008,2178,1995,1760,1811,1934
551990,39124,6240,39034,6266,420,325,-1083,22,663,14,210,2905,35,43,890,1712,1813,2008,2178,1995,1760,1811,1934
552991,39204,6368,39099,6331,51,-402,-1054,-15,677,37,78,3068,44,56,889,1720,1824,2024,2189,1995,1763,1815,1946
553992,39276,6456,39164,6396,143,70,-1025,-56,705,89,-41,3315,52,57,890,1720,1824,2024,2189,1995,1763,1815,1946
554993,39352,6548,39229,6461,79,-13,-969,-85,734,139,112,3067,42,48,892,1720,1824,2024,2189,1995,1763,1815,1946
555994,39448,6664,39294,6526,-208,-375,-926,-117,732,172,115,3007,35,39,892,1720,1824,2024,2189,1995,1763,1815,1946
556995,39536,6808,39359,6591,-137,-822,-894,-152,734,27,48,3305,36,42,874,1720,1824,2024,2189,1995,1763,1815,1946
557996,39612,6892,39424,6656,0,-96,-863,-149,765,171,438,3146,33,41,875,1720,1824,2024,2189,1995,1763,1815,1946
558997,39712,6988,39489,6721,-343,-283,-827,-162,775,318,442,3023,27,44,892,1756,1863,2061,2245,2005,1753,1811,1947
559998,39848,7064,39554,6786,-879,-47,-826,-215,748,52,205,3277,29,44,891,1756,1863,2061,2245,2005,1753,1811,1947
560999,39960,7120,39619,6851,-637,214,-821,-241,736,-8,184,3290,38,38,887,1756,1863,2061,2245,2005,1753,1811,1947
562000,40048,7176,39684,6916,-365,225,-824,-253,752,237,488,3031,31,31,892,1756,1863,2061,2245,2005,1753,1811,1947
563001,40104,7252,39749,6981,46,-38,-825,-267,752,397,611,2861,40,41,892,1756,1863,2061,2245,2005,1753,1811,1947
564002,40164,7324,39814,7046,1,3,-822,-275,727,217,616,3099,32,48,891,1796,1910,2093,2301,1995,1775,1843,1951
565003,40232,7404,39879,7111,-102,-115,-805,-273,704,-147,445,3108,29,34,893,1796,1910,2093,2301,1995,1775,1843,1951
566004,40324,7480,39944,7176,-435,-79,-787,-282,674,109,542,3140,28,44,887,1796,1910,2093,2301,1995,1775,1843,1951
567005,40384,7552,40009,7241,-29,-38,-762,-308,646,131,449,3209,45,44,892,1796,1910,2093,2301,1995,1775,1843,1951
568006,40456,7616,40074,7306,-188,63,-731,-312,635,0,175,3288,40,40,893,1796,1910,2093,2301,1995,1775,1843,1951
569007,40516,7684,40139,7371,-32,9,-703,-340,634,-158,-9,3384,31,37,879,1796,1910,2093,2301,1995,1775,1843,1951
570008,40592,7772,40204,7436,-245,-269,-662,-389,627,-485,-141,3439,41,42,893,1811,1895,2082,2265,1997,1773,1830,1937
571009,40660,7852,40269,7501,-150,-187,-617,-414,644,-424,-483,3673,30,52,891,1811,1895,2082,2265,1997,1773,1830,1937
572010,40732,7928,40334,7566,-208,-150,-569,-418,684,-113,-530,3710,47,50,892,1811,1895,2082,2265,1997,1773,1830,1937
573011,40784,8008,40399,7631,58,-219,-514,-425,713,-250,-493,3771,28,42,876,1811,1895,2082,2265,1997,1773,1830,1937
574012,40872,8088,40464,7696,-421,-237,-466,-406,715,-280,-621,4003,42,37,892,1811,1895,2082,2265,1997,1773,1830,1937
575013,40928,8164,40529,7761,-10,-201,-435,-372,739,-359,-685,3874,49,46,892,1764,1868,2060,2272,1987,1761,1820,1928
576014,41020,8240,40594,7826,-493,-215,-430,-364,755,-148,-416,3825,33,49,892,1764,1868,2060,2272,1987,1761,1820,1928
577015,41076,8320,40659,7891,-32,-283,-426,-369,761,-214,-208,3503,41,53,891,1764,1868,2060,2272,1987,1761,1820,1928
578016,41148,8384,40724,7956,-241,-82,-396,-424,765,-245,-307,3727,33,38,891,1764,1868,2060,2272,1987,1761,1820,1928
579017,41216,8464,40789,8021,-195,-300,-383,-471,760,-232,-92,3352,44,41,891,1764,1868,2060,2272,1987,1761,1820,1928
580018,41308,8560,40854,8086,-528,-538,-361,-456,714,230,-40,3802,42,38,891,1764,1868,2060,2272,1987,1761,1820,1928
581019,41384,8640,40919,8151,-341,-357,-363,-404,687,33,-265,3168,41,45,886,1810,1894,2096,2320,2004,1796,1857,1944
582020,41452,8704,40984,8216,-245,-156,-403,-362,662,210,-111,3368,49,51,891,1810,1894,2096,2320,2004,1796,1857,1944
583021,41524,8776,41049,8281,-303,-265,-449,-338,641,-252,-207,3196,40,35,892,1810,1894,2096,2320,2004,1796,1857,1944
584022,41588,8852,41114,8346,-203,-328,-468,-360,621,-180,-100,3206,48,36,891,1810,1894,2096,2320,2004,1796,1857,1944
585023,41680,8928,41179,8411,-586,-342,-449,-326,601,-79,-505,3767,35,41,874,1810,1894,2096,2320,2004,1796,1857,1944
586024,41752,9012,41244,8476,-345,-466,-432,-251,573,-34,-538,3453,38,42,890,1832,1897,2100,2321,2048,1830,1885,1964
587025,41832,9088,41309,8541,-463,-379,-423,-214,531,-222,-550,3771,37,44,889,1832,1897,2100,2321,2048,1830,1885,1964
588026,41920,9156,41374,8606,-591,-283,-413,-205,490,-662,-778,3528,40,44,890,1832,1897,2100,2321,2048,1830,1885,1964
589027,41992,9240,41439,8671,-401,-506,-408,-185,478,-604,-1065,4136,48,43,891,1832,1897,2100,2321,2048,1830,1885,1964
590028,42072,9304,41504,8736,-519,-255,-398,-151,474,-229,-1069,3845,49,41,889,1832,1897,2100,2321,2048,1830,1885,1964
591029,42160,9392,41569,8801,-647,-584,-392,-116,462,-478,-1108,4058,41,49,891,1832,1897,2100,2321,2048,1830,1885,1964
592030,42232,9472,41634,8866,-455,-502,-399,-78,447,-592,-1160,4116,54,41,888,1779,1865,2065,2270,2069,1849,1883,1993
593031,42336,9544,41699,8931,-904,-411,-413,-59,444,-575,-1197,3872,35,46,889,1779,1865,2065,2270,2069,1849,1883,1993
594032,42416,9604,41764,8996,-622,-255,-434,-45,434,-530,-1290,4063,54,44,878,1779,1865,2065,2270,2069,1849,1883,1993
595033,42520,9684,41829,9061,-970,-524,-463,-27,441,-308,-1437,4022,52,46,892,1779,1865,2065,2270,2069,1849,1883,1993
596034,42604,9740,41894,9126,-743,-213,-481,-25,450,-443,-1421,3968,45,39,889,1779,1865,2065,2270,2069,1849,1883,1993
597035,42700,9816,41959,9191,-932,-476,-507,15,445,-728,-1453,4097,47,34,892,1728,1840,2048,2256,2080,1865,1906,2008
598036,42792,9888,42024,9256,-915,-435,-539,66,427,-381,-1348,4072,59,41,882,1728,1840,2048,2256,2080,1865,1906,2008
599037,42888,9956,42089,9321,-1003,-390,-590,98,406,147,-1367,4087,60,41,890,1728,1840,2048,2256,2080,1865,1906,2008
600038,42984,10016,42154,9386,-1041,-284,-629,112,380,-167,-1414,4106,62,47,891,1728,1840,2048,2256,2080,1865,1906,2008
601039,43092,10080,42219,9451,-1244,-332,-664,137,333,-597,-1441,4043,55,44,891,1728,1840,2048,2256,2080,1865,1906,2008
602040,43172,10164,42284,9516,-912,-606,-690,133,289,-260,-1551,4031,44,39,889,1728,1840,2048,2256,2080,1865,1906,2008
603041,43288,10224,42349,9581,-1425,-300,-702,150,247,116,-1535,3917,62,37,888,1761,1849,2055,2280,2113,1880,1942,2041
604042,43380,10292,42414,9646,-1159,-404,-730,114,214,-274,-1741,3729,60,33,891,1761,1849,2055,2280,2113,1880,1942,2041
605043,43488,10360,42479,9711,-1411,-408,-769,97,188,-507,-1976,4090,56,41,890,1761,1849,2055,2280,2113,1880,1942,2041
606044,43592,10420,42544,9776,-1410,-302,-807,149,177,-175,-2048,4302,54,47,889,1761,1849,2055,2280,2113,1880,1942,2041
607045,43708,10500,42609,9841,-1622,-571,-853,211,178,41,-1969,4271,47,45,891,1761,1849,2055,2280,2113,1880,1942,2041
608046,43812,10560,42674,9906,-1520,-315,-918,274,193,-42,-2280,4428,58,36,888,1781,1873,2065,2295,2133,1904,1958,2059
609047,43924,10636,42739,9971,-1678,-528,-956,314,215,-11,-2311,4353,50,38,891,1781,1873,2065,2295,2133,1904,1958,2059
610048,44028,10700,42804,10036,-1626,-377,-969,295,212,-395,-2054,4581,59,37,887,1781,1873,2065,2295,2133,1904,1958,2059
611049,44156,10776,42869,10101,-2004,-541,-982,233,197,-609,-2280,4277,60,34,890,1781,1873,2065,2295,2133,1904,1958,2059
612050,44244,10852,42934,10166,-1532,-555,-986,120,182,-278,-2297,4581,66,37,889,1781,1873,2065,2295,2133,1904,1958,2059
613051,44332,10928,42999,10231,-1561,-568,-966,-41,157,-680,-2124,4253,52,35,889,1781,1873,2065,2295,2133,1904,1958,2059
614052,44460,10976,43064,10296,-2138,-198,-901,-196,121,-1243,-2218,4086,63,43,888,1788,1885,2081,2305,2139,1903,1962,2063
615053,44556,11056,43129,10361,-1776,-617,-833,-308,66,-230,-2163,4812,69,29,890,1788,1885,2081,2305,2139,1903,1962,2063
616054,44660,11108,43194,10426,-1924,-251,-770,-457,15,-150,-2169,4019,62,30,888,1788,1885,2081,2305,2139,1903,1962,2063
617055,44788,11168,43259,10491,-2302,-345,-692,-570,-64,-95,-1996,4368,46,32,891,1788,1885,2081,2305,2139,1903,1962,2063
618056,44888,11228,43324,10556,-1996,-339,-643,-590,-100,371,-2273,4439,49,41,891,1788,1885,2081,2305,2139,1903,1962,2063
619057,45000,11288,43389,10621,-2203,-334,-629,-590,-117,1016,-2318,4214,66,32,891,1842,1934,2130,2361,2058,1822,1917,2004
620058,45128,11336,43454,10686,-2481,-163,-643,-571,-129,826,-2271,3981,71,32,891,1842,1934,2130,2361,2058,1822,1917,2004
621059,45228,11412,43519,10751,-2174,-526,-671,-512,-140,740,-2375,4404,51,36,892,1842,1934,2130,2361,2058,1822,1917,2004
622060,45344,11472,43584,10816,-2437,-320,-732,-457,-130,1018,-2432,4095,68,30,889,1842,1934,2130,2361,2058,1822,1917,2004
623062,45464,11524,43649,10881,-2555,-205,-787,-449,-120,958,-2044,4182,52,30,891,1842,1934,2130,2361,2058,1822,1917,2004
624062,45560,11588,43714,10946,-2293,-354,-818,-457,-119,634,-2024,4623,59,33,892,1842,1934,2130,2361,2058,1822,1917,2004
625063,45664,11660,43779,11011,-2442,-463,-855,-555,-107,325,-2700,4196,71,36,891,1935,2039,2175,2428,1960,1756,1854,1936
626064,45812,11704,43844,11076,-3094,-87,-851,-648,-114,143,-2558,4902,61,33,890,1935,2039,2175,2428,1960,1756,1854,1936
627065,45932,11760,43909,11141,-2812,-227,-822,-686,-97,187,-2637,5078,48,32,882,1935,2039,2175,2428,1960,1756,1854,1936
628066,46040,11832,43974,11206,-2714,-436,-810,-754,-35,158,-3387,5244,68,33,892,1935,2039,2175,2428,1960,1756,1854,1936
629067,46160,11876,44039,11271,-2933,-60,-788,-877,-4,-27,-3034,4850,68,35,890,1935,2039,2175,2428,1960,1756,1854,1936
630068,46276,11956,44104,11336,-2946,-528,-723,-1007,-6,-54,-2959,5049,48,43,893,1890,1976,2139,2397,2021,1826,1907,1984
631069,46372,12016,44169,11401,-2735,-273,-652,-1076,-8,412,-3233,5109,60,45,883,1890,1976,2139,2397,2021,1826,1907,1984
632070,46484,12072,44234,11466,-2993,-212,-585,-1109,-23,495,-3054,4977,61,30,890,1890,1976,2139,2397,2021,1826,1907,1984
633071,46588,12128,44299,11531,-2942,-201,-499,-1044,-33,829,-2931,5359,66,45,892,1890,1976,2139,2397,2021,1826,1907,1984
634072,46688,12192,44364,11596,-2934,-300,-391,-893,-39,1405,-3310,5440,65,38,892,1890,1976,2139,2397,2021,1826,1907,1984
635073,46804,12252,44429,11661,-3198,-245,-260,-704,-35,1601,-3138,5515,51,45,888,1890,1976,2139,2397,2021,1826,1907,1984
636074,46904,12308,44494,11726,-3041,-184,-141,-503,-57,1881,-2830,5527,43,35,892,1866,1952,2148,2428,2141,1897,1989,2046
637075,46988,12380,44559,11791,-2866,-392,-40,-304,-104,1851,-2804,5709,45,43,892,1866,1952,2148,2428,2141,1897,1989,2046
638076,47104,12420,44624,11856,-3329,38,15,-132,-136,1775,-2799,5457,59,38,890,1866,1952,2148,2428,2141,1897,1989,2046
639077,47192,12488,44689,11921,-3008,-316,40,-5,-151,1794,-2318,5557,55,30,892,1866,1952,2148,2428,2141,1897,1989,2046
640078,47292,12540,44754,11986,-3202,-101,37,104,-163,1422,-2023,5246,47,41,891,1866,1952,2148,2428,2141,1897,1989,2046
641079,47372,12592,44819,12051,-2971,-85,-4,115,-156,741,-2354,4929,40,35,893,1937,2002,2191,2567,2108,1908,1966,1970
642080,47440,12656,44884,12116,-2826,-234,-47,93,-149,689,-2239,4890,45,38,893,1937,2002,2191,2567,2108,1908,1966,1970
643081,47532,12692,44949,12181,-3160,152,-95,24,-111,706,-2288,4827,52,38,891,1937,2002,2191,2567,2108,1908,1966,1970
644082,47608,12744,45014,12246,-2974,-33,-107,21,-69,863,-2322,5182,51,43,892,1937,2002,2191,2567,2108,1908,1966,1970
645083,47676,12800,45079,12311,-2879,-72,-101,36,-18,937,-2656,5242,34,38,893,1937,2002,2191,2567,2108,1908,1966,1970
646084,47752,12872,45144,12376,-2993,-281,-70,87,39,1395,-2968,5540,34,38,893,1937,2002,2191,2567,2108,1908,1966,1970
647085,47820,12912,45209,12441,-2898,150,-13,183,105,1905,-3091,5756,46,33,891,1957,2011,2220,2560,2071,1879,1926,1967
648086,47880,12976,45274,12506,-2793,-149,60,333,152,2133,-3047,5917,42,35,893,1957,2011,2220,2560,2071,1879,1926,1967
649087,47948,13044,45339,12571,-2897,-203,144,520,192,2390,-3180,5883,39,42,890,1957,2011,2220,2560,2071,1879,1926,1967
650088,48020,13092,45404,12636,-2957,67,224,666,235,2443,-3207,5608,40,40,892,1957,2011,2220,2560,2071,1879,1926,1967
651089,48072,13148,45469,12701,-2692,-22,287,773,267,2521,-2960,5567,22,38,892,1957,2011,2220,2560,2071,1879,1926,1967
652090,48132,13196,45534,12766,-2787,99,327,816,297,2097,-2776,4784,22,29,893,1899,1976,2187,2451,2073,1860,1917,2000
653091,48176,13256,45599,12831,-2562,-45,351,828,303,1696,-2528,4860,32,41,893,1899,1976,2187,2451,2073,1860,1917,2000
654092,48232,13324,45664,12896,-2702,-149,366,837,275,1712,-1933,4735,27,35,893,1899,1976,2187,2451,2073,1860,1917,2000
655093,48264,13368,45729,12961,-2363,177,380,855,243,1943,-1608,4778,22,42,892,1899,1976,2187,2451,2073,1860,1917,2000
656094,48312,13420,45794,13026,-2543,92,368,817,236,1848,-1471,4318,16,28,892,1899,1976,2187,2451,2073,1860,1917,2000
657095,48340,13492,45859,13091,-2249,-167,343,711,211,1589,-1105,4167,26,44,893,1899,1976,2187,2451,2073,1860,1917,2000
658096,48380,13552,45924,13156,-2370,-11,323,576,176,1055,-805,3874,26,31,893,1881,1970,2156,2402,2086,1848,1910,2023
659097,48416,13616,45989,13221,-2285,-60,312,485,136,1050,-634,3965,8,30,893,1881,1970,2156,2402,2086,1848,1910,2023
660098,48436,13676,46054,13286,-2031,-4,322,453,117,1353,-583,3884,25,34,879,1881,1970,2156,2402,2086,1848,1910,2023
661099,48460,13740,46119,13351,-2031,-52,345,429,117,1681,-654,3969,24,27,893,1881,1970,2156,2402,2086,1848,1910,2023
662100,48484,13784,46184,13416,-1982,222,387,407,129,1681,-652,3880,21,43,893,1881,1970,2156,2402,2086,1848,1910,2023
663101,48508,13860,46249,13481,-1933,-191,442,386,144,1487,-660,3924,20,38,892,1841,1946,2113,2308,2104,1851,1928,2048
664102,48532,13908,46314,13546,-1884,180,512,390,147,1538,-616,4048,12,36,882,1841,1946,2113,2308,2104,1851,1928,2048
665103,48568,13980,46379,13611,-2000,-129,575,411,165,1657,-753,4013,6,36,892,1841,1946,2113,2308,2104,1851,1928,2048
666104,48568,14024,46444,13676,-1471,247,638,450,184,1848,-738,4245,18,42,891,1841,1946,2113,2308,2104,1851,1928,2048
667105,48576,14092,46509,13741,-1503,-57,692,467,205,1601,-730,4010,1,25,892,1841,1946,2113,2308,2104,1851,1928,2048
668106,48588,14148,46574,13806,-1488,104,732,411,217,1267,-626,3691,-3,29,888,1841,1946,2113,2308,2104,1851,1928,2048
669107,48600,14200,46639,13871,-1424,169,749,313,226,935,-655,3575,-3,37,893,1777,1897,2087,2279,2048,1812,1859,1967
670108,48592,14264,46704,13936,-1086,20,753,214,232,782,-729,3312,13,28,892,1777,1897,2087,2279,2048,1812,1859,1967
671109,48588,14316,46769,14001,-1053,186,728,83,241,560,-717,2863,-2,34,893,1777,1897,2087,2279,2048,1812,1859,1967
672110,48600,14376,46834,14066,-1188,92,686,-71,244,296,-438,2600,-6,37,890,1777,1897,2087,2279,2048,1812,1859,1967
673111,48588,14412,46899,14131,-795,427,633,-146,219,55,-255,2921,6,38,893,1777,1897,2087,2279,2048,1812,1859,1967
674112,48604,14476,46964,14196,-1086,79,592,-129,170,527,-127,3329,10,32,891,1802,1893,2108,2324,1985,1775,1818,1917
675113,48600,14540,47029,14261,-752,80,562,-86,126,1141,-97,3413,-7,31,893,1802,1893,2108,2324,1985,1775,1818,1917
676114,48588,14572,47094,14326,-559,520,536,-59,92,1319,129,3536,4,28,890,1802,1893,2108,2324,1985,1775,1818,1917
677115,48604,14580,47159,14391,-849,890,525,-24,51,1093,213,3573,-7,36,890,1802,1893,2108,2324,1985,1775,1818,1917
678116,48600,14640,47224,14456,-516,245,523,15,-3,963,325,3635,-3,43,886,1802,1893,2108,2324,1985,1775,1818,1917
679117,48592,14724,47289,14521,-378,-78,527,58,-57,856,391,3599,4,43,892,1802,1893,2108,2324,1985,1775,1818,1917
680118,48596,14800,47354,14586,-454,8,548,106,-89,907,456,3468,2,37,892,1793,1865,2083,2300,2020,1814,1853,1942
681119,48588,14872,47419,14651,-216,50,561,148,-111,766,646,3352,-8,33,893,1793,1865,2083,2300,2020,1814,1853,1942
682120,48596,14952,47484,14716,-346,-69,579,171,-138,302,704,3374,-4,34,893,1793,1865,2083,2300,2020,1814,1853,1942
683121,48604,15004,47549,14781,-276,297,592,150,-154,35,678,3197,3,35,890,1793,1865,2083,2300,2020,1814,1853,1942
684122,48600,15068,47614,14846,-43,149,617,65,-164,-12,703,3000,7,43,891,1793,1865,2083,2300,2020,1814,1853,1942
685123,48600,15128,47679,14911,-14,205,630,20,-177,-101,873,3307,11,30,893,1761,1844,2072,2288,2048,1870,1893,2002
686124,48596,15176,47744,14976,119,375,640,45,-190,-52,941,3441,-3,31,892,1761,1844,2072,2288,2048,1870,1893,2002
687125,48600,15248,47809,15041,94,67,652,104,-194,212,909,3379,9,43,890,1761,1844,2072,2288,2048,1870,1893,2002
688126,48584,15332,47874,15106,443,-106,656,152,-204,234,956,3632,9,47,893,1761,1844,2072,2288,2048,1870,1893,2002
689127,48592,15396,47939,15171,212,145,657,223,-201,241,951,3734,12,35,889,1761,1844,2072,2288,2048,1870,1893,2002
690128,48604,15468,48004,15236,226,35,666,316,-189,612,939,3805,1,41,892,1761,1844,2072,2288,2048,1870,1893,2002
691129,48608,15520,48069,15301,401,301,656,387,-193,643,995,3996,-4,44,892,1751,1846,2079,2277,2080,1853,1875,1996
692130,48608,15616,48134,15366,530,-287,642,441,-210,358,1080,3974,-2,41,889,1751,1846,2079,2277,2080,1853,1875,1996
693131,48628,15688,48199,15431,335,5,599,497,-241,404,1200,3973,-1,32,887,1751,1846,2079,2277,2080,1853,1875,1996
694132,48620,15748,48264,15496,774,161,536,550,-285,520,1227,3979,2,35,891,1751,1846,2079,2277,2080,1853,1875,1996
695133,48644,15808,48329,15561,423,167,456,587,-334,593,1278,3661,5,40,885,1751,1846,2079,2277,2080,1853,1875,1996
696134,48664,15868,48394,15626,528,173,374,608,-387,370,1237,3695,25,39,889,1774,1866,2109,2299,2065,1845,1861,1997
697135,48700,15940,48459,15691,363,15,323,566,-426,169,1104,3639,26,37,889,1774,1866,2109,2299,2065,1845,1861,1997
698136,48716,16008,48658,15890,837,224,306,512,-453,-10,1075,3952,21,36,891,1774,1866,2109,2299,2065,1845,1861,1997
699137,48756,16048,48723,15955,567,605,303,464,-486,86,1042,3724,16,37,885,1774,1866,2109,2299,2065,1845,1861,1997
700138,48800,16116,48788,16020,543,251,311,402,-512,39,1126,3978,23,34,882,1774,1866,2109,2299,2065,1845,1861,1997
701139,48836,16180,48853,16085,678,303,316,342,-521,-300,1218,4033,36,45,888,1774,1866,2109,2299,2065,1845,1861,1997
702140,48896,16240,48918,16150,384,359,319,306,-501,-114,1168,3805,17,35,886,1775,1863,2119,2298,2124,1892,1902,2056
703141,48944,16316,48983,16215,555,144,294,281,-482,345,1389,3871,24,48,889,1775,1863,2119,2298,2124,1892,1902,2056
704142,48992,16368,49048,16280,576,460,245,275,-489,399,1471,3066,22,34,888,1775,1863,2119,2298,2124,1892,1902,2056
705143,49052,16440,49113,16345,432,202,180,321,-524,581,1496,3414,34,51,886,1775,1863,2119,2298,2124,1892,1902,2056
706144,49112,16504,49178,16410,438,303,121,367,-540,407,1636,3435,41,38,890,1775,1863,2119,2298,2124,1892,1902,2056
707145,49180,16592,49243,16475,334,-25,75,409,-529,486,1890,3525,26,37,889,1782,1882,2119,2285,2150,1901,1929,2082
708146,49244,16672,49308,16540,386,56,22,409,-528,587,1951,3263,41,44,891,1782,1882,2119,2285,2150,1901,1929,2082
709147,49308,16752,49373,16605,387,38,-10,343,-522,34,1946,3575,29,37,890,1782,1882,2119,2285,2150,1901,1929,2082
710148,49376,16820,49438,16670,333,184,-19,283,-514,-292,1882,3647,25,39,890,1782,1882,2119,2285,2150,1901,1929,2082
711149,49436,16904,49503,16735,439,-39,-25,246,-510,35,1703,3744,28,43,890,1782,1882,2119,2285,2150,1901,1929,2082
712150,49504,16988,49568,16800,336,-62,-44,197,-510,268,1616,3617,40,50,891,1782,1882,2119,2285,2150,1901,1929,2082
713151,49568,17064,49633,16865,387,25,-70,170,-528,185,1726,3650,34,41,891,1741,1843,2065,2220,2133,1875,1895,2048
714152,49624,17132,49698,16930,498,121,-120,181,-563,194,1689,3647,29,49,891,1741,1843,2065,2220,2133,1875,1895,2048
715153,49700,17208,49763,16995,234,7,-166,185,-590,612,1528,3558,30,40,889,1741,1843,2065,2220,2133,1875,1895,2048
716154,49764,17276,49828,17060,386,104,-194,149,-585,238,1253,3704,43,36,892,1741,1843,2065,2220,2133,1875,1895,2048
717155,49836,17340,49893,17125,277,155,-205,137,-593,110,1312,3822,36,48,889,1741,1843,2065,2220,2133,1875,1895,2048
718156,49916,17408,49958,17190,159,101,-201,102,-584,-144,1035,3802,30,43,891,1715,1813,2047,2203,2098,1848,1860,2012
719157,49980,17476,50023,17255,360,97,-200,26,-565,-189,1091,3848,32,39,892,1715,1813,2047,2203,2098,1848,1860,2012
720158,50048,17536,50088,17320,306,203,-197,-56,-540,-335,1024,3618,43,34,891,1715,1813,2047,2203,2098,1848,1860,2012
721159,50108,17616,50153,17385,412,-65,-207,-104,-504,-419,953,3718,45,32,891,1715,1813,2047,2203,2098,1848,1860,2012
722160,50164,17664,50218,17450,473,355,-230,-93,-476,50,1093,3859,40,42,890,1715,1813,2047,2203,2098,1848,1860,2012
723161,50228,17744,50283,17515,375,-63,-277,-66,-435,104,1228,3339,30,44,888,1715,1813,2047,2203,2098,1848,1860,2012
724162,50288,17796,50348,17580,431,303,-375,-4,-429,477,1487,3227,30,39,891,1748,1849,2099,2278,2070,1839,1864,1999
725163,50380,17852,50413,17645,-2,264,-483,43,-439,784,1278,3129,36,40,889,1748,1849,2099,2278,2070,1839,1864,1999
726164,50420,17932,50478,17710,678,-54,-544,35,-417,266,1001,3173,30,33,892,1748,1849,2099,2278,2070,1839,1864,1999
727165,50500,17984,50543,17775,160,311,-581,37,-405,110,1365,3453,31,36,888,1748,1849,2099,2278,2070,1839,1864,1999
728166,50544,18064,50608,17840,636,-57,-621,29,-371,-153,1261,2763,28,46,890,1748,1849,2099,2278,2070,1839,1864,1999
729167,50632,18108,50673,17905,59,419,-671,4,-354,54,1365,3148,28,43,889,1813,1894,2132,2326,2099,1871,1894,2022
730168,50684,18180,50738,17970,524,60,-711,2,-352,191,1364,2955,33,43,891,1813,1894,2132,2326,2099,1871,1894,2022
731169,50768,18252,50803,18035,101,51,-759,5,-343,189,1149,2903,38,28,890,1813,1894,2132,2326,2099,1871,1894,2022
732170,50840,18296,50868,18100,243,426,-784,23,-359,650,1041,3190,42,32,893,1813,1894,2132,2326,2099,1871,1894,2022
733171,50904,18356,50933,18165,344,232,-768,-4,-355,262,754,3400,30,37,889,1813,1894,2132,2326,2099,1871,1894,2022
734172,50972,18432,50998,18230,290,19,-718,-56,-335,-314,681,3760,27,29,889,1813,1894,2132,2326,2099,1871,1894,2022
735173,51040,18496,51063,18295,287,170,-667,-64,-306,-406,785,3868,37,42,892,1764,1840,2072,2245,2120,1874,1888,2017
736174,51108,18540,51128,18360,283,446,-657,-60,-261,-61,640,3448,31,31,891,1764,1840,2072,2245,2120,1874,1888,2017
737175,51184,18612,51193,18425,169,87,-673,-42,-250,621,669,3579,39,29,889,1764,1840,2072,2245,2120,1874,1888,2017
738176,51256,18664,51258,18490,211,353,-669,-14,-226,306,470,3886,45,30,892,1764,1840,2072,2245,2120,1874,1888,2017
739177,51320,18724,51323,18555,312,259,-654,23,-200,-56,589,3914,35,26,890,1764,1840,2072,2245,2120,1874,1888,2017
740178,51392,18796,51388,18620,204,101,-657,137,-183,237,538,3833,33,40,890,1708,1801,2026,2201,2067,1825,1855,1982
741179,51452,18856,51453,18685,360,257,-687,221,-161,695,447,3914,42,25,891,1708,1801,2026,2201,2067,1825,1855,1982
742180,51516,18892,51518,18750,311,592,-705,284,-133,551,375,4288,38,30,890,1708,1801,2026,2201,2067,1825,1855,1982
743181,51564,18952,51583,18815,532,298,-707,332,-95,4,336,4301,39,26,887,1708,1801,2026,2201,2067,1825,1855,1982
744182,51616,19016,51648,18880,498,249,-693,385,-53,-195,161,4573,41,41,887,1708,1801,2026,2201,2067,1825,1855,1982
745183,51680,19072,51713,18945,349,359,-677,424,-17,24,285,4484,40,35,889,1708,1801,2026,2201,2067,1825,1855,1982
746184,51736,19140,51778,19010,460,206,-678,437,17,-81,323,4184,44,39,889,1756,1852,2079,2294,2039,1819,1861,1967
747185,51792,19200,51843,19075,471,312,-697,415,45,-267,205,4076,29,40,889,1756,1852,2079,2294,2039,1819,1861,1967
748186,51864,19236,51908,19140,262,647,-718,388,66,-287,160,3994,41,31,888,1756,1852,2079,2294,2039,1819,1861,1967
749187,51908,19304,51973,19205,638,244,-748,384,65,-61,291,3775,25,38,887,1756,1852,2079,2294,2039,1819,1861,1967
750190,51948,19356,52038,19270,718,460,-768,373,58,233,56,3772,35,26,887,1756,1852,2079,2294,2039,1819,1861,1967
751189,52024,19444,52103,19335,255,-19,-767,365,49,285,-49,3862,32,30,882,1878,1957,2196,2451,2082,1873,1914,2014
752190,52064,19508,52168,19400,735,283,-755,376,34,246,-133,4001,39,30,891,1878,1957,2196,2451,2082,1873,1914,2014
753191,52136,19568,52233,19465,327,339,-722,414,41,467,-295,4132,40,41,886,1878,1957,2196,2451,2082,1873,1914,2014
754192,52164,19628,52298,19530,922,345,-677,437,69,650,-272,4182,41,30,889,1878,1957,2196,2451,2082,1873,1914,2014
755193,52220,19700,52363,19595,583,186,-623,469,92,344,-422,4627,27,31,883,1878,1957,2196,2451,2082,1873,1914,2014
756194,52276,19752,52428,19660,594,452,-559,503,115,344,-476,4840,42,42,888,1878,1957,2196,2451,2082,1873,1914,2014
757195,52344,19824,52493,19725,440,194,-481,522,142,386,-466,4912,32,40,886,1928,1995,2221,2465,2090,1873,1919,2016
758196,52404,19880,52558,19790,546,405,-402,522,163,342,-434,5069,45,26,889,1928,1995,2221,2465,2090,1873,1919,2016
759197,52452,19920,52623,19855,717,635,-336,510,201,112,-572,5040,32,34,887,1928,1995,2221,2465,2090,1873,1919,2016
760198,52524,19984,52688,19920,409,336,-285,477,240,121,-423,4960,43,34,883,1928,1995,2221,2465,2090,1873,1919,2016
761199,52584,20044,52753,19985,565,392,-255,467,265,39,-349,5040,29,28,888,1928,1995,2221,2465,2090,1873,1919,2016
762200,52640,20104,52818,20050,626,399,-239,442,289,20,-268,4917,29,33,887,1906,1981,2180,2425,2033,1813,1883,1970
763201,52708,20152,52883,20115,472,569,-233,446,299,152,-242,5109,41,34,886,1906,1981,2180,2425,2033,1813,1883,1970
764202,52764,20216,52948,20180,633,371,-238,459,300,51,-308,4889,40,34,886,1906,1981,2180,2425,2033,1813,1883,1970
765203,52828,20284,53013,20245,534,317,-244,473,295,302,-364,4935,27,37,886,1906,1981,2180,2425,2033,1813,1883,1970
766204,52908,20336,53078,20310,317,533,-244,498,294,329,-438,4793,32,30,888,1906,1981,2180,2425,2033,1813,1883,1970
767205,52952,20388,53143,20375,793,549,-230,503,280,284,-632,4714,32,41,888,1906,1981,2180,2425,2033,1813,1883,1970
768206,53032,20432,53208,20440,324,674,-222,524,268,261,-719,4650,33,39,882,1904,1992,2176,2412,2019,1803,1884,1988
769207,53088,20480,53273,20505,635,645,-191,533,250,354,-811,4544,43,37,886,1904,1992,2176,2412,2019,1803,1884,1988
770208,53128,20552,53338,20570,866,336,-155,542,226,340,-957,4531,32,37,884,1904,1992,2176,2412,2019,1803,1884,1988
771209,53192,20608,53403,20635,567,547,-107,530,205,243,-1086,4245,35,40,884,1904,1992,2176,2412,2019,1803,1884,1988
772210,53264,20660,53468,20700,459,613,-55,504,191,172,-1131,4188,31,46,886,1904,1992,2176,2412,2019,1803,1884,1988
773211,53300,20736,53533,20765,944,300,-8,466,177,194,-1117,4001,41,31,886,1880,1967,2167,2393,2083,1863,1920,2028
774212,53364,20776,53598,20830,595,780,36,423,157,150,-1121,3979,28,43,883,1880,1967,2167,2393,2083,1863,1920,2028
775213,53428,20840,53663,20895,596,482,62,381,146,252,-1011,3801,44,43,882,1880,1967,2167,2393,2083,1863,1920,2028
776214,53488,20900,53728,20960,652,538,96,342,142,281,-929,3879,41,36,885,1880,1967,2167,2393,2083,1863,1920,2028
777215,53540,20968,53793,21025,768,434,125,275,148,166,-846,3892,41,43,884,1880,1967,2167,2393,2083,1863,1920,2028
778216,53600,21040,53858,21090,674,376,146,232,152,115,-796,3825,39,43,884,1842,1928,2131,2360,2067,1849,1899,1988
779217,53652,21100,53923,21155,791,532,168,210,156,481,-635,4038,45,32,886,1842,1928,2131,2360,2067,1849,1899,1988
780218,53708,21168,53988,21220,752,428,179,184,178,691,-540,3954,31,30,884,1842,1928,2131,2360,2067,1849,1899,1988
781219,53780,21236,54053,21285,544,424,211,145,190,505,-414,4374,46,36,884,1842,1928,2131,2360,2067,1849,1899,1988
782220,53860,21308,54118,21350,425,366,232,129,199,430,-332,4387,44,30,887,1842,1928,2131,2360,2067,1849,1899,1988
783221,53908,21356,54183,21415,846,687,243,145,194,560,-285,4197,39,35,888,1842,1928,2131,2360,2067,1849,1899,1988
784222,53972,21420,54248,21480,647,488,225,171,150,1010,-102,4035,28,34,881,1812,1897,2088,2320,2017,1802,1865,1958
785223,54028,21472,54313,21545,758,654,198,163,112,1104,-271,3630,45,34,883,1812,1897,2088,2320,2017,1802,1865,1958
786224,54084,21532,54378,21610,769,560,193,129,103,510,-359,4003,27,34,882,1812,1897,2088,2320,2017,1802,1865,1958
787225,54164,21616,54443,21675,451,237,175,280,75,578,-166,4181,43,33,883,1812,1897,2088,2320,2017,1802,1865,1958
788226,54216,21676,54508,21740,817,543,192,331,0,1360,-414,3057,34,48,888,1812,1897,2088,2320,2017,1802,1865,1958
789227,54272,21756,54573,21805,779,274,178,224,-30,355,-665,3200,46,39,883,1815,1905,2100,2317,2026,1803,1861,1974
790228,54348,21816,54638,21870,516,530,169,258,-69,-284,-205,4226,49,46,885,1815,1905,2100,2317,2026,1803,1861,1974
791229,54412,21872,54703,21935,667,591,167,344,-101,12,-469,3481,48,39,886,1815,1905,2100,2317,2026,1803,1861,1974
792230,54488,21924,54768,22000,503,657,179,335,-122,766,-503,3148,30,39,884,1815,1905,2100,2317,2026,1803,1861,1974
793231,54552,22000,54833,22065,655,344,196,259,-141,-119,-787,3308,49,44,884,1815,1905,2100,2317,2026,1803,1861,1974
794232,54604,22080,54898,22130,820,276,202,192,-158,-796,-709,3319,41,31,886,1815,1905,2100,2317,2026,1803,1861,1974
795233,54696,22148,54963,22195,287,422,208,141,-167,-390,-482,3380,33,41,885,1792,1884,2102,2306,2062,1838,1874,1988
796234,54760,22188,55028,22260,639,802,219,143,-154,101,-459,3428,39,46,889,1792,1884,2102,2306,2062,1838,1874,1988
797235,54828,22252,55093,22325,585,504,217,146,-129,333,-341,3385,42,28,883,1792,1884,2102,2306,2062,1838,1874,1988
798236,54896,22328,55158,22390,582,340,210,177,-106,209,-309,3488,31,37,885,1792,1884,2102,2306,2062,1838,1874,1988
799237,54956,22396,55223,22455,688,437,195,189,-93,440,-84,3565,29,43,887,1792,1884,2102,2306,2062,1838,1874,1988
800238,55008,22468,55288,22520,804,378,187,238,-87,672,-32,3838,27,37,885,1772,1864,2083,2291,2066,1846,1885,1992
801239,55080,22544,55353,22585,546,315,169,304,-87,845,138,3755,40,32,884,1772,1864,2083,2291,2066,1846,1885,1992
802240,55156,22616,55418,22650,482,356,149,347,-91,989,500,3729,41,31,885,1772,1864,2083,2291,2066,1846,1885,1992
803241,55228,22684,55483,22715,524,402,113,368,-107,946,588,3651,45,41,888,1772,1864,2083,2291,2066,1846,1885,1992
804242,55284,22744,55548,22780,735,508,78,376,-125,897,486,3708,33,41,887,1772,1864,2083,2291,2066,1846,1885,1992
805243,55324,22816,55613,22845,965,350,57,374,-147,822,494,3780,43,30,884,1772,1864,2083,2291,2066,1846,1885,1992
806244,55400,22872,55678,22910,502,561,29,355,-168,634,476,3687,31,34,882,1767,1847,2063,2280,2079,1860,1895,2005
807245,55456,22928,55743,22975,763,572,26,327,-206,605,442,3882,47,37,885,1767,1847,2063,2280,2079,1860,1895,2005
808246,55520,22988,55808,23040,665,528,33,262,-234,546,422,3880,41,39,883,1767,1847,2063,2280,2079,1860,1895,2005
809247,55588,23044,55873,23105,611,589,56,214,-246,214,366,3922,38,40,885,1767,1847,2063,2280,2079,1860,1895,2005
810248,55632,23116,55938,23170,937,380,52,203,-249,278,286,3901,26,41,884,1767,1847,2063,2280,2079,1860,1895,2005
811249,55696,23180,56003,23235,688,482,66,213,-267,406,184,4032,33,39,883,1769,1859,2092,2294,2106,1870,1899,2030
812250,55748,23224,56068,23300,854,757,66,227,-278,274,123,4014,46,40,884,1769,1859,2092,2294,2106,1870,1899,2030
813251,55820,23300,56133,23365,596,344,73,269,-278,314,161,4044,37,39,880,1769,1859,2092,2294,2106,1870,1899,2030
814252,55876,23348,56198,23430,807,715,65,305,-271,328,165,3995,43,39,886,1769,1859,2092,2294,2106,1870,1899,2030
815253,55932,23392,56263,23495,818,790,59,320,-267,317,176,4009,34,37,882,1769,1859,2092,2294,2106,1870,1899,2030
816254,55980,23468,56328,23560,938,378,45,329,-258,241,307,3921,42,43,880,1769,1859,2092,2294,2106,1870,1899,2030
817255,56036,23532,56393,23625,850,529,14,320,-234,-25,232,3938,39,31,882,1804,1915,2146,2340,2096,1858,1895,2024
818256,56116,23580,56458,23690,532,750,-5,339,-223,81,285,4080,40,37,882,1804,1915,2146,2340,2096,1858,1895,2024
819257,56168,23636,56523,23755,898,661,-60,362,-218,245,486,3890,36,38,882,1804,1915,2146,2340,2096,1858,1895,2024
820258,56216,23688,56588,23820,969,727,-105,366,-211,253,611,3778,29,28,880,1804,1915,2146,2340,2096,1858,1895,2024
821259,56272,23752,56653,23885,880,578,-157,360,-196,82,562,3984,35,29,879,1804,1915,2146,2340,2096,1858,1895,2024
822260,56336,23816,56718,23950,781,579,-167,358,-196,264,609,4145,31,46,881,1838,1936,2158,2361,2085,1858,1899,2019
823261,56388,23884,56783,24015,947,525,-181,385,-198,494,590,4121,40,35,883,1838,1936,2158,2361,2085,1858,1899,2019
824262,56460,23948,56848,24080,689,577,-170,388,-202,620,632,4007,33,33,881,1838,1936,2158,2361,2085,1858,1899,2019
825263,56516,23980,56913,24145,900,1017,-173,371,-220,559,700,4326,34,44,883,1838,1936,2158,2361,2085,1858,1899,2019
826264,56560,24048,56978,24210,1076,563,-155,372,-251,549,745,4169,26,35,878,1838,1936,2158,2361,2085,1858,1899,2019
827265,56624,24128,57043,24275,827,395,-131,368,-262,649,820,4296,39,43,878,1838,1936,2158,2361,2085,1858,1899,2019
828266,56668,24184,57108,24340,1103,706,-93,373,-271,685,738,4416,36,45,883,1813,1892,2119,2328,2100,1875,1903,2013
829267,56728,24248,57173,24405,909,607,-52,392,-280,745,708,4354,45,44,879,1813,1892,2119,2328,2100,1875,1903,2013
830268,56784,24328,57238,24470,970,389,-20,394,-288,648,662,4304,29,42,880,1813,1892,2119,2328,2100,1875,1903,2013
831269,56852,24368,57303,24535,817,919,17,384,-281,357,405,4331,38,39,881,1813,1892,2119,2328,2100,1875,1903,2013
832270,56892,24428,57368,24600,1198,675,39,402,-295,580,682,4366,45,36,879,1813,1892,2119,2328,2100,1875,1903,2013
833271,56964,24508,57433,24665,789,407,35,402,-289,436,681,3927,35,44,877,1804,1884,2121,2344,2073,1856,1883,1988
834272,57020,24548,57498,24730,1000,938,37,388,-272,174,461,4068,47,30,882,1804,1884,2121,2344,2073,1856,1883,1988
835273,57092,24596,57563,24795,791,858,35,383,-237,24,353,3961,32,40,878,1804,1884,2121,2344,2073,1856,1883,1988
836274,57156,24648,57628,24860,894,825,40,410,-217,151,514,3999,39,29,877,1804,1884,2121,2344,2073,1856,1883,1988
837275,57208,24728,57693,24925,1060,457,50,435,-191,235,344,3876,48,28,878,1804,1884,2121,2344,2073,1856,1883,1988
838276,57276,24788,57758,24990,856,713,64,493,-173,246,316,4090,32,29,880,1804,1884,2121,2344,2073,1856,1883,1988
839277,57332,24820,57823,25055,1017,1103,72,513,-156,214,405,3882,37,34,880,1836,1925,2155,2377,2037,1817,1862,1969
840278,57400,24880,57888,25120,863,759,68,534,-147,-82,492,3896,37,30,875,1836,1925,2155,2377,2037,1817,1862,1969
841279,57452,24952,57953,25185,1079,601,66,554,-155,31,433,3919,36,44,878,1836,1925,2155,2377,2037,1817,1862,1969
842280,57500,25028,58018,25250,1151,537,57,578,-161,235,209,3701,31,37,879,1836,1925,2155,2377,2037,1817,1862,1969
843281,57560,25092,58083,25315,1007,689,58,574,-164,160,300,3821,43,42,878,1836,1925,2155,2377,2037,1817,1862,1969
844282,57632,25132,58148,25380,848,1019,66,591,-179,75,361,3857,28,40,878,1855,1943,2159,2367,2020,1806,1855,1963
845283,57672,25188,58213,25445,1279,830,68,609,-197,200,344,4045,45,35,877,1855,1943,2159,2367,2020,1806,1855,1963
846284,57744,25220,58278,25510,870,1171,74,639,-211,294,479,4052,34,32,874,1855,1943,2159,2367,2020,1806,1855,1963
847285,57792,25284,58343,25575,1192,772,80,660,-224,259,480,4132,49,46,874,1855,1943,2159,2367,2020,1806,1855,1963
848286,57868,25360,58408,25640,829,609,88,676,-238,312,365,4203,32,35,875,1855,1943,2159,2367,2020,1806,1855,1963
849287,57928,25432,58473,25705,1035,651,100,672,-257,445,339,3981,44,31,880,1855,1943,2159,2367,2020,1806,1855,1963
850288,57984,25500,58538,25770,1096,697,115,664,-259,297,273,4047,45,33,879,1830,1908,2124,2339,2048,1834,1878,1987
851289,58048,25560,58603,25835,997,803,135,659,-249,183,452,4120,36,43,877,1830,1908,2124,2339,2048,1834,1878,1987
852290,58104,25612,58668,25900,1109,919,154,653,-245,175,472,4134,33,28,878,1830,1908,2124,2339,2048,1834,1878,1987
853291,58160,25676,58733,25965,1120,770,174,654,-228,156,365,4109,34,46,873,1830,1908,2124,2339,2048,1834,1878,1987
854292,58208,25732,58798,26030,1241,881,189,644,-209,263,396,4047,37,42,876,1830,1908,2124,2339,2048,1834,1878,1987
855293,58280,25804,58863,26095,932,673,212,613,-190,87,234,3891,37,41,874,1806,1887,2112,2329,2083,1867,1906,2020
856294,58336,25848,58928,26160,1144,1048,220,551,-176,-104,376,3937,48,29,878,1806,1887,2112,2329,2083,1867,1906,2020
857295,58400,25900,58993,26225,1045,965,242,526,-181,108,422,4115,44,34,874,1806,1887,2112,2329,2083,1867,1906,2020
858296,58464,25976,59058,26290,1047,652,248,533,-173,234,154,4038,51,42,874,1806,1887,2112,2329,2083,1867,1906,2020
859297,58516,26044,59123,26355,1212,748,273,552,-170,314,377,4333,48,45,877,1806,1887,2112,2329,2083,1867,1906,2020
860298,58572,26108,59188,26420,1173,799,281,542,-172,198,357,3977,44,35,875,1806,1887,2112,2329,2083,1867,1906,2020
861299,58656,26164,59253,26485,801,910,284,510,-178,-5,245,3972,40,41,876,1809,1899,2124,2335,2087,1859,1900,2017
862300,58724,26228,59318,26550,998,812,281,481,-191,31,474,4107,50,45,878,1809,1899,2124,2335,2087,1859,1900,2017
863301,58784,26300,59383,26615,1104,703,272,440,-191,-122,217,3992,50,40,878,1809,1899,2124,2335,2087,1859,1900,2017
864302,58840,26356,59448,26680,1165,914,251,447,-209,89,234,4144,43,39,877,1809,1899,2124,2335,2087,1859,1900,2017
865303,58892,26412,59513,26745,1232,926,240,442,-220,174,278,4074,43,38,874,1809,1899,2124,2335,2087,1859,1900,2017
866304,58976,26492,59578,26810,808,608,228,448,-230,11,140,4283,31,44,873,1835,1931,2151,2354,2068,1839,1888,2011
867305,59032,26548,59643,26875,1169,919,212,448,-253,48,167,4101,41,43,880,1835,1931,2151,2354,2068,1839,1888,2011
868306,59084,26616,59708,26940,1235,765,194,400,-255,-15,24,4000,42,35,875,1835,1931,2151,2354,2068,1839,1888,2011
869307,59128,26680,59773,27005,1362,816,191,368,-266,-10,16,4215,38,37,874,1835,1931,2151,2354,2068,1839,1888,2011
870308,59184,26760,59838,27070,1223,598,170,364,-279,247,242,4069,33,34,872,1835,1931,2151,2354,2068,1839,1888,2011
871309,59240,26784,59903,27135,1234,1348,160,367,-302,277,257,4170,49,36,875,1835,1931,2151,2354,2068,1839,1888,2011
872310,59304,26872,59968,27200,1135,520,157,374,-299,351,135,4119,34,46,872,1842,1937,2153,2355,2071,1847,1897,2020
873311,59348,26920,60033,27265,1411,1041,168,376,-289,206,264,4299,30,47,873,1842,1937,2153,2355,2071,1847,1897,2020
874312,59416,26980,60098,27330,1108,898,183,360,-280,4,38,4022,44,37,873,1842,1937,2153,2355,2071,1847,1897,2020
875313,59464,27036,60163,27395,1379,959,198,358,-293,415,145,4321,45,44,872,1842,1937,2153,2355,2071,1847,1897,2020
876314,59524,27100,60228,27460,1235,860,206,360,-280,395,284,4098,37,40,872,1842,1937,2153,2355,2071,1847,1897,2020
877315,59584,27164,60293,27525,1242,861,212,340,-286,111,384,4152,30,34,871,1828,1912,2134,2347,2089,1870,1908,2015
878316,59652,27232,60358,27590,1138,808,225,328,-291,92,296,4083,31,43,873,1828,1912,2134,2347,2089,1870,1908,2015
879317,59700,27276,60423,27655,1409,1133,244,302,-293,304,439,3984,46,32,875,1828,1912,2134,2347,2089,1870,1908,2015
880318,59780,27332,60488,27720,991,994,255,262,-278,385,345,4022,32,41,871,1828,1912,2134,2347,2089,1870,1908,2015
881319,59836,27376,60553,27785,1303,1171,252,259,-279,416,483,4250,47,39,872,1828,1912,2134,2347,2089,1870,1908,2015
882320,59888,27412,60618,27850,1369,1306,253,267,-300,176,512,3973,28,24,871,1828,1912,2134,2347,2089,1870,1908,2015
883321,59940,27460,60683,27915,1384,1177,248,266,-291,230,352,4153,29,40,867,1809,1894,2116,2339,2080,1864,1887,1983
884322,59996,27504,60748,27980,1345,1253,251,265,-282,197,475,4003,32,34,866,1809,1894,2116,2339,2080,1864,1887,1983
885323,60036,27560,60813,28045,1577,1114,245,283,-303,220,343,4029,39,42,867,1809,1894,2116,2339,2080,1864,1887,1983
886324,60096,27604,60878,28110,1333,1289,237,331,-326,377,275,4168,32,38,866,1809,1894,2116,2339,2080,1864,1887,1983
887325,60168,27644,60943,28175,1175,1371,235,349,-328,314,200,3919,39,41,865,1809,1894,2116,2339,2080,1864,1887,1983
888326,60228,27716,61008,28240,1332,962,238,373,-351,379,171,4082,40,28,866,1811,1895,2127,2341,2057,1839,1871,1983
889327,60272,27764,61073,28305,1557,1283,236,422,-368,309,99,3992,30,28,869,1811,1895,2127,2341,2057,1839,1871,1983
890328,60332,27812,61138,28370,1363,1304,241,445,-380,318,124,3927,46,33,866,1811,1895,2127,2341,2057,1839,1871,1983
891329,60392,27852,61203,28435,1370,1434,246,459,-385,107,92,3910,31,34,865,1811,1895,2127,2341,2057,1839,1871,1983
892330,60448,27932,61268,28500,1431,917,244,483,-396,246,201,3875,35,43,865,1811,1895,2127,2341,2057,1839,1871,1983
893331,60508,27996,61333,28565,1388,1118,248,493,-399,381,171,3708,30,42,867,1811,1895,2127,2341,2057,1839,1871,1983
894332,60568,28052,61398,28630,1394,1229,240,490,-385,150,346,3679,36,34,869,1820,1907,2140,2352,2052,1837,1872,1977
895333,60616,28092,61463,28695,1565,1460,229,482,-372,-16,366,3716,31,31,867,1820,1907,2140,2352,2052,1837,1872,1977
896334,60688,28144,61528,28760,1257,1326,225,459,-358,205,389,3616,50,47,864,1820,1907,2140,2352,2052,1837,1872,1977
897335,60744,28224,61593,28825,1468,958,239,455,-341,220,458,3729,36,39,865,1820,1907,2140,2352,2052,1837,1872,1977
898336,60780,28284,61658,28890,1754,1214,253,476,-311,163,387,3775,32,39,868,1820,1907,2140,2352,2052,1837,1872,1977
899337,60852,28344,61723,28955,1296,1220,246,471,-300,572,606,3777,49,53,865,1811,1898,2124,2335,2047,1834,1874,1980
900338,60916,28408,61788,29020,1397,1172,234,470,-302,270,554,3701,41,39,866,1811,1898,2124,2335,2047,1834,1874,1980
901339,60964,28480,61853,29085,1619,1064,238,517,-320,655,429,4070,32,40,868,1811,1898,2124,2335,2047,1834,1874,1980
902340,61024,28540,61918,29150,1475,1220,268,579,-338,1046,352,3971,48,50,866,1811,1898,2124,2335,2047,1834,1874,1980
903341,61096,28612,61983,29215,1316,1062,297,605,-344,864,504,3729,50,38,866,1811,1898,2124,2335,2047,1834,1874,1980
904342,61160,28684,62048,29280,1418,1053,316,616,-335,397,528,3648,49,42,866,1811,1898,2124,2335,2047,1834,1874,1980
905343,61212,28744,62113,29345,1584,1210,301,610,-350,666,575,3443,50,36,869,1798,1880,2100,2314,2049,1831,1870,1974
906344,61268,28824,62178,29410,1545,942,293,599,-376,860,556,3822,35,34,867,1798,1880,2100,2314,2049,1831,1870,1974
907345,61344,28868,62243,29475,1283,1417,274,567,-387,405,526,3639,48,32,866,1798,1880,2100,2314,2049,1831,1870,1974
908346,61412,28928,62308,29540,1379,1224,270,553,-417,-73,517,3922,49,31,866,1798,1880,2100,2314,2049,1831,1870,1974
909347,61468,28976,62373,29605,1540,1394,268,533,-428,773,327,4195,32,43,866,1798,1880,2100,2314,2049,1831,1870,1974
910348,61524,29032,62438,29670,1552,1306,272,513,-435,783,319,3815,30,46,864,1794,1880,2106,2318,2056,1841,1876,1989
911349,61580,29072,62503,29735,1563,1537,266,491,-427,65,231,3763,39,46,863,1794,1880,2106,2318,2056,1841,1876,1989
912350,61652,29144,62568,29800,1355,1128,263,475,-415,4,198,3908,43,48,861,1794,1880,2106,2318,2056,1841,1876,1989
913351,61716,29192,62633,29865,1457,1449,240,453,-404,167,259,3491,46,42,865,1794,1880,2106,2318,2056,1841,1876,1989
914352,61776,29248,62698,29930,1513,1361,216,468,-401,940,92,3762,42,44,865,1794,1880,2106,2318,2056,1841,1876,1989
915353,61832,29308,62763,29995,1574,1317,170,463,-395,1209,151,3429,32,45,863,1794,1880,2106,2318,2056,1841,1876,1989
916354,61868,29368,62828,30060,1860,1323,156,427,-381,118,290,3546,30,36,863,1807,1903,2142,2344,2085,1865,1902,2027
917355,61928,29428,62893,30125,1566,1329,135,444,-374,6,95,3656,39,42,860,1807,1903,2142,2344,2085,1865,1902,2027
918356,61980,29476,62958,30190,1683,1501,136,488,-373,769,122,3816,32,37,860,1807,1903,2142,2344,2085,1865,1902,2027
919357,62036,29532,63023,30255,1644,1412,139,523,-357,936,81,3690,42,47,861,1807,1903,2142,2344,2085,1865,1902,2027
920358,62088,29596,63088,30320,1710,1313,132,555,-368,543,279,3871,31,49,859,1807,1903,2142,2344,2085,1865,1902,2027
921359,62144,29652,63153,30385,1672,1425,121,560,-396,282,291,3789,38,35,858,1792,1888,2112,2304,2096,1881,1919,2028
922360,62192,29712,63218,30450,1793,1381,121,555,-419,459,490,3866,35,42,860,1792,1888,2112,2304,2096,1881,1919,2028
923361,62260,29776,63283,30515,1539,1333,114,536,-446,398,556,3901,39,39,860,1792,1888,2112,2304,2096,1881,1919,2028
924362,62296,29836,63348,30580,1976,1389,107,528,-479,432,581,4083,41,49,859,1792,1888,2112,2304,2096,1881,1919,2028
925363,62368,29884,63413,30645,1517,1560,101,514,-509,404,634,3988,48,44,863,1792,1888,2112,2304,2096,1881,1919,2028
926364,62428,29948,63478,30710,1674,1362,86,482,-540,325,634,3933,44,39,855,1792,1888,2112,2304,2096,1881,1919,2028
927365,62488,30016,63543,30775,1680,1308,60,475,-566,208,569,4083,37,49,860,1773,1862,2089,2296,2085,1862,1891,1999
928366,62544,30064,63608,30840,1741,1580,39,494,-582,558,687,4068,40,48,860,1773,1862,2089,2296,2085,1862,1891,1999
929367,62604,30108,63673,30905,1698,1655,22,516,-596,653,588,4110,33,36,861,1773,1862,2089,2296,2085,1862,1891,1999
930368,62664,30176,63738,30970,1705,1352,13,541,-603,618,543,4114,38,36,857,1773,1862,2089,2296,2085,1862,1891,1999
931369,62736,30232,63803,31035,1547,1513,5,565,-604,430,401,3906,54,44,856,1773,1862,2089,2296,2085,1862,1891,1999
932370,62792,30280,63868,31100,1758,1634,-5,585,-600,500,371,4084,55,41,861,1776,1864,2101,2315,2076,1864,1890,1999
933371,62860,30344,63933,31165,1604,1436,-21,624,-599,467,332,4031,36,34,860,1776,1864,2101,2315,2076,1864,1890,1999
934372,62920,30384,63998,31230,1711,1766,-27,664,-598,571,276,3980,51,47,855,1776,1864,2101,2315,2076,1864,1890,1999
935373,62988,30440,64063,31295,1608,1578,-36,680,-583,440,421,4101,33,46,860,1776,1864,2101,2315,2076,1864,1890,1999
936374,63048,30484,64128,31360,1715,1754,-35,699,-586,177,418,4007,42,49,853,1776,1864,2101,2315,2076,1864,1890,1999
937375,63100,30564,64193,31425,1831,1286,-24,688,-584,82,367,3873,30,52,857,1776,1864,2101,2315,2076,1864,1890,1999
938376,63156,30620,64258,31490,1793,1598,-31,684,-582,-24,400,3998,35,52,853,1808,1897,2148,2365,2080,1870,1890,1999
939377,63212,30676,64323,31555,1804,1608,-50,699,-598,-165,573,4054,34,51,858,1808,1897,2148,2365,2080,1870,1890,1999
940378,63256,30740,64388,31620,1979,1510,-60,719,-630,213,467,3960,48,37,855,1808,1897,2148,2365,2080,1870,1890,1999
941379,63312,30804,64453,31685,1841,1512,-52,699,-625,412,776,3723,37,47,854,1808,1897,2148,2365,2080,1870,1890,1999
942380,63368,30864,64518,31750,1852,1568,-62,676,-639,-291,972,3999,28,52,852,1808,1897,2148,2365,2080,1870,1890,1999
943381,63408,30916,64583,31815,2084,1684,-76,704,-682,-110,725,4115,45,38,855,1836,1920,2164,2383,2072,1858,1886,1995
944382,63472,30988,64648,31880,1785,1426,-99,722,-706,498,855,3787,44,42,854,1836,1920,2164,2383,2072,1858,1886,1995
945383,63516,31036,64713,31945,2062,1747,-99,719,-717,259,800,3984,41,39,848,1836,1920,2164,2383,2072,1858,1886,1995
946384,63556,31104,64778,32010,2142,1493,-102,763,-751,14,787,4237,27,44,856,1836,1920,2164,2383,2072,1858,1886,1995
947385,63612,31160,64843,32075,1953,1655,-100,809,-789,577,931,4054,45,47,848,1836,1920,2164,2383,2072,1858,1886,1995
948386,63660,31212,65042,32274,2239,1885,-99,839,-816,666,880,4142,47,38,850,1836,1920,2164,2383,2072,1858,1886,1995
949387,63732,31276,65107,32339,1930,1736,-98,867,-844,352,900,4174,47,39,852,1830,1911,2139,2347,2057,1843,1878,1993
950388,63792,31312,65172,32404,2087,2123,-89,860,-866,104,821,4095,41,38,843,1830,1911,2139,2347,2057,1843,1878,1993
951389,63868,31380,65237,32469,1874,1719,-71,877,-883,225,761,4491,41,39,851,1830,1911,2139,2347,2057,1843,1878,1993
952390,63928,31424,65302,32534,2081,2045,-47,890,-889,201,743,4241,45,47,841,1830,1911,2139,2347,2057,1843,1878,1993
953391,64008,31464,65367,32599,1813,2126,-34,895,-899,208,709,4247,43,44,852,1830,1911,2139,2347,2057,1843,1878,1993
954392,64076,31528,65432,32664,1960,1827,-7,882,-888,212,835,4103,54,48,842,1784,1887,2119,2320,2048,1846,1879,1952
955393,64148,31576,65497,32729,1902,2049,7,852,-882,-120,808,4141,54,38,844,1784,1887,2119,2320,2048,1846,1879,1952
956394,64204,31636,65562,32794,2113,1905,16,840,-884,-92,656,4140,40,36,848,1784,1887,2119,2320,2048,1846,1879,1952
957395,64288,31696,65627,32859,1741,1912,23,828,-881,87,677,3967,36,43,847,1784,1887,2119,2320,2048,1846,1879,1952
958396,64344,31764,65692,32924,2102,1809,22,816,-877,42,760,4133,42,42,845,1784,1887,2119,2320,2048,1846,1879,1952
959397,64396,31824,65757,32989,2169,1916,15,797,-887,45,794,3847,50,41,851,1784,1887,2119,2320,2048,1846,1879,1952
960398,64472,31908,65822,33054,1855,1592,48,637,-765,222,1061,3588,43,46,847,1830,1919,2163,2380,2066,1858,1889,2003
961399,64520,31976,65887,33119,2227,1790,41,442,-662,-1053,3168,3635,44,60,844,1830,1919,2163,2380,2066,1858,1889,2003
962400,64584,32056,65952,33184,2028,1621,-54,423,-575,-2702,2831,5575,38,46,854,1830,1919,2163,2380,2066,1858,1889,2003
963401,64660,32144,66017,33249,1866,1493,-121,460,-545,-159,2805,4194,45,48,845,1830,1919,2163,2380,2066,1858,1889,2003
964402,64736,32224,66082,33314,1853,1576,-146,363,-510,-569,2437,4556,47,50,851,1830,1919,2163,2380,2066,1858,1889,2003
965403,64800,32300,66147,33379,2005,1613,-142,240,-487,-1035,2189,4416,43,52,856,1848,1937,2181,2378,2102,1878,1905,2071
966404,64852,32380,66212,33444,2171,1545,-59,199,-456,27,1595,4115,39,55,855,1848,1937,2181,2378,2102,1878,1905,2071
967405,64912,32464,66277,33509,2078,1472,63,310,-423,1291,1164,4943,36,55,852,1848,1937,2181,2378,2102,1878,1905,2071
968406,64980,32544,66342,33574,1974,1504,250,594,-362,1758,1156,4722,45,70,850,1848,1937,2181,2378,2102,1878,1905,2071
969407,65056,32632,66407,33639,1862,1377,365,820,-303,1494,1791,4021,38,57,852,1848,1937,2181,2378,2102,1878,1905,2071
970408,65132,32744,66472,33704,1848,1019,467,918,-262,336,1720,4701,56,57,854,1848,1937,2181,2378,2102,1878,1905,2071
971409,65200,32844,66537,33769,1946,1128,520,860,-248,-251,2055,3342,39,65,859,1877,1960,2227,2393,2117,1863,1873,2009
972410,65256,32928,66602,33834,2107,1304,541,730,-287,-684,2018,3821,51,57,861,1877,1960,2227,2393,2117,1863,1873,2009
973411,65344,33016,66667,33899,1679,1226,519,580,-314,-819,2331,3630,36,61,858,1877,1960,2227,2393,2117,1863,1873,2009
974412,65404,33096,66732,33964,2036,1309,464,398,-297,-785,2733,3282,45,61,854,1877,1960,2227,2393,2117,1863,1873,2009
975414,65476,33192,66797,34029,1878,1071,379,271,-276,-1100,2966,3569,50,65,862,1877,1960,2227,2393,2117,1863,1873,2009
976414,65556,33272,66862,34094,1760,1253,277,168,-216,-988,2819,3539,49,61,855,1934,1987,2241,2467,1987,1775,1811,1910
977415,65616,33340,66927,34159,2017,1400,188,120,-120,-983,2761,3645,43,51,861,1934,1987,2241,2467,1987,1775,1811,1910
978416,65688,33420,66992,34224,1858,1232,133,100,-25,-698,2809,3854,47,68,861,1934,1987,2241,2467,1987,1775,1811,1910
979417,65752,33520,67057,34289,1961,939,78,111,103,-588,2482,3900,40,65,855,1934,1987,2241,2467,1987,1775,1811,1910
980418,65820,33616,67122,34354,1907,951,46,171,224,-294,2363,4262,37,61,859,1934,1987,2241,2467,1987,1775,1811,1910
981419,65900,33668,67187,34419,1740,1518,44,302,342,70,1992,4549,54,50,861,1934,1987,2241,2467,1987,1775,1811,1910
982420,65968,33756,67252,34484,1886,1040,81,428,488,228,1897,4368,56,59,862,1860,1917,2151,2337,2021,1819,1844,1989
983421,66040,33840,67317,34549,1828,1067,157,541,609,74,2042,4671,42,59,857,1860,1917,2151,2337,2021,1819,1844,1989
984422,66096,33936,67382,34614,2039,880,234,594,710,-292,1496,4261,37,67,861,1860,1917,2151,2337,2021,1819,1844,1989
985423,66164,34016,67447,34679,1887,1062,316,651,788,89,1551,4551,43,64,862,1860,1917,2151,2337,2021,1819,1844,1989
986424,66224,34096,67512,34744,1993,1044,391,660,839,121,1591,4007,35,62,861,1860,1917,2151,2337,2021,1819,1844,1989
987425,66304,34176,67577,34809,1725,1025,453,624,896,-533,1777,3753,36,59,861,1745,1823,2092,2255,2158,1924,1910,2061
988426,66360,34244,67642,34874,2036,1173,499,544,902,-494,2350,3710,55,52,860,1745,1823,2092,2255,2158,1924,1910,2061
989427,66436,34336,67707,34939,1774,840,511,452,902,-577,2114,3458,49,59,861,1745,1823,2092,2255,2158,1924,1910,2061
990428,66492,34412,67772,35004,2035,1026,495,416,883,-253,2456,3520,42,57,856,1745,1823,2092,2255,2158,1924,1910,2061
991429,66560,34484,67837,35069,1882,1068,444,380,880,-105,2303,2996,40,64,866,1745,1823,2092,2255,2158,1924,1910,2061
992430,66660,34596,67902,35134,1440,510,372,361,858,-249,2615,2911,44,57,859,1745,1823,2092,2255,2158,1924,1910,2061
993431,66740,34680,67967,35199,1672,838,267,344,810,-364,2688,2904,61,49,861,1783,1862,2144,2338,2153,1910,1912,2044
994432,66808,34768,68032,35264,1819,760,169,357,786,-36,2510,3072,46,58,874,1783,1862,2144,2338,2153,1910,1912,2044
995433,66884,34848,68097,35329,1706,842,76,435,798,86,2259,3283,57,56,867,1783,1862,2144,2338,2153,1910,1912,2044
996434,66960,34920,68162,35394,1693,933,-21,521,847,168,2240,3282,62,55,866,1783,1862,2144,2338,2153,1910,1912,2044
997435,67068,34988,68227,35459,1240,979,-74,591,864,44,2513,3644,49,61,867,1783,1862,2144,2338,2153,1910,1912,2044
998436,67136,35076,68292,35524,1738,702,-129,602,893,-439,2009,3448,59,55,866,1810,1887,2139,2303,2097,1863,1871,2019
999437,67216,35164,68357,35589,1569,674,-166,663,929,-451,1564,3907,48,55,872,1810,1887,2139,2303,2097,1863,1871,2019
1000438,67300,35244,68422,35654,1497,756,-202,693,1016,-111,1414,3694,52,61,868,1810,1887,2139,2303,2097,1863,1871,2019
1001439,67368,35324,68487,35719,1693,738,-226,681,1072,-472,1544,3656,54,53,871,1810,1887,2139,2303,2097,1863,1871,2019
1002440,67444,35412,68552,35784,1581,610,-258,638,1103,-908,1351,3892,39,58,871,1810,1887,2139,2303,2097,1863,1871,2019
1003441,67532,35504,68617,35849,1403,527,-262,587,1141,-795,1383,3658,50,55,868,1726,1819,2078,2223,2095,1866,1864,2017
1004442,67620,35584,68682,35914,1375,659,-275,541,1183,-618,1392,3704,45,53,871,1726,1819,2078,2223,2095,1866,1864,2017
1005443,67696,35660,68747,35979,1512,696,-285,511,1194,-491,1592,3819,43,62,874,1726,1819,2078,2223,2095,1866,1864,2017
1006444,67772,35744,68812,36044,1499,573,-298,459,1185,-531,1914,3371,44,53,871,1726,1819,2078,2223,2095,1866,1864,2017
1007445,67848,35840,68877,36109,1487,385,-323,440,1168,-534,1832,3616,48,56,869,1726,1819,2078,2223,2095,1866,1864,2017
1008446,67936,35912,68942,36174,1309,676,-362,450,1160,-45,1842,3442,57,61,873,1726,1819,2078,2223,2095,1866,1864,2017
1009447,68020,36012,69007,36239,1335,284,-406,476,1126,349,2189,3214,63,57,875,1711,1810,2070,2236,2113,1888,1896,2039
1010448,68112,36088,69072,36304,1203,570,-471,480,1066,1,2413,3049,62,54,875,1711,1810,2070,2236,2113,1888,1896,2039
1011449,68204,36148,69137,36369,1170,776,-522,466,996,-132,2411,2781,62,50,877,1711,1810,2070,2236,2113,1888,1896,2039
1012450,68284,36232,69202,36434,1302,453,-587,490,934,182,2225,2938,52,62,877,1711,1810,2070,2236,2113,1888,1896,2039
1013451,68380,36312,69267,36499,1065,485,-646,524,878,379,2257,2871,46,57,876,1711,1810,2070,2236,2113,1888,1896,2039
1014452,68460,36404,69332,36564,1247,302,-703,523,802,9,2323,2570,63,53,877,1762,1846,2095,2280,2114,1887,1899,2031
1015453,68540,36496,69397,36629,1229,270,-749,522,739,-189,2214,3035,58,61,879,1762,1846,2095,2280,2114,1887,1899,2031
1016454,68624,36572,69462,36694,1156,456,-790,476,683,-235,1974,2911,60,58,879,1762,1846,2095,2280,2114,1887,1899,2031
1017455,68700,36660,69527,36759,1243,278,-809,440,649,-361,1614,2836,48,50,879,1762,1846,2095,2280,2114,1887,1899,2031
1018456,68788,36744,69592,36824,1065,305,-826,380,627,-489,1740,2951,51,51,878,1762,1846,2095,2280,2114,1887,1899,2031
1019457,68884,36824,69657,36889,928,337,-839,333,602,-716,1564,3147,51,60,879,1762,1846,2095,2280,2114,1887,1899,2031
1020458,68956,36900,69722,36954,1220,373,-858,296,585,-750,1367,3126,55,65,881,1745,1836,2085,2252,2072,1846,1852,1988
1021459,69048,36996,69787,37019,937,86,-868,266,589,-637,1147,3092,54,52,883,1745,1836,2085,2252,2072,1846,1852,1988
1022460,69140,37084,69852,37084,905,158,-876,237,599,-578,1064,3202,48,49,878,1745,1836,2085,2252,2072,1846,1852,1988
1023461,69224,37172,69917,37149,981,129,-880,208,590,-592,1141,3099,51,61,882,1745,1836,2085,2252,2072,1846,1852,1988
1024462,69312,37240,69982,37214,903,376,-909,220,571,-695,1245,3463,48,57,882,1745,1836,2085,2252,2072,1846,1852,1988
1025463,69396,37352,70047,37279,930,-232,-938,245,562,-339,1006,3406,42,58,884,1726,1828,2072,2235,2011,1795,1819,1954
