%  Data file recorded 2016/9/29  18:18:40
%  Stride Frequency         = [1, 1]
%  Lead In /Lead Out        = 
%  Deltas (Fractional)      = [0.25, 0.25, 0.25],[0.25, 0.25, 0.25]
%  Phase                    = 32768
%  Experiment.py 
%  Motor Gains    = [5000, 400, 200, 0, 300, 5000, 400, 200, 0, 300]
% Columns: 
% time | Right Leg Pos | Left Leg Pos | Commanded Right Leg Pos | Commanded Left Leg Pos | DCR | DCL | GyroX | GyroY | GyroZ | AX | AY | AZ | RBEMF | LBEMF | VBatt | S1 | S2 | S3 | S4 | S5 | S6 | S7 | S8
829,14376,-16740,15194,-17574,3800,3800,-8,1,-2,-155,150,3948,-3,9,853,1762,1908,2097,2260,2111,1854,1895,2036
1830,14372,-16748,15194,-17574,3800,3800,-8,0,-2,-149,145,3932,-3,10,853,1762,1908,2097,2260,2111,1854,1895,2036
2831,14376,-16740,15194,-17574,3800,3800,-6,2,-3,-144,144,3952,-1,0,853,1762,1908,2097,2260,2111,1854,1895,2036
3832,14380,-16752,15194,-17574,3800,3800,-6,4,-3,-155,152,3945,9,-4,853,1762,1908,2097,2260,2111,1854,1895,2036
4833,14368,-16744,15194,-17574,3800,3800,-6,2,-2,-147,163,3924,8,-1,853,1763,1908,2097,2259,2112,1856,1895,2037
5834,14372,-16748,15194,-17574,3800,3800,-7,0,-1,-126,184,3926,12,5,853,1763,1908,2097,2259,2112,1856,1895,2037
6835,14356,-16744,15194,-17574,3800,3800,-7,2,-1,-121,173,3940,7,10,853,1763,1908,2097,2259,2112,1856,1895,2037
7836,14372,-16744,15194,-17574,3800,3800,-7,1,-1,-150,179,3908,-1,8,853,1763,1908,2097,2259,2112,1856,1895,2037
8837,14376,-16756,15194,-17574,3800,3800,-6,1,-1,-170,149,3934,-3,-2,853,1763,1908,2097,2259,2112,1856,1895,2037
9838,14368,-16756,15194,-17574,3800,3800,-7,1,-2,-159,145,3933,-5,-4,853,1763,1908,2097,2259,2112,1856,1895,2037
10839,14372,-16744,15194,-17574,3800,3800,-9,2,-2,-143,147,3889,2,-3,853,1763,1908,2097,2260,2111,1854,1895,2036
11840,14372,-16752,15194,-17574,3800,3800,-8,1,0,-138,160,3928,4,9,853,1763,1908,2097,2260,2111,1854,1895,2036
12841,14376,-16748,15194,-17574,3800,3800,-6,-1,0,-139,159,3948,14,7,853,1763,1908,2097,2260,2111,1854,1895,2036
13842,14372,-16736,15194,-17574,3800,3800,-7,2,-2,-149,109,3916,6,1,853,1763,1908,2097,2260,2111,1854,1895,2036
14843,14372,-16740,15194,-17574,3800,3800,-9,2,-1,-132,133,3933,-1,-4,853,1763,1908,2097,2260,2111,1854,1895,2036
15844,14384,-16740,15194,-17574,3800,3800,-9,2,-1,-140,154,3940,-5,8,853,1763,1908,2097,2259,2112,1856,1895,2037
16845,14368,-16752,15194,-17574,3800,3800,-8,1,-1,-157,122,3961,0,10,852,1763,1908,2097,2259,2112,1856,1895,2037
17846,14360,-16736,15194,-17574,3800,3800,-8,-1,-2,-170,135,3953,12,6,852,1763,1908,2097,2259,2112,1856,1895,2037
18847,14360,-16756,15194,-17574,3800,3800,-9,0,-2,-142,166,3947,11,-4,853,1763,1908,2097,2259,2112,1856,1895,2037
19848,14364,-16748,15194,-17574,3800,3800,-10,1,-4,-140,162,3917,9,-1,851,1763,1908,2097,2259,2112,1856,1895,2037
20849,14360,-16752,15194,-17574,3800,3800,-8,1,-4,-142,179,3906,-5,10,852,1763,1908,2097,2259,2112,1856,1895,2037
21850,14376,-16744,15194,-17574,3800,3800,-7,2,-3,-139,166,3936,1,5,853,1762,1907,2097,2259,2111,1854,1895,2037
22851,14368,-16756,15194,-17574,3800,3800,-7,3,-1,-150,151,3948,8,-1,853,1762,1907,2097,2259,2111,1854,1895,2037
23852,14368,-16744,15194,-17574,3800,3800,-7,4,-2,-141,152,3952,12,-4,853,1762,1907,2097,2259,2111,1854,1895,2037
24853,14364,-16752,15194,-17574,3800,3800,-9,3,-2,-131,162,3947,6,0,853,1762,1907,2097,2259,2111,1854,1895,2037
25854,14372,-16744,15194,-17574,3800,3800,-8,4,-1,-141,139,3924,-2,2,852,1762,1907,2097,2259,2111,1854,1895,2037
26855,14376,-16748,15194,-17574,3800,3800,-7,5,-2,-163,168,3939,-5,10,853,1762,1908,2096,2257,2112,1853,1894,2035
27856,14372,-16756,15194,-17574,3800,3800,-8,3,-4,-127,179,3946,1,5,853,1762,1908,2096,2257,2112,1853,1894,2035
28857,14372,-16756,15194,-17574,3800,3800,-8,3,-3,-131,150,3931,12,2,853,1762,1908,2096,2257,2112,1853,1894,2035
29858,14360,-16744,15194,-17574,3800,3800,-7,2,-2,-125,141,3944,13,-4,852,1762,1908,2096,2257,2112,1853,1894,2035
30859,14368,-16748,15194,-17574,3800,3800,-6,0,0,-160,157,3980,3,5,853,1762,1908,2096,2257,2112,1853,1894,2035
31860,14368,-16740,15194,-17574,3800,3800,-9,0,0,-164,153,3933,-2,10,853,1762,1908,2096,2257,2112,1853,1894,2035
32861,14368,-16752,15194,-17574,3800,3800,-9,2,-1,-147,159,3922,-5,5,853,1762,1907,2095,2259,2111,1853,1894,2036
33862,14364,-16748,15194,-17574,3800,3800,-9,2,0,-135,170,3911,4,-4,853,1762,1907,2095,2259,2111,1853,1894,2036
34863,14368,-16752,15194,-17574,3800,3800,-8,2,-2,-151,150,3922,11,-4,853,1762,1907,2095,2259,2111,1853,1894,2036
35864,14372,-16744,15194,-17574,3800,3800,-5,1,-2,-152,140,3917,12,3,853,1762,1907,2095,2259,2111,1853,1894,2036
36865,14368,-16744,15194,-17574,3800,3800,-6,0,-3,-132,145,3948,-4,7,851,1762,1907,2095,2259,2111,1853,1894,2036
37866,14368,-16744,15194,-17574,3800,3800,-7,0,-2,-127,169,3922,3,-1,851,1764,1908,2097,2259,2112,1853,1894,2036
38867,14372,-16732,15194,-17574,3800,3800,-7,2,-2,-126,166,3926,11,-5,853,1764,1908,2097,2259,2112,1853,1894,2036
39868,14368,-16744,15194,-17574,3800,3800,-7,2,-2,-129,130,3900,5,3,853,1764,1908,2097,2259,2112,1853,1894,2036
40869,14376,-16740,15194,-17574,3800,3800,-7,2,-3,-132,140,3935,-2,6,853,1764,1908,2097,2259,2112,1853,1894,2036
41870,14372,-16752,15194,-17574,3800,3800,-7,1,-2,-144,153,3957,-3,10,853,1764,1908,2097,2259,2112,1853,1894,2036
42871,14368,-16736,15194,-17574,3800,3800,-5,-1,-1,-146,157,3916,14,5,853,1764,1908,2097,2259,2112,1853,1894,2036
43872,14376,-16744,15194,-17574,3800,3800,-6,-2,-1,-158,135,3920,8,-3,852,1763,1908,2097,2259,2111,1854,1895,2036
44873,14368,-16752,15194,-17574,3800,3800,-7,-1,-2,-124,143,3934,2,-2,853,1763,1908,2097,2259,2111,1854,1895,2036
45874,14376,-16748,15194,-17574,3800,3800,-8,1,-2,-134,141,3957,-3,9,853,1763,1908,2097,2259,2111,1854,1895,2036
46875,14364,-16748,15194,-17574,3800,3800,-10,1,0,-140,146,3953,6,10,853,1763,1908,2097,2259,2111,1854,1895,2036
47876,14368,-16740,15194,-17574,3800,3800,-8,1,1,-150,150,3916,8,7,853,1763,1908,2097,2259,2111,1854,1895,2036
48877,14368,-16748,15194,-17574,3800,3800,-9,0,-1,-170,124,3939,13,-2,853,1763,1908,2096,2260,2112,1856,1895,2037
49878,14376,-16756,15194,-17574,3800,3800,-8,0,-2,-142,129,3968,4,-5,853,1763,1908,2096,2260,2112,1856,1895,2037
50879,14376,-16752,15194,-17574,3800,3800,-8,1,-4,-139,156,3937,-5,5,853,1763,1908,2096,2260,2112,1856,1895,2037
51880,14364,-16736,15194,-17574,3800,3800,-9,1,-2,-141,141,3939,6,10,853,1763,1908,2096,2260,2112,1856,1895,2037
52881,14372,-16740,15194,-17574,3800,3800,-10,2,-1,-147,161,3946,11,9,853,1763,1908,2096,2260,2112,1856,1895,2037
53882,14368,-16752,15194,-17574,3800,3800,-8,2,-1,-194,107,3951,13,-4,852,1763,1908,2096,2260,2112,1856,1895,2037
54883,14364,-16748,15194,-17574,3800,3800,-5,3,0,-174,105,3952,2,8,851,1763,1906,2096,2259,2111,1854,1894,2036
55884,14380,-16748,15194,-17574,3800,3800,-5,4,1,-155,109,3946,-4,10,853,1763,1906,2096,2259,2111,1854,1894,2036
56885,14368,-16740,15194,-17574,3800,3800,-8,4,-1,-144,138,3944,-3,0,853,1763,1906,2096,2259,2111,1854,1894,2036
57886,14372,-16752,15194,-17574,3800,3800,-9,2,-3,-156,124,3900,10,-4,853,1763,1906,2096,2259,2111,1854,1894,2036
58887,14360,-16740,15194,-17574,3800,3800,-10,1,0,-171,144,3923,14,-2,853,1763,1906,2096,2259,2111,1854,1894,2036
59888,14372,-16744,15194,-17574,3800,3800,-9,1,1,-153,145,3915,14,7,853,1764,1908,2096,2259,2112,1856,1895,2037
60889,14380,-16740,15194,-17574,3800,3800,-10,3,0,-139,142,3934,9,9,853,1764,1908,2096,2259,2112,1856,1895,2037
61890,14376,-16748,15194,-17574,3800,3800,-11,1,-1,-134,165,3920,3,7,853,1764,1908,2096,2259,2112,1856,1895,2037
62891,14368,-16756,15194,-17574,3800,3800,-12,1,-4,-135,168,3918,-2,-3,853,1764,1908,2096,2259,2112,1856,1895,2037
63892,14368,-16744,15194,-17574,3800,3800,-11,1,-5,-156,163,3917,-4,-1,853,1764,1908,2096,2259,2112,1856,1895,2037
64893,14368,-16748,15194,-17574,3800,3800,-11,2,-4,-164,162,3953,-2,5,853,1764,1908,2096,2259,2112,1856,1895,2037
65894,14376,-16740,15194,-17574,3800,3800,-9,1,0,-117,126,3951,5,10,853,1763,1907,2097,2260,2111,1854,1895,2036
66895,14364,-16748,15194,-17574,3800,3800,-8,2,-1,-132,149,3937,12,3,853,1763,1907,2097,2260,2111,1854,1895,2036
67896,14376,-16740,15194,-17574,3800,3800,-8,2,-1,-156,153,3927,13,-2,853,1763,1907,2097,2260,2111,1854,1895,2036
68897,14368,-16744,15194,-17574,3800,3800,-9,0,1,-147,141,3918,12,4,853,1763,1907,2097,2260,2111,1854,1895,2036
69898,14372,-16740,15194,-17574,3800,3800,-9,0,1,-144,157,3976,13,9,853,1763,1907,2097,2260,2111,1854,1895,2036
70899,14376,-16744,15194,-17574,3800,3800,-8,1,-2,-146,169,3971,14,0,851,1764,1907,2097,2259,2112,1853,1895,2037
71900,14384,-16752,15194,-17574,3800,3800,-7,1,-4,-163,168,3973,10,-2,851,1764,1907,2097,2259,2112,1853,1895,2037
72901,14376,-16736,15194,-17574,3800,3800,-8,3,-1,-155,165,3916,-2,9,852,1764,1907,2097,2259,2112,1853,1895,2037
73902,14376,-16748,15194,-17574,3800,3800,-9,2,-2,-146,146,3914,-5,10,853,1764,1907,2097,2259,2112,1853,1895,2037
74903,14364,-16752,15194,-17574,3800,3800,-8,0,-4,-138,152,3888,0,-4,853,1764,1907,2097,2259,2112,1853,1895,2037
75904,14372,-16748,15194,-17574,3800,3800,-6,-1,-2,-123,151,3875,13,6,853,1764,1908,2096,2259,2111,1853,1895,2037
76905,14372,-16752,15194,-17574,3800,3800,-7,1,-1,-113,155,3934,13,10,853,1764,1908,2096,2259,2111,1853,1895,2036
77906,14372,-16748,15194,-17574,3800,3800,-9,-1,-1,-148,149,3915,14,5,853,1764,1908,2096,2259,2111,1853,1895,2036
78907,14372,-16744,15194,-17574,3800,3800,-9,0,-1,-158,126,3917,5,-4,853,1764,1908,2096,2259,2111,1853,1895,2036
79908,14376,-16744,15194,-17574,3800,3800,-7,1,-1,-137,123,3913,0,-1,853,1764,1908,2096,2259,2111,1853,1895,2036
80909,14360,-16740,15194,-17574,3800,3800,-7,-1,-3,-146,149,3928,-5,10,853,1764,1908,2096,2259,2111,1853,1895,2036
81910,14376,-16756,15194,-17574,3800,3800,-8,0,-2,-141,162,3945,-2,1,853,1764,1908,2097,2261,2112,1856,1896,2036
82911,14356,-16740,15194,-17574,3800,3800,-9,2,0,-146,159,3925,-1,-4,853,1764,1908,2097,2261,2112,1856,1896,2036
83912,14360,-16740,15194,-17574,3800,3800,-6,1,-1,-134,164,3883,1,5,853,1764,1908,2097,2261,2112,1856,1896,2036
84913,14380,-16740,15194,-17574,3800,3800,-6,4,-2,-134,124,3935,14,10,853,1764,1908,2097,2261,2112,1856,1896,2036
85914,14360,-16752,15194,-17574,3800,3800,-7,2,1,-134,126,3940,13,1,853,1764,1908,2097,2261,2112,1856,1896,2036
86915,14368,-16748,15194,-17574,3800,3800,-7,2,0,-132,137,3936,9,-3,853,1763,1907,2096,2259,2111,1853,1894,2036
87916,14368,-16744,15194,-17574,3800,3800,-7,2,0,-128,164,3944,-3,11,851,1763,1907,2096,2259,2111,1853,1894,2036
88917,14372,-16748,15194,-17574,3800,3800,-7,0,0,-150,155,3926,1,1,851,1763,1907,2096,2259,2111,1853,1894,2036
89918,14376,-16756,15194,-17574,3800,3800,-4,2,-3,-133,150,3932,8,-3,853,1763,1907,2096,2259,2111,1853,1894,2036
90919,14376,-16740,15194,-17574,3800,3800,-4,2,-2,-129,149,3933,14,10,852,1763,1907,2096,2259,2111,1853,1894,2036
91920,14372,-16752,15194,-17574,3800,3800,-6,3,0,-129,160,3937,11,8,853,1763,1907,2096,2259,2111,1853,1894,2036
92921,14376,-16744,15194,-17574,3800,3800,-6,2,1,-128,140,3918,8,-4,853,1764,1908,2096,2260,2110,1854,1894,2035
93922,14376,-16740,15194,-17574,3800,3800,-7,1,0,-130,145,3899,-4,1,853,1764,1908,2096,2260,2110,1854,1894,2035
94923,14376,-16736,15194,-17574,3800,3800,-7,1,-1,-156,153,3925,-4,10,853,1764,1908,2096,2260,2110,1854,1894,2035
95924,14364,-16736,15194,-17574,3800,3800,-7,2,-1,-150,159,3918,7,2,853,1764,1908,2096,2260,2110,1854,1894,2035
96925,14376,-16736,15194,-17574,3800,3800,-5,4,1,-155,175,3896,14,-3,853,1764,1908,2096,2260,2110,1854,1894,2035
97926,14372,-16744,15194,-17574,3800,3800,-4,3,1,-136,158,3889,12,5,853,1762,1906,2094,2257,2110,1853,1894,2035
98927,14364,-16756,15194,-17574,3800,3800,-6,4,-1,-124,170,3893,-3,8,853,1762,1906,2094,2257,2110,1853,1894,2035
99928,14376,-16744,15194,-17574,3800,3800,-6,5,-1,-143,130,3906,3,-4,853,1762,1906,2094,2257,2110,1853,1894,2035
100929,14364,-16748,15194,-17574,3800,3800,-6,6,-3,-158,141,3938,13,-4,853,1762,1906,2094,2257,2110,1853,1894,2035
101930,14376,-16740,15194,-17574,3800,3800,-8,4,-1,-146,173,3966,10,5,853,1762,1906,2094,2257,2110,1853,1894,2035
102931,14368,-16736,15194,-17574,3800,3800,-7,1,0,-155,188,3922,-5,10,853,1762,1906,2094,2257,2110,1853,1894,2035
103932,14368,-16752,15194,-17574,3800,3800,-8,2,0,-150,152,3916,-5,6,853,1764,1908,2098,2260,2112,1854,1896,2036
104933,14356,-16744,15194,-17574,3800,3800,-8,2,0,-137,138,3884,-1,-5,852,1764,1908,2098,2260,2112,1854,1896,2036
105934,14376,-16748,15194,-17574,3800,3800,-6,3,0,-141,157,3892,14,8,852,1764,1908,2098,2260,2112,1854,1896,2036
106935,14368,-16740,15194,-17574,3800,3800,-6,3,-2,-134,165,3902,7,10,852,1764,1908,2098,2260,2112,1854,1896,2036
107936,14376,-16744,15194,-17574,3800,3800,-9,2,-2,-149,167,3883,2,-1,853,1764,1908,2098,2260,2112,1854,1896,2036
108937,14364,-16748,15194,-17574,3800,3800,-8,2,-1,-160,171,3925,-5,-3,853,1764,1908,2096,2259,2111,1853,1895,2037
109938,14368,-16748,15194,-17574,3800,3800,-8,1,0,-167,150,3948,0,0,853,1764,1908,2096,2259,2111,1853,1895,2037
110939,14364,-16756,15194,-17574,3800,3800,-10,2,-3,-134,145,3932,10,9,853,1764,1908,2096,2259,2111,1853,1895,2037
111940,14376,-16748,15194,-17574,3800,3800,-9,2,-4,-136,143,3918,14,9,853,1764,1908,2096,2259,2111,1853,1895,2037
112941,14372,-16740,15194,-17574,3800,3800,-9,1,-2,-141,168,3948,12,7,853,1764,1908,2096,2259,2111,1853,1895,2037
113942,14372,-16744,15194,-17574,3800,3800,-7,1,-4,-135,149,3972,10,-4,853,1764,1908,2096,2259,2111,1853,1895,2037
114943,14372,-16752,15194,-17574,3800,3800,-8,2,-3,-123,147,3941,0,-3,853,1764,1910,2098,2262,2112,1854,1896,2038
115944,14376,-16752,15194,-17574,3800,3800,-8,3,-2,-134,138,3953,-2,-2,853,1764,1910,2098,2262,2112,1854,1896,2038
116945,14364,-16748,15194,-17574,3800,3800,-7,1,-1,-146,133,3927,-5,5,853,1764,1910,2098,2262,2112,1854,1896,2038
117946,14368,-16748,15194,-17574,3800,3800,-8,2,-2,-154,144,3941,5,10,853,1764,1910,2098,2262,2112,1854,1896,2038
118949,14376,-16744,15194,-17574,3800,3800,-8,0,-2,-165,164,3950,10,10,852,1764,1910,2098,2262,2112,1854,1896,2038
119948,14380,-16752,15194,-17574,3800,3800,-8,0,-2,-177,187,3924,13,5,853,1764,1908,2096,2258,2110,1852,1894,2036
120949,14368,-16756,15194,-17574,3800,3800,-7,1,-1,-121,169,3893,10,-5,853,1764,1908,2096,2258,2110,1852,1894,2036
121950,14380,-16748,15194,-17574,3800,3800,-6,1,-2,-134,165,3934,7,-1,851,1764,1908,2096,2258,2110,1852,1894,2036
122951,14368,-16744,15194,-17574,3800,3800,-7,3,-2,-159,160,3927,-3,10,851,1764,1908,2096,2258,2110,1852,1894,2036
123952,14376,-16752,15194,-17574,3800,3800,-9,0,0,-137,175,3941,2,7,853,1764,1908,2096,2258,2110,1852,1894,2036
124953,14376,-16748,15194,-17574,3800,3800,-9,0,0,-140,157,3940,2,0,853,1764,1908,2096,2258,2110,1852,1894,2036
125954,14384,-16748,15194,-17574,3800,3800,-11,2,-1,-167,159,3911,9,-5,853,1764,1909,2098,2260,2113,1855,1896,2038
126955,14368,-16744,15194,-17574,3800,3800,-11,2,-1,-165,166,3916,13,1,853,1764,1909,2098,2260,2113,1855,1896,2038
127956,14364,-16748,15194,-17574,3800,3800,-10,1,-3,-142,166,3924,3,3,853,1764,1909,2098,2260,2113,1855,1896,2038
128957,14368,-16748,15194,-17574,3800,3800,-8,3,-1,-148,138,3915,-5,10,853,1764,1909,2098,2260,2113,1855,1896,2038
129958,14368,-16736,15194,-17574,3800,3800,-11,3,-1,-123,151,3934,1,2,853,1764,1909,2098,2260,2113,1855,1896,2038
130959,14360,-16740,15194,-17574,3800,3800,-12,0,-1,-154,147,3981,12,0,853,1763,1908,2096,2259,2110,1853,1895,2036
131960,14376,-16744,15194,-17574,3800,3800,-11,0,-2,-164,139,3943,14,-4,853,1763,1908,2096,2259,2110,1853,1895,2036
132961,14376,-16736,15194,-17574,3800,3800,-11,2,-2,-153,176,3914,0,3,853,1763,1908,2096,2259,2110,1853,1895,2036
133962,14376,-16748,15194,-17574,3800,3800,-11,1,-1,-137,187,3901,-5,6,853,1763,1908,2096,2259,2110,1853,1895,2036
134963,14368,-16736,15194,-17574,3800,3800,-10,2,0,-141,153,3926,4,10,853,1763,1908,2096,2259,2110,1853,1895,2036
135964,14368,-16744,15194,-17574,3800,3800,-10,1,0,-153,161,3965,14,5,853,1763,1908,2096,2259,2110,1853,1895,2036
136965,14368,-16740,15194,-17574,3800,3800,-10,1,1,-138,161,3948,14,0,853,1764,1908,2098,2260,2111,1853,1896,2036
137966,14372,-16752,15194,-17574,3800,3800,-9,-2,-1,-120,154,3914,13,-4,853,1764,1908,2098,2260,2111,1853,1896,2036
138967,14372,-16744,15194,-17574,3800,3800,-8,-1,-3,-147,145,3914,5,6,851,1764,1908,2098,2260,2111,1853,1896,2036
139968,14380,-16736,15194,-17574,3800,3800,-8,0,-2,-162,149,3922,-5,9,851,1764,1908,2098,2260,2111,1853,1896,2036
140969,14376,-16748,15194,-17574,3800,3800,-7,-1,-2,-154,144,3916,-3,10,853,1764,1908,2098,2260,2111,1853,1896,2036
141970,14360,-16748,15194,-17574,3800,3800,-6,-1,0,-136,164,3930,13,4,853,1764,1908,2096,2259,2110,1852,1894,2035
142971,14364,-16748,15194,-17574,3800,3800,-7,2,0,-138,138,3906,6,2,853,1764,1908,2096,2259,2110,1852,1894,2035
143972,14368,-16752,15194,-17574,3800,3800,-6,4,-1,-132,145,3911,-3,-2,853,1764,1908,2096,2259,2110,1852,1894,2035
144973,14368,-16744,15194,-17574,3800,3800,-8,3,-1,-134,147,3923,8,-5,853,1764,1908,2096,2259,2110,1852,1894,2035
145974,14368,-16752,15194,-17574,3800,3800,-6,1,-2,-130,140,3937,14,-4,853,1764,1908,2096,2259,2110,1852,1894,2035
146975,14368,-16744,15194,-17574,3800,3800,-5,1,0,-138,141,3956,7,-1,853,1764,1908,2096,2259,2110,1852,1894,2035
147976,14376,-16748,15194,-17574,3800,3800,-5,0,-2,-160,168,3935,-5,9,853,1766,1910,2100,2262,2112,1853,1896,2037
148977,14364,-16752,15194,-17574,3800,3800,-5,-1,-4,-155,180,3928,1,10,852,1766,1910,2100,2262,2112,1853,1896,2037
149978,14372,-16756,15194,-17574,3800,3800,-4,-1,-2,-143,149,3905,9,8,853,1766,1910,2100,2262,2112,1853,1896,2037
150979,14376,-16740,15194,-17574,3800,3800,-4,1,-2,-145,146,3931,11,0,853,1766,1910,2100,2262,2112,1853,1896,2037
151980,14380,-16744,15194,-17574,3800,3800,-4,0,-1,-140,157,3918,6,-3,853,1766,1910,2100,2262,2112,1853,1896,2037
152981,14364,-16752,15194,-17574,3800,3800,-5,-1,-1,-164,161,3928,-3,-4,853,1764,1907,2096,2259,2110,1853,1894,2037
153982,14372,-16740,15194,-17574,3800,3800,-5,-2,-1,-164,145,3962,-2,6,853,1764,1907,2096,2259,2110,1853,1894,2037
154983,14372,-16756,15194,-17574,3800,3800,-6,-1,-2,-146,152,3916,6,7,852,1764,1907,2096,2259,2110,1853,1894,2037
155984,14368,-16744,15194,-17574,3800,3800,-6,2,0,-123,155,3910,13,6,852,1764,1907,2096,2259,2110,1853,1894,2037
156985,14368,-16748,15194,-17574,3800,3800,-6,2,0,-134,183,3914,-1,-4,852,1764,1907,2096,2259,2110,1853,1894,2037
157986,14364,-16744,15194,-17574,3800,3800,-4,3,2,-137,160,3923,-4,-1,853,1764,1907,2096,2259,2110,1853,1894,2037
158987,14372,-16748,15194,-17574,3800,3800,-4,2,-2,-168,151,3957,5,8,853,1764,1908,2097,2259,2112,1853,1895,2036
159988,14368,-16748,15194,-17574,3800,3800,-4,1,-4,-141,169,3957,14,10,853,1764,1908,2097,2259,2112,1853,1895,2036
160989,14360,-16744,15194,-17574,3800,3800,-5,-1,-2,-141,168,3928,9,10,853,1764,1908,2097,2259,2112,1853,1895,2036
161990,14368,-16740,15194,-17574,3800,3800,-6,3,-2,-134,160,3946,-1,7,853,1764,1908,2097,2259,2112,1853,1895,2036
162991,14368,-16744,15194,-17574,3800,3800,-7,4,-3,-150,152,3902,0,-1,853,1764,1908,2097,2259,2112,1853,1895,2036
163992,14380,-16752,15194,-17574,3800,3800,-7,2,-3,-150,156,3916,14,-4,853,1763,1907,2096,2258,2111,1853,1894,2037
164993,14368,-16760,15194,-17574,3800,3800,-8,2,-2,-142,135,3906,5,-4,853,1763,1907,2096,2258,2111,1853,1894,2037
165994,14376,-16752,15194,-17574,3800,3800,-7,3,-1,-131,141,3925,-4,1,853,1763,1907,2096,2258,2111,1853,1894,2037
166995,14364,-16740,15194,-17574,3800,3800,-5,2,-1,-143,122,3942,3,-1,853,1763,1907,2096,2258,2111,1853,1894,2037
167996,14368,-16752,15194,-17574,3800,3800,-7,2,0,-153,171,3924,12,3,852,1763,1907,2096,2258,2111,1853,1894,2037
168998,14368,-16744,15194,-17574,3800,3800,-9,4,1,-138,172,3947,10,10,853,1763,1907,2096,2258,2111,1853,1894,2037
169998,14364,-16732,15194,-17574,3800,3800,-8,4,2,-136,172,3961,7,8,853,1764,1906,2097,2259,2112,1854,1894,2036
170999,14372,-16756,15194,-17574,3800,3800,-8,2,0,-145,147,3920,-1,-1,853,1764,1906,2097,2259,2112,1854,1894,2036
172000,14376,-16744,15194,-17574,3800,3800,-8,0,0,-152,146,3936,-1,-5,853,1764,1906,2097,2259,2112,1854,1894,2036
173001,14364,-16756,15194,-17574,3800,3800,-8,1,1,-146,154,3927,5,1,851,1764,1906,2097,2259,2112,1854,1894,2036
174002,14380,-16744,15194,-17574,3800,3800,-7,1,1,-167,139,3957,14,10,851,1764,1906,2097,2259,2112,1854,1894,2036
175003,14368,-16732,15194,-17574,3800,3800,-7,2,0,-139,144,3959,2,0,853,1765,1907,2095,2258,2111,1855,1896,2038
176004,14376,-16744,15194,-17574,3800,3800,-7,4,-2,-143,142,3947,-4,-5,852,1765,1907,2095,2258,2111,1855,1896,2038
177005,14368,-16748,15194,-17574,3800,3800,-8,2,-3,-161,152,3915,2,2,853,1765,1907,2095,2258,2111,1855,1896,2038
178006,14364,-16740,15194,-17574,3800,3800,-9,1,-2,-143,138,3922,14,10,853,1765,1907,2095,2258,2111,1855,1896,2038
179007,14368,-16748,15194,-17574,3800,3800,-11,1,-2,-165,158,3897,13,10,853,1765,1907,2095,2258,2111,1855,1896,2038
180008,14372,-16748,15194,-17574,3800,3800,-10,3,-2,-162,169,3931,12,4,853,1765,1907,2095,2258,2111,1855,1896,2038
181009,14368,-16736,15194,-17574,3800,3800,-7,4,-2,-134,137,3935,5,-4,853,1765,1908,2097,2259,2110,1853,1894,2037
182010,14376,-16752,15194,-17574,3800,3800,-8,4,0,-138,154,3932,0,-5,853,1765,1908,2097,2259,2110,1853,1894,2037
183011,14376,-16740,15194,-17574,3800,3800,-8,4,1,-132,171,3933,-2,0,852,1765,1908,2097,2259,2110,1853,1894,2037
184012,14368,-16744,15194,-17574,3800,3800,-9,2,-2,-144,173,3924,-5,7,853,1765,1908,2097,2259,2110,1853,1894,2037
185013,14376,-16748,15194,-17574,3800,3800,-7,0,-2,-164,156,3933,-5,10,853,1765,1908,2097,2259,2110,1853,1894,2037
186014,14376,-16748,15194,-17574,3800,3800,-6,-1,-2,-143,153,3952,-3,6,853,1766,1908,2096,2259,2112,1853,1893,2035
187015,14372,-16748,15194,-17574,3800,3800,-6,0,0,-124,154,3910,6,-2,853,1766,1908,2096,2259,2112,1853,1893,2035
188016,14376,-16752,15194,-17574,3800,3800,-8,2,0,-124,146,3912,13,-4,853,1766,1908,2096,2259,2112,1853,1893,2035
189017,14384,-16744,15194,-17574,3800,3800,-7,3,-2,-132,144,3949,13,-2,853,1766,1908,2096,2259,2112,1853,1893,2035
190018,14368,-16752,15194,-17574,3800,3800,-5,1,0,-164,148,3935,4,8,852,1766,1908,2096,2259,2112,1853,1893,2035
191019,14376,-16752,15194,-17574,3800,3800,-2,0,1,-168,152,3913,-5,11,851,1766,1908,2096,2259,2112,1853,1893,2035
192020,14376,-16744,15194,-17574,3800,3800,-7,1,1,-133,146,3922,3,8,852,1764,1907,2096,2259,2110,1853,1894,2037
193021,14368,-16740,15194,-17574,3800,3800,-9,2,2,-141,149,3919,12,-2,853,1764,1907,2096,2259,2110,1853,1894,2037
194022,14368,-16740,15194,-17574,3800,3800,-10,1,1,-167,186,3924,-3,-5,853,1764,1907,2096,2259,2110,1853,1894,2037
195023,14376,-16736,15194,-17574,3800,3800,-7,1,-1,-168,184,3930,-2,0,853,1764,1907,2096,2259,2110,1853,1894,2037
196024,14360,-16744,15194,-17574,3800,3800,-7,2,-2,-141,184,3921,14,7,853,1764,1907,2096,2259,2110,1853,1894,2037
197025,14360,-16764,15194,-17574,3800,3800,-10,4,-1,-141,155,3924,7,8,853,1764,1907,2095,2259,2110,1854,1894,2035
198026,14376,-16748,15194,-17574,3800,3800,-12,2,-2,-146,164,3928,1,10,853,1764,1907,2095,2259,2110,1854,1894,2035
199027,14356,-16744,15194,-17574,3800,3800,-9,1,-3,-148,155,3931,-4,2,853,1764,1907,2095,2259,2110,1854,1894,2035
200028,14356,-16748,15194,-17574,3800,3800,-7,-1,-3,-135,145,3912,6,1,853,1764,1907,2095,2259,2110,1854,1894,2035
201029,14372,-16744,15194,-17574,3800,3800,-8,2,-3,-129,148,3922,12,-4,852,1764,1907,2095,2259,2110,1854,1894,2035
202030,14376,-16752,15194,-17574,3800,3800,-8,3,-3,-134,150,3935,11,3,853,1764,1907,2095,2259,2110,1854,1894,2035
203031,14368,-16736,15259,-17509,1612,-719,-9,3,-1,-137,145,3902,10,6,853,1763,1906,2095,2260,2111,1854,1896,2036
204032,14356,-16748,15324,-17444,1756,-276,-8,1,-1,-136,147,3884,9,13,853,1763,1906,2095,2260,2111,1854,1896,2036
205033,14344,-16732,15389,-17379,1850,-566,-8,2,-3,-126,154,3916,30,6,838,1763,1906,2095,2260,2111,1854,1896,2036
206034,14388,-16748,15454,-17314,1177,-67,-9,5,-3,-133,181,3997,25,18,838,1763,1906,2095,2260,2111,1854,1896,2036
207035,14440,-16752,15519,-17249,1093,-134,-8,-5,4,-151,110,3920,54,12,836,1763,1906,2095,2260,2111,1854,1896,2036
208036,14508,-16748,15584,-17184,889,-160,-10,-7,4,-218,84,3749,51,0,844,1764,1906,2096,2258,2110,1853,1894,2035
209037,14588,-16756,15649,-17119,722,79,-11,-24,8,-218,81,3836,62,-2,846,1764,1906,2096,2258,2110,1853,1894,2035
210038,14676,-16756,15714,-17054,594,59,-11,-57,12,-458,75,3503,54,-2,847,1764,1906,2096,2258,2110,1853,1894,2035
211039,14772,-16776,15779,-16989,457,412,-21,-68,23,-371,6,4014,59,-2,849,1764,1906,2096,2258,2110,1853,1894,2035
212040,14876,-16772,15844,-16924,309,187,-21,-39,23,123,75,3876,69,8,850,1764,1906,2096,2258,2110,1853,1894,2035
213041,14972,-16772,15909,-16859,371,316,-25,-62,37,-83,-82,3617,69,15,849,1764,1906,2096,2258,2110,1853,1894,2035
214042,15064,-16796,15974,-16794,389,725,-30,-75,47,-330,54,3847,54,2,851,1766,1908,2094,2253,2109,1851,1893,2037
215043,15172,-16780,16039,-16729,137,285,-21,-56,42,-285,201,4033,59,9,850,1766,1908,2094,2253,2109,1851,1893,2037
216044,15256,-16776,16104,-16664,414,509,-13,-59,37,46,41,3990,57,20,847,1766,1908,2094,2253,2109,1851,1893,2037
217046,15360,-16776,16169,-16599,117,639,6,-34,36,42,130,4122,51,7,851,1766,1908,2094,2253,2109,1851,1893,2037
218046,15464,-16756,16234,-16534,69,443,13,-5,31,-150,136,4121,56,24,849,1766,1908,2094,2253,2109,1851,1893,2037
219047,15576,-16756,16299,-16469,-88,773,28,2,31,-70,175,4226,51,22,849,1758,1901,2086,2247,2106,1846,1891,2031
220048,15656,-16760,16364,-16404,295,907,27,-5,30,-54,208,3958,69,27,850,1758,1901,2086,2247,2106,1846,1891,2031
221049,15756,-16748,16429,-16339,2,772,30,6,14,-157,191,3954,70,18,846,1758,1901,2086,2247,2106,1846,1891,2031
222050,15848,-16720,16494,-16274,69,617,25,-10,18,-303,253,3728,50,35,847,1758,1901,2086,2247,2106,1846,1891,2031
223051,15916,-16680,16559,-16209,365,497,23,-35,10,-475,290,3672,55,34,849,1758,1901,2086,2247,2106,1846,1891,2031
224052,16000,-16632,16624,-16144,143,419,18,-62,8,-565,217,4013,47,36,848,1758,1901,2086,2247,2106,1846,1891,2031
225053,16084,-16592,16689,-16079,120,550,16,-47,16,-141,145,4191,58,37,848,1772,1916,2104,2274,2108,1852,1896,2032
226054,16172,-16536,16754,-16014,42,361,23,-61,21,111,315,4040,60,33,851,1772,1916,2104,2274,2108,1852,1896,2032
227055,16248,-16476,16819,-15949,179,317,29,-94,17,-599,146,3648,53,32,850,1772,1916,2104,2274,2108,1852,1896,2032
228056,16312,-16408,16884,-15884,330,213,36,-98,7,-679,92,3996,55,31,851,1772,1916,2104,2274,2108,1852,1896,2032
229057,16392,-16364,16949,-15819,112,540,48,-64,-6,110,107,3971,35,39,851,1772,1916,2104,2274,2108,1852,1896,2032
230058,16444,-16328,17014,-15754,478,675,61,-15,1,233,-58,3980,47,30,851,1782,1925,2116,2283,2109,1855,1895,2037
231059,16524,-16268,17079,-15689,110,381,58,2,-3,-67,72,3693,33,39,850,1782,1925,2116,2283,2109,1855,1895,2037
232060,16580,-16204,17144,-15624,421,333,55,13,0,-323,-39,3892,36,44,847,1782,1925,2116,2283,2109,1855,1895,2037
233061,16632,-16144,17209,-15559,488,389,46,3,2,-304,13,3881,37,32,850,1782,1925,2116,2283,2109,1855,1895,2037
234062,16704,-16092,17274,-15494,229,505,50,-38,1,-293,-10,3872,37,44,849,1782,1925,2116,2283,2109,1855,1895,2037
235063,16752,-16028,17339,-15429,550,357,55,-65,0,-334,105,4093,35,34,849,1782,1925,2116,2283,2109,1855,1895,2037
236064,16800,-15956,17404,-15364,571,248,57,-102,-7,-256,162,3817,42,34,850,1780,1920,2108,2272,2100,1848,1888,2028
237065,16864,-15896,17469,-15299,372,404,45,-123,-16,-317,97,3926,45,49,849,1780,1920,2108,2272,2100,1848,1888,2028
238066,16900,-15832,17534,-15234,758,356,44,-121,-28,-194,142,4033,31,43,849,1780,1920,2108,2272,2100,1848,1888,2028
239067,16952,-15776,17599,-15169,574,467,37,-107,-40,-93,145,4062,26,48,849,1780,1920,2108,2272,2100,1848,1888,2028
240068,17012,-15716,17664,-15104,480,424,38,-101,-50,-80,155,4006,48,47,847,1780,1920,2108,2272,2100,1848,1888,2028
241069,17064,-15660,17729,-15039,596,485,51,-77,-71,-65,190,4065,44,43,847,1761,1905,2087,2245,2104,1847,1895,2039
242070,17116,-15596,17794,-14974,613,386,59,-86,-82,-197,194,4114,34,50,847,1761,1905,2087,2245,2104,1847,1895,2039
243071,17176,-15540,17859,-14909,519,498,73,-84,-74,-309,147,4189,48,45,847,1761,1905,2087,2245,2104,1847,1895,2039
244072,17212,-15480,17924,-14844,855,454,79,-93,-76,-300,209,4030,39,42,848,1761,1905,2087,2245,2104,1847,1895,2039
245073,17272,-15416,17989,-14779,561,405,86,-121,-80,-221,149,4092,29,51,848,1761,1905,2087,2245,2104,1847,1895,2039
246074,17328,-15344,18054,-14714,623,297,86,-134,-79,-372,92,3951,48,51,846,1761,1905,2087,2245,2104,1847,1895,2039
247075,17380,-15284,18119,-14649,689,454,85,-148,-72,-465,140,3950,29,44,848,1756,1902,2084,2244,2116,1856,1904,2050
248076,17436,-15212,18184,-14584,650,295,86,-160,-75,-326,108,3870,38,50,848,1756,1902,2084,2244,2116,1856,1904,2050
249077,17492,-15152,18249,-14519,662,451,86,-168,-70,-407,-51,3821,39,37,847,1756,1902,2084,2244,2116,1856,1904,2050
250078,17548,-15088,18314,-14454,673,402,80,-171,-70,-198,62,3977,44,45,848,1756,1902,2084,2244,2116,1856,1904,2050
251079,17596,-15000,18379,-14389,793,75,77,-163,-72,-226,8,3877,33,46,847,1756,1902,2084,2244,2116,1856,1904,2050
252080,17648,-14940,18444,-14324,759,431,68,-178,-83,-362,-44,3825,39,42,847,1769,1917,2105,2265,2121,1861,1904,2051
253081,17716,-14872,18509,-14259,557,328,58,-185,-82,-336,54,3884,53,46,848,1769,1917,2105,2265,2121,1861,1904,2051
254082,17772,-14816,18574,-14194,718,489,50,-181,-82,-247,91,3963,38,35,847,1769,1917,2105,2265,2121,1861,1904,2051
255083,17832,-14748,18639,-14129,674,336,47,-196,-98,-212,90,3838,49,47,849,1769,1917,2105,2265,2121,1861,1904,2051
256084,17888,-14696,18704,-14064,736,552,46,-197,-89,-317,-68,4007,33,34,847,1769,1917,2105,2265,2121,1861,1904,2051
257085,17956,-14624,18769,-13999,582,293,49,-213,-77,-141,-76,3893,47,33,847,1769,1917,2105,2265,2121,1861,1904,2051
258086,18000,-14576,18834,-13934,908,614,75,-220,-85,-289,-98,3865,35,46,846,1776,1920,2107,2268,2117,1858,1899,2039
259087,18064,-14524,18899,-13869,660,580,87,-226,-97,-601,-76,3967,37,46,847,1776,1920,2107,2268,2117,1858,1899,2039
260088,18128,-14468,18964,-13804,661,542,105,-213,-104,-599,42,4013,55,37,845,1776,1920,2107,2268,2117,1858,1899,2039
261089,18184,-14396,19029,-13739,772,334,102,-202,-98,-298,152,4084,50,37,847,1776,1920,2107,2268,2117,1858,1899,2039
262090,18244,-14344,19094,-13674,728,599,101,-200,-79,-180,94,4126,51,39,847,1776,1920,2107,2268,2117,1858,1899,2039
263091,18300,-14288,19159,-13609,790,560,103,-205,-65,-368,193,4276,41,45,847,1769,1909,2095,2262,2095,1841,1886,2021
264092,18368,-14216,19224,-13544,636,353,106,-200,-49,-363,243,4204,51,46,846,1769,1909,2095,2262,2095,1841,1886,2021
265093,18424,-14144,19289,-13479,797,344,106,-197,-44,-377,247,4049,45,40,846,1769,1909,2095,2262,2095,1841,1886,2021
266094,18472,-14096,19354,-13414,919,665,100,-186,-41,-174,293,4172,50,40,848,1769,1909,2095,2262,2095,1841,1886,2021
267095,18540,-14032,19419,-13349,665,466,97,-161,-28,-144,156,4050,39,35,847,1769,1909,2095,2262,2095,1841,1886,2021
268096,18604,-13960,19484,-13284,717,359,92,-147,-22,-4,218,3970,39,42,845,1769,1909,2095,2262,2095,1841,1886,2021
269097,18648,-13896,19549,-13219,993,460,92,-131,-23,-167,121,3979,40,41,847,1775,1915,2100,2273,2099,1847,1893,2031
270098,18696,-13832,19614,-13154,964,461,100,-130,-27,-112,94,3942,35,43,847,1775,1915,2100,2273,2099,1847,1893,2031
271099,18760,-13780,19679,-13089,765,628,121,-136,-32,-211,76,3906,43,39,845,1775,1915,2100,2273,2099,1847,1893,2031
272100,18824,-13720,19744,-13024,768,534,154,-143,-49,-408,-11,3870,39,50,845,1775,1915,2100,2273,2099,1847,1893,2031
273101,18872,-13652,19809,-12959,988,430,164,-160,-61,-288,-56,3941,44,36,846,1775,1915,2100,2273,2099,1847,1893,2031
274102,18936,-13588,19874,-12894,791,482,182,-159,-68,-302,22,3982,47,45,846,1777,1917,2108,2274,2108,1854,1895,2035
275103,19016,-13540,19939,-12829,572,703,181,-132,-72,-171,116,4066,40,50,844,1777,1917,2108,2274,2108,1854,1895,2035
276104,19088,-13468,20004,-12764,664,395,186,-126,-69,-44,135,3919,57,36,846,1777,1917,2108,2274,2108,1854,1895,2035
277105,19128,-13396,20069,-12699,1095,386,181,-125,-69,-347,113,3787,44,49,847,1777,1917,2108,2274,2108,1854,1895,2035
278106,19208,-13348,20134,-12634,577,707,179,-120,-58,-445,71,3937,53,49,845,1777,1917,2108,2274,2108,1854,1895,2035
279107,19268,-13280,20199,-12569,833,454,183,-112,-47,-142,139,3974,51,40,847,1777,1917,2108,2274,2108,1854,1895,2035
280108,19312,-13216,20264,-12504,1060,506,186,-100,-35,-188,97,3912,35,43,846,1779,1923,2112,2273,2103,1847,1891,2031
281109,19384,-13156,20329,-12439,701,562,179,-103,-11,-201,101,3977,37,50,844,1779,1923,2112,2273,2103,1847,1891,2031
282110,19440,-13096,20394,-12374,912,568,180,-100,10,-281,190,4063,38,38,847,1779,1923,2112,2273,2103,1847,1891,2031
283111,19512,-13024,20459,-12309,705,410,167,-122,15,-112,201,3946,50,47,845,1779,1923,2112,2273,2103,1847,1891,2031
284112,19572,-12976,20524,-12244,861,731,176,-125,18,-113,113,3930,56,46,847,1779,1923,2112,2273,2103,1847,1891,2031
285113,19620,-12912,20589,-12179,1031,532,161,-136,25,30,163,4068,39,49,844,1768,1912,2098,2258,2102,1847,1893,2037
286114,19684,-12856,20654,-12114,834,644,168,-102,24,170,148,4019,50,47,844,1768,1912,2098,2258,2102,1847,1893,2037
287115,19744,-12796,20719,-12049,890,600,153,-103,24,73,171,4029,50,51,845,1768,1912,2098,2258,2102,1847,1893,2037
288116,19808,-12728,20784,-11984,842,497,172,-87,2,152,280,4059,53,43,845,1768,1912,2098,2258,2102,1847,1893,2037
289117,19856,-12668,20849,-11919,1063,603,161,-109,0,-13,123,3921,48,39,846,1768,1912,2098,2258,2102,1847,1893,2037
290118,19916,-12592,20914,-11854,919,390,173,-133,-11,128,196,3979,50,49,843,1768,1912,2098,2258,2102,1847,1893,2037
291119,19980,-12532,20979,-11789,871,596,183,-147,-18,-32,173,4018,38,51,844,1757,1899,2087,2246,2122,1860,1903,2051
292120,20012,-12484,21044,-11724,1311,767,191,-156,-35,-116,118,3931,41,50,844,1757,1899,2087,2246,2122,1860,1903,2051
293121,20088,-12420,21109,-11659,748,569,199,-157,-45,-202,185,3907,46,46,841,1757,1899,2087,2246,2122,1860,1903,2051
294122,20152,-12360,21174,-11594,900,626,192,-172,-46,-48,261,3821,52,51,846,1757,1899,2087,2246,2122,1860,1903,2051
295123,20204,-12292,21239,-11529,1066,522,193,-171,-36,21,163,3954,46,52,845,1757,1899,2087,2246,2122,1860,1903,2051
296124,20276,-12240,21304,-11464,808,738,185,-177,-29,-67,206,3835,41,48,844,1757,1905,2095,2253,2127,1859,1903,2051
297125,20348,-12152,21369,-11399,800,261,188,-174,-30,-268,32,3916,51,45,845,1757,1905,2095,2253,2127,1859,1903,2051
298126,20408,-12104,21434,-11334,956,781,170,-172,-19,-298,43,3879,43,52,847,1757,1905,2095,2253,2127,1859,1903,2051
299127,20460,-12040,21499,-11269,1073,583,175,-160,-7,-54,164,3785,51,40,843,1757,1905,2095,2253,2127,1859,1903,2051
300128,20532,-11988,21564,-11204,814,750,157,-156,10,-248,25,3843,34,51,843,1757,1905,2095,2253,2127,1859,1903,2051
301129,20588,-11908,21629,-11139,1026,381,156,-160,21,-259,110,3835,52,38,845,1763,1914,2102,2259,2116,1854,1897,2042
302130,20644,-11848,21694,-11074,1037,637,140,-160,27,-26,213,3926,35,38,845,1763,1914,2102,2259,2116,1854,1897,2042
303131,20708,-11784,21759,-11009,938,589,127,-163,26,-79,126,3811,52,46,843,1763,1914,2102,2259,2116,1854,1897,2042
304132,20760,-11736,21824,-10944,1105,810,109,-152,23,-165,149,3980,39,50,844,1763,1914,2102,2259,2116,1854,1897,2042
305133,20824,-11668,21889,-10879,957,557,101,-140,13,-70,233,4032,41,35,842,1763,1914,2102,2259,2116,1854,1897,2042
306134,20876,-11620,21954,-10814,1123,827,102,-140,7,12,222,4014,46,42,844,1763,1914,2102,2259,2116,1854,1897,2042
307135,20936,-11552,22019,-10749,1030,575,102,-158,1,94,234,4002,34,38,842,1763,1907,2098,2255,2116,1855,1896,2042
308136,21000,-11492,22084,-10684,981,681,110,-153,-7,8,221,4058,54,52,843,1763,1907,2098,2255,2116,1855,1896,2042
309137,21048,-11436,22149,-10619,1202,742,120,-146,-28,-136,196,3943,51,38,843,1763,1907,2098,2255,2116,1855,1896,2042
310138,21096,-11364,22214,-10554,1223,534,127,-153,-37,9,298,3950,49,40,842,1763,1907,2098,2255,2116,1855,1896,2042
311139,21168,-11304,22279,-10489,916,690,140,-155,-39,97,264,3906,49,43,842,1763,1907,2098,2255,2116,1855,1896,2042
312140,21220,-11252,22344,-10424,1182,806,139,-157,-36,97,256,4043,47,45,844,1757,1899,2089,2251,2114,1856,1897,2038
313141,21292,-11188,22409,-10359,923,657,145,-146,-25,-12,264,3956,53,43,841,1757,1899,2089,2251,2114,1856,1897,2038
314142,21344,-11120,22474,-10294,1190,605,140,-141,-24,-123,320,3991,42,46,844,1757,1899,2089,2251,2114,1856,1897,2038
315143,21388,-11064,22539,-10229,1316,766,139,-137,-18,-221,293,4014,44,51,842,1757,1899,2089,2251,2114,1856,1897,2038
316144,21448,-11020,22604,-10164,1123,941,128,-120,-3,-87,406,4028,47,42,840,1757,1899,2089,2251,2114,1856,1897,2038
317145,21500,-10948,22669,-10099,1239,584,126,-121,8,-109,238,3843,50,48,841,1757,1899,2089,2251,2114,1856,1897,2038
318146,21564,-10880,22734,-10034,1091,630,124,-141,18,-217,209,3885,44,52,842,1767,1914,2106,2271,2116,1858,1900,2041
319147,21632,-10828,22799,-9969,1037,846,127,-145,21,-172,238,4012,60,38,843,1767,1914,2106,2271,2116,1858,1900,2041
320148,21704,-10768,22864,-9904,979,753,117,-129,21,-29,230,3905,53,50,842,1767,1914,2106,2271,2116,1858,1900,2041
321149,21776,-10696,22929,-9839,971,595,118,-117,21,-46,183,3890,56,36,843,1767,1914,2106,2271,2116,1858,1900,2041
322150,21848,-10636,22994,-9774,962,751,111,-103,27,-80,165,3820,43,46,844,1767,1914,2106,2271,2116,1858,1900,2041
323151,21916,-10584,23059,-9709,1010,868,117,-90,30,-59,223,4036,51,35,843,1772,1919,2110,2267,2116,1854,1897,2041
324152,21968,-10524,23124,-9644,1226,774,116,-73,27,-8,148,3862,38,48,842,1772,1919,2110,2267,2116,1854,1897,2041
325153,22044,-10448,23189,-9579,913,560,125,-51,9,66,153,4018,41,43,840,1772,1919,2110,2267,2116,1854,1897,2041
326154,22104,-10392,23254,-9514,1119,822,124,-46,11,-48,161,3977,50,45,843,1772,1919,2110,2267,2116,1854,1897,2041
327155,22156,-10336,23319,-9449,1236,833,129,-46,15,-68,156,3971,44,39,841,1772,1919,2110,2267,2116,1854,1897,2041
328156,22224,-10288,23384,-9384,1033,954,128,-56,13,-10,285,3936,38,49,841,1772,1919,2110,2267,2116,1854,1897,2041
329157,22280,-10228,23449,-9319,1194,811,125,-55,13,-61,239,4027,52,36,841,1768,1914,2104,2260,2110,1849,1892,2034
330158,22336,-10164,23514,-9254,1205,762,119,-59,17,-42,251,4065,54,48,841,1768,1914,2104,2260,2110,1849,1892,2034
331159,22388,-10108,23579,-9189,1271,873,114,-50,21,-39,344,4101,53,36,841,1768,1914,2104,2260,2110,1849,1892,2034
332160,22452,-10044,23644,-9124,1124,776,119,-52,17,-18,310,4024,50,49,839,1768,1914,2104,2260,2110,1849,1892,2034
333161,22512,-9984,23709,-9059,1180,832,113,-53,25,-14,233,4119,40,51,842,1768,1914,2104,2260,2110,1849,1892,2034
334162,22564,-9932,23774,-8994,1297,948,115,-54,29,18,303,4035,43,47,841,1761,1905,2096,2255,2113,1854,1899,2042
335163,22616,-9880,23839,-8929,1312,964,111,-39,33,50,337,4116,50,48,839,1761,1905,2096,2255,2113,1854,1899,2042
336164,22684,-9828,23904,-8864,1110,980,118,-20,33,157,331,4059,44,46,839,1761,1905,2096,2255,2113,1854,1899,2042
337165,22736,-9760,23969,-8799,1326,777,122,-7,24,82,369,3976,53,46,841,1761,1905,2096,2255,2113,1854,1899,2042
338166,22800,-9700,24034,-8734,1178,884,123,-27,42,-289,104,3671,60,52,840,1761,1905,2096,2255,2113,1854,1899,2042
339167,22856,-9632,24099,-8669,1289,780,118,-18,38,-151,524,4180,44,51,840,1761,1905,2096,2255,2113,1854,1899,2042
340168,22924,-9592,24164,-8604,1135,1162,138,21,23,210,475,4082,53,39,840,1765,1912,2106,2264,2125,1865,1907,2052
341169,23004,-9536,24229,-8539,968,973,132,34,44,-85,227,3760,51,35,838,1765,1912,2106,2264,2125,1865,1907,2052
342170,23076,-9500,24294,-8474,1059,1258,138,37,60,-501,298,4026,62,42,841,1765,1912,2106,2264,2125,1865,1907,2052
343171,23140,-9424,24359,-8409,1162,746,159,61,63,-631,263,3967,42,33,837,1765,1912,2106,2264,2125,1865,1907,2052
344172,23208,-9368,24424,-8344,1108,1007,167,56,72,-202,205,3950,51,46,841,1765,1912,2106,2264,2125,1865,1907,2052
345173,23272,-9308,24489,-8279,1160,963,169,52,73,-197,430,3730,50,39,840,1770,1920,2118,2273,2120,1859,1899,2038
346174,23336,-9256,24554,-8214,1161,1079,154,3,66,-472,421,3665,51,40,839,1770,1920,2118,2273,2120,1859,1899,2038
347175,23400,-9188,24619,-8149,1164,876,133,-25,55,-358,276,3754,39,36,839,1770,1920,2118,2273,2120,1859,1899,2038
348176,23472,-9156,24684,-8084,1055,1367,113,-47,50,-304,293,3595,55,46,840,1770,1920,2118,2273,2120,1859,1899,2038
349177,23524,-9088,24749,-8019,1322,913,84,-66,51,61,401,3799,39,46,837,1770,1920,2118,2273,2120,1859,1899,2038
350178,23576,-9040,24814,-7954,1338,1184,60,-22,42,83,369,3822,58,45,839,1770,1920,2118,2273,2120,1859,1899,2038
351179,23640,-8980,24879,-7889,1190,1041,43,43,17,41,505,4093,41,43,837,1772,1912,2108,2258,2093,1835,1884,2032
352180,23700,-8900,24944,-7824,1246,773,47,104,17,1,352,4223,43,41,839,1772,1912,2108,2258,2093,1835,1884,2032
353181,23764,-8868,25009,-7759,1198,1414,52,130,14,104,289,4089,41,35,840,1772,1912,2108,2258,2093,1835,1884,2032
354182,23816,-8800,25074,-7694,1364,961,81,137,-4,130,514,4318,53,33,836,1772,1912,2108,2258,2093,1835,1884,2032
355183,23868,-8760,25139,-7629,1380,1342,93,155,-17,155,452,4190,57,35,838,1772,1912,2108,2258,2093,1835,1884,2032
356184,23948,-8696,25204,-7564,1013,1043,100,146,-20,-73,467,4057,45,41,835,1743,1888,2080,2230,2107,1847,1892,2038
357185,24012,-8648,25269,-7499,1214,1264,104,111,-18,-566,526,3877,65,45,840,1743,1888,2080,2230,2107,1847,1892,2038
358186,24080,-8580,25334,-7434,1161,1011,101,38,-14,-597,382,4023,58,49,837,1743,1888,2080,2230,2107,1847,1892,2038
359187,24140,-8536,25399,-7369,1267,1337,101,8,-7,-337,375,3691,52,38,838,1743,1888,2080,2230,2107,1847,1892,2038
360188,24192,-8472,25464,-7304,1384,1089,100,-44,-2,-368,518,3599,52,48,835,1743,1888,2080,2230,2107,1847,1892,2038
361189,24276,-8416,25529,-7239,961,1200,100,-43,-5,-460,471,4000,55,49,837,1743,1888,2080,2230,2107,1847,1892,2038
362190,24360,-8384,25594,-7174,939,1542,117,-54,-14,132,344,3518,52,50,839,1749,1902,2097,2251,2125,1862,1908,2057
363191,24436,-8308,25659,-7109,1025,978,113,-63,-11,-122,350,3829,57,39,837,1749,1902,2097,2251,2125,1862,1908,2057
364192,24504,-8244,25724,-7044,1123,1130,109,-20,-18,-228,448,3990,44,41,841,1749,1902,2097,2251,2125,1862,1908,2057
365193,24552,-8192,25789,-6979,1394,1296,104,35,-15,-254,348,3872,55,38,839,1749,1902,2097,2251,2125,1862,1908,2057
366194,24640,-8128,25854,-6914,866,1147,106,49,-21,94,510,3877,45,44,835,1749,1902,2097,2251,2125,1862,1908,2057
367195,24692,-8076,25919,-6849,1332,1314,95,10,-34,40,507,3549,45,52,840,1770,1925,2113,2267,2116,1849,1898,2042
368196,24748,-8028,25984,-6784,1294,1385,99,-16,-87,365,776,3653,36,46,835,1770,1925,2113,2267,2116,1849,1898,2042
369197,24812,-7976,26049,-6719,1196,1352,100,-19,-141,105,706,3773,47,46,835,1770,1925,2113,2267,2116,1849,1898,2042
370198,24872,-7920,26114,-6654,1253,1313,105,-26,-175,94,556,3842,44,52,836,1770,1925,2113,2267,2116,1849,1898,2042
371199,24936,-7844,26179,-6589,1204,1050,97,-47,-193,243,410,4017,42,49,836,1770,1925,2113,2267,2116,1849,1898,2042
372200,25000,-7784,26244,-6524,1205,1257,112,-81,-211,33,478,3907,43,37,839,1770,1925,2113,2267,2116,1849,1898,2042
373201,25048,-7740,26309,-6459,1427,1483,94,-98,-204,-287,225,4061,44,33,836,1770,1916,2106,2256,2090,1830,1875,2019
374202,25120,-7696,26374,-6394,1118,1509,93,-81,-208,190,331,4111,52,44,833,1770,1916,2106,2256,2090,1830,1875,2019
375203,25184,-7636,26439,-6329,1220,1316,94,-67,-212,223,363,3918,59,48,836,1770,1916,2106,2256,2090,1830,1875,2019
376204,25244,-7576,26504,-6264,1277,1322,103,-69,-204,-31,338,4144,58,39,836,1770,1916,2106,2256,2090,1830,1875,2019
377205,25304,-7512,26569,-6199,1284,1274,118,-49,-215,103,570,4237,60,40,835,1770,1916,2106,2256,2090,1830,1875,2019
378206,25348,-7476,26634,-6134,1509,1660,143,-45,-215,100,242,3831,46,49,836,1756,1906,2097,2248,2086,1831,1879,2023
379207,25416,-7400,26699,-6069,1207,1147,162,-73,-225,745,451,4395,47,45,831,1756,1906,2097,2248,2086,1831,1879,2023
380208,25472,-7356,26764,-6004,1368,1573,177,-70,-223,404,477,4004,50,43,837,1756,1906,2097,2248,2086,1831,1879,2023
381209,25536,-7304,26829,-5939,1270,1490,180,-78,-211,-149,404,3842,44,50,833,1756,1906,2097,2248,2086,1831,1879,2023
382210,25624,-7232,26894,-5874,942,1231,190,-87,-227,-188,538,4046,60,39,835,1756,1906,2097,2248,2086,1831,1879,2023
383211,25696,-7188,26959,-5809,1134,1608,202,-82,-238,84,650,4061,54,37,839,1756,1906,2097,2248,2086,1831,1879,2023
384212,25764,-7100,27024,-5744,1181,1030,234,-46,-267,228,716,4179,52,38,834,1766,1918,2114,2274,2118,1855,1904,2045
385213,25824,-7036,27089,-5679,1288,1332,234,-10,-288,-203,654,4093,52,46,839,1766,1918,2114,2274,2118,1855,1904,2045
386214,25880,-6988,27154,-5614,1349,1553,260,22,-311,36,627,4117,51,45,836,1766,1918,2114,2274,2118,1855,1904,2045
387215,25948,-6920,27219,-5549,1196,1300,265,38,-318,132,521,3908,54,39,833,1766,1918,2114,2274,2118,1855,1904,2045
388216,25996,-6860,27284,-5484,1467,1406,270,43,-327,-272,526,3896,59,40,837,1766,1918,2114,2274,2118,1855,1904,2045
389217,26072,-6792,27349,-5419,1104,1304,266,61,-352,-224,686,4093,49,38,833,1776,1923,2119,2303,2116,1856,1903,2036
390218,26128,-6732,27414,-5354,1365,1410,271,56,-384,202,674,4101,60,55,837,1776,1923,2119,2303,2116,1856,1903,2036
391219,26208,-6668,27479,-5289,1048,1362,285,-10,-400,487,599,4016,56,50,835,1776,1923,2119,2303,2116,1856,1903,2036
392220,26256,-6612,27544,-5224,1469,1473,297,-63,-416,186,624,3933,53,42,837,1776,1923,2119,2303,2116,1856,1903,2036
393221,26340,-6552,27609,-5159,997,1430,309,-90,-414,-265,478,4035,61,37,834,1776,1923,2119,2303,2116,1856,1903,2036
394223,26404,-6500,27674,-5094,1248,1546,320,-77,-409,137,416,4228,55,51,836,1776,1923,2119,2303,2116,1856,1903,2036
395223,26472,-6432,27739,-5029,1195,1343,327,-42,-414,350,398,4198,61,43,834,1796,1939,2139,2299,2103,1843,1888,2031
396224,26544,-6372,27804,-4964,1137,1450,346,8,-420,253,384,4314,51,41,836,1796,1939,2139,2299,2103,1843,1888,2031
397225,26600,-6340,27869,-4899,1349,1841,360,44,-413,246,295,4331,65,40,835,1796,1939,2139,2299,2103,1843,1888,2031
398226,26656,-6272,27934,-4834,1360,1388,378,75,-410,468,334,4206,50,48,830,1796,1939,2139,2299,2103,1843,1888,2031
399227,26708,-6220,27999,-4769,1425,1604,390,78,-408,783,498,4485,67,47,835,1796,1939,2139,2299,2103,1843,1888,2031
400228,26768,-6172,28064,-4704,1333,1675,398,108,-412,624,614,4476,50,41,832,1786,1933,2128,2278,2092,1830,1880,2028
401229,26844,-6120,28129,-4639,1119,1641,406,124,-414,-83,625,4241,69,41,832,1786,1933,2128,2278,2092,1830,1880,2028
402230,26940,-6064,28194,-4574,832,1603,417,120,-422,-273,732,4339,65,43,834,1786,1933,2128,2278,2092,1830,1880,2028
403231,27020,-6012,28259,-4509,1014,1669,421,114,-431,37,844,4515,47,42,836,1786,1933,2128,2278,2092,1830,1880,2028
404232,27112,-5980,28324,-4444,832,1961,441,156,-453,29,879,4333,45,35,834,1786,1933,2128,2278,2092,1830,1880,2028
405233,27180,-5936,28389,-4379,1128,1837,446,175,-481,-502,796,4269,39,27,833,1786,1933,2128,2278,2092,1830,1880,2028
406234,27228,-5900,28454,-4314,1400,1973,450,201,-491,-541,754,4440,52,22,831,1777,1928,2122,2279,2107,1843,1896,2040
407235,27304,-5856,28519,-4249,1037,1899,441,209,-479,-414,530,4248,46,25,829,1777,1928,2122,2279,2107,1843,1896,2040
408236,27356,-5820,28584,-4184,1354,2035,437,228,-475,-475,626,4181,54,28,832,1777,1928,2122,2279,2107,1843,1896,2040
409237,27404,-5776,28649,-4119,1424,1961,419,203,-483,-424,638,4091,44,38,828,1777,1928,2122,2279,2107,1843,1896,2040
410238,27484,-5736,28714,-4054,1007,2043,416,134,-500,-72,712,3966,64,39,828,1777,1928,2122,2279,2107,1843,1896,2040
411239,27576,-5684,28779,-3989,824,1909,414,18,-495,317,661,3758,65,37,830,1787,1939,2139,2303,2140,1874,1919,2068
412240,27636,-5640,28844,-3924,1231,2035,428,-21,-491,-33,572,3876,46,26,833,1787,1939,2139,2303,2140,1874,1919,2068
413241,27700,-5600,28909,-3859,1182,2117,454,-36,-490,-689,631,3771,46,27,829,1787,1939,2139,2303,2140,1874,1919,2068
414242,27764,-5552,28974,-3794,1184,2037,465,-19,-510,171,541,4411,53,32,829,1787,1939,2139,2303,2140,1874,1919,2068
415243,27832,-5496,29039,-3729,1131,1949,498,49,-505,703,387,3980,65,35,830,1787,1939,2139,2303,2140,1874,1919,2068
416244,27880,-5424,29104,-3664,1402,1742,507,47,-494,104,483,3835,53,50,832,1787,1939,2139,2303,2140,1874,1919,2068
417245,27936,-5348,29169,-3599,1314,1679,529,64,-497,-130,336,4485,53,48,831,1784,1936,2138,2281,2148,1870,1914,2069
418246,28004,-5296,29234,-3534,1160,1995,529,34,-496,760,396,4032,68,42,833,1784,1936,2138,2281,2148,1870,1914,2069
419247,28060,-5228,29299,-3469,1322,1793,544,46,-489,846,538,4587,51,42,831,1784,1936,2138,2281,2148,1870,1914,2069
420248,28168,-5160,29364,-3404,619,1789,543,70,-500,9,656,4151,68,41,832,1784,1936,2138,2281,2148,1870,1914,2069
421249,28248,-5104,29429,-3339,952,1951,532,56,-501,-493,548,4464,54,54,837,1784,1936,2138,2281,2148,1870,1914,2069
422250,28348,-5016,29494,-3274,659,1524,527,109,-516,-46,783,4664,59,51,833,1771,1925,2113,2247,2101,1825,1881,2029
423251,28432,-4960,29559,-3209,837,1935,510,135,-551,-71,941,4278,45,44,839,1771,1925,2113,2247,2101,1825,1881,2029
424252,28504,-4892,29624,-3144,979,1782,497,158,-562,-394,803,4736,47,39,833,1771,1925,2113,2247,2101,1825,1881,2029
425253,28568,-4828,29689,-3079,1080,1835,474,160,-571,-705,614,4119,43,54,834,1771,1925,2113,2247,2101,1825,1881,2029
426254,28644,-4744,29754,-3014,917,1561,461,136,-557,-1253,701,4335,41,49,833,1771,1925,2113,2247,2101,1825,1881,2029
427255,28696,-4688,29819,-2949,1233,1923,429,77,-539,-649,764,4373,44,52,838,1771,1925,2113,2247,2101,1825,1881,2029
428256,28760,-4616,29884,-2884,1086,1716,413,-25,-530,-46,691,3901,38,51,830,1767,1926,2115,2267,2102,1835,1898,2048
429257,28832,-4548,29949,-2819,977,1762,402,-115,-498,-615,642,4053,46,49,834,1767,1926,2115,2267,2102,1835,1898,2048
430258,28892,-4484,30014,-2754,1134,1814,416,-171,-491,-1305,592,3610,59,36,834,1767,1926,2115,2267,2102,1835,1898,2048
431259,28968,-4432,30079,-2689,921,1981,425,-225,-481,-782,501,3863,46,33,833,1767,1926,2115,2267,2102,1835,1898,2048
432260,29036,-4372,30144,-2624,1017,1887,444,-217,-465,237,408,3851,65,35,833,1767,1926,2115,2267,2102,1835,1898,2048
433261,29112,-4304,30209,-2559,905,1785,453,-200,-452,25,497,3697,64,44,833,1782,1939,2145,2290,2157,1879,1928,2090
434262,29200,-4252,30274,-2494,727,2001,471,-177,-441,-431,470,3941,47,39,834,1782,1939,2145,2290,2157,1879,1928,2090
435263,29240,-4196,30339,-2429,1358,1962,497,-179,-439,166,591,3689,57,32,833,1782,1939,2145,2290,2157,1879,1928,2090
436264,29296,-4152,30404,-2364,1169,2139,528,-207,-448,586,542,3725,44,35,830,1782,1939,2145,2290,2157,1879,1928,2090
437265,29388,-4096,30469,-2299,687,2001,534,-239,-436,501,621,3924,64,38,829,1782,1939,2145,2290,2157,1879,1928,2090
438266,29488,-4024,30534,-2234,544,1793,522,-235,-425,174,644,3947,48,42,834,1782,1939,2145,2290,2157,1879,1928,2090
439267,29580,-3980,30599,-2169,611,2169,510,-195,-420,-175,765,4079,55,37,837,1782,1933,2136,2269,2139,1854,1902,2053
440268,29636,-3912,30664,-2104,1073,1867,498,-166,-435,-586,825,4381,44,32,833,1782,1933,2136,2269,2139,1854,1902,2053
441269,29712,-3824,30729,-2039,810,1588,484,-146,-447,-595,965,4375,36,31,832,1782,1933,2136,2269,2139,1854,1902,2053
442270,29772,-3792,30794,-1974,1016,2330,465,-165,-449,-318,878,4188,39,49,837,1782,1933,2136,2269,2139,1854,1902,2053
443271,29832,-3728,30859,-1909,1023,1932,443,-221,-445,-495,978,4272,46,35,828,1782,1933,2136,2269,2139,1854,1902,2053
444272,29904,-3668,30924,-1844,865,1988,429,-300,-444,-903,988,4213,42,46,832,1763,1909,2101,2240,2087,1812,1867,2013
445273,29960,-3612,30989,-1779,1077,2050,412,-416,-437,-847,865,4240,47,50,832,1763,1909,2101,2240,2087,1812,1867,2013
446274,30040,-3536,31054,-1714,758,1788,398,-490,-419,-466,696,4295,52,40,831,1763,1909,2101,2240,2087,1812,1867,2013
447275,30116,-3484,31119,-1649,795,2103,388,-513,-392,-833,499,3958,62,38,835,1763,1909,2101,2240,2087,1812,1867,2013
448276,30172,-3416,31184,-1584,1057,1901,389,-534,-362,-1128,491,4037,48,48,832,1763,1909,2101,2240,2087,1812,1867,2013
449277,30244,-3372,31249,-1519,848,2227,395,-602,-328,-796,559,3939,44,35,833,1763,1909,2101,2240,2087,1812,1867,2013
450278,30312,-3312,31314,-1454,896,2035,406,-659,-275,-378,475,4013,46,47,831,1751,1909,2112,2247,2112,1837,1893,2059
451279,30392,-3232,31379,-1389,727,1766,432,-700,-227,-602,603,3849,59,41,831,1751,1909,2112,2247,2112,1837,1893,2059
452280,30456,-3192,31578,-1190,1779,3148,447,-719,-191,-586,637,3881,45,35,836,1751,1909,2112,2247,2112,1837,1893,2059
453281,30516,-3124,31643,-1125,1836,2796,464,-680,-157,-68,561,3934,45,37,813,1751,1909,2112,2247,2112,1837,1893,2059
454282,30592,-3044,31708,-1060,1623,2627,473,-639,-139,153,658,3511,76,-14,817,1751,1909,2112,2247,2112,1837,1893,2059
455283,30676,-2952,31773,-995,1501,2445,471,-637,-101,-10,641,3653,71,46,821,1780,1943,2152,2275,2151,1863,1921,2088
456284,30764,-2860,31838,-930,1423,2413,481,-695,-68,47,849,3836,85,43,824,1780,1943,2152,2275,2151,1863,1921,2088
457285,30864,-2752,31903,-865,1230,2162,483,-740,-66,32,1005,3849,77,63,825,1780,1943,2152,2275,2151,1863,1921,2088
458286,30996,-2664,31968,-800,749,2384,489,-773,-83,-290,1089,3824,97,55,829,1780,1943,2152,2275,2151,1863,1921,2088
459287,31132,-2556,32033,-735,612,2082,476,-780,-51,-816,995,4250,97,63,830,1780,1943,2152,2275,2151,1863,1921,2088
460288,31248,-2436,32098,-670,801,1866,466,-774,-37,-681,974,4129,82,63,834,1780,1943,2152,2275,2151,1863,1921,2088
461289,31360,-2336,32163,-605,794,2074,466,-859,-43,-1309,1137,4073,77,57,836,1800,1949,2150,2280,2121,1834,1891,2039
462290,31496,-2244,32228,-540,407,2142,461,-995,-64,-499,961,4622,82,70,832,1800,1949,2150,2280,2121,1834,1891,2039
463291,31596,-2144,32293,-475,814,2000,461,-1080,-88,660,1210,4374,91,57,834,1800,1949,2150,2280,2121,1834,1891,2039
464292,31700,-2048,32358,-410,718,2012,471,-1125,-88,-975,1335,4105,77,49,834,1800,1949,2150,2280,2121,1834,1891,2039
465293,31812,-1956,32423,-345,560,2030,483,-1164,-97,-1214,1188,4365,74,57,834,1800,1949,2150,2280,2121,1834,1891,2039
466294,31892,-1864,32488,-280,942,1998,493,-1168,-100,142,1197,4544,68,62,835,1782,1930,2137,2267,2097,1821,1877,2030
467295,32004,-1768,32553,-215,485,1910,529,-1141,-66,248,1181,4335,84,56,833,1782,1930,2137,2267,2097,1821,1877,2030
468296,32112,-1692,32618,-150,483,2148,572,-1139,-5,-348,858,4470,82,53,835,1782,1930,2137,2267,2097,1821,1877,2030
469297,32200,-1620,32683,-85,705,2189,592,-1140,41,-91,952,4344,66,40,833,1782,1930,2137,2267,2097,1821,1877,2030
470298,32324,-1556,32748,-20,183,2292,612,-1117,104,-700,960,4129,74,48,832,1782,1930,2137,2267,2097,1821,1877,2030
471299,32412,-1464,32813,45,605,1910,623,-1073,190,-1568,784,4232,60,46,833,1782,1930,2137,2267,2097,1821,1877,2030
472300,32492,-1404,32878,110,687,2316,622,-1022,254,-1157,958,4336,64,40,835,1790,1948,2168,2294,2097,1830,1884,2037
473301,32596,-1344,32943,175,339,2323,630,-978,286,-91,1258,4141,56,31,831,1790,1948,2168,2294,2097,1830,1884,2037
474302,32664,-1280,33008,240,786,2274,611,-989,313,379,1096,3808,57,42,832,1790,1948,2168,2294,2097,1830,1884,2037
475303,32748,-1212,33073,305,563,2221,605,-1052,355,-751,1273,3714,63,34,831,1790,1948,2168,2294,2097,1830,1884,2037
476304,32816,-1140,33138,370,760,2163,578,-1122,345,-1319,1652,3566,59,41,832,1790,1948,2168,2294,2097,1830,1884,2037
477305,32904,-1072,33203,435,481,2210,544,-1138,328,-712,1361,3658,52,46,832,1816,1967,2196,2329,2108,1843,1887,2029
478306,32972,-1016,33268,500,728,2372,538,-1094,336,486,1462,4045,59,38,833,1816,1967,2196,2329,2108,1843,1887,2029
479307,33048,-944,33333,565,614,2164,524,-1083,343,-422,1234,3256,53,40,829,1816,1967,2196,2329,2108,1843,1887,2029
480308,33132,-864,33398,630,491,2046,513,-1128,328,-782,1426,4150,51,40,833,1816,1967,2196,2329,2108,1843,1887,2029
481309,33200,-788,33463,695,688,2083,506,-1132,320,-503,1258,4020,65,40,835,1816,1967,2196,2329,2108,1843,1887,2029
482310,33280,-700,33528,760,519,1906,550,-1103,308,144,1334,3810,48,49,833,1816,1967,2196,2329,2108,1843,1887,2029
483311,33352,-624,33593,825,612,2042,589,-1140,337,124,991,4019,43,44,835,1791,1928,2160,2272,2124,1852,1884,2040
484312,33440,-556,33658,890,384,2140,616,-1163,349,243,1175,4131,40,41,834,1791,1928,2160,2272,2124,1852,1884,2040
485313,33524,-468,33723,955,410,1863,634,-1155,354,-533,1287,3976,45,54,834,1791,1928,2160,2272,2124,1852,1884,2040
486314,33588,-380,33788,1020,662,1834,642,-1092,380,-770,1231,4417,51,43,837,1791,1928,2160,2272,2124,1852,1884,2040
487315,33648,-288,33853,1085,718,1753,646,-1053,415,-432,1394,4119,48,51,836,1791,1928,2160,2272,2124,1852,1884,2040
488316,33716,-220,33918,1150,614,2049,649,-1014,464,-208,1370,4092,52,51,836,1730,1876,2109,2208,2113,1833,1874,2031
489317,33792,-136,33983,1215,501,1827,621,-996,501,-89,1226,3915,53,41,834,1730,1876,2109,2208,2113,1833,1874,2031
490318,33848,-56,34048,1280,762,1858,567,-1025,537,-629,1288,3638,42,53,837,1730,1876,2109,2208,2113,1833,1874,2031
491319,33904,16,34113,1345,773,1951,503,-1029,576,-541,1486,3824,54,39,835,1730,1876,2109,2208,2113,1833,1874,2031
492320,33972,92,34178,1410,619,1887,446,-1036,628,-487,1125,3508,48,42,834,1730,1876,2109,2208,2113,1833,1874,2031
493321,34036,176,34243,1475,670,1765,398,-1053,673,-520,1141,3208,62,52,836,1730,1876,2109,2208,2113,1833,1874,2031
494322,34108,240,34308,1540,562,2016,358,-1096,724,-713,1230,3514,57,47,836,1734,1894,2128,2226,2120,1840,1890,2056
495323,34172,316,34373,1605,663,1854,321,-1104,764,-400,1107,3374,45,48,835,1734,1894,2128,2226,2120,1840,1890,2056
496324,34216,408,34438,1670,939,1621,301,-1107,796,-391,1014,3280,60,56,834,1734,1894,2128,2226,2120,1840,1890,2056
497325,34316,488,34503,1735,197,1754,287,-1123,828,-399,1090,3595,44,47,836,1734,1894,2128,2226,2120,1840,1890,2056
498326,34396,568,34568,1800,428,1735,281,-1143,855,-150,926,3459,51,48,839,1734,1894,2128,2226,2120,1840,1890,2056
499327,34472,648,34633,1865,465,1718,268,-1160,862,-63,897,3629,45,52,838,1735,1896,2142,2218,2162,1873,1911,2086
500328,34532,736,34698,1930,671,1590,260,-1168,866,-46,882,3606,46,46,839,1735,1896,2142,2218,2162,1873,1911,2086
501329,34608,812,34763,1995,458,1727,250,-1153,862,-145,1050,3912,54,57,838,1735,1896,2142,2218,2162,1873,1911,2086
502330,34696,920,34828,2060,280,1275,231,-1143,854,-54,875,3591,56,59,838,1735,1896,2142,2218,2162,1873,1911,2086
503331,34764,1008,34893,2125,526,1497,196,-1127,866,-1,854,3819,44,46,843,1735,1896,2142,2218,2162,1873,1911,2086
504332,34828,1080,34958,2190,577,1689,156,-1120,886,42,1156,3577,41,53,839,1735,1896,2142,2218,2162,1873,1911,2086
505333,34904,1156,35023,2255,414,1626,113,-1143,911,45,968,3516,49,43,838,1722,1880,2132,2202,2160,1868,1904,2068
506334,34984,1256,35088,2320,345,1284,72,-1189,920,-228,961,3505,48,57,839,1722,1880,2132,2202,2160,1868,1904,2068
507335,35072,1316,35153,2385,217,1790,37,-1200,941,-327,930,3498,57,54,843,1722,1880,2132,2202,2160,1868,1904,2068
508336,35128,1424,35218,2450,628,1138,-8,-1192,981,-466,1095,3868,57,46,839,1722,1880,2132,2202,2160,1868,1904,2068
509337,35216,1480,35283,2515,200,1800,-80,-1171,1009,-293,1053,3416,48,45,842,1722,1880,2132,2202,2160,1868,1904,2068
510338,35272,1564,35348,2580,611,1427,-129,-1155,1058,13,1133,3520,43,54,838,1716,1873,2118,2201,2132,1853,1896,2050
511339,35344,1648,35413,2645,403,1405,-179,-1179,1097,-134,1038,3474,41,41,840,1716,1873,2118,2201,2132,1853,1896,2050
512340,35408,1736,35478,2710,504,1326,-214,-1171,1140,-318,1097,3952,43,53,841,1716,1873,2118,2201,2132,1853,1896,2050
513341,35480,1824,35543,2775,395,1298,-225,-1121,1191,75,891,3544,45,48,840,1716,1873,2118,2201,2132,1853,1896,2050
514342,35552,1896,35608,2840,387,1491,-233,-1113,1238,10,537,3601,42,53,843,1716,1873,2118,2201,2132,1853,1896,2050
515343,35624,1984,35673,2905,378,1263,-258,-1095,1288,-645,622,3785,41,52,841,1716,1873,2118,2201,2132,1853,1896,2050
516344,35700,2056,35738,2970,315,1454,-295,-1028,1335,-433,655,3589,41,44,843,1710,1874,2116,2200,2140,1864,1900,2056
517345,35760,2120,35803,3035,521,1556,-321,-969,1391,142,740,3478,41,46,841,1710,1874,2116,2200,2140,1864,1900,2056
518346,35832,2200,35868,3100,362,1338,-336,-958,1421,237,630,3504,40,48,839,1710,1874,2116,2200,2140,1864,1900,2056
519347,35892,2276,35933,3165,519,1375,-341,-936,1431,-54,576,3465,58,59,842,1710,1874,2116,2200,2140,1864,1900,2056
520348,35960,2360,35998,3230,415,1253,-348,-909,1435,-2,821,3200,41,51,841,1710,1874,2116,2200,2140,1864,1900,2056
521349,36036,2448,36063,3295,301,1174,-374,-892,1445,217,780,3246,52,51,843,1706,1872,2122,2208,2138,1860,1890,2037
522350,36104,2524,36128,3360,398,1311,-400,-880,1435,309,678,3328,46,52,844,1706,1872,2122,2208,2138,1860,1890,2037
523351,36168,2644,36193,3425,449,695,-432,-810,1471,111,604,3462,56,60,842,1706,1872,2122,2208,2138,1860,1890,2037
524352,36252,2720,36258,3490,176,1231,-456,-717,1495,557,936,3269,44,61,846,1706,1872,2122,2208,2138,1860,1890,2037
525353,36312,2824,36323,3555,482,834,-492,-675,1508,389,719,3100,54,51,844,1706,1872,2122,2208,2138,1860,1890,2037
526354,36360,2916,36388,3620,653,952,-518,-679,1517,287,704,3424,35,53,846,1723,1888,2130,2224,2106,1837,1872,2004
527355,36456,3012,36453,3685,15,864,-565,-606,1554,725,990,2964,41,54,844,1723,1888,2130,2224,2106,1837,1872,2004
528356,36516,3092,36518,3750,471,1046,-680,-428,1593,554,666,2974,56,48,847,1723,1888,2130,2224,2106,1837,1872,2004
529357,36588,3192,36583,3815,312,753,-868,-242,1585,-240,558,3091,41,45,844,1723,1888,2130,2224,2106,1837,1872,2004
530358,36648,3248,36648,3880,469,1315,-1051,-61,1607,-169,650,2802,52,59,847,1723,1888,2130,2224,2106,1837,1872,2004
531359,36720,3328,36713,3945,310,997,-1143,80,1662,198,394,3164,49,42,842,1723,1888,2130,2224,2106,1837,1872,2004
532360,36784,3416,36778,4010,411,869,-1112,38,1731,93,190,3079,48,46,845,1717,1879,2102,2202,2101,1845,1874,2010
533361,36856,3492,36843,4075,303,1005,-1006,-93,1760,-225,155,3369,35,59,846,1717,1879,2102,2202,2101,1845,1874,2010
534362,36920,3576,36908,4140,404,883,-902,-208,1745,-526,121,3443,44,61,846,1717,1879,2102,2202,2101,1845,1874,2010
535363,36992,3668,36973,4205,295,750,-822,-250,1733,-81,6,3372,38,61,846,1717,1879,2102,2202,2101,1845,1874,2010
536364,37052,3756,37038,4270,451,772,-781,-156,1757,669,41,3607,42,53,847,1717,1879,2102,2202,2101,1845,1874,2010
537365,37104,3844,37103,4335,567,744,-754,-93,1801,878,361,3393,41,59,846,1631,1810,2042,2139,2136,1866,1884,2020
538366,37176,3940,37168,4400,309,606,-760,-48,1846,541,433,3611,45,62,846,1631,1810,2042,2139,2136,1866,1884,2020
539367,37240,4040,37233,4465,410,513,-737,11,1865,939,763,3419,37,50,848,1631,1810,2042,2139,2136,1866,1884,2020
540368,37300,4120,37298,4530,466,746,-728,36,1864,1121,758,3003,38,62,847,1631,1810,2042,2139,2136,1866,1884,2020
541369,37364,4208,37363,4595,417,618,-753,17,1854,906,806,3167,51,56,846,1631,1810,2042,2139,2136,1866,1884,2020
542370,37416,4300,37428,4660,583,535,-804,14,1863,575,914,3016,44,49,847,1631,1810,2042,2139,2136,1866,1884,2020
543371,37468,4388,37493,4725,599,557,-869,41,1878,872,996,2848,52,54,847,1687,1884,2093,2212,2066,1806,1865,1987
544372,37552,4464,37558,4790,176,693,-931,81,1894,1123,936,2786,35,56,847,1687,1884,2093,2212,2066,1806,1865,1987
545373,37616,4556,37623,4855,427,460,-992,82,1914,1053,911,2744,40,49,848,1687,1884,2093,2212,2066,1806,1865,1987
546374,37680,4616,37688,4920,428,867,-1028,67,1925,933,751,2917,42,48,848,1687,1884,2093,2212,2066,1806,1865,1987
547375,37728,4704,37753,4985,649,490,-1032,47,1905,976,502,2764,54,57,844,1687,1884,2093,2212,2066,1806,1865,1987
548376,37808,4780,37818,5050,231,626,-1006,3,1889,901,421,3159,55,47,847,1787,1987,2170,2283,2031,1782,1850,1986
549377,37880,4856,37883,5115,322,613,-976,-57,1885,739,257,3164,52,48,848,1787,1987,2170,2283,2031,1782,1850,1986
550378,37948,4932,37948,5180,369,599,-931,-110,1870,713,131,3076,48,50,848,1787,1987,2170,2283,2031,1782,1850,1986
551379,38008,5016,38013,5245,475,476,-893,-156,1846,812,31,3302,46,51,848,1787,1987,2170,2283,2031,1782,1850,1986
552380,38072,5108,38078,5310,426,343,-832,-209,1814,908,41,3455,50,46,848,1787,1987,2170,2283,2031,1782,1850,1986
553381,38136,5192,38143,5375,427,420,-768,-258,1797,777,165,3388,49,56,849,1787,1987,2170,2283,2031,1782,1850,1986
554382,38196,5264,38208,5440,483,561,-694,-295,1762,1040,218,3571,53,46,849,1788,1994,2171,2259,2032,1773,1838,1976
555383,38272,5348,38273,5505,270,388,-649,-323,1724,1212,244,3518,53,50,848,1788,1994,2171,2259,2032,1773,1838,1976
556384,38332,5424,38338,5570,476,475,-597,-352,1699,1150,345,3688,46,51,850,1788,1994,2171,2259,2032,1773,1838,1976
557385,38404,5492,38403,5635,317,571,-575,-389,1690,1023,478,3553,51,48,848,1788,1994,2171,2259,2032,1773,1838,1976
558386,38460,5584,38468,5700,528,238,-542,-403,1664,1130,591,3531,43,46,848,1788,1994,2171,2259,2032,1773,1838,1976
559387,38528,5668,38533,5765,375,315,-531,-417,1661,1242,654,3509,51,52,849,1771,1977,2143,2255,2007,1766,1845,1960
560388,38600,5736,38598,5830,316,511,-509,-422,1665,1175,790,3619,44,49,849,1771,1977,2143,2255,2007,1766,1845,1960
561389,38660,5808,38663,5895,472,453,-508,-450,1641,1132,771,3512,51,53,849,1771,1977,2143,2255,2007,1766,1845,1960
562390,38724,5896,38728,5960,423,226,-492,-468,1614,1200,744,3411,37,44,848,1771,1977,2143,2255,2007,1766,1845,1960
563391,38800,5960,38793,6025,260,527,-488,-480,1605,1228,905,3525,55,44,850,1771,1977,2143,2255,2007,1766,1845,1960
564392,38864,6052,38858,6090,411,144,-466,-483,1600,1131,678,3419,57,54,848,1771,1977,2143,2255,2007,1766,1845,1960
565393,38932,6100,38923,6155,358,715,-442,-504,1570,1138,547,3566,46,49,850,1775,1977,2135,2269,2031,1805,1874,1983
566394,39008,6208,38988,6220,244,-88,-407,-517,1541,1111,328,3438,44,46,847,1775,1977,2135,2269,2031,1805,1874,1983
567395,39080,6280,39053,6285,286,354,-382,-515,1511,1242,420,3607,41,46,851,1775,1977,2135,2269,2031,1805,1874,1983
568396,39148,6400,39118,6350,332,-314,-335,-501,1473,1054,146,3593,54,48,850,1775,1977,2135,2269,2031,1805,1874,1983
569399,39220,6472,39183,6415,273,278,-282,-497,1437,994,180,3616,54,52,849,1775,1977,2135,2269,2031,1805,1874,1983
570398,39292,6556,39248,6480,265,105,-229,-470,1388,909,-51,3653,38,57,850,1756,1954,2136,2257,2079,1841,1881,2007
571399,39384,6636,39313,6545,-18,136,-187,-453,1331,885,-16,3775,56,48,851,1756,1954,2136,2257,2079,1841,1881,2007
572400,39448,6724,39378,6610,333,7,-139,-402,1274,873,-79,3870,44,49,851,1756,1954,2136,2257,2079,1841,1881,2007
573401,39516,6828,39443,6675,279,-240,-105,-347,1229,900,6,3751,50,51,851,1756,1954,2136,2257,2079,1841,1881,2007
574402,39596,6948,39508,6740,111,-507,-76,-286,1190,791,147,3811,39,55,850,1756,1954,2136,2257,2079,1841,1881,2007
575403,39688,7052,39573,6805,-72,-355,-62,-230,1153,723,130,3696,55,56,849,1756,1954,2136,2257,2079,1841,1881,2007
576404,39780,7136,39638,6870,-105,-128,-61,-195,1088,805,167,3558,43,38,850,1743,1946,2143,2257,2072,1827,1871,1990
577405,39876,7212,39703,6935,-193,-42,-90,-182,1035,511,-27,3620,38,51,847,1743,1946,2143,2257,2072,1827,1871,1990
578406,39976,7276,39768,7000,-285,110,-122,-121,1005,684,260,3727,56,49,843,1743,1946,2143,2257,2072,1827,1871,1990
579407,40096,7340,39833,7065,-603,111,-163,-34,985,783,291,3631,38,37,851,1743,1946,2143,2257,2072,1827,1871,1990
580408,40236,7420,39898,7130,-944,-108,-200,54,964,753,293,3664,53,42,851,1743,1946,2143,2257,2072,1827,1871,1990
581409,40312,7480,39963,7195,-158,149,-238,117,940,828,219,3625,52,36,848,1760,1958,2143,2246,2030,1822,1873,1985
582410,40420,7552,40028,7260,-611,-10,-264,151,886,727,702,3435,32,45,852,1760,1958,2143,2246,2030,1822,1873,1985
583411,40472,7628,40093,7325,105,-74,-280,203,817,406,649,3840,47,38,852,1760,1958,2143,2246,2030,1822,1873,1985
584412,40544,7672,40158,7390,-154,351,-277,237,767,774,570,3380,53,53,852,1760,1958,2143,2246,2030,1822,1873,1985
585413,40608,7760,40223,7455,-52,-227,-259,255,718,1058,425,3901,43,45,845,1760,1958,2143,2246,2030,1822,1873,1985
586414,40664,7824,40288,7520,59,74,-222,255,680,668,331,3544,54,44,851,1760,1958,2143,2246,2030,1822,1873,1985
587415,40756,7904,40353,7585,-424,-144,-174,236,658,380,46,3595,38,51,852,1729,1905,2105,2225,2093,1861,1887,2007
588416,40828,7972,40418,7650,-183,2,-137,233,648,537,-310,3609,40,43,851,1729,1905,2105,2225,2093,1861,1887,2007
589417,40892,8052,40483,7715,-83,-166,-94,250,634,385,-322,3696,44,51,844,1729,1905,2105,2225,2093,1861,1887,2007
590418,40960,8120,40548,7780,-136,-20,-66,266,613,421,-89,3730,36,51,849,1729,1905,2105,2225,2093,1861,1887,2007
591419,41032,8196,40613,7845,-195,-134,-31,302,582,726,-166,3634,37,46,846,1729,1905,2105,2225,2093,1861,1887,2007
592420,41100,8260,40678,7910,-149,17,-27,335,561,834,-180,3714,55,44,843,1705,1897,2099,2194,2080,1856,1894,2016
593421,41168,8328,40743,7975,-152,-36,-35,365,525,835,-36,3674,41,46,845,1705,1897,2099,2194,2080,1856,1894,2016
594422,41224,8400,40808,8040,9,-95,-50,407,497,616,-25,3722,45,48,845,1705,1897,2099,2194,2080,1856,1894,2016
595423,41288,8476,40873,8105,-91,-158,-84,476,478,478,110,3612,51,54,852,1705,1897,2099,2194,2080,1856,1894,2016
596424,41356,8556,40938,8170,-145,-227,-137,527,457,463,5,3662,38,43,849,1705,1897,2099,2194,2080,1856,1894,2016
597425,41424,8608,41003,8235,-148,139,-204,565,426,438,-77,3683,39,49,846,1705,1897,2099,2194,2080,1856,1894,2016
598426,41516,8664,41068,8300,-481,99,-268,567,405,91,-85,3590,37,43,844,1743,1939,2124,2244,2068,1828,1884,2006
599427,41572,8744,41133,8365,-20,-219,-325,554,392,2,-76,3810,47,54,851,1743,1939,2124,2244,2068,1828,1884,2006
600428,41632,8836,41198,8430,-64,-402,-361,524,374,-130,-18,3512,42,39,851,1743,1939,2124,2244,2068,1828,1884,2006
601429,41708,8884,41263,8495,-279,169,-374,454,343,-327,-123,3590,43,45,849,1743,1939,2124,2244,2068,1828,1884,2006
602430,41808,8948,41328,8560,-621,-30,-360,411,301,-455,-509,3910,39,43,851,1743,1939,2124,2244,2068,1828,1884,2006
603431,41880,9016,41393,8625,-280,-84,-340,385,284,-267,-515,3917,53,47,852,1856,1955,2135,2255,2107,1861,1914,2052
604432,41964,9092,41458,8690,-453,-197,-298,324,283,109,-365,3930,52,47,852,1856,1955,2135,2255,2107,1861,1914,2052
605433,42052,9168,41523,8755,-531,-212,-238,284,283,-293,-543,3838,41,46,851,1856,1955,2135,2255,2107,1861,1914,2052
606434,42132,9236,41588,8820,-450,-115,-196,290,283,-435,-772,4199,42,40,851,1856,1955,2135,2255,2107,1861,1914,2052
607435,42208,9300,41653,8885,-414,-64,-166,317,291,323,-600,4139,44,39,851,1856,1955,2135,2255,2107,1861,1914,2052
608436,42284,9372,41718,8950,-427,-173,-150,357,312,446,-529,4049,49,47,852,1856,1955,2135,2255,2107,1861,1914,2052
609437,42360,9444,41783,9015,-441,-181,-162,419,334,142,-488,4206,48,54,851,1754,1947,2137,2249,2128,1876,1929,2058
610438,42444,9516,41848,9080,-564,-190,-189,480,348,374,-289,4042,46,41,844,1754,1947,2137,2249,2128,1876,1929,2058
611439,42516,9596,41913,9145,-424,-309,-224,488,353,425,-243,3970,42,52,852,1754,1947,2137,2249,2128,1876,1929,2058
612440,42608,9648,41978,9210,-707,57,-258,399,349,242,-217,3591,62,55,851,1754,1947,2137,2249,2128,1876,1929,2058
613441,42692,9720,42043,9275,-630,-202,-289,264,336,-194,-250,3674,61,54,852,1754,1947,2137,2249,2128,1876,1929,2058
614442,42768,9792,42108,9340,-543,-210,-320,117,327,-454,-196,3771,56,46,848,1795,1951,2157,2297,2103,1868,1922,2037
615443,42860,9856,42173,9405,-777,-109,-340,1,319,-333,-362,3720,49,51,850,1795,1951,2157,2297,2103,1868,1922,2037
616444,42956,9956,42238,9470,-865,-602,-361,-47,320,-482,-601,4193,46,46,851,1795,1951,2157,2297,2103,1868,1922,2037
617445,43048,10024,42303,9535,-848,-206,-366,-75,350,-123,-664,4131,60,46,849,1795,1951,2157,2297,2103,1868,1922,2037
618446,43124,10080,42368,9600,-661,-45,-360,-88,369,-254,-978,4373,58,37,850,1795,1951,2157,2297,2103,1868,1922,2037
619448,43216,10148,42433,9665,-895,-199,-365,-103,377,-360,-1006,4255,63,38,852,1795,1951,2157,2297,2103,1868,1922,2037
620448,43324,10220,42498,9730,-1148,-258,-368,-91,392,166,-1069,4609,51,50,851,1800,1976,2164,2296,2108,1866,1916,2052
621449,43420,10272,42563,9795,-1036,8,-352,-100,420,452,-966,3954,59,35,851,1800,1976,2164,2296,2108,1866,1916,2052
622450,43520,10348,42628,9860,-1129,-306,-325,-98,406,-114,-938,4158,65,37,851,1800,1976,2164,2296,2108,1866,1916,2052
623451,43608,10396,42693,9925,-1007,65,-308,-100,381,-603,-877,3925,68,50,851,1800,1976,2164,2296,2108,1866,1916,2052
624452,43724,10476,42758,9990,-1420,-354,-250,-194,368,190,-628,3579,71,49,852,1800,1976,2164,2296,2108,1866,1916,2052
625453,43828,10532,42823,10055,-1318,-43,-191,-283,339,-344,-775,3480,59,38,851,1804,1984,2174,2296,2124,1876,1928,2055
626454,43928,10596,42888,10120,-1311,-142,-169,-286,343,-988,-740,3676,55,50,852,1804,1984,2174,2296,2124,1876,1928,2055
627455,44028,10668,42953,10185,-1354,-251,-188,-171,382,-85,-838,3992,55,51,852,1804,1984,2174,2296,2124,1876,1928,2055
628456,44144,10732,43018,10250,-1617,-150,-244,-37,437,317,-864,3662,64,43,851,1804,1984,2174,2296,2124,1876,1928,2055
629457,44224,10804,43083,10315,-1185,-258,-327,6,455,-88,-841,3696,74,49,851,1804,1984,2174,2296,2124,1876,1928,2055
630458,44340,10864,43148,10380,-1699,-102,-416,-28,450,-372,-657,3825,62,43,851,1804,1984,2174,2296,2124,1876,1928,2055
631459,44460,10924,43213,10445,-1816,-96,-501,-103,447,-208,-660,3564,60,38,852,1811,1996,2173,2313,2063,1831,1895,1996
632460,44556,10960,43278,10510,-1555,239,-547,-156,443,-426,-620,3655,74,46,851,1811,1996,2173,2313,2063,1831,1895,1996
633461,44668,11032,43343,10575,-1812,-220,-563,-219,447,-478,-711,3956,57,36,851,1811,1996,2173,2313,2063,1831,1895,1996
634462,44780,11096,43408,10640,-1870,-119,-544,-263,444,-368,-929,4275,76,39,851,1811,1996,2173,2313,2063,1831,1895,1996
635463,44892,11152,43473,10705,-1928,-8,-504,-336,442,-216,-1032,4090,75,40,852,1811,1996,2173,2313,2063,1831,1895,1996
636464,44992,11228,43538,10770,-1821,-272,-472,-323,425,-77,-1213,4906,57,41,852,1770,1924,2110,2261,2098,1878,1912,2025
637465,45104,11268,43603,10835,-2029,209,-465,-303,421,272,-1458,4508,61,45,851,1770,1924,2110,2261,2098,1878,1912,2025
638466,45212,11344,43668,10900,-2032,-255,-476,-261,426,573,-1398,4464,60,49,851,1770,1924,2110,2261,2098,1878,1912,2025
639467,45340,11412,43733,10965,-2359,-159,-495,-239,440,607,-1157,4208,77,48,844,1770,1924,2110,2261,2098,1878,1912,2025
640468,45432,11480,43798,11030,-1943,-163,-509,-219,461,419,-1316,4253,76,37,852,1770,1924,2110,2261,2098,1878,1912,2025
641469,45536,11532,43863,11095,-2142,53,-511,-225,481,479,-1328,3793,75,41,852,1770,1924,2110,2261,2098,1878,1912,2025
642470,45676,11592,43928,11160,-2683,-41,-492,-227,499,310,-1169,4227,76,41,852,1747,1913,2124,2271,2155,1929,1961,2081
643471,45776,11644,43993,11225,-2227,75,-493,-204,496,152,-1085,3986,79,48,848,1747,1913,2124,2271,2155,1929,1961,2081
644472,45904,11712,44058,11290,-2655,-130,-513,-222,473,457,-972,3639,80,42,852,1747,1913,2124,2271,2155,1929,1961,2081
645473,46012,11776,44123,11355,-2457,-78,-560,-224,464,367,-762,3827,62,38,851,1747,1913,2124,2271,2155,1929,1961,2081
646474,46116,11840,44188,11420,-2456,-77,-603,-249,444,420,-710,3629,77,43,852,1747,1913,2124,2271,2155,1929,1961,2081
647475,46236,11912,44253,11485,-2724,-186,-640,-330,429,674,-592,3656,60,49,849,1789,1948,2169,2320,2181,1931,1977,2095
648476,46368,11972,44318,11550,-2957,-30,-629,-398,416,298,-872,3802,66,37,852,1789,1948,2169,2320,2181,1931,1977,2095
649477,46452,12048,44383,11615,-2380,-243,-632,-431,401,-873,-627,3981,60,54,851,1789,1948,2169,2320,2181,1931,1977,2095
650478,46552,12100,44448,11680,-2624,72,-608,-467,364,198,-109,4224,71,46,851,1789,1948,2169,2320,2181,1931,1977,2095
651479,46652,12172,44513,11745,-2668,-187,-553,-521,292,55,-739,3907,64,51,851,1789,1948,2169,2320,2181,1931,1977,2095
652480,46792,12244,44578,11810,-3260,-195,-489,-672,247,-781,-106,3632,71,39,852,1789,1948,2169,2320,2181,1931,1977,2095
653481,46896,12304,44643,11875,-2859,-39,-370,-872,175,640,-219,4017,77,44,851,1803,1988,2172,2315,2124,1869,1915,2041
654482,47020,12364,44708,11940,-3182,-33,-258,-993,135,108,-922,3417,76,37,852,1803,1988,2172,2315,2124,1869,1915,2041
655483,47144,12424,44773,12005,-3254,-27,-213,-931,156,413,-698,4316,68,51,852,1803,1988,2172,2315,2124,1869,1915,2041
656484,47244,12492,44838,12070,-2998,-132,-208,-713,170,1807,-546,4507,63,54,852,1803,1988,2172,2315,2124,1869,1915,2041
657485,47360,12540,44903,12135,-3261,139,-287,-525,214,1861,-618,4268,80,37,852,1803,1988,2172,2315,2124,1869,1915,2041
658486,47472,12612,44968,12200,-3269,-169,-419,-362,237,1771,-447,4724,71,39,852,1828,2020,2180,2324,1984,1761,1832,1933
659487,47584,12676,45033,12265,-3328,-68,-565,-255,254,1698,-557,4215,69,41,851,1828,2020,2180,2324,1984,1761,1832,1933
660488,47692,12736,45098,12330,-3331,-12,-676,-234,275,1387,-562,4292,75,41,852,1828,2020,2180,2324,1984,1761,1832,1933
661489,47820,12784,45163,12395,-3659,159,-737,-303,302,520,-655,4065,67,49,852,1828,2020,2180,2324,1984,1761,1832,1933
662490,47944,12852,45228,12460,-3682,-95,-761,-437,313,-88,-951,3961,66,43,852,1828,2020,2180,2324,1984,1761,1832,1933
663491,48020,12932,45293,12525,-3096,-264,-726,-604,323,3,-946,4204,60,35,852,1828,2020,2180,2324,1984,1761,1832,1933
664492,48136,12984,45358,12590,-3660,102,-669,-797,303,-272,-1030,3775,65,41,851,1842,1996,2182,2357,2029,1822,1879,1987
665493,48260,13048,45423,12655,-3800,-47,-602,-921,280,-368,-1187,4264,62,38,852,1842,1996,2182,2357,2029,1822,1879,1987
666494,48336,13108,45488,12720,-3247,9,-523,-948,226,779,-1068,4745,62,37,851,1842,1996,2182,2357,2029,1822,1879,1987
667495,48440,13164,45553,12785,-3647,70,-441,-940,183,910,-991,4400,75,44,852,1842,1996,2182,2357,2029,1822,1879,1987
668496,48544,13236,45618,12850,-3695,-139,-345,-841,130,905,-983,5100,59,49,852,1842,1996,2182,2357,2029,1822,1879,1987
669497,48628,13300,45683,12915,-3469,-38,-245,-676,39,1853,-659,5264,57,45,852,1786,1935,2155,2338,2212,1980,2000,2116
670498,48740,13336,45748,12980,-3800,347,-176,-523,-14,1848,-734,4848,62,43,852,1786,1935,2155,2338,2212,1980,2000,2116
671499,48820,13400,45813,13045,-3497,-2,-121,-341,-47,1743,-519,5310,66,49,851,1786,1935,2155,2338,2212,1980,2000,2116
672500,48916,13444,45878,13110,-3736,274,-111,-183,-75,1746,-203,4864,62,50,845,1786,1935,2155,2338,2212,1980,2000,2116
673501,48984,13516,45943,13175,-3391,-85,-123,-70,-68,1168,-278,4649,65,51,852,1786,1935,2155,2338,2212,1980,2000,2116
674502,49108,13572,46008,13240,-3800,126,-153,25,-50,969,-146,4731,45,48,852,1786,1935,2155,2338,2212,1980,2000,2116
675503,49196,13620,46073,13305,-3744,247,-194,76,-16,604,-282,4402,53,43,852,1826,1992,2206,2413,2206,1966,2003,2079
676504,49272,13684,46138,13370,-3608,48,-237,113,27,447,-369,4703,44,42,847,1826,1992,2206,2413,2206,1966,2003,2079
677505,49360,13728,46203,13435,-3787,323,-264,158,70,393,-630,4769,60,43,852,1826,1992,2206,2413,2206,1966,2003,2079
678506,49444,13768,46268,13500,-3761,403,-279,181,116,414,-706,5054,55,43,851,1826,1992,2206,2413,2206,1966,2003,2079
679507,49508,13776,46333,13565,-3511,873,-284,202,150,255,-872,4923,43,35,851,1826,1992,2206,2413,2206,1966,2003,2079
680508,49588,13812,46398,13630,-3732,558,-280,239,180,207,-1224,4938,38,50,846,1867,2030,2235,2445,2125,1902,1931,2014
681509,49636,13852,46463,13695,-3312,539,-274,271,185,766,-1219,5300,55,40,850,1867,2030,2235,2445,2125,1902,1931,2014
682510,49716,13928,46528,13760,-3731,75,-239,325,186,1068,-1412,4954,44,54,850,1867,2030,2235,2445,2125,1902,1931,2014
683511,49788,13996,46593,13825,-3641,172,-194,408,163,1393,-1348,5210,51,43,851,1867,2030,2235,2445,2125,1902,1931,2014
684512,49868,14076,46658,13890,-3761,3,-133,474,145,1320,-1391,5063,48,43,851,1867,2030,2235,2445,2125,1902,1931,2014
685513,49920,14164,46723,13955,-3396,-125,-69,554,121,1111,-1477,5171,50,54,852,1867,2030,2235,2445,2125,1902,1931,2014
686514,49972,14220,46788,14020,-3381,286,-11,607,82,1742,-1353,4966,42,55,852,1854,2006,2223,2406,2084,1864,1880,1992
687515,50036,14316,46853,14085,-3531,-251,37,629,31,1572,-1135,4736,45,43,852,1854,2006,2223,2406,2084,1864,1880,1992
688516,50120,14392,46918,14150,-3800,-16,59,632,-9,1196,-971,4418,32,39,851,1854,2006,2223,2406,2084,1864,1880,1992
689517,50160,14476,46983,14215,-3227,-139,57,605,-60,1268,-691,4145,24,44,852,1854,2006,2223,2406,2084,1864,1880,1992
690518,50192,14532,47048,14280,-3087,222,45,566,-86,1308,-496,3848,29,52,852,1854,2006,2223,2406,2084,1864,1880,1992
691519,50252,14600,47113,14345,-3432,68,13,493,-99,1308,-390,3680,23,41,852,1862,2006,2209,2391,2060,1843,1900,1996
692520,50308,14672,47178,14410,-3372,10,7,447,-105,1002,-266,3666,23,48,852,1862,2006,2209,2391,2060,1843,1900,1996
693521,50332,14736,47243,14475,-2923,111,-2,411,-112,1158,8,3662,40,50,852,1862,2006,2209,2391,2060,1843,1900,1996
694522,50372,14796,47308,14540,-3095,167,2,393,-92,819,-184,3365,37,43,852,1862,2006,2209,2391,2060,1843,1900,1996
695523,50416,14848,47373,14605,-3120,283,7,372,-60,878,-28,3582,25,32,852,1862,2006,2209,2391,2060,1843,1900,1996
696524,50468,14908,47438,14670,-3205,189,37,329,-36,943,-37,3574,18,32,851,1862,2006,2209,2391,2060,1843,1900,1996
697525,50496,14960,47503,14735,-2861,305,75,275,-9,421,-204,3494,23,40,852,1844,2004,2164,2336,2073,1843,1915,2027
698526,50516,15028,47568,14800,-2707,101,135,212,23,333,-446,3674,26,46,851,1844,2004,2164,2336,2073,1843,1915,2027
699527,50568,15076,47633,14865,-3092,371,200,179,54,487,-556,3622,26,38,852,1844,2004,2164,2336,2073,1843,1915,2027
700528,50580,15144,47698,14930,-2530,117,278,150,66,685,-547,3747,16,33,850,1844,2004,2164,2336,2073,1843,1915,2027
701529,50612,15188,47763,14995,-2740,443,356,125,73,443,-706,3580,31,35,852,1844,2004,2164,2336,2073,1843,1915,2027
702530,50632,15256,47962,15194,-2373,303,428,83,63,312,-763,3633,20,33,851,1764,1944,2088,2240,2080,1824,1881,2011
703531,50664,15324,48027,15259,-2483,299,477,48,39,513,-780,3638,11,41,851,1764,1944,2088,2240,2080,1824,1881,2011
704532,50704,15384,48092,15324,-2554,405,522,32,6,716,-720,3423,25,31,851,1764,1944,2088,2240,2080,1824,1881,2011
705533,50728,15448,48157,15389,-2305,356,536,22,-39,818,-621,3366,27,30,844,1764,1944,2088,2240,2080,1824,1881,2011
706534,50744,15516,48222,15454,-2146,303,539,16,-81,679,-635,3107,9,44,851,1764,1944,2088,2240,2080,1824,1881,2011
707535,50756,15572,48287,15519,-2032,464,530,-8,-122,600,-538,3174,15,37,851,1764,1944,2088,2240,2080,1824,1881,2011
708536,50784,15648,48352,15584,-2188,200,510,-32,-149,567,-466,3120,6,32,851,1763,1938,2121,2264,2016,1782,1832,1931
709537,50792,15724,48417,15649,-1870,187,476,-70,-171,614,-459,3175,6,35,847,1763,1938,2121,2264,2016,1782,1832,1931
710538,50816,15784,48482,15714,-2021,393,454,-89,-190,562,-411,3171,6,46,852,1763,1938,2121,2264,2016,1782,1832,1931
711539,50824,15840,48547,15779,-1751,454,429,-106,-201,614,-328,3178,17,46,851,1763,1938,2121,2264,2016,1782,1832,1931
712540,50840,15896,48612,15844,-1792,465,406,-124,-198,384,-267,3306,9,44,851,1763,1938,2121,2264,2016,1782,1832,1931
713541,50832,15964,48677,15909,-1404,311,374,-150,-178,310,-234,3107,3,39,847,1801,1949,2143,2315,1999,1804,1850,1948
714542,50836,16020,48742,15974,-1481,472,368,-155,-139,337,-230,3364,5,42,851,1801,1949,2143,2315,1999,1804,1850,1948
715543,50852,16100,48807,16039,-1572,154,382,-174,-102,319,-194,3506,11,37,851,1801,1949,2143,2315,1999,1804,1850,1948
716544,50852,16164,48872,16104,-1293,355,419,-177,-82,309,-163,3702,8,44,852,1801,1949,2143,2315,1999,1804,1850,1948
717545,50864,16224,48937,16169,-1379,411,447,-157,-66,382,-63,3539,1,40,848,1801,1949,2143,2315,1999,1804,1850,1948
718546,50868,16284,49002,16234,-1205,417,479,-135,-31,283,-104,3567,1,45,851,1801,1949,2143,2315,1999,1804,1850,1948
719547,50872,16348,49067,16299,-1132,369,519,-103,4,177,-36,3639,15,40,851,1785,1927,2136,2310,2082,1875,1892,2014
720548,50872,16412,49132,16364,-1003,370,575,-71,22,244,-56,3679,0,48,851,1785,1927,2136,2310,2082,1875,1892,2014
721549,50872,16508,49197,16429,-924,-68,625,-41,39,244,-115,3728,2,36,851,1785,1927,2136,2310,2082,1875,1892,2014
722550,50880,16584,49262,16494,-956,169,672,-2,47,217,-57,3821,1,37,852,1785,1927,2136,2310,2082,1875,1892,2014
723551,50876,16672,49327,16559,-721,-9,722,77,30,330,17,4151,8,41,852,1785,1927,2136,2310,2082,1875,1892,2014
724552,50872,16748,49392,16624,-638,127,774,161,4,431,8,3961,9,45,852,1765,1923,2136,2277,2126,1891,1917,2028
725553,50884,16816,49457,16689,-774,223,801,219,-26,566,66,4057,8,43,851,1765,1923,2136,2277,2126,1891,1917,2028
726554,50876,16892,49522,16754,-435,109,810,258,-71,372,140,3909,15,37,851,1765,1923,2136,2277,2126,1891,1917,2028
727555,50868,16964,49587,16819,-347,150,770,264,-98,230,124,3341,1,48,852,1765,1923,2136,2277,2126,1891,1917,2028
728556,50880,17036,49652,16884,-533,142,719,242,-96,-79,75,3264,5,35,852,1765,1923,2136,2277,2126,1891,1917,2028
729557,50872,17084,49717,16949,-194,463,681,241,-102,-246,254,3580,-1,34,852,1765,1923,2136,2277,2126,1891,1917,2028
730558,50872,17160,49782,17014,-215,99,666,288,-116,-52,31,4071,-1,43,851,1790,1965,2178,2338,2076,1844,1877,1988
731559,50888,17236,49847,17079,-355,86,669,358,-111,330,-89,4014,9,38,842,1790,1965,2178,2338,2076,1844,1877,1988
732560,50876,17312,49912,17144,88,72,663,437,-86,573,-50,4287,1,36,851,1790,1965,2178,2338,2076,1844,1877,1988
733561,50884,17388,49977,17209,-93,59,668,502,-63,401,-120,4359,16,45,852,1790,1965,2178,2338,2076,1844,1877,1988
734562,50880,17428,50042,17274,141,540,665,533,-46,214,-53,4326,16,31,851,1790,1965,2178,2338,2076,1844,1877,1988
735563,50884,17524,50107,17339,115,-198,665,536,-23,213,-10,4290,14,42,850,1794,1949,2157,2313,2059,1838,1870,1988
736564,50872,17568,50172,17404,409,477,676,535,10,227,-63,4282,-1,41,851,1794,1949,2157,2313,2059,1838,1870,1988
737565,50892,17640,50237,17469,64,119,703,533,30,430,81,4423,16,41,849,1794,1949,2157,2313,2059,1838,1870,1988
738566,50888,17704,50302,17534,447,220,730,525,42,318,42,4311,6,45,852,1794,1949,2157,2313,2059,1838,1870,1988
739567,50880,17776,50367,17599,586,111,763,520,55,366,195,4342,19,30,850,1794,1949,2157,2313,2059,1838,1870,1988
740568,50888,17824,50432,17664,456,432,792,508,66,489,242,4261,3,43,848,1794,1949,2157,2313,2059,1838,1870,1988
741569,50904,17892,50497,17729,416,179,817,506,68,558,252,4179,24,36,849,1801,1958,2182,2334,2109,1889,1919,2041
742570,50916,17940,50562,17794,530,448,835,502,67,626,326,4173,19,43,850,1801,1958,2182,2334,2109,1889,1919,2041
743571,50924,18016,50627,17859,649,85,847,488,62,576,378,3994,21,37,848,1801,1958,2182,2334,2109,1889,1919,2041
744572,50952,18072,50692,17924,444,346,858,478,37,388,548,3982,12,45,849,1801,1958,2182,2334,2109,1889,1919,2041
745573,50988,18132,50757,17989,380,302,851,453,12,333,623,3745,32,33,849,1801,1958,2182,2334,2109,1889,1919,2041
746574,51024,18208,50822,18054,415,89,830,409,-3,464,831,3619,33,32,850,1827,1987,2211,2368,2150,1911,1950,2068
747575,51052,18276,50887,18119,560,185,794,345,-12,143,669,3673,32,32,850,1827,1987,2211,2368,2150,1911,1950,2068
748576,51104,18340,50952,18184,276,236,778,305,-42,164,720,4044,24,35,849,1827,1987,2211,2368,2150,1911,1950,2068
749577,51124,18392,51017,18249,731,402,774,290,-89,562,779,4207,18,42,850,1827,1987,2211,2368,2150,1911,1950,2068
750578,51164,18452,51082,18314,511,308,763,242,-112,456,480,4290,23,43,847,1827,1987,2211,2368,2150,1911,1950,2068
751579,51228,18520,51147,18379,213,204,744,235,-141,288,524,4608,35,37,847,1831,1999,2207,2331,2137,1883,1950,2068
752580,51268,18584,51212,18444,543,256,725,246,-150,404,365,4533,27,46,851,1831,1999,2207,2331,2137,1883,1923,2068
753581,51320,18652,51277,18509,409,202,704,227,-152,421,295,4317,26,43,849,1831,1999,2207,2331,2137,1883,1923,2068
754582,51360,18712,51342,18574,590,308,682,201,-148,198,244,4501,34,37,850,1831,1999,2207,2331,2137,1883,1923,2068
755583,51404,18764,51407,18639,565,424,674,179,-149,236,182,4500,27,45,849,1831,1999,2207,2331,2137,1883,1923,2068
756584,51476,18848,51472,18704,207,1,661,162,-147,270,195,4527,48,36,848,1831,1999,2207,2331,2137,1883,1923,2068
757585,51516,18888,51537,18769,637,581,657,155,-140,234,149,4481,33,46,851,1779,1963,2179,2271,2144,1887,1920,2078
758586,51592,18948,51602,18834,174,337,647,150,-129,120,73,4432,30,42,847,1779,1963,2179,2271,2144,1887,1920,2078
759587,51656,19008,51667,18899,325,343,628,127,-135,161,281,4203,33,34,851,1779,1963,2179,2271,2144,1887,1920,2078
760588,51712,19064,51732,18964,436,403,601,109,-145,226,364,4133,49,30,850,1779,1963,2179,2271,2144,1887,1920,2078
761589,51764,19136,51797,19029,502,195,578,88,-169,320,530,4153,45,35,849,1779,1963,2179,2271,2144,1887,1920,2078
762590,51848,19200,51862,19094,79,296,540,65,-201,282,670,4062,42,48,850,1759,1943,2175,2275,2175,1924,1951,2099
763591,51888,19256,51927,19159,659,407,505,32,-228,321,709,3887,37,42,851,1759,1943,2175,2275,2175,1924,1951,2099
764592,51968,19308,51992,19224,141,473,474,14,-261,356,893,3977,41,33,848,1759,1943,2175,2275,2175,1924,1951,2099
765593,52032,19392,52057,19289,342,50,429,-9,-303,466,946,3923,55,44,850,1759,1943,2175,2275,2175,1924,1951,2099
766594,52116,19460,52122,19354,69,246,390,-6,-346,567,945,4047,44,48,851,1759,1943,2175,2275,2175,1924,1951,2099
767595,52172,19520,52187,19419,430,352,350,-9,-382,570,1070,3844,53,32,851,1759,1943,2175,2275,2175,1924,1951,2099
768596,52244,19596,52252,19484,221,139,325,-24,-409,380,993,3886,39,31,847,1771,1939,2177,2304,2200,1949,1966,2094
769597,52304,19652,52317,19549,377,400,294,-31,-438,200,848,4006,54,36,851,1771,1939,2177,2304,2200,1949,1966,2094
770598,52376,19716,52382,19614,219,301,273,-28,-463,249,912,3922,38,30,849,1771,1939,2177,2304,2200,1949,1966,2094
771599,52424,19796,52447,19679,540,83,260,-35,-477,333,691,3897,46,46,850,1771,1939,2177,2304,2200,1949,1966,2094
772600,52508,19860,52512,19744,66,284,258,-37,-477,247,494,3846,56,31,850,1771,1939,2177,2304,2200,1949,1966,2094
773601,52588,19916,52577,19809,98,395,244,-56,-489,271,612,3930,41,35,851,1761,1924,2167,2287,2177,1925,1931,2057
774602,52656,19988,52642,19874,244,186,239,-46,-477,79,326,3846,56,39,850,1761,1924,2167,2287,2177,1925,1931,2057
775603,52704,20040,52707,19939,515,452,214,-12,-454,136,187,3810,53,45,851,1761,1924,2167,2287,2177,1925,1931,2057
776604,52772,20108,52772,20004,262,249,181,16,-426,81,71,3746,49,37,848,1761,1924,2167,2287,2177,1925,1931,2057
777605,52840,20140,52837,20069,258,739,160,47,-412,29,214,3823,53,45,851,1761,1924,2167,2287,2177,1925,1931,2057
778606,52904,20200,52902,20134,309,395,156,51,-409,-143,182,3447,58,33,848,1761,1924,2167,2287,2177,1925,1931,2057
779607,52988,20260,52967,20199,36,401,131,40,-388,-189,181,3656,57,45,850,1747,1920,2157,2267,2112,1862,1879,2006
780608,53044,20324,53032,20264,397,352,92,62,-382,240,308,3734,40,46,851,1747,1920,2157,2267,2112,1862,1879,2006
781609,53108,20396,53097,20329,298,244,66,88,-379,327,306,3336,37,43,850,1747,1920,2157,2267,2112,1862,1879,2006
782610,53176,20472,53162,20394,244,180,38,116,-384,299,424,3654,50,44,850,1747,1920,2157,2267,2112,1862,1879,2006
783611,53240,20516,53227,20459,296,606,9,141,-395,325,354,3538,38,36,851,1747,1920,2157,2267,2112,1862,1879,2006
784612,53316,20584,53292,20524,132,302,-22,185,-398,351,395,3654,49,46,849,1757,1924,2147,2263,2078,1833,1870,1994
785613,53380,20660,53357,20589,283,189,-49,220,-410,643,633,3894,44,36,850,1757,1924,2147,2263,2078,1833,1870,1994
786614,53452,20720,53422,20654,175,394,-56,223,-433,260,615,3589,37,32,851,1757,1924,2147,2263,2078,1833,1870,1994
787615,53528,20788,53487,20719,111,290,-62,201,-441,-84,562,3645,53,35,850,1757,1924,2147,2263,2078,1833,1870,1994
788616,53572,20844,53552,20784,537,451,-48,180,-449,106,670,3607,39,32,851,1757,1924,2147,2263,2078,1833,1870,1994
789617,53640,20908,53617,20849,233,352,-39,177,-440,123,459,3803,31,39,849,1757,1924,2147,2263,2078,1833,1870,1994
790618,53696,20976,53682,20914,394,299,-21,180,-421,147,367,3506,35,39,850,1763,1923,2144,2275,2112,1868,1903,2024
791619,53756,21056,53747,20979,351,131,-6,158,-381,-33,349,3221,40,35,850,1763,1923,2144,2275,2112,1868,1903,2024
792620,53808,21124,53812,21044,466,277,12,139,-351,-113,465,3485,50,33,851,1763,1923,2144,2275,2112,1868,1903,2024
793621,53872,21200,53877,21109,318,163,32,113,-320,-153,389,3129,36,32,850,1763,1923,2144,2275,2112,1868,1903,2024
794624,53924,21232,53942,21174,483,754,49,90,-282,-137,390,3466,52,45,851,1763,1923,2144,2275,2112,1868,1903,2024
795623,54012,21308,54007,21239,5,190,68,81,-242,-16,406,3276,41,33,847,1787,1946,2176,2311,2124,1882,1910,2027
796624,54064,21352,54072,21304,471,616,76,57,-204,70,422,3329,49,34,852,1787,1946,2176,2311,2124,1882,1910,2027
797625,54136,21424,54137,21369,213,257,83,53,-178,142,341,3467,34,38,848,1787,1946,2176,2311,2124,1882,1910,2027
798626,54192,21492,54202,21434,424,304,81,43,-147,106,200,3458,52,37,851,1787,1946,2176,2311,2124,1882,1910,2027
799627,54256,21552,54267,21499,325,410,88,65,-107,203,141,3803,45,33,850,1787,1946,2176,2311,2124,1882,1910,2027
800628,54320,21604,54332,21564,326,526,87,76,-69,285,198,3587,39,32,850,1787,1946,2176,2311,2124,1882,1910,2027
801629,54372,21660,54397,21629,492,487,89,78,-47,108,151,3879,37,43,849,1806,1963,2191,2319,2080,1838,1870,1988
802630,54428,21728,54462,21694,453,333,95,62,-36,-8,292,3779,39,42,847,1806,1963,2191,2319,2080,1838,1870,1988
803631,54508,21804,54527,21759,135,220,105,50,-26,-136,316,3995,39,32,849,1806,1963,2191,2319,2080,1838,1870,1988
804632,54584,21864,54592,21824,171,426,115,44,-16,-55,331,3942,51,32,851,1806,1963,2191,2319,2080,1838,1870,1988
805633,54648,21920,54657,21889,322,487,120,18,-2,-184,336,3924,43,44,850,1806,1963,2191,2319,2080,1838,1870,1988
806634,54708,21992,54722,21954,379,278,117,-4,7,-315,427,3944,35,33,849,1805,1960,2180,2307,2056,1820,1862,1981
807635,54772,22036,54787,22019,330,654,119,-30,13,-267,519,3865,35,43,850,1805,1960,2180,2307,2056,1820,1862,1981
808636,54844,22104,54852,22084,221,350,123,-38,10,-107,603,3981,51,31,849,1805,1960,2180,2307,2056,1820,1862,1981
809637,54896,22164,54917,22149,487,456,135,-49,20,-23,629,3951,52,44,850,1805,1960,2180,2307,2056,1820,1862,1981
810638,54972,22224,54982,22214,174,462,143,-39,45,-126,561,4017,52,38,849,1805,1960,2180,2307,2056,1820,1862,1981
811639,55032,22280,55047,22279,380,523,160,-21,63,-11,617,4066,35,30,850,1805,1960,2180,2307,2056,1820,1862,1981
812640,55084,22348,55112,22344,496,370,176,15,79,178,521,3971,49,29,849,1816,1974,2195,2331,2099,1861,1905,2029
813641,55152,22392,55177,22409,292,695,206,54,105,202,523,4049,42,36,849,1816,1974,2195,2331,2099,1861,1905,2029
814642,55212,22480,55242,22474,398,117,224,89,138,251,529,4026,43,32,848,1816,1974,2195,2331,2099,1861,1905,2029
815643,55284,22544,55307,22539,240,418,254,105,166,154,566,3911,35,43,850,1816,1974,2195,2331,2099,1861,1905,2029
816644,55328,22596,55372,22604,615,584,279,97,194,-107,505,3709,46,29,850,1816,1974,2195,2331,2099,1861,1905,2029
817645,55388,22648,55437,22669,421,600,298,73,225,-183,515,3806,38,39,847,1828,1985,2217,2360,2145,1904,1933,2048
818646,55448,22708,55502,22734,427,506,315,53,251,-18,532,3828,40,32,848,1828,1985,2217,2360,2145,1904,1933,2048
819647,55512,22788,55567,22799,379,238,330,25,269,92,478,3796,48,42,847,1828,1985,2217,2360,2145,1904,1933,2048
820648,55556,22848,55632,22864,654,494,339,13,282,200,502,4002,42,45,850,1828,1985,2217,2360,2145,1904,1933,2048
821649,55612,22908,55697,22929,515,500,354,-3,291,42,455,3969,41,40,847,1828,1985,2217,2360,2145,1904,1933,2048
822650,55688,22968,55762,22994,252,506,349,-2,298,48,417,4028,43,35,847,1828,1985,2217,2360,2145,1904,1933,2048
823651,55740,23024,55827,23059,568,567,348,22,301,296,341,4044,39,37,849,1824,1972,2214,2358,2123,1884,1903,2015
824652,55784,23072,55892,23124,693,688,335,22,309,315,367,4016,31,32,847,1824,1972,2214,2358,2123,1884,1903,2015
825653,55848,23136,55957,23189,445,489,318,41,308,113,317,4043,31,27,846,1824,1972,2214,2358,2123,1884,1903,2015
826654,55892,23192,56022,23254,720,600,293,56,305,195,314,4136,47,42,848,1824,1972,2214,2358,2123,1884,1903,2015
827655,55964,23244,56087,23319,362,666,276,74,301,384,278,4133,43,34,847,1824,1972,2214,2358,2123,1884,1903,2015
828656,56012,23312,56152,23384,682,462,259,86,306,342,314,4086,36,35,847,1806,1955,2190,2319,2097,1857,1885,2007
829657,56064,23364,56217,23449,648,678,253,109,301,174,264,4227,45,26,847,1806,1955,2190,2319,2097,1857,1885,2007
830658,56124,23432,56282,23514,554,475,236,137,311,148,99,4137,47,40,846,1806,1955,2190,2319,2097,1857,1885,2007
831659,56184,23484,56347,23579,560,690,233,132,317,108,156,3940,52,37,847,1806,1955,2190,2319,2097,1857,1885,2007
832660,56228,23548,56412,23644,786,542,222,118,314,110,305,4031,47,43,847,1806,1955,2190,2319,2097,1857,1885,2007
833661,56312,23584,56477,23709,263,927,230,120,310,119,270,4042,47,41,846,1806,1955,2190,2319,2097,1857,1885,2007
834662,56352,23632,56542,23774,843,798,235,103,314,151,456,3968,54,32,846,1780,1941,2171,2293,2128,1880,1915,2046
835663,56404,23704,56607,23839,709,489,262,107,302,223,547,4154,35,27,845,1780,1941,2171,2293,2128,1880,1915,2046
836664,56472,23764,56672,23904,507,645,273,114,292,445,539,3948,40,32,845,1780,1941,2171,2293,2128,1880,1915,2046
837665,56528,23836,56737,23969,668,487,302,124,285,566,573,3972,46,40,847,1780,1941,2171,2293,2128,1880,1915,2046
838666,56576,23900,56802,24034,788,588,319,116,283,628,750,4089,32,45,847,1780,1941,2171,2293,2128,1880,1915,2046
839667,56648,23944,56867,24099,480,864,347,119,269,458,709,3986,38,43,846,1781,1951,2181,2309,2162,1910,1944,2067
840668,56692,23968,56932,24164,855,1165,355,125,251,611,774,4015,32,32,845,1781,1951,2181,2309,2162,1910,1944,2067
841669,56740,24040,56997,24229,826,556,364,119,230,647,831,4091,30,33,842,1781,1951,2181,2309,2162,1910,1944,2067
842670,56788,24116,57062,24294,847,493,363,111,212,590,758,3835,39,44,845,1781,1951,2181,2309,2162,1910,1944,2067
843671,56852,24196,57127,24359,648,424,360,110,194,815,702,3992,47,43,846,1781,1951,2181,2309,2162,1910,1944,2067
844673,56916,24264,57192,24424,649,571,355,87,195,754,758,4017,51,33,847,1781,1951,2181,2309,2162,1910,1944,2067
845673,56972,24308,57257,24489,760,896,349,59,195,407,665,4026,49,44,846,1809,1976,2214,2354,2125,1883,1911,2026
846674,57016,24380,57322,24554,936,538,345,45,188,373,553,4129,50,43,844,1809,1976,2214,2354,2125,1883,1911,2026
847675,57064,24432,57387,24619,908,804,342,43,187,435,564,4169,40,43,845,1809,1976,2214,2354,2125,1883,1911,2026
848676,57116,24488,57452,24684,874,765,335,33,169,455,541,4106,51,32,844,1809,1976,2214,2354,2125,1883,1911,2026
849677,57192,24552,57517,24749,560,666,329,26,147,640,455,4178,37,33,844,1809,1976,2214,2354,2125,1883,1911,2026
850678,57256,24616,57582,24814,711,667,341,3,134,551,524,4462,40,33,846,1833,1990,2238,2373,2092,1861,1884,2002
851679,57304,24680,57647,24879,932,668,353,-7,125,509,482,4394,43,46,846,1833,1990,2238,2373,2092,1861,1884,2002
852680,57360,24728,57712,24944,843,889,357,-7,112,766,482,4456,43,38,844,1833,1990,2238,2373,2092,1861,1884,2002
853681,57428,24784,57777,25009,690,800,370,-11,98,726,648,4352,54,34,843,1833,1990,2238,2373,2092,1861,1884,2002
854682,57468,24848,57842,25074,1070,702,361,7,74,575,706,4305,32,37,845,1833,1990,2238,2373,2092,1861,1884,2002
855683,57544,24912,57907,25139,608,704,359,53,34,862,700,4148,50,33,843,1833,1990,2238,2373,2092,1861,1884,2002
856684,57596,24996,57972,25204,923,430,344,82,15,1008,752,4083,41,50,846,1832,1987,2240,2369,2103,1869,1900,2023
857685,57640,25052,58037,25269,1049,791,349,94,-7,899,894,4060,43,34,846,1832,1987,2240,2369,2103,1869,1900,2023
858686,57696,25092,58102,25334,910,1022,350,85,-29,561,931,4099,32,36,842,1832,1987,2240,2369,2103,1869,1900,2023
859687,57760,25164,58167,25399,811,613,356,84,-42,334,960,4193,40,33,842,1832,1987,2240,2369,2103,1869,1900,2023
860688,57820,25216,58232,25464,867,879,361,87,-60,429,1079,4175,53,33,845,1832,1987,2240,2369,2103,1869,1900,2023
861689,57872,25268,58297,25529,983,895,381,99,-81,498,892,4172,35,43,844,1820,1974,2220,2350,2150,1906,1935,2057
862690,57928,25328,58362,25594,945,801,394,106,-81,493,852,4109,36,43,842,1820,1974,2220,2350,2150,1906,1935,2057
863691,57976,25400,58427,25659,1066,643,411,105,-89,558,795,4044,51,44,843,1820,1974,2220,2350,2150,1906,1935,2057
864692,58032,25464,58492,25724,977,744,416,95,-90,519,893,4109,36,38,843,1820,1974,2220,2350,2150,1906,1935,2057
865693,58088,25504,58557,25789,988,1075,426,80,-73,338,909,3885,52,33,843,1820,1974,2220,2350,2150,1906,1935,2057
866694,58156,25568,58622,25854,834,777,447,59,-64,313,939,4203,52,40,841,1820,1974,2220,2350,2150,1906,1935,2057
867695,58200,25648,58687,25919,1160,558,467,81,-44,355,765,4277,54,33,843,1793,1952,2202,2327,2161,1910,1931,2052
868696,58260,25708,58752,25984,967,814,482,109,-31,755,664,4104,45,41,843,1793,1952,2202,2327,2161,1910,1931,2052
869697,58320,25772,58817,26049,973,766,500,122,-20,604,519,4057,52,47,843,1793,1952,2202,2327,2161,1910,1931,2052
870698,58368,25840,58882,26114,1144,712,500,107,-15,375,597,4137,47,43,842,1793,1952,2202,2327,2161,1910,1931,2052
871699,58424,25908,58947,26179,1055,708,500,104,-22,462,587,4106,41,47,842,1793,1952,2202,2327,2161,1910,1931,2052
872700,58464,25972,59012,26244,1285,760,482,101,-19,549,486,3907,45,39,842,1790,1946,2204,2326,2124,1877,1897,2017
873701,58536,26056,59077,26309,878,486,464,114,-19,598,605,4112,46,49,841,1790,1946,2204,2326,2124,1877,1897,2017
874702,58612,26112,59142,26374,814,847,441,132,-31,553,636,3958,42,40,844,1790,1946,2204,2326,2124,1877,1897,2017
875703,58680,26192,59207,26439,911,530,430,161,-32,554,498,4022,58,49,844,1790,1946,2204,2326,2124,1877,1897,2017
876704,58732,26244,59272,26504,1127,896,402,169,-28,644,653,4037,43,48,845,1790,1946,2204,2326,2124,1877,1897,2017
877705,58796,26304,59337,26569,978,802,387,183,-25,407,503,3823,57,39,842,1790,1946,2204,2326,2124,1877,1897,2017
878706,58856,26392,59402,26634,1035,424,366,172,-17,168,522,3987,45,53,842,1812,1959,2220,2343,2101,1861,1889,2010
879707,58920,26456,59467,26699,986,725,349,185,-27,336,694,3942,52,51,844,1812,1959,2220,2343,2101,1861,1889,2010
880708,58988,26528,59532,26764,933,617,345,164,-25,356,475,3837,50,39,843,1812,1959,2220,2343,2101,1861,1889,2010
881709,59032,26592,59597,26829,1258,718,332,150,-9,275,560,3982,52,49,844,1812,1959,2220,2343,2101,1861,1889,2010
882710,59104,26668,59662,26894,900,554,329,124,-2,174,714,3804,42,42,842,1812,1959,2220,2343,2101,1861,1889,2010
883711,59136,26732,59727,26959,1441,706,328,109,18,-69,527,3842,47,42,844,1807,1955,2213,2333,2127,1885,1916,2042
884712,59212,26800,59792,27024,878,652,330,95,39,277,664,3924,39,49,841,1807,1955,2213,2333,2127,1885,1916,2042
885713,59256,26876,59857,27089,1303,539,338,88,67,204,729,3560,36,43,843,1807,1955,2213,2333,2127,1885,1916,2042
886714,59308,26940,59922,27154,1219,690,352,68,92,32,713,3917,54,38,842,1807,1955,2213,2333,2127,1885,1916,2042
887715,59360,26980,59987,27219,1236,1021,368,88,120,133,774,3800,38,39,840,1807,1955,2213,2333,2127,1885,1916,2042
888716,59424,27044,60052,27284,1087,722,380,84,149,233,819,4058,55,51,839,1807,1955,2213,2333,2127,1885,1916,2042
889717,59484,27128,60117,27349,1143,449,398,97,166,342,817,3885,38,38,842,1790,1941,2196,2313,2155,1902,1931,2054
890718,59536,27196,60182,27414,1259,646,401,110,179,341,650,3800,39,51,843,1790,1941,2196,2313,2155,1902,1931,2054
891719,59600,27276,60247,27479,1111,477,406,112,193,370,796,3837,41,43,842,1790,1941,2196,2313,2155,1902,1931,2054
892721,59656,27324,60312,27544,1222,898,409,89,212,66,796,3760,43,37,843,1790,1941,2196,2313,2155,1902,1931,2054
893721,59720,27384,60377,27609,1124,754,410,89,222,109,811,4042,54,46,841,1790,1941,2196,2313,2155,1902,1931,2054
894722,59776,27448,60442,27674,1234,705,410,90,243,198,743,3871,37,33,841,1789,1939,2198,2316,2134,1882,1906,2024
895723,59816,27504,60507,27739,1466,816,413,90,265,212,790,4093,39,46,841,1789,1939,2198,2316,2134,1882,1906,2024
896724,59892,27568,60572,27804,1003,718,412,115,273,338,697,3958,39,44,839,1789,1939,2198,2316,2134,1882,1906,2024
897725,59952,27620,60637,27869,1209,883,403,123,272,350,698,3984,54,43,842,1789,1939,2198,2316,2134,1882,1906,2024
898726,60012,27676,60702,27934,1215,844,399,123,266,153,589,3982,35,34,841,1789,1939,2198,2316,2134,1882,1906,2024
899727,60076,27716,60767,27999,1167,1076,391,114,268,-33,582,3892,51,38,840,1789,1939,2198,2316,2134,1882,1906,2024
900728,60124,27768,60832,28064,1388,942,375,106,260,36,576,3874,52,38,839,1805,1946,2216,2337,2095,1856,1879,1997
901729,60184,27812,60897,28129,1244,1067,368,107,255,111,574,3822,53,35,839,1805,1946,2216,2337,2095,1856,1879,1997
902730,60236,27896,60962,28194,1360,544,357,112,251,101,618,3881,52,43,839,1805,1946,2216,2337,2095,1856,1879,1997
903731,60288,27936,61027,28259,1377,1125,355,128,252,106,627,3835,55,51,840,1805,1946,2216,2337,2095,1856,1879,1997
904732,60340,28000,61092,28324,1392,826,346,136,264,-15,691,3771,41,39,837,1805,1946,2216,2337,2095,1856,1879,1997
905733,60408,28060,61157,28389,1189,882,340,130,275,-100,746,3786,52,37,838,1822,1958,2232,2357,2100,1865,1892,2007
906734,60464,28128,61222,28454,1350,778,343,146,283,-41,733,3893,37,48,840,1822,1958,2232,2357,2100,1865,1892,2007
907735,60532,28200,61287,28519,1197,721,341,167,295,87,884,3899,51,44,839,1822,1958,2232,2357,2100,1865,1892,2007
908736,60576,28232,61352,28584,1523,1261,347,180,315,-33,893,3846,38,38,841,1822,1958,2232,2357,2100,1865,1892,2007
909737,60656,28316,61417,28649,1054,588,356,188,332,-58,946,3901,39,41,836,1822,1958,2232,2357,2100,1865,1892,2007
910738,60696,28388,61482,28714,1586,729,365,184,336,4,1057,3804,38,44,841,1822,1958,2232,2357,2100,1865,1892,2007
911739,60744,28460,61547,28779,1507,721,378,179,345,9,1009,3850,52,53,839,1815,1953,2226,2351,2121,1887,1915,2029
912740,60808,28516,61612,28844,1308,932,384,191,357,-59,877,3947,57,43,839,1815,1953,2226,2351,2121,1887,1915,2029
913741,60876,28612,61677,28909,1255,394,405,196,372,63,1072,3974,49,50,839,1815,1953,2226,2351,2121,1887,1915,2029
914742,60920,28672,61742,28974,1581,850,423,196,372,101,1060,4052,54,53,842,1815,1953,2226,2351,2121,1887,1915,2029
915743,60980,28740,61807,29039,1387,746,440,210,370,180,996,3838,44,52,838,1815,1953,2226,2351,2121,1887,1915,2029
916744,61024,28800,61872,29104,1613,854,454,205,367,231,1083,4095,52,40,839,1800,1940,2216,2336,2134,1889,1914,2028
917745,61096,28872,61937,29169,1255,695,474,223,351,211,1038,4108,57,53,837,1800,1940,2216,2336,2134,1889,1914,2028
918746,61152,28948,62002,29234,1466,632,488,239,333,333,920,4250,44,49,839,1800,1940,2216,2336,2134,1889,1914,2028
919747,61216,29012,62067,29299,1367,783,501,278,321,374,932,4141,42,50,840,1800,1940,2216,2336,2134,1889,1914,2028
920748,61292,29064,62132,29364,1205,949,504,278,313,135,792,4171,59,54,840,1800,1940,2216,2336,2134,1889,1914,2028
921749,61340,29144,62197,29429,1576,580,497,293,306,1,768,3956,37,48,839,1800,1940,2216,2336,2134,1889,1914,2028
922750,61416,29196,62262,29494,1212,946,485,270,283,70,930,3837,49,51,838,1809,1947,2233,2346,2112,1869,1893,2013
923751,61472,29260,62327,29559,1474,797,474,253,268,268,707,3971,49,52,839,1809,1947,2233,2346,2112,1869,1893,2013
924752,61540,29320,62392,29624,1321,854,455,249,255,338,993,3938,41,43,838,1809,1947,2233,2346,2112,1869,1893,2013
925753,61588,29392,62457,29689,1591,696,447,248,242,115,946,4160,38,54,839,1809,1947,2233,2346,2112,1869,1893,2013
926754,61632,29456,62522,29754,1668,797,428,245,240,31,845,4115,54,40,838,1809,1947,2233,2346,2112,1869,1893,2013
927755,61704,29524,62587,29819,1309,744,402,237,231,204,946,3977,41,55,837,1826,1966,2256,2367,2108,1870,1897,2019
928756,61756,29600,62652,29884,1575,630,385,213,222,135,1035,3881,51,55,839,1826,1966,2256,2367,2108,1870,1897,2019
929757,61824,29652,62717,29949,1373,946,359,188,208,138,999,3986,45,43,839,1826,1966,2256,2367,2108,1870,1897,2019
930758,61880,29712,62782,30014,1534,852,338,188,204,157,960,3885,45,52,838,1826,1966,2256,2367,2108,1870,1897,2019
931759,61932,29784,62847,30079,1599,694,322,178,213,286,1105,4167,50,53,837,1826,1966,2256,2367,2108,1870,1897,2019
932760,61992,29840,62912,30144,1507,905,323,193,220,280,994,3975,43,43,837,1826,1966,2256,2367,2108,1870,1897,2019
933761,62044,29920,62977,30209,1622,586,321,191,227,344,1033,4049,49,42,837,1824,1962,2253,2356,2146,1904,1928,2059
934762,62096,29980,63042,30274,1638,843,314,202,228,323,1049,4000,35,57,837,1824,1962,2253,2356,2146,1904,1928,2059
935763,62156,30052,63107,30339,1545,685,310,195,229,253,1022,3977,44,43,836,1824,1962,2253,2356,2146,1904,1928,2059
936764,62196,30128,63172,30404,1826,621,310,206,231,351,1121,4073,55,40,838,1824,1962,2253,2356,2146,1904,1928,2059
937765,62252,30184,63237,30469,1638,882,311,193,231,468,1140,4076,54,54,836,1824,1962,2253,2356,2146,1904,1928,2059
938766,62328,30244,63302,30534,1374,839,304,184,220,475,1088,3935,43,52,834,1790,1934,2230,2321,2180,1928,1944,2073
939767,62372,30324,63367,30599,1800,570,311,178,203,393,1307,4134,52,51,837,1790,1934,2230,2321,2180,1928,1944,2073
940768,62432,30388,63432,30664,1607,771,314,181,197,273,1097,4228,54,57,837,1790,1934,2230,2321,2180,1928,1944,2073
941769,62500,30456,63497,30729,1504,718,309,188,181,442,1167,3971,55,54,837,1790,1934,2230,2321,2180,1928,1944,2073
942770,62576,30496,63562,30794,1390,1098,305,190,159,524,1407,4129,49,45,838,1790,1934,2230,2321,2180,1928,1944,2073
943771,62632,30588,63627,30859,1652,416,301,204,155,225,1173,4283,56,42,837,1790,1934,2230,2321,2180,1928,1944,2073
944772,62688,30652,63692,30924,1663,768,289,235,144,346,1238,4154,59,52,838,1774,1917,2219,2313,2166,1909,1921,2045
945773,62780,30716,63757,30989,1181,769,274,237,127,482,1144,3979,47,57,838,1774,1917,2219,2313,2166,1909,1921,2045
946774,62824,30784,63822,31054,1807,715,247,248,114,369,979,4221,62,42,839,1774,1917,2219,2313,2166,1909,1921,2045
947775,62896,30828,63887,31119,1448,1041,217,249,99,166,1165,3942,49,51,838,1774,1917,2219,2313,2166,1909,1921,2045
948776,62968,30900,63952,31184,1441,682,181,230,90,394,1067,4133,52,56,836,1774,1917,2219,2313,2166,1909,1921,2045
949777,63036,30972,64017,31249,1487,674,145,248,99,416,828,4127,39,42,838,1791,1932,2244,2344,2136,1890,1904,2024
950778,63084,31052,64082,31314,1758,555,111,261,96,592,1073,3921,46,43,839,1791,1932,2244,2344,2136,1890,1904,2024
951779,63144,31112,64147,31379,1615,811,70,282,121,358,851,4171,41,57,837,1791,1932,2244,2344,2136,1890,1904,2024
952780,63216,31180,64346,31578,1620,871,28,328,133,368,1063,4179,44,44,836,1791,1932,2244,2344,2136,1890,1904,2024
953781,63264,31236,64411,31643,1942,1033,11,353,135,586,1127,3924,42,50,836,1791,1932,2244,2344,2136,1890,1904,2024
954782,63324,31320,64476,31708,1798,660,-14,338,150,556,1084,3917,37,47,834,1791,1932,2244,2344,2136,1890,1904,2024
955783,63384,31404,64541,31773,1804,637,-36,350,158,359,1084,3913,39,48,834,1813,1949,2266,2365,2150,1909,1923,2049
956784,63452,31484,64606,31838,1701,669,-49,363,149,382,1192,3850,42,55,835,1813,1949,2266,2365,2150,1909,1923,2049
957785,63492,31544,64671,31903,2082,925,-62,387,146,583,1092,4017,57,44,836,1813,1949,2266,2365,2150,1909,1923,2049
958786,63556,31608,64736,31968,1784,876,-68,424,162,580,1161,3869,38,53,834,1813,1949,2266,2365,2150,1909,1923,2049
959787,63620,31696,64801,32033,1785,548,-61,429,148,557,1318,3770,44,48,833,1813,1949,2266,2365,2150,1909,1923,2049
960788,63696,31752,64866,32098,1623,960,-55,454,125,574,1368,4042,49,54,836,1805,1940,2255,2350,2180,1930,1940,2064
961789,63768,31848,64931,32163,1664,422,-33,491,106,750,1563,3978,60,63,836,1805,1940,2255,2350,2180,1930,1940,2064
962790,63832,31904,64996,32228,1766,933,-22,543,92,591,1537,4168,57,46,837,1805,1940,2255,2350,2180,1930,1940,2064
963791,63908,31984,65061,32293,1603,615,-17,580,73,536,1595,4210,60,56,837,1805,1940,2255,2350,2180,1930,1940,2064
964792,63984,32064,65126,32358,1590,596,-8,626,46,710,1539,3971,47,47,836,1805,1940,2255,2350,2180,1930,1940,2064
965793,64064,32128,65191,32423,1522,798,-7,626,22,677,1614,4104,45,54,838,1805,1940,2255,2350,2180,1930,1940,2064
966794,64124,32204,65256,32488,1778,634,-8,630,-9,293,1658,4083,48,47,838,1780,1918,2228,2323,2150,1899,1909,2022
967795,64204,32288,65321,32553,1511,511,-24,637,-27,159,1517,4103,47,46,837,1780,1918,2228,2323,2150,1899,1909,2022
968796,64264,32344,65386,32618,1767,872,-35,642,-37,366,1654,3968,62,56,838,1780,1918,2228,2323,2150,1899,1909,2022
969797,64324,32412,65451,32683,1774,719,-49,631,-49,436,1581,3969,58,46,838,1780,1918,2228,2323,2150,1899,1909,2022
970798,64400,32480,65516,32748,1561,716,-58,628,-62,309,1629,3923,49,50,834,1780,1918,2228,2323,2150,1899,1909,2022
971799,64480,32560,65581,32813,1492,547,-62,621,-69,161,1478,3777,60,44,836,1786,1928,2240,2344,2100,1864,1878,1993
972800,64532,32616,65646,32878,1859,858,-81,637,-80,386,1467,3944,42,58,837,1786,1928,2240,2344,2100,1864,1878,1993
973801,64600,32664,65711,32943,1656,979,-100,652,-87,444,1343,3704,42,52,837,1786,1928,2240,2344,2100,1864,1878,1993
974802,64660,32748,65776,33008,1763,506,-112,663,-92,595,1353,3683,55,54,834,1786,1928,2240,2344,2100,1864,1878,1993
975803,64748,32820,65841,33073,1385,647,-118,698,-108,596,1327,3649,55,64,835,1786,1928,2240,2344,2100,1864,1878,1993
976804,64812,32896,65906,33138,1687,584,-127,728,-136,918,1374,3873,47,51,837,1814,1955,2273,2368,2091,1863,1880,1993
977805,64876,32956,65971,33203,1688,790,-132,752,-147,642,1229,3780,52,44,840,1814,1955,2273,2368,2091,1863,1880,2006
978806,64952,33040,66036,33268,1525,467,-143,770,-163,-17,1544,3451,57,46,837,1814,1955,2273,2368,2091,1863,1880,2006
979807,65028,33112,66101,33333,1512,608,-157,808,-191,510,1308,3708,63,45,836,1814,1955,2273,2368,2091,1863,1880,2006
980808,65100,33176,66166,33398,1554,710,-184,834,-184,1797,1072,4137,58,56,839,1814,1955,2273,2368,2091,1863,1880,2006
981809,65172,33252,66231,33463,1546,547,-197,772,-195,1341,1656,3636,64,48,839,1814,1955,2273,2368,2091,1863,1880,2006
982810,65244,33308,66296,33528,1538,808,-204,718,-241,-412,1767,3327,64,42,838,1816,1954,2265,2356,2114,1882,1901,2027
983811,65316,33376,66361,33593,1529,654,-223,688,-296,-275,1537,3651,47,52,839,1816,1954,2265,2356,2114,1882,1901,2027
984812,65412,33452,66426,33658,1192,541,-230,683,-335,1056,1778,3712,66,49,838,1816,1954,2265,2356,2114,1882,1901,2027
985813,65472,33520,66491,33723,1648,637,-241,658,-364,704,1786,3347,58,49,839,1816,1954,2265,2356,2114,1882,1901,2027
986814,65540,33600,66556,33788,1546,469,-247,620,-410,-32,1803,3444,44,52,842,1816,1954,2265,2356,2114,1882,1901,2027
987815,65624,33664,66621,33853,1323,670,-260,604,-444,145,1544,3670,55,51,837,1778,1923,2222,2304,2147,1898,1918,2050
988816,65684,33732,66686,33918,1629,617,-251,586,-495,919,1901,3699,60,47,839,1778,1923,2222,2304,2147,1898,1918,2050
989817,65772,33804,66751,33983,1252,558,-241,556,-520,661,1722,3491,44,57,838,1778,1923,2222,2304,2147,1898,1918,2050
990818,65824,33872,66816,34048,1717,604,-261,574,-522,285,1435,4002,48,57,837,1778,1923,2222,2304,2147,1898,1918,2050
991819,65884,33956,66881,34113,1624,381,-261,630,-542,740,1590,3894,48,56,842,1778,1923,2222,2304,2147,1898,1918,2050
992820,65956,34028,66946,34178,1466,523,-266,632,-534,660,1362,3495,45,54,837,1778,1923,2222,2304,2147,1898,1918,2050
993821,66036,34088,67011,34243,1348,679,-268,636,-562,611,1660,3848,44,60,839,1741,1900,2195,2263,2143,1890,1906,2043
994822,66108,34152,67076,34308,1440,631,-282,621,-571,58,1355,3478,46,45,840,1741,1900,2195,2263,2143,1890,1906,2043
995823,66184,34232,67141,34373,1377,413,-301,627,-570,178,1110,3673,44,58,839,1741,1900,2195,2263,2143,1890,1906,2043
996824,66236,34312,67206,34438,1693,394,-336,653,-566,866,1123,3676,51,48,839,1741,1900,2195,2263,2143,1890,1906,2043
997825,66316,34388,67271,34503,1325,431,-367,626,-559,657,1254,3395,57,60,841,1741,1900,2195,2263,2143,1890,1906,2043
998826,66396,34448,67336,34568,1307,637,-399,555,-589,5,1457,3242,56,59,838,1751,1913,2216,2294,2119,1879,1889,2021
999827,66468,34508,67401,34633,1398,643,-426,516,-611,-645,1300,3355,45,48,842,1751,1913,2216,2294,2119,1879,1889,2021
1000828,66544,34592,67466,34698,1336,320,-462,544,-634,4,1133,3580,52,62,840,1751,1913,2216,2294,2119,1879,1889,2021
1001829,66608,34680,67531,34763,1487,242,-514,565,-642,1432,770,3643,54,61,839,1751,1913,2216,2294,2119,1879,1889,2021
1002830,66688,34764,67596,34828,1269,269,-607,498,-631,1434,1006,2869,57,47,842,1751,1913,2216,2294,2119,1879,1889,2021
1003831,66776,34828,67661,34893,1142,520,-700,361,-671,290,1476,2635,50,60,841,1751,1913,2216,2294,2119,1879,1889,2021
1004832,66840,34896,67726,34958,1443,466,-785,282,-691,-195,1075,3149,67,54,843,1779,1931,2238,2322,2118,1884,1899,2034
1005833,66900,34972,67791,35023,1499,353,-833,318,-714,444,1169,3311,49,50,843,1779,1931,2238,2322,2118,1884,1899,2034
1006834,66992,35052,67856,35088,1067,284,-857,395,-745,1226,1206,3557,68,58,840,1779,1931,2238,2322,2118,1884,1899,2034
1007835,67072,35132,67921,35153,1199,266,-853,451,-782,1060,1319,3723,55,45,840,1779,1931,2238,2322,2118,1884,1899,2034
1008836,67164,35188,67986,35218,1016,577,-831,435,-803,338,1335,3233,57,46,844,1779,1931,2238,2322,2118,1884,1899,2034
1009837,67236,35264,68051,35283,1258,314,-820,404,-821,-300,1272,3408,56,57,843,1749,1903,2188,2256,2167,1911,1925,2067
1010838,67324,35336,68116,35348,1030,355,-835,408,-840,207,1192,3581,49,50,843,1749,1903,2188,2256,2167,1911,1925,2067
1011839,67400,35396,68181,35413,1167,511,-829,411,-868,800,1275,3347,53,55,843,1749,1903,2188,2256,2167,1911,1925,2067
1012840,67492,35472,68246,35478,935,298,-825,376,-898,267,1398,3234,67,45,844,1749,1903,2188,2256,2167,1911,1925,2067
1013841,67568,35544,68311,35543,1121,339,-830,370,-920,-251,1345,3613,63,46,843,1749,1903,2188,2256,2167,1911,1925,2067
1014842,67656,35612,68376,35608,943,386,-848,376,-923,-37,1295,3425,58,48,845,1749,1903,2188,2256,2167,1911,1925,2067
1015843,67744,35672,68441,35673,915,492,-862,385,-927,357,1362,3403,57,42,843,1711,1887,2158,2234,2149,1891,1909,2039
1016844,67824,35756,68506,35738,998,169,-876,381,-940,82,1449,3364,47,55,845,1711,1887,2158,2234,2149,1891,1909,2039
1017845,67884,35808,68571,35803,1254,584,-891,377,-933,-258,1216,3328,49,48,845,1711,1887,2158,2234,2149,1891,1909,2039
1018846,67960,35876,68636,35868,1041,381,-912,397,-910,-67,1259,3447,55,56,846,1711,1887,2158,2234,2149,1891,1909,2039
1019849,68048,35960,68701,35933,863,158,-947,405,-902,208,1256,3224,59,44,842,1711,1887,2158,2234,2149,1891,1909,2039
1020848,68136,36036,68766,35998,836,244,-974,398,-897,17,1188,3060,52,55,844,1734,1915,2181,2276,2085,1849,1868,1989
1021849,68208,36096,68831,36063,1027,450,-999,391,-905,-46,1127,3124,49,45,847,1734,1915,2181,2276,2085,1849,1868,1989
1022850,68296,36152,68896,36128,799,511,-1028,386,-919,-35,1036,3101,47,57,847,1734,1915,2181,2276,2085,1849,1868,1989
1023851,68372,36216,68961,36193,935,412,-1065,375,-938,147,923,3150,57,45,843,1734,1915,2181,2276,2085,1849,1868,1989
1024852,68468,36296,69026,36258,649,194,-1092,353,-958,221,926,2931,49,54,844,1734,1915,2181,2276,2085,1849,1868,1989
1025853,68560,36372,69091,36323,666,231,-1110,325,-1000,232,955,3082,48,57,845,1734,1915,2181,2276,2085,1849,1868,1989
1026854,68616,36428,69156,36388,1127,492,-1128,321,-1037,203,879,3166,59,49,848,1782,1948,2219,2319,2056,1833,1851,1975
1027855,68708,36508,69221,36453,644,173,-1134,319,-1072,364,941,3237,42,59,847,1782,1948,2219,2319,2056,1833,1851,1975
1028856,68784,36564,69286,36518,830,484,-1153,301,-1095,263,895,2978,45,55,843,1782,1948,2219,2319,2056,1833,1851,1975
1029857,68868,36624,69351,36583,708,440,-1158,289,-1126,121,1004,3149,48,55,848,1782,1948,2219,2319,2056,1833,1851,1975
1030858,68936,36712,69416,36648,904,62,-1160,303,-1160,222,1083,3064,51,47,845,1782,1948,2219,2319,2056,1833,1851,1975
1031859,69020,36788,69481,36713,681,199,-1154,299,-1185,120,1168,3094,63,45,847,1786,1949,2208,2303,2068,1838,1867,1992
1032860,69104,36852,69546,36778,658,350,-1157,285,-1199,-52,1101,3054,64,58,846,1786,1949,2208,2303,2068,1838,1867,1992
1033861,69192,36920,69611,36843,580,297,-1143,266,-1206,-207,1145,2988,46,56,848,1786,1949,2208,2303,2068,1838,1867,1992
1034862,69260,37000,69676,36908,826,128,-1134,256,-1225,-5,1400,3088,41,43,847,1786,1949,2208,2303,2068,1838,1867,1992
1035863,69352,37084,69741,36973,494,55,-1126,246,-1213,-262,1150,3291,41,56,848,1786,1949,2208,2303,2068,1838,1867,1992
