%  Data file recorded 2016/8/28  20:4:52
%  Stride Frequency         = [1, 1]
%  Lead In /Lead Out        = 
%  Deltas (Fractional)      = [0.25, 0.25, 0.25],[0.25, 0.25, 0.25]
%  Phase                    = 32768
%  Experiment.py 
%  Motor Gains    = [5000, 400, 200, 0, 300, 5000, 400, 200, 0, 300]
% Columns: 
% time | Right Leg Pos | Left Leg Pos | Commanded Right Leg Pos | Commanded Left Leg Pos | DCR | DCL | GyroX | GyroY | GyroZ | AX | AY | AZ | RBEMF | LBEMF | VBatt | S1 | S2 | S3 | S4 | S5 | S6 | S7 | S8
844,-10944,-18232,-30978,1790,-3800,3800,42,-62,30,19,47,3979,1,-2,859,1703,1815,2045,2212,2055,1825,1888,2004
1845,-10944,-18228,-30978,1790,-3800,3800,45,-61,28,15,6,3980,12,10,860,1703,1815,2045,2212,2055,1825,1888,2004
2846,-10948,-18228,-30978,1790,-3800,3800,45,-58,26,27,-12,3948,12,-2,859,1703,1815,2045,2212,2055,1825,1888,2004
3847,-10944,-18236,-30978,1790,-3800,3800,43,-57,26,8,25,3933,10,-5,859,1703,1815,2045,2212,2055,1825,1888,2004
4848,-10944,-18240,-30978,1790,-3800,3800,42,-59,26,-5,36,3927,-1,0,860,1703,1815,2045,2212,2055,1825,1888,2004
5849,-10948,-18228,-30978,1790,-3800,3800,43,-61,28,22,17,3897,-1,10,859,1703,1816,2045,2213,2055,1905,2087,2078
6850,-10948,-18228,-30978,1790,-3800,3800,45,-60,29,20,27,3919,-6,8,859,1703,1816,2045,2213,2055,1905,2087,2078
7851,-10940,-18232,-30978,1790,-3800,3800,46,-60,29,12,25,3949,-4,-2,859,1703,1816,2045,2213,2055,1905,2087,2078
8852,-10940,-18228,-30978,1790,-3800,3800,44,-60,29,-4,18,3941,1,-4,859,1703,1816,2045,2213,2055,1905,2087,2078
9853,-10940,-18232,-30978,1790,-3800,3800,44,-63,29,20,38,3939,10,3,859,1703,1816,2045,2213,2055,1905,2087,2078
10854,-10940,-18228,-30978,1790,-3800,3800,44,-63,29,8,39,3951,13,8,859,1703,1816,2045,2212,2056,1825,1888,2004
11855,-10936,-18228,-30978,1790,-3800,3800,43,-62,27,6,45,3923,12,-5,859,1703,1816,2045,2212,2056,1825,1888,2004
12856,-10940,-18240,-30978,1790,-3800,3800,44,-62,27,3,54,3935,13,-1,859,1703,1816,2045,2212,2056,1825,1888,2004
13857,-10948,-18232,-30978,1790,-3800,3800,44,-61,26,10,56,3952,6,9,859,1703,1816,2045,2212,2056,1825,1888,2004
14858,-10932,-18244,-30978,1790,-3800,3800,46,-62,26,8,35,3924,-4,-3,859,1703,1816,2045,2212,2056,1825,1888,2004
15859,-10936,-18232,-30978,1790,-3800,3800,45,-63,26,28,14,3906,-4,-3,859,1703,1815,2043,2259,2132,1940,1890,2006
16860,-10928,-18232,-30978,1790,-3800,3800,43,-62,27,47,8,3945,6,10,859,1703,1815,2043,2259,2132,1940,1890,2006
17861,-10944,-18224,-30978,1790,-3800,3800,43,-61,27,32,31,3958,12,-1,859,1703,1815,2043,2259,2132,1940,1890,2006
18862,-10940,-18228,-30978,1790,-3800,3800,43,-59,27,34,13,3921,7,-5,859,1703,1815,2043,2259,2132,1940,1890,2006
19863,-10936,-18244,-30978,1790,-3800,3800,44,-60,26,20,22,3898,-4,8,858,1703,1815,2043,2259,2132,1940,1890,2006
20864,-10940,-18228,-30978,1790,-3800,3800,43,-61,26,11,22,3932,2,2,858,1703,1815,2043,2259,2132,1940,1890,2006
21865,-10944,-18232,-30978,1790,-3800,3800,42,-62,25,-2,29,3948,-1,-5,859,1705,1817,2045,2212,2056,1825,1888,2003
22866,-10932,-18240,-30978,1790,-3800,3800,41,-60,26,0,28,3913,2,4,859,1705,1817,2045,2212,2056,1825,1888,2003
23867,-10936,-18236,-30978,1790,-3800,3800,40,-60,27,11,61,3905,7,8,859,1705,1817,2045,2212,2056,1825,1888,2003
24868,-10944,-18224,-30978,1790,-3800,3800,41,-62,26,11,25,3896,0,-3,859,1705,1817,2045,2212,2056,1825,1888,2003
25869,-10944,-18232,-30978,1790,-3800,3800,43,-63,24,14,23,3904,-5,2,859,1705,1817,2045,2212,2056,1825,1888,2003
26870,-10932,-18228,-30978,1790,-3800,3800,42,-62,24,-12,27,3935,-6,8,859,1703,1844,2127,2310,2060,1828,1890,2004
27871,-10940,-18240,-30978,1790,-3800,3800,41,-61,28,-19,21,3935,-6,-1,859,1703,1844,2127,2310,2060,1828,1890,2004
28872,-10940,-18236,-30978,1790,-3800,3800,37,-59,29,-11,12,3934,-5,0,859,1703,1844,2127,2310,2060,1828,1890,2004
29873,-10932,-18228,-30978,1790,-3800,3800,37,-63,28,24,28,3949,-6,9,859,1703,1844,2127,2310,2060,1828,1890,2004
30874,-10936,-18240,-30978,1790,-3800,3800,38,-63,25,10,38,3949,-1,4,859,1703,1844,2127,2310,2060,1828,1890,2004
31875,-10936,-18240,-30978,1790,-3800,3800,37,-62,27,14,18,3933,2,-4,859,1703,1844,2127,2310,2060,1828,1890,2004
32876,-10948,-18232,-30978,1790,-3800,3800,38,-61,28,10,28,3937,2,10,859,1704,1816,2045,2211,2055,1824,1887,2003
33877,-10948,-18236,-30978,1790,-3800,3800,38,-63,27,24,21,3964,6,6,859,1704,1816,2045,2211,2055,1824,1887,2003
34878,-10940,-18232,-30978,1790,-3800,3800,38,-62,28,-3,27,3940,13,-4,859,1704,1816,2045,2211,2055,1824,1887,2003
35879,-10940,-18228,-30978,1790,-3800,3800,38,-60,27,-11,24,3930,11,10,859,1704,1816,2045,2211,2055,1824,1887,2003
36880,-10932,-18232,-30978,1790,-3800,3800,41,-59,27,20,24,3921,13,-4,858,1704,1816,2045,2211,2055,1824,1887,2003
37881,-10948,-18232,-30978,1790,-3800,3800,41,-61,28,9,35,3939,13,8,858,1768,1916,2045,2211,2054,1824,1888,2003
38882,-10936,-18232,-30978,1790,-3800,3800,41,-61,28,15,32,3938,11,4,860,1768,1916,2045,2211,2054,1824,1888,2003
39883,-10948,-18232,-30978,1790,-3800,3800,41,-61,28,10,22,3949,12,-4,859,1768,1916,2045,2211,2054,1824,1888,2003
40884,-10952,-18236,-30978,1790,-3800,3800,40,-61,27,24,33,3943,13,2,859,1768,1916,2045,2211,2054,1824,1888,2003
41885,-10940,-18224,-30978,1790,-3800,3800,41,-61,26,38,34,3968,10,9,859,1768,1916,2045,2211,2054,1824,1888,2003
42886,-10932,-18236,-30978,1790,-3800,3800,40,-62,29,20,39,3947,12,3,859,1768,1916,2045,2211,2054,1824,1888,2003
43887,-10932,-18232,-30978,1790,-3800,3800,40,-61,29,11,29,3921,13,-4,859,1703,1815,2045,2211,2056,1826,1889,2001
44888,-10940,-18224,-30978,1790,-3800,3800,41,-61,28,16,13,3933,9,6,859,1703,1815,2045,2211,2056,1826,1889,2001
45889,-10932,-18232,-30978,1790,-3800,3800,42,-63,27,13,27,3931,13,10,859,1703,1815,2045,2211,2056,1826,1889,2001
46890,-10936,-18236,-30978,1790,-3800,3800,41,-63,28,25,32,3940,9,2,859,1703,1815,2045,2211,2056,1826,1889,2001
47891,-10940,-18240,-30978,1790,-3800,3800,41,-63,27,38,24,3938,13,-5,860,1703,1815,2045,2211,2056,1826,1889,2001
48892,-10948,-18236,-30978,1790,-3800,3800,40,-62,28,7,1,3924,13,-5,859,1703,1815,2045,2212,2055,1825,1887,2002
49893,-10936,-18224,-30978,1790,-3800,3800,42,-60,27,31,9,3904,10,4,859,1703,1815,2045,2212,2055,1825,1887,2002
50894,-10944,-18220,-30978,1790,-3800,3800,44,-61,28,16,26,3935,10,9,859,1703,1815,2045,2212,2055,1825,1887,2002
51895,-10936,-18232,-30978,1790,-3800,3800,44,-61,30,-1,51,3931,8,2,860,1703,1815,2045,2212,2055,1825,1887,2002
52896,-10948,-18248,-30978,1790,-3800,3800,43,-61,30,4,62,3891,-6,-4,860,1703,1815,2045,2212,2055,1825,1887,2002
53897,-10940,-18240,-30978,1790,-3800,3800,42,-61,30,38,13,3914,-6,8,858,1703,1815,2045,2212,2055,1825,1887,2002
54898,-10936,-18236,-30978,1790,-3800,3800,42,-60,30,23,22,3920,-6,-2,858,1702,1813,2043,2211,2055,1826,1890,2116
55899,-10932,-18236,-30978,1790,-3800,3800,44,-61,29,-7,18,3935,-1,-1,859,1702,1813,2043,2211,2055,1826,1890,2116
56900,-10932,-18228,-30978,1790,-3800,3800,46,-59,30,0,10,3947,-1,9,859,1702,1813,2043,2211,2055,1826,1890,2116
57901,-10940,-18228,-30978,1790,-3800,3800,46,-60,29,26,21,3947,7,8,859,1702,1813,2043,2211,2055,1826,1890,2116
58902,-10932,-18224,-30978,1790,-3800,3800,45,-59,32,30,38,3917,13,-4,859,1702,1813,2043,2211,2055,1826,1890,2116
59903,-10940,-18228,-30978,1790,-3800,3800,45,-60,31,24,47,3886,11,0,859,1704,1816,2044,2211,2054,1825,1888,2003
60904,-10940,-18232,-30978,1790,-3800,3800,44,-62,29,13,26,3920,12,6,859,1704,1816,2044,2211,2054,1825,1888,2003
61905,-10948,-18232,-30978,1790,-3800,3800,43,-62,28,29,19,3943,12,9,859,1704,1816,2044,2211,2054,1825,1888,2003
62906,-10936,-18244,-30978,1790,-3800,3800,43,-60,27,23,-5,3904,13,-3,859,1704,1816,2044,2211,2054,1825,1888,2003
63907,-10944,-18236,-30978,1790,-3800,3800,45,-59,28,13,30,3959,12,-4,859,1704,1816,2044,2211,2054,1825,1888,2003
64908,-10928,-18232,-30978,1790,-3800,3800,45,-58,28,9,49,3971,12,9,859,1704,1816,2044,2211,2054,1825,1888,2003
65909,-10932,-18236,-30978,1790,-3800,3800,45,-59,26,31,21,3969,13,5,859,1703,1817,2047,2214,2058,1934,2088,2004
66910,-10948,-18232,-30978,1790,-3800,3800,44,-62,28,33,8,3958,10,-4,860,1703,1817,2047,2214,2058,1934,2088,2004
67911,-10948,-18236,-30978,1790,-3800,3800,44,-63,29,24,29,3954,7,4,859,1703,1817,2047,2214,2058,1934,2088,2004
68912,-10940,-18236,-30978,1790,-3800,3800,42,-60,26,22,45,3970,9,10,859,1703,1817,2047,2214,2058,1934,2088,2004
69913,-10940,-18228,-30978,1790,-3800,3800,44,-57,24,26,38,3943,-4,6,860,1703,1817,2047,2214,2058,1934,2088,2004
70914,-10944,-18232,-30978,1790,-3800,3800,44,-60,26,16,27,3915,-4,-1,858,1705,1816,2046,2211,2055,1825,1888,2003
71915,-10940,-18232,-30978,1790,-3800,3800,44,-63,29,31,11,3923,-5,6,858,1705,1816,2046,2211,2055,1825,1888,2003
72916,-10932,-18236,-30978,1790,-3800,3800,43,-64,28,21,26,3913,2,-4,859,1705,1816,2046,2211,2055,1825,1888,2003
73917,-10936,-18228,-30978,1790,-3800,3800,41,-60,28,11,28,3919,11,2,859,1705,1816,2046,2211,2055,1825,1888,2003
74918,-10928,-18232,-30978,1790,-3800,3800,42,-57,27,-11,13,3941,10,9,859,1705,1816,2046,2211,2055,1825,1888,2003
75919,-10944,-18240,-30978,1790,-3800,3800,44,-60,26,25,14,3930,13,2,859,1705,1816,2046,2211,2055,1825,1888,2003
76920,-10940,-18232,-30978,1790,-3800,3800,43,-63,27,19,8,3933,11,-4,859,1708,1818,2047,2303,2138,1826,1888,2004
77921,-10940,-18224,-30978,1790,-3800,3800,41,-61,28,16,51,3940,13,8,859,1708,1818,2047,2303,2138,1826,1888,2004
78922,-10932,-18228,-30978,1790,-3800,3800,41,-58,27,17,43,3941,13,10,859,1708,1818,2047,2303,2138,1826,1888,2004
79923,-10940,-18228,-30978,1790,-3800,3800,41,-59,28,23,23,3936,10,3,859,1708,1818,2047,2303,2138,1826,1888,2004
80924,-10936,-18228,-30978,1790,-3800,3800,39,-64,29,33,3,3950,5,-5,859,1708,1818,2047,2303,2138,1826,1888,2004
81925,-10940,-18236,-30978,1790,-3800,3800,39,-65,26,19,45,3962,-6,-3,859,1705,1816,2045,2211,2055,1825,1887,2003
82926,-10932,-18232,-30978,1790,-3800,3800,37,-63,26,20,42,3936,-3,10,859,1705,1816,2045,2211,2055,1825,1887,2003
83927,-10936,-18236,-30978,1790,-3800,3800,38,-57,27,10,29,3945,-3,4,859,1705,1816,2045,2211,2055,1825,1887,2003
84928,-10948,-18232,-30978,1790,-3800,3800,41,-60,27,23,29,3966,5,-3,860,1705,1816,2045,2211,2055,1825,1887,2003
85929,-10936,-18224,-30978,1790,-3800,3800,40,-62,25,17,27,3926,11,-1,859,1705,1816,2045,2211,2055,1825,1887,2003
86930,-10932,-18236,-30978,1790,-3800,3800,39,-61,28,16,36,3944,12,10,859,1705,1816,2045,2211,2055,1825,1887,2003
87931,-10948,-18240,-30978,1790,-3800,3800,40,-61,27,2,18,3941,13,4,858,1706,1912,2136,2212,2056,1825,1888,2004
88932,-10932,-18232,-30978,1790,-3800,3800,41,-61,25,19,15,3956,12,-4,858,1706,1912,2136,2212,2056,1825,1888,2004
89933,-10932,-18236,-30978,1790,-3800,3800,40,-60,24,7,30,3931,13,7,859,1706,1912,2136,2212,2056,1825,1888,2004
90934,-10940,-18236,-30978,1790,-3800,3800,39,-61,25,10,25,3965,12,10,859,1706,1912,2136,2212,2056,1825,1888,2004
91935,-10944,-18240,-30978,1790,-3800,3800,39,-61,27,-9,42,3932,11,5,859,1706,1912,2136,2212,2056,1825,1888,2004
92936,-10952,-18232,-30978,1790,-3800,3800,41,-62,27,19,19,3897,4,-5,859,1703,1815,2045,2212,2056,1826,1889,2004
93937,-10932,-18228,-30978,1790,-3800,3800,41,-61,24,19,38,3884,4,-4,860,1703,1815,2045,2212,2056,1826,1889,2004
94938,-10936,-18232,-30978,1790,-3800,3800,40,-61,23,16,26,3915,1,5,859,1703,1815,2045,2212,2056,1826,1889,2004
95939,-10944,-18228,-30978,1790,-3800,3800,40,-62,26,27,30,3922,-4,9,859,1703,1815,2045,2212,2056,1826,1889,2004
96940,-10932,-18224,-30978,1790,-3800,3800,40,-63,25,13,19,3938,-2,2,859,1703,1815,2045,2212,2056,1826,1889,2004
97941,-10936,-18232,-30978,1790,-3800,3800,41,-60,26,21,-1,3965,-2,-4,859,1703,1815,2045,2212,2056,1826,1889,2004
98942,-10936,-18232,-30978,1790,-3800,3800,40,-59,29,40,35,3957,-3,7,859,1774,1816,2045,2211,2055,1825,1887,2003
99943,-10932,-18240,-30978,1790,-3800,3800,39,-62,27,29,48,3944,-2,10,859,1774,1816,2045,2211,2055,1825,1887,2003
100944,-10936,-18228,-30978,1790,-3800,3800,40,-64,28,14,16,3964,-2,0,859,1774,1816,2045,2211,2055,1825,1887,2003
101945,-10940,-18240,-30978,1790,-3800,3800,41,-64,27,5,25,3964,-7,-1,859,1774,1816,2045,2211,2055,1825,1887,2003
102946,-10944,-18228,-30978,1790,-3800,3800,40,-61,27,29,22,3986,-6,8,859,1774,1816,2045,2211,2055,1825,1887,2003
103947,-10936,-18240,-30978,1790,-3800,3800,41,-60,30,15,21,4008,-5,3,860,1705,1816,2045,2212,2055,1825,1888,2003
104948,-10948,-18232,-30978,1790,-3800,3800,39,-59,29,6,19,3977,-6,0,858,1705,1816,2045,2212,2055,1825,1888,2003
105949,-10944,-18232,-30978,1790,-3800,3800,40,-60,28,16,16,3957,-2,10,858,1705,1816,2045,2212,2055,1825,1888,2003
106950,-10948,-18232,-30978,1790,-3800,3800,42,-60,29,32,19,3939,-4,-2,859,1705,1816,2045,2212,2055,1825,1888,2003
107951,-10948,-18236,-30978,1790,-3800,3800,43,-62,29,-3,38,3965,1,-1,859,1705,1816,2045,2212,2055,1825,1888,2003
108952,-10944,-18244,-30978,1790,-3800,3800,43,-62,29,-18,29,3966,-1,6,859,1705,1816,2045,2212,2055,1825,1888,2003
109953,-10944,-18228,-30978,1790,-3800,3800,42,-60,29,-10,18,3939,0,9,859,1704,1815,2044,2212,2055,1825,1887,2003
110954,-10936,-18228,-30978,1790,-3800,3800,41,-60,29,3,17,3938,13,1,859,1704,1815,2044,2212,2055,1825,1887,2003
111955,-10944,-18240,-30978,1790,-3800,3800,42,-60,28,11,20,3936,13,1,859,1704,1815,2044,2212,2055,1825,1887,2003
112956,-10932,-18224,-30978,1790,-3800,3800,43,-62,26,-18,14,3927,12,-5,859,1704,1815,2044,2212,2055,1825,1887,2003
113957,-10936,-18232,-30978,1790,-3800,3800,46,-60,28,29,14,3937,4,4,859,1704,1815,2044,2212,2055,1825,1887,2003
114958,-10936,-18232,-30978,1790,-3800,3800,45,-59,29,17,9,3910,2,9,860,1705,1816,2045,2212,2055,1825,2073,2107
115959,-10940,-18240,-30978,1790,-3800,3800,45,-58,29,-9,37,3948,1,7,859,1705,1816,2045,2212,2055,1825,2073,2107
116960,-10940,-18228,-30978,1790,-3800,3800,45,-58,28,12,32,3928,-6,-2,859,1705,1816,2045,2212,2055,1825,2073,2107
117961,-10940,-18228,-30978,1790,-3800,3800,47,-57,28,38,34,3930,3,-4,859,1705,1816,2045,2212,2055,1825,2073,2107
118962,-10920,-18228,-30978,1790,-3800,3800,47,-58,28,7,6,3919,6,-1,859,1705,1816,2045,2212,2055,1825,2073,2107
119963,-10936,-18236,-30978,1790,-3800,3800,45,-58,29,39,2,3918,13,7,859,1705,1816,2045,2212,2055,1825,2073,2107
120964,-10936,-18228,-30978,1790,-3800,3800,43,-61,28,26,1,3946,6,9,859,1705,1816,2045,2213,2055,1825,1888,2003
121965,-10936,-18232,-30978,1790,-3800,3800,45,-62,28,10,11,3930,2,5,858,1705,1816,2045,2213,2055,1825,1888,2003
122966,-10948,-18236,-30978,1790,-3800,3800,45,-60,29,28,13,3905,-4,-5,858,1705,1816,2045,2213,2055,1825,1888,2003
123967,-10948,-18236,-30978,1790,-3800,3800,46,-60,28,16,36,3955,5,-3,859,1705,1816,2045,2213,2055,1825,1888,2003
124968,-10940,-18232,-30978,1790,-3800,3800,47,-59,28,20,29,3935,7,3,859,1705,1816,2045,2213,2055,1825,1888,2003
125969,-10936,-18240,-30978,1790,-3800,3800,44,-60,30,14,38,3954,12,10,859,1705,1817,2045,2213,2133,1943,1887,2003
126970,-10940,-18236,-30978,1790,-3800,3800,44,-60,29,17,27,3970,12,10,859,1705,1817,2045,2213,2133,1943,1887,2003
127971,-10932,-18232,-30978,1790,-3800,3800,43,-59,28,25,39,3970,9,8,859,1705,1817,2045,2213,2133,1943,1887,2003
128972,-10948,-18240,-30978,1790,-3800,3800,44,-58,26,4,65,3953,12,0,859,1705,1817,2045,2213,2133,1943,1887,2003
129973,-10932,-18228,-30978,1790,-3800,3800,44,-61,25,11,43,3955,12,-2,859,1705,1817,2045,2213,2133,1943,1887,2003
130974,-10936,-18228,-30978,1790,-3800,3800,42,-59,27,33,10,3953,7,-5,859,1705,1817,2045,2213,2133,1943,1887,2003
131975,-10932,-18232,-30978,1790,-3800,3800,42,-58,29,25,26,3885,8,1,859,1705,1816,2045,2212,2054,1825,1888,2003
132976,-10948,-18240,-30978,1790,-3800,3800,43,-60,30,10,27,3927,8,6,859,1705,1816,2045,2212,2054,1825,1888,2003
133977,-10948,-18236,-30978,1790,-3800,3800,44,-60,26,11,11,3943,8,8,860,1705,1816,2045,2212,2054,1825,1888,2003
134978,-10936,-18236,-30978,1790,-3800,3800,41,-62,27,23,-15,3890,13,-3,859,1705,1816,2045,2212,2054,1825,1888,2003
135981,-10948,-18240,-30978,1790,-3800,3800,40,-62,28,10,-3,3909,13,-5,859,1705,1816,2045,2212,2054,1825,1888,2003
136980,-10932,-18244,-30978,1790,-3800,3800,44,-60,28,33,24,3925,12,-1,859,1703,1815,2132,2314,2058,1828,1888,2004
137981,-10936,-18228,-30978,1790,-3800,3800,44,-59,28,19,27,3922,3,9,859,1703,1815,2132,2314,2058,1828,1888,2004
138982,-10944,-18236,-30978,1790,-3800,3800,42,-60,28,7,29,3941,3,9,858,1703,1815,2132,2314,2058,1828,1888,2004
139983,-10936,-18228,-30978,1790,-3800,3800,39,-62,27,3,39,3972,-3,-3,859,1703,1815,2132,2314,2058,1828,1888,2004
140984,-10940,-18228,-30978,1790,-3800,3800,40,-62,26,16,23,3967,-5,-2,859,1703,1815,2132,2314,2058,1828,1888,2004
141985,-10952,-18224,-30978,1790,-3800,3800,43,-61,27,22,27,3943,-2,2,859,1703,1815,2132,2314,2058,1828,1888,2004
142986,-10944,-18228,-30978,1790,-3800,3800,43,-59,27,-1,31,3934,-3,10,859,1705,1816,2045,2211,2054,1825,1888,2003
143987,-10940,-18232,-30978,1790,-3800,3800,40,-57,26,-1,14,3941,2,0,859,1705,1816,2045,2211,2054,1825,1888,2003
144988,-10940,-18228,-30978,1790,-3800,3800,40,-61,29,-14,36,3954,-3,0,859,1705,1816,2045,2211,2054,1825,1888,2003
145989,-10948,-18228,-30978,1790,-3800,3800,41,-65,29,2,41,3938,-6,-5,859,1705,1816,2045,2211,2054,1825,1888,2003
146990,-10948,-18236,-30978,1790,-3800,3800,40,-64,27,-22,18,3927,-4,1,859,1705,1816,2045,2211,2054,1825,1888,2003
147991,-10948,-18232,-30978,1790,-3800,3800,39,-61,29,-9,29,3916,-6,3,860,1774,1922,2047,2212,2056,1825,1888,2004
148992,-10936,-18232,-30978,1790,-3800,3800,38,-61,28,-6,32,3884,-6,10,859,1774,1922,2047,2212,2056,1825,1888,2004
149993,-10940,-18236,-30978,1790,-3800,3800,39,-60,28,15,10,3910,-6,1,859,1774,1922,2047,2212,2056,1825,1888,2004
150994,-10932,-18236,-30978,1790,-3800,3800,40,-59,25,7,-2,3909,-6,-1,859,1774,1922,2047,2212,2056,1825,1888,2004
151995,-10936,-18232,-30978,1790,-3800,3800,40,-61,25,14,15,3945,-6,-4,859,1774,1922,2047,2212,2056,1825,1888,2004
152996,-10948,-18232,-30978,1790,-3800,3800,41,-62,26,13,22,3930,-5,2,860,1774,1922,2047,2212,2056,1825,1888,2004
153997,-10940,-18236,-30978,1790,-3800,3800,41,-62,24,42,29,3911,-6,7,859,1706,1816,2045,2212,2055,1825,1887,2003
154998,-10936,-18236,-30978,1790,-3800,3800,41,-61,25,19,11,3882,-6,7,859,1706,1816,2045,2212,2055,1825,1887,2003
155999,-10940,-18248,-30978,1790,-3800,3800,42,-61,26,4,27,3934,-4,-5,858,1706,1816,2045,2212,2055,1825,1887,2003
157000,-10944,-18232,-30978,1790,-3800,3800,40,-63,25,23,17,3921,1,2,858,1706,1816,2045,2212,2055,1825,1887,2003
158001,-10940,-18232,-30978,1790,-3800,3800,40,-63,26,24,29,3935,3,10,859,1706,1816,2045,2212,2055,1825,1887,2003
159002,-10940,-18232,-30978,1790,-3800,3800,41,-61,29,8,25,3966,8,6,860,1705,1816,2044,2212,2054,1825,1888,2003
160003,-10936,-18228,-30978,1790,-3800,3800,43,-60,30,0,30,3957,6,2,859,1705,1816,2044,2212,2054,1825,1888,2003
161004,-10940,-18236,-30978,1790,-3800,3800,41,-60,28,14,24,3969,7,-5,859,1705,1816,2044,2212,2054,1825,1888,2003
162005,-10944,-18236,-30978,1790,-3800,3800,41,-62,31,0,13,3949,13,3,859,1705,1816,2044,2212,2054,1825,1888,2003
163006,-10936,-18236,-30978,1790,-3800,3800,42,-63,30,3,25,3957,13,9,859,1705,1816,2044,2212,2054,1825,1888,2003
164007,-10940,-18232,-30978,1790,-3800,3800,43,-64,30,2,28,3959,12,5,859,1705,1816,2044,2212,2054,1825,1888,2003
165008,-10944,-18236,-30978,1790,-3800,3800,42,-65,32,3,17,3965,10,-4,859,1705,1815,2045,2211,2055,1825,1887,2104
166009,-10944,-18232,-30978,1790,-3800,3800,42,-61,31,24,22,3938,12,-5,859,1705,1815,2045,2211,2055,1825,1887,2104
167010,-10944,-18240,-30978,1790,-3800,3800,42,-60,30,20,22,3948,12,0,859,1705,1815,2045,2211,2055,1825,1887,2104
168011,-10952,-18240,-30978,1790,-3800,3800,40,-60,28,11,27,3931,13,10,859,1705,1815,2045,2211,2055,1825,1887,2104
169012,-10940,-18228,-30978,1790,-3800,3800,41,-60,28,14,37,3931,12,8,859,1705,1815,2045,2211,2055,1825,1887,2104
170013,-10948,-18240,-30978,1790,-3800,3800,41,-59,26,18,40,3916,13,0,859,1705,1816,2044,2211,2055,1825,1887,2003
171014,-10944,-18236,-30978,1790,-3800,3800,41,-59,29,36,24,3934,11,-5,859,1705,1816,2044,2211,2055,1825,1887,2003
172015,-10944,-18236,-30978,1790,-3800,3800,42,-59,28,35,8,3920,12,-5,859,1705,1816,2044,2211,2055,1825,1887,2003
173016,-10940,-18228,-30978,1790,-3800,3800,42,-60,27,5,29,3950,12,0,858,1705,1816,2044,2211,2055,1825,1887,2003
174017,-10932,-18236,-30978,1790,-3800,3800,43,-64,26,5,12,3953,2,10,858,1705,1816,2044,2211,2055,1825,1887,2003
175018,-10948,-18232,-30978,1790,-3800,3800,45,-63,27,31,30,3893,1,10,859,1705,1816,2044,2211,2055,1825,1887,2003
176019,-10928,-18244,-30978,1790,-3800,3800,45,-61,28,46,14,3876,6,8,859,1705,1815,2044,2212,2056,1937,2095,2005
177020,-10940,-18236,-30978,1790,-3800,3800,45,-60,29,37,16,3891,1,5,859,1705,1815,2044,2212,2056,1937,2095,2005
178021,-10940,-18224,-30978,1790,-3800,3800,45,-61,31,7,9,3911,2,5,859,1705,1815,2044,2212,2056,1937,2095,2005
179022,-10940,-18236,-30978,1790,-3800,3800,45,-61,31,1,25,3936,4,0,859,1705,1815,2044,2212,2056,1937,2095,2005
180023,-10932,-18232,-30978,1790,-3800,3800,42,-59,27,30,47,3958,-6,-4,859,1705,1815,2044,2212,2056,1937,2095,2005
181024,-10932,-18236,-30978,1790,-3800,3800,42,-59,24,7,51,3930,-2,-5,859,1705,1815,2045,2211,2055,1825,1887,2004
182025,-10956,-18236,-30978,1790,-3800,3800,42,-60,25,-9,22,3932,-3,-2,859,1705,1815,2045,2211,2055,1825,1887,2004
183026,-10940,-18236,-30978,1790,-3800,3800,43,-62,28,11,41,3933,-4,4,860,1705,1815,2045,2211,2055,1825,1887,2004
184027,-10948,-18224,-30978,1790,-3800,3800,44,-61,30,3,25,3961,-3,5,859,1705,1815,2045,2211,2055,1825,1887,2004
185028,-10936,-18232,-30978,1790,-3800,3800,43,-59,30,21,33,3962,-2,10,859,1705,1815,2045,2211,2055,1825,1887,2004
186030,-10944,-18236,-30978,1790,-3800,3800,42,-57,28,24,9,3937,-6,7,859,1705,1815,2045,2211,2055,1825,1887,2004
187030,-10944,-18236,-30978,1790,-3800,3800,42,-58,27,26,47,3963,-6,6,859,1706,1817,2047,2305,2139,1823,1885,2002
188031,-10948,-18232,-30978,1790,-3800,3800,43,-60,29,4,54,3955,-5,2,859,1706,1817,2047,2305,2139,1823,1885,2002
189032,-10936,-18232,-30978,1790,-3800,3800,44,-62,30,38,33,3947,2,-3,859,1706,1817,2047,2305,2139,1823,1885,2002
190033,-10932,-18224,-30978,1790,-3800,3800,43,-60,29,38,23,3950,1,-5,858,1706,1817,2047,2305,2139,1823,1885,2002
191034,-10940,-18228,-30978,1790,-3800,3800,42,-58,28,7,1,3897,7,-1,859,1706,1817,2047,2305,2139,1823,1885,2002
192035,-10944,-18228,-30978,1790,-3800,3800,42,-58,27,7,31,3944,13,7,859,1705,1815,2045,2212,2055,1825,1888,2004
193036,-10928,-18236,-30978,1790,-3800,3800,43,-59,27,17,70,3945,13,9,859,1705,1815,2045,2212,2055,1825,1888,2004
194037,-10936,-18232,-30978,1790,-3800,3800,44,-59,28,16,40,3939,12,8,859,1705,1815,2045,2212,2055,1825,1888,2004
195038,-10948,-18232,-30978,1790,-3800,3800,45,-60,28,23,14,3965,10,0,859,1705,1815,2045,2212,2055,1825,1888,2004
196039,-10944,-18236,-30978,1790,-3800,3800,43,-60,30,2,13,3969,2,-1,859,1705,1815,2045,2212,2055,1825,1888,2004
197040,-10936,-18232,-30978,1790,-3800,3800,40,-61,28,21,17,4005,-6,-5,859,1705,1815,2045,2212,2055,1825,1888,2004
198041,-10932,-18224,-30978,1790,-3800,3800,41,-61,26,16,20,3979,-2,-4,859,1707,1913,2135,2211,2053,1823,1887,2004
199042,-10936,-18240,-30978,1790,-3800,3800,42,-61,27,21,23,3933,-5,-5,859,1707,1913,2135,2211,2053,1823,1887,2004
200043,-10940,-18228,-30978,1790,-3800,3800,44,-61,28,5,38,3878,-6,-5,859,1707,1913,2135,2211,2053,1823,1887,2004
201044,-10944,-18240,-30978,1790,-3800,3800,44,-59,24,1,34,3903,-6,0,859,1707,1913,2135,2211,2053,1823,1887,2004
202045,-10932,-18240,-30913,1855,-3800,3800,41,-57,26,4,45,3917,-6,0,859,1707,1913,2135,2211,2053,1823,1887,2004
203046,-10932,-18220,-30848,1920,-3800,3800,39,-59,27,27,17,3946,-3,258,860,1706,1816,2045,2212,2054,1824,1888,2002
204047,-10932,-18216,-30783,1985,-3800,3800,36,-66,27,32,47,3959,17,297,809,1706,1816,2045,2212,2054,1824,1888,2002
205048,-10948,-18128,-30718,2050,-3800,3800,35,-77,23,17,36,3906,23,281,818,1706,1816,2045,2212,2054,1824,1888,2002
206049,-10936,-17972,-30653,2115,-3800,3800,35,-73,20,-14,32,4040,21,308,822,1706,1816,2045,2212,2054,1824,1888,2002
207050,-10948,-17772,-30588,2180,-3800,3800,29,-128,14,-334,-19,4091,10,297,823,1706,1816,2045,2212,2054,1824,1888,2002
208051,-10952,-17528,-30523,2245,-3800,3800,25,-190,14,-654,16,4464,10,309,822,1706,1816,2045,2212,2054,1824,1888,2002
209052,-10944,-17268,-30458,2310,-3800,3800,36,-243,13,-233,126,4635,7,310,830,1776,1817,2034,2210,2056,1825,1891,2009
210053,-10948,-16952,-30393,2375,-3800,3800,39,-209,-4,270,-81,4440,22,316,832,1776,1817,2034,2210,2056,1825,1891,2009
211054,-10948,-16600,-30328,2440,-3800,3800,32,-193,-31,107,-190,4034,6,322,834,1776,1817,2034,2210,2056,1825,1891,2009
212055,-10940,-16244,-30263,2505,-3800,3800,17,-188,-46,209,-13,3692,24,312,834,1776,1817,2034,2210,2056,1825,1891,2009
213056,-10944,-15832,-30198,2570,-3800,3800,-6,-147,-51,67,58,4046,23,317,837,1776,1817,2034,2210,2056,1825,1891,2009
214057,-10948,-15448,-30133,2635,-3800,3800,-32,-39,-106,277,-263,3595,11,313,838,1721,1838,2067,2231,2075,1843,1912,2031
215058,-10944,-15012,-30068,2700,-3800,3800,-36,5,-143,868,-101,3342,21,336,839,1721,1838,2067,2231,2075,1843,1912,2031
216059,-10936,-14556,-30003,2765,-3800,3800,-68,10,-165,290,-224,3821,24,324,839,1721,1838,2067,2231,2075,1843,1912,2031
217060,-10940,-14112,-29938,2830,-3800,3800,-65,-74,-166,-1627,-151,3894,11,324,842,1721,1838,2067,2231,2075,1843,1912,2031
218061,-10940,-13660,-29873,2895,-3800,3800,-73,-251,-151,-1232,68,4095,14,331,843,1721,1838,2067,2231,2075,1843,1912,2031
219062,-10932,-13176,-29808,2960,-3800,3800,-70,-366,-168,-1114,-24,4465,10,331,845,1721,1838,2067,2231,2075,1843,1912,2031
220063,-10932,-12636,-29743,3025,-3800,3800,-73,-494,-205,-84,-289,4081,19,317,844,1733,1855,2075,2237,2065,1835,1906,2027
221064,-10936,-12076,-29678,3090,-3800,3800,-106,-508,-218,-1414,-48,5128,7,331,847,1733,1855,2075,2237,2065,1835,1906,2027
222065,-10940,-11568,-29613,3155,-3800,3800,-102,-557,-156,-564,134,3740,22,322,846,1733,1855,2075,2237,2065,1835,1906,2027
223066,-10936,-11052,-29548,3220,-3800,3800,-133,-504,-229,-45,-533,4828,24,342,846,1733,1855,2075,2237,2065,1835,1906,2027
224067,-10936,-10492,-29483,3285,-3800,3800,-187,-572,-304,80,-576,3924,8,332,845,1733,1855,2075,2237,2065,1835,1906,2027
225068,-10940,-9964,-29418,3350,-3800,3800,-215,-565,-327,-985,-532,5123,7,339,846,1746,1881,2096,2248,2066,1828,2084,2176
226069,-10944,-9416,-29353,3415,-3800,3800,-221,-612,-324,-380,-13,4695,10,343,847,1746,1881,2096,2248,2066,1828,2084,2176
227070,-10924,-8836,-29288,3480,-3800,3800,-183,-633,-332,-747,-458,5535,14,341,848,1746,1881,2096,2248,2066,1828,2084,2176
228071,-10932,-8272,-29223,3545,-3800,3800,-156,-852,-363,-95,-537,4641,11,327,847,1746,1881,2096,2248,2066,1828,2084,2176
229072,-10932,-7716,-29158,3610,-3800,3800,-119,-1066,-392,-1660,-740,6131,13,347,847,1746,1881,2096,2248,2066,1828,2084,2176
230073,-10920,-7192,-29093,3675,-3800,3800,-56,-1130,-410,-226,-397,5763,6,329,846,1746,1881,2096,2248,2066,1828,2084,2176
231074,-10928,-6664,-29028,3740,-3800,3800,-1,-1215,-450,-722,-622,5021,13,344,845,1776,1915,2122,2250,2102,1858,1963,2118
232075,-10928,-6080,-28963,3805,-3800,3800,66,-1291,-464,-627,-625,5936,13,315,845,1776,1915,2122,2250,2102,1858,1963,2118
233076,-10936,-5576,-28898,3870,-3800,3800,147,-1430,-410,-1007,-550,4770,12,331,846,1776,1915,2122,2250,2102,1858,1963,2118
234078,-10924,-5044,-28833,3935,-3800,3800,175,-1497,-461,-374,-525,5927,6,314,844,1776,1915,2122,2250,2102,1858,1963,2118
235078,-10936,-4560,-28768,4000,-3800,3800,241,-1530,-456,-1169,-319,5148,7,325,844,1776,1915,2122,2250,2102,1858,1963,2118
236079,-10940,-4060,-28703,4065,-3800,3800,333,-1640,-427,449,-368,5073,13,333,842,1864,2028,2222,2402,2184,1973,1988,2108
237080,-10932,-3584,-28638,4130,-3800,3800,361,-1816,-468,-1304,-250,5075,24,330,842,1864,2028,2222,2402,2184,1973,1988,2108
238081,-10936,-3116,-28573,4195,-3800,3707,431,-1911,-447,-644,-168,5804,24,326,841,1864,2028,2222,2402,2184,1973,1988,2108
239082,-10928,-2688,-28508,4260,-3800,3767,475,-1852,-472,-89,-46,4703,7,200,840,1864,2028,2222,2402,2184,1973,1988,2108
240083,-10936,-2296,-28443,4325,-3800,3800,481,-1813,-523,-259,-543,5550,14,295,839,1864,2028,2222,2402,2184,1973,1988,2108
241084,-10936,-1920,-28378,4390,-3800,3643,556,-1762,-461,-576,-451,5815,6,317,836,1982,2114,2281,2490,2184,1973,1988,2108
242085,-10928,-1544,-28313,4455,-3800,3266,620,-1827,-454,-193,-179,3438,24,128,835,1982,2114,2281,2490,2010,1768,1906,1994
243086,-10932,-1136,-28248,4520,-3800,2450,597,-2015,-508,-2197,-519,6837,23,132,837,1982,2114,2281,2490,2010,1768,1906,1994
244087,-10920,-832,-28183,4585,-3800,3460,684,-2092,-454,-2393,-137,5007,17,168,838,1982,2114,2281,2490,2010,1768,1906,1994
245088,-10928,-544,-28118,4650,-3800,3390,778,-2224,-430,-584,81,3626,10,38,844,1982,2114,2281,2490,2010,1768,1906,1994
246089,-10920,-260,-28053,4715,-3800,3174,776,-2349,-482,-1972,-77,6094,20,52,835,1982,2114,2281,2490,2010,1768,1906,1994
247090,-10916,20,-27988,4780,-3800,2964,763,-2430,-533,-2301,-245,6862,15,81,834,1935,2035,2291,2515,1934,1719,1834,1924
248091,-10924,260,-27923,4845,-3800,3252,769,-2471,-459,-1015,119,5393,4,104,835,1935,2035,2291,2515,1934,1719,1834,1924
249092,-10924,488,-27858,4910,-3800,3205,876,-2508,-326,-362,26,6124,6,51,833,1935,2035,2291,2515,1934,1719,1834,1924
250093,-10932,676,-27793,4975,-3800,3556,985,-2621,-307,-364,-639,4982,15,58,833,1935,2035,2291,2515,1934,1719,1834,1924
251094,-10920,856,-27728,5040,-3800,3518,1132,-2682,-313,-415,-699,6232,3,-65,833,1935,2035,2291,2515,1934,1719,1834,1924
252095,-10920,1044,-27663,5105,-3800,3269,1297,-2711,-267,-365,-501,5835,22,-80,827,1847,1937,2150,2335,2015,1774,1872,1984
253096,-10932,1240,-27598,5170,-3800,3011,1445,-2757,-239,-178,-213,5932,5,27,821,1847,1937,2150,2335,2015,1774,1872,1984
254097,-10920,1428,-27533,5235,-3800,2962,1606,-2769,-149,-183,-192,5879,21,55,830,1847,1937,2150,2335,2015,1774,1872,1984
255098,-10912,1588,-27468,5300,-3800,3198,1836,-2755,19,336,181,5109,5,51,833,1847,1937,2150,2335,2015,1774,1872,1984
256099,-10932,1712,-27403,5365,-3800,3577,2043,-2860,80,333,85,4612,20,-2,833,1847,1937,2150,2335,2015,1774,1872,1984
257100,-10904,1864,-27338,5430,-3800,3123,2234,-2974,126,-735,462,5444,5,-129,824,1847,1937,2150,2335,2015,1774,1872,1984
258101,-10908,1992,-27273,5495,-3800,3347,2402,-3078,214,-908,812,4201,10,28,823,1933,2049,2198,2398,1996,1772,1887,1967
259102,-10920,2116,-27208,5560,-3800,3326,2532,-3113,305,-606,1131,4995,20,-51,829,1933,2049,2198,2398,1996,1772,1887,1967
260103,-10932,2248,-27143,5625,-3800,3146,2625,-3141,377,-40,1396,4755,18,-15,827,1933,2049,2198,2398,1996,1772,1887,1967
261104,-10924,2388,-27078,5690,-3800,2955,2717,-3129,485,-317,1645,3941,16,17,824,1933,2049,2198,2398,1996,1772,1887,1967
262105,-10920,2540,-27013,5755,-3800,2700,2768,-3172,569,-767,1914,4118,19,49,829,1933,2049,2198,2398,1996,1772,1887,1967
263106,-10928,2688,-26948,5820,-3800,2650,2834,-3271,665,-762,2058,3699,14,62,832,2004,2124,2288,2521,1874,1648,1764,1857
264107,-10932,2824,-26883,5885,-3800,2715,2906,-3221,778,-444,2278,4235,20,47,835,2004,2124,2288,2521,1874,1648,1764,1857
265108,-10912,2956,-26818,5950,-3800,2684,2902,-3117,809,-141,1863,3779,2,50,833,2004,2124,2288,2521,1874,1648,1764,1857
266109,-10928,3056,-26753,6015,-3800,3043,2872,-2988,835,-1056,1570,4663,17,39,834,2004,2124,2288,2521,1874,1648,1764,1857
267110,-10916,3188,-26688,6080,-3800,2562,2836,-2928,895,-1576,1565,4159,16,10,835,2004,2124,2288,2521,1874,1648,1764,1857
268111,-10916,3304,-26623,6145,-3800,2701,2863,-2835,972,-1145,1139,4590,14,51,831,2004,2124,2288,2521,1874,1648,1764,1857
269112,-10924,3408,-26558,6210,-3800,2804,2910,-2738,1080,-105,838,4648,15,46,835,1992,2064,2238,2388,1836,1624,1721,1832
270113,-10924,3508,-26493,6275,-3800,2812,3002,-2690,1169,-407,653,4462,2,48,833,1992,2064,2238,2388,1836,1624,1721,1832
271114,-10920,3636,-26428,6340,-3800,2386,3086,-2601,1219,-756,678,4596,4,42,834,1992,2064,2238,2388,1836,1624,1721,1832
272115,-10916,3740,-26363,6405,-3800,2640,3172,-2435,1304,-528,660,4669,7,74,837,1992,2064,2238,2388,1836,1624,1721,1832
273116,-10924,3892,-26298,6470,-3800,1934,3208,-2295,1394,426,1036,3871,8,55,836,1992,2064,2238,2388,1836,1624,1721,1832
274117,-10916,4032,-26233,6535,-3800,1994,3223,-2151,1517,-46,1110,4251,3,72,842,1762,1839,2088,2216,1980,1776,1805,2088
275118,-10904,4168,-26168,6600,-3800,1958,3290,-2019,1665,-347,1522,3539,0,68,842,1762,1839,2088,2216,1980,1776,1805,2088
276119,-10924,4280,-26103,6665,-3800,2202,3322,-1897,1755,557,1522,2882,-1,63,842,1762,1839,2088,2216,1980,1776,1805,2088
277120,-10912,4376,-26038,6730,-3800,2365,3316,-1810,1831,822,1587,2904,3,44,840,1762,1839,2088,2216,1980,1776,1805,2088
278121,-10916,4456,-25973,6795,-3800,2548,3277,-1764,1956,-409,1864,2699,2,56,838,1762,1839,2088,2216,1980,1776,1805,2088
279122,-10916,4548,-25908,6860,-3800,2366,3248,-1660,2088,-903,1881,2833,2,35,836,1762,1839,2088,2216,1980,1776,1805,2088
280123,-10924,4648,-25843,6925,-3800,2224,3266,-1618,2226,-382,1629,3324,17,44,838,1632,1698,1988,2137,2161,1938,1925,2049
281124,-10924,4760,-25778,6990,-3800,2018,3450,-1775,2381,-218,1059,4065,8,44,840,1632,1698,1988,2137,2161,1938,1925,2049
282125,-10916,4916,-25713,7055,-3800,1358,3674,-2050,2452,331,1490,4157,13,59,842,1632,1698,1988,2137,2161,1938,1925,2049
283126,-10920,5016,-25648,7120,-3800,2015,3744,-2163,2588,1654,1343,3223,5,60,849,1632,1698,1988,2137,2161,1938,1925,2049
284127,-10928,5104,-25583,7185,-3800,2138,3462,-2155,2620,-2211,716,3664,17,46,842,1632,1698,1988,2137,2161,1938,1925,2049
285128,-10912,5236,-25518,7250,-3800,1507,3091,-1975,2503,-5309,1487,3529,11,57,841,1614,1722,1994,2162,2176,2004,2262,2112
286129,-10912,5348,-25453,7315,-3800,1701,2879,-1559,2440,-381,2716,4537,2,52,847,1614,1722,1994,2162,2176,2004,2262,2112
287130,-10924,5456,-25388,7380,-3800,1699,2828,-1471,2564,5639,1359,2464,0,14,846,1614,1722,1994,2162,2176,2004,2262,2112
288131,-10924,5548,-25323,7445,-3800,1866,2767,-1586,2676,3654,869,3345,10,46,845,1614,1722,1994,2162,2176,2004,2262,2112
289132,-10924,5644,-25258,7510,-3800,1779,2632,-1383,2712,-2494,755,3783,8,48,844,1614,1722,1994,2162,2176,2004,2262,2112
290133,-10912,5756,-25193,7575,-3800,1523,2376,-921,2720,-2311,1309,3000,4,59,845,1614,1722,1994,2162,2176,2004,2262,2112
291134,-10928,5824,-25128,7640,-3800,2069,2062,-523,2812,1024,637,3278,15,61,847,1700,1841,2066,2157,2192,1919,1980,2200
292135,-10924,5928,-25063,7705,-3800,1573,1788,-305,2928,1354,396,2013,-2,51,841,1700,1841,2066,2157,2192,1919,1980,2200
293136,-10916,6028,-24998,7770,-3800,1581,1625,-190,2995,-1153,21,2853,1,58,847,1700,1841,2066,2157,2192,1919,1980,2200
294137,-10912,6108,-24933,7835,-3800,1813,1591,-147,3089,-2477,-459,3548,14,59,847,1700,1841,2066,2157,2192,1919,1980,2200
295138,-10912,6212,-24868,7900,-3800,1466,1653,-233,3197,-1793,-884,2802,-1,63,845,1700,1841,2066,2157,2192,1919,1980,2200
296139,-10916,6312,-24803,7965,-3800,1474,1722,-470,3265,-2085,-1062,3107,9,76,849,1585,1706,1977,2093,2401,2016,1958,2159
297140,-10920,6412,-24738,8030,-3800,1432,1759,-667,3312,-2484,-564,3603,-1,71,815,1585,1706,1977,2093,2401,2016,1958,2159
298141,-10932,6524,-24673,8095,-3800,1225,1730,-787,3339,-1953,-280,3246,-1,72,849,1585,1706,1977,2093,2401,2016,1958,2159
299142,-10932,6652,-24608,8160,-3800,949,1662,-800,3374,-1181,313,3679,7,74,851,1585,1706,1977,2093,2401,2016,1958,2159
300143,-10936,6760,-24543,8225,-3800,1147,1596,-837,3416,-793,960,3105,16,65,853,1585,1706,1977,2093,2401,2016,1958,2159
301144,-10928,6840,-24478,8290,-3800,1480,1492,-842,3435,-363,970,2796,14,56,843,1585,1706,1977,2093,2401,2016,1958,2159
302145,-10936,6940,-24413,8355,-3800,1187,1385,-834,3457,269,1366,3080,-2,52,847,1503,1620,1891,2001,2169,1894,1892,2026
303146,-10928,7040,-24348,8420,-3800,1145,1243,-827,3507,381,1660,2947,17,54,851,1503,1620,1891,2001,2169,1894,1892,2026
304147,-10928,7136,-24283,8485,-3800,1157,1083,-739,3551,1125,1939,2837,14,64,851,1503,1620,1891,2001,2169,1894,1892,2026
305148,-10932,7224,-24218,8550,-3800,1230,913,-585,3599,1788,2088,3119,3,53,844,1503,1620,1891,2001,2169,1894,1892,2026
306149,-10936,7296,-24153,8615,-3800,1422,732,-432,3637,1822,2153,2662,2,56,850,1503,1620,1891,2001,2169,1894,1892,2026
307150,-10932,7372,-24088,8680,-3800,1359,551,-297,3664,1328,2070,2520,9,49,848,1624,1832,2046,2145,2053,1826,1882,2005
308151,-10920,7440,-24023,8745,-3800,1456,390,-206,3686,1004,1794,2179,7,51,848,1624,1832,2046,2145,2053,1826,1882,2005
309152,-10940,7536,-23958,8810,-3800,1069,240,-180,3733,623,1433,1910,9,53,843,1624,1832,2046,2145,2053,1826,1882,2005
310153,-10940,7612,-23893,8875,-3800,1305,118,-155,3804,-225,1096,2153,0,41,852,1624,1832,2046,2145,2053,1826,1882,2005
311154,-10928,7700,-23828,8940,-3800,1128,61,-130,3898,-492,805,1631,-3,38,849,1624,1832,2046,2145,2053,1826,1882,2005
312155,-10920,7768,-23763,9005,-3800,1375,42,-149,3974,-795,438,1552,-1,39,851,1624,1832,2046,2145,2053,1826,1882,2005
313156,-10948,7836,-23698,9070,-3800,1372,34,-221,4030,-1513,-39,1504,5,36,846,1672,1782,2030,2146,2117,1860,1880,2047
314157,-10932,7908,-23633,9135,-3800,1313,43,-322,4088,-2126,-33,1745,6,44,848,1672,1782,2030,2146,2117,1860,1880,2047
315158,-10936,7980,-23568,9200,-3800,1306,52,-408,4148,-2340,-140,1551,-1,33,849,1672,1782,2030,2146,2117,1860,1880,2047
316159,-10932,8048,-23503,9265,-3800,1352,60,-449,4215,-1786,-177,1927,-3,33,849,1672,1782,2030,2146,2117,1860,1880,2047
317160,-10932,8108,-23438,9330,-3800,1459,66,-462,4259,-1431,-86,1805,4,39,847,1672,1782,2030,2146,2117,1860,1880,2047
318161,-10936,8180,-23373,9395,-3800,1301,82,-450,4274,-1571,118,2030,1,32,847,1717,1822,1955,2075,2067,1779,1813,1966
319162,-10932,8252,-23308,9460,-3800,1292,88,-395,4287,-1233,402,2130,-4,50,849,1717,1822,1955,2075,2067,1779,1813,1966
320163,-10928,8308,-23243,9525,-3800,1504,68,-311,4313,-246,635,2211,0,48,849,1717,1822,1955,2075,2067,1779,1813,1966
321164,-10928,8392,-23178,9590,-3800,1131,22,-184,4322,358,1045,2299,4,39,846,1717,1822,1955,2075,2067,1779,1813,1966
322165,-10920,8476,-23113,9655,-3800,1109,-46,-34,4327,468,1334,2337,5,57,851,1717,1822,1955,2075,2067,1779,1813,1966
323166,-10928,8564,-23048,9720,-3800,1031,-112,155,4337,899,1631,2204,5,48,851,1717,1822,1955,2075,2067,1779,1813,1966
324167,-10928,8632,-22983,9785,-3800,1278,-194,321,4357,1255,1876,2042,15,51,852,1608,1724,1920,2048,1898,1666,1735,1807
325168,-10928,8712,-22918,9850,-3800,1110,-305,438,4393,1250,1999,2041,16,46,848,1608,1724,1920,2048,1898,1666,1735,1807
326169,-10940,8808,-22853,9915,-3800,873,-433,542,4422,1101,1959,1909,17,49,850,1608,1724,1920,2048,1898,1666,1735,1807
327170,-10928,8908,-22788,9980,-3800,780,-540,613,4458,806,1793,1826,2,55,853,1608,1724,1920,2048,1898,1666,1735,1807
328171,-10928,9012,-22723,10045,-3800,682,-625,668,4500,605,1588,1618,16,65,854,1608,1724,1920,2048,1898,1666,1735,1807
329172,-10928,9104,-22658,10110,-3800,801,-663,673,4564,363,1414,1457,-2,63,854,1634,1707,1916,2099,1888,1717,1766,1851
330173,-10912,9208,-22593,10175,-3800,603,-675,646,4625,-11,1069,1256,-3,61,854,1634,1707,1916,2099,1888,1717,1766,1851
331174,-10920,9284,-22528,10240,-3800,940,-667,566,4685,-378,644,1252,1,57,856,1634,1707,1916,2099,1888,1717,1766,1851
332175,-10932,9384,-22463,10305,-3800,598,-642,480,4752,-690,400,1236,1,53,852,1634,1707,1916,2099,1888,1717,1766,1851
333176,-10932,9484,-22398,10370,-3800,555,-611,402,4816,-715,112,1164,-2,61,855,1634,1707,1916,2099,1888,1717,1766,1851
334177,-10932,9572,-22333,10435,-3800,678,-557,343,4883,-588,-89,1016,11,61,855,1634,1707,1916,2099,1888,1717,1766,1851
335178,-10904,9684,-22268,10500,-3800,321,-492,312,4954,-538,-136,994,4,49,855,1613,1686,1969,2132,2022,1814,1964,2121
336179,-10924,9828,-22203,10565,-3800,-176,-445,312,5028,-855,279,800,11,52,857,1613,1686,1969,2132,2022,1814,1964,2121
337180,-10936,9964,-22138,10630,-3800,-162,-453,424,5126,-1236,615,1093,5,49,857,1613,1686,1969,2132,2022,1814,1964,2121
338181,-10940,10136,-22073,10695,-3800,-742,-295,768,5148,2724,-1189,847,5,46,858,1613,1686,1969,2132,2022,1814,1964,2121
339182,-10932,10384,-22008,10760,-3800,-1916,-369,715,5097,3823,-412,-445,-3,50,853,1613,1686,1969,2132,2022,1814,1964,2121
340183,-10916,10504,-21943,10825,-3800,-383,-478,683,5088,229,-85,2120,5,35,839,1640,1752,2000,2131,1965,1716,1767,1879
341184,-10928,10580,-21878,10890,-3800,154,-579,949,5088,797,385,509,-2,19,856,1640,1752,2000,2131,1965,1716,1767,1879
342185,-10928,10640,-21813,10955,-3800,360,-708,1199,4961,2165,136,2174,-6,33,857,1640,1752,2000,2131,1965,1716,1767,1879
343186,-10932,10692,-21748,11020,-3800,476,-862,1259,4816,1223,-373,1086,-4,30,856,1640,1752,2000,2131,1965,1716,1767,1879
344187,-10916,10724,-21683,11085,-3800,767,-990,1476,4734,919,239,1688,-3,26,856,1640,1752,2000,2131,1965,1716,1767,1879
345188,-10936,10752,-21618,11150,-3800,862,-1123,1705,4751,943,1071,2289,12,29,854,1640,1752,2000,2131,1965,1716,1767,1879
346189,-10920,10756,-21553,11215,-3800,1237,-1256,1938,4771,1015,956,1651,9,37,853,1633,1739,1910,2045,1897,1767,1998,1834
347190,-10928,10752,-21488,11280,-3800,1421,-1380,2141,4761,1107,569,1942,12,36,850,1633,1739,1910,2045,1897,1767,1998,1834
348191,-10936,10756,-21423,11345,-3800,1395,-1495,2159,4764,599,518,1869,15,46,848,1633,1739,1910,2045,1897,1767,1998,1834
349192,-10924,10824,-21358,11410,-3800,592,-1529,2101,4872,-508,627,2193,1,49,849,1633,1739,1910,2045,1897,1767,1998,1834
350193,-10920,10920,-21293,11475,-3800,205,-1522,2093,4991,-475,625,1761,2,59,843,1633,1739,1910,2045,1897,1767,1998,1834
351194,-10936,11012,-21228,11540,-3800,222,-1457,2150,5099,149,484,2082,-2,72,857,1504,1617,1817,1962,1993,1755,1817,1927
352195,-10936,11140,-21163,11605,-3800,-305,-1384,2240,5201,310,316,2263,6,63,857,1504,1617,1817,1962,1993,1755,1817,1927
353196,-10936,11260,-21098,11670,-3800,-272,-1285,2230,5328,137,288,1730,13,67,856,1504,1617,1817,1962,1993,1755,1817,1927
354197,-10924,11392,-21033,11735,-3800,-504,-1197,2147,5376,83,-101,2291,13,55,850,1504,1617,1817,1962,1993,1755,1817,1927
355198,-10936,11576,-20968,11800,-3800,-1298,-1086,2013,5334,527,-726,2629,-2,62,855,1504,1617,1817,1962,1993,1755,1817,1927
356199,-10936,11736,-20903,11865,-3800,-1114,-929,1879,5242,1141,-755,3226,9,63,847,1504,1617,1817,1962,1993,1755,1817,1927
357200,-10928,11808,-20838,11930,-3800,-23,-764,1725,5133,1389,-365,2630,8,39,850,1511,1625,1895,2162,2158,1865,1858,1964
358201,-10940,11880,-20773,11995,-3800,-31,-685,1593,4991,1720,100,3268,5,39,853,1511,1625,1895,2162,2158,1865,1858,1964
359202,-10936,11928,-20708,12060,-3800,290,-704,1617,4818,2644,418,2604,5,32,858,1511,1625,1895,2162,2158,1865,1858,1964
360203,-10932,11992,-20643,12125,-3800,91,-812,1691,4694,3823,843,2336,2,31,856,1511,1625,1895,2162,2158,1865,1858,1964
361205,-10936,12044,-20578,12190,-3800,257,-969,1832,4585,4317,1248,2585,0,35,858,1511,1625,1895,2162,2158,1865,1858,1964
362205,-10948,12104,-20513,12255,-3800,163,-1153,1941,4449,4226,1413,2121,1,31,854,1819,1924,2188,2404,1939,1736,1821,1896
363206,-10936,12172,-20448,12320,-3800,59,-1384,1994,4294,3725,1593,2462,-1,35,858,1819,1924,2188,2404,1939,1736,1821,1896
364207,-10940,12244,-20383,12385,-3800,1,-1632,2122,4177,3736,1302,2985,14,46,858,1819,1924,2188,2404,1939,1736,1821,1896
365208,-10940,12312,-20318,12450,-3800,47,-1854,2150,4126,3903,1079,2744,-4,45,858,1819,1924,2188,2404,1939,1736,1821,1896
366209,-10944,12368,-20253,12515,-3800,208,-1988,2087,4052,3291,726,3979,14,31,856,1819,1924,2188,2404,1939,1736,1821,1896
367210,-10924,12448,-20188,12580,-3800,-110,-2029,1891,3962,2666,391,4014,-2,35,858,1819,1924,2188,2404,1939,1736,1821,1896
368211,-10936,12508,-20123,12645,-3800,146,-1976,1626,3828,2833,-78,4959,7,40,858,2001,2114,2325,2477,1916,1755,1836,1969
369212,-10940,12576,-20058,12710,-3800,42,-1867,1159,3664,2737,-543,4987,5,33,857,2001,2114,2325,2477,1916,1755,1836,1969
370213,-10944,12644,-19993,12775,-3800,38,-1716,635,3440,3380,-652,5772,-1,34,856,2001,2114,2325,2477,1916,1755,1836,1969
371214,-10936,12696,-19928,12840,-3800,254,-1546,248,3187,4499,-1074,6720,8,35,858,2001,2114,2325,2477,1916,1755,1836,1969
372215,-10936,12764,-19863,12905,-3800,51,-1335,14,2889,6108,-1256,7116,-3,47,858,2001,2114,2325,2477,1916,1755,1836,1969
373216,-10932,12832,-19798,12970,-3800,47,-1092,-109,2534,7382,-1299,8211,-3,48,858,1682,1670,2028,2244,2048,1873,1873,2017
374217,-10944,12904,-19733,13035,-3800,-11,-866,-156,2183,8022,-1238,7862,13,40,858,1682,1670,2028,2244,2048,1873,1873,2017
375218,-10932,12968,-19668,13100,-3800,91,-650,-246,1821,8756,-1558,8052,-4,45,859,1682,1670,2028,2244,2048,1873,1873,2017
376219,-10944,13048,-19603,13165,-3800,-128,-491,-281,1405,9632,-1274,7938,11,35,858,1682,1670,2028,2244,2048,1873,1873,2017
377220,-10936,13116,-19538,13230,-3800,19,-447,-285,994,9801,-1224,7427,-3,35,857,1682,1670,2028,2244,2048,1873,1873,2017
378221,-10932,13184,-19473,13295,-3800,15,-481,-321,585,9863,-722,7222,1,33,858,1682,1670,2028,2244,2048,1873,1873,2017
379222,-10936,13240,-19408,13360,-3800,176,-585,-383,233,9236,-743,6883,-3,37,859,1831,1722,2139,2507,1995,1886,1881,1927
380223,-10924,13308,-19343,13425,-3800,22,-726,-522,-47,7827,-790,6008,16,39,858,1831,1722,2139,2507,1995,1886,1881,1927
381224,-10924,13372,-19278,13490,-3800,74,-864,-690,-254,6227,-1185,6031,9,47,859,1831,1722,2139,2507,1995,1886,1881,1927
382225,-10920,13456,-19213,13555,-3800,-200,-940,-870,-367,4805,-1637,6248,9,33,858,1831,1722,2139,2507,1995,1886,1881,1927
383226,-10916,13520,-19148,13620,-3800,52,-956,-1014,-403,3613,-2649,6766,-3,35,858,1831,1722,2139,2507,1995,1886,1881,1927
384227,-10920,13588,-19083,13685,-3800,-2,-888,-1094,-389,3087,-2937,6801,5,40,859,1952,1856,2266,2648,2027,1930,1920,1994
385228,-10904,13656,-19018,13750,-3800,-6,-763,-1175,-331,2659,-3479,7397,-4,41,859,1952,1856,2266,2648,2027,1930,1920,1994
386229,-10912,13716,-18953,13815,-3800,100,-597,-1159,-261,1740,-3657,7807,13,49,859,1952,1856,2266,2648,2027,1930,1920,1994
387230,-10924,13800,-18888,13880,-3800,-223,-409,-1106,-192,1202,-4125,7981,6,33,858,1952,1856,2266,2648,2027,1930,1920,1994
388231,-10908,13848,-18823,13945,-3800,248,-236,-1045,-138,808,-4354,7632,-2,46,858,1952,1856,2266,2648,2027,1930,1920,1994
389232,-10908,13924,-18758,14010,-3800,-116,-45,-931,-96,239,-4307,8005,12,15,858,1952,1856,2266,2648,2027,1930,1920,1994
390233,-10900,13980,-18693,14075,-3800,145,118,-795,-100,127,-3960,7584,-3,35,858,1825,1795,2228,2526,2090,1907,1909,2011
391234,-10904,14052,-18628,14140,-3800,-63,233,-596,-119,-92,-3788,7499,9,34,858,1825,1795,2228,2526,2090,1907,1909,2011
392235,-10912,14124,-18563,14205,-3800,-72,274,-453,-202,222,-2960,6671,-2,37,858,1825,1795,2228,2526,2090,1907,1909,2011
393236,-10900,14204,-18498,14270,-3800,-190,264,-292,-331,492,-2438,6628,2,42,858,1825,1795,2228,2526,2090,1907,1909,2011
394237,-10896,14272,-18433,14335,-3800,-44,176,-52,-472,522,-1890,5995,-4,42,856,1825,1795,2228,2526,2090,1907,1909,2011
395238,-10912,14344,-18368,14400,-3800,-102,39,109,-588,-5,-1662,5281,11,42,859,2032,1992,2420,2896,1956,1829,2181,2011
396239,-10908,14404,-18303,14465,-3800,54,-115,185,-704,-650,-1316,5045,14,47,858,2032,1992,2420,2896,1956,1829,2181,2011
397240,-10892,14476,-18238,14530,-3800,-105,-252,245,-823,-902,-925,4613,0,33,859,2032,1992,2420,2896,1956,1829,2181,2011
398241,-10896,14556,-18173,14595,-3800,-223,-387,294,-925,-557,-722,4278,-4,46,858,2032,1992,2420,2896,1956,1829,2181,2011
399242,-10892,14608,-18108,14660,-3800,143,-514,336,-961,-430,-634,4167,14,34,896,2032,1992,2420,2896,1956,1829,2181,2011
400243,-10900,14676,-18043,14725,-3800,-61,-613,367,-932,-654,-720,4061,12,33,858,2032,1992,2420,2896,1956,1829,2181,2011
401244,-10892,14720,-17978,14790,-3800,265,-627,431,-841,-1024,-919,4533,-3,36,859,2318,2151,2530,3106,1971,1918,1931,1887
402245,-10900,14796,-17913,14855,-3800,-148,-570,466,-696,-1536,-1155,4475,14,44,858,2318,2151,2530,3106,1971,1918,1931,1887
403246,-10876,14876,-17848,14920,-3800,-217,-455,480,-517,-1741,-1511,4792,7,37,849,2318,2151,2530,3106,1971,1918,1931,1887
404247,-10888,14936,-17783,14985,-3800,39,-306,511,-321,-1565,-1630,4960,6,37,858,2318,2151,2530,3106,1971,1918,1931,1887
405248,-10892,15000,-17718,15050,-3800,-9,-138,586,-133,-1116,-1602,5009,-4,38,859,2318,2151,2530,3106,1971,1918,1931,1887
406249,-10892,15060,-17653,15115,-3800,47,7,736,44,-1044,-1780,5199,-4,45,859,2045,1945,2278,2656,2144,2037,1937,1945
407250,-10884,15148,-17588,15180,-3800,-331,163,873,201,-1103,-1845,4945,1,42,852,2045,1945,2278,2656,2144,2037,1937,1945
408251,-10880,15208,-17523,15245,-3800,26,317,983,298,-1018,-1447,5053,14,48,857,2045,1945,2278,2656,2144,2037,1937,1945
409252,-10872,15276,-17458,15310,-3800,-78,477,1084,361,-1140,-1690,4675,-4,31,859,2045,1945,2278,2656,2144,2037,1937,1945
410253,-10872,15328,-17393,15375,-3800,138,619,1159,403,-1533,-1448,4565,3,32,859,2045,1945,2278,2656,2144,2037,1937,1945
411254,-10876,15408,-17328,15440,-3800,-230,730,1182,399,-1379,-1014,4266,-4,30,853,2045,1945,2278,2656,2144,2037,1937,1945
412255,-10872,15464,-17263,15505,-3800,81,804,1206,371,-1279,-767,4021,7,34,858,1831,1841,2103,2363,1980,1787,1820,1894
413256,-10872,15540,-17198,15570,-3800,-183,824,1245,314,-1323,-434,3786,14,41,859,1831,1841,2103,2363,1980,1787,1820,1894
414257,-10868,15588,-17133,15635,-3800,188,784,1278,218,-1388,-205,3718,0,32,858,1831,1841,2103,2363,1980,1787,1820,1894
415258,-10860,15648,-17068,15700,-3800,44,725,1296,81,-1121,-44,3342,-4,31,856,1831,1841,2103,2363,1980,1787,1820,1894
416259,-10876,15708,-17003,15765,-3800,50,655,1303,-56,-1085,-96,3216,14,39,859,1831,1841,2103,2363,1980,1787,1820,1894
417260,-10868,15772,-16938,15830,-3800,1,573,1314,-162,-1248,-163,3005,5,31,859,1844,1892,2188,2384,1856,1640,1757,1841
418261,-10860,15796,-16873,15895,-3800,551,500,1297,-249,-1213,-278,2648,0,39,859,1844,1892,2188,2384,1856,1640,1757,1841
419262,-10872,15820,-16808,15960,-3800,601,436,1284,-310,-1127,-552,2790,-4,36,855,1844,1892,2188,2384,1856,1640,1757,1841
420263,-10860,15844,-16743,16025,-3800,651,391,1293,-353,-879,-690,2844,10,33,856,1844,1892,2188,2384,1856,1640,1757,1841
421264,-10856,15900,-16678,16090,-3800,262,367,1238,-362,-672,-891,2468,17,48,856,1844,1892,2188,2384,1856,1640,1757,1841
422265,-10868,15944,-16613,16155,-3800,438,387,1198,-337,-562,-1132,2762,4,43,858,1844,1892,2188,2384,1856,1640,1757,1841
423266,-10864,16012,-16548,16220,-3800,134,444,1167,-265,-550,-1475,2249,-2,34,856,1856,1942,2148,2357,1875,1706,1807,1918
424267,-10856,16084,-16483,16285,-3800,76,550,1113,-150,-654,-1506,2473,11,50,858,1856,1942,2148,2357,1875,1706,1807,1918
425268,-10868,16156,-16418,16350,-3800,67,668,1012,-41,-795,-1406,2357,15,50,859,1856,1942,2148,2357,1875,1706,1807,1918
426269,-10860,16236,-16353,16415,-3800,-51,781,863,68,-784,-1432,2190,13,36,859,1856,1942,2148,2357,1875,1706,1807,1918
427270,-10872,16308,-16288,16480,-3800,40,891,707,159,-487,-1175,2211,15,36,858,1856,1942,2148,2357,1875,1706,1807,1918
428271,-10864,16388,-16223,16545,-3800,-78,977,515,244,-333,-918,2044,1,37,858,1848,1936,2100,2336,1976,1808,1862,1921
429272,-10868,16460,-16158,16610,-3800,14,1036,309,298,-217,-523,2066,16,45,859,1848,1936,2100,2336,1976,1808,1862,1921
430273,-10864,16516,-16093,16675,-3800,225,1074,145,314,-171,-184,2292,0,41,859,1848,1936,2100,2336,1976,1808,1862,1921
431274,-10868,16572,-16028,16740,-3800,236,1094,6,293,-85,183,2138,13,34,858,1848,1936,2100,2336,1976,1808,1862,1921
432275,-10860,16644,-15963,16805,-3800,28,1076,-120,234,-109,390,2356,-2,34,859,1848,1936,2100,2336,1976,1808,1862,1921
433276,-10864,16708,-15898,16870,-3800,129,1042,-240,165,-24,660,2285,0,38,859,1848,1936,2100,2336,1976,1808,1862,1921
434277,-10876,16776,-15833,16935,-3800,76,983,-303,76,217,765,2451,2,35,859,1773,1819,2049,2296,1931,1747,1816,1871
435278,-10856,16856,-15768,17000,-3800,-93,910,-357,-28,51,773,2763,8,39,858,1773,1819,2049,2296,1931,1747,1816,1871
436279,-10872,16904,-15703,17065,-3800,328,844,-388,-148,-29,675,2684,3,29,859,1773,1819,2049,2296,1931,1747,1816,1871
437280,-10864,16972,-15638,17130,-3800,74,787,-402,-261,-220,526,3000,12,29,858,1773,1819,2049,2296,1931,1747,1816,1871
438281,-10860,17052,-15573,17195,-3800,-94,746,-399,-352,-449,320,3079,-1,29,859,1773,1819,2049,2296,1931,1747,1816,1871
439282,-10876,17112,-15508,17260,-3800,162,722,-385,-431,-584,8,3379,11,33,859,1740,1808,2013,2192,1947,1718,1803,1936
440283,-10876,17180,-15443,17325,-3800,59,714,-372,-481,-651,-302,3383,2,31,859,1740,1808,2013,2192,1947,1718,1803,1936
441284,-10876,17224,-15378,17390,-3800,384,731,-353,-518,-674,-582,3549,-3,37,859,1740,1808,2013,2192,1947,1718,1803,1936
442285,-10864,17280,-15313,17455,-3800,245,761,-338,-535,-852,-831,3544,6,36,858,1740,1808,2013,2192,1947,1718,1803,1936
443286,-10872,17356,-15248,17520,-3800,-18,797,-309,-528,-857,-934,3762,-4,37,858,1740,1808,2013,2192,1947,1718,1803,1936
444287,-10872,17392,-15183,17585,-3800,517,838,-281,-497,-877,-859,3727,-2,29,859,1740,1808,2013,2192,1947,1718,1803,1936
445288,-10864,17472,-15118,17650,-3800,-51,872,-234,-454,-697,-739,3783,-1,39,856,1682,1768,2034,2164,2030,1800,1862,2204
446289,-10868,17524,-15053,17715,-3800,315,893,-173,-423,-391,-544,3684,-1,43,859,1682,1768,2034,2164,2030,1800,1862,2204
447290,-10864,17580,-14988,17780,-3800,276,903,-128,-405,53,-349,3582,14,29,858,1682,1768,2034,2164,2030,1800,1862,2204
448291,-10884,17644,-14923,17845,-3800,177,907,-116,-397,361,-27,3509,9,28,858,1682,1768,2034,2164,2030,1800,1862,2204
449292,-10868,17684,-14858,17910,-3800,508,896,-124,-393,268,274,3548,4,41,859,1682,1768,2034,2164,2030,1800,1862,2204
450293,-10876,17756,-14793,17975,-3800,100,877,-152,-393,266,700,3606,3,39,857,1734,1837,2094,2283,2090,1891,1915,2019
451294,-10860,17824,-14594,18174,-3800,997,837,-161,-411,565,1060,3729,-2,28,859,1734,1837,2094,2283,2090,1891,1915,2019
452295,-10860,17896,-14529,18239,-3800,938,777,-173,-434,909,1346,3631,15,32,840,1734,1837,2094,2283,2090,1891,1915,2019
453296,-10872,17952,-14464,18304,-3800,1149,702,-175,-485,1104,1426,3808,15,44,854,1734,1837,2094,2283,2090,1891,1915,2019
454297,-10876,18036,-14399,18369,-3800,776,626,-212,-540,1059,1431,3841,13,46,851,1734,1837,2094,2283,2090,1891,1915,2019
455298,-10884,18140,-14334,18434,-3800,478,559,-263,-587,922,1350,4011,8,46,855,1734,1837,2094,2283,2090,1891,1915,2019
456299,-10872,18244,-14269,18499,-3800,431,519,-299,-630,897,1345,4007,2,59,850,1797,1849,2119,2344,2082,2009,2175,2014
457300,-10868,18328,-14204,18564,-3800,658,499,-303,-657,692,1140,4460,-3,47,857,1797,1849,2119,2344,2082,2009,2175,2014
458301,-10876,18420,-14139,18629,-3800,526,498,-319,-671,614,951,4256,15,60,856,1797,1849,2119,2344,2082,2009,2175,2014
459302,-10896,18552,-14074,18694,-3664,-56,487,-311,-687,564,803,4788,12,53,856,1797,1849,2119,2344,2082,2009,2175,2014
460303,-10872,18652,-14009,18759,-3800,301,485,-296,-686,382,564,4630,10,67,854,1797,1849,2119,2344,2082,2009,2175,2014
461304,-10884,18768,-13944,18824,-3622,39,493,-245,-672,474,464,5007,8,51,858,1756,1844,2116,2296,2123,1892,1924,2075
462305,-10884,18864,-13879,18889,-3694,251,506,-206,-653,404,349,4862,0,56,858,1756,1844,2116,2296,2123,1892,1924,2075
463306,-10880,18964,-13814,18954,-3670,158,536,-106,-638,485,189,5064,-2,48,858,1756,1844,2116,2296,2123,1892,1924,2075
464307,-10884,19056,-13749,19019,-3488,225,551,-29,-633,627,55,4823,6,51,855,1756,1844,2116,2296,2123,1892,1924,2075
465308,-10880,19168,-13684,19084,-3514,-82,566,41,-616,378,40,4957,15,50,858,1756,1844,2116,2296,2123,1892,1924,2075
466309,-10888,19264,-13619,19149,-3276,80,567,96,-593,313,145,4547,-3,45,859,1731,1866,2133,2344,2223,1877,1925,2075
467310,-10892,19352,-13554,19214,-3243,152,543,182,-567,539,392,4723,10,58,859,1731,1866,2133,2344,2223,1877,1925,2075
468311,-10892,19464,-13489,19279,-3215,-205,491,278,-570,782,559,4541,4,41,856,1731,1866,2133,2344,2223,1877,1925,2075
469312,-10900,19544,-13424,19344,-3027,175,432,353,-572,865,830,4450,-2,50,858,1731,1866,2133,2344,2223,1877,1925,2075
470313,-10900,19644,-13359,19409,-3048,-117,361,398,-570,758,1091,4401,-1,43,859,1731,1866,2133,2344,2223,1877,1925,2075
471314,-10896,19732,-13294,19474,-3025,5,284,394,-572,553,1205,4371,8,54,859,1731,1866,2133,2344,2223,1877,1925,2075
472315,-10892,19816,-13229,19539,-2951,31,198,339,-579,491,1273,4287,-2,38,857,1796,1920,2162,2337,2112,1876,1929,2016
473316,-10896,19876,-13164,19604,-2768,337,135,269,-592,668,1221,4285,-2,49,859,1796,1920,2162,2337,2112,1876,1929,2016
474317,-10908,19948,-13099,19669,-2574,179,77,197,-614,1127,1303,4440,14,38,857,1796,1920,2162,2337,2112,1876,1929,2016
475318,-10892,20044,-13034,19734,-2865,-159,41,140,-621,1328,1256,4543,13,40,858,1796,1920,2162,2337,2112,1876,1929,2016
476319,-10900,20112,-12969,19799,-2477,187,18,115,-620,1492,1158,4527,13,46,857,1796,1920,2162,2337,2112,1876,1929,2016
477320,-10884,20192,-12904,19864,-2718,19,15,89,-608,1610,1001,4497,-3,33,859,1792,1953,2213,2335,2112,1926,1951,2067
478321,-10896,20256,-12839,19929,-2275,220,25,67,-591,1709,844,4299,16,46,859,1792,1953,2213,2335,2112,1926,1951,2067
479322,-10896,20328,-12774,19994,-2346,111,39,53,-579,1744,709,4481,-4,32,857,1792,1953,2213,2335,2112,1926,1951,2067
480323,-10900,20408,-12709,20059,-2213,-8,53,35,-555,1720,521,4262,-4,44,858,1792,1953,2213,2335,2112,1926,1951,2067
481324,-10892,20476,-12644,20124,-2294,139,68,18,-520,1715,406,4161,9,39,859,1792,1953,2213,2335,2112,1926,1951,2067
482325,-10900,20512,-12579,20189,-2005,574,81,1,-483,1610,352,4090,9,36,858,1792,1953,2213,2335,2112,1926,1951,2067
483326,-10892,20572,-12514,20254,-2136,280,94,1,-438,1389,338,4113,-4,33,856,1754,1832,2120,2282,2152,1914,1937,2074
484327,-10900,20616,-12449,20319,-1848,506,108,8,-388,1156,358,4197,14,25,857,1754,1832,2120,2282,2152,1914,1937,2074
485328,-10892,20696,-12384,20384,-1979,38,120,32,-335,902,339,4084,11,33,857,1754,1832,2120,2282,2152,1914,1937,2074
486329,-10896,20728,-12319,20449,-1746,678,125,35,-290,626,386,3920,8,28,859,1754,1832,2120,2282,2152,1914,1937,2074
487330,-10892,20804,-12254,20514,-1771,113,115,38,-242,406,461,3837,0,36,856,1754,1832,2120,2282,2152,1914,1937,2074
488331,-10904,20860,-12189,20579,-1478,374,90,20,-208,137,533,3787,4,31,858,1794,1860,2102,2247,2096,1824,1879,2018
489332,-10896,20912,-12124,20644,-1659,440,41,1,-186,-31,620,3810,15,25,857,1794,1860,2102,2247,2096,1824,1879,2018
490333,-10892,20984,-12059,20709,-1535,182,-22,-9,-172,-16,664,3665,11,36,857,1794,1860,2102,2247,2096,1824,1879,2018
491334,-10896,21036,-11994,20774,-1351,448,-80,-8,-162,131,746,3542,4,30,858,1794,1860,2102,2247,2096,1824,1879,2018
492335,-10900,21096,-11929,20839,-1268,354,-141,2,-166,153,735,3644,-4,33,856,1794,1860,2102,2247,2096,1824,1879,2018
493336,-10896,21144,-11864,20904,-1293,525,-197,35,-171,239,704,3653,11,33,857,1794,1860,2102,2247,2096,1824,1879,2018
494337,-10900,21212,-11799,20969,-1110,271,-244,62,-178,403,676,3745,-1,34,857,1752,1884,2090,2224,2022,1766,1848,1980
495338,-10892,21272,-11734,21034,-1190,377,-278,98,-187,539,604,3743,-2,20,858,1752,1884,2090,2224,2022,1766,1848,1980
496339,-10896,21328,-11669,21099,-956,437,-297,116,-200,634,555,3776,8,28,856,1752,1884,2090,2224,2022,1766,1848,1980
497340,-10876,21340,-11604,21164,-1202,1052,-296,113,-203,745,449,3580,2,33,857,1752,1884,2090,2224,2022,1766,1848,1980
498341,-10900,21416,-11539,21229,-544,238,-285,115,-201,873,298,3806,12,24,852,1752,1884,2090,2224,2022,1766,1848,1980
499342,-10904,21464,-11474,21294,-709,609,-254,126,-181,1036,202,3620,9,33,858,1708,1827,2046,2196,2038,1808,1862,1983
500343,-10904,21512,-11409,21359,-680,630,-219,127,-164,1208,109,3600,-4,30,856,1708,1827,2046,2196,2038,1808,1862,1983
501344,-10900,21576,-11344,21424,-655,431,-180,129,-130,1149,98,3445,1,36,856,1708,1827,2046,2196,2038,1808,1862,1983
502345,-10888,21632,-11279,21489,-692,542,-133,107,-82,971,100,3248,-3,36,857,1708,1827,2046,2196,2038,1808,1862,1983
503346,-10900,21688,-11214,21554,-298,553,-93,88,-35,930,91,3204,-1,22,856,1708,1827,2046,2196,2038,1808,1862,1983
504347,-10900,21740,-11149,21619,-368,619,-63,49,11,870,198,3080,14,29,856,1708,1827,2046,2196,2038,1808,1862,1983
505348,-10896,21800,-11084,21684,-344,525,-48,-12,60,642,370,3086,2,32,856,1724,1816,2068,2260,2042,1834,2200,2138
506349,-10884,21868,-11019,21749,-379,421,-45,-73,101,458,468,2968,6,27,856,1724,1816,2068,2260,2042,1834,2200,2138
507350,-10896,21896,-10954,21814,15,966,-53,-112,137,483,525,2988,-4,39,857,1724,1816,2068,2260,2042,1834,2200,2138
508351,-10896,21964,-10889,21879,-56,463,-72,-157,169,486,590,3018,-4,29,853,1724,1816,2068,2260,2042,1834,2200,2138
509352,-10896,22016,-10824,21944,23,679,-95,-176,188,340,695,3096,13,24,857,1724,1816,2068,2260,2042,1834,2200,2138
510353,-10880,22060,-10759,22009,-117,804,-125,-173,200,255,710,3165,-4,23,855,1756,1850,2081,2276,2008,1789,1852,1948
511354,-10884,22104,-10694,22074,217,830,-155,-162,202,263,669,3213,12,33,850,1756,1850,2081,2276,2008,1789,1852,1948
512355,-10892,22176,-10629,22139,357,471,-191,-147,200,143,657,3428,-3,38,853,1756,1850,2081,2276,2008,1789,1852,1948
513356,-10892,22228,-10564,22204,336,737,-224,-125,197,75,499,3486,1,37,854,1756,1850,2081,2276,2008,1789,1852,1948
514357,-10896,22292,-10499,22269,470,588,-249,-80,179,212,382,3690,11,39,853,1756,1850,2081,2276,2008,1789,1852,1948
515358,-10884,22356,-10434,22334,335,590,-259,-30,160,372,238,3759,0,34,854,1756,1850,2081,2276,2008,1789,1852,1948
516359,-10884,22428,-10369,22399,564,481,-257,9,148,125,150,3957,3,27,854,1748,1854,2078,2232,2080,1856,1834,1969
517360,-10888,22484,-10304,22464,699,692,-244,63,130,20,179,3874,19,35,854,1748,1854,2078,2232,2080,1856,1834,1969
518361,-10876,22564,-10239,22529,564,374,-215,114,119,92,181,4070,16,42,851,1748,1854,2078,2232,2080,1856,1834,1969
519362,-10852,22612,-10174,22594,464,795,-184,145,116,98,62,4166,25,40,854,1748,1854,2078,2232,2080,1856,1834,1969
520363,-10820,22672,-10109,22659,404,651,-144,181,110,146,-58,4084,22,32,852,1748,1854,2078,2232,2080,1856,1834,1969
521364,-10800,22740,-10044,22724,610,547,-106,222,102,357,109,4234,26,34,853,1710,1835,2057,2199,2033,1800,1865,1995
522365,-10760,22800,-9979,22789,391,653,-76,222,112,317,270,3836,19,41,853,1710,1835,2057,2199,2033,1800,1865,1995
523366,-10716,22852,-9914,22854,367,769,-54,217,118,258,396,3934,32,29,854,1710,1835,2057,2199,2033,1800,1865,1995
524367,-10676,22912,-9849,22919,448,675,-36,212,129,281,459,3763,27,35,853,1710,1835,2057,2199,2033,1800,1865,1995
525368,-10640,22972,-9784,22984,533,681,-26,198,141,518,591,3742,21,43,853,1710,1835,2057,2199,2033,1800,1865,1995
526369,-10596,23032,-9719,23049,459,687,-24,193,157,602,693,3551,36,40,853,1710,1835,2057,2199,2033,1800,1865,1995
527370,-10556,23092,-9654,23114,541,693,-24,155,179,643,710,3448,38,43,853,1763,1877,2188,2380,2064,1856,1918,2012
528371,-10504,23164,-9589,23179,406,535,-37,102,193,598,871,3438,23,45,853,1763,1877,2188,2380,2064,1856,1918,2012
529372,-10456,23240,-9524,23244,477,471,-50,55,208,551,913,3492,38,33,854,1763,1877,2188,2380,2064,1856,1918,2012
530373,-10412,23276,-9459,23309,554,1007,-69,16,220,760,902,3561,24,29,853,1763,1877,2188,2380,2064,1856,1918,2012
531374,-10348,23348,-9394,23374,305,548,-92,-19,227,746,870,3624,27,40,850,1763,1877,2188,2380,2064,1856,1918,2012
532375,-10300,23388,-9329,23439,526,979,-112,-60,222,718,787,3705,43,42,855,1795,1871,2115,2358,2072,1860,1908,1984
533376,-10244,23456,-9264,23504,438,625,-120,-99,218,627,538,3969,44,38,851,1795,1871,2115,2358,2072,1860,1908,1984
534377,-10196,23532,-9199,23569,559,512,-115,-130,212,554,415,4157,30,33,854,1795,1871,2115,2358,2072,1860,1908,1984
535378,-10148,23584,-9134,23634,579,828,-106,-158,198,479,255,4251,30,37,854,1795,1871,2115,2358,2072,1860,1908,1984
536382,-10084,23652,-9069,23699,382,624,-95,-182,192,466,131,4300,31,38,851,1795,1871,2115,2358,2072,1860,1908,1984
537380,-10028,23716,-9004,23764,493,675,-78,-179,187,420,170,4529,33,44,854,1795,1871,2115,2358,2072,1860,1908,1984
538381,-9972,23776,-8939,23829,504,731,-60,-147,170,490,102,4591,47,43,853,1835,1970,2115,2267,2047,1815,1871,2005
539382,-9892,23832,-8874,23894,186,792,-49,-127,167,423,17,4679,44,38,852,1835,1970,2115,2267,2047,1815,1871,2005
540383,-9848,23900,-8809,23959,662,639,-33,-123,160,203,64,4724,33,33,854,1835,1970,2115,2267,2047,1815,1871,2005
541384,-9780,23956,-8744,24024,359,800,-18,-114,148,116,31,4754,42,41,852,1835,1970,2115,2267,2047,1815,1871,2005
542385,-9732,24052,-8679,24089,630,262,0,-98,153,165,165,4623,42,46,853,1835,1970,2115,2267,2047,1815,1871,2005
543386,-9668,24116,-8614,24154,432,663,2,-105,160,296,358,4376,45,44,855,1737,1871,2098,2242,2050,1803,1881,2019
544387,-9600,24180,-8549,24219,378,664,-10,-86,167,236,456,4513,46,47,854,1737,1871,2098,2242,2050,1803,1881,2019
545388,-9544,24260,-8484,24284,539,446,-30,-73,172,329,572,4294,38,31,854,1737,1871,2098,2242,2050,1803,1881,2019
546389,-9476,24296,-8419,24349,387,1031,-44,-70,181,378,665,4252,38,29,854,1737,1871,2098,2242,2050,1803,1881,2019
547390,-9416,24364,-8354,24414,493,628,-64,-66,193,417,758,4091,37,39,849,1737,1871,2098,2242,2050,1803,1881,2019
548391,-9352,24408,-8289,24479,445,953,-77,-78,198,379,797,4081,36,29,853,1737,1871,2098,2242,2050,1803,1881,2019
549392,-9304,24480,-8224,24544,666,595,-84,-85,187,444,884,4027,32,41,851,1794,1924,2143,2316,2100,1864,1940,2058
550393,-9228,24540,-8159,24609,302,751,-82,-82,188,620,730,4025,32,40,852,1794,1924,2143,2316,2100,1864,1940,2058
551394,-9192,24608,-8094,24674,839,647,-87,-85,188,787,784,3952,48,38,854,1794,1924,2143,2316,2100,1864,1940,2058
552395,-9140,24660,-8029,24739,655,863,-87,-100,181,783,658,3941,43,41,851,1794,1924,2143,2316,2100,1864,1940,2058
553396,-9072,24692,-7964,24804,452,1153,-82,-120,174,788,543,4021,44,42,850,1794,1924,2143,2316,2100,1864,1940,2058
554397,-9020,24760,-7899,24869,668,700,-64,-155,174,729,323,3890,44,39,849,1806,1905,2149,2345,2117,1895,1932,2230
555398,-8960,24820,-7834,24934,574,806,-52,-192,173,732,358,4178,47,42,851,1806,1905,2149,2345,2117,1895,1932,2230
556399,-8900,24884,-7769,24999,581,757,-22,-207,166,615,183,4239,31,41,851,1806,1905,2149,2345,2117,1895,1932,2230
557400,-8840,24932,-7704,25064,587,978,1,-223,183,696,-34,4196,42,34,851,1806,1905,2149,2345,2117,1895,1932,2230
558401,-8788,25008,-7639,25129,704,614,27,-242,205,687,-5,4348,31,32,850,1806,1905,2149,2345,2117,1895,1932,2230
559402,-8744,25068,-7574,25194,830,820,48,-254,225,442,-73,4458,46,36,852,1806,1905,2149,2345,2117,1895,1932,2230
560403,-8672,25140,-7509,25259,472,662,58,-244,248,404,-40,4625,31,40,849,1778,1863,2119,2300,2054,1835,1874,1974
561404,-8616,25188,-7444,25324,683,983,73,-235,277,408,-96,4497,46,36,853,1778,1863,2119,2300,2054,1835,1874,1974
562405,-8560,25256,-7379,25389,694,729,78,-219,296,376,97,4608,31,33,849,1778,1863,2119,2300,2054,1835,1874,1974
563406,-8500,25320,-7314,25454,651,780,70,-195,319,254,102,4585,29,40,851,1778,1863,2119,2300,2054,1835,1874,1974
564407,-8448,25388,-7249,25519,767,726,53,-155,339,145,116,4583,41,41,850,1778,1863,2119,2300,2054,1835,1874,1974
565408,-8388,25484,-7184,25584,674,339,30,-99,353,244,209,4473,36,42,851,1756,1866,2097,2275,2003,1891,2112,1971
566409,-8348,25552,-7119,25649,955,685,11,-39,381,400,349,4182,36,41,854,1756,1866,2097,2275,2003,1891,2112,1971
567410,-8296,25616,-7054,25714,822,737,-4,-16,403,182,443,4175,33,44,849,1756,1866,2097,2275,2003,1891,2112,1971
568411,-8232,25688,-6989,25779,673,629,-24,26,417,58,428,4026,40,44,850,1756,1866,2097,2275,2003,1891,2112,1971
569412,-8172,25760,-6924,25844,730,620,-23,74,430,133,692,4158,36,38,852,1756,1866,2097,2275,2003,1891,2112,1971
570413,-8116,25812,-6859,25909,791,886,-27,96,436,147,559,3878,33,35,851,1756,1866,2097,2275,2003,1891,2112,1971
571414,-8064,25868,-6794,25974,858,847,-12,114,422,189,395,3917,42,35,849,1795,1908,2111,2287,2033,1808,1907,2027
572415,-8008,25932,-6729,26039,819,748,16,92,413,181,355,3542,37,44,849,1795,1908,2111,2287,2033,1808,1907,2027
573416,-7940,25988,-6664,26104,666,859,39,71,394,196,325,3617,46,35,850,1795,1908,2111,2287,2033,1808,1907,2027
574417,-7892,26040,-6599,26169,937,925,72,92,389,328,207,3623,33,31,850,1795,1908,2111,2287,2033,1808,1907,2027
575418,-7840,26100,-6534,26234,904,831,105,104,372,579,217,3615,40,30,847,1795,1908,2111,2287,2033,1808,1907,2027
576419,-7780,26156,-6469,26299,810,892,137,122,369,449,28,3588,49,46,849,1805,1911,2141,2389,2175,1871,1919,2023
577420,-7728,26236,-6404,26364,927,574,177,124,377,460,1,3636,34,32,849,1805,1911,2141,2389,2175,1871,1919,2023
578421,-7660,26292,-6339,26429,723,885,212,136,383,566,0,3727,33,42,850,1805,1911,2141,2389,2175,1871,1919,2023
579422,-7616,26348,-6274,26494,1050,896,247,107,412,483,-13,3818,48,40,849,1805,1911,2141,2389,2175,1871,1919,2023
580423,-7576,26408,-6209,26559,1130,852,281,86,436,426,10,3888,39,33,847,1805,1911,2141,2389,2175,1871,1919,2023
581424,-7496,26456,-6144,26624,613,1023,299,70,456,421,-41,4059,36,48,845,1805,1911,2141,2389,2175,1871,1919,2023
582425,-7448,26532,-6079,26689,1034,659,314,56,484,544,-43,3898,52,50,849,1771,1861,2097,2285,2003,1795,1847,1931
583426,-7384,26600,-6014,26754,836,755,326,43,519,618,128,4039,38,45,848,1771,1861,2097,2285,2003,1795,1847,1931
584427,-7340,26656,-5949,26819,1111,916,326,46,564,362,65,4067,37,50,850,1771,1861,2097,2285,2003,1795,1847,1931
585428,-7280,26744,-5884,26884,919,488,322,38,609,358,151,4087,40,36,846,1771,1861,2097,2285,2003,1795,1847,1931
586430,-7236,26808,-5819,26949,1144,790,321,53,639,365,248,4131,49,55,851,1771,1861,2097,2285,2003,1795,1847,1931
587430,-7180,26884,-5754,27014,1006,626,304,62,662,364,314,4080,37,38,847,1764,1942,2164,2288,1957,1754,1827,1922
588431,-7116,26928,-5689,27079,907,1053,306,67,679,427,347,3988,37,45,849,1764,1942,2164,2288,1957,1754,1827,1922
589432,-7056,27016,-5624,27144,965,475,301,51,694,200,199,3887,35,53,847,1764,1942,2164,2288,1957,1754,1827,1922
590433,-6992,27088,-5559,27209,916,666,305,49,695,147,225,3874,48,55,850,1764,1942,2164,2288,1957,1754,1827,1922
591434,-6928,27180,-5494,27274,918,383,315,57,675,287,301,3811,39,43,849,1764,1942,2164,2288,1957,1754,1827,1922
592435,-6864,27256,-5429,27339,919,570,330,76,658,412,97,3725,45,54,851,1764,1942,2164,2288,1957,1754,1827,1922
593436,-6808,27320,-5364,27404,1031,721,365,107,637,498,266,3816,46,45,850,1788,1894,2115,2302,2025,1806,1884,2001
594437,-6764,27380,-5299,27469,1208,777,412,111,616,323,286,3716,43,50,848,1788,1894,2115,2302,2025,1806,1884,2001
595438,-6692,27460,-5234,27534,849,509,467,135,608,87,100,3735,46,52,846,1788,1894,2115,2302,2025,1806,1884,2001
596439,-6652,27544,-5169,27599,1281,436,519,149,598,364,209,3814,42,53,851,1788,1894,2115,2302,2025,1806,1884,2001
597440,-6576,27616,-5104,27664,817,577,588,225,599,640,117,3799,50,41,848,1788,1894,2115,2302,2025,1806,1884,2001
598441,-6520,27680,-5039,27729,1079,678,654,276,595,542,139,3714,38,42,849,1861,1921,2142,2324,2059,1832,1895,1994
599442,-6476,27744,-4974,27794,1255,680,711,299,576,234,292,3655,43,42,848,1861,1921,2142,2324,2059,1832,1895,1994
600443,-6412,27812,-4909,27859,1007,626,731,266,573,7,301,3741,41,36,846,1861,1921,2142,2324,2059,1832,1895,1994
601444,-6360,27864,-4844,27924,1173,842,697,188,590,34,515,3585,50,37,849,1861,1921,2142,2324,2059,1832,1895,1994
602445,-6300,27928,-4779,27989,1080,693,657,119,623,190,420,3885,36,44,846,1861,1921,2142,2324,2059,1832,1895,1994
603446,-6256,28020,-4714,28054,1307,310,650,69,661,-39,405,4175,48,50,848,1861,1921,2142,2324,2059,1832,1895,1994
604447,-6208,28092,-4649,28119,1278,551,631,22,701,435,335,4004,45,39,848,1804,1905,2130,2324,2006,1797,1857,1952
605448,-6148,28160,-4584,28184,1135,598,609,24,735,736,366,4410,48,43,847,1804,1905,2130,2324,2006,1797,1857,1952
606449,-6088,28200,-4519,28249,1141,978,589,55,775,771,319,4286,52,50,848,1804,1905,2130,2324,2006,1797,1857,1952
607450,-6040,28268,-4454,28314,1313,625,596,103,801,889,262,4624,40,42,846,1804,1905,2130,2324,2006,1797,1857,1952
608451,-5984,28344,-4389,28379,1225,511,623,199,814,1151,114,4514,47,45,846,1804,1905,2130,2324,2006,1797,1857,1952
609452,-5920,28412,-4324,28444,1126,608,657,273,822,1367,-23,4418,53,39,848,1768,1860,2096,2287,2015,1783,1846,1984
610453,-5868,28476,-4259,28509,1293,659,713,331,813,1129,-46,4409,50,36,848,1768,1860,2096,2287,2015,1783,1846,1984
611454,-5792,28540,-4194,28574,979,660,765,400,788,796,-57,4307,35,49,847,1768,1860,2096,2287,2015,1783,1846,1984
612455,-5744,28576,-4129,28639,1351,1045,803,442,773,655,-91,4045,46,39,849,1768,1860,2096,2287,2015,1783,1846,1984
613456,-5684,28652,-4064,28704,1208,532,843,446,768,555,268,4079,32,46,843,1768,1860,2096,2287,2015,1783,1846,1984
614457,-5632,28736,-3999,28769,1324,409,924,421,764,-228,282,4073,35,41,847,1768,1860,2096,2287,2015,1783,1846,1984
615458,-5584,28800,-3934,28834,1396,660,963,370,779,-142,368,3946,39,51,847,1760,1860,2120,2312,2064,1844,2167,2187
616459,-5512,28848,-3869,28899,1087,881,977,326,791,-336,615,3887,33,46,845,1760,1860,2120,2312,2064,1844,2167,2187
617460,-5452,28912,-3804,28964,1244,682,957,304,799,-352,598,3639,33,38,846,1760,1860,2120,2312,2064,1844,2167,2187
618461,-5396,28980,-3739,29029,1306,628,926,266,797,21,666,3644,32,40,847,1760,1860,2120,2312,2064,1844,2167,2187
619462,-5352,29036,-3674,29094,1482,789,882,270,782,307,604,3599,46,37,846,1760,1860,2120,2312,2064,1844,2167,2187
620463,-5304,29096,-3609,29159,1454,745,840,295,769,584,591,3711,42,35,844,1821,1923,2169,2389,2033,1826,1891,1983
621464,-5232,29152,-3544,29224,1146,806,801,328,750,909,600,3774,41,36,844,1821,1923,2169,2389,2033,1826,1891,1983
622465,-5180,29224,-3479,29289,1412,598,782,396,723,1027,466,4012,48,39,847,1821,1923,2169,2389,2033,1826,1891,1983
623466,-5128,29276,-3414,29354,1429,864,767,472,703,1255,359,3940,45,46,845,1821,1923,2169,2389,2033,1826,1891,1983
624467,-5064,29324,-3349,29419,1281,934,770,535,700,1403,270,4166,42,49,844,1821,1923,2169,2389,2033,1826,1891,1983
625468,-5016,29388,-3284,29484,1502,736,781,588,682,1372,277,4239,37,45,844,1821,1923,2169,2389,2033,1826,1891,1983
626469,-4944,29460,-3219,29549,1194,627,800,630,671,1355,-15,4195,35,38,843,1825,1906,2154,2359,2095,1937,1953,1976
627470,-4892,29528,-3154,29614,1461,673,838,636,667,1336,15,4041,43,51,847,1825,1906,2154,2359,2095,1937,1953,1976
628471,-4824,29576,-3089,29679,1257,944,869,597,645,1157,139,4002,46,45,845,1825,1906,2154,2359,2095,1937,1953,1976
629472,-4788,29628,-3024,29744,1694,910,897,554,633,823,26,4034,52,46,844,1825,1906,2154,2359,2095,1937,1953,1976
630473,-4720,29700,-2959,29809,1291,652,913,474,611,849,118,4028,51,35,840,1825,1906,2154,2359,2095,1937,1953,1976
631474,-4668,29768,-2894,29874,1507,699,932,411,578,672,169,3968,53,40,846,1775,1844,2127,2347,2038,1848,1869,1954
632475,-4604,29828,-2829,29939,1359,805,931,295,549,574,442,3736,41,52,842,1775,1844,2127,2347,2038,1848,1869,1954
633476,-4556,29884,-2764,30004,1581,866,895,195,533,537,478,3799,49,38,844,1775,1844,2127,2347,2038,1848,1869,1954
634477,-4492,29956,-2699,30069,1382,657,854,123,500,637,686,3644,53,54,841,1775,1844,2127,2347,2038,1848,1869,1954
635478,-4432,30036,-2634,30134,1439,539,815,74,475,495,635,3626,56,42,845,1775,1844,2127,2347,2038,1848,1869,1954
636479,-4360,30096,-2569,30199,1282,795,772,61,456,823,672,3657,41,44,845,1775,1844,2127,2347,2038,1848,1869,1954
637480,-4300,30168,-2504,30264,1438,637,733,53,455,884,775,3696,55,43,845,1797,1861,2205,2467,2071,1853,1893,1976
638481,-4244,30244,-2439,30329,1500,573,681,76,441,923,690,3702,40,49,845,1797,1861,2205,2467,2071,1853,1893,1976
639482,-4176,30304,-2374,30394,1347,779,651,121,424,892,657,3815,37,54,845,1797,1861,2205,2467,2071,1853,1893,1976
640483,-4116,30376,-2309,30459,1453,621,638,182,397,1090,637,3859,49,46,845,1797,1861,2205,2467,2071,1853,1893,1976
641484,-4044,30444,-2244,30524,1296,667,637,243,375,1172,438,4076,51,52,845,1797,1861,2205,2467,2071,1853,1893,1976
642485,-3996,30508,-2179,30589,1618,718,641,284,353,1097,402,3935,45,39,846,1838,1906,2186,2413,2075,1877,1917,2018
643486,-3944,30568,-2114,30654,1583,774,655,317,312,977,417,4173,36,40,842,1838,1906,2186,2413,2075,1877,1917,2018
644487,-3880,30636,-2049,30719,1436,671,660,364,271,838,277,4083,51,54,843,1838,1906,2186,2413,2075,1877,1917,2018
645488,-3824,30696,-1984,30784,1548,777,676,383,216,856,339,4200,42,50,845,1838,1906,2186,2413,2075,1877,1917,2018
646489,-3752,30780,-1919,30849,1339,454,691,380,164,618,360,4182,38,41,843,1838,1906,2186,2413,2075,1877,1917,2018
647490,-3716,30828,-1854,30914,1825,924,694,364,135,312,412,4167,52,52,847,1838,1906,2186,2413,2075,1877,1917,2018
648491,-3648,30908,-1789,30979,1423,506,694,352,111,217,551,4218,37,40,838,1863,1988,2228,2394,2068,1868,1898,1992
649492,-3592,30972,-1724,31044,1585,707,683,335,86,206,469,4136,45,54,844,1863,1988,2228,2394,2068,1868,1898,1992
650493,-3540,31040,-1659,31109,1651,654,663,327,69,281,463,4233,44,45,843,1863,1988,2228,2394,2068,1868,1898,1992
651494,-3492,31108,-1594,31174,1722,650,635,326,61,188,660,4216,31,54,842,1863,1988,2228,2394,2068,1868,1898,1992
652495,-3428,31184,-1529,31239,1525,537,599,332,64,287,639,4194,40,54,842,1863,1988,2228,2394,2068,1868,1898,1992
653496,-3396,31256,-1464,31304,1965,578,574,376,66,460,662,4472,40,46,844,1816,1876,2166,2376,2016,1833,1864,1952
654497,-3336,31316,-1399,31369,1622,734,548,425,80,396,852,4302,34,46,839,1816,1876,2166,2376,2016,1833,1864,1952
655498,-3280,31388,-1334,31434,1684,576,522,481,92,408,792,4362,36,59,842,1816,1876,2166,2376,2016,1833,1864,1952
656499,-3208,31488,-1269,31499,1476,183,497,539,97,517,852,4416,44,46,843,1816,1876,2166,2376,2016,1833,1864,1952
657500,-3152,31576,-1204,31564,1687,305,485,591,95,582,855,4365,53,47,847,1816,1876,2166,2376,2016,1833,1864,1952
658501,-3096,31640,-1139,31629,1699,606,479,643,104,521,700,4457,40,58,844,1816,1876,2166,2376,2016,1833,1864,1952
659502,-3028,31684,-1074,31694,1547,882,482,693,102,528,865,4443,38,50,842,1862,1887,2159,2379,2047,1863,1893,1990
660503,-2968,31768,-1009,31759,1654,359,495,747,88,441,827,4542,55,45,842,1862,1887,2159,2379,2047,1863,1893,1990
661504,-2916,31840,-944,31824,1770,500,515,791,78,322,895,4465,41,44,844,1862,1887,2159,2379,2047,1863,1893,1990
662505,-2836,31896,-879,31889,1402,711,537,823,55,234,952,4275,56,55,842,1862,1887,2159,2379,2047,1863,1893,1990
663506,-2760,31952,-814,31954,1440,722,547,856,36,177,837,4255,45,54,845,1862,1887,2159,2379,2047,1863,1893,1990
664507,-2696,32036,-749,32019,1592,349,558,878,22,91,928,4155,45,42,844,1785,1875,2144,2341,2095,1881,1920,2095
665508,-2628,32096,-684,32084,1539,655,556,888,4,17,1004,4196,41,54,845,1785,1875,2144,2341,2095,1881,1920,2095
666509,-2556,32172,-619,32149,1481,441,565,921,-12,58,874,4274,55,45,843,1785,1875,2144,2341,2095,1881,1920,2095
667510,-2496,32236,-554,32214,1638,593,571,943,-39,-92,1071,4244,45,43,845,1785,1875,2144,2341,2095,1881,1920,2095
668511,-2428,32308,-489,32279,1535,484,566,943,-55,-196,911,4123,49,50,843,1785,1875,2144,2341,2095,1881,1920,2095
669512,-2376,32376,-424,32344,1751,530,553,945,-62,-170,1194,4150,45,55,845,1785,1875,2144,2341,2095,1881,1920,2095
670513,-2296,32464,-359,32409,1384,252,523,945,-87,49,1151,3951,48,42,842,1794,1896,2158,2338,2091,1868,1908,2021
671514,-2244,32504,-294,32474,1751,883,498,949,-102,117,1040,4034,39,57,847,1794,1896,2158,2338,2091,1868,1908,2021
672515,-2176,32588,-229,32539,1548,310,468,922,-113,6,1086,3990,56,43,840,1794,1896,2158,2338,2091,1868,1908,2021
673516,-2124,32644,-164,32604,1764,671,442,915,-118,-55,1031,4067,52,43,845,1794,1896,2158,2338,2091,1868,1908,2021
674517,-2056,32704,-99,32669,1561,627,425,925,-123,232,975,4226,43,56,841,1794,1896,2158,2338,2091,1868,1908,2021
675518,-2000,32772,-34,32734,1723,523,400,941,-103,353,1156,4185,45,45,843,1793,1895,2151,2319,2049,1843,2123,2181
676519,-1956,32836,31,32799,1899,574,384,955,-94,486,1163,4185,37,44,842,1793,1895,2151,2319,2049,1843,2123,2181
677520,-1896,32896,96,32864,1706,630,376,958,-90,311,1191,4127,36,58,840,1793,1895,2151,2319,2049,1843,2123,2181
678521,-1836,32956,161,32929,1713,637,369,953,-86,294,1210,4128,49,58,842,1793,1895,2151,2319,2049,1843,2123,2181
679522,-1768,33020,226,32994,1611,588,361,937,-88,371,1270,4119,46,43,842,1793,1895,2151,2319,2049,1843,2123,2181
680523,-1680,33080,291,33059,1334,644,355,919,-93,254,1255,4112,51,49,843,1793,1895,2151,2319,2049,1843,2123,2181
681524,-1624,33148,356,33124,1744,540,353,896,-104,177,1262,4218,43,51,846,1756,1862,2114,2272,2048,1833,1878,2002
682525,-1560,33220,421,33189,1647,482,340,895,-109,259,1290,4149,59,42,842,1756,1862,2114,2272,2048,1833,1878,2002
683526,-1484,33280,486,33254,1484,638,332,881,-124,296,1369,3803,42,52,842,1756,1862,2114,2272,2048,1833,1878,2002
684527,-1416,33356,551,33319,1582,424,322,825,-159,15,1404,3713,52,53,844,1756,1862,2114,2272,2048,1833,1878,2002
685528,-1348,33404,616,33384,1578,795,318,761,-185,-309,1411,3604,45,40,845,1756,1862,2114,2272,2048,1833,1878,2002
686529,-1276,33480,681,33449,1520,432,311,696,-214,-224,1420,3679,44,53,842,1744,1844,2096,2241,2145,1985,1909,2031
687530,-1216,33548,746,33514,1678,528,310,679,-239,45,1410,3853,44,43,845,1744,1844,2096,2241,2145,1985,1909,2031
688531,-1140,33612,811,33579,1464,579,313,665,-269,135,1604,3705,40,54,843,1744,1844,2096,2241,2145,1985,1909,2031
689532,-1092,33684,876,33644,1836,471,311,638,-286,-156,1618,3466,45,58,845,1744,1844,2096,2241,2145,1985,1909,2031
690533,-1028,33748,941,33709,1638,572,294,595,-293,-183,1514,3528,55,48,842,1744,1844,2096,2241,2145,1985,1909,2031
691534,-940,33816,1006,33774,1311,518,275,573,-302,-74,1642,3502,50,54,843,1748,1863,2123,2283,2079,1851,1899,2027
692535,-900,33888,1071,33839,1942,460,270,550,-314,-28,1565,3479,51,58,847,1748,1863,2123,2283,2079,1851,1899,2027
693536,-836,33952,1136,33904,1644,561,253,563,-314,24,1555,3656,46,53,840,1748,1863,2123,2283,2079,1851,1899,2027
694537,-772,34024,1201,33969,1646,452,235,556,-325,161,1539,3545,38,46,843,1748,1863,2123,2283,2079,1851,1899,2027
695538,-700,34080,1266,34034,1538,663,218,568,-339,234,1495,3604,54,59,844,1748,1863,2123,2283,2079,1851,1899,2027
696539,-636,34156,1331,34099,1640,400,204,558,-349,193,1393,3544,58,42,844,1748,1863,2123,2283,2079,1851,1899,2027
697540,-568,34200,1396,34164,1587,826,192,575,-370,203,1453,3651,54,45,844,1754,1864,2200,2352,2048,1819,1860,2000
698541,-504,34288,1461,34229,1639,247,170,589,-385,335,1339,3775,53,60,842,1754,1864,2200,2352,2048,1819,1860,2000
699542,-420,34360,1526,34294,1367,439,153,610,-406,481,1560,3800,53,47,844,1754,1864,2200,2352,2048,1819,1860,2000
700543,-352,34408,1591,34359,1563,760,139,603,-425,222,1583,3641,52,53,845,1754,1864,2200,2352,2048,1819,1860,2000
701544,-268,34484,1790,34558,1505,560,126,573,-438,-43,1513,3696,43,54,843,1754,1864,2200,2352,2048,1819,1860,2000
702545,-200,34548,1855,34623,1702,711,105,549,-459,-22,1590,3648,51,59,845,1745,1842,2103,2265,2014,1807,1842,1955
703546,-136,34628,1920,34688,1754,493,99,502,-484,52,1575,3584,61,60,842,1745,1842,2103,2265,2014,1807,1842,1955
704547,-64,34712,1985,34753,1647,420,87,461,-513,-94,1520,3530,62,63,842,1745,1842,2103,2265,2014,1807,1842,1955
705548,20,34804,2050,34818,1474,287,73,449,-543,-8,1388,3672,47,57,844,1745,1842,2103,2265,2014,1807,1842,1955
706549,96,34872,2115,34883,1561,583,61,460,-560,158,1322,3493,58,50,847,1745,1842,2103,2265,2014,1807,1842,1955
707550,180,34932,2180,34948,1439,689,63,488,-590,471,1851,3617,54,49,844,1745,1842,2103,2265,2014,1807,1842,1955
708551,256,35024,2245,35013,1526,256,59,486,-600,109,1695,3360,62,52,845,1806,1915,2099,2271,2026,1823,1863,1983
709552,336,35108,2310,35078,1458,333,61,488,-600,5,1481,3473,52,46,846,1806,1915,2099,2271,2026,1823,1863,1983
710553,400,35184,2375,35143,1660,419,67,544,-585,296,1513,3825,50,51,846,1806,1915,2099,2271,2026,1823,1863,1983
711554,468,35252,2440,35208,1608,516,91,584,-587,357,1870,3554,59,63,844,1806,1915,2099,2271,2026,1823,1863,1983
712555,548,35320,2505,35273,1440,512,97,583,-599,-42,1772,3330,62,56,844,1806,1915,2099,2271,2026,1823,1863,1983
713556,632,35384,2570,35338,1367,563,92,605,-612,91,1534,3615,46,65,846,1741,1837,2109,2290,2048,1839,1874,1988
714557,684,35456,2635,35403,1784,455,76,656,-627,568,1485,3511,46,64,846,1741,1837,2109,2290,2048,1839,1874,1988
715558,760,35540,2700,35468,1472,282,59,712,-659,864,1452,3422,41,63,843,1741,1837,2109,2290,2048,1839,1874,1988
716559,844,35624,2765,35533,1349,258,56,707,-722,372,1581,3121,59,51,846,1741,1837,2109,2290,2048,1839,1874,1988
717560,904,35692,2830,35598,1656,454,54,690,-776,-251,1196,3139,56,50,847,1741,1837,2109,2290,2048,1839,1874,1988
718561,992,35764,2895,35663,1278,395,46,752,-795,95,1191,3716,44,47,844,1741,1837,2109,2290,2048,1839,1874,1988
719562,1052,35836,2960,35728,1636,387,21,807,-807,824,1460,3428,62,47,848,1765,1854,2130,2315,2030,1825,1852,1958
720563,1124,35928,3025,35793,1477,104,7,806,-802,203,1406,3518,62,62,844,1765,1854,2130,2315,2030,1825,1852,1958
721564,1208,36004,3090,35858,1305,290,0,794,-808,-331,1501,3584,43,57,847,1765,1854,2130,2315,2030,1825,1852,1958
722565,1272,36076,3155,35923,1557,332,-2,784,-822,-54,1418,3566,52,48,848,1765,1854,2130,2315,2030,1825,1852,1958
723566,1348,36128,3220,35988,1395,598,-23,793,-830,271,1036,3864,59,46,846,1765,1854,2130,2315,2030,1825,1852,1958
724567,1428,36200,3285,36053,1326,339,-53,860,-815,672,1104,3829,61,55,846,1760,1838,2124,2312,1998,1801,1828,2081
725568,1512,36284,3350,36118,1254,166,-60,897,-846,799,1459,3646,57,63,847,1760,1838,2124,2312,1998,1801,1828,2081
726569,1616,36352,3415,36183,958,362,-75,914,-856,201,1061,3655,61,56,849,1760,1838,2124,2312,1998,1801,1828,2081
727570,1684,36432,3480,36248,1404,194,-100,961,-865,545,1000,3889,63,54,851,1760,1838,2124,2312,1998,1801,1828,2081
728571,1752,36500,3545,36313,1401,340,-117,1057,-850,1122,887,3898,48,48,847,1760,1838,2124,2312,1998,1801,1828,2081
729572,1836,36576,3610,36378,1179,227,-126,1080,-841,972,1183,3602,55,49,847,1760,1838,2124,2312,1998,1801,1828,2081
730573,1908,36636,3675,36443,1320,433,-128,1065,-855,282,1263,3604,48,58,850,1747,1815,2116,2309,2003,1815,1832,1944
731574,1988,36728,3740,36508,1203,0,-136,1034,-868,128,1283,3559,59,57,847,1747,1815,2116,2309,2003,1815,1832,1944
732575,2076,36800,3805,36573,1076,241,-147,1054,-874,433,1271,3638,63,60,850,1747,1815,2116,2309,2003,1815,1832,1944
733576,2168,36868,3870,36638,993,287,-142,1095,-874,900,1242,3451,63,54,851,1747,1815,2116,2309,2003,1815,1832,1944
734577,2224,36936,3935,36703,1455,283,-137,1123,-874,784,1306,3428,62,54,850,1747,1815,2116,2309,2003,1815,1832,1944
735578,2308,37012,4000,36768,1083,170,-120,1124,-876,612,1282,3117,57,50,847,1765,1831,2127,2334,2047,1978,2130,1986
736579,2384,37100,4065,36833,1170,-8,-108,1120,-872,461,871,3216,66,50,851,1765,1831,2127,2334,2047,1978,2130,1986
737580,2468,37172,4130,36898,1047,183,-115,1123,-882,799,926,3303,64,55,851,1765,1831,2127,2334,2047,1978,2130,1986
738581,2572,37240,4195,36963,751,229,-147,1074,-898,614,1142,2972,53,60,851,1765,1831,2127,2334,2047,1978,2130,1986
739582,2644,37320,4260,37028,1142,61,-181,1007,-921,235,1205,3129,64,50,853,1765,1831,2127,2334,2047,1978,2130,1986
740583,2708,37396,4325,37093,1244,98,-237,966,-942,140,1046,3519,61,54,851,1765,1831,2127,2334,2047,1978,2130,1986
741584,2796,37472,4390,37158,917,84,-285,968,-951,746,1034,3504,47,55,849,1774,1839,2132,2334,2028,1822,1851,1964
742585,2880,37552,4455,37223,944,15,-307,935,-958,893,1149,3449,66,52,853,1774,1839,2132,2334,2028,1822,1851,1964
743586,2980,37648,4520,37288,702,-223,-316,901,-963,321,843,3556,54,47,853,1774,1839,2132,2334,2028,1822,1851,1964
744587,3036,37712,4585,37353,1263,178,-332,906,-955,454,843,3940,49,52,854,1774,1839,2132,2334,2028,1822,1851,1964
745588,3128,37772,4650,37418,781,234,-340,953,-944,1082,593,3848,58,43,849,1774,1839,2132,2334,2028,1822,1851,1964
746589,3212,37852,4715,37483,858,-34,-340,973,-930,1039,671,3647,63,63,853,1755,1823,2111,2378,2100,1806,1840,1970
747590,3304,37928,4780,37548,726,3,-348,974,-927,617,624,3850,43,56,853,1755,1823,2111,2378,2100,1806,1840,1970
748591,3372,38032,4845,37613,1024,-395,-359,960,-937,564,535,3626,55,58,854,1755,1823,2111,2378,2100,1806,1840,1970
749592,3448,38096,4910,37678,910,105,-383,939,-938,567,552,3746,47,55,850,1755,1823,2111,2378,2100,1806,1840,1970
750593,3536,38180,4975,37743,733,-168,-417,935,-934,599,661,3669,53,51,853,1755,1823,2111,2378,2100,1806,1840,1970
751594,3620,38232,5040,37808,760,248,-446,892,-945,600,763,3513,58,41,852,1755,1823,2111,2378,2100,1806,1840,1970
752595,3696,38304,5105,37873,847,-11,-476,820,-955,244,933,3396,44,51,853,1744,1820,2102,2278,2019,1810,1849,1973
753596,3780,38364,5170,37938,724,145,-500,773,-954,-152,854,3544,43,42,853,1744,1820,2102,2278,2019,1810,1849,1973
754597,3860,38416,5235,38003,757,261,-534,733,-948,214,914,3492,60,57,854,1744,1820,2102,2278,2019,1810,1849,1973
755598,3952,38484,5300,38068,574,57,-546,698,-935,228,1006,3506,45,54,853,1744,1820,2102,2278,2019,1810,1849,1973
756599,4016,38548,5365,38133,926,108,-555,634,-935,-18,969,3235,58,41,855,1744,1820,2102,2278,2019,1810,1849,1973
757600,4096,38604,5430,38198,708,219,-573,592,-936,-196,891,3449,59,52,853,1751,1935,2179,2290,2055,1842,1886,2008
758601,4188,38676,5495,38263,526,10,-587,597,-930,87,972,3480,43,47,854,1751,1935,2179,2290,2055,1842,1886,2008
759602,4240,38728,5560,38328,1042,276,-592,599,-937,384,897,3159,41,54,856,1751,1935,2179,2290,2055,1842,1886,2008
760603,4316,38796,5625,38393,729,73,-596,606,-953,160,718,3445,41,53,851,1751,1935,2179,2290,2055,1842,1886,2008
761606,4400,38856,5690,38458,606,179,-611,627,-963,-30,750,3468,59,50,854,1751,1935,2179,2290,2055,1842,1886,2008
762605,4476,38920,5755,38523,694,129,-608,646,-976,61,717,3420,43,42,855,1751,1935,2179,2290,2055,1842,1886,2008
763606,4576,38948,5820,38588,351,624,-612,639,-983,65,661,3498,55,50,854,1754,1831,2098,2273,2052,1830,1870,1992
764607,4644,39036,5885,38653,748,-154,-601,629,-985,-273,456,3594,58,49,854,1754,1831,2098,2273,2052,1830,1870,1992
765608,4724,39112,5950,38718,580,-17,-602,627,-974,-298,523,3690,40,54,854,1754,1831,2098,2273,2052,1830,1870,1992
766609,4800,39168,6015,38783,618,244,-602,616,-963,-211,502,3680,56,45,856,1754,1831,2098,2273,2052,1830,1870,1992
767610,4892,39208,6080,38848,385,474,-599,618,-930,-200,586,3624,39,50,854,1754,1831,2098,2273,2052,1830,1870,1992
768611,4960,39272,6145,38913,682,175,-600,613,-906,-398,552,3518,58,43,854,1799,1819,2077,2247,1999,1786,1831,1952
769612,5048,39340,6210,38978,404,121,-610,599,-884,-571,519,3325,51,48,854,1799,1819,2077,2247,1999,1786,1831,1952
770613,5140,39428,6275,39043,322,-157,-630,602,-865,-509,618,3642,55,59,856,1799,1819,2077,2247,1999,1786,1831,1952
771614,5220,39496,6340,39108,454,89,-664,588,-847,-357,514,3455,43,52,857,1799,1819,2077,2247,1999,1786,1831,1952
772615,5300,39552,6405,39173,435,250,-683,571,-827,-336,553,3308,55,46,856,1799,1819,2077,2247,1999,1786,1831,1952
773616,5380,39632,6470,39238,418,-68,-711,558,-814,-463,580,3378,55,50,856,1799,1819,2077,2247,1999,1786,1831,1952
774617,5472,39696,6535,39303,235,133,-736,560,-811,-378,466,3310,47,46,856,1738,1824,2069,2246,1973,1762,1824,1939
775618,5528,39764,6600,39368,697,78,-753,551,-816,-295,624,3290,56,55,857,1738,1824,2069,2246,1973,1762,1824,1939
776619,5620,39836,6665,39433,214,20,-768,518,-791,-516,712,3071,54,54,855,1738,1824,2069,2246,1973,1762,1824,1939
777620,5712,39908,6730,39498,181,11,-771,512,-770,-591,558,3425,50,48,858,1738,1824,2069,2246,1973,1762,1824,1939
778621,5784,40000,6795,39563,424,-272,-735,555,-770,-82,371,3189,55,44,858,1738,1824,2069,2246,1973,1762,1824,1939
779622,5860,40076,6860,39628,360,-85,-682,572,-755,12,357,3088,49,51,855,1739,1827,2063,2231,2003,1783,1851,1974
780623,5928,40144,6925,39693,458,11,-626,586,-709,-390,626,3278,39,51,856,1739,1827,2063,2231,2003,1783,1851,1974
781624,5996,40216,6990,39758,454,-49,-593,614,-672,-494,475,3221,37,51,857,1739,1827,2063,2231,2003,1783,1851,1974
782625,6084,40288,7055,39823,176,-57,-583,637,-657,-212,360,2976,40,50,857,1739,1827,2063,2231,2003,1783,1851,1974
783626,6180,40372,7120,39888,39,-230,-565,592,-653,-296,503,2782,40,44,858,1739,1827,2063,2231,2003,1783,1851,1974
784627,6236,40424,7185,39953,550,186,-570,520,-645,-724,464,2907,40,52,858,1739,1827,2063,2231,2003,1783,1851,1974
785628,6316,40504,7250,40018,232,-183,-570,458,-653,-718,436,3117,39,51,854,1735,1824,2059,2237,1999,1774,2070,2066
786629,6392,40580,7315,40083,269,-146,-585,405,-657,-400,222,2908,46,58,857,1735,1824,2059,2237,1999,1774,2070,2066
787630,6472,40656,7380,40148,201,-161,-603,375,-651,-382,439,3045,52,54,857,1735,1824,2059,2237,1999,1774,2070,2066
788631,6556,40720,7445,40213,129,-9,-636,374,-628,-469,370,3023,54,51,857,1735,1824,2059,2237,1999,1774,2070,2066
789632,6624,40768,7510,40278,325,211,-644,391,-617,-102,333,3128,53,46,858,1735,1824,2059,2237,1999,1774,2070,2066
790633,6704,40820,7575,40343,157,177,-643,431,-592,69,100,3247,48,40,857,1735,1815,2047,2219,1959,1743,1807,1926
791634,6780,40880,7640,40408,194,83,-628,451,-557,85,-14,3204,55,46,857,1735,1815,2047,2219,1959,1743,1807,1926
792635,6868,40952,7705,40473,16,-76,-606,463,-515,-224,4,3255,45,53,858,1735,1815,2047,2219,1959,1743,1807,1926
793636,6948,41036,7770,40538,98,-249,-594,481,-484,-168,-15,3405,51,44,858,1735,1815,2047,2219,1959,1743,1807,1926
794637,7020,41112,7835,40603,189,-163,-573,490,-456,59,-224,3336,39,49,857,1735,1815,2047,2219,1959,1743,1807,1926
795638,7108,41176,7900,40668,-38,-12,-559,459,-442,-95,-161,3304,34,52,857,1735,1815,2047,2219,1959,1743,1807,1926
796639,7192,41240,7965,40733,-11,-10,-562,381,-433,-553,-160,3044,52,41,859,1715,1795,2031,2199,2045,1864,1805,1920
797640,7256,41300,8030,40798,240,45,-572,349,-431,-527,-47,3438,40,46,859,1715,1795,2031,2199,2045,1864,1805,1920
798641,7316,41368,8095,40863,297,-59,-586,336,-436,-234,-39,3134,44,39,858,1715,1795,2031,2199,2045,1864,1805,1920
799642,7396,41448,8160,40928,29,-227,-602,334,-425,-204,105,3174,45,40,858,1715,1795,2031,2199,2045,1864,1805,1920
800643,7488,41496,8225,40993,-154,193,-618,321,-421,-206,114,3040,43,49,858,1715,1795,2031,2199,2045,1864,1805,1920
801644,7576,41568,8290,41058,-131,-115,-627,289,-429,-73,16,2843,48,50,851,1726,1805,2051,2233,1969,1759,1826,1943
802645,7632,41640,8355,41123,280,-125,-625,281,-431,-175,0,3334,36,45,851,1726,1805,2051,2233,1969,1759,1826,1943
803646,7712,41704,8420,41188,-38,-23,-615,321,-447,443,-35,3361,33,44,857,1726,1805,2051,2233,1969,1759,1826,1943
804647,7792,41776,8485,41253,-57,-132,-596,403,-471,774,-305,3347,41,53,858,1726,1805,2051,2233,1969,1759,1826,1943
805648,7868,41840,8550,41318,-19,-31,-550,491,-502,1181,-367,3347,51,39,858,1726,1805,2051,2233,1969,1759,1826,1943
806649,7928,41912,8615,41383,187,-139,-512,565,-539,1128,-621,3374,50,40,859,1726,1805,2051,2233,1969,1759,1826,1943
807650,8020,41964,8680,41448,-246,126,-482,612,-595,1214,-738,3525,43,52,857,1728,1776,2139,2322,1979,1769,1813,1932
808651,8088,42024,8745,41513,51,32,-461,610,-666,1250,-801,3384,48,39,853,1728,1776,2139,2322,1979,1769,1813,1932
809652,8172,42112,8810,41578,-172,-346,-457,544,-754,964,-859,3399,41,45,859,1728,1776,2139,2322,1979,1769,1813,1932
810653,8248,42176,8875,41643,-85,-45,-471,522,-857,803,-997,3786,47,48,850,1728,1776,2139,2322,1979,1769,1813,1932
811654,8324,42244,8940,41708,-99,-99,-509,508,-952,1127,-1071,3650,40,46,856,1728,1776,2139,2322,1979,1769,1813,1932
812655,8408,42312,9005,41773,-222,-103,-552,478,-1023,1110,-1020,3420,45,43,856,1722,1743,2048,2258,1910,1700,1724,1852
813656,8472,42368,9070,41838,30,58,-605,421,-1087,918,-1083,3606,39,51,847,1722,1743,2048,2258,1910,1700,1724,1852
814657,8548,42456,9135,41903,-133,-371,-668,363,-1145,884,-1026,3294,42,54,858,1722,1743,2048,2258,1910,1700,1724,1852
815658,8600,42504,9200,41968,183,150,-735,328,-1178,917,-983,3297,37,54,852,1722,1743,2048,2258,1910,1700,1724,1852
816659,8652,42552,9265,42033,199,171,-798,297,-1196,854,-1117,3331,49,48,857,1722,1743,2048,2258,1910,1700,1724,1852
817660,8716,42628,9330,42098,50,-193,-857,298,-1209,603,-1000,3316,47,50,857,1722,1743,2048,2258,1910,1700,1724,1852
818661,8788,42672,9395,42163,-58,232,-908,326,-1224,774,-892,3337,47,52,858,1812,1826,2080,2302,1917,1751,1797,1916
819662,8880,42732,9460,42228,-340,38,-946,310,-1232,639,-810,3133,41,48,856,1812,1826,2080,2302,1917,1751,1797,1916
820663,8948,42800,9525,42293,-44,-65,-971,298,-1238,253,-820,3529,51,45,857,1812,1826,2080,2302,1917,1751,1797,1916
821664,9000,42868,9590,42358,172,-69,-994,349,-1242,378,-953,3501,42,40,859,1812,1826,2080,2302,1917,1751,1797,1916
822665,9068,42924,9655,42423,-31,91,-1006,439,-1259,683,-932,3838,34,42,858,1812,1826,2080,2302,1917,1751,1797,1916
823666,9148,42972,9720,42488,-199,212,-1006,537,-1284,733,-922,3653,49,44,859,1733,1767,2065,2261,2027,1825,1861,1997
824667,9228,43048,9785,42553,-218,-152,-980,559,-1313,179,-747,3501,32,40,848,1733,1767,2065,2261,2027,1825,1861,1997
825668,9296,43096,9850,42618,-71,219,-937,558,-1367,-204,-551,4041,39,41,847,1733,1767,2065,2261,2027,1825,1861,1997
826669,9356,43176,9915,42683,35,-199,-895,559,-1409,-214,-761,4230,34,51,856,1733,1767,2065,2261,2027,1825,1861,1997
827670,9424,43236,9980,42748,-68,56,-854,496,-1443,-362,-643,3958,50,46,858,1733,1767,2065,2261,2027,1825,1861,1997
828671,9520,43288,10045,42813,-456,172,-830,385,-1487,-1022,-478,4283,48,40,857,1733,1767,2065,2261,2027,1825,1861,1997
829672,9596,43348,10110,42878,-219,78,-810,291,-1544,-1149,-462,4283,36,46,857,1669,1738,1983,2152,2062,1822,1871,1998
830673,9676,43384,10175,42943,-287,413,-793,230,-1572,-588,-497,4167,49,52,858,1669,1738,1983,2152,2062,1822,1871,1998
831674,9728,43464,10240,43008,79,-155,-790,192,-1581,-336,-389,4294,44,38,856,1669,1738,1983,2152,2062,1822,1871,1998
832675,9800,43520,10305,43073,-179,156,-824,130,-1593,-816,-180,3993,44,43,858,1669,1738,1983,2152,2062,1822,1871,1998
833676,9888,43584,10370,43138,-407,56,-890,108,-1597,-1088,-135,4219,37,54,850,1669,1738,1983,2152,2062,1822,1871,1998
834677,9964,43660,10435,43203,-271,-107,-953,127,-1603,-408,-188,4066,36,44,856,1704,1820,2056,2236,2000,1765,1856,2072
835678,10032,43724,10500,43268,-174,44,-1017,101,-1608,-341,-225,3895,37,54,857,1704,1820,2056,2236,2000,1765,1856,2072
836679,10116,43800,10565,43333,-397,-120,-1074,58,-1596,-1050,-455,4283,54,46,858,1704,1820,2056,2236,2000,1765,1856,2072
837680,10168,43856,10630,43398,18,141,-1119,44,-1572,-1283,-600,4272,52,52,856,1704,1820,2056,2236,2000,1765,1856,2072
838681,10248,43944,10695,43463,-349,-287,-1147,23,-1540,-1058,-669,4377,39,48,858,1704,1820,2056,2236,2000,1765,1856,2072
839682,10336,44000,10760,43528,-477,123,-1170,-66,-1498,-1150,-795,4137,44,40,856,1704,1820,2056,2236,2000,1765,1856,2072
840683,10412,44060,10825,43593,-340,79,-1167,-148,-1479,-1463,-960,4512,39,39,858,1820,1938,2135,2276,2025,1786,1905,2059
841684,10492,44124,10890,43658,-409,31,-1148,-236,-1456,-1561,-932,4245,53,46,859,1820,1938,2135,2276,2025,1786,1905,2059
842685,10560,44208,10955,43723,-262,-243,-1117,-343,-1422,-1628,-838,4404,53,43,859,1820,1938,2135,2276,2025,1786,1905,2059
843686,10648,44264,11020,43788,-540,118,-1091,-428,-1391,-1462,-805,4454,46,45,857,1820,1938,2135,2276,2025,1786,1905,2059
844687,10736,44336,11085,43853,-567,-91,-1066,-494,-1379,-1147,-897,4351,45,46,858,1820,1938,2135,2276,2025,1786,1905,2059
845688,10808,44396,11150,43918,-376,65,-1018,-514,-1353,-1570,-1170,4997,41,42,858,1833,1953,2150,2316,2106,1978,2144,2107
846689,10900,44452,11215,43983,-659,126,-970,-513,-1328,-1993,-1046,5045,57,39,859,1833,1953,2150,2316,2106,1978,2144,2107
847690,10972,44508,11280,44048,-418,137,-920,-508,-1326,-1412,-811,5134,52,46,858,1833,1953,2150,2316,2106,1978,2144,2107
848691,11068,44580,11345,44113,-755,-72,-880,-543,-1334,-945,-743,5178,48,55,858,1833,1953,2150,2316,2106,1978,2144,2107
849692,11152,44676,11410,44178,-629,-410,-839,-625,-1341,-1300,-902,5297,46,55,858,1833,1953,2150,2316,2106,1978,2144,2107
850693,11240,44756,11475,44243,-707,-229,-826,-689,-1355,-1677,-761,5314,59,40,857,1833,1953,2150,2316,2106,1978,2144,2107
851694,11316,44788,11540,44308,-570,412,-813,-695,-1372,-1357,-708,5480,59,45,857,1805,1913,2105,2275,2091,1843,1939,2041
852695,11408,44840,11605,44373,-803,177,-821,-683,-1390,-900,-713,5233,59,43,857,1805,1913,2105,2275,2091,1843,1939,2041
853696,11496,44924,11670,44438,-780,-246,-843,-687,-1385,-1096,-512,5341,48,44,856,1805,1913,2105,2275,2091,1843,1939,2041
854697,11584,44976,11735,44503,-808,170,-917,-650,-1404,-1060,-535,4745,59,50,858,1805,1913,2105,2275,2091,1843,1939,2041
855698,11668,45040,11800,44568,-781,20,-964,-613,-1426,-528,-745,4878,46,47,858,1805,1913,2105,2275,2091,1843,1939,2041
856699,11764,45080,11865,44633,-969,351,-983,-615,-1418,-878,-1219,5053,53,46,859,1813,1877,2107,2415,2109,1817,1908,2009
857700,11860,45144,11930,44698,-1007,52,-952,-633,-1374,-1615,-1481,4966,63,35,858,1813,1877,2107,2415,2109,1817,1908,2009
858701,11948,45188,11995,44763,-935,328,-914,-617,-1305,-1636,-1596,5169,62,38,859,1813,1877,2107,2415,2109,1817,1908,2009
859702,12032,45268,12060,44828,-908,-141,-870,-575,-1250,-991,-1709,4961,60,44,857,1813,1877,2107,2415,2109,1817,1908,2009
860703,12132,45304,12125,44893,-1151,444,-823,-492,-1211,-930,-1794,5054,60,40,858,1813,1877,2107,2415,2109,1817,1908,2009
861704,12204,45364,12190,44958,-810,150,-765,-403,-1149,-1169,-1926,5162,48,35,857,1813,1877,2107,2415,2109,1817,1908,2009
862705,12308,45400,12255,45023,-1257,485,-703,-325,-1073,-1425,-1870,5020,64,36,858,1810,1895,2125,2331,2068,1849,1903,2024
863706,12400,45452,12320,45088,-1140,301,-644,-268,-1008,-1429,-1756,4717,45,48,857,1810,1895,2125,2331,2068,1849,1903,2024
864707,12504,45516,12385,45153,-1338,152,-587,-253,-974,-1223,-1510,4589,47,35,850,1810,1895,2125,2331,2068,1849,1903,2024
865708,12584,45560,12450,45218,-1056,428,-544,-284,-967,-1381,-1466,4379,47,36,858,1810,1895,2125,2331,2068,1849,1903,2024
866709,12684,45616,12515,45283,-1349,289,-488,-320,-974,-1432,-1187,4415,55,46,857,1810,1895,2125,2331,2068,1849,1903,2024
867710,12772,45664,12580,45348,-1227,409,-459,-373,-974,-1353,-1024,4124,57,46,858,1822,2032,2214,2348,2036,1816,1892,1972
868711,12868,45724,12645,45413,-1366,265,-440,-381,-961,-1486,-1085,4416,45,34,850,1822,2032,2214,2348,2036,1816,1892,1972
869712,12948,45796,12710,45478,-1184,106,-449,-343,-937,-1412,-1016,4322,58,35,858,1822,2032,2214,2348,2036,1816,1892,1972
870713,13032,45860,12775,45543,-1257,208,-459,-296,-928,-972,-801,4387,46,34,857,1822,2032,2214,2348,2036,1816,1892,1972
871714,13120,45928,12840,45608,-1335,154,-474,-227,-918,-692,-717,4406,66,46,858,1822,2032,2214,2348,2036,1816,1892,1972
872715,13204,45992,12905,45673,-1308,205,-478,-193,-891,-598,-744,4486,59,49,855,1822,2032,2214,2348,2036,1816,1892,1972
873716,13284,46060,12970,45738,-1277,151,-480,-144,-861,-492,-808,4539,59,33,858,1832,1921,2104,2319,1959,1733,1847,1934
874717,13376,46144,13035,45803,-1460,-72,-466,-59,-834,-128,-823,4685,59,48,858,1832,1921,2104,2319,1959,1733,1847,1934
875718,13464,46212,13100,45868,-1438,124,-429,80,-793,-67,-1113,4650,43,37,859,1832,1921,2104,2319,1959,1733,1847,1934
876719,13540,46268,13165,45933,-1301,285,-383,172,-735,-381,-1243,4577,44,41,855,1832,1921,2104,2319,1959,1733,1847,1934
877720,13628,46340,13230,45998,-1480,76,-336,271,-667,-315,-1101,4477,63,43,858,1832,1921,2104,2319,1959,1733,1847,1934
878721,13680,46396,13295,46063,-1014,287,-287,273,-615,20,-896,3897,60,45,858,1877,1890,2058,2240,1961,1735,1843,1953
879722,13772,46424,13360,46128,-1547,682,-222,240,-582,-413,-1050,4112,50,40,858,1877,1890,2058,2240,1961,1735,1843,1953
880723,13864,46476,13425,46193,-1580,398,-149,143,-540,-1111,-1345,3778,43,45,854,1877,1890,2058,2240,1961,1735,1843,1953
881724,13968,46528,13490,46258,-1778,414,-70,-2,-484,-1316,-1290,3382,38,52,857,1877,1890,2058,2240,1961,1735,1843,1953
882725,14052,46600,13555,46323,-1551,155,3,-115,-410,-1057,-1401,3733,57,52,857,1877,1890,2058,2240,1961,1735,1843,1953
883726,14104,46656,13620,46388,-1136,366,53,-182,-346,-1135,-1192,3442,54,44,858,1877,1890,2058,2240,1961,1735,1843,1953
884727,14212,46732,13685,46453,-1889,102,89,-243,-307,-1076,-1216,3386,59,52,856,1757,1858,2063,2245,2013,1781,1864,1945
885728,14312,46808,13750,46518,-1832,88,123,-297,-270,-867,-1320,3229,56,38,858,1757,1858,2063,2245,2013,1781,1864,1945
886729,14352,46888,13815,46583,-1051,20,164,-318,-248,-415,-1074,3622,38,41,858,1757,1858,2063,2245,2013,1781,1864,1945
887730,14444,46944,13880,46648,-1734,331,201,-334,-225,-99,-996,3558,42,40,858,1757,1858,2063,2245,2013,1781,1864,1945
888731,14504,47020,13945,46713,-1329,68,219,-345,-222,134,-840,3598,39,37,857,1757,1858,2063,2245,2013,1781,1864,1945
889732,14596,47072,14010,46778,-1762,384,232,-342,-211,269,-722,3662,49,51,858,1787,1889,2088,2273,1955,1751,1851,1953
890733,14656,47152,14075,46843,-1356,15,214,-315,-185,329,-544,3551,46,44,858,1787,1889,2088,2273,1955,1751,1851,1953
891734,14732,47216,14140,46908,-1569,217,193,-220,-179,350,-460,3889,43,48,858,1787,1889,2088,2273,1955,1751,1851,1953
892735,14792,47288,14205,46973,-1364,107,170,-176,-166,504,-229,3790,41,45,858,1787,1889,2088,2273,1955,1751,1851,1953
893736,14868,47340,14270,47038,-1577,373,158,-187,-149,432,-290,3763,39,36,859,1787,1889,2088,2273,1955,1751,1851,1953
894737,14936,47408,14335,47103,-1481,169,145,-212,-130,3,-352,3732,48,48,858,1787,1889,2088,2273,1955,1751,1851,1953
895738,15004,47472,14400,47168,-1485,220,152,-269,-108,-134,-445,3774,35,40,858,1798,1885,2064,2244,1964,1733,2032,2047
896739,15076,47524,14465,47233,-1543,386,183,-334,-81,-141,-502,3912,32,48,858,1798,1885,2064,2244,1964,1733,2032,2047
897740,15148,47588,14530,47298,-1553,237,233,-489,-78,-272,-348,3368,43,49,857,1798,1885,2064,2244,1964,1733,2032,2047
898741,15220,47656,14595,47363,-1561,184,303,-611,-71,-582,-589,3747,35,43,858,1798,1885,2064,2244,1964,1733,2032,2047
899742,15280,47704,14660,47428,-1405,455,362,-646,-28,-327,-1083,4019,33,47,858,1798,1885,2064,2244,1964,1733,2032,2047
900743,15344,47772,14725,47493,-1454,201,426,-621,18,-207,-1206,3630,31,32,857,1740,1844,2038,2208,1998,1764,1850,1979
901744,15392,47832,14790,47558,-1234,306,493,-580,60,-81,-1179,4309,45,47,858,1740,1844,2038,2208,1998,1764,1850,1979
902745,15452,47896,14855,47623,-1378,257,556,-542,86,62,-1054,4264,28,40,858,1740,1844,2038,2208,1998,1764,1850,1979
903746,15504,47964,14920,47688,-1262,204,590,-549,115,238,-875,4102,36,32,858,1740,1844,2038,2208,1998,1764,1850,1979
904747,15564,48028,14985,47753,-1356,255,598,-587,182,-72,-248,3965,45,46,857,1740,1844,2038,2208,1998,1764,1850,1979
905748,15628,48096,15050,47818,-1406,201,565,-594,275,287,-442,4069,33,30,858,1733,1855,2064,2208,1998,1764,1850,1979
906749,15680,48144,15115,47883,-1240,472,542,-340,314,1801,-339,4275,35,32,858,1733,1855,2064,2222,2102,1888,1886,1990
907750,15728,48224,15180,47948,-1169,54,540,-6,323,943,412,3396,32,43,857,1733,1855,2064,2222,2102,1888,1886,1990
908751,15796,48276,15245,48013,-1423,419,635,230,257,239,-659,3503,29,43,858,1733,1855,2064,2222,2102,1888,1886,1990
909752,15844,48336,15310,48078,-1152,326,815,399,194,1097,-1232,3742,41,33,857,1733,1855,2064,2222,2102,1888,1886,1990
910753,15896,48400,15375,48143,-1187,276,895,334,194,-9,-205,3061,37,35,858,1733,1855,2064,2222,2102,1888,1886,1990
911754,15964,48460,15440,48208,-1391,332,896,140,212,-1243,-222,3007,32,36,858,1790,1893,2112,2320,2017,1796,1857,1921
912755,16000,48524,15505,48273,-956,283,852,-38,212,-500,-277,3662,21,37,858,1790,1893,2112,2320,2017,1796,1857,1921
913756,16052,48588,15570,48338,-1140,284,755,-312,206,-942,377,3469,26,46,858,1790,1893,2112,2320,2017,1796,1857,1921
914757,16092,48648,15635,48403,-959,340,645,-637,184,-2145,621,3316,32,38,858,1790,1893,2112,2320,2017,1796,1857,1921
915758,16144,48720,15700,48468,-1094,182,528,-759,154,-1548,345,4666,35,39,858,1790,1893,2112,2320,2017,1796,1857,1921
916759,16192,48784,15765,48533,-1024,283,432,-708,153,538,-19,4781,33,40,858,1791,1859,2168,2378,1962,1748,1827,1930
917760,16232,48864,15830,48598,-893,65,373,-593,187,1529,-185,4698,38,43,850,1791,1859,2168,2378,1962,1748,1827,1930
918761,16272,48940,15895,48663,-863,101,368,-387,228,1290,-403,5424,22,37,858,1791,1859,2168,2378,1962,1748,1827,1930
919762,16308,48996,15960,48728,-777,362,419,-106,247,1667,-769,5496,34,35,858,1791,1859,2168,2378,1962,1748,1827,1930
920763,16352,49064,16025,48793,-852,208,516,149,268,2133,-986,5705,17,46,858,1791,1859,2168,2378,1962,1748,1827,1930
921764,16376,49136,16090,48858,-553,149,627,360,310,1943,-1010,5817,18,39,849,1791,1859,2168,2378,1962,1748,1827,1930
922765,16424,49208,16155,48923,-832,141,736,502,358,1112,-1050,5347,29,47,858,1727,1842,2053,2186,2090,1850,1929,2078
923766,16468,49272,16220,48988,-756,242,822,573,415,324,-906,5184,17,41,858,1727,1842,2053,2186,2090,1850,1929,2078
924767,16488,49332,16285,49053,-401,298,869,544,464,6,-592,4525,16,35,858,1727,1842,2053,2186,2090,1850,1929,2078
925768,16524,49400,16350,49118,-566,194,876,382,508,-663,-342,3825,31,43,855,1727,1842,2053,2186,2090,1850,1929,2078
926769,16556,49456,16415,49183,-476,355,841,173,529,-1237,62,3600,26,46,858,1727,1842,2053,2186,2090,1850,1929,2078
927770,16604,49528,16480,49248,-655,147,781,-28,534,-1563,178,3121,28,44,858,1831,1984,2134,2290,2187,1930,2001,2138
928771,16620,49592,16545,49313,-195,248,689,-177,515,-1339,420,3120,23,41,858,1831,1984,2134,2290,2187,1930,2001,2138
929772,16648,49660,16610,49378,-300,193,597,-286,480,-857,531,3240,29,35,854,1831,1984,2134,2290,2187,1930,2001,2138
930773,16672,49712,16675,49443,-200,409,514,-363,435,-773,475,3336,11,33,858,1831,1984,2134,2290,2187,1930,2001,2138
931774,16692,49792,16740,49508,-95,41,439,-393,392,-667,551,3910,10,40,857,1831,1984,2134,2290,2187,1930,2001,2138
932775,16704,49856,16805,49573,70,242,372,-379,342,-135,575,4410,25,46,851,1831,1984,2134,2290,2187,1930,2001,2138
933776,16744,49900,16870,49638,-250,518,321,-353,298,375,410,4796,26,38,857,1812,1923,2143,2298,2148,1876,1951,2078
934777,16760,49960,16935,49703,110,324,290,-297,264,588,298,5184,27,34,850,1812,1923,2143,2298,2148,1876,1951,2078
935778,16772,50032,17000,49768,225,165,272,-185,248,758,79,5374,23,32,857,1812,1923,2143,2298,2148,1876,1951,2078
936779,16804,50096,17065,49833,15,266,272,-40,248,849,-168,5507,6,41,857,1812,1923,2143,2298,2148,1876,1951,2078
937780,16812,50156,17130,49898,385,323,287,93,257,865,-301,5546,8,31,858,1812,1923,2143,2298,2148,1876,1951,2078
938781,16832,50212,17195,49963,290,384,292,175,279,527,-305,5425,25,34,856,1724,1832,2042,2164,2084,1832,1888,2042
939782,16844,50280,17260,50028,454,229,300,207,313,127,-296,5266,26,37,856,1724,1832,2042,2164,2084,1832,1888,2042
940783,16876,50316,17325,50093,246,664,293,173,355,-332,-258,4921,16,45,856,1724,1832,2042,2164,2084,1832,1888,2042
941784,16904,50396,17390,50158,341,96,283,89,399,-719,-273,4704,27,32,855,1724,1832,2042,2164,2084,1832,1888,2042
942785,16924,50452,17455,50223,496,407,263,-67,441,-1241,-171,4262,28,34,856,1724,1832,2042,2164,2084,1832,1888,2042
943786,16952,50528,17520,50288,441,144,227,-233,468,-1607,-100,4014,29,32,856,1724,1832,2042,2164,2084,1832,1888,2042
944787,16980,50612,17585,50353,486,20,189,-346,488,-1387,62,3801,12,44,856,1673,1795,2039,2201,2077,1854,1899,2120
945788,17000,50652,17650,50418,642,601,147,-429,497,-1050,71,3550,27,35,856,1673,1795,2039,2201,2077,1854,1899,2120
946789,17028,50732,17715,50483,587,83,98,-467,494,-965,300,3349,19,35,854,1673,1795,2039,2201,2077,1854,1899,2120
947790,17072,50792,17780,50548,413,339,35,-470,476,-789,511,3294,33,32,854,1673,1795,2039,2201,2077,1854,1899,2120
948791,17120,50852,17845,50613,384,345,-21,-432,440,-381,596,3127,32,34,856,1673,1795,2039,2201,2077,1854,1899,2120
949792,17168,50896,17910,50678,405,569,-65,-359,399,-114,571,3331,38,40,856,1756,1872,2107,2277,2113,1870,1939,2073
950793,17200,50964,17975,50743,646,266,-89,-300,360,-75,548,3130,26,34,855,1756,1872,2107,2277,2113,1870,1939,2073
951794,17244,51016,18174,50942,685,645,-93,-240,334,-187,461,3569,31,41,854,1756,1872,2107,2277,2113,1870,1939,2073
952795,17296,51068,18239,51007,602,661,-77,-174,303,-109,526,3596,29,49,853,1756,1872,2107,2277,2113,1870,1939,2073
953796,17344,51128,18304,51072,672,567,-64,-109,274,-128,540,3685,47,48,852,1756,1872,2107,2277,2113,1870,1939,2073
954797,17416,51196,18369,51137,364,463,-54,-54,238,-189,516,3838,32,46,852,1756,1872,2107,2277,2113,1870,1939,2073
955798,17492,51272,18434,51202,301,350,-43,-32,217,-449,591,3921,50,41,852,1753,1859,2067,2214,2063,1903,2035,2039
956799,17552,51336,18499,51267,508,501,-31,-57,208,-746,507,3781,36,46,855,1753,1859,2067,2214,2063,1903,2035,2039
957800,17628,51392,18564,51332,294,612,-24,-102,197,-888,411,3744,33,39,855,1753,1859,2067,2214,2063,1903,2035,2039
958801,17696,51468,18629,51397,391,349,-18,-133,201,-833,251,4064,36,48,854,1753,1859,2067,2214,2063,1903,2035,2039
959802,17772,51564,18694,51462,278,61,2,-184,214,-863,256,3762,53,52,855,1753,1859,2067,2214,2063,1903,2035,2039
960803,17820,51620,18759,51527,649,572,15,-263,236,-1003,120,3766,52,51,856,1684,1795,2000,2143,1968,1738,1801,1918
961804,17880,51672,18824,51592,506,638,31,-287,246,-897,198,3995,53,48,856,1684,1795,2000,2143,1968,1738,1801,1918
962805,17948,51764,18889,51657,402,105,22,-335,249,-606,199,3476,37,52,853,1684,1795,2000,2143,1968,1738,1801,1918
963806,18028,51824,18954,51722,234,511,16,-358,267,-568,119,3762,53,38,854,1684,1795,2000,2143,1968,1738,1801,1918
964807,18100,51904,19019,51787,326,243,4,-360,282,-392,167,3486,52,47,857,1684,1795,2000,2143,1968,1738,1801,1918
965808,18156,51976,19084,51852,537,334,12,-362,285,-242,317,3465,55,43,856,1684,1795,2000,2143,1968,1738,1801,1918
966809,18228,52056,19149,51917,330,216,1,-333,285,-3,359,3474,42,39,857,1707,1817,2038,2278,2013,1790,1813,1935
967810,18316,52112,19214,51982,102,527,-8,-316,273,101,399,3106,57,40,855,1707,1817,2038,2278,2013,1790,1813,1935
968811,18376,52176,19279,52047,458,428,-29,-281,262,126,367,3045,52,39,857,1707,1817,2038,2278,2013,1790,1813,1935
969812,18428,52272,19344,52112,575,-10,-33,-258,242,25,442,2986,52,42,856,1707,1817,2038,2278,2013,1790,1813,1935
970813,18504,52336,19409,52177,261,391,-32,-280,214,-267,576,2688,44,51,855,1707,1817,2038,2278,2013,1790,1813,1935
971814,18576,52404,19474,52242,303,338,-17,-299,181,-527,513,3023,41,49,856,1780,1884,2099,2272,2003,1786,1867,1985
972815,18664,52468,19539,52307,76,388,-3,-339,147,-351,525,2719,43,41,855,1780,1884,2099,2272,2003,1786,1867,1985
973816,18724,52532,19604,52372,432,389,16,-401,132,-575,399,2869,39,35,856,1780,1884,2099,2272,2003,1786,1867,1985
974817,18804,52592,19669,52437,163,445,30,-442,106,-553,613,3116,41,46,857,1780,1884,2099,2272,2003,1786,1867,1985
975818,18856,52660,19734,52502,530,342,49,-510,75,-655,604,3097,35,43,856,1780,1884,2099,2272,2003,1786,1867,1985
976819,18928,52728,19799,52567,272,338,76,-523,46,-418,471,3622,52,48,856,1780,1884,2099,2272,2003,1786,1867,1985
977820,18996,52800,19864,52632,318,279,102,-526,28,-219,337,3593,35,35,855,1770,1934,2157,2305,2013,1777,1851,1975
978821,19052,52844,19929,52697,480,655,153,-521,21,-255,236,3825,35,39,856,1770,1934,2157,2305,2013,1777,1851,1975
979822,19128,52924,19994,52762,217,187,208,-507,2,-282,301,4111,40,41,856,1770,1934,2157,2305,2013,1777,1851,1975
980823,19200,52988,20059,52827,258,388,259,-512,-18,-72,295,4125,53,46,853,1770,1934,2157,2305,2013,1777,1851,1975
981824,19256,53032,20124,52892,470,664,306,-487,-24,42,158,4440,52,45,857,1770,1934,2157,2305,2013,1777,1851,1975
982825,19332,53104,20189,52957,207,305,328,-448,-38,290,211,4448,33,44,856,1700,1799,2013,2146,1952,1742,1815,1935
983826,19392,53176,20254,53022,413,297,346,-387,-49,618,282,4388,37,39,853,1700,1799,2013,2146,1952,1742,1815,1935
984827,19456,53224,20319,53087,365,617,353,-357,-59,451,231,4413,47,33,857,1700,1799,2013,2146,1952,1742,1815,1935
985828,19536,53288,20384,53152,147,418,352,-330,-82,228,185,4245,50,34,856,1700,1799,2013,2146,1952,1742,1815,1935
986830,19584,53360,20449,53217,567,310,346,-337,-105,167,138,4212,45,45,854,1700,1799,2013,2146,1952,1742,1815,1935
987830,19648,53400,20514,53282,370,740,332,-351,-120,97,110,4094,34,35,856,1700,1799,2013,2146,1952,1742,1815,1935
988831,19720,53460,20579,53347,261,496,315,-368,-130,267,195,3964,52,38,855,1806,1928,2043,2223,1970,1761,1827,1943
989832,19780,53512,20644,53412,417,611,285,-385,-157,304,239,3773,35,31,853,1806,1928,2043,2223,1970,1761,1827,1943
990833,19836,53568,20709,53477,479,572,256,-426,-177,195,247,3720,44,46,855,1806,1928,2043,2223,1970,1761,1827,1943
991834,19904,53612,20774,53542,326,748,234,-456,-184,-55,136,3688,32,35,854,1806,1928,2043,2223,1970,1761,1827,1943
992835,19968,53672,20839,53607,377,554,217,-469,-198,111,116,3708,51,34,854,1806,1928,2043,2223,1970,1761,1827,1943
993836,20020,53744,20904,53672,544,396,206,-477,-211,160,90,3728,30,35,853,1784,1862,2113,2304,2043,1829,1889,2020
994837,20080,53792,20969,53737,450,716,201,-471,-217,134,-11,3843,49,44,854,1784,1862,2113,2304,2043,1829,1889,2020
995838,20144,53852,21034,53802,401,572,207,-460,-223,241,-44,4028,51,37,854,1784,1862,2113,2304,2043,1829,1889,2020
996839,20228,53912,21099,53867,129,579,228,-435,-235,194,-8,3923,46,32,853,1784,1862,2113,2304,2043,1829,1889,2020
997840,20288,53964,21164,53932,435,694,250,-422,-245,168,-125,4006,44,43,854,1784,1862,2113,2304,2043,1829,1889,2020
998841,20328,54024,21229,53997,715,601,280,-398,-246,-56,-167,4068,38,31,856,1784,1862,2113,2304,2043,1829,1889,2020
999842,20412,54072,21294,54062,143,771,302,-357,-244,-94,-127,4247,49,41,853,1779,1861,2107,2271,2087,1849,1906,2046
1000843,20476,54140,21359,54127,394,518,323,-314,-243,191,12,4212,49,31,852,1779,1861,2107,2271,2087,1849,1906,2046
1001844,20524,54208,21424,54192,615,514,326,-303,-232,-44,40,4304,28,28,854,1779,1861,2107,2271,2087,1849,1906,2046
1002845,20600,54260,21489,54257,253,730,326,-311,-212,-172,77,4425,30,36,855,1779,1861,2107,2271,2087,1849,1906,2046
1003846,20648,54300,21554,54322,623,910,314,-310,-202,-193,77,4465,40,32,853,1779,1861,2107,2271,2087,1849,1906,2046
1004847,20732,54368,21619,54387,150,557,298,-323,-196,-213,32,4248,39,40,854,1730,1815,2053,2222,2052,1812,1870,2086
1005848,20792,54412,21684,54452,457,882,273,-322,-178,-314,96,4456,47,39,850,1730,1815,2053,2222,2052,1812,1870,2086
1006849,20840,54476,21749,54517,628,634,244,-335,-159,-335,141,4317,30,44,854,1730,1815,2053,2222,2052,1812,1870,2086
1007850,20896,54528,21814,54582,539,799,210,-340,-146,-199,152,4389,36,38,850,1730,1815,2053,2222,2052,1812,1870,2086
1008851,20968,54588,21879,54647,332,706,174,-350,-129,-42,131,4335,37,35,852,1730,1815,2053,2222,2052,1812,1870,2086
1009852,21036,54644,21944,54712,378,767,141,-357,-100,-14,-37,4232,33,41,852,1730,1815,2053,2222,2052,1812,1870,2086
1010853,21080,54696,22009,54777,704,832,115,-331,-97,81,-87,4308,36,43,853,1729,1815,2055,2234,2025,1799,1860,1985
1011854,21136,54748,22074,54842,566,848,91,-286,-92,54,-182,4215,37,33,853,1729,1815,2055,2234,2025,1799,1860,1985
1012855,21188,54796,22139,54907,631,919,79,-255,-77,156,-203,4087,38,33,850,1729,1815,2055,2234,2025,1799,1860,1985
1013856,21244,54868,22204,54972,592,610,75,-222,-65,89,-185,4076,39,45,851,1729,1815,2055,2234,2025,1799,1860,1985
1014857,21312,54932,22269,55037,440,712,77,-212,-57,119,-142,3978,48,46,850,1729,1815,2055,2234,2025,1799,1860,1985
1015858,21372,54988,22334,55102,546,823,81,-213,-45,76,-192,3908,34,28,852,1760,1840,2088,2264,2064,1936,2080,2021
1016859,21436,55044,22399,55167,497,834,82,-212,-45,62,-157,3855,39,31,853,1760,1840,2088,2264,2064,1936,2080,2021
1017860,21492,55100,22464,55232,609,845,79,-201,-50,-64,-82,3741,44,37,851,1760,1840,2088,2264,2064,1936,2080,2021
1018861,21552,55168,22529,55297,565,692,73,-203,-40,-276,-25,3749,51,46,852,1760,1840,2088,2264,2064,1936,2080,2021
1019862,21620,55228,22594,55362,462,798,67,-227,-33,-306,69,3820,35,42,851,1760,1840,2088,2264,2064,1936,2080,2021
1020863,21680,55288,22659,55427,569,804,66,-261,-34,-407,122,3799,52,38,852,1760,1840,2088,2264,2064,1936,2080,2021
1021864,21736,55352,22724,55492,630,755,67,-299,-32,-373,182,3772,46,49,852,1767,1839,2096,2274,2063,1823,1899,2015
1022865,21800,55416,22789,55557,532,757,64,-324,-22,-341,247,3747,45,36,851,1767,1839,2096,2274,2063,1823,1899,2015
