%  Data file recorded 2016/9/12  0:56:23
%  Stride Frequency         = [1, 1]
%  Lead In /Lead Out        = 
%  Deltas (Fractional)      = [0.25, 0.25, 0.25],[0.25, 0.25, 0.25]
%  Phase                    = 32768
%  Experiment.py 
%  Motor Gains    = [5000, 400, 200, 0, 300, 5000, 400, 200, 0, 300]
% Columns: 
% time | Right Leg Pos | Left Leg Pos | Commanded Right Leg Pos | Commanded Left Leg Pos | DCR | DCL | GyroX | GyroY | GyroZ | AX | AY | AZ | RBEMF | LBEMF | VBatt | S1 | S2 | S3 | S4 | S5 | S6 | S7 | S8
85,-43336,-11872,-43988,-11220,-3800,3800,0,8,1,-16,160,3952,0,10,854,1493,1624,1810,1910,1869,1637,1726,1851
1086,-43340,-11884,-43988,-11220,-3800,3800,0,8,1,3,191,3940,-6,2,854,1493,1624,1810,1910,1869,1637,1726,1851
2087,-43336,-11876,-43988,-11220,-3800,3800,1,7,1,-4,134,3906,-9,-2,854,1493,1624,1810,1910,1869,1637,1726,1851
3088,-43336,-11876,-43988,-11220,-3800,3800,2,9,-1,-24,160,3923,-1,-5,854,1493,1624,1810,1910,1869,1637,1726,1851
4089,-43340,-11892,-43988,-11220,-3800,3800,1,11,0,-4,183,3902,7,7,854,1496,1625,1812,1912,1869,1636,1728,1850
5090,-43340,-11876,-43988,-11220,-3800,3800,-1,11,3,2,168,3946,10,10,854,1496,1625,1812,1912,1869,1636,1728,1850
6091,-43348,-11864,-43988,-11220,-3800,3800,-1,7,1,-11,182,3922,2,0,854,1496,1625,1812,1912,1869,1636,1728,1850
7092,-43328,-11876,-43988,-11220,-3800,3800,-2,9,0,-3,187,3949,-5,-1,854,1496,1625,1812,1912,1869,1636,1728,1850
8093,-43340,-11880,-43988,-11220,-3800,3800,-1,9,1,-5,193,3944,-9,6,854,1496,1625,1812,1912,1869,1636,1728,1850
9094,-43324,-11884,-43988,-11220,-3800,3800,-1,8,2,-14,184,3952,-6,10,854,1496,1625,1812,1912,1869,1636,1728,1850
10095,-43340,-11872,-43988,-11220,-3800,3800,-4,9,0,1,169,3916,4,0,854,1493,1624,1811,1912,1868,1636,1727,1850
11096,-43332,-11880,-43988,-11220,-3800,3800,-2,11,-1,-17,175,3944,9,-4,854,1493,1624,1811,1912,1868,1636,1727,1850
12097,-43340,-11876,-43988,-11220,-3800,3800,0,12,-3,1,157,3925,2,-2,854,1493,1624,1811,1912,1868,1636,1727,1850
13098,-43336,-11884,-43988,-11220,-3800,3800,-1,9,-2,-12,148,3917,-6,10,854,1493,1624,1811,1912,1868,1636,1727,1850
14099,-43340,-11880,-43988,-11220,-3800,3800,-1,6,0,-21,171,3943,-9,9,854,1493,1624,1811,1912,1868,1636,1727,1850
15100,-43324,-11860,-43988,-11220,-3800,3800,-2,6,0,-22,166,3930,0,4,854,1493,1623,1811,1911,1869,1636,1727,1852
16101,-43336,-11884,-43988,-11220,-3800,3800,-2,7,-1,11,166,3917,9,-5,854,1493,1623,1811,1911,1869,1636,1727,1852
17102,-43328,-11872,-43988,-11220,-3800,3800,1,8,-2,30,156,3920,7,-2,854,1493,1623,1811,1911,1869,1636,1727,1852
18103,-43344,-11868,-43988,-11220,-3800,3800,0,8,-2,-3,179,3910,-7,4,854,1493,1623,1811,1911,1869,1636,1727,1852
19104,-43324,-11876,-43988,-11220,-3800,3800,-2,11,-2,-10,184,3918,-8,9,853,1493,1623,1811,1911,1869,1636,1727,1852
20105,-43324,-11864,-43988,-11220,-3800,3800,-4,9,0,0,167,3946,-5,9,854,1493,1623,1811,1911,1869,1636,1727,1852
21106,-43336,-11872,-43988,-11220,-3800,3800,-4,9,-2,1,162,3935,10,7,854,1494,1625,1811,1911,1867,1633,1727,1852
22107,-43332,-11872,-43988,-11220,-3800,3800,-3,9,-2,7,149,3919,9,-5,854,1494,1625,1811,1911,1867,1633,1727,1852
23108,-43332,-11884,-43988,-11220,-3800,3800,-1,8,-2,-15,162,3937,2,-1,854,1494,1625,1811,1911,1867,1633,1727,1852
24109,-43328,-11880,-43988,-11220,-3800,3800,0,7,-4,-9,186,3959,-7,8,854,1494,1625,1811,1911,1867,1633,1727,1852
25110,-43332,-11872,-43988,-11220,-3800,3800,2,8,-5,11,167,3937,4,8,854,1494,1625,1811,1911,1867,1633,1727,1852
26111,-43328,-11876,-43988,-11220,-3800,3800,-2,7,-2,1,168,3918,10,-2,854,1495,1625,1812,1911,1868,1635,1726,1850
27112,-43336,-11872,-43988,-11220,-3800,3800,-3,6,-1,-2,168,3952,-9,-5,854,1495,1625,1812,1911,1868,1635,1726,1850
28113,-43332,-11876,-43988,-11220,-3800,3800,-2,8,-2,-1,148,3938,-2,8,854,1495,1625,1812,1911,1868,1635,1726,1850
29114,-43328,-11876,-43988,-11220,-3800,3800,-1,9,1,-16,177,3937,4,10,854,1495,1625,1812,1911,1868,1635,1726,1850
30115,-43336,-11876,-43988,-11220,-3800,3800,-3,9,1,-24,175,3931,10,9,854,1495,1625,1812,1911,1868,1635,1726,1850
31116,-43344,-11876,-43988,-11220,-3800,3800,-2,9,-1,-26,173,3932,7,-4,854,1495,1625,1812,1911,1868,1635,1726,1850
32117,-43332,-11872,-43988,-11220,-3800,3800,0,10,-1,-25,153,3909,4,-4,854,1495,1626,1814,1914,1872,1636,1728,1852
33118,-43332,-11868,-43988,-11220,-3800,3800,0,9,-2,-8,154,3933,-4,2,854,1495,1626,1814,1914,1872,1636,1728,1852
34119,-43324,-11860,-43988,-11220,-3800,3800,0,8,0,-3,158,3923,-9,9,854,1495,1626,1814,1914,1872,1636,1728,1852
35120,-43340,-11876,-43988,-11220,-3800,3800,0,8,0,-8,157,3951,-7,5,854,1495,1626,1814,1914,1872,1636,1728,1852
36121,-43336,-11864,-43988,-11220,-3800,3800,0,7,0,-20,193,3928,8,2,853,1495,1626,1814,1914,1872,1636,1728,1852
37122,-43316,-11880,-43988,-11220,-3800,3800,-1,6,0,-14,179,3931,7,-1,854,1494,1624,1811,1912,1869,1636,1727,1850
38123,-43336,-11860,-43988,-11220,-3800,3800,0,7,1,5,162,3908,8,-2,854,1494,1624,1811,1912,1869,1636,1727,1850
39124,-43336,-11868,-43988,-11220,-3800,3800,1,10,-3,-18,162,3918,-7,-4,854,1494,1624,1811,1912,1869,1636,1727,1850
40125,-43328,-11868,-43988,-11220,-3800,3800,1,12,-4,-25,155,3914,-9,-2,854,1494,1624,1811,1912,1869,1636,1727,1850
41126,-43324,-11872,-43988,-11220,-3800,3800,2,10,-4,-29,163,3947,-5,3,854,1494,1624,1811,1912,1869,1636,1727,1850
42127,-43324,-11888,-43988,-11220,-3800,3800,2,8,-1,-11,174,3934,8,9,854,1494,1624,1811,1912,1869,1636,1727,1850
43128,-43348,-11872,-43988,-11220,-3800,3800,1,8,1,3,166,3938,10,4,854,1495,1625,1812,1911,1869,1636,1728,1850
44129,-43344,-11864,-43988,-11220,-3800,3800,3,9,1,-15,168,3959,4,-1,854,1495,1625,1812,1911,1869,1636,1728,1850
45130,-43336,-11864,-43988,-11220,-3800,3800,1,8,-1,-24,162,3940,-2,-3,854,1495,1625,1812,1911,1869,1636,1728,1850
46131,-43336,-11872,-43988,-11220,-3800,3800,0,8,-2,-18,158,3899,-1,-1,854,1495,1625,1812,1911,1869,1636,1728,1850
47132,-43332,-11880,-43988,-11220,-3800,3800,-2,9,2,15,159,3885,-2,4,854,1495,1625,1812,1911,1869,1636,1728,1850
48133,-43328,-11864,-43988,-11220,-3800,3800,0,9,3,-12,176,3902,-9,9,854,1495,1623,1807,1911,1871,1638,1730,1853
49134,-43328,-11872,-43988,-11220,-3800,3800,1,12,2,-20,165,3920,-9,6,854,1495,1623,1807,1911,1871,1638,1730,1853
50135,-43328,-11880,-43988,-11220,-3800,3800,0,11,0,4,171,3952,-9,-1,854,1495,1623,1807,1911,1871,1638,1730,1853
51136,-43332,-11872,-43988,-11220,-3800,3800,-1,11,0,-1,178,3944,1,-5,854,1495,1623,1807,1911,1871,1638,1730,1853
52137,-43344,-11872,-43988,-11220,-3800,3800,-3,12,-2,10,172,3919,8,5,854,1495,1623,1807,1911,1871,1638,1730,1853
53138,-43320,-11868,-43988,-11220,-3800,3800,-2,10,0,-6,180,3953,10,10,853,1495,1623,1807,1911,1871,1638,1730,1853
54139,-43344,-11876,-43988,-11220,-3800,3800,-1,8,1,-26,179,3925,-1,10,854,1494,1624,1811,1911,1868,1635,1727,1850
55140,-43320,-11872,-43988,-11220,-3800,3800,1,9,4,-29,162,3912,-9,7,854,1494,1624,1811,1911,1868,1635,1727,1850
56141,-43336,-11884,-43988,-11220,-3800,3800,3,10,1,-9,154,3904,-2,-1,854,1494,1624,1811,1911,1868,1635,1727,1850
57142,-43328,-11868,-43988,-11220,-3800,3800,2,9,-1,7,174,3922,10,-4,854,1494,1624,1811,1911,1868,1635,1727,1850
58143,-43328,-11876,-43988,-11220,-3800,3800,0,8,-1,0,178,3912,10,5,854,1494,1624,1811,1911,1868,1635,1727,1850
59144,-43332,-11880,-43988,-11220,-3800,3800,0,7,1,-20,174,3911,7,9,854,1496,1625,1812,1912,1869,1635,1728,1851
60145,-43324,-11864,-43988,-11220,-3800,3800,-3,7,2,11,167,3919,-5,10,854,1496,1625,1812,1912,1869,1635,1728,1851
61146,-43336,-11876,-43988,-11220,-3800,3800,-3,7,3,14,164,3903,-9,3,854,1496,1625,1812,1912,1869,1635,1728,1851
62147,-43324,-11868,-43988,-11220,-3800,3800,2,6,1,-23,173,3927,-3,-1,854,1496,1625,1812,1912,1869,1635,1728,1851
63148,-43328,-11876,-43988,-11220,-3800,3800,3,6,1,-19,200,3937,10,-4,854,1496,1625,1812,1912,1869,1635,1728,1851
64149,-43336,-11880,-43988,-11220,-3800,3800,3,6,1,-4,198,3909,-8,5,854,1494,1623,1811,1911,1869,1636,1727,1851
65150,-43340,-11868,-43988,-11220,-3800,3800,2,9,1,1,173,3895,2,5,854,1494,1623,1811,1911,1869,1636,1727,1851
66151,-43328,-11880,-43988,-11220,-3800,3800,-1,10,1,-7,200,3930,9,10,854,1494,1623,1811,1911,1869,1636,1727,1851
67152,-43328,-11872,-43988,-11220,-3800,3800,-3,9,0,-8,190,3930,9,9,854,1494,1623,1811,1911,1869,1636,1727,1851
68153,-43324,-11876,-43988,-11220,-3800,3800,-1,7,0,-5,157,3930,-1,0,854,1494,1623,1811,1911,1869,1636,1727,1851
69154,-43340,-11876,-43988,-11220,-3800,3800,0,7,0,0,165,3909,-6,-2,854,1494,1623,1811,1911,1869,1636,1727,1851
70155,-43328,-11876,-43988,-11220,-3800,3800,-1,8,-2,14,172,3940,-3,-1,853,1495,1624,1811,1911,1868,1637,1727,1850
71156,-43340,-11868,-43988,-11220,-3800,3800,-3,8,-1,0,182,3918,-6,4,854,1495,1624,1811,1911,1868,1637,1727,1850
72157,-43336,-11876,-43988,-11220,-3800,3800,-1,9,-1,-6,178,3951,8,8,854,1495,1624,1811,1911,1868,1637,1727,1850
73158,-43324,-11864,-43988,-11220,-3800,3800,0,8,-2,4,173,3930,7,-2,854,1495,1624,1811,1911,1868,1637,1727,1850
74159,-43324,-11872,-43988,-11220,-3800,3800,1,7,0,-34,176,3958,-8,-5,854,1495,1624,1811,1911,1868,1637,1727,1850
75160,-43328,-11872,-43988,-11220,-3800,3800,-1,9,-2,-26,169,3943,-8,8,854,1495,1625,1811,1911,1869,1637,1729,1852
76161,-43332,-11868,-43988,-11220,-3800,3800,-2,10,-2,-29,157,3966,1,10,854,1495,1625,1811,1911,1869,1637,1729,1852
77162,-43332,-11880,-43988,-11220,-3800,3800,0,8,0,3,158,3924,10,6,854,1495,1625,1811,1911,1869,1637,1729,1852
78163,-43340,-11876,-43988,-11220,-3800,3800,1,9,0,-5,169,3904,0,-4,854,1495,1625,1811,1911,1869,1637,1729,1852
79164,-43340,-11884,-43988,-11220,-3800,3800,1,6,-1,-16,176,3914,-8,-2,854,1495,1625,1811,1911,1869,1637,1729,1852
80165,-43328,-11868,-43988,-11220,-3800,3800,1,6,-1,24,163,3896,10,1,854,1495,1625,1811,1911,1869,1637,1729,1852
81166,-43340,-11872,-43988,-11220,-3800,3800,0,8,-1,-22,157,3943,8,10,854,1494,1624,1811,1911,1869,1636,1727,1850
82167,-43336,-11872,-43988,-11220,-3800,3800,0,8,-3,-3,172,3934,-5,7,854,1494,1624,1811,1911,1869,1636,1727,1850
83168,-43344,-11876,-43988,-11220,-3800,3800,1,7,-1,2,184,3950,0,3,854,1494,1624,1811,1911,1869,1636,1727,1850
84169,-43332,-11876,-43988,-11220,-3800,3800,-1,7,0,-11,168,3952,9,-5,854,1494,1624,1811,1911,1869,1636,1727,1850
85170,-43328,-11880,-43988,-11220,-3800,3800,0,8,0,-22,168,3930,8,-4,854,1494,1624,1811,1911,1869,1636,1727,1850
86171,-43344,-11872,-43988,-11220,-3800,3800,2,8,0,9,174,3916,-5,-2,854,1496,1624,1810,1912,1869,1636,1728,1850
87172,-43328,-11864,-43988,-11220,-3800,3800,3,8,-2,-1,186,3920,-5,2,853,1496,1624,1810,1912,1869,1636,1728,1850
88173,-43328,-11884,-43988,-11220,-3800,3800,1,8,-3,-10,177,3955,-8,5,854,1496,1624,1810,1912,1869,1636,1728,1850
89174,-43324,-11868,-43988,-11220,-3800,3800,2,9,1,-8,182,3980,0,10,854,1496,1624,1810,1912,1869,1636,1728,1850
90175,-43332,-11876,-43988,-11220,-3800,3800,2,10,1,-1,181,3944,2,7,854,1496,1624,1810,1912,1869,1636,1728,1850
91176,-43324,-11868,-43988,-11220,-3800,3800,-2,10,1,1,200,3945,7,1,854,1496,1624,1810,1912,1869,1636,1728,1850
92177,-43340,-11880,-43988,-11220,-3800,3800,-2,8,-1,-11,194,3927,9,-2,854,1494,1623,1811,1912,1870,1636,1727,1851
93178,-43344,-11860,-43988,-11220,-3800,3800,-1,8,1,-24,186,3905,6,-4,854,1494,1623,1811,1912,1870,1636,1727,1851
94179,-43336,-11864,-43988,-11220,-3800,3800,0,8,-1,6,181,3901,3,0,854,1494,1623,1811,1912,1870,1636,1727,1851
95180,-43328,-11876,-43988,-11220,-3800,3800,2,6,-1,6,189,3920,-8,3,854,1494,1623,1811,1912,1870,1636,1727,1851
96181,-43332,-11876,-43988,-11220,-3800,3800,-1,7,0,-1,173,3963,-9,10,854,1494,1623,1811,1912,1870,1636,1727,1851
97182,-43324,-11868,-43988,-11220,-3800,3800,0,10,1,-9,172,3953,-9,10,854,1495,1623,1811,1911,1869,1636,1727,1851
98183,-43320,-11876,-43988,-11220,-3800,3800,0,9,0,-20,157,3934,-1,9,854,1495,1623,1811,1911,1869,1636,1727,1851
99184,-43324,-11880,-43988,-11220,-3800,3800,-1,6,1,-24,172,3958,2,0,854,1495,1623,1811,1911,1869,1636,1727,1851
100185,-43332,-11868,-43988,-11220,-3800,3800,1,4,0,-22,173,3909,4,-2,854,1495,1623,1811,1911,1869,1636,1727,1851
101186,-43324,-11872,-43988,-11220,-3800,3800,2,6,-1,13,173,3901,10,-3,854,1495,1623,1811,1911,1869,1636,1727,1851
102187,-43340,-11876,-43988,-11220,-3800,3800,2,9,2,7,173,3902,10,-1,854,1495,1623,1811,1911,1869,1636,1727,1851
103188,-43340,-11880,-43988,-11220,-3800,3800,1,8,2,-10,178,3886,9,3,854,1491,1625,1814,1913,1871,1637,1727,1852
104189,-43324,-11884,-43988,-11220,-3800,3800,1,8,-1,-14,184,3929,5,-2,853,1491,1625,1814,1913,1871,1637,1727,1852
105190,-43332,-11876,-43988,-11220,-3800,3800,3,9,1,-13,179,3930,0,3,854,1491,1625,1814,1913,1871,1637,1727,1852
106191,-43332,-11884,-43988,-11220,-3800,3800,4,8,1,6,182,3926,-7,6,854,1491,1625,1814,1913,1871,1637,1727,1852
107193,-43336,-11880,-43988,-11220,-3800,3800,1,7,1,-8,171,3906,-1,8,854,1491,1625,1814,1913,1871,1637,1727,1852
108193,-43340,-11876,-43988,-11220,-3800,3800,0,6,-1,-22,152,3927,10,10,854,1494,1624,1811,1911,1869,1636,1727,1850
109194,-43340,-11876,-43988,-11220,-3800,3800,-2,8,-2,12,141,3941,3,7,854,1494,1624,1811,1911,1869,1636,1727,1850
110195,-43332,-11872,-43988,-11220,-3800,3800,-2,7,-1,-2,164,3932,-9,4,854,1494,1624,1811,1911,1869,1636,1727,1850
111196,-43340,-11880,-43988,-11220,-3800,3800,-2,9,3,-8,190,3944,-6,-4,854,1494,1624,1811,1911,1869,1636,1727,1850
112197,-43328,-11872,-43988,-11220,-3800,3800,1,9,2,-1,168,3932,-1,-5,854,1494,1624,1811,1911,1869,1636,1727,1850
113198,-43336,-11872,-43988,-11220,-3800,3800,0,7,1,13,167,3895,9,-3,854,1494,1624,1811,1911,1869,1636,1727,1850
114199,-43340,-11876,-43988,-11220,-3800,3800,-2,8,-1,8,165,3936,10,8,853,1496,1624,1810,1912,1868,1635,1728,1851
115200,-43328,-11876,-43988,-11220,-3800,3800,0,9,-2,-3,173,3897,6,10,854,1496,1624,1810,1912,1868,1635,1728,1851
116201,-43340,-11872,-43988,-11220,-3800,3800,2,9,-1,-18,191,3902,-3,10,854,1496,1624,1810,1912,1868,1635,1728,1851
117202,-43340,-11880,-43988,-11220,-3800,3800,1,9,3,-17,177,3897,-8,-2,854,1496,1624,1810,1912,1868,1635,1728,1851
118203,-43328,-11864,-43988,-11220,-3800,3800,1,10,4,-16,181,3913,-9,-4,854,1496,1624,1810,1912,1868,1635,1728,1851
119204,-43336,-11856,-43988,-11220,-3800,3800,2,6,2,-16,185,3954,7,-1,854,1494,1624,1810,1911,1869,1635,1727,1850
120205,-43344,-11880,-43988,-11220,-3800,3800,1,6,0,-25,188,3927,5,9,854,1494,1624,1810,1911,1869,1635,1727,1850
121206,-43336,-11876,-43988,-11220,-3800,3800,-1,6,3,-22,178,3922,3,9,853,1494,1624,1810,1911,1869,1635,1727,1850
122207,-43340,-11876,-43988,-11220,-3800,3800,-1,10,2,8,171,3936,-9,10,854,1494,1624,1810,1911,1869,1635,1727,1850
123208,-43336,-11876,-43988,-11220,-3800,3800,1,11,0,11,153,3912,3,2,854,1494,1624,1810,1911,1869,1635,1727,1850
124209,-43340,-11896,-43988,-11220,-3800,3800,0,10,0,-7,162,3937,10,-2,854,1494,1624,1810,1911,1869,1635,1727,1850
125210,-43344,-11888,-43988,-11220,-3800,3800,-4,8,1,12,172,3945,1,-5,854,1495,1624,1811,1911,1869,1637,1727,1850
126211,-43336,-11868,-43988,-11220,-3800,3800,-5,8,1,8,193,3933,-7,5,854,1495,1624,1811,1911,1869,1637,1727,1850
127212,-43332,-11872,-43988,-11220,-3800,3800,-2,9,-1,-19,194,3938,-7,9,854,1495,1624,1811,1911,1869,1637,1727,1850
128213,-43332,-11876,-43988,-11220,-3800,3800,1,8,-2,-16,153,3957,10,10,854,1495,1624,1811,1911,1869,1637,1727,1850
129214,-43336,-11884,-43988,-11220,-3800,3800,2,5,-1,-17,162,3950,0,-2,854,1495,1624,1811,1911,1869,1637,1727,1850
130215,-43324,-11880,-43988,-11220,-3800,3800,0,4,-2,-18,167,3931,-9,-5,854,1495,1624,1811,1910,1868,1637,1725,1847
131216,-43328,-11872,-43988,-11220,-3800,3800,-1,7,-1,-10,180,3905,2,-1,854,1495,1624,1811,1910,1868,1637,1725,1847
132217,-43332,-11884,-43988,-11220,-3800,3800,-1,9,-1,0,180,3910,10,9,854,1495,1624,1811,1910,1868,1637,1725,1847
133218,-43328,-11876,-43988,-11220,-3800,3800,-2,9,-2,-28,157,3931,2,10,854,1495,1624,1811,1910,1868,1637,1725,1847
134219,-43336,-11880,-43988,-11220,-3800,3800,-2,7,-2,-13,168,3932,-8,9,854,1495,1624,1811,1910,1868,1637,1725,1847
135220,-43340,-11876,-43988,-11220,-3800,3800,0,8,-2,-1,166,3891,4,0,854,1495,1624,1811,1910,1868,1637,1725,1847
136221,-43328,-11872,-43988,-11220,-3800,3800,0,4,-1,-5,156,3909,10,0,854,1495,1624,1811,1911,1870,1636,1726,1850
137222,-43336,-11860,-43988,-11220,-3800,3800,-1,7,-1,-1,151,3903,1,-3,854,1495,1624,1811,1911,1870,1636,1726,1850
138223,-43340,-11872,-43988,-11220,-3800,3800,-1,5,0,7,145,3906,1,-5,853,1495,1624,1811,1911,1870,1636,1726,1850
139224,-43340,-11872,-43988,-11220,-3800,3800,0,8,1,-13,167,3944,-7,-5,854,1495,1624,1811,1911,1870,1636,1726,1850
140225,-43332,-11872,-43988,-11220,-3800,3800,1,12,1,-28,177,3994,-7,-5,854,1495,1624,1811,1911,1870,1636,1726,1850
141226,-43336,-11872,-43988,-11220,-3800,3800,-2,12,-3,-29,178,3960,0,0,854,1493,1623,1814,1914,1872,1638,1728,1852
142227,-43332,-11876,-43988,-11220,-3800,3800,-2,11,-1,-7,211,3914,9,3,854,1493,1623,1814,1914,1872,1638,1728,1852
143228,-43328,-11872,-43988,-11220,-3800,3800,-1,9,-1,-11,184,3922,-1,5,854,1493,1623,1814,1914,1872,1638,1728,1852
144229,-43340,-11868,-43988,-11220,-3800,3800,1,7,-5,-2,186,3923,-8,10,854,1493,1623,1814,1914,1872,1638,1728,1852
145230,-43328,-11876,-43988,-11220,-3800,3800,1,4,-4,-5,174,3952,-9,10,854,1493,1623,1814,1914,1872,1638,1728,1852
146231,-43336,-11868,-43988,-11220,-3800,3800,1,6,-3,4,187,3941,3,9,854,1493,1623,1814,1914,1872,1638,1728,1852
147232,-43332,-11860,-43988,-11220,-3800,3800,2,7,-4,6,194,3951,9,3,854,1495,1624,1810,1911,1869,1636,1727,1851
148233,-43324,-11864,-43988,-11220,-3800,3800,-1,9,-3,-8,182,3954,9,1,854,1495,1624,1810,1911,1869,1636,1727,1851
149234,-43324,-11876,-43988,-11220,-3800,3800,-3,9,-2,12,163,3916,-5,2,854,1495,1624,1810,1911,1869,1636,1727,1851
150235,-43332,-11880,-43988,-11220,-3800,3800,-1,7,-1,6,183,3939,-9,-4,854,1495,1624,1810,1911,1869,1636,1727,1851
151236,-43340,-11872,-43988,-11220,-3800,3800,1,7,0,7,173,3948,-8,-4,854,1495,1624,1810,1911,1869,1636,1727,1851
152237,-43328,-11880,-43988,-11220,-3800,3800,2,9,0,2,166,3908,7,-4,854,1496,1624,1811,1911,1869,1636,1728,1851
153238,-43336,-11872,-43988,-11220,-3800,3800,4,9,-1,-11,170,3921,10,0,854,1496,1624,1811,1911,1869,1636,1728,1851
154239,-43332,-11876,-43988,-11220,-3800,3800,2,8,0,-37,170,3928,10,6,854,1496,1624,1811,1911,1869,1636,1728,1851
155240,-43340,-11876,-43988,-11220,-3800,3800,-3,8,1,-18,169,3897,-2,0,853,1496,1624,1811,1911,1869,1636,1728,1851
156241,-43336,-11884,-43988,-11220,-3800,3800,-1,5,3,-6,168,3913,-8,6,854,1496,1624,1811,1911,1869,1636,1728,1851
157242,-43332,-11868,-43988,-11220,-3800,3800,1,7,0,7,168,3912,-9,9,854,1496,1624,1811,1911,1869,1636,1728,1851
158243,-43332,-11880,-43988,-11220,-3800,3800,1,9,-1,12,172,3902,6,10,854,1495,1624,1812,1912,1870,1636,1727,1847
159244,-43328,-11876,-43988,-11220,-3800,3800,3,10,0,-1,176,3901,10,1,854,1495,1624,1812,1912,1870,1636,1727,1847
160245,-43336,-11880,-43988,-11220,-3800,3800,3,11,0,-13,191,3913,3,-4,854,1495,1624,1812,1912,1870,1636,1727,1847
161246,-43340,-11876,-43988,-11220,-3800,3800,4,11,0,-7,204,3905,-9,-2,854,1495,1624,1812,1912,1870,1636,1727,1847
162247,-43332,-11892,-43988,-11220,-3800,3800,3,10,0,-2,179,3945,-3,8,854,1495,1624,1812,1912,1870,1636,1727,1847
163248,-43324,-11876,-43988,-11220,-3800,3800,-1,9,0,4,177,4006,9,9,854,1495,1624,1810,1911,1869,1636,1727,1850
164249,-43340,-11880,-43988,-11220,-3800,3800,-1,10,-1,2,192,3954,2,0,854,1495,1624,1810,1911,1869,1636,1727,1850
165250,-43324,-11864,-43988,-11220,-3800,3800,1,7,-1,-14,193,3943,-8,-3,854,1495,1624,1810,1911,1869,1636,1727,1850
166251,-43332,-11876,-43988,-11220,-3800,3800,2,3,1,-12,195,3883,-3,3,854,1495,1624,1810,1911,1869,1636,1727,1850
167252,-43328,-11884,-43988,-11220,-3800,3800,1,6,0,0,161,3917,6,8,854,1495,1624,1810,1911,1869,1636,1727,1850
168253,-43328,-11872,-43988,-11220,-3800,3800,2,10,0,-6,151,3943,-7,6,854,1495,1624,1810,1911,1869,1636,1727,1850
169254,-43328,-11872,-43988,-11220,-3800,3800,4,10,1,-19,168,3919,-1,1,854,1491,1622,1810,1911,1870,1638,1727,1850
170255,-43332,-11868,-43988,-11220,-3800,3800,0,8,2,-25,168,3919,4,-4,854,1491,1622,1810,1911,1870,1638,1727,1850
171256,-43332,-11856,-43988,-11220,-3800,3800,-1,7,3,-8,168,3952,-6,2,854,1491,1622,1810,1911,1870,1638,1727,1850
172257,-43332,-11876,-43988,-11220,-3800,3800,-1,11,0,-3,169,3893,-8,4,853,1491,1622,1810,1911,1870,1638,1727,1850
173258,-43332,-11876,-43988,-11220,-3800,3800,-1,11,0,-13,179,3925,-2,9,853,1491,1622,1810,1911,1870,1638,1727,1850
174259,-43324,-11868,-43988,-11220,-3800,3800,-1,9,2,12,190,3952,10,3,854,1495,1623,1811,1911,1869,1637,1727,1851
175260,-43320,-11872,-43988,-11220,-3800,3800,-1,10,0,-4,191,3950,0,-4,854,1495,1623,1811,1911,1869,1637,1727,1851
176261,-43328,-11876,-43988,-11220,-3800,3800,-3,9,1,-12,200,3928,-7,0,854,1495,1623,1811,1911,1869,1637,1727,1851
177262,-43332,-11880,-43988,-11220,-3800,3800,-3,9,1,28,203,3946,9,10,854,1495,1623,1811,1911,1869,1637,1727,1851
178263,-43332,-11876,-43988,-11220,-3800,3800,-2,10,1,11,163,3959,4,3,854,1495,1623,1811,1911,1869,1637,1727,1851
179264,-43340,-11872,-43988,-11220,-3800,3800,-1,10,1,12,162,3940,-8,-4,854,1495,1623,1811,1911,1869,1637,1727,1851
180265,-43348,-11884,-43988,-11220,-3800,3800,-1,6,-1,1,180,3944,0,8,854,1496,1624,1811,1911,1869,1637,1728,1851
181266,-43324,-11876,-43988,-11220,-3800,3800,-1,3,-4,17,177,3919,10,8,853,1496,1624,1811,1911,1869,1637,1728,1851
182267,-43328,-11876,-43988,-11220,-3800,3800,1,5,-5,-8,162,3924,1,-3,854,1496,1624,1811,1911,1869,1637,1728,1851
183268,-43336,-11876,-43988,-11220,-3800,3800,1,6,-2,-22,170,3948,-6,5,854,1496,1624,1811,1911,1869,1637,1728,1851
184269,-43332,-11868,-43988,-11220,-3800,3800,-1,6,0,-4,184,3927,-7,8,854,1496,1624,1811,1911,1869,1637,1728,1851
185270,-43328,-11876,-43988,-11220,-3800,3800,-1,6,1,-7,172,3916,9,-3,854,1496,1625,1812,1911,1870,1636,1727,1851
186271,-43324,-11868,-43988,-11220,-3800,3800,-2,9,-1,-25,167,3921,-7,0,854,1496,1625,1812,1911,1870,1636,1727,1851
187272,-43336,-11876,-43988,-11220,-3800,3800,-3,8,0,5,184,3918,-3,10,854,1496,1625,1812,1911,1870,1636,1727,1851
188273,-43336,-11880,-43988,-11220,-3800,3800,-1,7,-1,10,177,3936,7,6,854,1496,1625,1812,1911,1870,1636,1727,1851
189274,-43328,-11872,-43988,-11220,-3800,3800,0,7,-1,-3,160,3934,0,-1,853,1496,1625,1812,1911,1870,1636,1727,1851
190275,-43340,-11888,-43988,-11220,-3800,3800,0,9,-2,-9,166,3909,-9,-3,853,1496,1625,1812,1911,1870,1636,1727,1851
191276,-43332,-11880,-43988,-11220,-3800,3800,-1,10,-1,-26,182,3914,8,-4,854,1495,1625,1811,1911,1869,1637,1727,1851
192277,-43336,-11868,-43988,-11220,-3800,3800,-1,10,-1,-8,165,3942,9,-3,854,1495,1625,1811,1911,1869,1637,1727,1851
193278,-43332,-11868,-43988,-11220,-3800,3800,-1,10,1,-11,163,3943,-6,2,854,1495,1625,1811,1911,1869,1637,1727,1851
194279,-43332,-11876,-43988,-11220,-3800,3800,-1,9,-1,-18,165,3927,1,7,854,1495,1625,1811,1911,1869,1637,1727,1851
195280,-43324,-11884,-43988,-11220,-3800,3800,1,7,-1,4,190,3908,10,4,854,1495,1625,1811,1911,1869,1637,1727,1851
196281,-43332,-11868,-43988,-11220,-3800,3800,-1,5,-1,-14,186,3902,-3,-3,854,1495,1624,1811,1911,1867,1634,1726,1851
197282,-43324,-11868,-43988,-11220,-3800,3800,-2,5,0,-4,180,3911,-1,-4,854,1495,1624,1811,1911,1867,1634,1726,1851
198283,-43336,-11872,-43988,-11220,-3800,3800,-2,10,-3,-25,182,3934,10,6,854,1495,1624,1811,1911,1867,1634,1726,1851
199323,-43336,-11876,-43988,-11220,-3800,3800,-4,10,-3,-8,167,3935,7,10,854,1495,1624,1811,1911,1867,1634,1726,1851
200285,-43332,-11872,-43923,-11155,-347,1250,1,9,-3,2,168,3930,-9,9,854,1495,1624,1811,1911,1867,1634,1726,1851
201286,-43332,-11868,-43858,-11090,-219,1324,0,9,-2,-1,159,3904,-7,1,854,1495,1624,1811,1911,1867,1634,1726,1851
202287,-43328,-11864,-43793,-11025,-194,1399,-3,8,-1,-10,165,3913,-6,16,847,1496,1625,1811,1911,1869,1635,1726,1849
203288,-43344,-11836,-43728,-10960,155,1144,-5,2,-1,-61,150,3938,12,17,839,1496,1625,1811,1911,1869,1635,1726,1849
204289,-43328,-11800,-43663,-10895,-185,1080,1,-3,4,-98,217,3983,-4,20,839,1496,1625,1811,1911,1869,1635,1726,1849
205290,-43340,-11760,-43598,-10830,259,1061,7,-5,3,-37,236,3972,-3,37,847,1496,1625,1811,1911,1869,1635,1726,1849
206291,-43340,-11712,-43533,-10765,188,982,9,-19,6,-77,184,4017,13,42,840,1496,1625,1811,1911,1869,1635,1726,1849
207292,-43328,-11628,-43468,-10700,102,509,11,-25,4,-193,148,4052,11,30,847,1476,1607,1796,1914,1871,1624,1714,1854
208293,-43320,-11572,-43403,-10635,221,870,14,-33,-2,-98,125,4020,11,41,849,1476,1607,1796,1914,1871,1624,1714,1854
209294,-43332,-11504,-43338,-10570,565,717,17,-28,-9,-44,104,4108,-2,49,851,1476,1607,1796,1914,1871,1624,1714,1854
210295,-43316,-11448,-43273,-10505,275,879,21,-21,-10,-60,73,3928,14,39,849,1476,1607,1796,1914,1871,1624,1714,1854
211296,-43328,-11356,-43208,-10440,719,396,19,-21,-21,-186,143,4046,0,53,849,1476,1607,1796,1914,1871,1624,1714,1854
212297,-43312,-11288,-43143,-10375,429,693,22,-23,-26,-272,63,3998,7,53,849,1476,1607,1796,1914,1871,1624,1714,1854
213298,-43296,-11184,-43078,-10310,489,195,23,-37,-25,-214,84,4108,11,56,849,1500,1630,1816,1917,1870,1637,1731,1856
214299,-43292,-11104,-43013,-10245,714,477,19,-56,-30,-234,33,4065,7,55,849,1500,1630,1816,1917,1870,1637,1731,1856
215300,-43276,-11028,-42948,-10180,624,515,18,-78,-30,-293,57,4161,24,43,851,1500,1630,1816,1917,1870,1637,1731,1856
216301,-43232,-10956,-42883,-10115,300,556,17,-86,-26,-275,89,4175,18,54,849,1500,1630,1816,1917,1870,1637,1731,1856
217302,-43208,-10864,-42818,-10050,600,273,12,-113,-30,-243,31,3987,14,42,849,1500,1630,1816,1917,1870,1637,1731,1856
218303,-43184,-10776,-42753,-9985,650,295,10,-121,-37,-326,66,4013,14,49,851,1510,1640,1826,1928,1875,1644,1739,1864
219304,-43148,-10700,-42688,-9920,535,433,5,-109,-35,-103,-86,4084,17,56,851,1510,1640,1826,1928,1875,1644,1739,1864
220305,-43116,-10624,-42623,-9855,625,419,-5,-73,-47,-42,-46,4129,35,52,851,1510,1640,1826,1928,1875,1644,1739,1864
221306,-43072,-10536,-42558,-9790,502,241,-4,-62,-45,-136,-22,4003,36,42,850,1510,1640,1826,1928,1875,1644,1739,1864
222307,-43028,-10448,-42493,-9725,528,214,5,-48,-44,-86,20,4082,38,53,850,1510,1640,1826,1928,1875,1644,1739,1864
223308,-42984,-10396,-42428,-9660,553,680,9,-82,-50,-202,-22,3927,33,45,850,1510,1640,1826,1928,1875,1644,1739,1864
224309,-42940,-10324,-42363,-9595,579,421,10,-115,-59,-276,-26,4013,25,38,850,1511,1639,1823,1927,1875,1645,1739,1861
225310,-42896,-10244,-42298,-9530,604,303,8,-145,-58,-251,-57,4040,26,40,849,1511,1639,1823,1927,1875,1645,1739,1861
226311,-42840,-10192,-42233,-9465,466,670,17,-158,-50,-130,-80,3935,38,37,850,1511,1639,1823,1927,1875,1645,1739,1861
227312,-42784,-10120,-42168,-9400,477,411,21,-187,-38,-327,-47,3857,46,41,850,1511,1639,1823,1927,1875,1645,1739,1861
228313,-42748,-10052,-42103,-9335,763,458,37,-188,-39,-264,-17,3978,40,46,849,1511,1639,1823,1927,1875,1645,1739,1861
229314,-42676,-10004,-42038,-9270,304,729,50,-197,-43,-149,44,3994,39,48,851,1506,1632,1815,1923,1878,1650,1743,1860
230315,-42604,-9928,-41973,-9205,297,366,62,-218,-29,-116,-9,3968,42,33,849,1506,1632,1815,1923,1878,1650,1743,1860
231316,-42556,-9876,-41908,-9140,618,682,77,-226,-11,-134,-61,4055,40,29,850,1506,1632,1815,1923,1878,1650,1743,1860
232317,-42476,-9820,-41843,-9075,199,643,97,-203,-4,-2,44,4188,32,31,851,1506,1632,1815,1923,1878,1650,1743,1860
233318,-42424,-9756,-41778,-9010,565,545,117,-210,1,1,187,4032,34,32,848,1506,1632,1815,1923,1878,1650,1743,1860
234319,-42364,-9696,-41713,-8945,471,601,138,-198,13,-132,217,4006,33,33,851,1506,1632,1815,1923,1878,1650,1743,1860
235320,-42304,-9652,-41648,-8880,478,827,162,-203,6,145,261,4239,52,34,850,1500,1621,1806,1920,1878,1651,1743,1855
236321,-42252,-9592,-41583,-8815,594,634,176,-192,10,-17,329,3988,52,39,850,1500,1621,1806,1920,1878,1651,1743,1855
237322,-42164,-9524,-41518,-8750,116,530,190,-187,11,-75,316,3990,48,38,848,1500,1621,1806,1920,1878,1651,1743,1855
238323,-42104,-9468,-41453,-8685,472,691,211,-176,5,48,228,3905,49,29,849,1500,1621,1806,1920,1878,1651,1743,1855
239324,-42028,-9420,-41388,-8620,260,812,224,-192,-8,51,282,4018,49,44,851,1500,1621,1806,1920,1878,1651,1743,1855
240325,-41956,-9380,-41323,-8555,301,944,245,-204,-11,-68,213,3876,42,30,848,1507,1625,1814,1939,1883,1659,1751,1859
241326,-41896,-9316,-41258,-8490,457,645,249,-242,-8,-194,125,3649,39,37,848,1507,1625,1814,1939,1883,1659,1751,1859
242327,-41836,-9256,-41193,-8425,463,701,253,-244,-14,-95,218,3966,34,44,848,1507,1625,1814,1939,1883,1659,1751,1859
243328,-41760,-9200,-41128,-8360,251,763,259,-226,-17,-1,254,3855,40,45,849,1507,1625,1814,1939,1883,1659,1751,1859
244329,-41708,-9132,-41063,-8295,567,609,268,-210,-26,210,230,3975,35,33,849,1507,1625,1814,1939,1883,1659,1751,1859
245330,-41644,-9092,-40998,-8230,418,990,284,-206,-28,208,192,3972,38,40,850,1507,1625,1814,1939,1883,1659,1751,1859
246331,-41584,-9032,-40933,-8165,474,747,286,-197,-34,89,51,3736,40,28,849,1515,1636,1830,1956,1889,1664,1753,1864
247332,-41512,-8976,-40868,-8100,317,808,295,-183,-44,174,236,3995,45,43,847,1515,1636,1830,1956,1889,1664,1753,1864
248333,-41456,-8916,-40803,-8035,528,764,307,-143,-42,66,241,4109,32,40,849,1515,1636,1830,1956,1889,1664,1753,1864
249334,-41408,-8872,-40738,-7970,648,991,304,-105,-49,249,173,3998,45,29,849,1515,1636,1830,1956,1889,1664,1753,1864
250335,-41336,-8824,-40673,-7905,340,961,310,-92,-47,162,30,4107,53,28,849,1515,1636,1830,1956,1889,1664,1753,1864
251336,-41264,-8756,-40608,-7840,332,708,309,-96,-42,-78,66,3953,53,39,846,1524,1639,1834,1959,1884,1660,1747,1857
252337,-41196,-8708,-40543,-7775,379,979,312,-116,-44,-55,73,3943,35,28,848,1524,1639,1834,1959,1884,1660,1747,1857
253338,-41132,-8656,-40478,-7710,430,945,310,-140,-37,-99,50,3836,46,43,850,1524,1639,1834,1959,1884,1660,1747,1857
254339,-41068,-8608,-40413,-7645,431,1016,302,-139,-37,20,143,4041,48,31,847,1524,1639,1834,1959,1884,1660,1747,1857
255340,-40996,-8540,-40348,-7580,324,763,293,-141,-38,-32,165,4033,47,31,847,1524,1639,1834,1959,1884,1660,1747,1857
256341,-40912,-8484,-40283,-7515,150,924,284,-161,-24,-148,77,4037,32,30,847,1524,1639,1834,1959,1884,1660,1747,1857
257342,-40872,-8432,-40218,-7450,731,990,266,-162,-18,52,68,3850,30,31,848,1533,1645,1842,1971,1879,1659,1745,1856
258343,-40812,-8360,-40153,-7385,487,733,254,-123,-19,147,135,4220,38,44,847,1533,1645,1842,1971,1879,1659,1745,1856
259344,-40744,-8316,-40088,-7320,384,1108,246,-100,-18,201,192,3965,46,31,846,1533,1645,1842,1971,1879,1659,1745,1856
260345,-40672,-8276,-40023,-7255,326,1190,238,-72,-29,289,183,4132,37,39,849,1533,1645,1842,1971,1879,1659,1745,1856
261346,-40632,-8220,-39958,-7190,756,1001,227,-58,-22,209,65,3911,30,46,847,1533,1645,1842,1971,1879,1659,1745,1856
262347,-40564,-8152,-39893,-7125,403,847,221,-39,-22,2,277,4133,40,37,847,1546,1658,1857,1985,1882,1663,1751,1859
263348,-40504,-8092,-39828,-7060,510,954,214,-25,-22,-23,216,3979,31,46,846,1546,1658,1857,1985,1882,1663,1751,1859
264349,-40440,-8016,-39763,-6995,461,741,217,-24,-19,111,141,4053,30,41,848,1546,1658,1857,1985,1882,1663,1751,1859
265350,-40392,-7976,-39698,-6930,682,1222,219,-31,-17,71,248,3875,48,43,847,1546,1658,1857,1985,1882,1663,1751,1859
266351,-40328,-7924,-39633,-6865,483,1088,221,-41,-23,-44,242,3952,32,38,849,1546,1658,1857,1985,1882,1663,1751,1859
267352,-40260,-7864,-39568,-6800,430,994,219,-45,-29,-76,190,3920,52,31,845,1546,1658,1857,1985,1882,1663,1751,1859
268353,-40200,-7804,-39503,-6735,536,1001,209,-55,-23,-36,228,3968,49,35,846,1557,1669,1870,1999,1891,1669,1757,1866
269354,-40140,-7748,-39438,-6670,542,1062,209,-47,-12,-85,237,3898,32,35,847,1557,1669,1870,1999,1891,1669,1757,1866
270355,-40084,-7684,-39373,-6605,603,965,203,-51,-9,-35,279,4069,33,42,846,1557,1669,1870,1999,1891,1669,1757,1866
271356,-40040,-7640,-39308,-6540,780,1240,204,-56,-13,-45,301,4021,31,26,846,1557,1669,1870,1999,1891,1669,1757,1866
272357,-39964,-7584,-39243,-6475,367,1101,197,-70,0,-59,232,3933,45,33,847,1557,1669,1870,1999,1891,1669,1757,1866
273358,-39904,-7540,-39178,-6410,573,1278,193,-84,7,19,246,3841,38,27,844,1559,1674,1871,2006,1882,1660,1752,1860
274359,-39828,-7488,-39113,-6345,360,1194,187,-91,15,-61,264,3927,49,31,846,1559,1674,1871,2006,1882,1660,1752,1860
275360,-39764,-7448,-39048,-6280,512,1375,181,-97,28,-132,280,3877,49,38,844,1559,1674,1871,2006,1882,1660,1752,1860
276361,-39696,-7400,-38983,-6215,458,1296,176,-89,36,31,254,3890,34,41,846,1559,1674,1871,2006,1882,1660,1752,1860
277362,-39636,-7324,-38918,-6150,564,934,175,-93,40,2,247,4023,37,32,844,1559,1674,1871,2006,1882,1660,1752,1860
278363,-39572,-7260,-38853,-6085,516,1085,179,-101,42,19,349,3940,51,48,845,1559,1674,1871,2006,1882,1660,1752,1860
279364,-39500,-7208,-38788,-6020,408,1251,178,-96,48,34,365,4052,49,35,847,1564,1679,1872,2002,1872,1651,1746,1857
280365,-39456,-7164,-38723,-5955,783,1377,185,-85,43,210,411,3914,33,46,846,1564,1679,1872,2002,1872,1651,1746,1857
281366,-39376,-7084,-38658,-5890,315,909,185,-73,36,259,429,4107,46,46,845,1564,1679,1872,2002,1872,1651,1746,1857
282369,-39320,-7012,-38593,-5825,627,1001,197,-79,25,106,378,3935,42,41,843,1564,1679,1872,2002,1872,1651,1746,1857
283368,-39236,-6952,-38528,-5760,254,1158,198,-79,18,-34,364,3970,37,39,848,1564,1679,1872,2002,1872,1651,1746,1857
284369,-39184,-6880,-38463,-5695,670,1000,209,-85,0,49,417,4088,48,47,846,1573,1688,1884,2016,1875,1654,1750,1860
285370,-39132,-6804,-38398,-5630,686,937,207,-74,-10,259,403,3923,33,45,847,1573,1688,1884,2016,1875,1654,1750,1860
286371,-39068,-6740,-38333,-5565,538,1089,219,-122,-21,39,421,3875,37,49,846,1573,1688,1884,2016,1875,1654,1750,1860
287372,-39024,-6692,-38268,-5500,813,1310,219,-146,-30,-391,377,3978,39,35,846,1573,1688,1884,2016,1875,1654,1750,1860
288373,-38940,-6632,-38203,-5435,290,1166,226,-183,-38,-199,348,3856,49,41,846,1573,1688,1884,2016,1875,1654,1750,1860
289374,-38880,-6560,-38138,-5370,597,1008,232,-207,-31,-90,385,3856,39,39,844,1588,1703,1904,2042,1880,1663,1759,1865
290375,-38824,-6504,-38073,-5305,658,1219,234,-241,-13,-96,347,3716,43,40,846,1588,1703,1904,2042,1880,1663,1759,1865
291376,-38768,-6440,-38008,-5240,669,1121,243,-237,-2,-22,389,3946,47,45,845,1588,1703,1904,2042,1880,1663,1759,1865
292377,-38712,-6364,-37943,-5175,680,958,248,-227,14,118,381,4090,42,35,844,1588,1703,1904,2042,1880,1663,1759,1865
293378,-38644,-6320,-37878,-5110,528,1385,261,-212,32,197,260,3916,36,34,845,1588,1703,1904,2042,1880,1663,1759,1865
294379,-38568,-6260,-37813,-5045,414,1191,253,-212,61,125,256,3903,49,43,846,1588,1703,1904,2042,1880,1663,1759,1865
295380,-38484,-6192,-37748,-4980,291,1088,258,-184,69,62,318,3991,49,43,844,1608,1723,1921,2062,1875,1658,1756,1860
296381,-38436,-6136,-37683,-4915,763,1249,251,-172,70,181,247,3838,42,30,846,1608,1723,1921,2062,1875,1658,1756,1860
297382,-38364,-6080,-37618,-4850,454,1261,261,-182,84,132,359,4017,38,30,847,1608,1723,1921,2062,1875,1658,1756,1860
298383,-38312,-6024,-37553,-4785,720,1272,257,-178,83,74,433,4010,32,32,844,1608,1723,1921,2062,1875,1658,1756,1860
299384,-38236,-5980,-37488,-4720,407,1449,261,-179,75,99,289,4009,31,37,845,1608,1723,1921,2062,1875,1658,1756,1860
300385,-38172,-5920,-37423,-4655,559,1255,263,-184,77,112,348,4058,31,32,844,1615,1727,1925,2066,1864,1648,1740,1842
301386,-38116,-5880,-37358,-4590,670,1535,262,-200,74,95,306,3995,42,36,844,1615,1727,1925,2066,1864,1648,1740,1842
302387,-38048,-5832,-37293,-4525,516,1457,261,-211,61,27,224,4015,29,25,845,1615,1727,1925,2066,1864,1648,1740,1842
303388,-37988,-5776,-37228,-4460,623,1368,263,-228,54,-8,196,4041,43,33,842,1615,1727,1925,2066,1864,1648,1740,1842
304389,-37928,-5720,-37163,-4395,629,1380,263,-241,58,-34,241,4028,43,26,843,1615,1727,1925,2066,1864,1648,1740,1842
305390,-37868,-5688,-37098,-4330,635,1720,262,-244,60,-9,210,3972,41,39,843,1615,1727,1925,2066,1864,1648,1740,1842
306391,-37820,-5640,-37033,-4265,806,1542,260,-243,51,233,227,3910,30,26,843,1619,1728,1934,2075,1859,1647,1740,1848
307392,-37752,-5580,-36968,-4200,554,1398,271,-231,56,77,140,4060,40,29,840,1619,1728,1934,2075,1859,1647,1740,1848
308393,-37700,-5536,-36903,-4135,769,1625,278,-220,62,148,102,3891,31,37,840,1619,1728,1934,2075,1859,1647,1740,1848
309394,-37628,-5504,-36838,-4070,511,1816,290,-201,81,81,162,4000,44,37,843,1619,1728,1934,2075,1859,1647,1740,1848
310395,-37584,-5452,-36773,-4005,887,1582,289,-187,90,204,222,3726,46,32,841,1619,1728,1934,2075,1859,1647,1740,1848
311396,-37520,-5384,-36708,-3940,639,1379,287,-160,109,55,193,3976,45,42,840,1638,1749,1955,2098,1862,1648,1745,1853
312397,-37468,-5332,-36643,-3875,805,1595,291,-148,130,58,233,3846,38,32,841,1638,1749,1955,2098,1862,1648,1745,1853
313398,-37400,-5268,-36578,-3810,602,1447,282,-128,148,65,236,3959,48,41,843,1638,1749,1955,2098,1862,1648,1745,1853
314399,-37356,-5216,-36513,-3745,928,1613,282,-103,165,74,262,4008,36,37,841,1638,1749,1955,2098,1862,1648,1745,1853
315400,-37280,-5156,-36448,-3680,514,1520,281,-103,182,-21,259,3860,51,36,843,1638,1749,1955,2098,1862,1648,1745,1853
316401,-37244,-5096,-36383,-3615,1051,1526,278,-129,194,-168,217,3756,53,37,839,1638,1749,1955,2098,1862,1648,1745,1853
317402,-37168,-5036,-36318,-3550,537,1533,273,-149,208,-166,290,3810,51,46,843,1652,1765,1967,2111,1859,1645,1741,1847
318403,-37092,-4976,-36253,-3485,524,1541,271,-165,214,-149,328,3925,55,51,840,1652,1765,1967,2111,1859,1645,1741,1847
319404,-37024,-4884,-36188,-3420,621,1108,268,-184,213,-110,246,3835,50,46,843,1652,1765,1967,2111,1859,1645,1741,1847
320405,-36960,-4848,-36123,-3355,672,1844,275,-191,212,-32,289,4063,49,37,843,1652,1765,1967,2111,1859,1645,1741,1847
321406,-36900,-4776,-36058,-3290,728,1385,281,-199,218,45,265,3964,38,46,845,1652,1765,1967,2111,1859,1645,1741,1847
322407,-36828,-4724,-35993,-3225,570,1652,287,-185,204,176,270,3989,51,48,839,1656,1770,1970,2108,1857,1639,1741,1856
323408,-36764,-4668,-35928,-3160,672,1613,283,-181,206,137,285,4155,43,44,843,1656,1770,1970,2108,1857,1639,1741,1856
324409,-36692,-4576,-35863,-3095,563,1131,290,-157,211,310,201,4078,46,48,841,1656,1770,1970,2108,1857,1639,1741,1856
325410,-36644,-4520,-35798,-3030,884,1592,300,-145,213,232,133,4065,40,34,840,1656,1770,1970,2108,1857,1639,1741,1856
326411,-36584,-4452,-35733,-2965,741,1440,328,-131,218,96,337,4282,31,45,844,1656,1770,1970,2108,1857,1639,1741,1856
327412,-36516,-4396,-35668,-2900,638,1602,322,-127,213,238,223,3756,48,33,840,1656,1770,1970,2108,1857,1639,1741,1856
328413,-36460,-4328,-35603,-2835,799,1448,337,-133,212,212,277,4093,32,37,842,1665,1782,1982,2116,1864,1642,1748,1864
329414,-36408,-4276,-35538,-2770,866,1665,336,-153,221,43,347,3900,41,46,841,1665,1782,1982,2116,1864,1642,1748,1864
330415,-36348,-4216,-35473,-2705,772,1571,342,-170,222,-39,345,3929,36,37,842,1665,1782,1982,2116,1864,1642,1748,1864
331416,-36288,-4148,-35408,-2640,778,1468,350,-194,235,-26,267,4012,41,33,839,1665,1782,1982,2116,1864,1642,1748,1864
332418,-36236,-4108,-35343,-2575,895,1849,375,-213,245,-51,214,3916,39,36,841,1665,1782,1982,2116,1864,1642,1748,1864
333418,-36172,-4056,-35278,-2510,746,1716,382,-246,244,-186,331,3756,35,45,841,1676,1798,1999,2137,1866,1645,1752,1868
334419,-36128,-3988,-35213,-2445,1021,1513,392,-272,252,-164,415,3846,35,39,838,1676,1798,1999,2137,1866,1645,1752,1868
335420,-36060,-3932,-35148,-2380,719,1674,390,-293,268,49,491,3970,36,42,840,1676,1798,1999,2137,1866,1645,1752,1868
336421,-35980,-3864,-35083,-2315,550,1521,398,-309,279,24,415,3973,50,48,840,1676,1798,1999,2137,1866,1645,1752,1868
337422,-35932,-3812,-35018,-2250,971,1737,398,-322,291,-63,354,3776,34,40,840,1676,1798,1999,2137,1866,1645,1752,1868
338423,-35852,-3756,-34953,-2185,554,1699,403,-324,298,-58,406,3880,35,46,843,1676,1798,1999,2137,1866,1645,1752,1868
339424,-35792,-3676,-34888,-2120,810,1382,408,-311,295,90,401,3807,46,36,838,1696,1819,2008,2144,1859,1638,1749,1867
340425,-35724,-3604,-34823,-2055,706,1473,422,-295,293,99,350,3847,41,44,840,1696,1819,2008,2144,1859,1638,1749,1867
341426,-35668,-3568,-34758,-1990,868,1960,421,-302,302,119,454,3883,44,48,842,1696,1819,2008,2144,1859,1638,1749,1867
342427,-35600,-3512,-34693,-1925,715,1721,430,-304,298,184,417,3883,29,41,841,1696,1819,2008,2144,1859,1638,1749,1867
343428,-35540,-3444,-34628,-1860,821,1568,444,-285,281,52,389,4036,32,48,836,1696,1819,2008,2144,1859,1638,1749,1867
344429,-35492,-3400,-34563,-1795,993,1895,454,-255,269,173,404,3978,29,35,840,1696,1821,2011,2140,1848,1626,1735,1854
345430,-35440,-3344,-34498,-1730,958,1756,467,-239,254,263,429,4058,47,35,840,1696,1821,2011,2140,1848,1626,1735,1854
346431,-35372,-3264,-34433,-1665,756,1438,470,-243,242,65,461,3996,35,48,837,1696,1821,2011,2140,1848,1626,1735,1854
347432,-35316,-3192,-34368,-1600,917,1530,478,-250,239,-93,369,4077,52,38,838,1696,1821,2011,2140,1848,1626,1735,1854
348433,-35252,-3156,-34303,-1535,818,2016,491,-257,240,9,319,3905,32,32,841,1696,1821,2011,2140,1848,1626,1735,1854
349434,-35192,-3084,-34238,-1470,875,1559,513,-262,237,46,293,4014,41,32,840,1696,1821,2011,2140,1848,1626,1735,1854
350435,-35112,-3040,-34173,-1405,607,1934,542,-260,240,-146,242,4130,32,34,836,1693,1817,2013,2145,1848,1627,1737,1854
351436,-35072,-2968,-34108,-1340,1137,1577,579,-268,241,-131,144,4040,32,36,840,1693,1817,2013,2145,1848,1627,1737,1854
352437,-35012,-2904,-34043,-1275,894,1678,607,-301,261,-487,165,4161,33,45,839,1693,1817,2013,2145,1848,1627,1737,1854
353438,-34964,-2848,-33978,-1210,1065,1790,608,-316,247,-631,316,4341,45,41,838,1693,1817,2013,2145,1848,1627,1737,1854
354439,-34896,-2780,-33913,-1145,811,1637,631,-288,253,107,463,4076,34,50,838,1693,1817,2013,2145,1848,1627,1737,1854
355440,-34836,-2724,-33848,-1080,919,1798,643,-264,255,419,394,3977,53,48,837,1706,1834,2031,2169,1855,1636,1754,1870
356441,-34780,-2652,-33783,-1015,980,1591,644,-246,243,-41,494,4085,35,50,839,1706,1834,2031,2169,1855,1636,1754,1870
357442,-34720,-2588,-33718,-950,937,1693,651,-219,230,-75,645,3954,53,47,837,1706,1834,2031,2169,1855,1636,1754,1870
358443,-34648,-2532,-33653,-885,778,1804,641,-227,223,205,597,3736,38,49,839,1706,1834,2031,2169,1855,1636,1754,1870
359444,-34600,-2464,-33588,-820,1099,1651,623,-223,213,315,684,4024,39,49,837,1706,1834,2031,2169,1855,1636,1754,1870
360445,-34548,-2396,-33523,-755,1066,1648,599,-205,211,126,632,3997,52,39,838,1706,1834,2031,2169,1855,1636,1754,1870
361446,-34488,-2348,-33458,-690,972,1919,587,-173,196,118,628,4075,47,39,838,1737,1864,2052,2196,1860,1641,1760,1876
362447,-34420,-2264,-33393,-625,868,1447,579,-138,179,267,460,4093,49,34,838,1737,1864,2052,2196,1860,1641,1760,1876
363448,-34348,-2224,-33328,-560,811,2028,573,-147,160,308,510,3972,45,38,837,1737,1864,2052,2196,1860,1641,1760,1876
364449,-34280,-2168,-33263,-495,857,1840,575,-185,144,15,367,3948,58,37,841,1737,1864,2052,2196,1860,1641,1760,1876
365450,-34212,-2116,-33198,-430,854,1907,585,-196,110,-45,445,4180,48,33,836,1737,1864,2052,2196,1860,1641,1760,1876
366451,-34136,-2040,-33133,-365,741,1593,602,-214,88,-70,371,4261,50,37,838,1720,1844,2040,2165,1880,1657,1764,1889
367452,-34056,-1996,-33068,-300,673,2020,628,-234,72,145,390,4366,57,46,837,1720,1844,2040,2165,1880,1657,1764,1889
368453,-33996,-1940,-33003,-235,930,1882,646,-258,63,-22,281,4254,37,44,841,1720,1844,2040,2165,1880,1657,1764,1889
369454,-33920,-1880,-32938,-170,716,1838,664,-268,54,-12,389,4401,51,34,837,1720,1844,2040,2165,1880,1657,1764,1889
370455,-33856,-1824,-32873,-105,867,1900,681,-275,42,68,499,4250,38,35,837,1720,1844,2040,2165,1880,1657,1764,1889
371456,-33808,-1752,-32808,-40,1089,1691,694,-258,18,145,529,4329,45,44,839,1720,1844,2040,2165,1880,1657,1764,1889
372457,-33744,-1700,-32743,25,890,1958,704,-250,17,160,661,4410,48,46,837,1681,1812,2010,2134,1889,1661,1766,1896
373458,-33676,-1644,-32678,90,838,1920,710,-241,14,254,721,4236,53,31,836,1681,1812,2010,2134,1889,1661,1766,1896
374459,-33612,-1580,-32613,155,889,1821,687,-249,5,147,624,4112,49,28,836,1681,1812,2010,2134,1889,1661,1766,1896
375460,-33564,-1540,-32548,220,1110,2153,664,-245,-10,152,765,4257,41,39,837,1681,1812,2010,2134,1889,1661,1766,1896
376461,-33504,-1500,-32483,285,967,2184,631,-237,2,80,844,4155,33,27,836,1681,1812,2010,2134,1889,1661,1766,1896
377462,-33452,-1444,-32418,350,1083,1995,604,-214,-9,305,825,4090,53,25,831,1689,1826,2025,2157,1895,1670,1780,1903
378463,-33380,-1384,-32353,415,825,1953,577,-210,-21,176,846,4125,44,41,834,1689,1826,2025,2157,1895,1670,1780,1903
379464,-33304,-1332,-32288,480,762,2069,547,-219,-34,260,916,4011,49,27,835,1689,1826,2025,2157,1895,1670,1780,1903
380465,-33252,-1292,-32223,545,1078,2250,514,-223,-56,165,847,3920,54,26,836,1689,1826,2025,2157,1895,1670,1780,1903
381466,-33176,-1244,-32158,610,765,2172,485,-227,-75,141,736,3939,42,26,836,1689,1826,2025,2157,1895,1670,1780,1903
382467,-33128,-1188,-32093,675,1136,2084,475,-233,-87,206,850,4052,52,29,832,1689,1826,2025,2157,1895,1670,1780,1903
383468,-33064,-1140,-32028,740,937,2205,466,-249,-110,287,804,3908,39,36,835,1703,1831,2035,2174,1922,1694,1796,1928
384469,-33000,-1056,-31963,805,939,1732,459,-259,-135,262,643,4107,50,34,834,1703,1831,2035,2174,1922,1694,1796,1928
385470,-32936,-996,-31898,870,941,2039,465,-269,-160,242,763,4108,38,36,834,1703,1831,2035,2174,1922,1694,1796,1928
386471,-32876,-932,-31833,935,998,1992,462,-284,-185,169,677,3998,38,44,838,1703,1831,2035,2174,1922,1694,1796,1928
387472,-32812,-872,-31768,1000,949,2048,464,-288,-215,233,650,4101,54,38,835,1703,1831,2035,2174,1922,1694,1796,1928
388473,-32752,-812,-31703,1065,1005,2055,470,-294,-238,301,750,4131,55,43,835,1688,1814,2031,2155,1933,1699,1792,1926
389474,-32696,-756,-31638,1130,1067,2117,460,-309,-251,305,704,4138,42,44,835,1688,1814,2031,2155,1933,1699,1792,1926
390475,-32624,-684,-31573,1195,858,1909,453,-303,-263,324,827,4176,47,34,835,1688,1814,2031,2155,1933,1699,1792,1926
391476,-32576,-616,-31508,1260,1180,1956,450,-296,-272,244,939,4134,53,42,834,1688,1814,2031,2155,1933,1699,1792,1926
392477,-32516,-552,-31443,1325,1036,2008,429,-278,-275,250,843,4081,48,53,837,1688,1814,2031,2155,1933,1699,1792,1926
393478,-32448,-504,-31378,1390,933,2230,427,-274,-281,340,1009,4136,41,52,834,1688,1814,2031,2155,1933,1699,1792,1926
394479,-32408,-432,-31313,1455,1314,1921,398,-272,-280,168,1066,4132,49,34,835,1686,1814,2029,2156,1925,1696,1792,1921
395480,-32316,-356,-31248,1520,631,1859,379,-259,-276,353,1107,4194,40,45,834,1686,1814,2029,2156,1925,1696,1792,1921
396481,-32248,-280,-31183,1585,929,1846,355,-255,-268,313,1210,4113,56,35,834,1686,1814,2029,2156,1925,1696,1792,1921
397482,-32208,-244,-31118,1650,1309,2383,341,-251,-261,130,1075,4089,35,33,838,1686,1814,2029,2156,1925,1696,1792,1921
398483,-32132,-164,-31053,1715,846,1814,325,-229,-270,371,1152,3979,35,41,837,1686,1814,2029,2156,1925,1696,1792,1921
399484,-32052,-120,-30988,1780,778,2291,305,-243,-279,219,1146,3937,56,41,830,1702,1831,2049,2186,1939,1711,1808,1940
400485,-31984,-56,-30923,1845,925,2043,287,-271,-267,-125,984,3945,38,39,838,1702,1831,2049,2186,1939,1711,1808,1940
401486,-31920,16,-30858,1910,977,1935,275,-263,-271,137,1089,3899,50,46,834,1702,1831,2049,2186,1939,1711,1808,1940
402487,-31860,64,-30793,1975,1033,2256,265,-268,-279,116,1026,3857,52,35,835,1702,1831,2049,2186,1939,1711,1808,1940
403488,-31804,136,-30728,2040,1095,1949,277,-263,-298,234,1069,3953,53,29,836,1702,1831,2049,2186,1939,1711,1808,1940
404489,-31740,180,-30663,2105,996,2325,276,-283,-313,165,1002,3766,49,49,833,1702,1831,2049,2186,1939,1711,1808,1940
405490,-31680,232,-30598,2170,1052,2241,282,-300,-317,184,1111,3952,50,34,835,1725,1850,2080,2216,1975,1743,1830,1968
406491,-31616,308,-30533,2235,1005,1929,281,-298,-330,239,1004,3703,48,51,833,1725,1850,2080,2216,1975,1743,1830,1968
407492,-31560,380,-30468,2300,1116,1971,276,-276,-350,279,1013,3969,54,45,832,1725,1850,2080,2216,1975,1743,1830,1968
408493,-31492,456,-30403,2365,963,1909,283,-254,-346,129,1065,3985,36,45,836,1725,1850,2080,2216,1975,1743,1830,1968
409494,-31428,496,-30338,2430,1014,2389,287,-236,-353,416,1017,3863,43,38,835,1725,1850,2080,2216,1975,1743,1830,1968
410495,-31360,560,-30273,2495,960,2092,293,-235,-356,244,1018,3874,39,45,835,1735,1856,2091,2226,1987,1751,1831,1972
411496,-31312,624,-30208,2560,1232,2094,276,-253,-361,175,1215,3977,58,49,831,1735,1856,2091,2226,1987,1751,1831,1972
412497,-31224,688,-30143,2625,704,2095,274,-244,-359,167,1218,3961,41,38,835,1735,1856,2091,2226,1987,1751,1831,1972
413498,-31176,760,-30078,2690,1226,1987,271,-235,-355,232,1261,4153,43,37,833,1735,1856,2091,2226,1987,1751,1831,1972
414499,-31112,832,-30013,2755,1027,1980,265,-214,-360,299,1165,4060,39,52,836,1735,1856,2091,2226,1987,1751,1831,1972
415500,-31048,888,-29948,2820,1028,2192,267,-221,-357,131,1323,4090,51,42,834,1735,1856,2091,2226,1987,1751,1831,1972
416501,-30988,952,-29883,2885,1085,2093,247,-235,-346,32,1308,4047,52,34,835,1735,1855,2094,2234,1992,1757,1847,1980
417502,-30908,1024,-29818,2950,817,1986,249,-221,-336,224,1319,4047,52,39,833,1735,1855,2094,2234,1992,1757,1847,1980
418503,-30840,1088,-29753,3015,964,2088,236,-222,-331,163,1340,3952,61,35,834,1735,1855,2094,2234,1992,1757,1847,1980
419504,-30768,1152,-29688,3080,906,2090,239,-216,-323,121,1358,4025,41,34,836,1735,1855,2094,2234,1992,1757,1847,1980
420505,-30720,1212,-29623,3145,1228,2146,243,-207,-323,309,1348,3868,41,34,835,1735,1855,2094,2234,1992,1757,1847,1980
421506,-30636,1276,-29558,3210,754,2098,241,-218,-324,268,1325,3915,41,44,835,1740,1863,2106,2244,2028,1788,1866,2013
422507,-30572,1328,-29493,3275,1006,2265,247,-218,-321,-83,1349,4032,47,37,832,1740,1863,2106,2244,2028,1788,1866,2013
423508,-30508,1396,-29428,3340,1008,2063,247,-221,-317,-10,1216,3658,43,41,835,1740,1863,2106,2244,2028,1788,1866,2013
424509,-30444,1452,-29363,3405,1009,2224,254,-211,-320,92,1246,3996,54,43,832,1740,1863,2106,2244,2028,1788,1866,2013
425510,-30368,1516,-29298,3470,847,2126,257,-216,-327,239,1323,3629,59,35,834,1740,1863,2106,2244,2028,1788,1866,2013
426511,-30300,1584,-29233,3535,943,2073,279,-244,-313,25,1284,3916,54,49,833,1740,1863,2106,2244,2028,1788,1866,2013
427512,-30232,1640,-29168,3600,939,2235,289,-255,-313,109,1335,3848,58,47,834,1750,1874,2123,2261,2073,1827,1897,2050
428513,-30164,1716,-29103,3665,937,1972,303,-250,-316,118,1257,3780,40,48,833,1750,1874,2123,2261,2073,1827,1897,2050
429514,-30108,1784,-29038,3730,1098,2069,322,-236,-331,67,1333,4054,38,47,833,1750,1874,2123,2261,2073,1827,1897,2050
430515,-30036,1844,-28973,3795,890,2176,325,-252,-338,61,1303,3866,42,37,836,1750,1874,2123,2261,2073,1827,1897,2050
431516,-29964,1896,-28908,3860,882,2292,345,-275,-345,195,1327,4025,56,48,834,1750,1874,2123,2261,2073,1827,1897,2050
432517,-29904,1960,-28843,3925,1038,2144,337,-291,-336,43,1213,4063,39,36,834,1758,1882,2135,2270,2085,1834,1904,2056
433518,-29832,2036,-28778,3990,880,1982,327,-282,-339,86,1414,4028,52,38,833,1758,1882,2135,2270,2085,1834,1904,2056
434519,-29764,2100,-28713,4055,926,2134,317,-285,-338,129,1511,3952,48,42,833,1758,1882,2135,2270,2085,1834,1904,2056
435520,-29704,2156,-28648,4120,1034,2245,312,-281,-332,164,1420,4044,52,52,836,1758,1882,2135,2270,2085,1834,1904,2056
436521,-29640,2232,-28583,4185,985,1983,285,-286,-330,329,1501,4002,40,44,835,1758,1882,2135,2270,2085,1834,1904,2056
437522,-29572,2296,-28518,4250,931,2135,258,-291,-326,148,1668,4169,57,59,833,1758,1882,2135,2270,2085,1834,1904,2056
438523,-29500,2364,-28453,4315,874,2082,227,-277,-330,35,1585,4109,40,50,835,1763,1890,2139,2278,2088,1839,1912,2068
439524,-29432,2440,-28388,4380,920,1969,210,-268,-342,189,1540,4232,47,48,835,1763,1890,2139,2278,2088,1839,1912,2068
440525,-29356,2528,-28323,4445,807,1792,197,-276,-340,99,1429,4213,58,44,835,1763,1890,2139,2278,2088,1839,1912,2068
441526,-29284,2596,-28258,4510,849,2039,204,-304,-332,130,1499,3900,43,55,836,1763,1890,2139,2278,2088,1839,1912,2068
442527,-29228,2676,-28193,4575,1060,1872,216,-331,-329,-26,1680,4233,48,50,838,1763,1890,2139,2278,2088,1839,1912,2068
443528,-29148,2740,-28128,4640,743,2073,224,-362,-344,-80,1376,3901,55,50,835,1760,1884,2139,2267,2121,1867,1929,2095
444529,-29084,2812,-28063,4705,944,1965,229,-409,-365,-156,1495,4331,45,46,836,1760,1884,2139,2267,2121,1867,1929,2095
445530,-29004,2876,-27998,4770,727,2068,223,-464,-358,-83,1327,4075,37,48,836,1760,1884,2139,2267,2121,1867,1929,2095
446531,-28940,2948,-27933,4835,928,1960,220,-467,-350,-106,1398,4401,39,47,835,1760,1884,2139,2267,2121,1867,1929,2095
447532,-28884,3004,-27868,4900,1039,2171,229,-489,-352,104,1510,3937,53,44,836,1760,1884,2139,2267,2121,1867,1929,2095
448533,-28816,3056,-27803,4965,886,2238,245,-507,-359,116,1420,4092,39,31,835,1760,1884,2139,2267,2121,1867,1929,2095
449534,-28732,3128,-27604,5164,1513,2831,248,-537,-351,-126,1515,4080,46,43,833,1747,1878,2140,2256,2141,1876,1936,2106
450535,-28660,3196,-27539,5229,1655,2877,239,-574,-339,-38,1481,3960,46,23,833,1747,1878,2140,2256,2141,1876,1936,2106
451536,-28576,3284,-27474,5294,1483,2600,226,-577,-319,-56,1459,4273,67,34,824,1747,1878,2140,2256,2141,1876,1936,2106
452537,-28480,3376,-27409,5359,1295,2518,201,-549,-317,66,1712,4135,62,60,823,1747,1878,2140,2256,2141,1876,1936,2106
453538,-28400,3460,-27344,5424,1478,2596,170,-512,-298,223,1753,4106,61,65,828,1747,1878,2140,2256,2141,1876,1936,2106
454539,-28284,3556,-27279,5489,965,2408,125,-487,-292,225,1765,4275,80,55,830,1743,1879,2129,2223,2095,1851,1917,2083
455540,-28188,3636,-27214,5554,1178,2591,88,-475,-294,43,1737,4308,70,71,828,1743,1879,2129,2223,2095,1851,1917,2083
456541,-28076,3796,-27149,5619,921,1476,53,-482,-283,94,1775,4317,83,63,833,1743,1879,2129,2223,2095,1851,1917,2083
457542,-27960,3948,-27084,5684,809,1471,9,-493,-282,226,1868,4543,70,80,830,1743,1879,2129,2223,2095,1851,1917,2083
458543,-27844,4052,-27019,5749,748,2023,19,-485,-268,-187,2026,4388,79,69,840,1743,1879,2129,2223,2095,1851,1917,2083
459544,-27732,4176,-26954,5814,740,1702,4,-516,-272,47,1761,3876,78,77,841,1743,1879,2129,2223,2095,1851,1917,2083
460545,-27624,4288,-26889,5879,738,1796,23,-581,-327,-148,1568,4273,67,74,837,1738,1863,2113,2231,2122,1863,1922,2093
461546,-27512,4396,-26824,5944,630,1793,33,-717,-373,-832,2024,4153,80,80,839,1738,1863,2113,2231,2122,1863,1922,2093
462547,-27424,4512,-26759,6009,903,1632,27,-831,-364,-257,1874,3835,70,63,838,1738,1863,2113,2231,2122,1863,1922,2093
463548,-27312,4608,-26694,6074,546,1844,35,-829,-352,349,1580,4377,76,63,839,1738,1863,2113,2231,2122,1863,1922,2093
464549,-27200,4708,-26629,6139,489,1752,47,-889,-336,-241,1891,3809,73,75,839,1738,1863,2113,2231,2122,1863,1922,2093
465550,-27092,4800,-26564,6204,486,1819,40,-922,-328,-426,1770,4030,76,60,840,1740,1868,2140,2256,2148,1884,1940,2121
466551,-26996,4892,-26499,6269,599,1787,28,-868,-327,280,1815,4336,66,68,840,1740,1868,2140,2256,2148,1884,1940,2121
467552,-26892,4988,-26434,6334,452,1700,8,-825,-292,524,1856,3890,57,56,839,1740,1868,2140,2256,2148,1884,1940,2121
468553,-26804,5096,-26369,6399,624,1498,-21,-802,-265,14,1927,4186,52,64,841,1740,1868,2140,2256,2148,1884,1940,2121
469554,-26736,5200,-26304,6464,870,1500,-45,-824,-252,132,2188,3819,62,59,842,1740,1868,2140,2256,2148,1884,1940,2121
470555,-26652,5296,-26239,6529,647,1564,-12,-817,-263,667,1944,4216,68,60,839,1740,1868,2140,2256,2148,1884,1940,2121
471556,-26548,5380,-26174,6594,349,1690,40,-798,-296,534,1955,4128,54,60,841,1767,1899,2161,2273,2133,1867,1927,2096
472557,-26452,5480,-26109,6659,412,1449,33,-808,-308,-186,1859,3871,53,62,841,1767,1899,2161,2273,2133,1867,1927,2096
473558,-26364,5568,-26044,6724,484,1571,15,-888,-255,-546,1807,3675,47,51,843,1767,1899,2161,2273,2133,1867,1927,2096
474559,-26284,5660,-25979,6789,566,1489,-19,-1038,-195,-627,2033,3667,58,54,842,1767,1899,2161,2273,2133,1867,1927,2096
475560,-26212,5788,-25914,6854,657,962,-6,-1242,-165,-113,1897,3789,48,49,842,1767,1899,2161,2273,2133,1867,1927,2096
476561,-26116,5872,-25849,6919,319,1490,-10,-1432,-133,809,1808,3575,61,65,845,1769,1897,2151,2269,2078,1821,1886,2043
477562,-26040,5956,-25784,6984,556,1466,-161,-1436,-249,-253,1321,3904,46,53,842,1769,1897,2151,2269,2078,1821,1886,2043
478563,-25964,6028,-25719,7049,543,1608,-405,-1291,-443,-1440,1558,4231,53,64,841,1769,1897,2151,2269,2078,1821,1886,2043
479564,-25888,6108,-25654,7114,529,1491,-673,-1090,-526,158,1949,3775,39,58,841,1769,1897,2151,2269,2078,1821,1886,2043
480565,-25808,6188,-25589,7179,461,1472,-837,-892,-470,1659,1326,3644,41,57,842,1769,1897,2151,2269,2078,1821,1886,2043
481566,-25736,6256,-25524,7244,553,1620,-840,-895,-397,886,1338,3771,41,72,843,1769,1897,2151,2269,2078,1821,1886,2043
482567,-25660,6360,-25459,7309,490,1122,-714,-1032,-380,-744,1269,4087,49,61,841,1755,1881,2115,2205,2119,1870,1933,2132
483568,-25592,6480,-25394,7374,586,855,-517,-1095,-391,-162,928,3799,43,76,845,1755,1881,2115,2205,2119,1870,1933,2132
484569,-25516,6604,-25329,7439,473,734,-327,-1068,-319,655,774,3583,48,68,846,1755,1881,2115,2205,2119,1870,1933,2132
485570,-25448,6712,-25264,7504,569,881,-225,-1007,-210,519,1069,3371,55,67,847,1755,1881,2115,2205,2119,1870,1933,2132
486571,-25364,6816,-25199,7569,346,884,-187,-963,-152,-93,980,2911,46,62,846,1755,1881,2115,2205,2119,1870,1933,2132
487572,-25312,6904,-25134,7634,762,1056,-189,-974,-138,-504,1303,2889,56,53,847,1638,1778,2042,2134,2182,1905,1937,2092
488573,-25244,6972,-25069,7699,558,1303,-198,-1038,-116,-707,1658,2853,46,61,844,1638,1778,2042,2134,2182,1905,1937,2092
489574,-25156,7052,-25004,7764,280,1135,-213,-1144,-113,-428,2024,2809,48,59,844,1638,1778,2042,2134,2182,1905,1937,2092
490575,-25076,7136,-24939,7829,362,1061,-215,-1248,-118,-399,1942,2824,59,62,846,1638,1778,2042,2134,2182,1905,1937,2092
491576,-24992,7212,-24874,7894,289,1149,-235,-1370,-124,-476,1978,2821,43,51,846,1638,1778,2042,2134,2182,1905,1937,2092
492577,-24924,7300,-24809,7959,485,971,-242,-1420,-118,-421,2135,2983,51,63,845,1638,1778,2042,2134,2182,1905,1937,2092
493578,-24844,7360,-24744,8024,317,1327,-261,-1395,-115,286,2115,2914,40,54,846,1656,1777,2024,2156,2050,1798,1853,1966
494579,-24756,7436,-24679,8089,188,1114,-287,-1293,-107,1029,1889,2902,52,49,844,1656,1777,2024,2156,2050,1798,1853,1966
495580,-24684,7524,-24614,8154,380,937,-328,-1209,-100,1087,1779,2984,56,53,845,1656,1777,2024,2156,2050,1798,1853,1966
496581,-24620,7620,-24549,8219,481,799,-378,-1124,-106,847,1770,2855,56,54,847,1656,1777,2024,2156,2050,1798,1853,1966
497582,-24520,7708,-24484,8284,-12,871,-398,-993,-100,975,1737,2902,39,49,847,1656,1777,2024,2156,2050,1798,1853,1966
498583,-24472,7788,-24419,8349,659,952,-410,-902,-101,1257,1563,2682,41,47,848,1704,1812,2043,2187,1935,1708,1778,1893
499584,-24404,7864,-24354,8414,406,989,-431,-835,-123,808,1069,2675,49,50,845,1704,1812,2043,2187,1935,1708,1778,1893
500585,-24332,7948,-24289,8479,347,867,-430,-820,-141,133,1135,2706,39,56,846,1704,1812,2043,2187,1935,1708,1778,1893
501586,-24256,8028,-24224,8544,284,898,-433,-799,-133,-84,811,2303,53,52,847,1704,1812,2043,2187,1935,1708,1778,1893
502587,-24164,8064,-24159,8609,51,1484,-428,-768,-98,323,701,2375,55,45,847,1704,1812,2043,2187,1935,1708,1778,1893
503588,-24096,8140,-24094,8674,347,970,-419,-763,-56,44,574,1905,42,49,844,1704,1812,2043,2187,1935,1708,1778,1893
504589,-24024,8216,-24029,8739,288,957,-402,-791,-17,-393,509,1960,41,54,847,1720,1824,2070,2203,1931,1713,1771,1893
505590,-23940,8300,-23964,8804,115,835,-386,-787,41,-458,786,2076,53,56,847,1720,1824,2070,2203,1931,1713,1771,1893
506591,-23856,8380,-23899,8869,92,866,-369,-766,106,-215,627,1908,54,45,847,1720,1824,2070,2203,1931,1713,1771,1893
507594,-23772,8436,-23834,8934,69,1177,-369,-710,169,-138,619,2057,41,48,848,1720,1824,2070,2203,1931,1713,1771,1893
508593,-23704,8492,-23769,8999,265,1188,-374,-675,220,-280,779,2011,39,45,846,1720,1824,2070,2203,1931,1713,1771,1893
509594,-23648,8564,-23704,9064,426,980,-376,-611,267,-195,1053,2026,53,53,846,1706,1821,2063,2195,1939,1719,1785,1899
510595,-23544,8644,-23639,9129,-221,863,-375,-539,322,216,1163,2089,40,51,846,1706,1821,2063,2195,1939,1719,1785,1899
511596,-23472,8696,-23574,9194,170,1228,-374,-446,372,628,1182,2116,43,49,839,1706,1821,2063,2195,1939,1719,1785,1899
512597,-23400,8768,-23509,9259,161,970,-375,-376,409,440,1243,1945,40,43,845,1706,1821,2063,2195,1939,1719,1785,1899
513598,-23320,8840,-23444,9324,43,961,-378,-300,418,289,1430,1981,41,53,847,1706,1821,2063,2195,1939,1719,1785,1899
514599,-23240,8924,-23379,9389,25,788,-383,-232,430,606,1449,2050,48,49,847,1677,1782,1983,2116,1955,1735,1785,1899
515600,-23168,9004,-23314,9454,116,821,-388,-167,457,886,1391,2063,40,60,848,1677,1782,1983,2116,1955,1735,1808,1918
516601,-23092,9084,-23249,9519,53,803,-358,-81,490,1011,1317,2014,54,59,848,1677,1782,1983,2116,1955,1735,1808,1918
517602,-23016,9176,-23184,9584,39,620,-320,-10,490,810,1342,1792,40,57,849,1677,1782,1983,2116,1955,1735,1808,1918
518603,-22932,9260,-23119,9649,-84,696,-273,74,476,684,1219,2241,48,60,850,1677,1782,1983,2116,1955,1735,1808,1918
519604,-22832,9340,-23054,9714,-326,728,-231,148,483,837,1064,2225,52,59,847,1677,1782,1983,2116,1955,1735,1808,1918
520605,-22732,9412,-22989,9779,-369,819,-201,200,498,905,960,2060,47,47,848,1623,1721,1943,2081,1975,1748,1804,1908
521606,-22596,9492,-22924,9844,-906,701,-171,239,517,737,860,2275,42,58,849,1623,1721,1943,2081,1975,1748,1804,1908
522607,-22512,9572,-22859,9909,-279,684,-163,287,541,459,831,2313,43,57,849,1623,1721,1943,2081,1975,1748,1804,1908
523608,-22448,9656,-22794,9974,-29,611,-147,324,566,483,769,2103,36,52,849,1623,1721,1943,2081,1975,1748,1804,1908
524609,-22372,9724,-22729,10039,-192,807,-128,362,586,383,778,1980,35,60,850,1623,1721,1943,2081,1975,1748,1804,1908
525610,-22300,9808,-22664,10104,-151,584,-110,392,611,297,643,2203,50,55,841,1613,1714,1959,2105,1968,1744,1793,1901
526611,-22228,9892,-22599,10169,-159,561,-101,449,650,260,594,2274,51,54,844,1613,1714,1959,2105,1968,1744,1793,1901
527612,-22188,9956,-22534,10234,271,812,-119,493,698,420,649,2102,38,58,844,1613,1714,1959,2105,1968,1744,1793,1901
528613,-22132,10032,-22469,10299,82,648,-136,545,735,507,663,2031,41,54,847,1613,1714,1959,2105,1968,1744,1793,1901
529614,-22056,10112,-22404,10364,-181,580,-173,599,768,421,630,1976,51,49,848,1613,1714,1959,2105,1968,1744,1793,1901
530615,-21980,10200,-22339,10429,-196,452,-223,680,811,480,624,2125,53,54,843,1613,1714,1959,2105,1968,1744,1793,1901
531616,-21916,10284,-22274,10494,-45,480,-283,789,877,519,641,2013,37,45,843,1648,1761,2008,2160,1958,1740,1800,1904
532617,-21864,10376,-22209,10559,121,347,-325,904,924,828,775,1862,53,42,850,1648,1761,2008,2160,1958,1740,1800,1904
533618,-21780,10460,-22144,10624,-302,424,-375,1019,949,760,627,2100,45,47,851,1648,1761,2008,2160,1958,1740,1800,1904
534619,-21724,10532,-22079,10689,59,565,-424,1124,974,780,714,2116,50,43,851,1648,1761,2008,2160,1958,1740,1800,1904
535620,-21652,10608,-22014,10754,-149,502,-470,1231,992,692,735,2163,36,39,850,1648,1761,2008,2160,1958,1740,1800,1904
536621,-21588,10688,-21949,10819,-48,433,-529,1327,999,665,633,2166,47,38,845,1675,1794,2032,2163,1972,1768,1820,1962
537622,-21500,10752,-21884,10884,-377,635,-576,1419,1003,768,821,2260,38,46,851,1675,1794,2032,2163,1972,1768,1820,1962
538623,-21452,10828,-21819,10949,144,471,-628,1474,1010,635,760,2150,35,53,850,1675,1794,2032,2163,1972,1768,1820,1962
539624,-21380,10908,-21754,11014,-165,403,-687,1520,991,560,676,2215,34,44,850,1675,1794,2032,2163,1972,1768,1820,1962
540625,-21292,10980,-21689,11079,-393,494,-753,1538,976,498,741,2348,43,49,845,1675,1794,2032,2163,1972,1768,1820,1962
541626,-21232,11056,-21624,11144,-37,431,-802,1555,975,477,709,2380,41,41,847,1675,1794,2032,2163,1972,1768,1820,1962
542627,-21160,11124,-21559,11209,-196,527,-852,1617,959,643,760,2548,36,54,851,1629,1723,1983,2087,2083,1839,1867,2006
543628,-21096,11192,-21494,11274,-94,524,-893,1640,951,685,665,2390,49,54,843,1629,1723,1983,2087,2083,1839,1867,2006
544629,-21028,11280,-21429,11339,-149,246,-919,1684,943,765,656,2920,47,59,848,1629,1723,1983,2087,2083,1839,1867,2006
545630,-20964,11348,-21364,11404,-98,492,-949,1724,946,749,641,2563,37,59,846,1629,1723,1983,2087,2083,1839,1867,2006
546631,-20908,11428,-21299,11469,13,324,-966,1764,939,922,717,2919,35,58,847,1629,1723,1983,2087,2083,1839,1867,2006
547632,-20840,11508,-21234,11534,-140,305,-994,1811,958,803,594,2917,40,46,851,1542,1643,1919,2035,2171,1908,1946,2114
548633,-20764,11616,-21169,11599,-254,-97,-1017,1830,997,797,697,3217,51,59,846,1542,1643,1919,2035,2171,1908,1946,2114
549634,-20692,11728,-21104,11664,-212,-205,-1035,1801,1039,564,572,2959,33,57,848,1542,1643,1919,2035,2171,1908,1946,2114
550635,-20624,11848,-21039,11729,-167,-372,-1052,1761,1058,457,502,3112,50,50,851,1542,1643,1919,2035,2171,1908,1946,2114
551636,-20556,12052,-20974,11794,-171,-1591,-1031,1699,1076,382,598,3710,52,59,844,1542,1643,1919,2035,2171,1908,1946,2114
552637,-20484,12128,-20909,11859,-229,-5,-1018,1626,1098,6,546,3518,52,46,836,1542,1643,1919,2035,2171,1908,1946,2114
553638,-20408,12188,-20844,11924,-293,201,-1003,1540,1121,521,751,3376,35,26,847,1567,1727,1983,2048,2204,1951,1983,2175
554639,-20352,12256,-20779,11989,-32,98,-1053,1384,1119,113,513,3761,47,39,851,1567,1727,1983,2048,2204,1951,1983,2175
555640,-20276,12312,-20714,12054,-295,259,-1093,1273,1119,261,649,3285,43,32,851,1567,1727,1983,2048,2204,1951,1983,2175
556641,-20216,12376,-20649,12119,-90,160,-1130,1209,1124,679,924,3654,41,34,851,1567,1727,1983,2048,2204,1951,1983,2175
557643,-20132,12448,-20584,12184,-413,50,-1195,1176,1137,1017,801,3484,50,42,849,1567,1727,1983,2048,2204,1951,1983,2175
558643,-20048,12496,-20519,12249,-436,371,-1259,1138,1128,1432,857,3806,40,48,852,1650,1811,2045,2161,2155,1877,1963,2137
559644,-19984,12576,-20454,12314,-185,-47,-1329,1045,1118,858,401,3381,34,35,850,1650,1811,2045,2161,2155,1877,1963,2137
560645,-19928,12640,-20389,12379,-74,154,-1399,902,1075,377,365,3974,52,36,845,1650,1811,2045,2161,2155,1877,1963,2137
561646,-19872,12720,-20324,12444,-63,-64,-1466,764,1040,207,206,4155,52,50,851,1650,1811,2045,2161,2155,1877,1963,2137
562647,-19780,12792,-20259,12509,-547,27,-1534,605,1009,36,0,4210,31,50,851,1650,1811,2045,2161,2155,1877,1963,2137
563648,-19696,12852,-20194,12574,-470,183,-1584,434,955,-89,13,4625,42,39,851,1650,1811,2045,2161,2155,1877,1963,2137
564649,-19632,12916,-20129,12639,-219,134,-1654,256,928,-298,-591,4626,47,37,851,1786,1962,2154,2247,2147,1868,1983,2191
565650,-19560,13000,-20064,12704,-328,-139,-1702,76,899,122,-437,4761,38,52,844,1786,1962,2154,2247,2147,1868,1983,2191
566651,-19496,13080,-19999,12769,-227,-107,-1714,-155,867,-134,-655,4147,49,51,852,1786,1962,2154,2247,2147,1868,1983,2191
567652,-19424,13160,-19934,12834,-336,-126,-1708,-342,841,-499,-939,5054,48,48,852,1786,1962,2154,2247,2147,1868,1983,2191
568653,-19352,13236,-19869,12899,-345,-90,-1692,-549,837,-446,-842,4386,29,46,852,1786,1962,2154,2247,2147,1868,1983,2191
569654,-19272,13328,-19804,12964,-463,-323,-1688,-755,877,-644,-1435,4201,29,41,852,1865,2041,2227,2336,2219,1920,2045,2283
570655,-19200,13404,-19739,13029,-371,-136,-1677,-870,916,-217,-1144,4915,47,45,846,1865,2041,2227,2336,2219,1920,2045,2283
571656,-19168,13484,-19674,13094,169,-205,-1655,-982,990,-298,-1143,4537,38,43,852,1865,2041,2227,2336,2219,1920,2045,2283
572657,-19100,13564,-19609,13159,-286,-223,-1626,-1065,1068,-268,-926,5023,32,40,852,1865,2041,2227,2336,2219,1920,2045,2283
573658,-19012,13640,-19544,13224,-564,-186,-1617,-1103,1151,-197,-534,4810,30,53,851,1865,2041,2227,2336,2219,1920,2045,2283
574659,-18936,13716,-19479,13289,-427,-201,-1614,-1135,1245,54,-800,4874,32,38,849,1865,2041,2227,2336,2219,1920,2045,2283
575660,-18876,13780,-19414,13354,-221,-50,-1624,-1088,1328,166,-529,5068,41,49,852,1899,2100,2253,2343,2223,1935,2077,2230
576661,-18808,13844,-19349,13419,-325,-48,-1637,-1152,1393,278,-382,4112,29,39,852,1899,2100,2253,2343,2223,1935,2077,2230
577662,-18760,13916,-19284,13484,-55,-157,-1697,-1293,1389,70,-1021,4379,41,45,852,1899,2100,2253,2343,2223,1935,2077,2230
578663,-18676,13992,-19219,13549,-528,-220,-1777,-1416,1338,-262,-646,4895,32,50,852,1899,2100,2253,2343,2223,1935,2077,2230
579664,-18608,14056,-19154,13614,-332,-69,-1854,-1509,1319,-673,-1325,5106,33,46,851,1899,2100,2253,2343,2223,1935,2077,2230
580665,-18544,14128,-19089,13679,-281,-179,-1937,-1532,1275,-192,-1431,5927,28,50,851,1828,1960,2128,2267,2121,1862,1946,2050
581666,-18500,14196,-19024,13744,-5,-132,-1993,-1504,1212,-386,-1240,6381,40,43,852,1828,1960,2128,2267,2121,1862,1946,2050
582667,-18468,14280,-18959,13809,184,-355,-2035,-1569,1151,-431,-1781,6638,31,36,852,1828,1960,2128,2267,2121,1862,1946,2050
583668,-18368,14348,-18894,13874,-709,-159,-2034,-1636,1099,-151,-1944,7309,42,40,851,1828,1960,2128,2267,2121,1862,1946,2050
584669,-18312,14420,-18829,13939,-148,-218,-1978,-1649,1038,-435,-2100,7864,41,43,852,1828,1960,2128,2267,2121,1862,1946,2050
585670,-18252,14480,-18764,14004,-191,-63,-1911,-1565,1027,-189,-3038,8390,37,45,847,1828,1960,2128,2267,2121,1862,1946,2050
586671,-18200,14560,-18699,14069,-76,-331,-1791,-1418,1017,237,-2869,8460,34,39,845,1632,1723,1933,2056,2102,1866,1909,2029
587672,-18152,14612,-18634,14134,-6,35,-1672,-1141,998,414,-3182,8919,42,37,850,1632,1723,1933,2056,2102,1866,1909,2029
588673,-18092,14680,-18569,14199,-150,-169,-1533,-825,1013,1115,-3336,8960,25,34,853,1632,1723,1933,2056,2102,1866,1909,2029
589674,-18044,14732,-18504,14264,21,47,-1410,-606,1069,975,-2958,8270,22,31,847,1632,1723,1933,2056,2102,1866,1909,2029
590675,-17988,14788,-18439,14329,-68,8,-1307,-342,1146,587,-2904,8417,37,45,853,1632,1723,1933,2056,2102,1866,1909,2029
591676,-17936,14840,-18374,14394,-2,73,-1280,-200,1237,186,-2502,6907,28,34,851,1600,1697,1960,2160,2128,1920,2048,2020
592677,-17896,14908,-18309,14459,177,-131,-1293,-105,1322,-495,-2115,6303,29,28,852,1600,1697,1960,2160,2128,1920,2048,2020
593678,-17832,14936,-18244,14524,-121,415,-1336,8,1421,-414,-2024,5809,33,43,852,1600,1697,1960,2160,2128,1920,2048,2020
594679,-17804,14992,-18179,14589,374,76,-1370,118,1503,159,-1740,5695,26,32,848,1600,1697,1960,2160,2128,1920,2048,2020
595680,-17756,15044,-18114,14654,144,141,-1415,130,1549,228,-1775,5232,36,43,851,1600,1697,1960,2160,2128,1920,2048,2020
596681,-17700,15120,-18049,14719,55,-172,-1444,100,1570,-150,-1643,4954,19,43,852,1600,1697,1960,2160,2128,1920,2048,2020
597682,-17648,15160,-17984,14784,121,308,-1463,125,1567,169,-1562,5645,22,38,851,1753,1854,2097,2364,2093,1903,1966,1986
598683,-17620,15232,-17919,14849,467,-101,-1469,226,1560,768,-1934,5662,29,32,852,1753,1854,2097,2364,2093,1903,1966,1986
599684,-17564,15272,-17854,14914,126,329,-1453,306,1497,1423,-1699,5784,32,28,851,1753,1854,2097,2364,2093,1903,1966,1986
600685,-17536,15304,-17789,14979,522,470,-1435,424,1427,1220,-2028,5849,25,29,851,1753,1854,2097,2364,2093,1903,1966,1986
601686,-17480,15312,-17724,15044,183,839,-1399,532,1340,1126,-2259,5873,24,32,849,1753,1854,2097,2364,2093,1903,1966,1986
602687,-17440,15348,-17659,15109,413,525,-1314,600,1241,1169,-2598,6152,20,33,849,1709,1798,1995,2160,1963,1735,1803,1887
603688,-17388,15416,-17594,15174,279,121,-1192,599,1165,2104,-2905,6315,26,37,849,1709,1798,1995,2160,1963,1735,1803,1887
604689,-17344,15500,-17529,15239,405,-102,-1040,627,1086,2363,-3219,6532,19,37,852,1709,1798,1995,2160,1963,1735,1803,1887
605690,-17284,15568,-17464,15304,211,93,-849,677,1010,2184,-3201,6449,36,39,851,1709,1798,1995,2160,1963,1735,1803,1887
606691,-17248,15644,-17399,15369,546,-20,-674,737,978,1252,-3296,6708,29,49,852,1709,1798,1995,2160,1963,1735,1803,1887
607692,-17208,15704,-17334,15434,527,186,-515,778,956,1296,-2998,6247,19,35,851,1709,1798,1995,2160,1963,1735,1803,1887
608693,-17156,15756,-17269,15499,393,302,-413,870,928,1579,-2698,6547,39,41,850,1554,1672,1846,1950,1841,1609,1715,1819
609694,-17100,15804,-17204,15564,354,373,-361,1001,925,1731,-2121,6150,29,43,851,1554,1672,1846,1950,1841,1609,1715,1819
610695,-17044,15864,-17139,15629,365,229,-341,1033,963,1476,-1623,5096,41,35,851,1554,1672,1846,1950,1841,1609,1715,1819
611696,-16996,15900,-17074,15694,485,564,-375,962,990,735,-1094,4297,37,38,851,1554,1672,1846,1950,1841,1609,1715,1819
612697,-16924,15976,-17009,15759,177,51,-416,810,1003,152,-844,3512,42,46,850,1554,1672,1846,1950,1841,1609,1715,1819
613698,-16884,16024,-16944,15824,607,421,-478,647,1044,-495,-859,2835,30,39,852,1615,1782,1933,2110,1826,1626,1788,1878
614699,-16820,16096,-16879,15889,308,113,-530,496,1097,36,-472,2020,41,42,849,1615,1782,1933,2110,1826,1626,1788,1878
615700,-16764,16160,-16814,15954,419,214,-562,362,1148,-233,-443,1874,43,41,852,1615,1782,1933,2110,1826,1626,1788,1878
616701,-16736,16216,-16749,16019,814,324,-574,254,1203,-603,-504,1378,40,40,851,1615,1782,1933,2110,1826,1626,1788,1878
617702,-16640,16292,-16684,16084,-74,61,-549,157,1248,-631,-508,1428,29,42,848,1615,1782,1933,2110,1826,1626,1788,1878
618703,-16592,16352,-16619,16149,547,267,-492,16,1281,-574,-831,1391,31,56,851,1615,1782,1933,2110,1826,1626,1788,1878
619704,-16536,16412,-16554,16214,458,273,-389,-77,1283,-61,-1128,1611,24,45,850,1755,1919,2067,2220,1982,1748,1880,2009
620705,-16472,16492,-16489,16279,359,4,-263,-77,1255,411,-1400,2087,34,45,851,1755,1919,2067,2220,1982,1748,1880,2009
621706,-16412,16548,-16424,16344,415,315,-149,-137,1205,997,-1578,1924,48,53,852,1755,1919,2067,2220,1982,1748,1880,2009
622707,-16348,16612,-16359,16409,366,217,-47,-195,1098,1057,-1607,1931,49,37,851,1755,1919,2067,2220,1982,1748,1880,2009
623708,-16280,16672,-16294,16474,312,273,33,-239,985,823,-1617,2353,38,52,851,1755,1919,2067,2220,1982,1748,1880,2009
624709,-16200,16748,-16229,16539,144,59,112,-279,918,1024,-1783,2630,40,43,851,1673,1806,1978,2060,1941,1677,1763,1895
625710,-16132,16820,-16164,16604,290,101,189,-308,864,1242,-1838,2632,35,51,852,1673,1806,1978,2060,1941,1677,1763,1895
626711,-16084,16892,-16099,16669,561,92,264,-302,780,1249,-1587,3122,27,38,852,1673,1806,1978,2060,1941,1677,1763,1895
627712,-16036,16972,-16034,16734,582,-26,327,-249,711,936,-1446,3309,33,52,851,1673,1806,1978,2060,1941,1677,1763,1895
628713,-15944,17028,-15969,16799,-1,284,368,-272,679,689,-1265,2905,43,41,851,1673,1806,1978,2060,1941,1677,1763,1895
629714,-15880,17092,-15904,16864,350,185,402,-284,643,482,-883,3279,34,49,852,1673,1806,1978,2060,1941,1677,1763,1895
630715,-15828,17144,-15839,16929,516,351,403,-326,643,197,-908,2786,36,41,851,1576,1693,1866,1980,1808,1587,1693,1783
631716,-15760,17220,-15774,16994,312,38,388,-368,657,-69,-609,2382,36,41,849,1576,1693,1866,1980,1808,1587,1693,1783
632717,-15696,17284,-15709,17059,364,189,342,-476,704,-504,-303,1981,49,37,852,1576,1693,1866,1980,1808,1587,1693,1783
633718,-15624,17344,-15644,17124,255,245,289,-579,740,-622,-217,1794,33,39,851,1576,1693,1866,1980,1808,1587,1693,1783
634719,-15560,17392,-15579,17189,356,416,210,-653,801,-1055,-273,1657,35,39,852,1576,1693,1866,1980,1808,1587,1693,1783
635720,-15504,17476,-15514,17254,467,-57,148,-686,870,-654,-241,1513,33,47,851,1615,1742,1919,2110,1836,1655,1775,1853
636721,-15432,17532,-15449,17319,259,303,92,-681,954,-343,-395,1704,39,46,851,1615,1742,1919,2110,1836,1655,1775,1853
637722,-15372,17596,-15384,17384,415,205,69,-657,1010,-125,-434,1932,50,45,851,1615,1742,1919,2110,1836,1655,1775,1853
638723,-15312,17648,-15319,17449,421,371,85,-613,1061,-206,-807,1940,48,48,851,1615,1742,1919,2110,1836,1655,1775,1853
639724,-15268,17708,-15254,17514,647,276,128,-528,1088,300,-1124,2463,31,46,850,1615,1742,1919,2110,1836,1655,1775,1853
640725,-15196,17784,-15189,17579,288,62,202,-415,1097,606,-1360,2678,45,49,849,1615,1742,1919,2110,1836,1655,1775,1853
641726,-15132,17848,-15124,17644,389,213,297,-335,1110,473,-1719,2470,44,43,852,1666,1785,1988,2155,2012,1804,1880,1990
642727,-15072,17912,-15059,17709,445,215,414,-248,1081,711,-1692,3037,44,48,851,1666,1785,1988,2155,2012,1804,1880,1990
643728,-15000,17972,-14994,17774,287,271,536,-148,1026,649,-1869,3085,38,41,851,1666,1785,1988,2155,2012,1804,1880,1990
644729,-14944,18028,-14929,17839,498,332,647,-62,969,749,-2014,3232,47,39,851,1666,1785,1988,2155,2012,1804,1880,1990
645730,-14880,18100,-14864,17904,399,123,758,55,883,979,-1825,3786,45,45,850,1666,1785,1988,2155,2012,1804,1880,1990
646731,-14828,18164,-14799,17969,565,224,834,150,818,633,-1980,3566,36,43,852,1630,1736,1968,2108,2019,1780,1829,1921
647732,-14756,18240,-14734,18034,306,61,897,254,736,752,-1750,4043,35,46,850,1630,1736,1968,2108,2019,1780,1829,1921
648733,-14712,18292,-14669,18099,682,377,930,346,677,640,-1555,4029,36,38,851,1630,1736,1968,2108,2019,1780,1829,1921
649734,-14620,18344,-14604,18164,49,393,938,419,628,464,-1431,4151,30,32,849,1630,1736,1968,2108,2019,1780,1829,1921
650735,-14556,18404,-14539,18229,400,299,921,506,591,371,-1190,4421,48,35,852,1630,1736,1968,2108,2019,1780,1829,1921
651736,-14476,18484,-14474,18294,182,31,886,567,599,154,-1178,4139,41,32,851,1630,1736,1968,2108,2019,1780,1829,1921
652737,-14408,18544,-14409,18359,328,286,832,630,615,203,-891,4347,49,38,852,1629,1733,1939,2118,1877,1671,1762,1815
653738,-14344,18600,-14344,18424,380,347,766,685,647,17,-965,4170,33,43,851,1629,1733,1939,2118,1877,1671,1762,1815
654739,-14272,18656,-14279,18489,271,358,702,741,676,97,-983,4217,35,45,851,1629,1733,1939,2118,1877,1671,1762,1815
655740,-14208,18720,-14214,18554,372,259,643,794,724,105,-1047,4143,49,45,851,1629,1733,1939,2118,1877,1671,1762,1815
656741,-14148,18792,-14149,18619,428,150,600,847,779,195,-1123,4287,34,39,851,1629,1733,1939,2118,1877,1671,1762,1815
657742,-14088,18852,-14084,18684,434,306,586,912,822,451,-1189,4380,43,36,851,1654,1767,1952,2144,1891,1705,1811,1895
658743,-14040,18912,-14019,18749,605,313,600,934,864,460,-1457,4296,33,31,850,1654,1767,1952,2144,1891,1705,1811,1895
659744,-13964,18968,-13954,18814,242,374,633,972,890,601,-1561,4622,41,44,850,1654,1767,1952,2144,1891,1705,1811,1895
660745,-13896,19020,-13889,18879,338,439,698,1000,899,829,-1686,4609,46,41,851,1654,1767,1952,2144,1891,1705,1811,1895
661746,-13836,19076,-13824,18944,444,400,787,1012,889,1027,-1863,4596,41,37,851,1654,1767,1952,2144,1891,1705,1811,1895
662747,-13780,19132,-13759,19009,505,411,886,1002,880,980,-2015,4495,29,35,850,1654,1767,1952,2144,1891,1705,1811,1895
663748,-13728,19192,-13694,19074,571,367,995,978,852,1086,-1893,4495,46,41,850,1644,1764,1976,2128,2046,1826,1907,2032
664749,-13680,19240,-13629,19139,642,538,1104,953,809,1074,-1918,4454,37,37,850,1644,1764,1976,2128,2046,1826,1907,2032
665750,-13620,19296,-13564,19204,498,449,1205,908,752,1163,-1831,4515,28,32,848,1644,1764,1976,2128,2046,1826,1907,2032
666751,-13552,19348,-13499,19269,394,515,1292,876,694,1214,-1619,4448,35,45,850,1644,1764,1976,2128,2046,1826,1907,2032
667752,-13500,19404,-13434,19334,610,476,1363,833,631,1116,-1430,4512,28,46,850,1644,1764,1976,2128,2046,1826,1907,2032
668753,-13436,19480,-13369,19399,461,213,1394,801,571,908,-1356,4480,27,46,849,1657,1786,1999,2139,2066,1814,1903,2015
669754,-13376,19552,-13304,19464,517,254,1403,779,511,1085,-1067,4439,33,38,851,1657,1786,1999,2139,2066,1814,1903,2015
670755,-13324,19604,-13239,19529,633,520,1398,765,468,1119,-954,4412,49,39,850,1657,1786,1999,2139,2066,1814,1903,2015
671756,-13268,19672,-13174,19594,594,316,1367,737,450,852,-614,4452,41,35,849,1657,1786,1999,2139,2066,1814,1903,2015
672757,-13200,19732,-13109,19659,442,421,1326,693,441,442,-311,4662,30,42,850,1657,1786,1999,2139,2066,1814,1903,2015
673758,-13140,19796,-13044,19724,548,373,1260,605,455,5,-451,4500,33,41,850,1657,1786,1999,2139,2066,1814,1903,2015
674759,-13068,19868,-12979,19789,389,264,1184,503,450,44,-359,4827,40,33,850,1681,1817,1987,2133,1959,1722,1841,1948
675760,-13024,19928,-12914,19854,765,420,1091,372,467,-109,-334,4728,42,32,851,1681,1817,1987,2133,1959,1722,1841,1948
676761,-12964,19996,-12849,19919,571,317,1008,265,482,-10,-509,4937,47,40,848,1681,1817,1987,2133,1959,1722,1841,1948
677762,-12896,20048,-12784,19984,467,532,929,169,499,207,-683,4852,40,44,850,1681,1817,1987,2133,1959,1722,1841,1948
678763,-12828,20096,-12719,20049,464,603,884,120,487,413,-747,5106,36,34,850,1681,1817,1987,2133,1959,1722,1841,1948
679764,-12772,20160,-12654,20114,625,404,861,96,490,414,-1034,5148,49,44,849,1646,1796,1966,2076,2012,1772,1884,2059
680765,-12684,20224,-12589,20179,196,406,889,121,482,538,-1094,5275,40,37,849,1646,1796,1966,2076,2012,1772,1884,2059
681766,-12640,20264,-12524,20244,772,736,945,124,471,584,-1258,5168,40,46,851,1646,1796,1966,2076,2012,1772,1884,2059
682767,-12564,20320,-12459,20309,359,547,1023,112,457,564,-1313,5011,34,43,846,1646,1796,1966,2076,2012,1772,1884,2059
683768,-12492,20396,-12394,20374,400,284,1099,95,431,442,-1074,4955,44,40,850,1646,1796,1966,2076,2012,1772,1884,2059
684771,-12420,20448,-12329,20439,392,600,1157,89,397,271,-1049,4614,31,36,851,1646,1796,1966,2076,2012,1772,1884,2059
685770,-12360,20500,-12264,20504,548,615,1195,60,351,377,-652,4564,32,45,849,1599,1759,1970,2052,2188,1907,1992,2187
686771,-12300,20576,-12199,20569,554,302,1219,15,306,89,-419,4142,41,42,849,1599,1759,1970,2052,2188,1907,1992,2187
687772,-12236,20664,-12134,20634,505,124,1223,-35,257,-61,-195,4046,33,46,850,1599,1759,1970,2052,2188,1907,1992,2187
688773,-12176,20716,-12069,20699,561,590,1217,-93,202,-64,5,3917,40,38,851,1599,1759,1970,2052,2188,1907,1992,2187
689774,-12112,20776,-12004,20764,512,496,1178,-166,172,-212,314,3756,35,39,849,1599,1759,1970,2052,2188,1907,1992,2187
690775,-12032,20844,-11939,20829,294,392,1112,-263,146,-519,619,3645,43,45,849,1625,1792,1999,2107,2198,1906,1992,2144
691776,-11984,20912,-11874,20894,715,389,1039,-315,104,-563,778,3907,35,37,851,1625,1792,1999,2107,2198,1906,1992,2144
692777,-11916,20980,-11809,20959,461,385,950,-361,73,-351,690,3914,35,36,849,1625,1792,1999,2107,2198,1906,1992,2144
693778,-11844,21044,-11744,21024,403,436,868,-354,49,-131,634,4101,48,37,851,1625,1792,1999,2107,2198,1906,1992,2144
694779,-11776,21112,-11679,21089,449,382,781,-332,34,106,600,4196,50,39,850,1625,1792,1999,2107,2198,1906,1992,2144
695780,-11732,21188,-11614,21154,775,269,709,-290,21,197,522,4382,37,35,850,1625,1792,1999,2107,2198,1906,1992,2144
696781,-11652,21264,-11549,21219,306,256,649,-267,24,53,306,4376,37,36,849,1629,1783,1969,2067,2098,1826,1912,2068
697782,-11604,21316,-11484,21284,727,571,606,-243,21,119,131,4540,33,46,851,1629,1783,1969,2067,2098,1826,1912,2068
698783,-11536,21392,-11419,21349,473,258,581,-220,15,56,-69,4642,36,36,848,1629,1783,1969,2067,2098,1826,1912,2068
699784,-11468,21428,-11220,21548,634,957,563,-187,3,113,-296,4502,49,35,849,1629,1783,1969,2067,2098,1826,1912,2068
700785,-11400,21504,-11155,21613,631,444,560,-172,-13,108,-410,4579,49,46,847,1629,1783,1969,2067,2098,1826,1912,2068
701786,-11336,21576,-11090,21678,682,485,557,-185,-33,-38,-393,4313,37,40,849,1567,1712,1924,2009,2085,1825,1883,2051
702787,-11280,21644,-11025,21743,793,531,569,-217,-53,-206,-501,4055,40,46,849,1567,1712,1924,2009,2085,1825,1883,2051
703788,-11196,21716,-10960,21808,420,473,582,-226,-83,0,-295,4165,39,45,847,1567,1712,1924,2009,2085,1825,1883,2051
704789,-11104,21784,-10895,21873,287,519,604,-217,-114,125,-300,3901,42,46,850,1567,1712,1924,2009,2085,1825,1883,2051
705790,-11040,21848,-10830,21938,638,570,604,-220,-154,213,-212,3531,38,35,850,1567,1712,1924,2009,2085,1825,1883,2051
706791,-10960,21920,-10765,22003,420,462,583,-241,-184,124,46,3378,51,37,848,1567,1712,1924,2009,2085,1825,1883,2051
707792,-10884,21992,-10700,22068,456,453,517,-266,-212,148,497,3227,41,44,850,1588,1730,1978,2100,2104,1856,1914,2051
708793,-10808,22060,-10635,22133,443,500,439,-305,-238,-100,595,2802,39,44,850,1588,1730,1978,2100,2104,1856,1914,2051
709794,-10732,22152,-10570,22198,429,167,356,-321,-267,-71,823,3026,38,38,850,1588,1730,1978,2100,2104,1856,1914,2051
710795,-10652,22196,-10505,22263,361,792,270,-328,-285,54,968,2707,53,44,851,1588,1730,1978,2100,2104,1856,1914,2051
711796,-10588,22272,-10440,22328,562,379,193,-296,-297,239,1033,2886,52,43,849,1588,1730,1978,2100,2104,1856,1914,2051
712797,-10528,22356,-10375,22393,618,256,127,-243,-301,286,1024,2948,32,51,850,1675,1807,2035,2185,2089,1852,1926,2045
713798,-10456,22428,-10310,22458,461,397,73,-199,-301,170,1064,3014,49,39,850,1675,1807,2035,2185,2089,1852,1926,2045
714799,-10380,22500,-10245,22523,397,389,34,-158,-305,134,863,3276,45,42,850,1675,1807,2035,2185,2089,1852,1926,2045
715800,-10320,22592,-10180,22588,603,106,5,-97,-325,371,799,3347,47,40,850,1675,1807,2035,2185,2089,1852,1926,2045
716801,-10272,22644,-10115,22653,774,621,-4,-59,-323,312,625,3458,32,42,850,1675,1807,2035,2185,2089,1852,1926,2045
717802,-10184,22708,-10050,22718,246,473,4,-38,-325,199,577,3584,44,45,847,1675,1807,2035,2185,2089,1852,1926,2045
718803,-10128,22788,-9985,22783,657,254,33,-17,-323,-16,340,3777,35,45,851,1655,1777,1995,2120,2069,1822,1879,2010
719804,-10060,22860,-9920,22848,503,346,74,-16,-327,18,265,3980,47,48,850,1655,1777,1995,2120,2069,1822,1879,2010
720805,-10012,22928,-9855,22913,774,392,128,-20,-333,36,184,3838,46,49,850,1655,1777,1995,2120,2069,1822,1879,2010
721806,-9952,22992,-9790,22978,630,443,171,-21,-337,-108,109,3941,46,46,848,1655,1777,1995,2120,2069,1822,1879,2010
722807,-9896,23036,-9725,23043,691,719,215,-15,-355,55,307,3992,33,33,849,1655,1777,1995,2120,2069,1822,1879,2010
723808,-9820,23124,-9660,23108,428,141,238,-20,-375,129,381,3774,41,46,847,1601,1727,1959,2083,2027,1786,1840,1972
724809,-9760,23184,-9595,23173,634,497,242,18,-392,188,504,3882,35,45,851,1601,1727,1959,2083,2027,1786,1840,1972
725810,-9700,23244,-9530,23238,640,503,241,83,-399,374,530,3694,48,41,849,1601,1727,1959,2083,2027,1786,1840,1972
726811,-9660,23320,-9465,23303,921,290,237,109,-406,459,551,3288,38,44,849,1601,1727,1959,2083,2027,1786,1840,1972
727812,-9600,23364,-9400,23368,677,715,202,109,-410,281,796,3317,33,46,848,1601,1727,1959,2083,2027,1786,1840,1972
728813,-9524,23424,-9335,23433,463,521,148,123,-415,294,937,3121,41,39,847,1673,1803,1959,2083,2027,1786,1840,1972
729814,-9480,23484,-9270,23498,889,528,83,123,-416,345,996,2975,38,41,849,1673,1803,2041,2199,1994,1771,1852,1965
730815,-9412,23560,-9205,23563,586,314,22,129,-415,462,1024,3063,45,42,847,1673,1803,2041,2199,1994,1771,1852,1965
731816,-9344,23616,-9140,23628,583,575,-28,118,-411,389,1074,2962,48,32,850,1673,1803,2041,2199,1994,1771,1852,1965
732819,-9276,23652,-9075,23693,579,861,-61,132,-403,200,999,2998,33,41,849,1673,1803,2041,2199,1994,1771,1852,1965
733818,-9236,23704,-9010,23758,959,676,-67,170,-397,390,855,3221,28,39,846,1673,1803,2041,2199,1994,1771,1852,1965
734819,-9188,23744,-8945,23823,880,857,-56,180,-384,591,785,3105,29,41,846,1764,1883,2112,2271,2024,1803,1881,2001
735820,-9128,23828,-8880,23888,736,284,-39,160,-360,291,770,3217,35,48,845,1764,1883,2112,2271,2024,1803,1881,2001
736821,-9088,23884,-8815,23953,1017,645,-9,169,-350,265,763,3448,32,45,849,1764,1883,2112,2271,2024,1803,1881,2001
737822,-9024,23932,-8750,24018,718,765,36,160,-344,307,602,3479,34,47,846,1764,1883,2112,2271,2024,1803,1881,2001
738823,-8956,23996,-8685,24083,664,568,89,138,-340,280,548,3809,46,44,847,1764,1883,2112,2271,2024,1803,1881,2001
739824,-8908,24056,-8620,24148,935,624,151,132,-339,219,578,4015,36,43,848,1726,1840,2069,2201,2029,1791,1857,1981
740825,-8852,24112,-8555,24213,846,685,212,123,-329,353,651,4030,44,35,846,1726,1840,2069,2201,2029,1791,1857,1981
741826,-8804,24172,-8490,24278,968,641,273,122,-320,362,767,4270,44,32,847,1726,1840,2069,2201,2029,1791,1857,1981
742827,-8748,24228,-8425,24343,879,702,321,140,-314,478,786,4325,34,44,846,1726,1840,2069,2201,2029,1791,1857,1981
743828,-8708,24292,-8360,24408,1109,603,360,157,-297,397,776,4441,44,43,846,1726,1840,2069,2201,2029,1791,1857,1981
744829,-8644,24364,-8295,24473,811,495,385,162,-294,370,941,4402,42,45,845,1726,1840,2069,2201,2029,1791,1857,1981
745830,-8576,24412,-8230,24538,757,815,393,181,-290,294,937,4397,41,37,847,1691,1814,2036,2174,1981,1747,1829,1947
746831,-8516,24456,-8165,24603,863,891,389,172,-283,438,1088,4142,31,45,847,1691,1814,2036,2174,1981,1747,1829,1947
747832,-8456,24528,-8100,24668,869,532,368,158,-279,386,1221,4354,38,33,845,1691,1814,2036,2174,1981,1747,1829,1947
748833,-8392,24584,-8035,24733,820,743,342,163,-275,350,1160,4191,32,45,847,1691,1814,2036,2174,1981,1747,1829,1947
749834,-8356,24632,-7970,24798,1207,864,311,161,-266,587,1172,4150,34,42,846,1691,1814,2036,2174,1981,1747,1829,1947
750835,-8292,24696,-7905,24863,858,665,289,154,-251,471,1176,4121,31,44,842,1732,1858,2082,2238,1989,1767,1856,1984
751836,-8236,24756,-7840,24928,969,721,276,151,-237,393,1073,3973,48,48,847,1732,1858,2082,2238,1989,1767,1856,1984
752837,-8176,24812,-7775,24993,925,782,268,159,-221,398,961,4021,31,45,846,1732,1858,2082,2238,1989,1767,1856,1984
753838,-8116,24856,-7710,25058,931,958,276,166,-200,435,925,3891,48,32,845,1732,1858,2082,2238,1989,1767,1856,1984
754839,-8056,24908,-7645,25123,937,874,282,142,-170,227,761,3896,41,44,845,1732,1858,2082,2238,1989,1767,1856,1984
755840,-8000,24980,-7580,25188,998,615,301,155,-153,278,707,4022,39,40,844,1732,1858,2082,2238,1989,1767,1856,1984
756841,-7944,25052,-7515,25253,1010,607,326,156,-137,466,539,3825,36,40,846,1766,1893,2126,2266,2062,1826,1901,2042
757842,-7908,25120,-7450,25318,1296,654,365,168,-115,491,524,4056,29,43,846,1766,1893,2126,2266,2062,1826,1901,2042
758843,-7832,25160,-7385,25383,782,1035,403,179,-98,360,574,4136,33,45,843,1766,1893,2126,2266,2062,1826,1901,2042
759844,-7776,25200,-7320,25448,1043,1065,433,196,-83,268,631,4263,44,46,845,1766,1893,2126,2266,2062,1826,1901,2042
760845,-7720,25264,-7255,25513,1054,766,470,203,-67,285,605,4348,33,34,843,1766,1893,2126,2266,2062,1826,1901,2042
761846,-7672,25296,-7190,25578,1175,1207,496,204,-57,194,654,4412,46,36,844,1735,1862,2093,2214,2058,1807,1877,2009
762847,-7608,25388,-7125,25643,977,424,506,210,-51,196,608,4607,30,43,841,1735,1862,2093,2214,2058,1807,1877,2009
763848,-7564,25448,-7060,25708,1253,830,504,214,-44,353,714,4394,47,40,846,1735,1862,2093,2214,2058,1807,1877,2009
764849,-7508,25528,-6995,25773,1114,562,496,216,-29,364,748,4503,47,36,843,1735,1862,2093,2214,2058,1807,1877,2009
765850,-7440,25564,-6930,25838,960,1147,488,230,-14,326,838,4591,39,32,845,1735,1862,2093,2214,2058,1807,1877,2009
766851,-7384,25600,-6865,25903,1121,1182,465,247,6,18,778,4682,50,35,843,1735,1862,2093,2214,2058,1807,1877,2009
767852,-7328,25660,-6800,25968,1133,888,444,261,16,74,859,4664,33,42,841,1707,1838,2056,2185,1997,1757,1839,1967
768853,-7280,25720,-6735,26033,1254,896,416,278,33,202,711,4659,43,34,844,1707,1838,2056,2185,1997,1757,1839,1967
769854,-7220,25784,-6670,26098,1110,847,393,289,55,418,481,4373,47,46,842,1707,1838,2056,2185,1997,1757,1839,1967
770855,-7156,25840,-6605,26163,1061,958,390,287,73,469,584,4447,39,48,843,1707,1838,2056,2185,1997,1757,1839,1967
771856,-7100,25896,-6540,26228,1172,969,369,286,109,70,502,4241,33,40,843,1707,1838,2056,2185,1997,1757,1839,1967
772857,-7032,25976,-6475,26293,1019,650,353,323,118,351,666,4421,38,36,842,1723,1856,2079,2216,2011,1778,1864,2002
773858,-6976,26036,-6410,26358,1180,907,332,330,139,377,512,3966,51,41,845,1723,1856,2079,2216,2011,1778,1864,2002
774859,-6916,26128,-6345,26423,1137,474,332,337,155,348,465,4207,36,53,843,1723,1856,2079,2216,2011,1778,1864,2002
775860,-6844,26172,-6280,26488,978,1099,330,364,154,308,551,4161,54,41,845,1723,1856,2079,2216,2011,1778,1864,2002
776861,-6788,26256,-6215,26553,1190,577,344,372,160,216,374,3897,55,41,843,1723,1856,2079,2216,2011,1778,1864,2002
777862,-6740,26308,-6150,26618,1311,993,361,394,171,315,436,3971,38,48,844,1723,1856,2079,2216,2011,1778,1864,2002
778863,-6660,26384,-6085,26683,892,679,367,402,167,268,486,3946,36,49,841,1755,1887,2122,2256,2058,1818,1894,2032
779864,-6600,26456,-6020,26748,1149,721,402,417,177,184,362,3897,47,56,846,1755,1887,2122,2256,2058,1818,1894,2032
780865,-6552,26536,-5955,26813,1319,603,426,413,189,215,460,3899,37,51,844,1755,1887,2122,2256,2058,1818,1894,2032
781866,-6488,26616,-5890,26878,1121,584,452,377,204,104,586,3788,47,43,843,1755,1887,2122,2256,2058,1818,1894,2032
782867,-6436,26684,-5825,26943,1287,731,443,347,242,-152,618,4013,50,56,845,1755,1887,2122,2256,2058,1818,1894,2032
783868,-6392,26752,-5760,27008,1413,727,439,300,254,74,778,3912,49,41,843,1759,1886,2118,2258,2031,1793,1870,1990
784869,-6336,26832,-5695,27073,1274,559,460,259,285,-49,641,4162,35,44,841,1759,1886,2118,2258,2031,1793,1870,1990
785870,-6260,26900,-5630,27138,1012,705,470,205,323,176,828,3941,51,53,844,1759,1886,2118,2258,2031,1793,1870,1990
786871,-6184,26980,-5565,27203,998,538,474,190,354,198,970,4321,45,43,845,1759,1886,2118,2258,2031,1793,1870,1990
787872,-6136,27024,-5500,27268,1369,1013,456,199,382,232,882,4195,33,50,846,1759,1886,2118,2258,2031,1793,1870,1990
788873,-6088,27088,-5435,27333,1390,765,446,220,400,511,833,4111,39,45,841,1759,1886,2118,2258,2031,1793,1870,1990
789874,-6036,27180,-5370,27398,1355,382,439,240,420,345,876,4255,35,44,842,1747,1875,2089,2229,1980,1749,1838,1964
790875,-5968,27236,-5305,27463,1153,843,438,259,419,555,803,4196,44,41,844,1747,1875,2089,2229,1980,1749,1838,1964
791876,-5904,27284,-5240,27528,1204,963,443,284,419,740,833,4176,40,43,843,1747,1875,2089,2229,1980,1749,1838,1964
792877,-5844,27356,-5175,27593,1260,655,465,311,424,597,865,4205,40,45,842,1747,1875,2089,2229,1980,1749,1838,1964
793878,-5792,27436,-5110,27658,1376,536,475,332,436,360,691,4063,51,39,843,1747,1875,2089,2229,1980,1749,1838,1964
794879,-5728,27488,-5045,27723,1228,902,497,351,429,381,648,4092,42,45,843,1753,1877,2100,2242,1995,1763,1850,1981
795880,-5668,27552,-4980,27788,1284,754,514,316,432,113,645,3793,42,41,842,1753,1877,2100,2242,1995,1763,1850,1981
796881,-5616,27616,-4915,27853,1400,755,539,286,432,31,736,3996,47,50,843,1753,1877,2100,2242,1995,1763,1850,1981
797882,-5544,27696,-4850,27918,1143,536,575,281,438,120,549,3848,44,36,841,1753,1877,2100,2242,1995,1763,1850,1981
798883,-5492,27748,-4785,27983,1409,903,600,243,431,133,622,3635,42,36,844,1753,1877,2100,2242,1995,1763,1850,1981
799884,-5428,27804,-4720,28048,1260,864,620,208,435,-179,562,3642,32,32,841,1753,1877,2100,2242,1995,1763,1850,1981
800885,-5360,27860,-4655,28113,1206,875,626,190,439,-10,665,3524,51,50,842,1779,1906,2148,2300,2028,1803,1880,2001
801886,-5308,27908,-4590,28178,1423,996,645,181,467,116,590,3504,34,50,841,1779,1906,2148,2300,2028,1803,1880,2001
802887,-5244,27980,-4525,28243,1274,688,654,231,487,386,741,3703,47,50,840,1779,1906,2148,2300,2028,1803,1880,2001
803888,-5188,28048,-4460,28308,1385,734,671,291,482,220,775,3553,46,43,843,1779,1906,2148,2300,2028,1803,1880,2001
804889,-5140,28108,-4395,28373,1506,840,686,320,474,53,768,3502,33,47,842,1779,1906,2148,2300,2028,1803,1880,2001
805890,-5072,28176,-4330,28438,1253,736,683,319,467,115,802,3600,34,38,841,1802,1924,2159,2318,2014,1794,1868,1973
806891,-5032,28228,-4265,28503,1634,952,675,289,474,-48,910,3691,35,44,843,1802,1924,2159,2318,2014,1794,1868,1973
807892,-4972,28288,-4200,28568,1390,858,671,268,506,-73,894,3693,32,43,838,1802,1924,2159,2318,2014,1794,1868,1973
808893,-4916,28376,-4135,28633,1452,481,655,257,543,282,972,3920,35,56,841,1802,1924,2159,2318,2014,1794,1868,1973
809894,-4856,28448,-4070,28698,1408,673,640,243,566,463,943,3899,38,53,842,1802,1924,2159,2318,2014,1794,1868,1973
810895,-4796,28524,-4005,28763,1414,609,638,209,600,34,889,3965,37,49,842,1802,1924,2159,2318,2014,1794,1868,1973
811896,-4732,28608,-3940,28828,1365,486,639,204,623,277,773,4165,40,44,842,1769,1880,2108,2263,1991,1779,1854,1968
812897,-4680,28672,-3875,28893,1532,737,661,234,654,639,749,4047,36,58,843,1769,1880,2108,2263,1991,1779,1854,1968
813898,-4620,28764,-3810,28958,1438,354,689,267,669,815,785,4075,36,52,841,1769,1880,2108,2263,1991,1779,1854,1968
814899,-4568,28852,-3745,29023,1554,376,712,338,670,625,711,4158,49,43,843,1769,1880,2108,2263,1991,1779,1854,1968
815900,-4488,28904,-3680,29088,1187,842,743,404,650,599,784,4169,43,53,842,1769,1880,2108,2263,1991,1779,1854,1968
816901,-4440,28988,-3615,29153,1608,419,773,444,626,587,508,3749,37,46,843,1736,1850,2092,2240,2034,1813,1877,2003
817902,-4360,29036,-3550,29218,1189,890,803,431,589,371,662,3781,39,54,842,1736,1850,2092,2240,2034,1813,1877,2003
818903,-4320,29100,-3485,29283,1721,691,817,381,559,24,764,3626,50,49,842,1736,1850,2092,2240,2034,1813,1877,2003
819904,-4244,29164,-3420,29348,1257,692,824,332,525,2,752,3751,54,47,839,1736,1850,2092,2240,2034,1813,1877,2003
820905,-4196,29240,-3355,29413,1628,529,824,290,492,36,815,3694,51,49,843,1736,1850,2092,2240,2034,1813,1877,2003
821906,-4124,29304,-3290,29478,1321,680,823,248,456,-43,858,3676,39,39,841,1736,1850,2092,2240,2034,1813,1877,2003
822907,-4056,29388,-3225,29543,1367,408,802,213,445,-39,721,3538,37,47,842,1755,1871,2131,2290,2061,1841,1903,2025
823908,-4000,29428,-3160,29608,1528,988,801,181,446,62,922,3619,47,54,843,1755,1871,2131,2290,2061,1841,1903,2025
824909,-3952,29500,-3095,29673,1649,580,773,165,445,1,1003,3753,41,53,839,1755,1871,2131,2290,2061,1841,1903,2025
825910,-3896,29564,-3030,29738,1561,681,743,173,446,94,862,3781,47,57,841,1755,1871,2131,2290,2061,1841,1903,2025
826911,-3816,29636,-2965,29803,1242,572,717,218,461,358,817,3802,53,47,841,1755,1871,2131,2290,2061,1841,1903,2025
827912,-3764,29696,-2900,29868,1608,728,692,266,472,495,786,3816,38,43,844,1783,1909,2155,2309,2063,1841,1910,2035
828913,-3712,29744,-2835,29933,1625,899,671,313,504,312,781,3859,37,44,840,1783,1909,2155,2309,2063,1841,1910,2035
829914,-3660,29812,-2770,29998,1641,646,653,353,544,243,830,4044,36,43,839,1783,1909,2155,2309,2063,1841,1910,2035
830915,-3596,29888,-2705,30063,1492,532,647,403,576,364,707,4076,31,54,840,1783,1909,2155,2309,2063,1841,1910,2035
831916,-3548,29960,-2640,30128,1714,574,638,418,596,392,722,4105,31,60,842,1783,1909,2155,2309,2063,1841,1910,2035
832917,-3492,30044,-2575,30193,1625,400,622,432,598,105,813,4117,39,51,840,1783,1909,2155,2309,2063,1841,1910,2035
833918,-3440,30100,-2510,30258,1691,761,596,414,600,2,633,4094,39,59,841,1759,1886,2129,2267,2055,1835,1898,2028
834919,-3404,30156,-2445,30323,1927,772,589,377,583,108,725,4074,45,55,839,1759,1886,2129,2267,2055,1835,1898,2028
835920,-3348,30232,-2380,30388,1688,509,580,349,548,84,811,4288,36,51,836,1759,1886,2129,2267,2055,1835,1898,2028
836921,-3276,30300,-2315,30453,1481,605,585,352,502,119,862,4264,52,56,841,1759,1886,2129,2267,2055,1835,1898,2028
837922,-3220,30376,-2250,30518,1692,492,574,364,456,246,855,4289,55,43,841,1759,1886,2129,2267,2055,1835,1898,2028
838923,-3144,30432,-2185,30583,1428,753,585,396,399,345,961,4200,39,54,840,1729,1852,2106,2244,2081,1853,1908,2040
839924,-3092,30500,-2120,30648,1745,600,574,392,362,250,700,4069,35,58,842,1729,1852,2106,2244,2081,1853,1908,2040
840925,-3028,30564,-2055,30713,1596,651,553,372,323,366,865,4061,39,43,839,1729,1852,2106,2244,2081,1853,1908,2040
841926,-2968,30628,-1990,30778,1652,653,519,354,282,214,983,4180,50,52,841,1729,1852,2106,2244,2081,1853,1908,2040
842927,-2884,30704,-1925,30843,1330,489,501,354,247,227,904,4062,38,60,840,1729,1852,2106,2244,2081,1853,1908,2040
843928,-2824,30784,-1860,30908,1636,421,480,384,214,457,912,4219,42,63,843,1729,1852,2106,2244,2081,1853,1908,2040
844929,-2760,30840,-1795,30973,1587,732,491,424,200,704,585,3865,51,56,841,1741,1866,2127,2278,2104,1882,1936,2064
845930,-2688,30932,-1730,31038,1480,249,502,439,228,439,1075,3852,39,51,840,1741,1866,2127,2278,2104,1882,1936,2064
846931,-2628,31008,-1665,31103,1636,435,489,468,267,149,1172,4257,41,49,843,1741,1866,2127,2278,2104,1882,1936,2064
847932,-2568,31084,-1600,31168,1643,422,469,523,295,629,1008,4097,46,54,841,1741,1866,2127,2278,2104,1882,1936,2064
848933,-2496,31164,-1535,31233,1485,354,442,511,308,489,1060,3801,36,54,841,1741,1866,2127,2278,2104,1882,1936,2064
849934,-2424,31220,-1470,31298,1476,665,423,507,305,89,1157,4043,39,53,842,1761,1886,2148,2308,2107,1888,1939,2058
850935,-2372,31288,-1405,31363,1743,511,395,493,301,34,1023,3983,48,51,842,1761,1886,2148,2308,2107,1888,1939,2058
851936,-2316,31360,-1340,31428,1704,453,370,483,282,205,1026,3957,47,42,840,1761,1886,2148,2308,2107,1888,1939,2058
852937,-2264,31440,-1275,31493,1770,334,351,497,242,304,996,4074,35,46,839,1761,1886,2148,2308,2107,1888,1939,2058
853938,-2192,31516,-1210,31558,1512,371,313,479,209,259,1035,3809,36,59,840,1761,1886,2148,2308,2107,1888,1939,2058
854939,-2144,31588,-1145,31623,1833,412,282,489,162,112,1054,3965,32,43,842,1761,1886,2148,2308,2107,1888,1939,2058
855940,-2080,31644,-1080,31688,1635,623,266,482,128,29,1068,3998,45,41,839,1768,1890,2153,2306,2105,1880,1929,2059
856941,-2032,31692,-1015,31753,1856,744,245,481,85,183,1063,4191,50,55,840,1768,1890,2153,2306,2105,1880,1929,2059
857942,-1972,31752,-950,31818,1712,600,227,498,47,219,921,4167,33,54,838,1768,1890,2153,2306,2105,1880,1929,2059
858943,-1912,31832,-885,31883,1719,332,213,510,10,257,1006,4268,36,44,839,1768,1890,2153,2306,2105,1880,1929,2059
859944,-1852,31892,-820,31948,1725,588,212,518,-16,281,808,4032,50,51,841,1768,1890,2153,2306,2105,1880,1929,2059
860945,-1800,31960,-755,32013,1841,484,199,544,-49,471,1003,4222,38,43,840,1754,1880,2145,2283,2119,1889,1935,2079
861946,-1716,32004,-690,32078,1419,810,182,573,-69,317,936,4124,50,56,839,1754,1880,2145,2283,2119,1889,1935,2079
862947,-1656,32076,-625,32143,1725,451,171,628,-90,559,837,4017,54,56,841,1754,1880,2145,2283,2119,1889,1935,2079
863948,-1576,32148,-560,32208,1458,443,173,671,-99,523,1000,4173,53,51,840,1754,1880,2145,2283,2119,1889,1935,2079
864949,-1516,32212,-495,32273,1714,544,169,701,-99,295,1044,4085,50,45,842,1754,1880,2145,2283,2119,1889,1935,2079
865950,-1464,32288,-430,32338,1830,381,161,712,-107,311,1076,3984,44,58,840,1754,1880,2145,2283,2119,1889,1935,2079
866951,-1384,32364,-365,32403,1462,367,153,723,-107,257,1170,3932,53,51,839,1751,1881,2147,2291,2133,1908,1955,2085
867952,-1320,32416,-300,32468,1664,683,139,687,-101,107,1223,3743,55,47,842,1751,1881,2147,2291,2133,1908,1955,2085
868953,-1252,32484,-235,32533,1611,479,118,683,-102,85,1337,3868,56,56,840,1751,1881,2147,2291,2133,1908,1955,2085
869954,-1196,32548,-170,32598,1772,531,102,653,-108,156,1398,3786,40,42,840,1751,1881,2147,2291,2133,1908,1955,2085
870955,-1132,32604,-105,32663,1673,642,86,636,-113,212,1550,3810,46,56,839,1751,1881,2147,2291,2133,1908,1955,2085
871956,-1072,32672,-40,32728,1730,488,75,610,-124,135,1542,3716,35,54,839,1762,1886,2156,2316,2140,1914,1956,2081
872957,-1004,32756,25,32793,1627,265,65,614,-153,200,1435,3796,40,49,840,1762,1886,2156,2316,2140,1914,1956,2081
873958,-936,32824,90,32858,1624,461,49,620,-191,490,1389,3655,41,54,841,1762,1886,2156,2316,2140,1914,1956,2081
874959,-880,32896,155,32923,1785,402,40,622,-234,492,1286,3715,49,51,841,1762,1886,2156,2316,2140,1914,1956,2081
875960,-808,32980,220,32988,1576,229,32,626,-276,337,1335,3722,48,49,840,1762,1886,2156,2316,2140,1914,1956,2081
876961,-744,33040,285,33053,1679,535,34,644,-339,395,1318,3826,38,59,842,1762,1886,2156,2316,2140,1914,1956,2081
877962,-696,33100,350,33118,1899,541,41,671,-381,541,1198,3802,40,58,840,1761,1876,2147,2297,2122,1894,1930,2060
878963,-604,33156,415,33183,1316,602,41,689,-408,551,1199,3911,41,46,838,1761,1876,2147,2297,2122,1894,1930,2060
879964,-552,33244,480,33248,1833,174,46,713,-443,440,1213,3951,56,54,842,1761,1876,2147,2297,2122,1894,1930,2060
880965,-464,33332,545,33313,1355,146,34,724,-467,400,1124,4054,45,55,840,1761,1876,2147,2297,2122,1894,1930,2060
881966,-388,33392,610,33378,1493,502,24,715,-497,314,1168,3868,45,57,844,1761,1876,2147,2297,2122,1894,1930,2060
882967,-336,33464,675,33443,1809,344,12,708,-515,186,1146,3874,42,46,842,1752,1872,2144,2288,2089,1865,1909,2039
883968,-268,33524,740,33508,1605,500,0,700,-539,192,1235,3849,54,54,840,1752,1872,2144,2288,2089,1865,1909,2039
884969,-184,33592,805,33573,1383,396,-34,698,-537,21,1183,3719,42,49,841,1752,1872,2144,2288,2089,1865,1909,2039
885970,-112,33680,870,33638,1524,118,-56,718,-548,230,1371,3967,44,63,843,1752,1872,2144,2288,2089,1865,1909,2039
886971,-36,33756,935,33703,1462,255,-86,761,-553,102,1392,3727,46,59,842,1752,1872,2144,2288,2089,1865,1909,2039
887972,44,33808,1000,33768,1393,571,-102,783,-553,189,1308,3724,53,55,843,1752,1872,2144,2288,2089,1865,1909,2039
888973,112,33876,1065,33833,1540,367,-129,804,-533,169,1255,3816,55,48,842,1755,1883,2146,2292,2079,1860,1914,2046
889974,180,33948,1130,33898,1537,308,-143,815,-553,280,1719,3758,40,56,842,1755,1883,2146,2292,2079,1860,1914,2046
890975,248,34036,1195,33963,1534,80,-174,800,-557,-54,1349,3648,42,62,843,1755,1883,2146,2292,2079,1860,1914,2046
891976,300,34092,1260,34028,1749,491,-202,808,-572,187,1376,3886,44,49,843,1755,1883,2146,2292,2079,1860,1914,2046
892977,380,34172,1325,34093,1382,173,-228,812,-589,69,1538,3652,41,47,839,1755,1883,2146,2292,2079,1860,1914,2046
893978,448,34252,1390,34158,1528,155,-233,804,-605,30,1353,3657,53,46,844,1753,1880,2142,2284,2110,1886,1933,2073
894979,512,34316,1455,34223,1580,356,-229,797,-648,222,1471,3872,49,47,843,1753,1880,2142,2284,2110,1886,1933,2073
895980,576,34388,1520,34288,1582,247,-223,772,-679,6,1332,3460,46,49,842,1753,1880,2142,2284,2110,1886,1933,2073
896981,652,34468,1585,34353,1418,129,-215,776,-704,21,1180,3807,40,49,842,1753,1880,2142,2284,2110,1886,1933,2073
897982,724,34540,1650,34418,1460,221,-223,804,-741,458,1199,3861,43,49,844,1753,1880,2142,2284,2110,1886,1933,2073
898983,792,34620,1715,34483,1507,102,-226,810,-782,541,1297,3522,54,61,843,1753,1880,2142,2284,2110,1886,1933,2073
899984,860,34692,1780,34548,1504,194,-228,770,-837,142,1463,3483,41,59,843,1738,1859,2131,2269,2131,1898,1938,2079
900985,928,34756,1845,34613,1501,295,-237,755,-873,-94,1211,3505,44,59,843,1738,1859,2131,2269,2131,1898,1938,2079
901986,1000,34820,1910,34678,1442,296,-250,781,-901,527,1220,3603,55,60,843,1738,1859,2131,2269,2131,1898,1938,2079
902987,1064,34904,1975,34743,1544,23,-268,789,-908,612,1254,3505,55,47,843,1738,1859,2131,2269,2131,1898,1938,2079
903988,1148,34992,2040,34808,1271,-55,-292,785,-927,191,1379,3383,45,48,842,1738,1859,2131,2269,2131,1898,1938,2079
904989,1224,35048,2105,34873,1358,356,-322,763,-957,-58,1552,3473,46,51,845,1737,1854,2123,2264,2114,1886,1929,2062
905990,1292,35096,2170,34938,1454,477,-344,712,-974,-37,1512,3224,50,42,844,1737,1854,2123,2264,2114,1886,1929,2062
906991,1376,35172,2235,35003,1232,113,-369,693,-966,-75,1229,3507,56,55,843,1737,1854,2123,2264,2114,1886,1929,2062
907992,1448,35240,2300,35068,1374,209,-402,721,-948,208,1218,3691,56,51,845,1737,1854,2123,2264,2114,1886,1929,2062
908993,1536,35320,2365,35133,1145,40,-428,712,-969,305,1666,3472,58,46,844,1737,1854,2123,2264,2114,1886,1929,2062
909996,1628,35380,2430,35198,1064,296,-446,664,-988,-273,1429,3339,48,56,846,1737,1854,2123,2264,2114,1886,1929,2062
910995,1704,35456,2495,35263,1250,83,-467,640,-985,-281,1182,3678,45,55,846,1727,1848,2108,2248,2102,1873,1921,2059
911996,1780,35528,2560,35328,1237,124,-495,652,-973,161,1058,3839,40,43,845,1727,1848,2108,2248,2102,1873,1921,2059
912997,1848,35604,2625,35393,1333,61,-507,660,-974,284,1167,3475,48,58,846,1727,1848,2108,2248,2102,1873,1921,2059
913998,1932,35684,2690,35458,1111,-7,-512,641,-996,-310,1181,3559,59,44,845,1727,1848,2108,2248,2102,1873,1921,2059
914999,2004,35752,2755,35523,1252,139,-522,641,-1019,-438,1059,3661,56,57,847,1727,1848,2108,2248,2102,1873,1921,2059
916000,2076,35820,2820,35588,1244,135,-530,671,-1025,-33,1079,3743,50,46,845,1715,1841,2103,2234,2108,1871,1920,2067
917001,2168,35876,2885,35653,962,296,-540,683,-1015,275,1127,3420,47,48,846,1715,1841,2103,2234,2108,1871,1920,2067
918002,2248,35948,2950,35718,1093,88,-548,676,-1020,-107,1192,3491,48,46,847,1715,1841,2103,2234,2108,1871,1920,2067
919003,2328,36004,3015,35783,1075,299,-561,688,-1046,-272,1210,3579,60,42,847,1715,1841,2103,2234,2108,1871,1920,2067
920004,2408,36080,3080,35848,1057,34,-571,664,-1059,-177,1075,3348,62,46,846,1715,1841,2103,2234,2108,1871,1920,2067
921005,2496,36144,3145,35913,930,186,-598,667,-1067,164,1032,3587,45,51,847,1715,1841,2103,2234,2108,1871,1920,2067
922006,2560,36220,3210,35978,1231,22,-619,657,-1085,-43,1023,3289,56,48,847,1721,1848,2107,2240,2102,1863,1914,2056
923007,2636,36264,3275,36043,1068,448,-640,649,-1115,-293,1167,3206,57,44,846,1721,1848,2107,2240,2102,1863,1914,2056
924008,2736,36356,3340,36108,725,-185,-663,644,-1142,-232,1125,3386,53,57,845,1721,1848,2107,2240,2102,1863,1914,2056
925009,2804,36412,3405,36173,1122,276,-689,664,-1148,-85,865,3330,49,58,849,1721,1848,2107,2240,2102,1863,1914,2056
926010,2900,36500,3470,36238,734,-152,-698,687,-1159,264,1080,3289,62,44,846,1721,1848,2107,2240,2102,1863,1914,2056
927011,2984,36560,3535,36303,861,204,-697,674,-1162,-204,1221,3110,47,56,849,1730,1846,2105,2248,2091,1857,1910,2041
928012,3064,36648,3600,36368,893,-174,-697,670,-1161,-389,1129,3409,62,55,847,1730,1846,2105,2248,2091,1857,1910,2041
929013,3152,36712,3665,36433,765,127,-698,676,-1148,-62,1053,3482,43,55,847,1730,1846,2105,2248,2091,1857,1910,2041
930014,3240,36772,3730,36498,738,182,-697,673,-1134,-44,991,3246,45,43,848,1730,1846,2105,2248,2091,1857,1910,2041
931015,3312,36868,3795,36563,929,-306,-699,639,-1120,-120,1045,3061,49,44,849,1730,1846,2105,2248,2091,1857,1910,2041
932016,3392,36928,3860,36628,811,150,-703,578,-1122,-399,1080,3062,44,46,847,1730,1846,2105,2248,2091,1857,1910,2041
933017,3468,37012,3925,36693,847,-173,-709,536,-1132,-382,1053,3227,45,45,848,1729,1842,2098,2251,2075,1846,1902,2027
934018,3564,37072,3990,36758,560,133,-732,526,-1126,-105,839,3335,55,49,848,1729,1842,2098,2251,2075,1846,1902,2027
935019,3652,37140,4055,36823,631,30,-769,511,-1117,153,967,3170,41,42,850,1729,1842,2098,2251,2075,1846,1902,2027
936020,3724,37216,4120,36888,824,-84,-787,460,-1128,-45,1064,3018,38,45,850,1729,1842,2098,2251,2075,1846,1902,2027
937021,3804,37284,4185,36953,706,12,-810,432,-1127,-290,808,3287,53,46,849,1729,1842,2098,2251,2075,1846,1902,2027
938022,3880,37368,4250,37018,742,-212,-828,437,-1116,21,760,3542,40,58,848,1733,1841,2089,2235,2063,1834,1900,2036
939023,3956,37424,4315,37083,729,149,-834,469,-1092,119,696,3290,51,51,849,1733,1841,2089,2235,2063,1834,1900,2036
940024,4040,37484,4380,37148,606,105,-826,489,-1080,-16,760,3438,43,46,849,1733,1841,2089,2235,2063,1834,1900,2036
941025,4124,37552,4445,37213,582,2,-818,480,-1070,-258,668,3231,56,45,850,1733,1841,2089,2235,2063,1834,1900,2036
942026,4200,37628,4510,37278,669,-112,-806,476,-1056,-352,590,3430,39,55,850,1733,1841,2089,2235,2063,1834,1900,2036
943027,4292,37708,4575,37343,437,-180,-802,488,-1047,-65,705,3351,44,56,849,1733,1841,2089,2235,2063,1834,1900,2036
944028,4360,37780,4640,37408,733,-89,-794,445,-1042,-275,510,3173,53,46,850,1721,1837,2083,2214,2071,1831,1895,2038
945029,4432,37852,4705,37473,675,-97,-785,434,-1035,-454,519,3313,43,42,849,1721,1837,2083,2214,2071,1831,1895,2038
946030,4520,37916,4770,37538,447,3,-790,391,-1037,-303,533,3114,45,58,849,1721,1837,2083,2214,2071,1831,1895,2038
947031,4604,37988,4835,37603,473,-105,-795,365,-1040,-277,626,3362,53,58,851,1721,1837,2083,2214,2071,1831,1895,2038
948032,4688,38052,4900,37668,450,-4,-810,317,-1041,-439,610,2999,53,50,850,1721,1837,2083,2214,2071,1831,1895,2038
949033,4768,38128,4965,37733,482,-168,-819,269,-1039,-612,520,3192,41,42,851,1721,1840,2082,2220,2064,1821,1893,2030
950034,4848,38200,5164,37932,627,37,-833,239,-1029,-401,511,3149,51,42,850,1721,1840,2082,2220,2064,1821,1893,2030
951035,4920,38280,5229,37997,719,-81,-849,204,-1019,-204,670,3220,51,43,850,1721,1840,2082,2220,2064,1821,1893,2030
952036,5008,38340,5294,38062,491,175,-857,183,-1013,-267,679,3179,54,56,849,1721,1840,2082,2220,2064,1821,1893,2030
953037,5096,38404,5359,38127,464,125,-874,158,-1002,-398,643,3141,59,48,850,1721,1840,2082,2220,2064,1821,1893,2030
954038,5188,38508,5424,38192,381,-422,-880,164,-987,-274,446,3164,52,55,851,1721,1840,2082,2220,2064,1821,1893,2030
955039,5276,38604,5489,38257,403,-360,-889,155,-972,0,587,3106,54,44,849,1731,1851,2086,2230,2062,1823,1900,2038
956040,5372,38664,5554,38322,265,96,-885,165,-956,30,546,3194,46,43,850,1731,1851,2086,2230,2062,1823,1900,2038
957041,5452,38732,5619,38387,446,-8,-889,152,-941,-110,418,3080,52,53,851,1731,1851,2086,2230,2062,1823,1900,2038
958043,5556,38780,5684,38452,99,263,-888,159,-931,-82,451,3110,55,50,851,1731,1851,2086,2230,2062,1823,1900,2038
959043,5632,38856,5749,38517,435,-100,-879,156,-916,-27,488,3105,40,56,851,1731,1851,2086,2230,2062,1823,1900,2038
960044,5720,38924,5814,38582,257,-4,-865,132,-908,-83,498,3147,42,46,851,1732,1848,2082,2229,2067,1830,1902,2031
961045,5824,38988,5879,38647,10,46,-861,104,-893,-440,362,3075,48,61,851,1732,1848,2082,2229,2067,1830,1902,2031
962046,5888,39060,5944,38712,511,-62,-838,68,-890,-259,463,3200,56,48,852,1732,1848,2082,2229,2067,1830,1902,2031
963047,5968,39140,6009,38777,293,-181,-824,49,-879,-317,415,3319,40,56,851,1732,1848,2082,2229,2067,1830,1902,2031
964048,6060,39224,6074,38842,110,-254,-803,15,-879,-259,500,3268,44,46,851,1732,1848,2082,2229,2067,1830,1902,2031
965049,6152,39300,6139,38907,77,-167,-804,-4,-875,-316,240,3166,49,45,851,1726,1837,2076,2226,2067,1830,1902,2031
966050,6248,39376,6204,38972,-11,-181,-798,-12,-889,-249,321,3267,43,60,852,1726,1837,2076,2226,2053,1817,1885,2007
967051,6324,39448,6269,39037,225,-139,-799,-26,-893,-300,288,3102,47,48,852,1726,1837,2076,2226,2053,1817,1885,2007
968052,6408,39520,6334,39102,102,-149,-787,-8,-894,-99,350,3231,51,44,851,1726,1837,2076,2226,2053,1817,1885,2007
969053,6496,39600,6399,39167,24,-267,-789,27,-897,-126,207,3294,36,45,852,1726,1837,2076,2226,2053,1817,1885,2007
970054,6572,39680,6464,39232,161,-285,-788,79,-900,9,244,3218,43,54,852,1726,1837,2076,2226,2053,1817,1885,2007
971055,6660,39752,6529,39297,-17,-194,-792,108,-886,-49,309,3254,48,52,851,1729,1841,2073,2230,2026,1794,1870,1988
972056,6752,39840,6594,39362,-100,-422,-784,117,-885,-229,423,3196,39,59,851,1729,1841,2073,2230,2026,1794,1870,1988
973057,6820,39912,6659,39427,196,-231,-784,144,-882,-397,196,3463,51,45,849,1729,1841,2073,2230,2026,1794,1870,1988
974058,6892,39996,6724,39492,137,-405,-781,171,-874,-174,200,3201,36,54,851,1729,1841,2073,2230,2026,1794,1870,1988
975059,6992,40072,6789,39557,-255,-318,-777,194,-864,-141,191,3295,53,42,851,1729,1841,2073,2230,2026,1794,1870,1988
976060,7068,40152,6854,39622,31,-386,-772,198,-844,-237,192,3222,35,50,850,1730,1842,2074,2235,2015,1794,1871,1988
977061,7152,40216,6919,39687,-93,-185,-764,221,-823,-375,209,3167,35,53,851,1730,1842,2074,2235,2015,1794,1871,1988
978062,7228,40296,6984,39752,-6,-404,-756,248,-811,-202,215,3226,46,44,850,1730,1842,2074,2235,2015,1794,1871,1988
979063,7320,40356,7049,39817,-239,-148,-750,286,-794,-137,104,3150,48,51,851,1730,1842,2074,2235,2015,1794,1871,1988
980064,7388,40432,7114,39882,57,-362,-746,310,-768,-119,8,3053,35,41,851,1730,1842,2074,2235,2015,1794,1871,1988
981065,7468,40500,7179,39947,-111,-266,-729,358,-758,-179,135,3171,35,43,851,1730,1842,2074,2235,2015,1794,1871,1988
982066,7564,40576,7244,40012,-349,-379,-714,367,-751,-146,22,3031,34,50,848,1734,1841,2077,2244,2030,1792,1856,1994
983067,7636,40644,7309,40077,-58,-284,-700,393,-736,-225,32,3021,50,38,849,1734,1841,2077,2244,2030,1792,1856,1994
984068,7688,40696,7374,40142,208,-68,-698,427,-731,-39,29,2999,50,37,852,1734,1841,2077,2244,2030,1792,1856,1994
985069,7764,40760,7439,40207,-105,-217,-692,475,-735,189,32,3043,31,53,852,1734,1841,2077,2244,2030,1792,1856,1994
986070,7860,40820,7504,40272,-394,-160,-690,523,-744,149,86,3029,37,41,849,1734,1841,2077,2244,2030,1792,1856,1994
987071,7928,40888,7569,40337,-48,-264,-687,542,-759,-10,57,2744,40,41,850,1712,1833,2068,2236,2034,1807,1877,1987
988072,8008,40952,7634,40402,-216,-214,-679,583,-776,-25,57,3200,38,51,852,1712,1833,2068,2236,2034,1807,1877,1987
989073,8084,41024,7699,40467,-179,-322,-678,620,-786,77,-77,3126,51,46,844,1712,1833,2068,2236,2034,1807,1877,1987
990074,8176,41072,7764,40532,-412,-2,-678,634,-795,154,-122,3077,55,44,845,1712,1833,2068,2236,2034,1807,1877,1987
991075,8256,41160,7829,40597,-281,-530,-682,620,-792,161,-174,3084,53,43,851,1712,1833,2068,2236,2034,1807,1877,1987
992076,8352,41212,7894,40662,-519,-64,-709,575,-817,-197,-177,3082,35,41,851,1712,1833,2068,2236,2034,1807,1877,1987
993077,8420,41276,7959,40727,-173,-214,-742,537,-842,-363,-214,3469,53,51,852,1711,1795,2013,2187,2007,1773,1871,1990
994078,8516,41340,8024,40792,-561,-212,-779,502,-857,-131,-173,3213,41,37,852,1711,1795,2013,2187,2007,1773,1871,1990
995079,8580,41392,8089,40857,-160,-47,-794,499,-846,70,-204,3594,50,40,851,1711,1795,2013,2187,2007,1773,1871,1990
996080,8664,41452,8154,40922,-433,-140,-805,516,-840,354,-272,3406,40,41,852,1711,1795,2013,2187,2007,1773,1871,1990
997081,8736,41520,8219,40987,-292,-244,-824,562,-822,385,-356,3873,48,40,851,1711,1795,2013,2187,2007,1773,1871,1990
998082,8828,41576,8284,41052,-576,-84,-815,599,-769,-293,-543,3266,39,46,852,1691,1805,1984,2179,2071,1813,1859,2059
999083,8932,41644,8349,41117,-773,-238,-743,600,-725,-116,-531,3915,53,40,852,1691,1805,1984,2179,2071,1813,1859,2059
1000084,9012,41712,8414,41182,-491,-241,-672,595,-667,670,-482,3714,46,52,852,1691,1805,1984,2179,2071,1813,1859,2059
1001085,9112,41772,8479,41247,-784,-135,-610,708,-593,242,-210,3192,56,51,852,1691,1805,1984,2179,2071,1813,1859,2059
1002086,9200,41832,8544,41312,-662,-130,-608,949,-569,602,-150,4256,56,51,852,1691,1805,1984,2179,2071,1813,1859,2059
1003087,9288,41896,8609,41377,-691,-179,-589,1097,-584,1378,-538,2918,49,44,852,1691,1805,1984,2179,2071,1813,1859,2059
1004088,9392,41956,8674,41442,-939,-123,-570,1035,-614,-218,-906,2280,44,41,852,1704,1838,2063,2213,2087,1834,1910,2022
1005089,9492,42000,8739,41507,-932,103,-571,962,-659,-804,-766,3462,44,39,853,1704,1838,2063,2213,2087,1834,1910,2022
1006090,9604,42068,8804,41572,-1140,-201,-645,741,-718,-724,-757,3062,63,43,852,1704,1838,2063,2213,2087,1834,1910,2022
1007091,9708,42120,8869,41637,-1088,14,-691,418,-790,-1380,-959,3473,56,53,852,1704,1838,2063,2213,2087,1834,1910,2022
1008092,9804,42200,8934,41702,-1026,-354,-752,62,-883,-1672,-1129,4258,48,51,847,1704,1838,2063,2213,2087,1834,1910,2022
1009093,9912,42256,8999,41767,-1229,-43,-818,-249,-997,-1808,-1053,4974,64,50,852,1730,1840,2054,2218,1976,1740,1832,1942
1010094,10000,42324,9064,41832,-1007,-197,-877,-478,-1104,-925,-1146,4931,56,45,853,1730,1840,2054,2218,1976,1740,1832,1942
1011095,10112,42376,9129,41897,-1364,19,-923,-614,-1173,-310,-1361,5542,63,38,852,1730,1840,2054,2218,1976,1740,1832,1942
1012096,10208,42432,9194,41962,-1203,-20,-938,-630,-1206,608,-1562,5778,69,53,850,1730,1840,2054,2218,1976,1740,1832,1942
1013097,10324,42488,9259,42027,-1516,-10,-949,-577,-1230,1264,-1644,5959,66,40,853,1730,1840,2054,2218,1976,1740,1832,1942
1014098,10448,42552,9324,42092,-1688,-109,-946,-438,-1215,1064,-1833,6381,54,44,853,1730,1840,2054,2218,1976,1740,1832,1942
1015099,10552,42620,9389,42157,-1486,-163,-931,-272,-1188,1154,-2286,6553,55,56,853,1694,1827,1995,2114,1937,1698,1824,1991
1016100,10676,42672,9454,42222,-1808,53,-900,-124,-1147,921,-2277,6340,74,53,851,1694,1827,1995,2114,1937,1698,1824,1991
1017101,10772,42748,9519,42287,-1497,-260,-869,-69,-1097,162,-2505,6468,68,46,853,1694,1827,1995,2114,1937,1698,1824,1991
1018102,10904,42812,9584,42352,-2029,-110,-847,-103,-1059,-383,-2421,6250,71,43,852,1694,1827,1995,2114,1937,1698,1824,1991
1019103,11020,42868,9649,42417,-1892,1,-830,-250,-1013,-872,-2331,6274,72,50,852,1694,1827,1995,2114,1937,1698,1824,1991
1020104,11160,42940,9714,42482,-2284,-208,-817,-490,-988,-1438,-2174,5593,61,48,852,1700,1853,2010,2143,1975,1743,1883,2006
1021105,11280,43008,9779,42547,-2102,-161,-804,-773,-977,-2068,-2152,5781,77,41,852,1700,1853,2010,2143,1975,1743,1883,2006
1022106,11404,43080,9844,42612,-2224,-220,-787,-1104,-984,-2222,-1952,5478,68,41,852,1700,1853,2010,2143,1975,1743,1883,2006
1023107,11532,43140,9909,42677,-2352,-64,-755,-1397,-997,-1886,-2003,5402,72,44,851,1700,1853,2010,2143,1975,1743,1883,2006
1024108,11660,43204,9974,42742,-2430,-113,-710,-1633,-1010,-2044,-2276,5394,80,45,852,1700,1853,2010,2143,1975,1743,1883,2006
1025109,11800,43272,10039,42807,-2671,-167,-641,-1823,-1049,-2079,-2355,5344,71,41,853,1700,1853,2010,2143,1975,1743,1883,2006
