%  Data file recorded 2016/9/12  0:49:38
%  Stride Frequency         = [1, 1]
%  Lead In /Lead Out        = 
%  Deltas (Fractional)      = [0.25, 0.25, 0.25],[0.25, 0.25, 0.25]
%  Phase                    = 32768
%  Experiment.py 
%  Motor Gains    = [5000, 400, 200, 0, 300, 5000, 400, 200, 0, 300]
% Columns: 
% time | Right Leg Pos | Left Leg Pos | Commanded Right Leg Pos | Commanded Left Leg Pos | DCR | DCL | GyroX | GyroY | GyroZ | AX | AY | AZ | RBEMF | LBEMF | VBatt | S1 | S2 | S3 | S4 | S5 | S6 | S7 | S8
422,-42948,-12400,-44050,-11282,3800,3800,3,4,-1,14,130,3902,-4,7,859,1534,1640,1819,1924,1867,1631,1714,1837
1423,-42956,-12388,-44050,-11282,3800,3800,3,9,-1,24,156,3883,-7,-5,859,1534,1640,1819,1924,1867,1631,1714,1837
2424,-42952,-12388,-44050,-11282,3800,3800,0,8,-1,31,162,3878,-4,6,859,1535,1640,1820,1924,1865,1634,1716,1837
3425,-42956,-12400,-44050,-11282,3800,3800,0,5,-1,26,149,3889,-5,-2,859,1535,1640,1820,1924,1865,1634,1716,1837
4426,-42948,-12388,-44050,-11282,3800,3800,1,4,1,-20,131,3890,-3,-1,859,1535,1640,1820,1924,1865,1634,1716,1837
5427,-42944,-12404,-44050,-11282,3800,3800,2,5,1,5,170,3932,5,8,859,1535,1640,1820,1924,1865,1634,1716,1837
6428,-42948,-12384,-44050,-11282,3800,3800,5,7,-1,9,195,3957,2,-4,859,1535,1640,1820,1924,1865,1634,1716,1837
7429,-42948,-12384,-44050,-11282,3800,3800,2,7,-1,55,164,3926,5,4,860,1534,1640,1818,1924,1865,1634,1717,1838
8430,-42944,-12400,-44050,-11282,3800,3800,2,8,0,67,165,3919,7,5,859,1534,1640,1818,1924,1865,1634,1717,1838
9431,-42940,-12388,-44050,-11282,3800,3800,2,8,2,0,166,3945,-1,-4,859,1534,1640,1818,1924,1865,1634,1717,1838
10432,-42956,-12400,-44050,-11282,3800,3800,1,8,0,-4,175,3931,2,7,859,1534,1640,1818,1924,1865,1634,1717,1838
11433,-42948,-12400,-44050,-11282,3800,3800,2,8,0,15,162,3953,5,5,859,1534,1640,1818,1924,1865,1634,1717,1838
12434,-42948,-12388,-44050,-11282,3800,3800,3,7,0,27,138,3957,2,-3,859,1534,1640,1819,1924,1865,1631,1714,1838
13435,-42956,-12388,-44050,-11282,3800,3800,5,6,1,30,154,3929,1,9,859,1534,1640,1819,1924,1865,1631,1714,1838
14436,-42948,-12388,-44050,-11282,3800,3800,3,7,1,27,168,3919,3,-2,859,1534,1640,1819,1924,1865,1631,1714,1838
15437,-42948,-12388,-44050,-11282,3800,3800,3,11,-1,41,168,3942,-2,3,859,1534,1640,1819,1924,1865,1631,1714,1838
16438,-42948,-12404,-44050,-11282,3800,3800,5,11,-1,-6,158,3934,0,10,859,1534,1640,1819,1924,1865,1631,1714,1838
17439,-42952,-12400,-44050,-11282,3800,3800,4,8,-3,13,166,3933,2,-3,859,1534,1640,1819,1924,1865,1631,1714,1838
18440,-42948,-12380,-44050,-11282,3800,3800,2,7,-3,8,157,3894,-5,1,859,1534,1640,1819,1924,1866,1634,1717,1838
19441,-42960,-12388,-44050,-11282,3800,3800,1,8,-2,10,154,3946,0,10,858,1534,1640,1819,1924,1866,1634,1717,1838
20442,-42948,-12388,-44050,-11282,3800,3800,0,9,-2,15,148,3957,8,-4,859,1534,1640,1819,1924,1866,1634,1717,1838
21443,-42952,-12392,-44050,-11282,3800,3800,2,12,-1,27,155,3952,-1,6,859,1534,1640,1819,1924,1866,1634,1717,1838
22444,-42948,-12376,-44050,-11282,3800,3800,2,12,-1,27,141,3929,1,10,859,1534,1640,1819,1924,1866,1634,1717,1838
23445,-42948,-12388,-44050,-11282,3800,3800,3,8,1,27,146,3915,3,0,859,1533,1640,1819,1923,1866,1635,1717,1839
24446,-42948,-12392,-44050,-11282,3800,3800,2,7,2,30,152,3919,6,-3,859,1533,1640,1819,1923,1866,1635,1717,1839
25447,-42948,-12380,-44050,-11282,3800,3800,1,7,-1,24,152,3973,5,7,859,1533,1640,1819,1923,1866,1635,1717,1839
26448,-42932,-12396,-44050,-11282,3800,3800,-1,8,-1,8,152,3930,9,4,859,1533,1640,1819,1923,1866,1635,1717,1839
27449,-42944,-12392,-44050,-11282,3800,3800,0,11,0,28,155,3937,3,-4,859,1533,1640,1819,1923,1866,1635,1717,1839
28450,-42944,-12380,-44050,-11282,3800,3800,2,8,-1,31,180,3951,1,7,859,1533,1640,1819,1923,1866,1635,1717,1839
29451,-42944,-12400,-44050,-11282,3800,3800,1,7,-2,9,151,3907,-3,0,859,1533,1641,1817,1921,1866,1635,1718,1840
30452,-42944,-12380,-44050,-11282,3800,3800,-1,13,-2,9,161,3973,-9,3,859,1533,1641,1817,1921,1866,1635,1718,1840
31453,-42952,-12384,-44050,-11282,3800,3800,-1,14,-3,6,175,3949,-9,9,859,1533,1641,1817,1921,1866,1635,1718,1840
32454,-42940,-12380,-44050,-11282,3800,3800,-2,12,1,10,179,3929,-6,-5,859,1533,1641,1817,1921,1866,1635,1718,1840
33455,-42948,-12384,-44050,-11282,3800,3800,-1,9,1,22,172,3958,-9,4,859,1533,1641,1817,1921,1866,1635,1718,1840
34456,-42948,-12388,-44050,-11282,3800,3800,-1,8,-2,15,155,3962,-9,10,859,1534,1640,1819,1925,1866,1635,1717,1838
35457,-42940,-12396,-44050,-11282,3800,3800,0,6,-2,7,180,3936,-7,-5,859,1534,1640,1819,1925,1866,1635,1717,1838
36458,-42948,-12380,-44050,-11282,3800,3800,2,9,-6,10,185,3919,-4,10,859,1534,1640,1819,1925,1866,1635,1717,1838
37459,-42944,-12388,-44050,-11282,3800,3800,1,12,-4,-1,158,3952,-3,-4,859,1534,1640,1819,1925,1866,1635,1717,1838
38462,-42936,-12388,-44050,-11282,3800,3800,-2,12,-4,3,156,3968,3,1,859,1534,1640,1819,1925,1866,1635,1717,1838
39461,-42948,-12388,-44050,-11282,3800,3800,-2,12,-2,-38,147,3916,9,10,860,1534,1640,1819,1925,1866,1635,1717,1838
40462,-42948,-12392,-44050,-11282,3800,3800,-3,12,1,-5,140,3926,9,6,859,1533,1640,1819,1923,1865,1635,1717,1839
41463,-42948,-12392,-44050,-11282,3800,3800,-1,11,-1,24,149,3945,10,-4,859,1533,1640,1819,1923,1865,1635,1717,1839
42464,-42948,-12392,-44050,-11282,3800,3800,0,12,-1,2,154,3938,4,4,859,1533,1640,1819,1923,1865,1635,1717,1839
43465,-42944,-12384,-44050,-11282,3800,3800,-1,13,1,-26,163,3914,3,9,859,1533,1640,1819,1923,1865,1635,1717,1839
44466,-42948,-12392,-44050,-11282,3800,3800,-3,11,1,22,174,3907,-6,1,859,1533,1640,1819,1923,1865,1635,1717,1839
45467,-42948,-12388,-44050,-11282,3800,3800,1,8,-3,11,165,3903,-9,-3,859,1533,1639,1817,1921,1866,1634,1718,1837
46468,-42948,-12392,-44050,-11282,3800,3800,1,9,-3,7,172,3909,-1,7,859,1533,1639,1817,1921,1866,1634,1718,1837
47469,-42948,-12384,-44050,-11282,3800,3800,0,9,1,-3,176,3908,5,3,859,1533,1639,1817,1921,1866,1634,1718,1837
48470,-42944,-12388,-44050,-11282,3800,3800,-4,10,0,-15,152,3890,10,-3,859,1533,1639,1817,1921,1866,1634,1718,1837
49471,-42948,-12380,-44050,-11282,3800,3800,-3,10,-2,12,157,3872,8,6,859,1533,1639,1817,1921,1866,1634,1718,1837
50472,-42948,-12400,-44050,-11282,3800,3800,-1,7,-1,11,119,3911,6,1,859,1533,1639,1817,1921,1866,1634,1718,1837
51473,-42948,-12396,-44050,-11282,3800,3800,1,9,1,-3,147,3938,9,-4,859,1533,1640,1819,1923,1865,1634,1716,1838
52474,-42936,-12392,-44050,-11282,3800,3800,1,11,2,-16,169,3919,9,1,859,1533,1640,1819,1923,1865,1634,1716,1838
53475,-42948,-12380,-44050,-11282,3800,3800,0,8,0,4,146,3928,3,10,858,1533,1640,1819,1923,1865,1634,1716,1838
54476,-42940,-12380,-44050,-11282,3800,3800,0,7,1,-5,166,3948,4,-5,859,1533,1640,1819,1923,1865,1634,1716,1838
55477,-42948,-12392,-44050,-11282,3800,3800,0,7,-1,-13,146,3916,8,1,859,1533,1640,1819,1923,1865,1634,1716,1838
56478,-42948,-12392,-44050,-11282,3800,3800,0,9,0,4,139,3901,10,8,859,1533,1639,1818,1923,1865,1634,1717,1838
57479,-42940,-12388,-44050,-11282,3800,3800,-1,9,1,-30,149,3908,10,-3,859,1533,1639,1818,1923,1865,1634,1717,1838
58480,-42948,-12396,-44050,-11282,3800,3800,-2,9,0,-1,153,3897,10,-4,859,1533,1639,1818,1923,1865,1634,1717,1838
59481,-42956,-12392,-44050,-11282,3800,3800,-2,9,-2,-8,160,3913,10,8,859,1533,1639,1818,1923,1865,1634,1717,1838
60482,-42944,-12400,-44050,-11282,3800,3800,0,10,-1,-16,140,3962,6,2,859,1533,1639,1818,1923,1865,1634,1717,1838
61483,-42948,-12388,-44050,-11282,3800,3800,2,9,-1,14,153,3954,10,-4,859,1533,1639,1818,1923,1865,1634,1717,1838
62484,-42952,-12388,-44050,-11282,3800,3800,5,6,-1,24,154,3928,9,3,859,1533,1642,1820,1926,1866,1633,1717,1837
63485,-42936,-12380,-44050,-11282,3800,3800,5,8,0,35,158,3937,9,8,859,1533,1642,1820,1926,1866,1633,1717,1837
64486,-42948,-12384,-44050,-11282,3800,3800,4,7,0,-10,171,3945,7,-3,859,1533,1642,1820,1926,1866,1633,1717,1837
65487,-42952,-12400,-44050,-11282,3800,3800,2,7,0,16,155,3955,-1,7,859,1533,1642,1820,1926,1866,1633,1717,1837
66488,-42948,-12380,-44050,-11282,3800,3800,3,7,0,3,161,3953,4,4,859,1533,1642,1820,1926,1866,1633,1717,1837
67489,-42944,-12392,-44050,-11282,3800,3800,4,10,0,18,155,3945,1,-4,859,1533,1640,1819,1924,1866,1634,1715,1835
68490,-42948,-12404,-44050,-11282,3800,3800,5,9,0,28,189,3925,-8,0,859,1533,1640,1819,1924,1866,1634,1715,1835
69491,-42944,-12392,-44050,-11282,3800,3800,4,5,-1,2,181,3881,-7,10,859,1533,1640,1819,1924,1866,1634,1715,1835
70492,-42948,-12392,-44050,-11282,3800,3800,3,5,-1,3,168,3908,-9,6,858,1533,1640,1819,1924,1866,1634,1715,1835
71493,-42956,-12376,-44050,-11282,3800,3800,5,4,-1,1,165,3925,-3,0,859,1533,1640,1819,1924,1866,1634,1715,1835
72494,-42940,-12408,-44050,-11282,3800,3800,6,7,2,11,180,3922,-6,9,859,1533,1640,1819,1924,1866,1634,1715,1835
73495,-42940,-12396,-44050,-11282,3800,3800,4,9,2,38,134,3914,-3,0,859,1534,1640,1818,1924,1865,1633,1716,1838
74496,-42948,-12384,-44050,-11282,3800,3800,5,7,-2,27,150,3955,-2,2,859,1534,1640,1818,1924,1865,1633,1716,1838
75497,-42948,-12388,-44050,-11282,3800,3800,4,7,-5,26,155,3962,-6,4,859,1534,1640,1818,1924,1865,1633,1716,1838
76498,-42940,-12384,-44050,-11282,3800,3800,2,9,-4,14,153,3942,-3,-4,859,1534,1640,1818,1924,1865,1633,1716,1838
77499,-42940,-12388,-44050,-11282,3800,3800,2,11,-2,16,161,3927,-1,10,859,1534,1640,1818,1924,1865,1633,1716,1838
78500,-42956,-12396,-44050,-11282,3800,3800,4,10,0,8,166,3934,-4,-3,859,1533,1640,1819,1923,1865,1634,1716,1838
79501,-42956,-12396,-44050,-11282,3800,3800,3,5,1,16,158,3932,-1,4,859,1533,1640,1819,1923,1865,1634,1716,1838
80502,-42948,-12384,-44050,-11282,3800,3800,1,7,0,21,152,3935,2,2,859,1533,1640,1819,1923,1865,1634,1716,1838
81503,-42944,-12384,-44050,-11282,3800,3800,0,8,0,7,149,3920,2,-3,859,1533,1640,1819,1923,1865,1634,1716,1838
82504,-42944,-12392,-44050,-11282,3800,3800,2,9,-1,6,145,3948,9,9,859,1533,1640,1819,1923,1865,1634,1716,1838
83505,-42944,-12388,-44050,-11282,3800,3800,3,6,-2,29,177,3953,10,-1,859,1533,1640,1819,1923,1865,1634,1716,1838
84506,-42944,-12388,-44050,-11282,3800,3800,3,7,1,33,192,3906,10,5,859,1533,1641,1817,1926,1868,1636,1718,1840
85507,-42936,-12384,-44050,-11282,3800,3800,1,7,2,7,202,3919,8,9,859,1533,1641,1817,1926,1868,1636,1718,1840
86508,-42948,-12392,-44050,-11282,3800,3800,3,10,0,6,154,3927,9,-5,859,1533,1641,1817,1926,1868,1636,1718,1840
87509,-42940,-12396,-44050,-11282,3800,3800,3,8,-2,14,158,3903,10,9,859,1533,1641,1817,1926,1868,1636,1718,1840
88510,-42948,-12392,-44050,-11282,3800,3800,2,8,-3,18,170,3923,9,-1,859,1533,1641,1817,1926,1868,1636,1718,1840
89511,-42952,-12388,-44050,-11282,3800,3800,2,8,-1,13,184,3939,9,4,859,1533,1639,1818,1923,1865,1634,1717,1839
90512,-42936,-12400,-44050,-11282,3800,3800,3,9,-2,28,189,3929,10,2,859,1533,1639,1818,1923,1865,1634,1717,1839
91513,-42948,-12388,-44050,-11282,3800,3800,1,11,-4,26,171,3967,10,-4,860,1533,1639,1818,1923,1865,1634,1717,1839
92514,-42952,-12384,-44050,-11282,3800,3800,2,10,-4,19,171,3970,10,10,860,1533,1639,1818,1923,1865,1634,1717,1839
93515,-42944,-12384,-44050,-11282,3800,3800,0,12,-2,-13,168,3928,5,-1,859,1533,1639,1818,1923,1865,1634,1717,1839
94516,-42960,-12408,-44050,-11282,3800,3800,1,11,1,19,153,3915,1,-1,859,1533,1639,1818,1923,1865,1634,1717,1839
95517,-42948,-12388,-44050,-11282,3800,3800,-1,10,-2,27,146,3924,-3,4,859,1534,1639,1819,1924,1866,1635,1716,1838
96518,-42944,-12388,-44050,-11282,3800,3800,0,8,-3,12,161,3938,-9,0,859,1534,1639,1819,1924,1866,1635,1716,1838
97519,-42944,-12384,-44050,-11282,3800,3800,-2,9,-1,-13,141,3908,-9,10,859,1534,1639,1819,1924,1866,1635,1716,1838
98520,-42944,-12388,-44050,-11282,3800,3800,-2,9,0,12,163,3922,-8,-5,859,1534,1639,1819,1924,1866,1635,1716,1838
99521,-42944,-12384,-44050,-11282,3800,3800,-1,11,2,9,165,3928,-3,10,859,1534,1639,1819,1924,1866,1635,1716,1838
100522,-42952,-12392,-44050,-11282,3800,3800,1,10,0,11,195,3958,8,-4,859,1533,1642,1820,1926,1866,1634,1717,1838
101523,-42960,-12396,-44050,-11282,3800,3800,2,12,-1,3,184,3943,10,10,859,1533,1642,1820,1926,1866,1634,1717,1838
102524,-42948,-12388,-44050,-11282,3800,3800,0,9,-1,22,161,3929,2,-4,859,1533,1642,1820,1926,1866,1634,1717,1838
103525,-42948,-12388,-44050,-11282,3800,3800,0,9,-2,16,160,3956,-7,1,859,1533,1642,1820,1926,1866,1634,1717,1838
104526,-42936,-12404,-44050,-11282,3800,3800,0,12,-3,4,163,3931,-9,2,858,1533,1642,1820,1926,1866,1634,1717,1838
105527,-42956,-12416,-44050,-11282,3800,3800,-3,10,-3,26,176,3920,-7,10,859,1533,1642,1820,1926,1866,1634,1717,1838
106528,-42956,-12380,-44050,-11282,3800,3800,-3,10,-1,28,147,3935,2,-1,859,1533,1640,1819,1924,1866,1633,1714,1839
107529,-42944,-12396,-44050,-11282,3800,3800,-3,11,-1,18,165,3905,5,7,859,1533,1640,1819,1924,1866,1633,1714,1839
108530,-42948,-12384,-44050,-11282,3800,3800,-3,10,0,18,160,3930,9,-3,859,1533,1640,1819,1924,1866,1633,1714,1839
109531,-42948,-12388,-44050,-11282,3800,3800,-2,9,0,-7,154,3905,10,0,859,1533,1640,1819,1924,1866,1633,1714,1839
110532,-42956,-12400,-44050,-11282,3800,3800,-1,10,2,7,157,3937,9,3,860,1533,1640,1819,1924,1866,1633,1714,1839
111533,-42948,-12392,-44050,-11282,3800,3800,0,10,5,8,171,3936,2,3,859,1533,1640,1819,1923,1865,1634,1717,1839
112534,-42948,-12384,-44050,-11282,3800,3800,-2,8,3,6,153,3937,1,10,859,1533,1640,1819,1923,1865,1634,1717,1839
113535,-42952,-12392,-44050,-11282,3800,3800,-5,8,0,-3,192,3950,0,-4,859,1533,1640,1819,1923,1865,1634,1717,1839
114536,-42944,-12392,-44050,-11282,3800,3800,-2,10,-1,10,142,3934,-6,6,859,1533,1640,1819,1923,1865,1634,1717,1839
115537,-42948,-12396,-44050,-11282,3800,3800,2,10,1,-2,145,3932,-6,6,859,1533,1640,1819,1923,1865,1634,1717,1839
116538,-42944,-12380,-44050,-11282,3800,3800,2,11,0,6,147,3926,-8,1,859,1533,1640,1819,1923,1865,1634,1717,1839
117539,-42940,-12396,-44050,-11282,3800,3800,-3,11,1,24,140,3945,-7,3,859,1533,1640,1819,1923,1867,1635,1717,1840
118540,-42952,-12392,-44050,-11282,3800,3800,0,9,1,18,166,3930,-7,-3,859,1533,1640,1819,1923,1867,1635,1717,1840
119541,-42944,-12404,-44050,-11282,3800,3800,1,9,0,10,157,3880,-9,9,859,1533,1640,1819,1923,1867,1635,1717,1840
120542,-42952,-12392,-44050,-11282,3800,3800,1,10,-1,25,165,3919,-1,-5,859,1533,1640,1819,1923,1867,1635,1717,1840
121543,-42944,-12392,-44050,-11282,3800,3800,1,7,0,14,163,3951,4,9,858,1533,1640,1819,1923,1867,1635,1717,1840
122544,-42948,-12380,-44050,-11282,3800,3800,2,5,-3,-15,152,3930,6,-4,859,1533,1637,1818,1925,1866,1636,1716,1840
123545,-42940,-12396,-44050,-11282,3800,3800,1,6,-3,-3,145,3924,9,10,859,1533,1637,1818,1925,1866,1636,1716,1840
124546,-42952,-12404,-44050,-11282,3800,3800,2,8,0,2,120,3900,6,-3,859,1533,1637,1818,1925,1866,1636,1716,1840
125547,-42948,-12400,-44050,-11282,3800,3800,3,8,1,-6,140,3936,3,9,859,1533,1637,1818,1925,1866,1636,1716,1840
126548,-42944,-12392,-44050,-11282,3800,3800,3,8,1,0,142,3928,-5,-3,859,1533,1637,1818,1925,1866,1636,1716,1840
127549,-42944,-12392,-44050,-11282,3800,3800,1,8,4,-10,146,3938,-9,5,859,1533,1637,1818,1925,1866,1636,1716,1840
128550,-42948,-12380,-44050,-11282,3800,3800,0,12,2,15,159,3940,-8,1,859,1533,1640,1819,1923,1865,1634,1716,1837
129551,-42952,-12384,-44050,-11282,3800,3800,1,10,1,-2,133,3953,-1,2,859,1533,1640,1819,1923,1865,1634,1716,1837
130552,-42940,-12400,-44050,-11282,3800,3800,0,10,1,25,161,3966,4,9,859,1533,1640,1819,1923,1865,1634,1716,1837
131553,-42944,-12400,-44050,-11282,3800,3800,2,9,5,21,163,3970,6,-4,859,1533,1640,1819,1923,1865,1634,1716,1837
132554,-42952,-12388,-44050,-11282,3800,3800,5,6,2,14,155,3925,10,7,859,1533,1640,1819,1923,1865,1634,1716,1837
133555,-42948,-12388,-44050,-11282,3800,3800,3,5,-1,17,167,3922,9,-4,859,1533,1639,1818,1924,1866,1634,1716,1838
134556,-42948,-12376,-44050,-11282,3800,3800,3,8,-4,0,177,3931,9,9,859,1533,1639,1818,1924,1866,1634,1716,1838
135557,-42956,-12380,-44050,-11282,3800,3800,3,9,-2,9,184,3934,2,-5,859,1533,1639,1818,1924,1866,1634,1716,1838
136558,-42944,-12388,-44050,-11282,3800,3800,4,7,-2,-10,178,3916,1,8,859,1533,1639,1818,1924,1866,1634,1716,1838
137559,-42944,-12388,-44050,-11282,3800,3800,5,7,-2,2,162,3948,5,-2,859,1533,1639,1818,1924,1866,1634,1716,1838
138560,-42952,-12392,-44050,-11282,3800,3800,5,7,-1,8,171,3971,-5,8,858,1533,1639,1818,1924,1866,1634,1716,1838
139561,-42944,-12396,-44050,-11282,3800,3800,6,8,-2,-3,149,3942,-3,-5,859,1535,1641,1820,1924,1864,1633,1716,1839
140562,-42956,-12384,-44050,-11282,3800,3800,5,8,-3,-14,164,3934,-9,9,859,1535,1641,1820,1924,1864,1633,1716,1839
141563,-42948,-12388,-44050,-11282,3800,3800,2,6,-1,20,175,3921,2,-3,859,1535,1641,1820,1924,1864,1633,1716,1839
142564,-42944,-12404,-44050,-11282,3800,3800,2,7,0,-11,173,3945,6,1,859,1535,1641,1820,1924,1864,1633,1716,1839
143565,-42940,-12392,-44050,-11282,3800,3800,3,7,-3,1,159,3935,7,3,859,1535,1641,1820,1924,1864,1633,1716,1839
144566,-42952,-12388,-44050,-11282,3800,3800,4,6,-3,17,173,3924,10,0,860,1534,1640,1819,1924,1867,1633,1713,1838
145567,-42956,-12388,-44050,-11282,3800,3800,3,3,-2,20,176,3900,9,10,859,1534,1640,1819,1924,1867,1633,1713,1838
146568,-42952,-12396,-44050,-11282,3800,3800,0,3,0,12,148,3929,6,-5,859,1534,1640,1819,1924,1867,1633,1713,1838
147569,-42940,-12388,-44050,-11282,3800,3800,1,5,-2,-14,172,3923,-5,9,859,1534,1640,1819,1924,1867,1633,1713,1838
148570,-42948,-12392,-44050,-11282,3800,3800,3,7,-3,-15,188,3933,-8,7,859,1534,1640,1819,1924,1867,1633,1713,1838
149571,-42936,-12380,-44050,-11282,3800,3800,6,6,-2,26,154,3977,-9,-3,859,1534,1640,1819,1924,1867,1633,1713,1838
150572,-42952,-12392,-44050,-11282,3800,3800,6,7,-1,29,159,3963,2,7,859,1533,1640,1818,1923,1866,1635,1716,1839
151573,-42940,-12380,-44050,-11282,3800,3800,4,6,0,34,188,3967,10,-4,859,1533,1640,1818,1923,1866,1635,1716,1839
152574,-42956,-12388,-44050,-11282,3800,3800,4,6,-2,41,191,3944,6,7,859,1533,1640,1818,1923,1866,1635,1716,1839
153575,-42944,-12392,-44050,-11282,3800,3800,3,5,-1,4,177,3930,-9,1,859,1533,1640,1818,1923,1866,1635,1716,1839
154576,-42948,-12388,-44050,-11282,3800,3800,2,8,0,-3,170,3931,-7,-1,859,1533,1640,1818,1923,1866,1635,1716,1839
155577,-42952,-12380,-44050,-11282,3800,3800,0,6,-3,12,177,3914,4,8,859,1534,1640,1820,1924,1865,1634,1716,1839
156578,-42944,-12388,-44050,-11282,3800,3800,0,7,-1,-7,157,3929,9,-3,859,1534,1640,1820,1924,1865,1634,1716,1839
157579,-42948,-12388,-44050,-11282,3800,3800,2,8,-2,2,172,3957,-4,9,859,1534,1640,1820,1924,1865,1634,1716,1839
158580,-42940,-12388,-44050,-11282,3800,3800,3,8,-1,17,195,3985,-9,-3,859,1534,1640,1820,1924,1865,1634,1716,1839
159581,-42956,-12388,-44050,-11282,3800,3800,2,10,0,11,191,3981,1,6,859,1534,1640,1820,1924,1865,1634,1716,1839
160582,-42964,-12388,-44050,-11282,3800,3800,0,10,-1,16,174,3930,9,8,859,1534,1640,1820,1924,1865,1634,1716,1839
161583,-42948,-12388,-44050,-11282,3800,3800,-3,8,-3,18,182,3901,5,-5,859,1534,1640,1819,1925,1863,1633,1717,1839
162584,-42948,-12396,-44050,-11282,3800,3800,-2,10,1,20,177,3938,-8,10,859,1534,1640,1819,1925,1863,1633,1717,1839
163585,-42948,-12392,-44050,-11282,3800,3800,-2,12,3,22,149,3948,-10,0,859,1534,1640,1819,1925,1863,1633,1717,1839
164586,-42944,-12384,-44050,-11282,3800,3800,-1,10,0,31,156,3972,-9,4,859,1534,1640,1819,1925,1863,1633,1717,1839
165587,-42944,-12400,-44050,-11282,3800,3800,1,11,0,8,174,3960,3,-2,859,1534,1640,1819,1925,1863,1633,1717,1839
166588,-42948,-12400,-44050,-11282,3800,3800,1,12,-1,24,157,3921,8,1,859,1533,1639,1818,1923,1865,1634,1717,1839
167589,-42944,-12396,-44050,-11282,3800,3800,0,12,-1,20,173,3919,7,8,859,1533,1639,1818,1923,1865,1634,1717,1839
168590,-42944,-12388,-44050,-11282,3800,3800,0,12,1,3,178,3934,-9,-5,859,1533,1639,1818,1923,1865,1634,1717,1839
169591,-42948,-12392,-44050,-11282,3800,3800,0,13,1,22,171,3928,-7,8,859,1533,1639,1818,1923,1865,1634,1717,1839
170592,-42948,-12396,-44050,-11282,3800,3800,0,9,1,6,185,3892,5,-2,859,1533,1639,1818,1923,1865,1634,1717,1839
171593,-42948,-12396,-44050,-11282,3800,3800,0,7,-1,0,169,3908,6,7,859,1533,1639,1818,1923,1865,1634,1717,1839
172594,-42944,-12388,-44050,-11282,3800,3800,-1,9,-1,9,176,3924,3,3,858,1533,1640,1819,1923,1865,1634,1716,1839
173595,-42956,-12384,-44050,-11282,3800,3800,-1,12,1,-5,158,3923,6,8,859,1533,1640,1819,1923,1865,1634,1716,1839
174596,-42956,-12388,-44050,-11282,3800,3800,-5,10,1,-14,152,3936,-9,-3,859,1533,1640,1819,1923,1865,1634,1716,1839
175597,-42952,-12392,-44050,-11282,3800,3800,-5,7,0,-6,161,3930,-8,2,859,1533,1640,1819,1923,1865,1634,1716,1839
176598,-42936,-12388,-44050,-11282,3800,3800,-3,8,1,-1,167,3918,-6,1,859,1533,1640,1819,1923,1865,1634,1716,1839
177599,-42948,-12388,-44050,-11282,3800,3800,-3,11,1,11,170,3921,6,7,859,1533,1640,1821,1923,1863,1634,1718,1842
178600,-42944,-12388,-44050,-11282,3800,3800,-4,11,2,-3,192,3936,9,2,859,1533,1640,1821,1923,1863,1634,1718,1842
179601,-42952,-12396,-44050,-11282,3800,3800,-1,11,2,19,169,3956,10,1,859,1533,1640,1821,1923,1863,1634,1718,1842
180602,-42948,-12392,-44050,-11282,3800,3800,1,10,0,16,135,3949,1,2,859,1533,1640,1821,1923,1863,1634,1718,1842
181603,-42956,-12392,-44050,-11282,3800,3800,0,10,-2,21,129,3939,-9,-2,859,1533,1640,1821,1923,1863,1634,1718,1842
182604,-42948,-12400,-44050,-11282,3800,3800,-1,11,-2,24,165,3945,-3,5,859,1533,1640,1821,1923,1863,1634,1718,1842
183605,-42952,-12392,-44050,-11282,3800,3800,-1,12,-2,27,179,3894,10,-1,859,1533,1639,1819,1923,1865,1634,1716,1840
184606,-42956,-12384,-44050,-11282,3800,3800,1,11,1,16,170,3925,6,9,859,1533,1639,1819,1923,1865,1634,1716,1840
185607,-42948,-12396,-44050,-11282,3800,3800,1,9,-1,13,175,3931,-5,-5,859,1533,1639,1819,1923,1865,1634,1716,1840
186608,-42968,-12396,-44050,-11282,3800,3800,0,8,-1,5,158,3928,-8,9,859,1533,1639,1819,1923,1865,1634,1716,1840
187609,-42952,-12388,-44050,-11282,3800,3800,-2,10,-3,-3,162,3922,2,5,859,1533,1639,1819,1923,1865,1634,1716,1840
188610,-42948,-12392,-44050,-11282,3800,3800,-1,6,-2,25,176,3900,10,0,859,1533,1640,1818,1923,1865,1633,1716,1839
189611,-42948,-12392,-44050,-11282,3800,3800,1,8,-1,12,160,3928,-5,-1,859,1533,1640,1818,1923,1865,1633,1716,1839
190612,-42952,-12372,-44050,-11282,3800,3800,1,9,0,-17,146,3924,-7,6,859,1533,1640,1818,1923,1865,1633,1716,1839
191613,-42948,-12380,-44050,-11282,3800,3800,1,12,-1,6,122,3893,-6,-2,859,1533,1640,1818,1923,1865,1633,1716,1839
192614,-42956,-12372,-44050,-11282,3800,3800,0,13,-1,-4,136,3928,9,8,859,1533,1640,1818,1923,1865,1633,1716,1839
193615,-42960,-12392,-44050,-11282,3800,3800,0,11,-1,-5,193,3944,9,-1,859,1533,1640,1818,1923,1865,1633,1716,1839
194616,-42944,-12392,-44050,-11282,3800,3800,0,11,0,12,147,3951,-4,7,859,1533,1640,1819,1924,1865,1631,1714,1839
195617,-42952,-12392,-44050,-11282,3800,3800,0,11,-1,9,152,3942,-7,-2,859,1533,1640,1819,1924,1865,1631,1714,1839
196618,-42948,-12384,-44050,-11282,3800,3800,2,9,-3,6,135,3968,8,-1,859,1533,1640,1819,1924,1865,1631,1714,1839
197619,-42948,-12392,-44050,-11282,3800,3800,1,8,-2,0,151,3953,6,9,859,1533,1640,1819,1924,1865,1631,1714,1839
198620,-42952,-12380,-44050,-11282,3800,3800,2,7,-2,-11,170,3914,-9,-4,859,1533,1640,1819,1924,1865,1631,1714,1839
199621,-42948,-12388,-44050,-11282,3800,3800,3,5,-2,10,161,3912,-4,3,859,1534,1639,1819,1924,1864,1634,1716,1839
200622,-42952,-12388,-43985,-11217,-786,1854,3,8,0,7,149,3910,9,6,859,1534,1639,1819,1924,1864,1634,1716,1839
201623,-42948,-12384,-43920,-11152,-813,1878,2,9,1,25,165,3973,-5,-2,847,1534,1639,1819,1924,1864,1634,1716,1839
202624,-42940,-12360,-43855,-11087,-793,1678,4,9,0,-10,157,3962,-2,8,847,1534,1639,1819,1924,1864,1634,1716,1839
203625,-42952,-12316,-43790,-11022,-450,1455,3,5,4,-80,200,4021,13,17,850,1534,1639,1819,1924,1864,1634,1716,1839
204626,-42948,-12248,-43725,-10957,-576,1151,8,-17,13,-92,299,4012,-4,40,852,1534,1639,1819,1924,1864,1634,1716,1839
205627,-42936,-12180,-43660,-10892,-611,1149,17,-47,9,-151,197,4046,12,49,853,1533,1640,1800,1924,1866,1633,1716,1840
206628,-42940,-12076,-43595,-10827,-328,651,23,-66,3,-233,162,4171,2,41,853,1533,1640,1800,1924,1866,1633,1716,1840
207629,-42960,-11976,-43530,-10762,-24,659,29,-84,0,-144,188,4190,8,52,856,1533,1640,1800,1924,1866,1633,1716,1840
208630,-42964,-11884,-43465,-10697,-140,726,32,-91,-12,-93,173,4109,3,56,856,1533,1640,1800,1924,1866,1633,1716,1840
209631,-42952,-11796,-43400,-10632,-275,749,29,-69,-27,-39,69,4065,12,52,852,1533,1640,1800,1924,1866,1633,1716,1840
210632,-42948,-11708,-43335,-10567,-101,721,17,-49,-40,8,51,4131,-3,63,856,1535,1644,1824,1929,1868,1636,1720,1839
211633,-42940,-11600,-43270,-10502,-82,420,12,-27,-37,-154,109,4176,-5,59,856,1535,1644,1824,1929,1868,1636,1720,1839
212634,-42948,-11504,-43205,-10437,207,532,11,-18,-38,-247,67,4017,4,51,856,1535,1644,1824,1929,1868,1636,1720,1839
213635,-42948,-11404,-43140,-10372,186,439,9,-25,-54,-188,52,4087,2,49,857,1535,1644,1824,1929,1868,1636,1720,1839
214636,-42952,-11308,-43075,-10307,320,452,6,-48,-58,-323,62,4123,12,63,857,1535,1644,1824,1929,1868,1636,1720,1839
215642,-42944,-11196,-43010,-10242,240,195,12,-89,-51,-454,95,4004,4,65,857,1535,1644,1824,1929,1868,1636,1720,1839
216638,-42944,-11100,-42945,-10177,419,358,13,-123,-56,-345,77,3992,4,66,857,1547,1657,1835,1941,1874,1643,1730,1854
217639,-42924,-11012,-42880,-10112,224,430,10,-158,-61,-262,8,4109,6,58,856,1547,1657,1835,1941,1874,1643,1730,1854
218640,-42944,-10912,-42815,-10047,828,237,7,-160,-59,-194,-4,4029,-1,53,857,1547,1657,1835,1941,1874,1643,1730,1854
219641,-42932,-10816,-42750,-9982,493,251,-3,-163,-61,-310,24,4076,5,59,854,1547,1657,1835,1941,1874,1643,1730,1854
220642,-42928,-10724,-42685,-9917,667,268,-4,-161,-72,-124,-9,3970,18,63,856,1547,1657,1835,1941,1874,1643,1730,1854
221643,-42900,-10624,-42620,-9852,412,125,-9,-162,-82,-85,-40,4071,12,58,855,1551,1657,1835,1943,1878,1647,1734,1856
222644,-42892,-10528,-42555,-9787,732,138,0,-172,-67,-64,40,4138,24,55,857,1551,1657,1835,1943,1878,1647,1734,1856
223645,-42864,-10452,-42490,-9722,528,375,14,-189,-60,-48,90,3981,26,41,854,1551,1657,1835,1943,1878,1647,1734,1856
224646,-42836,-10360,-42425,-9657,573,142,22,-215,-75,-80,14,4030,14,45,856,1551,1657,1835,1943,1878,1647,1734,1856
225647,-42808,-10292,-42360,-9592,618,438,34,-244,-75,-191,58,4042,24,38,856,1551,1657,1835,1943,1878,1647,1734,1856
226648,-42764,-10228,-42295,-9527,444,490,42,-271,-60,-43,-30,4034,16,43,855,1551,1657,1835,1943,1878,1647,1734,1856
227649,-42744,-10156,-42230,-9462,799,382,57,-257,-54,76,46,4089,27,44,855,1547,1651,1828,1938,1873,1645,1731,1852
228650,-42708,-10096,-42165,-9397,634,538,68,-255,-42,-29,43,3976,36,41,854,1547,1651,1828,1938,1873,1645,1731,1852
229651,-42664,-10040,-42100,-9332,561,599,76,-258,-29,-125,119,4090,24,39,854,1547,1651,1828,1938,1873,1645,1731,1852
230652,-42604,-9960,-42035,-9267,367,281,85,-268,-19,-171,13,3979,32,38,855,1547,1651,1828,1938,1873,1645,1731,1852
231653,-42544,-9900,-41970,-9202,373,538,101,-279,-7,22,131,3921,43,35,857,1547,1651,1828,1938,1873,1645,1731,1852
232654,-42504,-9836,-41905,-9137,654,489,117,-307,10,-66,123,3929,37,44,856,1544,1645,1825,1941,1875,1650,1734,1851
233655,-42464,-9768,-41840,-9072,684,435,137,-334,17,-164,132,3795,27,34,854,1544,1645,1825,1941,1875,1650,1734,1851
234656,-42412,-9732,-41775,-9007,551,872,146,-348,21,-171,138,3910,34,44,855,1544,1645,1825,1941,1875,1650,1734,1851
235657,-42352,-9664,-41710,-8942,457,468,154,-342,30,130,156,3932,45,40,853,1544,1645,1825,1941,1875,1650,1734,1851
236658,-42276,-9600,-41645,-8877,244,519,154,-328,43,82,62,3749,41,41,856,1544,1645,1825,1941,1875,1650,1734,1851
237659,-42232,-9540,-41580,-8812,669,576,160,-311,47,70,119,3886,49,31,856,1551,1651,1830,1955,1882,1656,1740,1854
238660,-42164,-9488,-41515,-8747,367,692,172,-281,44,36,101,3888,39,30,854,1551,1651,1830,1955,1882,1656,1740,1854
239661,-42104,-9448,-41450,-8682,473,873,191,-260,37,177,147,3961,41,40,855,1551,1651,1830,1955,1882,1656,1740,1854
240662,-42040,-9400,-41385,-8617,424,793,212,-255,32,123,77,3786,43,41,853,1551,1651,1830,1955,1882,1656,1740,1854
241663,-41972,-9356,-41320,-8552,370,870,223,-243,30,212,118,4000,47,38,854,1551,1651,1830,1955,1882,1656,1740,1854
242664,-41892,-9280,-41255,-8487,203,457,227,-246,35,-108,9,3773,47,36,854,1551,1651,1830,1955,1882,1656,1740,1854
243665,-41844,-9232,-41190,-8422,624,827,230,-227,38,16,133,3930,46,36,857,1560,1657,1841,1964,1886,1659,1741,1854
244666,-41768,-9176,-41125,-8357,260,739,234,-186,35,168,134,4114,46,45,853,1560,1657,1841,1964,1886,1659,1741,1854
245667,-41728,-9100,-41060,-8292,741,476,243,-169,31,216,172,3826,43,42,855,1560,1657,1841,1964,1886,1659,1741,1854
246668,-41652,-9052,-40995,-8227,279,847,258,-175,35,62,125,3927,34,35,854,1560,1657,1841,1964,1886,1659,1741,1854
247669,-41584,-8988,-40930,-8162,375,648,257,-188,41,2,21,3762,38,36,854,1560,1657,1841,1964,1886,1659,1741,1854
248670,-41536,-8940,-40865,-8097,646,870,250,-186,36,45,48,3854,29,30,855,1563,1658,1845,1973,1887,1663,1743,1856
249671,-41480,-8896,-40800,-8032,557,945,243,-176,53,16,140,3952,45,41,853,1563,1658,1845,1973,1887,1663,1743,1856
250672,-41424,-8832,-40735,-7967,569,696,231,-156,66,162,83,3919,34,31,852,1563,1658,1845,1973,1887,1663,1743,1856
251673,-41376,-8772,-40670,-7902,689,754,226,-171,89,136,-1,3949,33,41,854,1563,1658,1845,1973,1887,1663,1743,1856
252674,-41300,-8712,-40605,-7837,326,760,225,-174,104,111,43,3935,35,40,853,1563,1658,1845,1973,1887,1663,1743,1856
253675,-41224,-8660,-40540,-7772,312,875,227,-178,115,120,-25,3901,41,37,855,1563,1658,1845,1973,1887,1663,1743,1856
254676,-41148,-8604,-40475,-7707,300,837,229,-166,121,236,-36,3857,38,30,854,1563,1659,1850,1978,1898,1672,1752,1868
255677,-41096,-8548,-40410,-7642,616,848,232,-151,122,341,92,4131,35,34,854,1563,1659,1850,1978,1898,1672,1752,1868
256678,-41016,-8508,-40345,-7577,248,1079,236,-116,129,278,117,4052,30,40,853,1563,1659,1850,1978,1898,1672,1752,1868
257679,-40944,-8444,-40280,-7512,339,781,236,-111,132,257,92,3848,47,35,852,1563,1659,1850,1978,1898,1672,1752,1868
258680,-40880,-8380,-40215,-7447,441,782,232,-115,134,159,132,3881,41,30,854,1563,1659,1850,1978,1898,1672,1752,1868
259681,-40820,-8328,-40150,-7382,497,949,229,-95,131,197,241,4092,41,43,854,1573,1669,1858,1983,1907,1677,1758,1877
260682,-40768,-8276,-40085,-7317,613,965,222,-75,117,292,211,3877,34,35,853,1573,1669,1858,1983,1907,1677,1758,1877
261683,-40704,-8220,-40020,-7252,464,926,213,-67,106,249,221,4013,34,45,852,1573,1669,1858,1983,1907,1677,1758,1877
262684,-40648,-8168,-39955,-7187,576,993,210,-73,107,-26,206,4088,45,32,853,1573,1669,1858,1983,1907,1677,1758,1877
263686,-40580,-8104,-39890,-7122,423,844,196,-70,110,22,236,3984,43,32,852,1573,1669,1858,1983,1907,1677,1758,1877
264686,-40516,-8032,-39825,-7057,474,736,184,-62,113,85,241,4056,37,47,854,1573,1669,1858,1983,1907,1677,1758,1877
265687,-40468,-7984,-39760,-6992,695,1057,181,-71,115,98,275,4044,43,44,854,1580,1673,1863,1991,1908,1679,1759,1881
266688,-40404,-7940,-39695,-6927,497,1133,172,-76,115,39,248,4028,34,42,851,1580,1673,1863,1991,1908,1679,1759,1881
267689,-40344,-7884,-39630,-6862,553,994,172,-75,116,35,219,4027,49,30,851,1580,1673,1863,1991,1908,1679,1759,1881
268690,-40288,-7832,-39565,-6797,614,1061,168,-90,128,-136,253,4084,32,34,852,1580,1673,1863,1991,1908,1679,1759,1881
269691,-40224,-7776,-39500,-6732,516,1022,168,-87,143,-19,257,4044,33,33,851,1580,1673,1863,1991,1908,1679,1759,1881
270692,-40176,-7700,-39435,-6667,737,759,159,-67,151,54,237,4219,48,34,852,1584,1680,1870,1997,1912,1684,1765,1883
271693,-40108,-7660,-39370,-6602,483,1240,155,-67,160,36,301,4144,42,45,852,1584,1680,1870,1997,1912,1684,1765,1883
272694,-40044,-7624,-39305,-6537,535,1325,164,-48,165,-13,334,4156,46,33,851,1584,1680,1870,1997,1912,1684,1765,1883
273695,-39992,-7552,-39240,-6472,701,868,168,-37,163,200,351,3960,48,36,850,1584,1680,1870,1997,1912,1684,1765,1883
274696,-39916,-7504,-39175,-6407,388,1189,164,-32,174,169,340,4027,37,39,851,1584,1680,1870,1997,1912,1684,1765,1883
275697,-39856,-7452,-39110,-6342,594,1155,154,-35,181,1,348,3991,50,44,851,1584,1680,1870,1997,1912,1684,1765,1883
276698,-39784,-7396,-39045,-6277,437,1116,146,-34,171,-54,264,3900,34,41,851,1588,1687,1876,2003,1918,1688,1770,1889
277699,-39724,-7328,-38980,-6212,593,964,143,-39,165,34,305,3995,44,31,851,1588,1687,1876,2003,1918,1688,1770,1889
278700,-39664,-7288,-38915,-6147,599,1344,157,-62,162,27,427,3934,34,34,851,1588,1687,1876,2003,1918,1688,1770,1889
279701,-39604,-7232,-38850,-6082,605,1155,145,-73,149,69,381,3911,48,36,849,1588,1687,1876,2003,1918,1688,1770,1889
280702,-39524,-7168,-38785,-6017,338,1058,140,-100,147,47,385,3896,38,42,851,1588,1687,1876,2003,1918,1688,1770,1889
281703,-39472,-7112,-38720,-5952,703,1169,132,-103,145,76,442,4007,46,43,852,1593,1687,1877,2009,1914,1684,1768,1886
282704,-39408,-7044,-38655,-5887,555,1016,137,-97,130,189,429,4157,30,43,851,1593,1687,1877,2009,1914,1684,1768,1886
283705,-39332,-6968,-38590,-5822,391,902,139,-77,120,245,368,3994,50,43,852,1593,1687,1877,2009,1914,1684,1768,1886
284706,-39268,-6912,-38525,-5757,543,1164,154,-79,114,185,409,4214,50,48,853,1593,1687,1877,2009,1914,1684,1768,1886
285707,-39228,-6852,-38460,-5692,874,1121,152,-70,108,271,364,4104,39,33,851,1593,1687,1877,2009,1914,1684,1768,1886
286708,-39152,-6784,-38395,-5627,411,1017,165,-64,93,203,421,4044,47,40,849,1593,1687,1877,2009,1914,1684,1768,1886
287709,-39100,-6720,-38330,-5562,727,1069,157,-59,87,-66,385,4306,34,41,852,1599,1696,1884,2012,1908,1679,1765,1885
288710,-39036,-6656,-38265,-5497,579,1070,167,-69,91,90,271,3972,46,48,850,1599,1696,1884,2012,1908,1679,1765,1885
289711,-38968,-6592,-38200,-5432,525,1073,166,-79,82,50,453,4143,47,50,851,1599,1696,1884,2012,1908,1679,1765,1885
290712,-38916,-6532,-38135,-5367,742,1129,173,-97,83,-154,392,3890,32,41,851,1599,1696,1884,2012,1908,1679,1765,1885
291713,-38844,-6464,-38070,-5302,483,1026,173,-122,74,-27,453,3885,50,35,850,1599,1696,1884,2012,1908,1679,1765,1885
292714,-38788,-6404,-38005,-5237,694,1132,174,-146,72,-55,472,4012,35,38,852,1616,1716,1907,2043,1914,1688,1775,1892
293715,-38724,-6332,-37940,-5172,596,975,185,-140,63,86,464,3991,48,46,850,1616,1716,1907,2043,1914,1688,1775,1892
294716,-38652,-6288,-37875,-5107,488,1350,196,-140,54,-27,415,3992,41,36,851,1616,1716,1907,2043,1914,1688,1775,1892
295717,-38592,-6232,-37810,-5042,644,1211,204,-143,54,38,417,3825,42,46,850,1616,1716,1907,2043,1914,1688,1775,1892
296718,-38532,-6164,-37745,-4977,650,1058,212,-138,32,114,426,3750,38,48,850,1616,1716,1907,2043,1914,1688,1775,1892
297719,-38460,-6116,-37680,-4912,493,1329,218,-138,22,39,534,3986,33,39,851,1616,1716,1907,2043,1914,1688,1775,1892
298720,-38388,-6040,-37615,-4847,484,967,229,-145,20,44,490,3898,47,46,850,1639,1737,1930,2068,1913,1687,1775,1890
299721,-38308,-5988,-37550,-4782,366,1283,245,-141,6,158,464,3799,36,48,852,1639,1737,1930,2068,1913,1687,1775,1890
300722,-38252,-5912,-37485,-4717,677,970,262,-132,-8,24,529,4131,32,44,851,1639,1737,1930,2068,1913,1687,1775,1890
301723,-38200,-5872,-37420,-4652,744,1451,284,-127,-30,90,507,3911,41,36,851,1639,1737,1930,2068,1913,1687,1775,1890
302724,-38128,-5824,-37355,-4587,485,1373,291,-115,-67,218,418,3886,46,27,847,1639,1737,1930,2068,1913,1687,1775,1890
303725,-38060,-5768,-37290,-4522,531,1283,295,-123,-81,86,445,4032,44,29,849,1654,1748,1942,2080,1884,1665,1750,1859
304726,-38008,-5704,-37225,-4457,748,1186,306,-115,-84,-18,426,3956,37,40,850,1654,1748,1942,2080,1884,1665,1750,1859
305727,-37944,-5656,-37160,-4392,600,1406,308,-105,-100,122,350,3951,31,28,849,1654,1748,1942,2080,1884,1665,1750,1859
306728,-37880,-5612,-37095,-4327,601,1482,319,-116,-119,106,361,3904,42,40,849,1654,1748,1942,2080,1884,1665,1750,1859
307729,-37808,-5556,-37030,-4262,493,1344,320,-127,-135,48,314,3931,35,38,848,1654,1748,1942,2080,1884,1665,1750,1859
308730,-37748,-5512,-36965,-4197,649,1520,321,-114,-136,59,385,4118,33,27,848,1654,1748,1942,2080,1884,1665,1750,1859
309731,-37688,-5452,-36900,-4132,655,1327,317,-109,-130,134,347,3723,34,29,847,1670,1764,1958,2100,1856,1645,1731,1841
310732,-37632,-5404,-36835,-4067,716,1498,312,-107,-140,94,306,3865,30,34,849,1670,1764,1958,2100,1856,1645,1731,1841
311733,-37576,-5356,-36770,-4002,728,1519,321,-106,-141,-114,246,3906,48,41,847,1670,1764,1958,2100,1856,1645,1731,1841
312734,-37516,-5292,-36705,-3937,684,1321,322,-108,-147,-35,203,3742,50,46,847,1670,1764,1958,2100,1856,1645,1731,1841
313735,-37452,-5220,-36640,-3872,636,1213,334,-103,-145,-66,176,3847,43,36,848,1670,1764,1958,2100,1856,1645,1731,1841
314736,-37396,-5156,-36575,-3807,748,1314,342,-101,-140,82,182,3796,51,37,850,1693,1787,1989,2135,1857,1651,1737,1847
315737,-37336,-5096,-36510,-3742,704,1371,349,-96,-140,50,161,3794,39,48,848,1693,1787,1989,2135,1857,1651,1737,1847
316738,-37276,-5048,-36445,-3677,710,1543,356,-88,-144,-25,179,3729,51,36,848,1693,1787,1989,2135,1857,1651,1737,1847
317739,-37216,-4972,-36380,-3612,717,1180,356,-108,-141,-25,124,3618,47,46,847,1693,1787,1989,2135,1857,1651,1737,1847
318740,-37120,-4908,-36315,-3547,229,1332,365,-98,-151,53,239,3794,45,38,850,1693,1787,1989,2135,1857,1651,1737,1847
319741,-37060,-4848,-36250,-3482,685,1388,383,-91,-161,-134,263,3872,52,37,851,1693,1787,1989,2135,1857,1651,1737,1847
320742,-36996,-4788,-36185,-3417,636,1395,390,-95,-180,34,288,3760,41,48,848,1719,1810,2015,2163,1864,1656,1742,1853
321743,-36928,-4704,-36120,-3352,584,1072,396,-93,-207,146,317,3843,34,51,848,1719,1810,2015,2163,1864,1656,1742,1853
322744,-36868,-4652,-36055,-3287,690,1489,402,-91,-221,-95,436,3941,35,51,851,1719,1810,2015,2163,1864,1656,1742,1853
323745,-36804,-4600,-35990,-3222,641,1505,412,-72,-246,109,432,3862,41,42,847,1719,1810,2015,2163,1864,1656,1742,1853
324746,-36716,-4532,-35925,-3157,314,1302,412,-74,-275,179,463,3864,37,43,847,1719,1810,2015,2163,1864,1656,1742,1853
325747,-36664,-4460,-35860,-3092,780,1243,418,-70,-278,8,491,4024,45,35,849,1732,1822,2018,2168,1864,1651,1742,1851
326748,-36600,-4392,-35795,-3027,631,1291,422,-79,-299,353,436,3661,31,34,849,1732,1822,2018,2168,1864,1651,1742,1851
327749,-36532,-4344,-35730,-2962,579,1562,431,-99,-307,-41,328,4005,33,45,849,1732,1822,2018,2168,1864,1651,1742,1851
328750,-36472,-4276,-35665,-2897,685,1309,440,-114,-297,-51,229,3900,45,34,847,1732,1822,2018,2168,1864,1651,1742,1851
329751,-36412,-4224,-35600,-2832,691,1525,455,-129,-290,-15,222,3871,30,31,849,1732,1822,2018,2168,1864,1651,1742,1851
330752,-36356,-4160,-35535,-2767,753,1377,463,-117,-272,-27,202,4142,48,35,847,1732,1822,2018,2168,1864,1651,1742,1851
331753,-36296,-4116,-35470,-2702,709,1653,498,-103,-252,215,164,4075,42,37,847,1725,1814,2011,2157,1859,1651,1741,1855
332754,-36240,-4036,-35405,-2637,770,1185,518,-109,-234,244,219,3836,44,44,846,1725,1814,2011,2157,1859,1651,1741,1855
333755,-36180,-3988,-35340,-2572,726,1606,536,-131,-219,-23,234,4033,46,33,849,1725,1814,2011,2157,1859,1651,1741,1855
334756,-36144,-3940,-35275,-2507,1062,1628,550,-137,-213,-29,286,4156,32,40,846,1725,1814,2011,2157,1859,1651,1741,1855
335757,-36084,-3880,-35210,-2442,768,1484,560,-137,-218,239,334,4105,30,33,844,1725,1814,2011,2157,1859,1651,1741,1855
336758,-36012,-3812,-35145,-2377,610,1381,575,-148,-215,205,372,4234,35,39,847,1726,1815,2014,2165,1866,1655,1746,1858
337759,-35928,-3752,-35080,-2312,438,1488,571,-174,-210,31,279,3925,40,45,848,1726,1815,2014,2165,1866,1655,1746,1858
338760,-35868,-3704,-35015,-2247,744,1659,564,-202,-226,-107,336,3639,44,45,848,1726,1815,2014,2165,1866,1655,1746,1858
339761,-35808,-3648,-34950,-2182,750,1571,557,-249,-245,-96,585,3810,46,32,846,1726,1815,2014,2165,1866,1655,1746,1858
340762,-35748,-3600,-34885,-2117,757,1692,556,-283,-254,140,468,3883,30,33,846,1726,1815,2014,2165,1866,1655,1746,1858
341763,-35688,-3544,-34820,-2052,763,1604,550,-313,-251,140,330,3725,32,39,845,1726,1815,2014,2165,1866,1655,1746,1858
342764,-35616,-3460,-34755,-1987,605,1231,554,-337,-245,45,356,3836,42,38,845,1742,1831,2036,2190,1880,1668,1756,1872
343765,-35568,-3404,-34690,-1922,926,1593,561,-325,-258,140,387,3860,33,43,849,1742,1831,2036,2190,1880,1668,1756,1872
344766,-35512,-3368,-34625,-1857,837,1878,555,-303,-272,297,181,3964,42,32,845,1742,1831,2036,2190,1880,1668,1756,1872
345767,-35440,-3300,-34560,-1792,629,1475,562,-281,-276,378,252,4054,46,42,843,1742,1831,2036,2190,1880,1668,1756,1872
346768,-35384,-3244,-34495,-1727,841,1637,563,-266,-269,264,236,4045,34,36,847,1742,1831,2036,2190,1880,1668,1756,1872
347769,-35340,-3204,-34430,-1662,1016,1868,572,-243,-250,203,310,4223,37,40,845,1746,1830,2031,2177,1879,1665,1753,1868
348770,-35272,-3144,-34365,-1597,713,1625,580,-212,-250,277,275,4076,44,35,842,1746,1830,2031,2177,1879,1665,1753,1868
349771,-35216,-3080,-34300,-1532,875,1576,585,-194,-236,137,229,4142,32,40,846,1746,1830,2031,2177,1879,1665,1753,1868
350772,-35156,-3040,-34235,-1467,831,1908,587,-198,-217,22,249,4032,48,32,845,1746,1830,2031,2177,1879,1665,1753,1868
351773,-35092,-2988,-34170,-1402,782,1775,585,-203,-213,-85,338,4178,34,45,843,1746,1830,2031,2177,1879,1665,1753,1868
352774,-35016,-2924,-34105,-1337,620,1626,578,-223,-202,-195,383,4137,34,46,843,1746,1830,2031,2177,1879,1665,1753,1868
353775,-34968,-2844,-34040,-1272,990,1408,577,-241,-178,-199,399,4270,36,42,846,1730,1817,2021,2167,1877,1664,1749,1862
354776,-34912,-2788,-33975,-1207,901,1719,577,-257,-165,-104,443,4155,33,49,846,1730,1817,2021,2167,1877,1664,1749,1862
355777,-34860,-2744,-33910,-1142,968,1896,568,-275,-168,-95,450,4194,44,46,844,1730,1817,2021,2167,1877,1664,1749,1862
356778,-34796,-2668,-33845,-1077,819,1484,563,-289,-156,-162,339,4207,50,42,842,1730,1817,2021,2167,1877,1664,1749,1862
357779,-34732,-2616,-33780,-1012,822,1800,571,-309,-135,-106,466,4239,54,48,846,1730,1817,2021,2167,1877,1664,1749,1862
358780,-34676,-2548,-33715,-947,933,1597,566,-303,-129,-17,418,4176,36,36,844,1726,1815,2023,2177,1887,1671,1762,1880
359781,-34616,-2484,-33650,-882,889,1648,564,-277,-132,198,472,4252,38,48,844,1726,1815,2023,2177,1887,1671,1762,1880
360782,-34560,-2416,-33585,-817,951,1595,559,-267,-125,118,467,4287,54,47,844,1726,1815,2023,2177,1887,1671,1762,1880
361783,-34504,-2360,-33520,-752,962,1757,565,-232,-124,329,464,4339,42,46,845,1726,1815,2023,2177,1887,1671,1762,1880
362784,-34452,-2292,-33455,-687,1028,1604,560,-211,-115,430,418,4183,54,37,843,1726,1815,2023,2177,1887,1671,1762,1880
363785,-34376,-2220,-33390,-622,715,1546,552,-194,-99,318,437,4277,55,44,845,1726,1815,2023,2177,1887,1671,1762,1880
364786,-34316,-2164,-33325,-557,921,1757,538,-180,-86,243,345,4006,47,36,846,1749,1838,2048,2199,1902,1686,1774,1896
365787,-34244,-2108,-33260,-492,764,1769,534,-157,-86,240,453,4324,52,45,844,1749,1838,2048,2199,1902,1686,1774,1896
366788,-34152,-2052,-33195,-427,481,1781,532,-151,-71,168,471,4224,42,33,844,1749,1838,2048,2199,1902,1686,1774,1896
367789,-34080,-1984,-33130,-362,722,1627,529,-144,-66,290,525,4255,46,31,845,1749,1838,2048,2199,1902,1686,1774,1896
368790,-34016,-1928,-33065,-297,824,1789,517,-155,-55,96,544,4178,38,44,846,1749,1838,2048,2199,1902,1686,1774,1896
369791,-33952,-1888,-33000,-232,826,2021,503,-153,-50,68,643,4170,50,45,844,1768,1854,2064,2216,1912,1696,1777,1896
370792,-33888,-1832,-32935,-167,827,1832,495,-141,-51,165,666,4143,34,39,842,1768,1854,2064,2216,1912,1696,1777,1896
371793,-33824,-1772,-32870,-102,829,1789,481,-124,-53,145,627,4234,37,37,843,1768,1854,2064,2216,1912,1696,1777,1896
372794,-33760,-1712,-32805,-37,830,1795,481,-109,-44,89,750,4414,36,41,844,1768,1854,2064,2216,1912,1696,1777,1896
373795,-33708,-1664,-32740,28,996,1967,484,-106,-35,144,670,4143,36,32,843,1768,1854,2064,2216,1912,1696,1777,1896
374796,-33640,-1628,-32675,93,793,2153,470,-123,-39,45,574,4218,32,29,841,1768,1854,2064,2216,1912,1696,1777,1896
375797,-33584,-1564,-32610,158,954,1805,461,-131,-40,-37,693,4315,53,41,840,1760,1845,2059,2207,1911,1693,1773,1893
376798,-33524,-1512,-32545,223,911,1971,453,-119,-22,50,682,4268,42,37,842,1760,1845,2059,2207,1911,1693,1773,1893
377799,-33472,-1480,-32480,288,1027,2263,450,-80,-18,253,701,4419,51,30,840,1760,1845,2059,2207,1911,1693,1773,1893
378800,-33404,-1416,-32415,353,824,1864,443,-57,-14,35,616,4364,52,24,838,1760,1845,2059,2207,1911,1693,1773,1893
379801,-33332,-1368,-32350,418,766,2086,437,-52,-3,78,727,4267,53,35,842,1760,1845,2059,2207,1911,1693,1773,1893
380802,-33252,-1328,-32285,483,648,2217,433,-41,10,45,663,4167,52,25,841,1749,1840,2057,2202,1920,1701,1781,1907
381803,-33204,-1272,-32220,548,1069,2028,425,-35,16,133,618,4091,48,39,840,1749,1840,2057,2202,1920,1701,1781,1907
382804,-33148,-1212,-32155,613,981,1985,428,-26,29,158,798,4236,37,32,839,1749,1840,2057,2202,1920,1701,1781,1907
383805,-33088,-1168,-32090,678,937,2212,435,-24,35,132,844,4014,34,43,841,1749,1840,2057,2202,1920,1701,1781,1907
384806,-33024,-1124,-32025,743,888,2238,432,-19,39,81,695,3997,51,45,839,1749,1840,2057,2202,1920,1701,1781,1907
385807,-32952,-1036,-31960,808,780,1660,436,-21,43,160,849,3998,35,37,839,1749,1840,2057,2202,1920,1701,1781,1907
386808,-32900,-992,-31895,873,1046,2237,429,-31,51,52,880,3976,38,35,844,1758,1850,2068,2216,1935,1717,1798,1930
387809,-32836,-944,-31830,938,899,2209,427,-28,50,83,930,3976,41,46,839,1758,1850,2068,2216,1935,1717,1798,1930
388810,-32760,-868,-31765,1003,735,1845,421,-42,39,223,905,3786,54,44,839,1758,1850,2068,2216,1935,1717,1798,1930
389811,-32708,-816,-31700,1068,1051,2162,412,-63,37,205,954,3989,54,47,843,1758,1850,2068,2216,1935,1717,1798,1930
390812,-32640,-740,-31635,1133,848,1850,411,-73,30,183,1023,3901,45,49,839,1758,1850,2068,2216,1935,1717,1798,1930
391813,-32580,-668,-31570,1198,954,1891,409,-74,23,188,1090,3902,50,45,843,1772,1865,2084,2228,1954,1729,1810,1943
392814,-32512,-620,-31505,1263,852,2213,401,-85,12,144,1007,3961,51,52,842,1772,1865,2084,2228,1954,1729,1810,1943
393815,-32448,-560,-31440,1328,903,2070,396,-110,-8,316,1049,3883,52,44,839,1772,1865,2084,2228,1954,1729,1810,1943
394816,-32392,-500,-31375,1393,1014,2077,393,-149,-13,22,1070,3965,48,35,840,1772,1865,2084,2228,1954,1729,1810,1943
395817,-32324,-436,-31310,1458,861,2029,395,-165,-20,90,1061,4110,56,50,840,1772,1865,2084,2228,1954,1729,1810,1943
396818,-32268,-356,-31245,1523,1022,1811,392,-174,-24,136,974,4001,54,48,841,1772,1865,2084,2228,1954,1729,1810,1943
397819,-32208,-300,-31180,1588,978,2123,398,-203,-31,124,1001,4040,38,41,842,1775,1874,2094,2232,1968,1740,1818,1958
398820,-32140,-224,-31115,1653,876,1860,412,-205,-32,122,882,4027,42,46,840,1775,1874,2094,2232,1968,1740,1818,1958
399821,-32068,-180,-31050,1718,817,2286,416,-241,-32,131,938,3852,50,32,842,1775,1874,2094,2232,1968,1740,1818,1958
400822,-32000,-116,-30985,1783,865,2039,404,-295,-20,-200,832,3869,44,46,839,1775,1874,2094,2232,1968,1740,1818,1958
401823,-31924,-56,-30920,1848,751,2096,404,-313,-17,-232,1060,4076,39,30,841,1775,1874,2094,2232,1968,1740,1818,1958
402824,-31868,28,-30855,1913,1012,1773,409,-336,-12,-100,1021,3870,34,46,841,1780,1882,2106,2241,1986,1755,1834,1981
403825,-31808,64,-30790,1978,969,2409,413,-344,-12,100,1050,4059,52,34,842,1780,1882,2106,2241,1986,1755,1834,1981
404826,-31752,128,-30725,2043,1030,2061,410,-361,-16,135,1055,3835,34,34,837,1780,1882,2106,2241,1986,1755,1834,1981
405827,-31680,184,-30660,2108,823,2172,414,-398,-14,-166,1141,3911,43,39,839,1780,1882,2106,2241,1986,1755,1834,1981
406828,-31628,240,-30595,2173,1088,2184,413,-427,-12,-130,1161,3879,36,43,839,1780,1882,2106,2241,1986,1755,1834,1981
407829,-31556,316,-30530,2238,830,1922,413,-426,-24,104,1150,3877,39,43,839,1780,1882,2106,2241,1986,1755,1834,1981
408830,-31500,376,-30465,2303,1042,2129,402,-426,-30,0,1210,3917,41,50,842,1792,1896,2123,2257,2016,1779,1858,2009
409831,-31428,452,-30400,2368,833,1915,408,-433,-23,-80,1234,4074,37,38,839,1792,1896,2123,2257,2016,1779,1858,2009
410832,-31356,512,-30335,2433,825,2122,402,-443,-29,161,1158,3761,43,52,842,1792,1896,2123,2257,2016,1779,1858,2009
411833,-31304,564,-30270,2498,1092,2239,395,-477,-42,-62,1278,4049,41,51,841,1792,1896,2123,2257,2016,1779,1858,2009
412834,-31248,648,-30205,2563,1053,1817,388,-502,-58,-103,1211,3835,54,51,838,1792,1896,2123,2257,2016,1779,1858,2009
413835,-31172,720,-30140,2628,790,1959,400,-520,-59,-16,1249,4112,45,37,841,1801,1900,2129,2268,2047,1805,1875,2030
414836,-31120,788,-30075,2693,1106,2006,414,-537,-73,-3,1162,4120,47,38,842,1801,1900,2129,2268,2047,1805,1875,2030
415837,-31048,864,-30010,2758,848,1894,429,-563,-89,46,1095,4059,38,38,839,1801,1900,2129,2268,2047,1805,1875,2030
416838,-30976,912,-29945,2823,840,2265,427,-596,-109,-77,1255,4214,40,53,842,1801,1900,2129,2268,2047,1805,1875,2030
417839,-30928,996,-29880,2888,1161,1792,421,-594,-117,-51,1224,4081,40,49,839,1801,1900,2129,2268,2047,1805,1875,2030
418840,-30856,1056,-29815,2953,853,2099,409,-584,-123,216,1301,4010,46,41,841,1801,1900,2129,2268,2047,1805,1875,2030
419841,-30784,1128,-29750,3018,845,1942,402,-579,-123,5,1267,4080,52,40,841,1797,1896,2135,2273,2073,1832,1894,2048
420842,-30716,1200,-29685,3083,891,1933,432,-588,-116,-351,920,4354,46,37,842,1797,1896,2135,2273,2073,1832,1894,2048
421843,-30660,1244,-29620,3148,1053,2310,486,-792,-130,254,907,3702,38,47,841,1797,1896,2135,2273,2073,1832,1894,2048
422844,-30572,1300,-29555,3213,625,2172,552,-974,-171,-1110,619,5272,39,35,838,1797,1896,2135,2273,2073,1832,1894,2048
423845,-30516,1376,-29490,3278,1037,1909,616,-959,-265,-444,1018,4863,57,45,840,1797,1896,2135,2273,2073,1832,1894,2048
424846,-30440,1448,-29425,3343,774,1951,645,-881,-262,878,1373,4171,38,34,841,1800,1900,2148,2288,2091,1844,1911,2065
425847,-30376,1520,-29360,3408,925,1943,598,-846,-250,807,1254,3767,53,36,842,1800,1900,2148,2288,2091,1844,1911,2065
426848,-30304,1580,-29295,3473,817,2100,539,-839,-217,-332,1640,4323,56,51,841,1800,1900,2148,2288,2091,1844,1911,2065
427849,-30236,1644,-29230,3538,864,2052,470,-882,-195,-137,1726,3985,41,37,839,1800,1900,2148,2288,2091,1844,1911,2065
428850,-30160,1716,-29165,3603,750,1944,443,-834,-199,552,1357,4142,44,43,840,1800,1900,2148,2288,2091,1844,1911,2065
429851,-30092,1800,-29100,3668,847,1772,419,-773,-186,251,1407,4401,48,43,842,1800,1900,2148,2288,2091,1844,1911,2065
430852,-30024,1852,-29035,3733,844,2189,401,-724,-194,-62,1400,4163,35,40,843,1847,1955,2187,2335,2089,1849,1925,2079
431853,-29956,1932,-28970,3798,841,1820,382,-711,-211,-124,1151,4076,37,41,841,1847,1955,2187,2335,2089,1849,1925,2079
432854,-29888,2004,-28905,3863,837,1913,367,-716,-206,-191,1229,4256,38,40,842,1847,1955,2187,2335,2089,1849,1925,2079
433855,-29828,2060,-28840,3928,944,2125,344,-754,-193,-235,1298,3948,38,46,842,1847,1955,2187,2335,2089,1849,1925,2079
434856,-29772,2132,-28775,3993,1006,1916,333,-767,-206,-273,1184,4130,41,42,840,1847,1955,2187,2335,2089,1849,1925,2079
435857,-29700,2204,-28710,4058,797,1909,326,-777,-225,-152,1083,4254,56,59,841,1832,1936,2177,2309,2128,1878,1929,2094
436858,-29624,2276,-28645,4123,734,1901,338,-791,-239,21,1106,4273,38,49,842,1832,1936,2177,2309,2128,1878,1929,2094
437859,-29580,2356,-28580,4188,1160,1784,347,-778,-265,-159,1167,4440,55,59,843,1832,1936,2177,2309,2128,1878,1929,2094
438860,-29500,2444,-28515,4253,692,1656,354,-751,-298,-261,1008,4350,40,57,842,1832,1936,2177,2309,2128,1878,1929,2094
439861,-29420,2548,-28450,4318,675,1409,352,-728,-322,-241,1079,4424,51,46,844,1832,1936,2177,2309,2128,1878,1929,2094
440867,-29352,2620,-28385,4383,821,1802,363,-736,-315,55,1105,4144,38,58,847,1832,1936,2177,2309,2128,1878,1929,2094
441863,-29280,2720,-28320,4448,762,1409,376,-756,-317,378,1423,4207,47,45,844,1768,1868,2127,2245,2145,1883,1919,2086
442864,-29220,2800,-28255,4513,919,1642,392,-769,-362,115,1145,4248,53,37,846,1768,1868,2127,2245,2145,1883,1919,2086
443865,-29156,2908,-28190,4578,871,1240,422,-832,-402,62,1241,4575,38,55,845,1768,1868,2127,2245,2145,1883,1919,2086
444866,-29092,2980,-28125,4643,872,1682,418,-983,-378,1064,1311,3490,37,58,846,1768,1868,2127,2245,2145,1883,1919,2086
445867,-29024,3036,-28060,4708,819,1894,308,-1006,-452,-77,700,4584,39,44,845,1768,1868,2127,2245,2145,1883,1919,2086
446868,-28944,3116,-27995,4773,651,1575,81,-773,-618,-1079,1379,4970,56,53,843,1744,1844,2100,2231,2110,1857,1910,2071
447869,-28880,3204,-27930,4838,853,1448,-139,-451,-655,889,1672,3974,39,49,845,1744,1844,2100,2231,2110,1857,1910,2071
448870,-28796,3272,-27865,4903,580,1695,-291,-307,-561,1680,1452,3638,53,52,846,1744,1844,2100,2231,2110,1857,1910,2071
449871,-28732,3348,-27666,5102,1682,2433,-313,-361,-509,524,1289,3837,55,49,846,1744,1844,2100,2231,2110,1857,1910,2071
450872,-28656,3424,-27601,5167,1519,2420,-240,-494,-506,-698,1429,4360,58,52,835,1744,1844,2100,2231,2110,1857,1910,2071
451873,-28576,3520,-27536,5232,1451,2133,-121,-597,-505,-555,1207,3930,50,63,834,1744,1844,2100,2231,2110,1857,1910,2071
452874,-28476,3628,-27471,5297,1158,1931,-14,-607,-490,338,967,3534,71,84,836,1736,1836,2077,2193,2184,1933,1968,2144
453875,-28384,3748,-27406,5362,1226,1715,44,-608,-457,436,958,3704,66,84,840,1736,1836,2077,2193,2184,1933,1968,2144
454876,-28264,3892,-27341,5427,809,1319,36,-610,-427,-141,959,3923,78,79,843,1736,1836,2077,2193,2184,1933,1968,2144
455877,-28172,4036,-27276,5492,1127,1223,36,-562,-366,-669,1051,3698,82,85,847,1736,1836,2077,2193,2184,1933,1968,2144
456878,-28064,4152,-27211,5557,875,1512,37,-562,-319,-35,1300,3432,81,85,847,1736,1836,2077,2193,2184,1933,1968,2144
457879,-27948,4300,-27146,5622,713,1010,45,-575,-347,275,1138,3695,79,76,846,1689,1803,2064,2183,2180,1910,1939,2100
458880,-27844,4408,-27081,5687,816,1459,45,-649,-384,-166,1392,3867,78,70,849,1689,1803,2064,2183,2180,1910,1939,2100
459881,-27716,4540,-27016,5752,439,1077,46,-733,-406,-463,1673,3707,69,80,848,1689,1803,2064,2183,2180,1910,1939,2100
460882,-27604,4660,-26951,5817,582,1161,12,-743,-452,222,1895,3797,76,82,850,1689,1803,2064,2183,2180,1910,1939,2100
461883,-27504,4768,-26886,5882,689,1258,-26,-724,-493,443,1775,3861,77,71,850,1689,1803,2064,2183,2180,1910,1939,2100
462884,-27404,4868,-26821,5947,647,1317,-104,-662,-533,539,1870,3774,69,73,849,1733,1845,2089,2219,2079,1818,1876,2027
463885,-27292,4980,-26756,6012,440,1109,-154,-574,-574,798,1639,3562,66,69,849,1733,1845,2089,2219,2079,1818,1876,2027
464886,-27172,5100,-26691,6077,273,942,-224,-535,-617,648,1720,3568,61,71,850,1733,1845,2089,2219,2079,1818,1876,2027
465887,-27072,5220,-26626,6142,480,876,-270,-483,-635,430,1650,3766,55,69,852,1733,1845,2089,2219,2079,1818,1876,2027
466888,-26980,5328,-26561,6207,547,973,-287,-431,-651,1031,1737,3330,52,59,852,1733,1845,2089,2219,2079,1818,1876,2027
467889,-26884,5420,-26496,6272,459,1141,-289,-439,-678,724,1346,3221,56,68,851,1733,1845,2089,2219,2079,1818,1876,2027
468890,-26788,5524,-26431,6337,422,944,-315,-478,-698,26,1392,3292,63,66,851,1798,1900,2137,2263,2027,1783,1844,2002
469891,-26716,5624,-26366,6402,714,951,-325,-491,-678,-116,1319,3365,66,66,851,1798,1900,2137,2263,2027,1783,1844,2002
470892,-26628,5700,-26301,6467,486,1238,-335,-440,-646,465,1260,3223,50,66,851,1798,1900,2137,2263,2027,1783,1844,2002
471893,-26532,5796,-26236,6532,348,951,-337,-416,-605,407,1206,3131,49,51,851,1798,1900,2137,2263,2027,1783,1844,2002
472894,-26436,5876,-26171,6597,310,1133,-340,-456,-554,-164,1149,3024,47,65,851,1798,1900,2137,2263,2027,1783,1844,2002
473895,-26360,5956,-26106,6662,547,1114,-327,-498,-522,-405,1240,3141,42,50,852,1782,1886,2127,2243,2020,1780,1834,1984
474896,-26268,6040,-26041,6727,314,1041,-290,-548,-499,-130,1414,2966,60,64,851,1782,1886,2127,2243,2020,1780,1834,1984
475897,-26200,6116,-25976,6792,610,1129,-256,-570,-455,14,1337,3288,58,54,851,1782,1886,2127,2243,2020,1780,1834,1984
476898,-26140,6188,-25911,6857,716,1170,-219,-566,-422,242,1442,3219,42,64,851,1782,1886,2127,2243,2020,1780,1834,1984
477899,-26052,6260,-25846,6922,339,1162,-188,-572,-394,140,1523,2984,56,65,849,1782,1886,2127,2243,2020,1780,1834,1984
478900,-25964,6336,-25781,6987,311,1098,-165,-569,-373,190,1690,3113,53,63,849,1782,1886,2127,2243,2020,1780,1834,1984
479901,-25884,6440,-25716,7052,393,702,-154,-563,-353,379,1740,3066,53,52,851,1742,1846,2076,2196,2000,1760,1819,1954
480902,-25804,6532,-25651,7117,374,819,-136,-559,-320,458,1872,2842,36,59,853,1742,1846,2076,2196,2000,1760,1819,1954
481903,-25740,6616,-25586,7182,575,895,-101,-540,-295,684,2082,2862,44,57,853,1742,1846,2076,2196,2000,1760,1819,1954
482904,-25664,6688,-25521,7247,412,1037,-87,-535,-300,719,1987,2738,50,44,852,1742,1846,2076,2196,2000,1760,1819,1954
483905,-25600,6772,-25456,7312,563,865,-89,-551,-338,729,1982,2772,54,56,851,1742,1846,2076,2196,2000,1760,1819,1954
484906,-25520,6840,-25391,7377,345,1061,-95,-566,-355,604,1921,2773,46,54,852,1739,1831,2053,2194,1972,1738,1806,1935
485907,-25452,6920,-25326,7442,491,893,-105,-546,-351,743,1875,2669,50,50,852,1739,1831,2053,2194,1972,1738,1806,1935
486908,-25376,6996,-25261,7507,378,929,-102,-527,-346,824,1808,2557,39,42,852,1739,1831,2053,2194,1972,1738,1806,1935
487909,-25328,7060,-25196,7572,749,1081,-101,-529,-353,665,1661,2506,35,41,852,1739,1831,2053,2194,1972,1738,1806,1935
488911,-25256,7128,-25131,7637,440,1028,-94,-548,-365,450,1590,2570,44,53,851,1739,1831,2053,2194,1972,1738,1806,1935
489911,-25180,7200,-25066,7702,377,969,-91,-575,-357,400,1313,2446,50,49,851,1739,1831,2053,2194,1972,1738,1806,1935
490912,-25100,7276,-25001,7767,308,906,-74,-553,-326,545,1197,2708,40,53,852,1755,1841,2069,2203,1976,1742,1803,1944
491913,-25032,7332,-24936,7832,455,1167,-39,-546,-284,539,1096,2461,52,50,853,1755,1841,2069,2203,1976,1742,1803,1944
492914,-24964,7396,-24871,7897,451,1068,-15,-541,-240,374,981,2536,36,45,851,1755,1841,2069,2203,1976,1742,1803,1944
493915,-24896,7460,-24806,7962,447,1069,22,-556,-201,63,1024,2654,44,43,851,1755,1841,2069,2203,1976,1742,1803,1944
494916,-24792,7528,-24741,8027,-50,1017,40,-575,-166,43,1002,2504,37,46,851,1755,1841,2069,2203,1976,1742,1803,1944
495917,-24736,7620,-24676,8092,561,684,41,-577,-99,69,926,2686,44,46,851,1739,1839,2076,2194,1976,1736,1796,1936
496918,-24656,7704,-24611,8157,242,760,52,-551,-20,292,1112,2535,37,54,853,1739,1839,2076,2194,1976,1736,1796,1936
497919,-24580,7764,-24546,8222,279,1067,57,-540,36,257,1183,2514,38,54,853,1739,1839,2076,2194,1976,1736,1796,1936
498920,-24512,7848,-24481,8287,375,743,48,-558,69,33,1129,2459,42,40,853,1739,1839,2076,2194,1976,1736,1796,1936
499921,-24440,7912,-24416,8352,317,996,28,-579,115,-17,1246,2600,40,40,853,1739,1839,2076,2194,1976,1736,1796,1936
500922,-24368,7992,-24351,8417,308,777,-8,-597,162,274,1489,2529,34,45,853,1739,1839,2076,2194,1976,1736,1796,1936
501923,-24288,8064,-24286,8482,190,869,-41,-552,203,386,1367,2594,49,52,853,1734,1836,2056,2177,1964,1727,1798,1938
502924,-24228,8132,-24221,8547,446,915,-69,-526,235,706,1483,2743,41,44,854,1734,1836,2056,2177,1964,1727,1798,1938
503925,-24160,8184,-24156,8612,342,1131,-100,-516,245,515,1498,2488,54,39,853,1734,1836,2056,2177,1964,1727,1798,1938
504926,-24060,8252,-24091,8677,-100,927,-120,-479,260,503,1417,2772,55,41,851,1734,1836,2056,2177,1964,1727,1798,1938
505927,-24000,8332,-24026,8742,406,759,-138,-433,274,826,1315,2815,39,50,851,1734,1836,2056,2177,1964,1727,1798,1938
506928,-23932,8396,-23961,8807,302,961,-135,-374,287,890,1346,2677,35,48,852,1722,1819,2033,2151,2013,1767,1835,1989
507929,-23844,8452,-23896,8872,24,1072,-136,-363,295,713,1257,2654,45,42,853,1722,1819,2033,2151,2013,1767,1835,1989
508930,-23764,8512,-23831,8937,106,1028,-133,-349,295,736,1074,2658,49,39,853,1722,1819,2033,2151,2013,1767,1835,1989
509931,-23708,8584,-23766,9002,417,870,-125,-326,308,761,1147,2753,38,47,853,1722,1819,2033,2151,2013,1767,1835,1989
510932,-23628,8664,-23701,9067,98,751,-116,-281,347,688,1036,2717,44,52,853,1722,1819,2033,2151,2013,1767,1835,1989
511933,-23548,8716,-23636,9132,80,1117,-124,-246,380,703,909,2655,54,42,854,1722,1819,2033,2151,2013,1767,1835,1989
512934,-23460,8788,-23571,9197,-48,860,-128,-224,404,480,945,2813,51,42,853,1697,1791,2025,2142,2079,1827,1869,2019
513935,-23384,8852,-23506,9262,89,961,-162,-210,441,311,784,2895,45,52,853,1697,1791,2025,2142,2079,1827,1869,2019
514936,-23324,8932,-23441,9327,295,743,-185,-195,484,223,1112,2784,49,51,854,1697,1791,2025,2142,2079,1827,1869,2019
515937,-23256,9004,-23376,9392,191,834,-207,-216,541,537,1146,2523,51,57,854,1697,1791,2025,2142,2079,1827,1869,2019
516938,-23180,9100,-23311,9457,78,496,-214,-237,584,629,1159,2548,35,48,854,1697,1791,2025,2142,2079,1827,1869,2019
517939,-23104,9172,-23246,9522,64,788,-239,-219,622,206,786,2924,49,59,855,1679,1775,2024,2147,2103,1848,1880,2025
518940,-23044,9252,-23181,9587,270,669,-274,-198,671,93,943,2725,41,50,856,1679,1775,2024,2147,2103,1848,1880,2025
519941,-22972,9336,-23116,9652,112,597,-321,-165,725,414,1041,2852,48,47,854,1679,1775,2024,2147,2103,1848,1880,2025
520942,-22884,9420,-23051,9717,-116,574,-383,-85,782,639,1026,3173,38,58,855,1679,1775,2024,2147,2103,1848,1880,2025
521943,-22824,9496,-22986,9782,240,661,-450,21,835,716,868,3304,47,46,854,1679,1775,2024,2147,2103,1848,1880,2025
522944,-22744,9572,-22921,9847,-29,647,-529,85,876,822,944,3054,49,45,854,1679,1775,2024,2147,2103,1848,1880,2025
523945,-22648,9652,-22856,9912,-266,579,-592,154,897,887,1064,3120,40,49,851,1678,1778,2022,2140,2098,1844,1880,2036
524946,-22540,9732,-22791,9977,-469,561,-630,251,917,910,802,3373,40,45,856,1678,1778,2022,2140,2098,1844,1880,2036
525947,-22420,9808,-22726,10042,-687,597,-645,354,926,1104,624,3139,37,50,856,1678,1778,2022,2140,2098,1844,1880,2036
526948,-22352,9892,-22661,10107,-41,474,-662,433,911,942,957,3145,40,56,856,1678,1778,2022,2140,2098,1844,1880,2036
527949,-22284,9956,-22596,10172,-44,725,-698,522,908,696,1021,2957,32,48,850,1678,1778,2022,2140,2098,1844,1880,2036
528950,-22240,10024,-22531,10237,281,672,-741,667,910,1069,911,3546,32,45,856,1667,1764,2017,2131,2130,1867,1898,2055
529951,-22164,10112,-22466,10302,-132,393,-798,763,915,918,846,3025,31,51,854,1667,1764,2017,2131,2130,1867,1898,2055
530952,-22108,10204,-22401,10367,129,311,-866,824,917,704,931,2840,40,48,854,1667,1764,2017,2131,2130,1867,1898,2055
531953,-22036,10288,-22336,10432,-80,388,-915,894,929,963,1084,3158,42,44,852,1667,1764,2017,2131,2130,1867,1898,2055
532954,-21984,10372,-22271,10497,186,365,-967,975,935,706,1055,2814,43,43,857,1667,1764,2017,2131,2130,1867,1898,2055
533955,-21912,10456,-22206,10562,-72,342,-1029,1044,956,375,676,3031,33,40,856,1667,1764,2017,2131,2130,1867,1898,2055
534956,-21832,10532,-22141,10627,-192,428,-1101,1077,1000,569,770,2783,43,48,857,1672,1774,2024,2148,2148,1890,1912,2059
535957,-21780,10616,-22076,10692,174,305,-1171,1133,1040,517,835,3110,33,41,856,1672,1774,2024,2148,2148,1890,1912,2059
536958,-21696,10688,-22011,10757,-249,447,-1239,1246,1073,602,781,3176,37,38,849,1672,1774,2024,2148,2148,1890,1912,2059
537959,-21620,10764,-21946,10822,-162,383,-1303,1376,1106,979,753,3234,32,43,857,1672,1774,2024,2148,2148,1890,1912,2059
538960,-21556,10832,-21881,10887,-11,480,-1364,1495,1147,1034,751,3377,34,44,857,1672,1774,2024,2148,2148,1890,1912,2059
539961,-21500,10904,-21816,10952,100,421,-1419,1607,1183,748,776,3248,41,35,851,1653,1738,1990,2131,2156,1900,1918,2066
540962,-21432,10984,-21751,11017,-54,303,-1458,1717,1194,737,709,3508,52,36,856,1653,1738,1990,2131,2156,1900,1918,2066
541963,-21360,11028,-21686,11082,-112,778,-1479,1788,1197,942,771,3444,36,39,856,1653,1738,1990,2131,2156,1900,1918,2066
542964,-21300,11112,-21621,11147,43,255,-1498,1801,1172,753,804,3168,48,54,857,1653,1738,1990,2131,2156,1900,1918,2066
543965,-21224,11188,-21556,11212,-171,342,-1481,1797,1142,535,767,3435,45,43,851,1653,1738,1990,2131,2156,1900,1918,2066
544966,-21156,11272,-21491,11277,-74,219,-1451,1750,1128,899,849,3349,36,51,858,1653,1738,1990,2131,2156,1900,1918,2066
545967,-21096,11356,-21426,11342,32,195,-1420,1679,1104,875,687,3306,42,46,851,1634,1736,1993,2117,2157,1900,1915,2061
546968,-21020,11496,-21361,11407,-182,-596,-1386,1635,1098,596,549,3393,35,54,856,1634,1736,1993,2117,2157,1900,1915,2061
547969,-20976,11668,-21296,11472,244,-1127,-1366,1644,1096,874,667,3613,50,41,857,1634,1736,1993,2117,2157,1900,1915,2061
548970,-20896,11772,-21231,11537,-224,-324,-1338,1677,1115,1330,773,3573,45,36,849,1634,1736,1993,2117,2157,1900,1915,2061
549971,-20844,11816,-21166,11602,141,451,-1352,1662,1136,987,662,3770,49,47,851,1634,1736,1993,2117,2157,1900,1915,2061
550972,-20764,11888,-21101,11667,-228,93,-1407,1696,1105,675,654,4218,34,37,857,1685,1800,2042,2165,2059,1825,1885,1993
551973,-20696,11952,-21036,11732,-82,194,-1465,1698,1114,1012,861,3488,38,33,856,1685,1800,2042,2165,2059,1825,1885,1993
552974,-20620,12028,-20971,11797,-195,30,-1509,1691,1137,1235,895,3690,48,46,857,1685,1800,2042,2165,2059,1825,1885,1993
553975,-20560,12100,-20906,11862,11,71,-1551,1679,1153,1106,817,3680,48,36,856,1685,1800,2042,2165,2059,1825,1885,1993
554976,-20488,12144,-20841,11927,-147,447,-1587,1618,1149,1010,864,3329,46,48,850,1685,1800,2042,2165,2059,1825,1885,1993
555977,-20412,12216,-20776,11992,-211,88,-1617,1542,1160,666,545,3204,49,34,858,1685,1800,2042,2165,2059,1825,1885,1993
556978,-20344,12292,-20711,12057,-114,25,-1639,1458,1174,290,185,3314,49,52,851,1816,1943,2143,2287,2208,1952,1883,2027
557979,-20284,12368,-20646,12122,-9,11,-1655,1377,1182,-57,159,3368,51,51,849,1816,1943,2143,2287,2208,1952,1883,2027
558980,-20220,12440,-20581,12187,-58,53,-1636,1241,1213,-315,-76,3342,39,40,855,1816,1943,2143,2287,2208,1952,1883,2027
559981,-20120,12492,-20516,12252,-551,319,-1587,1062,1243,-405,-205,3676,48,41,858,1816,1943,2143,2287,2208,1952,1883,2027
560982,-20056,12576,-20451,12317,-100,-105,-1530,817,1252,-454,-308,3648,52,39,858,1816,1943,2143,2287,2208,1952,1883,2027
561983,-19992,12648,-20386,12382,-98,37,-1465,607,1241,-396,-508,3895,47,50,857,1874,2023,2208,2332,2036,1781,1888,2052
562984,-19896,12712,-20321,12447,-536,138,-1388,460,1241,-238,-272,4085,35,39,855,1874,2023,2208,2332,2036,1781,1888,2052
563985,-19844,12800,-20256,12512,30,-191,-1333,384,1225,239,-360,4342,37,40,856,1874,2023,2208,2332,2036,1781,1888,2052
564986,-19764,12860,-20191,12577,-340,165,-1297,324,1186,512,-423,4502,46,39,854,1874,2023,2208,2332,2036,1781,1888,2052
565987,-19692,12932,-20126,12642,-248,6,-1277,253,1143,448,-397,4400,32,38,857,1874,2023,2208,2332,2036,1781,1888,2052
566988,-19600,13008,-20061,12707,-531,-57,-1268,173,1109,149,-584,4312,49,40,858,1874,2023,2208,2332,2036,1781,1888,2052
567989,-19524,13092,-19996,12772,-345,-180,-1271,108,1081,53,-282,4457,41,46,858,1916,2061,2215,2334,2017,1762,1897,2055
568990,-19460,13184,-19931,12837,-193,-313,-1270,28,1069,-62,-337,4112,33,39,857,1916,2061,2215,2334,2017,1762,1897,2055
569991,-19388,13256,-19866,12902,-302,-72,-1264,-90,1055,-184,-437,4294,46,43,857,1916,2061,2215,2334,2017,1762,1897,2055
570992,-19316,13348,-19801,12967,-312,-355,-1256,-290,1042,-448,-603,3799,33,39,850,1916,2061,2215,2334,2017,1762,1897,2055
571993,-19248,13416,-19736,13032,-265,-59,-1235,-472,1028,-605,-558,4189,30,49,858,1916,2061,2215,2334,2017,1762,1897,2055
572994,-19176,13496,-19671,13097,-324,-228,-1210,-654,1043,-602,-466,3867,49,40,855,1934,2064,2204,2330,2016,1798,1937,2071
573995,-19124,13572,-19606,13162,-58,-191,-1184,-809,1058,-564,-607,4237,38,37,858,1934,2064,2204,2330,2016,1798,1937,2071
574996,-19020,13668,-19541,13227,-755,-479,-1143,-946,1083,-439,-607,4401,45,42,857,1934,2064,2204,2330,2016,1798,1937,2071
575997,-18956,13732,-19476,13292,-255,-78,-1096,-1054,1134,-602,-839,4350,39,49,857,1934,2064,2204,2330,2016,1798,1937,2071
576998,-18876,13808,-19411,13357,-474,-241,-1048,-1117,1188,-547,-741,4603,32,49,856,1934,2064,2204,2330,2016,1798,1937,2071
577999,-18816,13868,-19346,13422,-217,-36,-994,-1170,1226,-397,-533,4489,38,39,858,1934,2064,2204,2330,2016,1798,1937,2071
579000,-18752,13944,-19281,13487,-266,-249,-932,-1267,1245,-578,-655,4185,35,37,858,1892,2009,2168,2324,2080,1836,1962,2088
580001,-18676,14004,-19216,13552,-430,-43,-860,-1286,1227,-188,-597,4433,41,43,850,1892,2009,2168,2324,2080,1836,1962,2088
581002,-18588,14084,-19151,13617,-609,-312,-836,-1219,1237,101,-1630,4510,33,37,856,1892,2009,2168,2324,2080,1836,1962,2088
582003,-18528,14148,-19086,13682,-253,-110,-843,-1203,1209,575,-1146,3948,42,50,857,1892,2009,2168,2324,2080,1836,1962,2088
583004,-18464,14220,-19021,13747,-301,-219,-869,-1272,1147,-657,-1214,3516,41,47,857,1892,2009,2168,2324,2080,1836,1962,2088
584005,-18408,14276,-18956,13812,-190,-9,-936,-1257,1085,-1376,-1803,3806,33,34,858,1825,1939,2125,2304,2093,1871,1935,2039
585006,-18324,14348,-18891,13877,-565,-217,-992,-1244,1027,-385,-1615,4180,39,35,857,1825,1939,2125,2304,2093,1871,1935,2039
586007,-18252,14408,-18826,13942,-423,-61,-1066,-1272,1011,-619,-2085,4123,39,39,859,1825,1939,2125,2304,2093,1871,1935,2039
587008,-18184,14496,-18761,14007,-377,-439,-1133,-1310,982,-1113,-1761,4744,33,34,858,1825,1939,2125,2304,2093,1871,1935,2039
588009,-18120,14560,-18696,14072,-326,-138,-1183,-1358,956,-1346,-1656,4934,28,44,858,1825,1939,2125,2304,2093,1871,1935,2039
589010,-18064,14608,-18631,14137,-215,82,-1217,-1382,954,-1213,-1938,5247,37,43,857,1825,1939,2125,2304,2093,1871,1935,2039
590011,-17992,14664,-18566,14202,-424,-7,-1210,-1298,956,-599,-1898,5522,49,39,858,1752,1825,2039,2185,2063,1845,1891,2005
591012,-17924,14724,-18501,14267,-378,-51,-1213,-1134,1027,-187,-2283,5323,43,44,858,1752,1825,2039,2185,2063,1845,1891,2005
592013,-17852,14768,-18436,14332,-436,174,-1170,-985,1071,165,-2076,5758,44,45,859,1752,1825,2039,2185,2063,1845,1891,2005
593014,-17792,14816,-18371,14397,-280,145,-1145,-868,1091,-99,-2158,5166,35,32,859,1752,1825,2039,2185,2063,1845,1891,2005
594015,-17740,14876,-18306,14462,-165,1,-1128,-704,1121,-257,-2152,5882,46,34,853,1752,1825,2039,2185,2063,1845,1891,2005
595016,-17668,14932,-18241,14527,-424,61,-1110,-506,1157,76,-2262,5943,35,30,858,1619,1639,1921,2051,2095,1868,1917,2029
596017,-17600,14968,-18176,14592,-378,347,-1056,-267,1182,865,-2430,6392,27,36,852,1619,1639,1921,2051,2095,1868,1917,2029
597018,-17540,15040,-18111,14657,-272,-112,-966,-15,1193,784,-2228,6885,41,29,858,1619,1639,1921,2051,2095,1868,1917,2029
598019,-17480,15096,-18046,14722,-265,99,-882,115,1194,97,-2181,6236,46,44,854,1619,1639,1921,2051,2095,1868,1917,2029
599020,-17424,15148,-17981,14787,-205,165,-810,182,1190,4,-2209,6480,43,31,857,1619,1639,1921,2051,2095,1868,1917,2029
600021,-17352,15200,-17916,14852,-414,181,-788,169,1169,24,-1732,6030,29,28,858,1619,1639,1921,2051,2095,1868,1917,2029
601022,-17292,15248,-17851,14917,-258,251,-787,158,1173,-496,-1814,5500,35,32,850,1600,1697,1920,2107,2100,1881,1919,1993
602023,-17240,15304,-17786,14982,-142,161,-826,161,1172,-603,-1748,5238,27,35,857,1600,1697,1920,2107,2100,1881,1919,1993
603024,-17196,15360,-17721,15047,-16,172,-865,156,1151,-537,-1695,4978,29,40,858,1600,1697,1920,2107,2100,1881,1919,1993
604025,-17132,15428,-17656,15112,-266,19,-904,148,1117,-219,-1771,4743,29,30,853,1600,1697,1920,2107,2100,1881,1919,1993
605026,-17096,15468,-17591,15177,119,399,-932,189,1079,-40,-1964,5387,37,29,858,1600,1697,1920,2107,2100,1881,1919,1993
606027,-17040,15512,-17526,15242,-120,375,-949,272,1050,696,-2211,5496,18,33,857,1712,1800,2010,2216,2056,1842,1912,1985
607028,-16988,15556,-17461,15307,-54,401,-923,365,1030,1001,-2304,5738,20,41,857,1712,1800,2010,2216,2056,1842,1912,1985
608029,-16948,15600,-17396,15372,127,426,-893,448,1022,904,-2547,5654,26,41,854,1712,1800,2010,2216,2056,1842,1912,1985
609030,-16900,15652,-17331,15437,46,342,-839,534,994,1119,-2700,6073,19,46,857,1712,1800,2010,2216,2056,1842,1912,1985
610031,-16852,15680,-17266,15502,67,687,-752,635,974,1355,-3073,6482,17,42,857,1712,1800,2010,2216,2056,1842,1912,1985
611032,-16824,15756,-17201,15567,362,73,-647,725,963,1421,-3055,6275,30,44,857,1712,1800,2010,2216,2056,1842,1912,1985
612033,-16772,15812,-17136,15632,78,334,-540,820,966,1137,-3237,6289,14,41,856,1707,1799,1986,2125,1974,1743,1824,1935
613034,-16756,15884,-17071,15697,588,125,-438,897,961,1244,-3162,6329,23,40,857,1707,1799,1986,2125,1974,1743,1824,1935
614035,-16712,15964,-17006,15762,264,7,-356,943,951,906,-2912,6139,22,51,857,1707,1799,1986,2125,1974,1743,1824,1935
615036,-16676,16036,-16941,15827,399,98,-292,956,949,687,-2523,5906,33,50,856,1707,1799,1986,2125,1974,1743,1824,1935
616037,-16616,16096,-16876,15892,104,254,-237,873,950,607,-2278,5465,14,50,856,1707,1799,1986,2125,1974,1743,1824,1935
617038,-16596,16148,-16811,15957,659,370,-194,800,926,249,-1896,5595,29,46,857,1652,1770,1933,2064,1906,1681,1793,1897
618039,-16556,16208,-16746,16022,440,276,-159,666,908,183,-1695,4910,17,37,857,1652,1770,1933,2064,1906,1681,1793,1897
619040,-16524,16292,-16681,16087,580,-47,-112,505,897,105,-1518,4635,22,50,854,1652,1770,1933,2064,1906,1681,1793,1897
620041,-16468,16340,-16616,16152,291,424,-83,364,875,-93,-1312,4363,35,48,856,1652,1770,1933,2064,1906,1681,1793,1897
621042,-16408,16400,-16551,16217,247,280,-66,254,842,-240,-1334,3859,37,49,856,1652,1770,1933,2064,1906,1681,1793,1897
622043,-16384,16460,-16486,16282,747,286,-56,206,826,236,-1263,3927,37,35,856,1652,1770,1933,2064,1906,1681,1793,1897
623044,-16316,16508,-16421,16347,193,457,-20,135,821,722,-1264,3483,32,46,857,1692,1833,1975,2133,1913,1687,1829,1943
624045,-16260,16584,-16356,16412,354,94,28,79,798,557,-1163,3483,28,48,855,1692,1833,1975,2133,1913,1687,1829,1943
625046,-16188,16652,-16291,16477,146,189,68,21,803,204,-1493,3137,30,49,857,1692,1833,1975,2133,1913,1687,1829,1943
626047,-16164,16716,-16226,16542,796,240,137,25,766,906,-1335,3511,23,40,857,1692,1833,1975,2133,1913,1687,1829,1943
627048,-16108,16772,-16161,16607,407,351,176,-2,765,834,-1613,3110,38,52,858,1692,1833,1975,2133,1913,1687,1829,1943
628049,-16048,16828,-16096,16672,363,362,241,-27,750,849,-1507,3303,44,35,855,1744,1886,2015,2140,1957,1713,1842,1978
629050,-15984,16888,-16031,16737,314,318,294,-51,738,578,-1599,3187,44,45,856,1744,1886,2015,2140,1957,1713,1842,1978
630051,-15940,16972,-15966,16802,590,-5,349,-77,718,605,-1397,3306,39,51,856,1744,1886,2015,2140,1957,1713,1842,1978
631052,-15868,17024,-15901,16867,231,411,389,-146,703,565,-1453,3172,28,36,857,1744,1886,2015,2140,1957,1713,1842,1978
632053,-15820,17100,-15836,16932,552,97,436,-245,692,189,-1496,2982,47,47,856,1744,1886,2015,2140,1957,1713,1842,1978
633054,-15756,17168,-15771,16997,353,194,487,-337,651,-157,-1313,3240,47,40,856,1744,1886,2015,2140,1957,1713,1842,1978
634055,-15692,17236,-15706,17062,354,190,526,-450,612,-252,-1365,2657,42,45,856,1695,1819,1977,2088,1928,1685,1782,1909
635056,-15612,17300,-15641,17127,136,241,559,-595,574,-279,-1336,2491,42,46,857,1695,1819,1977,2088,1928,1685,1782,1909
636057,-15552,17356,-15576,17192,392,352,567,-718,535,-331,-1245,2524,31,50,857,1695,1819,1977,2088,1928,1685,1782,1909
637058,-15500,17416,-15511,17257,508,308,554,-830,502,-151,-1314,2163,36,36,857,1695,1819,1977,2088,1928,1685,1782,1909
638059,-15436,17468,-15446,17322,359,424,536,-885,462,70,-972,2445,30,38,856,1695,1819,1977,2088,1928,1685,1782,1909
639060,-15376,17528,-15381,17387,415,330,518,-886,449,306,-1088,2685,33,42,856,1655,1764,1938,2059,1892,1666,1763,1886
640061,-15336,17600,-15316,17452,696,171,518,-828,458,266,-1043,2850,44,50,856,1655,1764,1938,2059,1892,1666,1763,1886
641062,-15248,17660,-15251,17517,68,327,516,-753,454,394,-890,3081,34,38,856,1655,1764,1938,2059,1892,1666,1763,1886
642063,-15184,17736,-15186,17582,369,114,516,-665,452,446,-906,3017,49,35,855,1655,1764,1938,2059,1892,1666,1763,1886
643064,-15120,17788,-15121,17647,370,429,498,-602,480,291,-913,2860,44,41,857,1655,1764,1938,2059,1892,1666,1763,1886
644065,-15056,17840,-15056,17712,372,445,483,-595,516,156,-747,2538,46,46,857,1655,1764,1938,2059,1892,1666,1763,1886
645066,-15004,17920,-14991,17777,537,77,463,-597,527,-73,-713,2475,41,50,856,1645,1760,1931,2069,1935,1718,1816,1934
646067,-14924,17968,-14926,17842,169,498,444,-607,547,-47,-741,2563,34,50,856,1645,1760,1931,2069,1935,1718,1816,1934
647068,-14856,18028,-14861,17907,315,354,441,-625,565,111,-772,2278,35,50,856,1645,1760,1931,2069,1935,1718,1816,1934
648069,-14796,18112,-14796,17972,422,31,465,-624,584,-108,-839,2650,36,37,856,1645,1760,1931,2069,1935,1718,1816,1934
649070,-14736,18188,-14731,18037,428,117,504,-573,577,54,-800,3124,49,49,856,1645,1760,1931,2069,1935,1718,1816,1934
650071,-14652,18244,-14666,18102,104,378,557,-511,565,178,-880,2954,49,49,856,1646,1752,1949,2099,2033,1810,1878,1991
651072,-14592,18320,-14601,18167,411,115,616,-434,547,444,-844,3192,50,33,857,1646,1752,1949,2099,2033,1810,1878,1991
652073,-14504,18376,-14536,18232,32,376,664,-346,507,352,-904,3235,47,48,857,1646,1752,1949,2099,2033,1810,1878,1991
653074,-14448,18452,-14471,18297,443,112,702,-261,473,322,-958,3330,35,42,857,1646,1752,1949,2099,2033,1810,1878,1991
654075,-14376,18524,-14406,18362,235,154,732,-205,441,477,-899,3248,48,48,857,1646,1752,1949,2099,2033,1810,1878,1991
655076,-14296,18576,-14341,18427,117,420,746,-163,398,421,-878,3399,44,40,857,1646,1752,1949,2099,2033,1810,1878,1991
656077,-14236,18648,-14276,18492,373,161,746,-98,358,362,-873,3521,35,41,857,1640,1737,1956,2114,2032,1802,1850,1947
657078,-14176,18708,-14211,18557,379,317,743,-33,328,564,-803,3764,44,44,857,1640,1737,1956,2114,2032,1802,1850,1947
658079,-14108,18780,-14146,18622,275,158,737,54,300,663,-741,3921,47,32,857,1640,1737,1956,2114,2032,1802,1850,1947
659080,-14036,18828,-14081,18687,216,478,720,143,289,732,-809,3901,47,39,856,1640,1737,1956,2114,2032,1802,1850,1947
660081,-13976,18892,-14016,18752,372,280,697,237,284,745,-784,4210,35,42,857,1640,1737,1956,2114,2032,1802,1850,1947
661082,-13932,18960,-13951,18817,597,226,670,334,279,766,-648,4166,33,46,856,1664,1760,1974,2137,1958,1745,1809,1904
662083,-13880,19008,-13886,18882,513,497,639,429,269,870,-743,4276,46,44,857,1664,1760,1974,2137,1958,1745,1809,1904
663084,-13800,19080,-13821,18947,145,188,601,518,275,772,-867,4041,31,42,856,1664,1760,1974,2137,1958,1745,1809,1904
664085,-13736,19140,-13756,19012,346,344,572,586,267,902,-697,4259,30,30,855,1664,1760,1974,2137,1958,1745,1809,1904
665086,-13692,19188,-13691,19077,622,515,549,610,268,658,-820,3896,27,33,857,1664,1760,1974,2137,1958,1745,1809,1904
666092,-13620,19260,-13626,19142,263,206,543,610,265,640,-722,4071,43,39,856,1664,1760,1974,2137,1958,1745,1809,1904
667088,-13576,19296,-13561,19207,639,692,552,615,260,572,-749,4116,36,31,854,1685,1782,1992,2156,1966,1761,1827,1933
668089,-13508,19360,-13496,19272,335,343,568,612,253,699,-754,4095,43,43,857,1685,1782,1992,2156,1966,1761,1827,1933
669090,-13448,19416,-13431,19337,441,454,591,635,239,848,-714,4264,33,33,853,1685,1782,1992,2156,1966,1761,1827,1933
670091,-13392,19500,-13366,19402,502,81,613,630,214,892,-666,4164,34,36,856,1685,1782,1992,2156,1966,1761,1827,1933
671092,-13352,19556,-13301,19467,733,442,656,626,198,1083,-652,4140,40,46,855,1685,1782,1992,2156,1966,1761,1827,1933
672093,-13292,19632,-13236,19532,489,178,692,618,178,1210,-421,4137,40,43,856,1684,1785,1999,2152,2033,1813,1880,1997
673094,-13224,19688,-13171,19597,385,439,733,615,150,1120,-335,4228,40,31,854,1684,1785,1999,2152,2033,1813,1880,1997
674095,-13164,19748,-13106,19662,491,396,753,608,136,951,-513,4044,31,43,856,1684,1785,1999,2152,2033,1813,1880,1997
675096,-13116,19824,-13041,19727,662,182,777,603,101,1193,-278,4210,29,37,856,1684,1785,1999,2152,2033,1813,1880,1997
676097,-13040,19876,-12976,19792,300,498,798,597,72,1120,-300,4017,30,32,855,1684,1785,1999,2152,2033,1813,1880,1997
677098,-12992,19936,-12911,19857,670,404,819,565,52,1180,-224,4245,30,41,856,1686,1791,1996,2142,2036,1802,1877,1997
678099,-12932,19992,-12846,19922,526,465,824,521,41,1042,-188,4059,42,33,856,1686,1791,1996,2142,2036,1802,1877,1995
679100,-12860,20048,-12781,19987,368,476,830,480,9,954,-56,4376,32,44,855,1686,1791,1996,2142,2036,1802,1877,1995
680101,-12796,20096,-12716,20052,469,597,817,426,-6,840,-67,4288,45,34,855,1686,1791,1996,2142,2036,1802,1877,1995
681102,-12732,20164,-12651,20117,470,342,806,385,-20,909,0,4525,40,30,856,1686,1791,1996,2142,2036,1802,1877,1995
682103,-12676,20220,-12586,20182,581,503,781,337,-32,861,-63,4543,38,32,854,1686,1791,1996,2142,2036,1802,1877,1995
683104,-12624,20280,-12521,20247,647,459,758,271,-45,824,-57,4594,35,31,855,1679,1785,1976,2113,2007,1770,1853,1979
684105,-12548,20352,-12456,20312,334,301,744,219,-47,743,-100,4784,45,31,854,1679,1785,1976,2113,2007,1770,1853,1979
685106,-12480,20404,-12391,20377,430,567,738,189,-45,762,-257,4681,39,41,854,1679,1785,1976,2113,2007,1770,1853,1979
686107,-12424,20460,-12326,20442,591,528,741,162,-50,791,-222,4757,26,29,856,1679,1785,1976,2113,2007,1770,1853,1979
687108,-12372,20520,-12261,20507,657,484,746,156,-43,695,-324,4750,44,41,855,1679,1785,1976,2113,2007,1770,1853,1979
688109,-12300,20576,-12196,20572,398,545,764,161,-37,723,-406,4612,39,47,854,1659,1778,1972,2092,2034,1789,1871,2025
689110,-12244,20628,-12131,20637,609,610,785,144,-34,670,-425,4440,42,32,855,1659,1778,1972,2092,2034,1789,1871,2025
690111,-12180,20684,-12066,20702,511,571,810,134,-41,623,-364,4409,46,45,855,1659,1778,1972,2092,2034,1789,1871,2025
691112,-12124,20760,-12001,20767,622,308,819,121,-44,416,-258,4362,28,44,854,1659,1778,1972,2092,2034,1789,1871,2025
692113,-12052,20808,-11936,20832,413,679,839,126,-59,352,-47,4356,34,34,854,1659,1778,1972,2092,2034,1789,1871,2025
693114,-11992,20872,-11871,20897,569,480,852,106,-79,457,47,4208,47,32,855,1659,1778,1972,2092,2034,1789,1871,2025
694115,-11936,20948,-11806,20962,630,317,859,71,-99,321,139,4156,28,48,854,1676,1804,2004,2121,2080,1820,1903,2055
695116,-11868,20992,-11741,21027,477,742,857,25,-111,102,180,4141,32,41,855,1676,1804,2004,2121,2080,1820,1903,2055
696117,-11808,21068,-11676,21092,583,329,842,7,-140,202,395,4204,36,47,855,1676,1804,2004,2121,2080,1820,1903,2055
697118,-11752,21148,-11611,21157,644,260,813,-1,-160,304,337,4026,45,47,854,1676,1804,2004,2121,2080,1820,1903,2055
698119,-11684,21216,-11546,21222,490,407,789,-2,-170,420,396,4269,38,36,855,1676,1804,2004,2121,2080,1820,1903,2055
699120,-11628,21280,-11481,21287,651,458,772,23,-182,384,343,4326,31,40,855,1696,1825,2015,2134,2065,1801,1883,2031
700121,-11568,21352,-11282,21486,771,513,743,49,-189,396,354,4353,47,46,854,1696,1825,2015,2134,2065,1801,1883,2031
701122,-11504,21404,-11217,21551,723,779,716,50,-191,452,206,4177,31,39,853,1696,1825,2015,2134,2065,1801,1883,2031
702123,-11440,21464,-11152,21616,724,686,690,61,-182,394,120,4474,41,45,853,1696,1825,2015,2134,2065,1801,1883,2031
703124,-11352,21532,-11087,21681,396,582,676,65,-185,471,112,4338,42,50,852,1696,1825,2015,2134,2065,1801,1883,2031
704125,-11292,21596,-11022,21746,752,634,662,94,-188,437,82,4388,44,42,853,1696,1825,2015,2134,2065,1801,1883,2031
705126,-11204,21676,-10957,21811,374,415,652,117,-193,530,144,4517,52,53,855,1683,1804,1996,2108,2033,1781,1859,2006
706127,-11128,21752,-10892,21876,511,452,648,127,-194,416,54,4526,56,49,853,1683,1804,1996,2108,2033,1781,1859,2006
707128,-11060,21804,-10827,21941,607,768,655,134,-207,329,82,4522,52,51,856,1683,1804,1996,2108,2033,1781,1859,2006
708129,-10976,21880,-10762,22006,384,454,650,141,-204,256,33,4261,36,46,855,1683,1804,1996,2108,2033,1781,1859,2006
709130,-10904,21948,-10697,22071,525,551,655,136,-209,281,141,4224,43,51,853,1683,1804,1996,2108,2033,1781,1859,2006
710131,-10832,22016,-10632,22136,517,547,646,101,-211,88,69,4092,52,37,856,1662,1780,1986,2104,2044,1798,1864,2008
711132,-10764,22080,-10567,22201,563,598,645,73,-224,9,77,4157,52,38,854,1662,1780,1986,2104,2044,1798,1864,2008
712133,-10692,22164,-10502,22266,505,325,625,55,-224,150,243,3823,35,38,854,1662,1780,1986,2104,2044,1798,1864,2008
713134,-10612,22220,-10437,22331,387,686,602,24,-227,271,290,3829,35,53,854,1662,1780,1986,2104,2044,1798,1864,2008
714136,-10560,22288,-10372,22396,753,532,580,9,-228,127,337,3897,42,38,855,1662,1780,1986,2104,2044,1798,1864,2008
715136,-10472,22372,-10307,22461,275,309,560,23,-238,172,387,3843,33,38,854,1662,1780,1986,2104,2044,1798,1864,2008
716137,-10400,22436,-10242,22526,466,560,533,42,-261,667,532,3933,41,40,853,1687,1802,2015,2154,2056,1814,1885,2025
717138,-10336,22516,-10177,22591,568,342,494,46,-282,649,564,3612,47,36,856,1687,1802,2015,2154,2056,1814,1885,2025
718139,-10276,22600,-10112,22656,624,269,461,39,-275,184,524,3523,41,36,854,1687,1802,2015,2154,2056,1814,1885,2025
719140,-10208,22676,-10047,22721,520,355,426,31,-270,185,587,3706,42,44,855,1687,1802,2015,2154,2056,1814,1885,2025
720141,-10148,22760,-9982,22786,626,232,395,41,-288,418,570,3569,35,40,856,1687,1802,2015,2154,2056,1814,1885,2025
721142,-10072,22808,-9917,22851,413,703,365,42,-303,446,575,3684,34,42,855,1716,1828,2036,2168,2061,1818,1886,2026
722143,-10016,22872,-9852,22916,674,504,347,42,-301,253,495,3615,49,47,855,1716,1828,2036,2168,2061,1818,1886,2026
723144,-9952,22948,-9787,22981,575,341,330,32,-297,241,443,3728,46,40,855,1716,1828,2036,2168,2061,1818,1886,2026
724145,-9884,22992,-9722,23046,521,766,329,5,-311,388,472,3599,48,38,854,1716,1828,2036,2168,2061,1818,1886,2026
725146,-9844,23060,-9657,23111,902,463,313,-14,-305,192,340,3726,38,33,855,1716,1828,2036,2168,2061,1818,1886,2026
726147,-9772,23136,-9592,23176,493,349,309,-2,-310,298,368,3961,33,43,853,1716,1828,2036,2168,2061,1818,1886,2026
727148,-9712,23224,-9527,23241,649,171,296,15,-313,224,324,3865,51,34,853,1695,1807,2019,2142,2047,1801,1864,2008
728149,-9656,23272,-9462,23306,711,692,303,25,-315,253,321,3774,34,31,856,1695,1807,2019,2142,2047,1801,1864,2008
729150,-9584,23340,-9397,23371,503,438,304,46,-303,184,254,3798,49,46,855,1695,1807,2019,2142,2047,1801,1864,2008
730151,-9520,23392,-9332,23436,604,654,329,62,-297,145,217,3703,45,44,853,1695,1807,2019,2142,2047,1801,1864,2008
731152,-9476,23452,-9267,23501,880,560,326,39,-293,211,317,3513,31,46,855,1695,1807,2019,2142,2047,1801,1864,2008
732153,-9396,23524,-9202,23566,411,402,302,7,-285,78,482,3540,35,36,853,1684,1798,2012,2137,2023,1782,1850,1985
733154,-9336,23584,-9137,23631,667,558,268,-7,-284,85,542,3447,44,39,852,1684,1798,2012,2137,2023,1782,1850,1985
734155,-9284,23640,-9072,23696,783,619,253,-19,-287,115,480,3493,47,29,855,1684,1798,2012,2137,2023,1782,1850,1985
735156,-9220,23700,-9007,23761,635,575,235,-14,-289,215,654,3508,45,33,853,1684,1798,2012,2137,2023,1782,1850,1985
736157,-9164,23748,-8942,23826,745,746,206,-36,-277,186,786,3413,35,31,853,1684,1798,2012,2137,2023,1782,1850,1985
737158,-9104,23812,-8877,23891,702,547,168,-23,-277,198,822,3427,44,46,854,1684,1798,2012,2137,2023,1782,1850,1985
738159,-9044,23868,-8812,23956,708,658,135,-17,-280,319,751,3234,43,34,852,1718,1829,2040,2183,2013,1780,1855,1985
739160,-8980,23920,-8747,24021,659,725,119,4,-285,388,772,3375,29,38,854,1718,1829,2040,2183,2013,1780,1855,1985
740161,-8920,23988,-8682,24086,715,521,95,17,-292,304,745,3447,38,33,853,1718,1829,2040,2183,2013,1780,1855,1985
741162,-8872,24036,-8617,24151,887,792,89,46,-297,223,632,3432,41,36,853,1718,1829,2040,2183,2013,1780,1855,1985
742163,-8824,24136,-8552,24216,908,99,85,83,-304,391,819,3389,30,46,854,1718,1829,2040,2183,2013,1780,1855,1985
743164,-8760,24180,-8487,24281,709,825,81,106,-302,304,754,3408,46,46,851,1745,1849,2064,2203,2029,1796,1859,1994
744165,-8708,24224,-8422,24346,875,850,87,121,-304,284,591,3508,32,33,854,1745,1849,2064,2203,2029,1796,1859,1994
745166,-8648,24300,-8357,24411,781,437,102,132,-297,212,612,3729,45,39,851,1745,1849,2064,2203,2029,1796,1859,1994
746167,-8592,24356,-8292,24476,842,698,121,139,-285,75,578,3682,41,48,851,1745,1849,2064,2203,2029,1796,1859,1994
747168,-8540,24416,-8227,24541,908,654,147,143,-272,-47,547,3791,34,37,853,1745,1849,2064,2203,2029,1796,1859,1994
748169,-8456,24472,-8162,24606,484,715,165,128,-261,-66,589,3749,49,45,851,1745,1849,2064,2203,2029,1796,1859,1994
749170,-8396,24540,-8097,24671,790,561,175,109,-253,-10,689,3879,47,38,852,1736,1836,2063,2201,2024,1793,1851,1979
750171,-8348,24596,-8032,24736,961,722,169,120,-240,35,605,3888,29,35,854,1736,1836,2063,2201,2024,1793,1851,1979
751172,-8284,24652,-7967,24801,763,733,171,133,-231,106,767,3860,36,43,852,1736,1836,2063,2201,2024,1793,1851,1979
752173,-8236,24716,-7902,24866,984,635,157,135,-226,13,800,3857,37,43,850,1736,1836,2063,2201,2024,1793,1851,1979
753174,-8160,24780,-7837,24931,621,636,154,168,-224,76,830,3969,29,36,852,1736,1836,2063,2201,2024,1793,1851,1979
754175,-8108,24824,-7772,24996,937,911,155,185,-213,163,730,3873,30,35,851,1748,1846,2072,2220,2001,1779,1847,1969
755176,-8052,24880,-7707,25061,898,772,165,216,-192,214,736,3898,40,35,853,1748,1846,2072,2220,2001,1779,1847,1969
756177,-8008,24940,-7642,25126,1073,729,170,217,-173,154,756,3818,44,42,850,1748,1846,2072,2220,2001,1779,1847,1969
757178,-7936,24996,-7577,25191,715,790,162,241,-170,337,795,3826,42,33,851,1748,1846,2072,2220,2001,1779,1847,1969
758179,-7900,25072,-7512,25256,1200,526,154,245,-155,263,725,3807,49,43,850,1748,1846,2072,2220,2001,1779,1847,1969
759180,-7816,25128,-7447,25321,578,788,155,265,-147,300,843,3916,30,40,852,1748,1846,2072,2220,2001,1779,1847,1969
760181,-7764,25172,-7382,25386,994,964,159,278,-136,199,756,3889,35,31,850,1771,1869,2090,2245,2001,1779,1852,1972
761182,-7716,25212,-7317,25451,1065,1044,179,298,-122,128,770,4022,34,43,853,1771,1869,2090,2245,2001,1779,1852,1972
762183,-7660,25264,-7252,25516,976,910,190,308,-113,77,766,3971,41,35,849,1771,1869,2090,2245,2001,1779,1852,1972
763184,-7616,25316,-7187,25581,1151,926,190,314,-106,75,714,4014,47,42,848,1771,1869,2090,2245,2001,1779,1852,1972
764185,-7548,25404,-7122,25646,848,448,192,311,-99,92,711,3957,37,33,850,1771,1869,2090,2245,2001,1779,1852,1972
765186,-7496,25472,-7057,25711,1064,694,203,320,-91,188,651,4013,48,39,848,1789,1886,2105,2259,2009,1784,1857,1981
766187,-7444,25516,-6992,25776,1080,1020,220,333,-70,98,637,3974,40,44,853,1789,1886,2105,2259,2009,1784,1857,1981
767188,-7380,25576,-6927,25841,931,826,245,350,-53,-41,679,4071,38,40,850,1789,1886,2105,2259,2009,1784,1857,1981
768189,-7336,25620,-6862,25906,1207,1052,256,353,-36,-300,586,4186,33,43,847,1789,1886,2105,2259,2009,1784,1857,1981
769190,-7276,25684,-6797,25971,1013,803,276,366,-35,-149,610,4223,46,45,849,1789,1886,2105,2259,2009,1784,1857,1981
770191,-7224,25736,-6732,26036,1129,970,279,372,-24,-4,537,4061,35,43,847,1789,1886,2105,2259,2009,1784,1857,1981
771192,-7168,25800,-6667,26101,1091,821,281,360,-21,78,608,4129,33,46,850,1788,1887,2106,2253,2003,1775,1847,1975
772193,-7112,25860,-6602,26166,1102,877,288,346,2,-259,513,4071,51,46,848,1788,1887,2106,2253,2003,1775,1847,1975
773194,-7052,25908,-6537,26231,1058,1048,291,372,1,6,829,4409,45,43,849,1788,1887,2106,2253,2003,1775,1847,1975
774195,-6992,25976,-6472,26296,1064,794,299,411,2,111,584,4330,42,46,849,1788,1887,2106,2253,2003,1775,1847,1975
775196,-6912,26040,-6407,26361,796,845,302,440,15,247,672,4394,36,52,848,1788,1887,2106,2253,2003,1775,1847,1975
776197,-6844,26120,-6342,26426,943,627,330,468,14,193,790,4480,44,40,850,1786,1886,2102,2247,1999,1774,1850,1979
777198,-6792,26168,-6277,26491,1159,1048,324,466,38,-151,408,4318,33,53,851,1786,1886,2102,2247,1999,1774,1850,1979
778199,-6724,26240,-6212,26556,956,739,359,467,43,78,659,4499,33,46,851,1786,1886,2102,2247,1999,1774,1850,1979
779200,-6684,26320,-6147,26621,1336,622,357,461,53,43,620,4248,38,43,847,1786,1886,2102,2247,1999,1774,1850,1979
780201,-6616,26372,-6082,26686,982,988,369,455,61,-32,570,4270,28,45,851,1786,1886,2102,2247,1999,1774,1850,1979
781202,-6556,26444,-6017,26751,1089,729,377,437,81,-77,606,4205,31,48,848,1786,1886,2102,2247,1999,1774,1850,1979
782203,-6508,26520,-5952,26816,1260,666,394,404,89,-158,541,4131,39,40,849,1796,1900,2117,2268,2009,1787,1865,1993
783204,-6452,26608,-5887,26881,1171,488,406,379,102,-203,426,4280,44,52,850,1796,1900,2117,2268,2009,1787,1865,1993
784205,-6412,26668,-5822,26946,1402,844,409,344,116,-74,610,4135,49,52,849,1796,1900,2117,2268,2009,1787,1865,1993
785206,-6348,26744,-5757,27011,1103,630,426,330,135,-39,598,4242,43,51,849,1796,1900,2117,2268,2009,1787,1865,1993
786207,-6300,26824,-5692,27076,1325,562,441,297,146,-131,739,4188,36,45,846,1796,1900,2117,2268,2009,1787,1865,1993
787208,-6232,26864,-5627,27141,1071,1093,457,300,146,-48,706,4372,47,46,850,1817,1923,2140,2292,2013,1789,1869,1996
788209,-6188,26920,-5562,27206,1397,905,476,298,160,150,600,4147,35,38,849,1817,1923,2140,2292,2013,1789,1869,1996
789210,-6136,26992,-5497,27271,1313,696,480,274,165,140,806,4251,40,42,847,1817,1923,2140,2292,2013,1789,1869,1996
790211,-6080,27056,-5432,27336,1274,797,491,278,178,-67,580,4351,50,42,846,1817,1923,2140,2292,2013,1789,1869,1996
791212,-6004,27108,-5367,27401,1011,963,519,287,181,122,583,4194,52,54,848,1817,1923,2140,2292,2013,1789,1869,1996
792213,-5952,27208,-5302,27466,1327,320,549,273,191,174,645,4281,40,51,847,1817,1923,2140,2292,2013,1789,1869,1996
793214,-5876,27276,-5237,27531,1014,717,579,351,194,307,638,4439,33,41,848,1819,1921,2149,2298,2000,1775,1853,1978
794215,-5824,27336,-5172,27596,1329,823,612,400,196,240,545,4093,43,38,850,1819,1921,2149,2298,2000,1775,1853,1978
795216,-5756,27392,-5107,27661,1127,884,662,396,177,-118,659,4207,34,49,850,1819,1921,2149,2298,2000,1775,1853,1978
796217,-5704,27448,-5042,27726,1343,895,714,371,168,-404,361,4234,52,44,847,1819,1921,2149,2298,2000,1775,1853,1978
797218,-5636,27520,-4977,27791,1139,686,774,336,190,-44,475,4282,48,43,847,1819,1921,2149,2298,2000,1775,1853,1978
798219,-5588,27588,-4912,27856,1410,734,831,288,238,142,499,4088,49,36,847,1836,1932,2148,2310,1964,1750,1825,1930
799220,-5516,27644,-4847,27921,1102,895,857,230,285,-115,648,4210,36,39,849,1836,1932,2148,2310,1964,1750,1825,1930
800221,-5460,27700,-4782,27986,1313,906,869,184,327,-464,941,4072,38,43,847,1836,1932,2148,2310,1964,1750,1825,1930
801222,-5384,27768,-4717,28051,1050,752,866,143,370,-542,932,4210,42,44,848,1836,1932,2148,2310,1964,1750,1825,1930
802223,-5352,27840,-4652,28116,1640,693,840,117,402,253,873,4156,50,39,846,1836,1932,2148,2310,1964,1750,1825,1930
803224,-5292,27900,-4587,28181,1297,850,801,88,435,704,904,3916,32,49,849,1836,1932,2148,2310,1964,1750,1825,1930
804225,-5212,27972,-4522,28246,1029,691,774,78,442,322,1005,3996,44,54,846,1861,1953,2170,2352,1937,1735,1821,1930
805226,-5160,28040,-4457,28311,1395,737,754,103,414,228,788,4028,41,48,847,1861,1953,2170,2352,1937,1735,1821,1930
806227,-5120,28120,-4392,28376,1576,569,758,186,384,814,731,4152,35,40,850,1861,1953,2170,2352,1937,1735,1821,1930
807228,-5044,28160,-4327,28441,1113,1100,768,298,374,1023,610,3887,31,55,847,1861,1953,2170,2352,1937,1735,1821,1930
808229,-4988,28236,-4262,28506,1374,637,802,408,365,802,567,4110,40,39,846,1861,1953,2170,2352,1937,1735,1821,1930
809230,-4916,28300,-4197,28571,1165,788,857,485,363,591,408,4060,43,55,847,1880,1963,2183,2343,1994,1784,1856,1980
810231,-4868,28368,-4132,28636,1487,735,921,502,351,220,447,3919,38,54,847,1880,1963,2183,2343,1994,1784,1856,1980
811232,-4796,28444,-4067,28701,1178,621,971,443,360,-235,230,3792,45,58,849,1880,1963,2183,2343,1994,1784,1856,1980
812233,-4744,28520,-4002,28766,1444,608,1005,344,366,-630,331,3732,52,51,847,1880,1963,2183,2343,1994,1784,1856,1980
813234,-4684,28584,-3937,28831,1350,759,1016,201,354,-913,242,3459,40,53,849,1880,1963,2183,2343,1994,1784,1856,1980
814235,-4620,28668,-3872,28896,1303,486,1032,66,349,691,245,4017,54,46,847,1880,1963,2183,2343,1994,1784,1856,1980
815236,-4556,28744,-3807,28961,1304,572,1028,-39,397,754,439,3834,40,55,847,1829,1916,2155,2315,2015,1802,1863,1982
816237,-4492,28804,-3742,29026,1305,778,1063,-122,408,-1286,925,3660,48,53,849,1829,1916,2155,2315,2015,1802,1863,1982
817238,-4424,28868,-3677,29091,1252,730,1049,-126,449,-715,305,4383,46,54,849,1829,1916,2155,2315,2015,1802,1863,1982
818239,-4372,28948,-3612,29156,1468,511,1042,-107,515,952,575,3847,38,38,848,1829,1916,2155,2315,2015,1802,1863,1982
819240,-4304,29024,-3547,29221,1265,549,1038,-78,552,849,851,3582,40,42,848,1829,1916,2155,2315,2015,1802,1863,1982
820241,-4228,29072,-3482,29286,1151,920,1023,-5,587,385,724,4367,58,43,847,1795,1899,2116,2262,2014,1791,1869,1999
821242,-4172,29148,-3417,29351,1413,556,996,109,607,653,971,4133,54,52,849,1795,1899,2116,2262,2014,1791,1869,1999
822243,-4096,29220,-3352,29416,1150,598,984,165,610,853,807,3965,38,50,848,1795,1899,2116,2262,2014,1791,1869,1999
823244,-4036,29284,-3287,29481,1356,699,963,215,620,756,566,4182,40,40,847,1795,1899,2116,2262,2014,1791,1869,1999
824245,-3976,29344,-3222,29546,1363,755,949,275,610,749,804,3979,34,51,849,1795,1899,2116,2262,2014,1791,1869,1999
825246,-3916,29400,-3157,29611,1369,816,955,273,610,496,714,3901,42,44,847,1795,1899,2116,2262,2014,1791,1869,1999
826247,-3844,29460,-3092,29676,1210,772,951,243,601,152,737,3865,37,50,847,1778,1888,2099,2236,2046,1818,1885,2024
827248,-3768,29528,-3027,29741,1147,669,946,182,560,-73,771,3911,36,51,847,1778,1888,2099,2236,2046,1818,1885,2024
828249,-3724,29604,-2962,29806,1574,555,946,114,521,-86,457,3753,35,40,848,1778,1888,2099,2236,2046,1818,1885,2024
829250,-3668,29672,-2897,29871,1435,651,953,43,501,-21,346,3710,29,46,847,1778,1888,2099,2236,2046,1818,1885,2024
830251,-3616,29736,-2832,29936,1501,703,947,-24,479,-125,343,3645,36,53,847,1778,1888,2099,2236,2046,1818,1885,2024
831252,-3564,29792,-2767,30001,1517,814,947,-73,455,-149,442,3702,44,52,846,1760,1867,2112,2247,2091,1855,1903,2047
832253,-3512,29860,-2702,30066,1533,661,936,-68,430,59,509,3775,45,56,846,1760,1867,2112,2247,2091,1855,1903,2047
833254,-3432,29920,-2637,30131,1165,767,917,-25,422,229,481,3897,43,56,846,1760,1867,2112,2247,2091,1855,1903,2047
834255,-3392,29988,-2572,30196,1695,663,880,37,428,495,325,3921,46,48,849,1760,1867,2112,2247,2091,1855,1903,2047
835256,-3348,30052,-2507,30261,1672,715,836,105,438,320,350,3912,31,54,844,1760,1867,2112,2247,2091,1855,1903,2047
836257,-3272,30124,-2442,30326,1259,606,781,180,464,337,449,3867,42,42,845,1760,1867,2112,2247,2091,1855,1903,2047
837258,-3216,30184,-2377,30391,1520,762,730,234,492,661,562,3912,54,47,849,1771,1883,2128,2263,2082,1849,1903,2043
838259,-3156,30244,-2312,30456,1477,768,679,298,495,625,721,3947,50,37,846,1771,1883,2128,2263,2082,1849,1903,2043
839260,-3092,30312,-2247,30521,1428,665,624,349,517,237,540,3925,50,46,846,1771,1883,2128,2263,2082,1849,1903,2043
840261,-3036,30388,-2182,30586,1539,551,570,392,547,283,625,3947,44,50,847,1771,1883,2128,2263,2082,1849,1903,2043
841262,-2964,30436,-2117,30651,1331,922,526,405,566,144,768,3821,43,41,846,1771,1883,2128,2263,2082,1849,1903,2043
842263,-2904,30512,-2052,30716,1488,559,489,393,580,178,644,3981,38,46,847,1762,1869,2102,2241,2087,1860,1909,2040
843264,-2832,30560,-1987,30781,1329,929,461,366,589,106,815,4019,50,49,847,1762,1869,2102,2241,2087,1860,1909,2040
844265,-2740,30660,-1922,30846,1047,237,434,331,581,-61,784,3976,58,46,847,1762,1869,2102,2241,2087,1860,1909,2040
845266,-2688,30724,-1857,30911,1563,688,410,296,579,132,512,4139,43,57,852,1762,1869,2102,2241,2087,1860,1909,2040
846267,-2624,30792,-1792,30976,1414,635,392,276,564,285,704,4045,52,46,846,1762,1869,2102,2241,2087,1860,1909,2040
847268,-2552,30860,-1727,31041,1307,631,393,275,572,239,491,4153,37,45,847,1762,1869,2102,2241,2087,1860,1909,2040
848269,-2492,30944,-1662,31106,1463,408,387,297,568,581,695,4018,52,45,848,1728,1833,2075,2214,2123,1890,1932,2076
849270,-2416,31008,-1597,31171,1249,659,375,356,555,660,563,4014,50,56,847,1728,1833,2075,2214,2123,1890,1932,2076
850271,-2360,31080,-1532,31236,1511,551,382,439,568,902,462,4091,46,57,848,1728,1833,2075,2214,2123,1890,1932,2076
851272,-2304,31152,-1467,31301,1522,542,389,502,569,851,581,3742,51,44,847,1728,1833,2075,2214,2123,1890,1932,2076
852273,-2236,31216,-1402,31366,1369,644,396,555,559,570,855,3836,49,56,846,1728,1833,2075,2214,2123,1890,1932,2076
853274,-2184,31308,-1337,31431,1584,261,356,589,554,507,786,3686,42,60,847,1736,1845,2097,2231,2138,1895,1934,2076
854275,-2128,31372,-1272,31496,1546,612,326,627,534,641,779,3510,31,59,847,1736,1845,2097,2231,2138,1895,1934,2076
855276,-2076,31460,-1207,31561,1612,284,277,616,525,309,763,3522,33,53,846,1736,1845,2097,2231,2138,1895,1934,2076
856277,-2008,31516,-1142,31626,1409,695,229,602,511,236,852,3643,34,57,847,1736,1845,2097,2231,2138,1895,1934,2076
857278,-1952,31576,-1077,31691,1571,651,175,584,485,153,945,3526,50,45,847,1736,1845,2097,2231,2138,1895,1934,2076
858279,-1896,31640,-1012,31756,1582,602,130,545,451,71,968,3430,33,51,846,1736,1845,2097,2231,2138,1895,1934,2076
859280,-1844,31712,-947,31821,1647,494,77,519,418,166,947,3555,39,48,847,1772,1877,2128,2274,2101,1866,1910,2041
860281,-1768,31780,-882,31886,1335,540,26,497,404,179,926,3671,43,47,846,1772,1877,2128,2274,2101,1866,1910,2041
861282,-1712,31832,-817,31951,1596,756,-12,486,406,81,934,3785,44,49,847,1772,1877,2128,2274,2101,1866,1910,2041
862283,-1652,31888,-752,32016,1552,717,-39,504,402,254,874,3975,40,46,845,1772,1877,2128,2274,2101,1866,1910,2041
863284,-1576,31956,-687,32081,1340,563,-58,535,404,220,700,4008,40,41,846,1772,1877,2128,2274,2101,1866,1910,2041
864285,-1524,32012,-622,32146,1656,724,-60,567,407,493,752,3973,42,54,847,1773,1883,2128,2263,2091,1861,1910,2058
865286,-1444,32072,-557,32211,1287,680,-70,602,402,564,809,3995,40,39,845,1773,1883,2128,2263,2091,1861,1910,2058
866287,-1384,32136,-492,32276,1544,632,-74,635,406,374,739,3896,51,39,848,1773,1883,2128,2263,2091,1861,1910,2058
867288,-1328,32188,-427,32341,1605,798,-72,668,412,339,732,4031,51,38,846,1773,1883,2128,2263,2091,1861,1910,2058
868289,-1260,32268,-362,32406,1452,430,-62,715,416,390,890,4044,41,43,845,1773,1883,2128,2263,2091,1861,1910,2058
869290,-1204,32332,-297,32471,1614,631,-54,737,417,470,965,4086,37,53,847,1773,1883,2128,2263,2091,1861,1910,2058
870291,-1148,32388,-232,32536,1625,742,-47,757,395,529,1060,3918,50,42,845,1770,1888,2140,2276,2111,1885,1930,2071
871292,-1072,32440,-167,32601,1362,808,-47,738,372,183,1136,3653,34,45,845,1770,1888,2140,2276,2111,1885,1930,2071
872293,-1016,32480,-102,32666,1623,989,-46,695,341,31,1321,3669,34,49,846,1770,1888,2140,2276,2111,1885,1930,2071
873294,-952,32544,-37,32731,1524,690,-63,660,301,18,1400,3661,46,47,844,1770,1888,2140,2276,2111,1885,1930,2071
874295,-920,32608,28,32796,1966,691,-77,629,263,110,1386,3595,34,48,846,1770,1888,2140,2276,2111,1885,1930,2071
875296,-836,32672,93,32861,1293,692,-89,597,227,181,1397,3588,35,44,842,1802,1910,2168,2329,2117,1895,1935,2063
876297,-776,32724,158,32926,1599,858,-94,586,173,333,1446,3698,53,58,847,1802,1910,2168,2329,2117,1895,1935,2063
877298,-708,32800,223,32991,1496,545,-104,540,125,304,1365,3422,53,44,845,1802,1910,2168,2329,2117,1895,1935,2063
878299,-664,32872,288,33056,1822,586,-102,502,78,252,1395,3671,38,48,847,1802,1910,2168,2329,2117,1895,1935,2063
879300,-596,32920,353,33121,1518,907,-116,487,45,202,1322,3906,48,49,844,1802,1910,2168,2329,2117,1895,1935,2063
880301,-524,33000,418,33186,1460,489,-119,504,17,479,1377,3974,47,53,845,1802,1910,2168,2329,2117,1895,1935,2063
881302,-444,33068,483,33251,1342,635,-113,541,0,628,1340,3987,48,42,847,1821,1919,2176,2337,2086,1873,1911,2039
882303,-400,33128,548,33316,1818,742,-99,569,-28,674,1280,4039,47,42,847,1821,1919,2176,2337,2086,1873,1911,2039
883304,-320,33184,613,33381,1350,803,-82,570,-44,409,1218,3920,43,48,843,1821,1919,2176,2337,2086,1873,1911,2039
884305,-252,33244,678,33446,1497,759,-74,537,-47,218,1244,3930,47,43,847,1821,1919,2176,2337,2086,1873,1911,2039
885306,-188,33316,743,33511,1548,601,-56,557,-64,430,1180,4152,50,57,846,1821,1919,2176,2337,2086,1873,1911,2039
886307,-112,33384,808,33576,1386,647,-41,568,-81,347,1241,3945,50,56,846,1819,1919,2178,2330,2059,1851,1893,2021
887308,-36,33472,873,33641,1372,369,-36,571,-93,-182,1308,3859,44,47,847,1819,1919,2178,2330,2059,1851,1893,2021
888309,36,33544,938,33706,1415,560,-71,608,-94,-312,1211,3751,38,46,848,1819,1919,2178,2330,2059,1851,1893,2021
889310,100,33608,1003,33771,1516,661,-140,617,-71,279,952,3590,36,40,847,1819,1919,2178,2330,2059,1851,1893,2021
890311,172,33664,1068,33836,1407,772,-192,553,-30,1073,1042,3967,46,53,846,1819,1919,2178,2330,2059,1851,1893,2021
891316,232,33716,1133,33901,1564,838,-221,444,-23,-270,1577,3312,53,54,847,1819,1919,2178,2330,2059,1851,1893,2021
892313,304,33808,1198,33966,1406,305,-226,392,-84,-1021,1460,3855,49,53,845,1832,1932,2188,2342,2059,1850,1896,2031
893314,352,33852,1263,34031,1727,931,-236,463,-129,137,974,4215,40,61,848,1832,1932,2188,2342,2059,1850,1896,2031
894315,424,33928,1328,34096,1419,518,-235,525,-131,1009,1186,4083,38,49,843,1832,1932,2188,2342,2059,1850,1896,2031
895316,496,33996,1393,34161,1410,614,-207,524,-182,299,1673,3609,47,53,847,1832,1932,2188,2342,2059,1850,1896,2031
896317,568,34084,1458,34226,1402,336,-186,496,-240,-592,1296,3860,41,59,847,1832,1932,2188,2342,2059,1850,1896,2031
897318,620,34132,1523,34291,1669,858,-174,511,-279,49,1175,4190,35,53,848,1815,1917,2173,2313,2107,1879,1919,2070
898319,676,34204,1588,34356,1630,549,-145,555,-313,802,1328,3984,44,57,844,1815,1917,2173,2313,2107,1879,1919,2070
899320,736,34280,1653,34421,1586,486,-118,591,-337,594,1342,4054,52,49,846,1815,1917,2173,2313,2107,1879,1919,2070
900321,808,34364,1718,34486,1428,362,-96,616,-369,147,1520,4006,55,48,846,1815,1917,2173,2313,2107,1879,1919,2070
901322,884,34436,1783,34551,1365,504,-71,617,-376,40,1498,3756,43,56,848,1815,1917,2173,2313,2107,1879,1919,2070
902323,932,34512,1848,34616,1736,440,-60,630,-370,300,1586,3893,52,49,848,1815,1917,2173,2313,2107,1879,1919,2070
903324,1000,34592,1913,34681,1483,372,-75,653,-360,340,1403,3911,51,60,845,1802,1904,2160,2307,2108,1883,1923,2054
904325,1064,34672,1978,34746,1534,354,-89,676,-361,262,1561,3903,42,54,847,1802,1904,2160,2307,2108,1883,1923,2054
905326,1144,34748,2043,34811,1316,390,-96,687,-361,105,1690,3656,56,49,847,1802,1904,2160,2307,2108,1883,1923,2054
906327,1220,34820,2108,34876,1353,432,-111,659,-364,37,1764,3616,40,55,849,1802,1904,2160,2307,2108,1883,1923,2054
907328,1280,34880,2173,34941,1560,588,-127,653,-354,-205,1568,3682,45,57,848,1802,1904,2160,2307,2108,1883,1923,2054
908329,1356,34948,2238,35006,1346,484,-158,658,-337,125,1443,3749,42,46,846,1809,1908,2169,2336,2085,1872,1907,2029
909330,1432,35008,2303,35071,1334,590,-166,680,-327,466,1476,3821,55,45,848,1809,1908,2169,2336,2085,1872,1907,2029
910331,1504,35080,2368,35136,1375,432,-172,659,-342,74,1838,3658,42,51,848,1809,1908,2169,2336,2085,1872,1907,2029
911332,1580,35152,2433,35201,1312,423,-176,626,-347,-377,1409,3637,50,58,847,1809,1908,2169,2336,2085,1872,1907,2029
912333,1644,35212,2498,35266,1464,579,-192,638,-354,179,1210,3938,39,45,849,1809,1908,2169,2336,2085,1872,1907,2029
913334,1724,35276,2563,35331,1246,531,-202,682,-355,577,1105,3934,44,43,847,1812,1903,2173,2332,2086,1876,1900,2034
914335,1784,35360,2628,35396,1502,257,-206,708,-376,347,1449,3705,54,53,848,1812,1903,2173,2332,2086,1876,1900,2034
915336,1860,35440,2693,35461,1289,289,-202,726,-411,-39,1326,3841,46,50,847,1812,1903,2173,2332,2086,1876,1900,2034
916337,1940,35508,2758,35526,1221,435,-209,739,-440,238,1235,3777,41,55,849,1812,1903,2173,2332,2086,1876,1900,2034
917338,2000,35568,2823,35591,1477,542,-210,753,-460,317,1348,3657,41,55,849,1812,1903,2173,2332,2086,1876,1900,2034
918339,2076,35636,2888,35656,1265,438,-219,790,-474,404,1290,3923,45,56,847,1812,1903,2173,2332,2086,1876,1900,2034
919340,2160,35696,2953,35721,1142,544,-235,805,-496,320,1362,3759,54,45,849,1809,1899,2174,2317,2095,1875,1905,2046
920341,2232,35780,3018,35786,1283,221,-243,799,-519,63,1495,3542,54,54,850,1809,1899,2174,2317,2095,1875,1905,2046
921342,2300,35856,3083,35851,1329,307,-260,796,-525,111,1432,3714,56,46,849,1809,1899,2174,2317,2095,1875,1905,2046
922343,2376,35920,3148,35916,1217,459,-290,819,-531,352,1312,3837,58,52,849,1809,1899,2174,2317,2095,1875,1905,2046
923344,2456,35992,3213,35981,1149,350,-322,847,-533,359,1587,3680,47,49,849,1809,1899,2174,2317,2095,1875,1905,2046
924345,2532,36060,3278,36046,1185,396,-343,833,-541,-15,1789,3394,44,54,850,1796,1894,2155,2296,2098,1874,1912,2054
925346,2616,36132,3343,36111,1063,338,-361,805,-550,-295,1543,3462,42,46,849,1796,1894,2155,2296,2098,1874,1912,2054
926347,2684,36200,3408,36176,1259,384,-375,820,-541,-269,1582,3670,42,52,851,1796,1894,2155,2296,2098,1874,1912,2054
927348,2760,36276,3473,36241,1146,271,-399,830,-526,252,1574,3465,46,43,850,1796,1894,2155,2296,2098,1874,1912,2054
928349,2828,36340,3538,36306,1242,422,-413,831,-517,135,1644,3607,54,49,850,1796,1894,2155,2296,2098,1874,1912,2054
929350,2920,36404,3603,36371,910,423,-429,818,-523,-184,1534,3468,47,46,849,1796,1894,2155,2296,2098,1874,1912,2054
930351,2992,36484,3668,36436,1152,205,-438,827,-528,107,1488,3652,42,54,852,1772,1876,2132,2264,2112,1881,1920,2066
931352,3076,36552,3733,36501,979,351,-449,823,-527,116,1520,3585,55,46,851,1772,1876,2132,2264,2112,1881,1920,2066
932353,3152,36628,3798,36566,1065,238,-458,829,-528,94,1406,3429,43,49,851,1772,1876,2132,2264,2112,1881,1920,2066
933354,3228,36692,3863,36631,1053,389,-463,820,-533,11,1399,3600,44,52,851,1772,1876,2132,2264,2112,1881,1920,2066
934355,3292,36768,3928,36696,1204,226,-459,779,-554,-10,1404,3352,54,53,851,1772,1876,2132,2264,2112,1881,1920,2066
935356,3368,36844,3993,36761,1040,212,-462,746,-573,-56,1379,3341,53,49,851,1751,1855,2116,2247,2121,1887,1915,2065
936357,3452,36896,4058,36826,917,528,-481,705,-578,-12,1286,3360,44,63,852,1751,1855,2116,2247,2121,1887,1915,2065
937358,3528,36996,4123,36891,1005,-115,-490,681,-602,124,1519,3414,45,62,852,1751,1855,2116,2247,2121,1887,1915,2065
938359,3608,37056,4188,36956,937,391,-501,655,-633,91,1489,3328,53,48,852,1751,1855,2116,2247,2121,1887,1915,2065
939360,3684,37140,4253,37021,973,68,-520,614,-660,64,1448,3321,42,56,852,1751,1855,2116,2247,2121,1887,1915,2065
940361,3748,37216,4318,37086,1124,155,-538,596,-680,-46,1370,3414,46,48,853,1751,1855,2116,2247,2121,1887,1915,2065
941362,3836,37288,4383,37151,797,196,-576,608,-700,315,1405,3372,42,59,852,1760,1861,2124,2255,2102,1868,1905,2055
942363,3900,37368,4448,37216,1098,78,-614,589,-721,229,1451,3064,45,50,853,1760,1861,2124,2255,2102,1868,1905,2055
943364,3980,37432,4513,37281,880,278,-650,549,-747,12,1506,3084,44,48,852,1760,1861,2124,2255,2102,1868,1905,2055
944365,4056,37492,4578,37346,917,334,-694,517,-758,-199,1445,3216,42,59,853,1760,1861,2124,2255,2102,1868,1905,2055
945366,4140,37580,4643,37411,794,-44,-738,510,-775,-41,1362,3276,51,59,852,1760,1861,2124,2255,2102,1868,1905,2055
946367,4208,37652,4708,37476,991,148,-777,485,-789,1,1497,3121,40,53,854,1769,1872,2123,2251,2084,1853,1897,2048
947368,4300,37720,4773,37541,658,194,-809,444,-793,-288,1413,3118,54,48,853,1769,1872,2123,2251,2084,1853,1897,2048
948369,4348,37796,4838,37606,1229,81,-823,397,-792,-221,1387,3167,41,48,855,1769,1872,2123,2251,2084,1853,1897,2048
949370,4432,37876,4903,37671,755,12,-840,371,-793,-446,1479,3339,37,46,851,1769,1872,2123,2251,2084,1853,1897,2048
950371,4516,37920,5102,37870,896,651,-850,344,-795,-298,1335,3091,59,49,854,1769,1872,2123,2251,2084,1853,1897,2048
951372,4584,38008,5167,37935,1092,73,-842,305,-791,-293,1278,3102,45,55,851,1769,1872,2123,2251,2084,1853,1897,2048
952373,4664,38072,5232,38000,925,375,-839,261,-784,-525,1350,3189,40,61,852,1747,1854,2101,2221,2090,1856,1898,2052
953374,4740,38172,5297,38065,961,-118,-835,241,-776,-369,1304,3319,50,57,852,1747,1854,2101,2221,2090,1856,1898,2052
954375,4828,38244,5362,38130,783,223,-848,227,-766,-233,1192,3160,53,50,853,1747,1854,2101,2221,2090,1856,1898,2052
955376,4916,38308,5427,38195,755,325,-843,235,-785,-136,1278,3204,44,55,853,1747,1854,2101,2221,2090,1856,1898,2052
956377,4992,38400,5492,38260,893,-58,-872,171,-808,-333,1207,2907,48,63,854,1747,1854,2101,2221,2090,1856,1898,2052
957378,5088,38492,5557,38325,605,-91,-873,166,-845,-362,1093,3365,61,50,854,1738,1846,2096,2221,2079,1846,1891,2041
958379,5172,38600,5622,38390,732,-344,-904,115,-872,36,1231,2978,53,49,856,1738,1846,2096,2221,2079,1846,1891,2041
959380,5272,38688,5687,38455,489,-122,-921,121,-914,145,1326,3046,45,55,854,1738,1846,2096,2221,2079,1846,1891,2041
960381,5356,38768,5752,38520,666,-41,-959,85,-956,-361,1330,2826,55,49,856,1738,1846,2096,2221,2079,1846,1891,2041
961382,5436,38820,5817,38585,698,325,-988,86,-981,-325,1429,3236,56,54,856,1738,1846,2096,2221,2079,1846,1891,2041
962383,5528,38888,5882,38650,515,121,-995,85,-984,43,1512,2844,56,59,854,1738,1846,2096,2221,2079,1846,1891,2041
963384,5612,38952,5947,38715,592,172,-1001,43,-989,-214,1384,3099,49,46,856,1755,1853,2101,2239,2064,1839,1885,2021
964385,5708,39024,6012,38780,405,64,-1001,45,-1003,-477,1352,3208,42,46,855,1755,1853,2101,2239,2064,1839,1885,2021
965386,5776,39092,6077,38845,751,110,-1010,40,-1010,-194,1274,3172,38,45,856,1755,1853,2101,2239,2064,1839,1885,2021
966387,5864,39160,6142,38910,473,106,-1017,34,-1007,-241,1148,3355,36,53,855,1755,1853,2101,2239,2064,1839,1885,2021
967388,5932,39224,6207,38975,719,158,-1039,13,-1015,-428,1118,2855,41,55,856,1755,1853,2101,2239,2064,1839,1885,2021
968389,6028,39292,6272,39040,331,104,-1056,4,-1032,-541,1032,3060,54,56,855,1754,1852,2104,2248,2052,1832,1876,2008
969390,6096,39360,6337,39105,678,100,-1079,10,-1059,-354,979,3083,58,52,857,1754,1852,2104,2248,2052,1832,1876,2008
970391,6188,39440,6402,39170,345,-69,-1103,3,-1085,-170,893,2908,42,60,855,1754,1852,2104,2248,2052,1832,1876,2008
971392,6268,39516,6467,39235,476,-33,-1115,8,-1088,-272,912,3166,48,46,857,1754,1852,2104,2248,2052,1832,1876,2008
972393,6340,39588,6532,39300,569,9,-1135,-31,-1096,-616,959,2852,42,46,855,1754,1852,2104,2248,2052,1832,1876,2008
973394,6424,39660,6597,39365,396,0,-1144,-44,-1117,-592,874,3369,49,49,856,1754,1852,2104,2248,2052,1832,1876,2008
974395,6512,39752,6662,39430,318,-283,-1136,-21,-1118,-61,893,2955,52,48,857,1753,1844,2095,2242,2050,1831,1876,2008
975396,6596,39804,6727,39495,344,233,-1124,6,-1110,-282,882,3619,57,54,856,1753,1844,2095,2242,2050,1831,1876,2008
976397,6680,39892,6792,39560,321,-245,-1098,66,-1109,-328,909,3471,43,47,856,1753,1844,2095,2242,2050,1831,1876,2008
977398,6760,39976,6857,39625,353,-218,-1091,80,-1112,-391,655,3251,41,55,856,1753,1844,2095,2242,2050,1831,1876,2008
978399,6836,40056,6922,39690,389,-186,-1075,99,-1122,-134,723,3231,36,44,856,1753,1844,2095,2242,2050,1831,1876,2008
979400,6932,40136,6987,39755,102,-206,-1078,114,-1127,-455,817,3236,40,43,856,1751,1843,2093,2249,2049,1830,1878,2004
980401,7012,40196,7052,39820,283,51,-1091,129,-1138,-372,835,3189,41,39,857,1751,1843,2093,2249,2049,1830,1878,2004
981402,7092,40272,7117,39885,265,-163,-1105,155,-1149,-225,781,3101,45,46,857,1751,1843,2093,2249,2049,1830,1878,2004
982403,7168,40340,7182,39950,302,-67,-1126,162,-1161,-317,843,2931,44,41,857,1751,1843,2093,2249,2049,1830,1878,2004
983404,7264,40388,7247,40015,14,204,-1135,194,-1171,-331,804,3080,38,45,857,1751,1843,2093,2249,2049,1830,1878,2004
984405,7332,40460,7312,40080,360,-104,-1143,199,-1185,-156,808,2917,38,50,858,1751,1843,2093,2249,2049,1830,1878,2004
985406,7412,40520,7377,40145,192,51,-1135,214,-1200,-454,814,3103,46,50,857,1775,1864,2108,2274,2044,1826,1878,1998
986407,7504,40600,7442,40210,9,-218,-1129,212,-1206,-483,660,3001,44,54,858,1775,1864,2108,2274,2044,1826,1878,1998
987408,7584,40664,7507,40275,141,-16,-1117,194,-1216,-489,598,2924,49,43,858,1775,1864,2108,2274,2044,1826,1878,1998
988409,7672,40724,7572,40340,12,40,-1097,218,-1225,-459,583,3354,37,36,858,1775,1864,2108,2274,2044,1826,1878,1998
989410,7756,40784,7637,40405,39,46,-1077,234,-1233,-210,573,3101,40,45,858,1775,1864,2108,2274,2044,1826,1878,1998
990411,7848,40840,7702,40470,-94,107,-1058,241,-1248,-151,591,3164,32,41,858,1775,1857,2098,2264,2024,1808,1859,1975
991412,7924,40912,7767,40535,93,-102,-1042,222,-1266,-178,419,3094,48,53,856,1775,1857,2098,2264,2024,1808,1859,1975
992413,8000,40988,7832,40600,79,-166,-1036,233,-1265,-513,155,3182,40,51,858,1775,1857,2098,2264,2024,1808,1859,1975
993414,8100,41064,7897,40665,-263,-180,-1020,262,-1264,-149,235,3311,30,54,858,1775,1857,2098,2264,2024,1808,1859,1975
994415,8180,41132,7962,40730,-33,-83,-1016,275,-1259,-178,303,3129,29,45,858,1775,1857,2098,2264,2024,1808,1859,1975
995416,8248,41188,8027,40795,114,78,-1007,295,-1256,-172,263,3287,46,40,858,1775,1857,2098,2264,2024,1808,1859,1975
996417,8336,41276,8092,40860,-164,-350,-1018,313,-1244,-215,180,3187,42,53,858,1774,1857,2088,2256,1996,1781,1846,1963
997418,8412,41332,8157,40925,-28,61,-1039,318,-1233,-308,253,3021,35,45,851,1774,1857,2088,2256,1996,1781,1846,1963
998419,8480,41400,8222,40990,69,-93,-1060,340,-1213,-282,378,3147,31,39,858,1774,1857,2088,2256,1996,1781,1846,1963
999420,8568,41464,8287,41055,-210,-43,-1085,328,-1198,-105,385,2987,34,44,858,1774,1857,2088,2256,1996,1781,1846,1963
1000421,8616,41536,8352,41120,311,-151,-1083,329,-1183,-289,361,2975,40,41,850,1774,1857,2088,2256,1996,1781,1846,1963
1001422,8680,41600,8417,41185,112,-50,-1078,358,-1154,-193,206,3118,36,42,857,1779,1851,2074,2255,2008,1792,1861,1963
1002423,8772,41644,8482,41250,-271,226,-1078,356,-1135,4,209,3019,32,45,858,1779,1851,2074,2255,2008,1792,1861,1963
1003424,8844,41724,8547,41315,-29,-243,-1058,348,-1119,-216,308,3187,39,43,858,1779,1851,2074,2255,2008,1792,1861,1963
1004425,8948,41780,8612,41380,-478,68,-1041,301,-1106,-398,120,2803,51,52,858,1779,1851,2074,2255,2008,1792,1861,1963
1005426,9012,41860,8677,41445,24,-251,-1029,276,-1105,-473,-41,3129,42,51,853,1779,1851,2074,2255,2008,1792,1861,1963
1006427,9096,41912,8742,41510,-250,115,-1013,262,-1099,-244,-215,3266,50,40,856,1779,1851,2074,2255,2008,1792,1861,1963
1007428,9176,41992,8807,41575,-218,-254,-996,233,-1082,-93,-245,3113,33,50,858,1765,1851,2080,2240,2049,1816,1879,2015
1008429,9264,42036,8872,41640,-346,222,-968,228,-1077,-192,-153,3170,50,45,849,1765,1851,2080,2240,2049,1816,1879,2015
1009430,9352,42132,8937,41705,-374,-466,-939,222,-1084,-125,-255,3045,43,46,855,1765,1851,2080,2240,2049,1816,1879,2015
1010431,9432,42176,9002,41770,-292,210,-919,209,-1068,6,-344,3154,53,51,856,1765,1851,2080,2240,2049,1816,1879,2015
1011432,9540,42244,9067,41835,-696,-95,-920,229,-1056,142,-280,3189,45,39,858,1765,1851,2080,2240,2049,1816,1879,2015
1012433,9636,42328,9132,41900,-584,-318,-930,237,-1052,-98,-106,3025,40,46,858,1762,1835,2060,2235,2058,1815,1879,2017
1013434,9720,42384,9197,41965,-457,43,-940,205,-1045,40,-295,3125,56,46,856,1762,1835,2060,2235,2058,1815,1879,2017
1014435,9812,42432,9262,42030,-590,164,-947,166,-1032,-59,-449,3389,55,44,859,1762,1835,2060,2235,2058,1815,1879,2017
1015436,9900,42492,9327,42095,-568,20,-940,106,-1011,-259,-436,3364,43,44,858,1762,1835,2060,2235,2058,1815,1879,2017
1016437,10008,42548,9392,42160,-871,81,-933,24,-973,-208,-574,3444,41,42,858,1762,1835,2060,2235,2058,1815,1879,2017
1017438,10084,42604,9457,42225,-485,92,-935,-67,-953,-58,-655,3579,62,51,858,1762,1835,2060,2235,2058,1815,1879,2017
1018439,10192,42680,9522,42290,-937,-173,-927,-110,-926,-180,-651,3692,46,48,858,1767,1861,2075,2235,2043,1802,1886,2013
1019440,10284,42748,9587,42355,-770,-76,-898,-104,-911,-138,-691,4047,61,43,858,1767,1861,2075,2235,2043,1802,1886,2013
1020441,10384,42812,9652,42420,-914,-25,-863,-54,-911,90,-1068,3958,61,42,858,1767,1861,2075,2235,2043,1802,1886,2013
1021442,10484,42884,9717,42485,-957,-134,-823,-5,-903,750,-1185,4188,47,55,858,1767,1861,2075,2235,2043,1802,1886,2013
1022443,10584,42936,9782,42550,-1000,132,-796,38,-892,585,-1313,4012,52,52,858,1767,1861,2075,2235,2043,1802,1886,2013
1023444,10700,43012,9847,42615,-1263,-181,-787,10,-910,83,-1342,4065,62,45,857,1783,1881,2079,2247,2005,1757,1859,1966
1024445,10804,43076,9912,42680,-1160,-31,-787,4,-939,51,-1467,4489,56,46,858,1783,1881,2079,2247,2005,1757,1859,1966
1025446,10924,43156,9977,42745,-1428,-249,-828,-8,-960,455,-1445,4279,58,43,858,1783,1881,2079,2247,2005,1757,1859,1966
1026447,11044,43224,10042,42810,-1496,-103,-864,-78,-962,-305,-1571,4331,67,43,858,1783,1881,2079,2247,2005,1757,1859,1966
1027448,11156,43300,10107,42875,-1453,-216,-903,-234,-1005,-607,-1526,5150,55,51,858,1783,1881,2079,2247,2005,1757,1859,1966
1028449,11276,43360,10172,42940,-1620,-10,-927,-436,-1050,-330,-1554,4861,60,59,858,1783,1881,2079,2247,2005,1757,1859,1966
1029450,11404,43424,10237,43005,-1798,-59,-954,-553,-1101,116,-1600,4806,58,44,858,1748,1821,1998,2188,1949,1734,1813,1909
1030451,11516,43488,10302,43070,-1655,-59,-968,-583,-1134,146,-1818,5789,64,59,859,1748,1821,1998,2188,1949,1734,1813,1909
