%  Data file recorded 2016/7/19  10:29:23
%  Stride Frequency         = [1, 1]
%  Lead In /Lead Out        = 
%  Deltas (Fractional)      = [0.25, 0.25, 0.25],[0.25, 0.25, 0.25]
%  Phase                    = 32768
%  Experiment.py 
%  Motor Gains    = [5000, 400, 200, 0, 300, 5000, 400, 200, 0, 300]
% Columns: 
% time | Right Leg Pos | Left Leg Pos | Commanded Right Leg Pos | Commanded Left Leg Pos | DCR | DCL | GyroX | GyroY | GyroZ | AX | AY | AZ | RBEMF | LBEMF | VBatt | S1 | S2 | S3 | S4 | S5 | S6 | S7 | S8
272,-44472,-13856,-45548,-12780,-3800,3800,-8,-10,2,-93,36,3882,-9,5,933,1763,1871,2099,2232,2038,1812,1878,2006
1273,-44472,-13852,-45548,-12780,-3800,3800,-8,-11,0,-37,22,3872,8,-2,933,1763,1871,2099,2232,2038,1812,1878,2006
2274,-44476,-13856,-45548,-12780,-3800,3800,-8,-11,0,-51,13,3901,2,-3,933,1763,1871,2099,2232,2038,1812,1878,2006
3275,-44476,-13840,-45548,-12780,-3800,3800,-6,-10,2,-68,3,3936,-9,3,933,1763,1871,2099,2232,2038,1812,1878,2006
4276,-44472,-13848,-45548,-12780,-3800,3800,-6,-10,3,-69,0,3928,6,6,933,1764,1871,2099,2233,2039,1811,1875,2004
5277,-44476,-13856,-45548,-12780,-3800,3800,-8,-11,2,-50,-14,3886,1,-7,933,1764,1871,2099,2233,2039,1811,1875,2004
6278,-44480,-13852,-45548,-12780,-3800,3800,-10,-10,-1,-61,16,3909,-9,6,933,1764,1871,2099,2233,2039,1811,1875,2004
7279,-44472,-13856,-45548,-12780,-3800,3800,-8,-9,-2,-45,21,3888,-8,0,933,1764,1871,2099,2233,2039,1811,1875,2004
8280,-44480,-13844,-45548,-12780,-3800,3800,-9,-9,-1,-46,-9,3898,-1,-7,933,1764,1871,2099,2233,2039,1811,1875,2004
9281,-44476,-13864,-45548,-12780,-3800,3800,-9,-9,-1,-43,-1,3913,8,4,933,1766,1873,2100,2234,2038,1811,1875,2005
10282,-44476,-13848,-45548,-12780,-3800,3800,-8,-10,1,-49,19,3905,5,7,933,1766,1873,2100,2234,2038,1811,1875,2005
11283,-44480,-13856,-45548,-12780,-3800,3800,-7,-10,1,-63,28,3906,-8,-7,933,1766,1873,2100,2234,2038,1811,1875,2005
12284,-44468,-13848,-45548,-12780,-3800,3800,-9,-10,1,-84,0,3894,2,7,933,1766,1873,2100,2234,2038,1811,1875,2005
13285,-44460,-13852,-45548,-12780,-3800,3800,-9,-12,-2,-71,-4,3917,7,1,933,1766,1873,2100,2234,2038,1811,1875,2005
14286,-44472,-13852,-45548,-12780,-3800,3800,-8,-9,-2,-71,2,3877,-1,-4,932,1766,1873,2100,2234,2038,1811,1875,2005
15287,-44464,-13844,-45548,-12780,-3800,3800,-6,-8,-3,-63,12,3903,-10,7,933,1764,1871,2099,2231,2035,1812,1878,2008
16288,-44472,-13860,-45548,-12780,-3800,3800,-4,-8,-1,-60,-6,3879,-2,7,933,1764,1871,2099,2231,2035,1812,1878,2008
17289,-44472,-13848,-45548,-12780,-3800,3800,-3,-11,0,-52,-27,3907,2,-7,933,1764,1871,2099,2231,2035,1812,1878,2008
18290,-44476,-13852,-45548,-12780,-3800,3800,-4,-13,1,-37,7,3879,7,-7,933,1764,1871,2099,2231,2035,1812,1878,2008
19291,-44476,-13856,-45548,-12780,-3800,3800,-5,-15,-1,-62,-4,3897,-4,-7,932,1764,1871,2099,2231,2035,1812,1878,2008
20292,-44476,-13852,-45548,-12780,-3800,3800,-4,-11,-2,-59,1,3877,-10,7,932,1764,1872,2098,2233,2038,1811,1876,2005
21293,-44472,-13836,-45548,-12780,-3800,3800,-5,-8,-1,-36,-1,3911,5,6,933,1764,1872,2098,2233,2038,1811,1876,2005
22294,-44476,-13856,-45548,-12780,-3800,3800,-4,-9,-1,-52,12,3913,8,5,933,1764,1872,2098,2233,2038,1811,1876,2005
23295,-44480,-13856,-45548,-12780,-3800,3800,-3,-8,-3,-82,8,3912,8,-4,933,1764,1872,2098,2233,2038,1811,1876,2005
24296,-44468,-13852,-45548,-12780,-3800,3800,-1,-9,-5,-87,-14,3943,-7,-6,933,1764,1872,2098,2233,2038,1811,1876,2005
25297,-44472,-13852,-45548,-12780,-3800,3800,-4,-11,-5,-63,4,3925,-10,-4,933,1764,1872,2098,2233,2038,1811,1876,2005
26298,-44472,-13852,-45548,-12780,-3800,3800,-7,-10,-2,-34,0,3933,4,-5,933,1764,1873,2101,2234,2040,1813,1877,2005
27299,-44468,-13856,-45548,-12780,-3800,3800,-6,-7,-1,-54,-13,3917,1,5,933,1764,1873,2101,2234,2040,1813,1877,2005
28300,-44484,-13840,-45548,-12780,-3800,3800,-6,-8,-2,-43,-24,3919,-8,4,933,1764,1873,2101,2234,2040,1813,1877,2005
29301,-44472,-13856,-45548,-12780,-3800,3800,-4,-8,-2,-63,-4,3929,-6,-7,933,1764,1873,2101,2234,2040,1813,1877,2005
30302,-44472,-13856,-45548,-12780,-3800,3800,-5,-8,-1,-28,-1,3933,8,-6,933,1764,1873,2101,2234,2040,1813,1877,2005
31303,-44472,-13856,-45548,-12780,-3800,3800,-5,-7,-3,-34,-18,3954,-3,7,933,1766,1873,2100,2233,2040,1812,1877,2006
32304,-44484,-13844,-45548,-12780,-3800,3800,-5,-8,-2,-54,8,3928,-9,-7,933,1766,1873,2100,2233,2040,1812,1877,2006
33305,-44484,-13868,-45548,-12780,-3800,3800,-5,-9,-1,-53,13,3906,9,6,933,1766,1873,2100,2233,2040,1812,1877,2006
34306,-44476,-13860,-45548,-12780,-3800,3800,-4,-10,-1,-53,7,3931,-1,-7,933,1766,1873,2100,2233,2040,1812,1877,2006
35307,-44472,-13844,-45548,-12780,-3800,3800,-4,-9,-2,-50,3,3947,-10,7,933,1766,1873,2100,2233,2040,1812,1877,2006
36308,-44472,-13856,-45548,-12780,-3800,3800,-6,-10,-2,-64,-6,3913,6,-5,932,1766,1873,2100,2233,2040,1812,1877,2006
37309,-44488,-13860,-45548,-12780,-3800,3800,-7,-11,0,-59,-8,3858,6,5,932,1764,1871,2099,2233,2039,1813,1878,2008
38310,-44472,-13856,-45548,-12780,-3800,3800,-7,-10,1,-73,3,3900,-8,-5,933,1764,1871,2099,2233,2039,1813,1878,2008
39311,-44480,-13852,-45548,-12780,-3800,3800,-8,-9,-1,-42,27,3932,-1,6,933,1764,1871,2099,2233,2039,1813,1878,2008
40312,-44476,-13852,-45548,-12780,-3800,3800,-5,-10,1,-67,11,3899,9,0,933,1764,1871,2099,2233,2039,1813,1878,2008
41313,-44476,-13844,-45548,-12780,-3800,3800,-5,-11,1,-84,-29,3892,1,-6,932,1764,1871,2099,2233,2039,1813,1878,2008
42314,-44488,-13852,-45548,-12780,-3800,3800,-6,-10,3,-78,2,3903,-10,5,933,1764,1872,2099,2234,2039,1813,1877,2005
43315,-44472,-13856,-45548,-12780,-3800,3800,-8,-6,4,-63,0,3934,4,-6,933,1764,1872,2099,2234,2039,1813,1877,2005
44316,-44480,-13844,-45548,-12780,-3800,3800,-9,-5,3,-55,18,3951,7,5,933,1764,1872,2099,2234,2039,1813,1877,2005
45317,-44488,-13852,-45548,-12780,-3800,3800,-7,-7,2,-48,21,3927,-10,6,933,1764,1872,2099,2234,2039,1813,1877,2005
46318,-44472,-13856,-45548,-12780,-3800,3800,-7,-8,3,-86,3,3933,-1,-7,933,1764,1872,2099,2234,2039,1813,1877,2005
47319,-44484,-13852,-45548,-12780,-3800,3800,-8,-8,5,-70,3,3886,8,4,932,1764,1872,2099,2234,2039,1813,1877,2005
48320,-44480,-13852,-45548,-12780,-3800,3800,-8,-8,6,-71,-4,3911,-3,-1,933,1764,1870,2099,2233,2039,1812,1876,2005
49321,-44472,-13856,-45548,-12780,-3800,3800,-10,-8,6,-79,13,3917,-9,-1,933,1764,1870,2099,2233,2039,1812,1876,2005
50322,-44472,-13860,-45548,-12780,-3800,3800,-11,-8,5,-51,11,3876,7,0,933,1764,1870,2099,2233,2039,1812,1876,2005
51323,-44472,-13852,-45548,-12780,-3800,3800,-10,-9,3,-62,-5,3857,-5,6,933,1764,1870,2099,2233,2039,1812,1876,2005
52324,-44476,-13848,-45548,-12780,-3800,3800,-8,-9,4,-58,11,3904,-8,7,933,1764,1870,2099,2233,2039,1812,1876,2005
53325,-44472,-13852,-45548,-12780,-3800,3800,-8,-8,3,-68,14,3908,7,-7,933,1766,1872,2098,2232,2039,1811,1876,2005
54326,-44476,-13856,-45548,-12780,-3800,3800,-8,-6,2,-78,8,3885,-7,-5,932,1766,1872,2098,2232,2039,1811,1876,2005
55327,-44472,-13852,-45548,-12780,-3800,3800,-8,-7,7,-81,16,3917,-6,5,933,1766,1872,2098,2232,2039,1811,1876,2005
56328,-44476,-13856,-45548,-12780,-3800,3800,-6,-5,6,-74,21,3893,9,-6,933,1766,1872,2098,2232,2039,1811,1876,2005
57329,-44468,-13852,-45548,-12780,-3800,3800,-6,-6,1,-57,31,3936,-8,5,933,1766,1872,2098,2232,2039,1811,1876,2005
58330,-44472,-13856,-45548,-12780,-3800,3800,-6,-10,-1,-68,5,3930,-7,5,933,1766,1872,2098,2232,2039,1811,1876,2005
59331,-44476,-13852,-45548,-12780,-3800,3800,-5,-12,1,-47,2,3923,8,-5,933,1765,1872,2101,2235,2039,1814,1878,2008
60332,-44468,-13860,-45548,-12780,-3800,3800,-7,-11,3,-58,16,3915,-9,6,933,1765,1872,2101,2235,2039,1814,1878,2008
61333,-44472,-13844,-45548,-12780,-3800,3800,-7,-9,3,-65,21,3912,0,7,933,1765,1872,2101,2235,2039,1814,1878,2008
62334,-44472,-13860,-45548,-12780,-3800,3800,-8,-8,3,-48,-7,3889,5,-7,933,1765,1872,2101,2235,2039,1814,1878,2008
63335,-44480,-13860,-45548,-12780,-3800,3800,-7,-10,2,-54,1,3919,-10,-3,933,1765,1872,2101,2235,2039,1814,1878,2008
64336,-44472,-13852,-45548,-12780,-3800,3800,-7,-11,-1,-61,0,3911,5,3,933,1764,1872,2099,2233,2038,1812,1877,2006
65337,-44472,-13856,-45548,-12780,-3800,3800,-7,-11,-1,-64,7,3938,3,-1,933,1764,1872,2099,2233,2038,1812,1877,2006
66338,-44468,-13848,-45548,-12780,-3800,3800,-5,-10,1,-63,-13,3935,-10,2,932,1764,1872,2099,2233,2038,1812,1877,2006
67339,-44476,-13860,-45548,-12780,-3800,3800,-5,-8,3,-76,-28,3918,-6,6,933,1764,1872,2099,2233,2038,1812,1877,2006
68340,-44472,-13852,-45548,-12780,-3800,3800,-5,-7,1,-66,-8,3912,7,-7,933,1764,1872,2099,2233,2038,1812,1877,2006
69341,-44484,-13864,-45548,-12780,-3800,3800,-6,-10,0,-46,-15,3930,-1,6,933,1764,1872,2099,2233,2038,1812,1877,2006
70342,-44492,-13848,-45548,-12780,-3800,3800,-5,-10,-1,-46,11,3918,-9,-5,932,1765,1873,2099,2233,2039,1812,1876,2004
71343,-44468,-13844,-45548,-12780,-3800,3800,-6,-11,-1,-64,35,3891,-8,3,932,1765,1873,2099,2233,2039,1812,1876,2004
72344,-44464,-13852,-45548,-12780,-3800,3800,-6,-9,-1,-57,20,3901,7,-5,933,1765,1873,2099,2233,2039,1812,1876,2004
73345,-44472,-13860,-45548,-12780,-3800,3800,-6,-7,-3,-63,-8,3867,8,7,933,1765,1873,2099,2233,2039,1812,1876,2004
74346,-44484,-13848,-45548,-12780,-3800,3800,-6,-9,-4,-94,14,3880,8,7,933,1765,1873,2099,2233,2039,1812,1876,2004
75347,-44480,-13860,-45548,-12780,-3800,3800,-6,-12,-1,-76,6,3900,-9,-7,933,1765,1874,2102,2234,2040,1813,1876,2006
76348,-44456,-13852,-45548,-12780,-3800,3800,-5,-13,-2,-65,9,3929,-9,0,933,1765,1874,2102,2234,2040,1813,1876,2006
77349,-44476,-13848,-45548,-12780,-3800,3800,-5,-14,-7,-58,-13,3927,-6,-5,933,1765,1874,2102,2234,2040,1813,1876,2006
78350,-44484,-13856,-45548,-12780,-3800,3800,-7,-12,-3,-78,-17,3902,8,-5,932,1765,1874,2102,2234,2040,1813,1876,2006
79351,-44460,-13864,-45548,-12780,-3800,3800,-8,-9,-3,-67,13,3870,9,7,933,1765,1874,2102,2234,2040,1813,1876,2006
80352,-44476,-13856,-45548,-12780,-3800,3800,-8,-9,-3,-57,18,3886,2,-7,933,1765,1874,2102,2234,2040,1813,1876,2006
81353,-44480,-13856,-45548,-12780,-3800,3800,-7,-10,-5,-46,-9,3928,-10,-7,933,1764,1870,2098,2232,2039,1812,1877,2003
82354,-44476,-13872,-45548,-12780,-3800,3800,-8,-11,-4,-68,-22,3871,-10,0,933,1764,1870,2098,2232,2039,1812,1877,2003
83355,-44472,-13844,-45548,-12780,-3800,3800,-8,-11,-4,-56,-14,3859,-7,-1,933,1764,1870,2098,2232,2039,1812,1877,2003
84356,-44480,-13860,-45548,-12780,-3800,3800,-8,-10,-4,-53,0,3903,-3,-6,933,1764,1870,2098,2232,2039,1812,1877,2003
85357,-44472,-13848,-45548,-12780,-3800,3800,-8,-8,-2,-54,-7,3896,5,-7,933,1764,1870,2098,2232,2039,1812,1877,2003
86358,-44472,-13852,-45548,-12780,-3800,3800,-6,-7,-1,-57,2,3882,9,6,933,1765,1871,2099,2232,2038,1811,1876,2005
87359,-44468,-13856,-45548,-12780,-3800,3800,-7,-9,-1,-49,6,3884,2,2,932,1765,1871,2099,2232,2038,1811,1876,2005
88360,-44476,-13852,-45548,-12780,-3800,3800,-7,-11,-2,-73,18,3913,-6,6,932,1765,1871,2099,2232,2038,1811,1876,2005
89361,-44472,-13856,-45548,-12780,-3800,3800,-8,-10,-3,-66,-4,3928,-10,-6,933,1765,1871,2099,2232,2038,1811,1876,2005
90362,-44472,-13856,-45548,-12780,-3800,3800,-7,-10,-2,-59,-24,3918,-4,-3,933,1765,1871,2099,2232,2038,1811,1876,2005
91363,-44472,-13868,-45548,-12780,-3800,3800,-7,-12,-2,-64,-17,3910,1,-6,933,1765,1871,2099,2232,2038,1811,1876,2005
92364,-44476,-13848,-45548,-12780,-3800,3800,-6,-12,0,-69,-10,3912,8,7,933,1764,1872,2099,2234,2039,1813,1877,2005
93365,-44480,-13836,-45548,-12780,-3800,3800,-5,-11,-1,-71,4,3918,1,-3,933,1764,1872,2099,2234,2039,1813,1877,2005
94366,-44488,-13848,-45548,-12780,-3800,3800,-5,-9,-1,-35,-22,3916,-1,-4,933,1764,1872,2099,2234,2039,1813,1877,2005
95367,-44472,-13848,-45548,-12780,-3800,3800,-9,-7,-1,-35,-7,3941,-8,-1,933,1764,1872,2099,2234,2039,1813,1877,2005
96368,-44472,-13844,-45548,-12780,-3800,3800,-10,-10,1,-35,-2,3952,-10,4,933,1764,1872,2099,2234,2039,1813,1877,2005
97369,-44480,-13844,-45548,-12780,-3800,3800,-7,-12,1,-36,-17,3965,-4,2,933,1764,1872,2099,2231,2037,1811,1878,2008
98370,-44480,-13860,-45548,-12780,-3800,3800,-7,-11,-1,-30,-4,3881,2,4,933,1764,1872,2099,2231,2037,1811,1878,2008
99371,-44468,-13852,-45548,-12780,-3800,3800,-7,-10,-2,-49,28,3889,8,-5,933,1764,1872,2099,2231,2037,1811,1878,2008
100372,-44472,-13844,-45548,-12780,-3800,3800,-9,-8,0,-59,-3,3880,9,-5,933,1764,1872,2099,2231,2037,1811,1878,2008
101373,-44480,-13864,-45548,-12780,-3800,3800,-8,-7,0,-77,-19,3899,8,4,933,1764,1872,2099,2231,2037,1811,1878,2008
102376,-44484,-13856,-45548,-12780,-3800,3800,-8,-7,2,-53,-7,3906,7,1,933,1764,1872,2099,2231,2037,1811,1878,2008
103375,-44476,-13856,-45548,-12780,-3800,3800,-8,-8,2,-44,5,3903,5,4,933,1765,1871,2099,2233,2039,1812,1876,2005
104376,-44472,-13856,-45548,-12780,-3800,3800,-7,-8,2,-70,-18,3886,4,2,932,1765,1871,2099,2233,2039,1812,1876,2005
105377,-44476,-13864,-45548,-12780,-3800,3800,-7,-7,3,-56,-11,3872,-7,-6,931,1765,1871,2099,2233,2039,1812,1876,2005
106378,-44472,-13852,-45548,-12780,-3800,3800,-7,-7,3,-48,10,3887,-10,-6,933,1765,1871,2099,2233,2039,1812,1876,2005
107379,-44488,-13856,-45548,-12780,-3800,3800,-9,-6,3,-65,18,3893,-9,-6,933,1765,1871,2099,2233,2039,1812,1876,2005
108380,-44472,-13856,-45548,-12780,-3800,3800,-8,-7,3,-57,4,3913,-3,4,933,1765,1872,2099,2234,2040,1813,1877,2004
109381,-44464,-13856,-45548,-12780,-3800,3800,-8,-8,2,-49,1,3896,-5,-3,933,1765,1872,2099,2234,2040,1813,1877,2004
110382,-44484,-13844,-45548,-12780,-3800,3800,-8,-8,3,-68,-4,3924,-5,-4,933,1765,1872,2099,2234,2040,1813,1877,2004
111383,-44480,-13860,-45548,-12780,-3800,3800,-9,-7,1,-43,-6,3943,5,4,933,1765,1872,2099,2234,2040,1813,1877,2004
112384,-44464,-13844,-45548,-12780,-3800,3800,-7,-9,0,-69,31,3922,0,7,933,1765,1872,2099,2234,2040,1813,1877,2004
113385,-44472,-13860,-45548,-12780,-3800,3800,-5,-11,2,-41,12,3912,-2,-6,933,1765,1872,2099,2234,2040,1813,1877,2004
114386,-44476,-13864,-45548,-12780,-3800,3800,-4,-11,4,-51,0,3893,5,6,933,1766,1874,2101,2234,2040,1812,1876,2005
115387,-44472,-13852,-45548,-12780,-3800,3800,-6,-11,3,-50,-4,3927,7,-7,932,1766,1874,2101,2234,2040,1812,1876,2005
116388,-44468,-13848,-45548,-12780,-3800,3800,-8,-11,3,-49,-11,3922,6,5,933,1766,1874,2101,2234,2040,1812,1876,2005
117389,-44472,-13848,-45548,-12780,-3800,3800,-8,-10,3,-56,5,3911,8,-6,933,1766,1874,2101,2234,2040,1812,1876,2005
118390,-44472,-13856,-45548,-12780,-3800,3800,-6,-8,1,-50,-5,3910,7,7,933,1766,1874,2101,2234,2040,1812,1876,2005
119391,-44480,-13856,-45548,-12780,-3800,3800,-4,-6,4,-45,21,3913,6,-6,933,1766,1871,2100,2232,2039,1809,1875,2007
120392,-44476,-13844,-45548,-12780,-3800,3800,-6,-5,4,-63,19,3896,8,0,933,1766,1871,2100,2232,2039,1809,1875,2007
121393,-44476,-13852,-45548,-12780,-3800,3800,-8,-6,2,-74,14,3920,7,5,932,1766,1871,2100,2232,2039,1809,1875,2007
122394,-44468,-13852,-45548,-12780,-3800,3800,-5,-8,6,-49,-25,3920,2,-4,932,1766,1871,2100,2232,2039,1809,1875,2007
123395,-44472,-13832,-45548,-12780,-3800,3800,-5,-9,4,-49,-3,3926,8,6,932,1766,1871,2100,2232,2039,1809,1875,2007
124396,-44468,-13848,-45548,-12780,-3800,3800,-6,-8,1,-63,0,3904,9,4,933,1766,1871,2100,2232,2039,1809,1875,2007
125397,-44480,-13852,-45548,-12780,-3800,3800,-6,-8,2,-72,-13,3905,6,2,933,1764,1871,2099,2233,2039,1813,1876,2005
126398,-44464,-13840,-45548,-12780,-3800,3800,-5,-10,4,-81,-11,3907,-6,-2,933,1764,1871,2099,2233,2039,1813,1876,2005
127399,-44480,-13848,-45548,-12780,-3800,3800,-4,-10,4,-84,-3,3913,-8,7,933,1764,1871,2099,2233,2039,1813,1876,2005
128400,-44468,-13860,-45548,-12780,-3800,3800,-4,-9,2,-76,10,3922,-10,-6,933,1764,1871,2099,2233,2039,1813,1876,2005
129401,-44472,-13848,-45548,-12780,-3800,3800,-4,-10,2,-63,15,3902,-8,6,933,1764,1871,2099,2233,2039,1813,1876,2005
130402,-44468,-13852,-45548,-12780,-3800,3800,-8,-9,2,-39,3,3932,-3,-7,933,1765,1871,2099,2233,2039,1812,1876,2006
131403,-44468,-13860,-45548,-12780,-3800,3800,-10,-8,0,-41,34,3941,1,7,933,1765,1871,2099,2233,2039,1812,1876,2006
132404,-44472,-13848,-45548,-12780,-3800,3800,-8,-9,2,-66,25,3914,8,1,933,1765,1871,2099,2233,2039,1812,1876,2006
133405,-44484,-13856,-45548,-12780,-3800,3800,-6,-11,2,-58,24,3906,7,2,933,1765,1871,2099,2233,2039,1812,1876,2006
134406,-44476,-13852,-45548,-12780,-3800,3800,-5,-10,2,-73,20,3914,3,2,933,1765,1871,2099,2233,2039,1812,1876,2006
135407,-44464,-13856,-45548,-12780,-3800,3800,-6,-11,2,-83,7,3884,-10,1,933,1765,1871,2099,2233,2039,1812,1876,2006
136408,-44472,-13852,-45548,-12780,-3800,3800,-7,-10,1,-91,25,3893,-10,-7,933,1763,1871,2101,2236,2040,1812,1876,2005
137409,-44472,-13856,-45548,-12780,-3800,3800,-4,-13,1,-79,21,3886,-10,0,933,1763,1871,2101,2236,2040,1812,1876,2005
138410,-44484,-13848,-45548,-12780,-3800,3800,-4,-11,2,-87,0,3876,-10,8,932,1763,1871,2101,2236,2040,1812,1876,2005
139411,-44480,-13856,-45548,-12780,-3800,3800,-7,-11,2,-64,-2,3912,-10,-7,932,1763,1871,2101,2236,2040,1812,1876,2005
140412,-44476,-13848,-45548,-12780,-3800,3800,-6,-10,-1,-78,-6,3891,-10,-7,933,1763,1871,2101,2236,2040,1812,1876,2005
141413,-44484,-13856,-45548,-12780,-3800,3800,-5,-10,0,-69,-14,3913,3,7,933,1765,1871,2100,2233,2040,1814,1877,2006
142414,-44468,-13856,-45548,-12780,-3800,3800,-6,-10,-1,-49,-6,3885,5,5,933,1765,1871,2100,2233,2040,1814,1877,2006
143415,-44476,-13848,-45548,-12780,-3800,3800,-6,-10,-1,-64,4,3922,7,-5,933,1765,1871,2100,2233,2040,1814,1877,2006
144416,-44468,-13852,-45548,-12780,-3800,3800,-6,-9,-2,-54,11,3926,6,-4,933,1765,1871,2100,2233,2040,1814,1877,2006
145417,-44472,-13840,-45548,-12780,-3800,3800,-7,-10,-1,-38,11,3900,-3,-5,933,1765,1871,2100,2233,2040,1814,1877,2006
146418,-44476,-13848,-45548,-12780,-3800,3800,-4,-9,0,-57,-2,3881,-8,0,933,1765,1871,2100,2233,2040,1814,1877,2006
147419,-44472,-13856,-45548,-12780,-3800,3800,-4,-8,-2,-69,-15,3897,-9,0,933,1765,1870,2099,2232,2038,1811,1876,2005
148420,-44468,-13856,-45548,-12780,-3800,3800,-7,-8,-4,-51,5,3910,-8,4,933,1765,1870,2099,2232,2038,1811,1876,2005
149421,-44488,-13856,-45548,-12780,-3800,3800,-7,-10,-2,-42,9,3878,2,-5,933,1765,1870,2099,2232,2038,1811,1876,2005
150424,-44472,-13848,-45548,-12780,-3800,3800,-7,-10,-1,-63,2,3912,9,7,933,1765,1870,2099,2232,2038,1811,1876,2005
151423,-44476,-13848,-45548,-12780,-3800,3800,-7,-11,-3,-83,14,3940,7,-2,933,1765,1870,2099,2232,2038,1811,1876,2005
152424,-44476,-13836,-45548,-12780,-3800,3800,-10,-13,-2,-74,12,3923,6,-5,932,1765,1871,2099,2231,2038,1811,1876,2005
153425,-44472,-13856,-45548,-12780,-3800,3800,-8,-13,-2,-63,-23,3888,-7,3,933,1765,1871,2099,2231,2038,1811,1876,2005
154426,-44472,-13860,-45548,-12780,-3800,3800,-7,-12,-2,-42,-29,3872,-8,3,933,1765,1871,2099,2231,2038,1811,1876,2005
155427,-44472,-13852,-45548,-12780,-3800,3800,-7,-10,-1,-53,-2,3946,-10,-7,932,1765,1871,2099,2231,2038,1811,1876,2005
156428,-44476,-13852,-45548,-12780,-3800,3800,-6,-10,-2,-51,-9,3949,2,-1,932,1765,1871,2099,2231,2038,1811,1876,2005
157429,-44484,-13848,-45548,-12780,-3800,3800,-5,-10,0,-73,19,3928,7,-7,933,1765,1871,2099,2231,2038,1811,1876,2005
158430,-44480,-13852,-45548,-12780,-3800,3800,-5,-9,0,-64,-9,3917,9,6,933,1766,1871,2100,2234,2040,1813,1877,2006
159431,-44480,-13856,-45548,-12780,-3800,3800,-8,-7,-4,-61,-18,3904,4,-7,933,1766,1871,2100,2234,2040,1813,1877,2006
160432,-44472,-13844,-45548,-12780,-3800,3800,-8,-6,-4,-48,3,3910,-8,7,933,1766,1871,2100,2234,2040,1813,1877,2006
161433,-44476,-13848,-45548,-12780,-3800,3800,-7,-9,-2,-53,-20,3905,-8,2,933,1766,1871,2100,2234,2040,1813,1877,2006
162434,-44476,-13844,-45548,-12780,-3800,3800,-7,-12,-1,-52,-16,3865,9,-7,933,1766,1871,2100,2234,2040,1813,1877,2006
163435,-44464,-13856,-45548,-12780,-3800,3800,-10,-12,0,-63,-17,3901,8,6,933,1765,1871,2099,2233,2037,1811,1878,2008
164436,-44464,-13848,-45548,-12780,-3800,3800,-11,-11,-1,-56,-28,3903,0,-6,933,1765,1871,2099,2233,2037,1811,1878,2008
165437,-44476,-13852,-45548,-12780,-3800,3800,-11,-8,-1,-50,-16,3892,-10,0,933,1765,1871,2099,2233,2037,1811,1878,2008
166438,-44468,-13864,-45548,-12780,-3800,3800,-9,-11,-1,-59,-11,3899,-10,6,933,1765,1871,2099,2233,2037,1811,1878,2008
167439,-44480,-13852,-45548,-12780,-3800,3800,-9,-12,0,-37,-1,3894,-8,6,932,1765,1871,2099,2233,2037,1811,1878,2008
168440,-44480,-13852,-45548,-12780,-3800,3800,-10,-9,1,-59,-6,3915,6,-4,933,1765,1871,2099,2233,2037,1811,1878,2008
169441,-44468,-13848,-45548,-12780,-3800,3800,-6,-8,2,-72,-18,3906,8,7,933,1766,1872,2099,2232,2040,1812,1876,2006
170442,-44468,-13864,-45548,-12780,-3800,3800,-4,-7,2,-41,-10,3916,9,-7,933,1766,1872,2099,2232,2040,1812,1876,2006
171443,-44472,-13860,-45548,-12780,-3800,3800,-6,-6,0,-49,-23,3889,9,7,933,1766,1872,2099,2232,2040,1812,1876,2006
172444,-44472,-13852,-45548,-12780,-3800,3800,-8,-8,1,-42,-19,3888,9,-6,932,1766,1872,2099,2232,2040,1812,1876,2006
173445,-44484,-13852,-45548,-12780,-3800,3800,-10,-10,1,-63,-49,3904,8,5,932,1766,1872,2099,2232,2040,1812,1876,2006
174446,-44472,-13860,-45548,-12780,-3800,3800,-10,-10,1,-58,-22,3914,-5,-5,933,1765,1870,2099,2233,2040,1813,1877,2006
175447,-44480,-13852,-45548,-12780,-3800,3800,-9,-9,0,-40,1,3903,-9,3,933,1765,1870,2099,2233,2040,1813,1877,2006
176448,-44472,-13848,-45548,-12780,-3800,3800,-8,-8,1,-78,1,3898,-10,-2,933,1765,1870,2099,2233,2040,1813,1877,2006
177449,-44472,-13856,-45548,-12780,-3800,3800,-9,-8,2,-55,-11,3919,3,3,933,1765,1870,2099,2233,2040,1813,1877,2006
178450,-44472,-13848,-45548,-12780,-3800,3800,-7,-10,3,-56,-2,3924,7,-7,933,1765,1870,2099,2233,2040,1813,1877,2006
179451,-44468,-13852,-45548,-12780,-3800,3800,-7,-11,3,-45,-19,3913,-1,-5,933,1765,1870,2099,2233,2040,1813,1877,2006
180452,-44472,-13856,-45548,-12780,-3800,3800,-6,-10,4,-46,-10,3894,-10,7,933,1766,1872,2100,2233,2040,1811,1876,2005
181453,-44480,-13852,-45548,-12780,-3800,3800,-8,-10,5,-31,4,3898,-10,-7,933,1766,1872,2100,2233,2040,1811,1876,2005
182454,-44464,-13868,-45548,-12780,-3800,3800,-10,-8,4,-48,-8,3903,2,0,933,1766,1872,2100,2233,2040,1811,1876,2005
183455,-44476,-13856,-45548,-12780,-3800,3800,-9,-7,4,-56,-33,3902,6,-3,933,1766,1872,2100,2233,2040,1811,1876,2005
184456,-44468,-13856,-45548,-12780,-3800,3800,-5,-9,3,-46,-17,3883,-6,-5,933,1766,1872,2100,2233,2040,1811,1876,2005
185457,-44476,-13844,-45548,-12780,-3800,3800,-4,-9,2,-54,9,3903,-9,7,933,1766,1872,2099,2233,2039,1811,1874,2006
186458,-44476,-13856,-45548,-12780,-3800,3800,-5,-7,1,-57,13,3942,-7,-6,933,1766,1872,2099,2233,2039,1811,1874,2006
187459,-44476,-13852,-45548,-12780,-3800,3800,-9,-6,1,-58,20,3916,6,2,933,1766,1872,2099,2233,2039,1811,1874,2006
188460,-44488,-13852,-45548,-12780,-3800,3800,-11,-8,2,-75,-6,3914,7,4,933,1766,1872,2099,2233,2039,1811,1874,2006
189461,-44480,-13864,-45548,-12780,-3800,3800,-10,-10,2,-95,13,3894,-7,-7,932,1766,1872,2099,2233,2039,1811,1874,2006
190462,-44476,-13856,-45548,-12780,-3800,3800,-9,-11,4,-99,5,3910,-10,6,932,1766,1871,2098,2232,2039,1813,1878,2005
191463,-44468,-13856,-45548,-12780,-3800,3800,-7,-13,3,-74,2,3921,4,-3,933,1766,1871,2098,2232,2039,1813,1878,2005
192464,-44472,-13856,-45548,-12780,-3800,3800,-4,-11,2,-63,-14,3892,-4,2,933,1766,1871,2098,2232,2039,1813,1878,2005
193465,-44472,-13860,-45548,-12780,-3800,3800,-3,-8,3,-67,-8,3890,-7,7,933,1766,1871,2098,2232,2039,1813,1878,2005
194466,-44468,-13856,-45548,-12780,-3800,3800,-4,-7,2,-54,10,3901,9,-6,933,1766,1871,2098,2232,2039,1813,1878,2005
195467,-44480,-13856,-45548,-12780,-3800,3800,-4,-8,1,-76,14,3899,-7,-2,933,1766,1871,2098,2232,2039,1813,1878,2005
196468,-44484,-13856,-45548,-12780,-3800,3800,-5,-9,0,-87,-6,3929,-10,6,933,1766,1872,2099,2232,2039,1811,1876,2005
197469,-44472,-13860,-45548,-12780,-3800,3800,-5,-8,1,-96,-13,3942,-2,-7,933,1766,1872,2099,2232,2039,1811,1876,2005
198470,-44480,-13852,-45548,-12780,-3800,3800,-5,-9,2,-76,-11,3926,9,2,933,1766,1872,2099,2232,2039,1811,1876,2005
199471,-44460,-13860,-45548,-12780,-3800,3800,-7,-11,3,-39,12,3900,0,-2,933,1766,1872,2099,2232,2039,1811,1876,2005
200472,-44464,-13860,-45548,-12780,-3800,3800,-7,-11,1,-62,15,3935,-10,6,933,1766,1872,2099,2232,2039,1811,1876,2005
201473,-44472,-13852,-45548,-12780,-3800,3800,-4,-10,1,-73,9,3934,0,-6,933,1767,1873,2099,2231,2038,1813,1876,2005
202474,-44468,-13844,-45548,-12780,-3800,3800,-4,-11,2,-62,-9,3893,1,-7,933,1767,1873,2099,2231,2038,1813,1876,2005
203475,-44476,-13848,-45483,-12715,-705,1858,-5,-10,2,-69,-6,3928,9,-6,933,1767,1873,2099,2231,2038,1813,1876,2005
204476,-44464,-13852,-45418,-12650,-891,1942,-4,-9,1,-60,13,3905,-9,-5,933,1767,1873,2099,2231,2038,1813,1876,2005
205477,-44460,-13828,-45353,-12585,-717,1642,0,-6,0,-64,-14,3926,-8,16,919,1767,1873,2099,2231,2038,1813,1876,2005
206478,-44480,-13788,-45288,-12520,-314,1473,-2,-13,-6,-116,3,3946,5,25,915,1767,1873,2099,2231,2038,1813,1876,2005
207479,-44472,-13732,-45223,-12455,-594,1284,-2,-23,8,-155,19,3998,0,34,921,1765,1871,2099,2229,2036,1813,1878,2006
208480,-44468,-13644,-45158,-12390,-470,857,-3,-30,15,-85,145,4052,11,45,924,1765,1871,2099,2229,2036,1813,1878,2006
209481,-44476,-13556,-45093,-12325,-231,829,-4,-62,8,-387,15,4116,-3,46,925,1765,1871,2099,2229,2036,1813,1878,2006
210482,-44480,-13468,-45028,-12260,-197,802,2,-94,-4,-204,-11,4079,-5,45,927,1765,1871,2099,2229,2036,1813,1878,2006
211483,-44468,-13364,-44963,-12195,-333,555,9,-106,-15,-236,-59,4261,2,49,928,1765,1871,2099,2229,2036,1813,1878,2006
212484,-44476,-13248,-44898,-12130,6,343,10,-102,-23,-34,-55,4030,11,57,921,1768,1874,2103,2237,2044,1815,1882,2014
213485,-44472,-13144,-44833,-12065,-69,446,11,-73,-30,-63,-28,4114,4,47,930,1768,1874,2103,2237,2044,1815,1882,2014
214486,-44472,-13052,-44768,-12000,60,563,-2,-54,-47,-71,-33,3954,1,47,931,1768,1874,2103,2237,2044,1815,1882,2014
215487,-44476,-12944,-44703,-11935,193,311,-18,-32,-67,-173,-91,3951,-2,46,930,1768,1874,2103,2237,2044,1815,1882,2014
216488,-44468,-12852,-44638,-11870,113,478,-34,-35,-82,-340,-65,3997,-6,55,930,1768,1874,2103,2237,2044,1815,1882,2014
217489,-44480,-12776,-44573,-11805,457,666,-47,-58,-87,-404,-53,4086,6,47,931,1768,1874,2103,2237,2044,1815,1882,2014
218490,-44468,-12688,-44508,-11740,222,488,-45,-85,-81,-409,-93,4020,-4,53,930,1779,1888,2114,2248,2049,1823,1895,2028
219491,-44464,-12564,-44443,-11675,396,-34,-46,-116,-81,-386,-158,3939,18,46,927,1779,1888,2114,2248,2049,1823,1895,2028
220492,-44456,-12488,-44378,-11610,416,553,-57,-167,-81,-567,-137,4068,15,56,930,1779,1888,2114,2248,2049,1823,1895,2028
221493,-44456,-12412,-44313,-11545,595,540,-59,-180,-76,-444,-155,4014,15,50,931,1779,1888,2114,2248,2049,1823,1895,2028
222494,-44448,-12316,-44248,-11480,565,252,-56,-199,-77,-218,-192,3990,10,59,929,1779,1888,2114,2248,2049,1823,1895,2028
223495,-44436,-12232,-44183,-11415,579,380,-43,-212,-81,-288,-226,4101,24,55,927,1773,1880,2106,2237,2060,1831,1898,2031
224496,-44416,-12148,-44118,-11350,535,357,-39,-218,-83,-351,-142,4381,12,48,928,1773,1880,2106,2237,2060,1831,1898,2031
225497,-44372,-12076,-44053,-11285,261,498,-23,-217,-92,-126,-112,4132,26,43,928,1773,1880,2106,2237,2060,1831,1898,2031
226498,-44360,-12004,-43988,-11220,726,491,-26,-239,-104,-43,-149,4063,27,43,929,1773,1880,2106,2237,2060,1831,1898,2031
227499,-44324,-11924,-43923,-11155,461,372,-21,-237,-111,-90,-251,4212,29,47,930,1773,1880,2106,2237,2060,1831,1898,2031
228500,-44300,-11856,-43858,-11090,661,519,-31,-235,-121,-88,-109,3917,35,51,927,1773,1880,2106,2237,2060,1831,1898,2031
229501,-44260,-11780,-43793,-11025,492,405,-25,-225,-142,-107,-134,4070,19,41,929,1770,1877,2101,2233,2046,1815,1886,2015
230502,-44220,-11720,-43728,-10960,522,612,-36,-232,-150,-109,-240,4044,25,48,927,1770,1877,2101,2233,2046,1815,1886,2015
231503,-44160,-11652,-43663,-10895,279,509,-40,-255,-160,-223,-142,3892,25,39,929,1770,1877,2101,2233,2046,1815,1886,2015
232504,-44108,-11568,-43598,-10830,395,285,-53,-274,-169,-312,-201,3876,32,35,927,1770,1877,2101,2233,2046,1815,1886,2015
233505,-44068,-11500,-43533,-10765,576,483,-61,-297,-165,-349,-223,3859,39,45,929,1770,1877,2101,2233,2046,1815,1886,2015
234506,-44020,-11456,-43468,-10700,496,808,-57,-314,-157,-375,-230,3802,30,32,930,1773,1882,2103,2239,2034,1804,1873,2000
235507,-43956,-11392,-43403,-10635,298,560,-50,-336,-157,-418,-277,3840,43,43,928,1773,1882,2103,2239,2034,1804,1873,2000
236508,-43920,-11332,-43338,-10570,684,616,-36,-345,-151,-317,-265,3963,30,36,927,1773,1882,2103,2239,2034,1804,1873,2000
237509,-43860,-11260,-43273,-10505,390,458,-29,-330,-137,-213,-306,3835,42,38,929,1773,1882,2103,2239,2034,1804,1873,2000
238510,-43796,-11220,-43208,-10440,341,889,-22,-335,-127,-261,-323,3968,42,45,927,1773,1882,2103,2239,2034,1804,1873,2000
239511,-43736,-11144,-43143,-10375,397,425,-9,-305,-117,-88,-339,3908,47,41,929,1773,1882,2103,2239,2034,1804,1873,2000
240512,-43684,-11092,-43078,-10310,513,742,2,-292,-104,-64,-381,3778,43,42,926,1771,1876,2097,2235,2022,1795,1865,1987
241513,-43620,-11032,-43013,-10245,365,648,18,-282,-97,-167,-342,3873,49,30,928,1771,1876,2097,2235,2022,1795,1865,1987
242514,-43568,-10980,-42948,-10180,531,764,37,-271,-92,-248,-288,3826,34,39,927,1771,1876,2097,2235,2022,1795,1865,1987
243515,-43480,-10912,-42883,-10115,53,561,60,-264,-88,-36,-226,3873,30,42,928,1771,1876,2097,2235,2022,1795,1865,1987
244516,-43424,-10848,-42818,-10050,464,613,73,-257,-77,-65,-213,3785,34,30,927,1771,1876,2097,2235,2022,1795,1865,1987
245517,-43348,-10788,-42753,-9985,202,669,85,-253,-76,-88,-169,3822,31,37,930,1775,1873,2096,2242,2008,1787,1856,1972
246518,-43284,-10744,-42688,-9920,353,894,102,-233,-75,-85,-130,3843,41,30,928,1775,1873,2096,2242,2008,1787,1856,1972
247519,-43236,-10668,-42623,-9855,574,482,108,-228,-78,-26,-40,3895,47,29,929,1775,1873,2096,2242,2008,1787,1856,1972
248520,-43168,-10612,-42558,-9790,320,743,113,-209,-74,-109,-100,3786,47,29,927,1775,1873,2096,2242,2008,1787,1856,1972
249521,-43104,-10540,-42493,-9725,371,534,126,-197,-68,152,20,4078,44,40,927,1775,1873,2096,2242,2008,1787,1856,1972
250522,-43052,-10464,-42428,-9660,538,472,149,-172,-57,30,-25,3881,30,33,928,1775,1873,2096,2242,2008,1787,1856,1972
251523,-42984,-10424,-42363,-9595,335,952,159,-157,-61,-82,-124,3907,31,26,929,1784,1877,2103,2256,2005,1787,1858,1974
252524,-42924,-10372,-42298,-9530,441,818,166,-126,-68,-13,-124,4000,34,32,928,1784,1877,2103,2256,2005,1787,1858,1974
253525,-42856,-10320,-42233,-9465,337,835,178,-105,-57,70,-156,3813,33,28,926,1784,1877,2103,2256,2005,1787,1858,1974
254526,-42804,-10288,-42168,-9400,554,1125,195,-92,-42,-46,-150,3962,51,34,927,1784,1877,2103,2256,2005,1787,1858,1974
255527,-42736,-10212,-42103,-9335,350,562,214,-87,-29,-198,-165,3780,34,30,927,1784,1877,2103,2256,2005,1787,1858,1974
256528,-42664,-10164,-42038,-9270,292,934,236,-101,-13,-310,-169,3865,44,27,924,1784,1881,2111,2255,2014,1800,1866,1986
257529,-42600,-10124,-41973,-9205,393,1064,256,-113,1,-167,-142,3841,49,22,929,1784,1881,2111,2255,2014,1800,1866,1986
258530,-42532,-10064,-41908,-9140,340,820,273,-109,14,-95,-101,3968,50,26,926,1784,1881,2111,2255,2014,1800,1866,1986
259531,-42468,-9996,-41843,-9075,391,718,275,-125,29,-83,-261,3599,51,36,925,1784,1881,2111,2255,2014,1800,1866,1986
260532,-42408,-9940,-41778,-9010,448,879,287,-114,46,-121,-86,4006,46,32,927,1784,1881,2111,2255,2014,1800,1866,1986
261533,-42352,-9880,-41713,-8945,509,835,306,-92,55,-60,-17,3786,48,37,927,1784,1881,2111,2255,2014,1800,1866,1986
262534,-42276,-9820,-41648,-8880,246,842,313,-71,39,118,-39,3952,41,32,926,1781,1883,2112,2247,2024,1798,1866,1996
263535,-42216,-9796,-41583,-8815,452,1342,320,-67,46,166,-30,3919,35,38,926,1781,1883,2112,2247,2024,1798,1866,1996
264536,-42156,-9732,-41518,-8750,458,843,321,-95,42,101,45,3861,42,39,927,1781,1883,2112,2247,2024,1798,1866,1996
265537,-42080,-9664,-41453,-8685,245,791,336,-81,38,28,116,4122,42,30,923,1781,1883,2112,2247,2024,1798,1866,1996
266538,-42024,-9620,-41388,-8620,507,1116,338,-73,19,74,141,3861,29,31,926,1781,1883,2112,2247,2024,1798,1866,1996
267539,-41964,-9548,-41323,-8555,463,759,345,-68,15,51,117,4028,47,34,927,1774,1879,2100,2231,2031,1800,1871,2005
268540,-41896,-9492,-41258,-8490,359,970,349,-68,5,131,139,4019,29,30,924,1774,1879,2100,2231,2031,1800,1871,2005
269541,-41840,-9448,-41193,-8425,520,1145,347,-104,1,13,139,3957,30,36,927,1774,1879,2100,2231,2031,1800,1871,2005
270542,-41788,-9392,-41128,-8360,586,1007,350,-124,-2,-69,129,3878,33,43,926,1774,1879,2100,2231,2031,1800,1871,2005
271543,-41712,-9312,-41063,-8295,274,689,352,-122,-6,-32,178,4127,38,45,923,1774,1879,2100,2231,2031,1800,1871,2005
272544,-41684,-9260,-40998,-8230,919,1055,357,-129,-16,43,189,4062,52,32,924,1774,1879,2100,2231,2031,1800,1871,2005
273545,-41608,-9196,-40933,-8165,305,907,358,-149,-18,-83,173,3998,28,32,928,1763,1870,2095,2226,2044,1810,1880,2018
274546,-41552,-9124,-40868,-8100,566,799,365,-175,-15,-70,155,3926,35,36,921,1763,1870,2095,2226,2044,1810,1880,2018
275547,-41492,-9084,-40803,-8035,524,1230,365,-194,-23,12,132,3982,43,41,925,1763,1870,2095,2226,2044,1810,1880,2018
276548,-41420,-9012,-40738,-7970,365,821,378,-227,-21,-37,70,3896,37,31,926,1763,1870,2095,2226,2044,1810,1880,2018
277552,-41360,-8960,-40673,-7905,521,1087,385,-228,-17,28,133,4003,33,29,923,1763,1870,2095,2226,2044,1810,1880,2018
278550,-41316,-8904,-40608,-7840,748,1049,385,-237,-11,16,88,3915,37,34,927,1766,1875,2104,2234,2051,1818,1884,2023
279551,-41228,-8828,-40543,-7775,170,786,384,-262,2,70,103,4111,35,29,924,1766,1875,2104,2234,2051,1818,1884,2023
280552,-41160,-8780,-40478,-7710,416,1158,385,-294,12,50,152,3962,41,32,923,1766,1875,2104,2234,2051,1818,1884,2023
281553,-41092,-8716,-40413,-7645,412,959,385,-327,13,-184,61,3990,32,38,928,1766,1875,2104,2234,2051,1818,1884,2023
282554,-41036,-8656,-40348,-7580,574,1015,382,-349,13,-46,81,4047,51,43,924,1766,1875,2104,2234,2051,1818,1884,2023
283555,-40968,-8612,-40283,-7515,421,1242,380,-337,6,210,133,4089,47,42,926,1766,1875,2104,2234,2051,1818,1884,2023
284556,-40888,-8544,-40218,-7450,252,938,375,-340,3,151,210,4089,45,31,925,1775,1884,2115,2245,2050,1816,1882,2021
285557,-40828,-8492,-40153,-7385,508,1155,373,-339,5,18,225,4103,34,34,923,1775,1884,2115,2245,2050,1816,1882,2021
286558,-40784,-8428,-40088,-7320,735,1006,369,-331,-10,72,290,3965,48,40,926,1775,1884,2115,2245,2050,1816,1882,2021
287559,-40716,-8360,-40023,-7255,431,952,359,-310,-35,189,298,4286,33,42,924,1775,1884,2115,2245,2050,1816,1882,2021
288560,-40656,-8324,-39958,-7190,538,1389,356,-305,-56,222,379,4137,33,35,924,1775,1884,2115,2245,2050,1816,1882,2021
289561,-40580,-8256,-39893,-7125,324,985,361,-315,-56,12,274,4009,48,37,925,1781,1884,2112,2245,2051,1816,1884,2018
290562,-40492,-8208,-39828,-7060,147,1257,364,-295,-72,-32,475,4142,46,39,921,1781,1884,2112,2245,2051,1816,1884,2018
291563,-40440,-8144,-39763,-6995,613,1058,368,-297,-85,-121,353,3947,29,28,925,1781,1884,2112,2245,2051,1816,1884,2018
292564,-40388,-8092,-39698,-6930,629,1225,380,-301,-98,-114,346,4177,36,37,924,1781,1884,2112,2245,2051,1816,1884,2018
293565,-40332,-8028,-39633,-6865,590,1076,394,-294,-103,-59,330,4140,50,41,924,1781,1884,2112,2245,2051,1816,1884,2018
294566,-40280,-7960,-39568,-6800,657,1024,415,-276,-108,-85,409,4163,48,44,922,1781,1884,2112,2245,2051,1816,1884,2018
295567,-40204,-7916,-39503,-6735,343,1349,434,-269,-106,-97,287,4084,50,37,924,1771,1871,2103,2242,2047,1816,1876,2005
296568,-40164,-7844,-39438,-6670,824,991,461,-272,-109,-97,286,4104,43,41,924,1771,1871,2103,2242,2047,1816,1876,2005
297569,-40096,-7776,-39373,-6605,470,1038,481,-278,-115,-168,295,4154,31,39,923,1771,1871,2103,2242,2047,1816,1876,2005
298570,-40036,-7704,-39308,-6540,577,979,507,-271,-117,-219,398,4174,49,44,923,1771,1871,2103,2242,2047,1816,1876,2005
299571,-39984,-7632,-39243,-6475,693,972,526,-258,-121,13,432,4160,36,39,924,1771,1871,2103,2242,2047,1816,1876,2005
300572,-39928,-7584,-39178,-6410,654,1293,542,-266,-121,309,460,3982,40,32,924,1772,1876,2110,2254,2019,1797,1857,1981
301573,-39860,-7528,-39113,-6345,501,1205,556,-290,-103,-78,290,3854,41,29,924,1772,1876,2110,2254,2019,1797,1857,1981
302574,-39776,-7472,-39048,-6280,278,1216,550,-288,-91,-149,254,3685,43,42,922,1772,1876,2110,2254,2019,1797,1857,1981
303575,-39724,-7392,-38983,-6215,694,897,544,-286,-85,19,317,3849,44,31,923,1772,1876,2110,2254,2019,1797,1857,1981
304576,-39648,-7336,-38918,-6150,381,1209,540,-286,-79,132,338,3797,32,27,924,1772,1876,2110,2254,2019,1797,1857,1981
305577,-39588,-7276,-38853,-6085,588,1165,541,-303,-76,-83,227,3839,47,29,924,1772,1876,2110,2254,2019,1797,1857,1981
306578,-39520,-7228,-38788,-6020,484,1337,549,-304,-82,76,315,3848,39,35,924,1794,1893,2121,2262,2001,1781,1850,1978
307579,-39444,-7180,-38723,-5955,371,1358,552,-298,-92,183,290,3691,47,28,923,1794,1893,2121,2262,2001,1781,1850,1978
308580,-39384,-7108,-38658,-5890,578,1050,552,-277,-98,116,409,4038,35,28,922,1794,1893,2121,2262,2001,1781,1850,1978
309581,-39332,-7052,-38593,-5825,694,1261,558,-244,-100,148,407,4042,31,34,922,1794,1893,2121,2262,2001,1781,1850,1978
310582,-39260,-6996,-38528,-5760,435,1273,565,-213,-116,310,307,4075,44,46,924,1794,1893,2121,2262,2001,1781,1850,1978
311584,-39204,-6956,-38463,-5695,646,1504,581,-178,-137,251,322,4280,40,32,923,1781,1879,2099,2230,2013,1784,1856,1992
312584,-39136,-6872,-38398,-5630,493,932,599,-159,-155,87,309,4128,44,31,920,1781,1879,2099,2230,2013,1784,1856,1992
313585,-39092,-6816,-38333,-5565,819,1293,626,-137,-163,48,389,4187,47,35,925,1781,1879,2099,2230,2013,1784,1856,1992
314586,-39028,-6740,-38268,-5500,570,1030,645,-156,-159,-181,339,3995,39,30,920,1781,1879,2099,2230,2013,1784,1856,1992
315587,-38952,-6692,-38203,-5435,407,1401,668,-202,-172,-448,313,3976,52,33,924,1781,1879,2099,2230,2013,1784,1856,1992
316588,-38904,-6644,-38138,-5370,779,1423,688,-253,-183,-422,267,4015,45,39,922,1781,1879,2099,2230,2013,1784,1856,1992
317589,-38840,-6568,-38073,-5305,580,1059,700,-289,-178,-438,255,3919,51,35,920,1758,1864,2092,2224,2044,1810,1878,2016
318590,-38760,-6520,-38008,-5240,361,1430,710,-278,-177,-220,285,3966,44,35,923,1758,1864,2092,2224,2044,1810,1878,2016
319591,-38712,-6464,-37943,-5175,783,1342,713,-282,-159,-115,286,3951,48,28,922,1758,1864,2092,2224,2044,1810,1878,2016
320592,-38640,-6400,-37878,-5110,475,1243,710,-310,-132,-275,181,3602,31,32,920,1758,1864,2092,2224,2044,1810,1878,2016
321593,-38572,-6356,-37813,-5045,521,1520,715,-331,-102,-326,194,3818,48,43,923,1758,1864,2092,2224,2044,1810,1878,2016
322594,-38496,-6292,-37748,-4980,408,1271,741,-351,-59,41,140,3978,31,39,920,1768,1877,2108,2241,2051,1820,1886,2024
323595,-38452,-6236,-37683,-4915,834,1383,747,-361,-28,160,252,4117,31,44,923,1768,1877,2108,2241,2051,1820,1886,2024
324596,-38380,-6172,-37618,-4850,476,1284,745,-362,-10,75,166,3813,47,31,919,1768,1877,2108,2241,2051,1820,1886,2024
325597,-38316,-6128,-37553,-4785,577,1561,720,-349,-13,215,250,4154,44,34,921,1768,1877,2108,2241,2051,1820,1886,2024
326598,-38260,-6072,-37488,-4720,689,1422,700,-335,-1,137,175,4033,30,43,920,1768,1877,2108,2241,2051,1820,1886,2024
327600,-38220,-6016,-37423,-4655,919,1434,683,-321,0,324,228,3979,38,36,920,1768,1877,2108,2241,2051,1820,1886,2024
328600,-38144,-5924,-37358,-4590,456,951,673,-317,-16,187,333,4120,30,47,919,1785,1886,2113,2245,2039,1805,1871,2010
329601,-38068,-5868,-37293,-4525,444,1413,653,-341,-16,79,202,3985,42,45,925,1785,1886,2113,2245,2039,1805,1871,2010
330602,-38004,-5796,-37228,-4460,595,1205,642,-355,-35,159,168,3876,36,41,921,1785,1886,2113,2245,2039,1805,1871,2010
331603,-37952,-5748,-37163,-4395,761,1526,624,-387,-43,-192,168,4100,46,31,922,1785,1886,2113,2245,2039,1805,1871,2010
332604,-37888,-5704,-37098,-4330,612,1603,631,-399,-59,-133,306,4004,48,38,919,1785,1886,2113,2245,2039,1805,1871,2010
333605,-37836,-5632,-37033,-4265,779,1244,619,-421,-73,-98,254,4122,42,38,919,1770,1869,2095,2218,2048,1808,1873,2020
334606,-37772,-5564,-36968,-4200,630,1292,625,-455,-61,-198,146,4104,45,43,921,1770,1869,2095,2218,2048,1808,1873,2020
335607,-37692,-5496,-36903,-4135,412,1288,620,-497,-44,-374,247,4047,45,30,921,1770,1869,2095,2218,2048,1808,1873,2020
336608,-37632,-5440,-36838,-4070,669,1450,637,-504,-20,-262,155,4112,47,29,922,1770,1869,2095,2218,2048,1808,1873,2020
337609,-37600,-5380,-36773,-4005,1059,1406,643,-519,12,-32,209,3963,47,44,920,1770,1869,2095,2218,2048,1808,1873,2020
338610,-37536,-5320,-36708,-3940,660,1413,656,-514,29,-50,173,4092,47,45,918,1770,1869,2095,2218,2048,1808,1873,2020
339611,-37460,-5268,-36643,-3875,498,1529,666,-507,62,-46,123,4045,45,35,920,1742,1852,2080,2196,2067,1821,1888,2038
340612,-37416,-5200,-36578,-3810,923,1326,678,-515,128,-169,-2,3945,37,45,920,1742,1852,2080,2196,2067,1821,1888,2038
341613,-37348,-5136,-36513,-3745,620,1377,692,-516,176,-160,28,3909,38,47,919,1742,1852,2080,2196,2067,1821,1888,2038
342614,-37272,-5084,-36448,-3680,506,1544,721,-558,215,-309,-201,3841,37,42,921,1742,1852,2080,2196,2067,1821,1888,2038
343615,-37208,-5012,-36383,-3615,659,1286,734,-633,232,73,-93,3679,42,40,920,1742,1852,2080,2196,2067,1821,1888,2038
344616,-37152,-4940,-36318,-3550,770,1278,742,-682,238,-416,-168,4278,31,50,921,1752,1866,2094,2221,2057,1815,1886,2024
345617,-37088,-4868,-36253,-3485,671,1270,738,-660,234,75,201,4334,43,40,921,1752,1866,2094,2221,2057,1815,1886,2024
346618,-37016,-4804,-36188,-3420,563,1372,712,-601,244,978,250,3750,40,47,921,1752,1866,2094,2221,2057,1815,1886,2024
347619,-36960,-4736,-36123,-3355,774,1318,653,-560,257,570,188,3823,47,35,921,1752,1866,2094,2221,2057,1815,1886,2024
348620,-36900,-4684,-36058,-3290,730,1535,597,-538,250,83,554,3792,33,33,920,1752,1866,2094,2221,2057,1815,1886,2024
349621,-36832,-4608,-35993,-3225,628,1222,548,-516,242,561,331,3803,42,46,919,1752,1866,2094,2221,2057,1815,1886,2024
350622,-36764,-4540,-35928,-3160,624,1319,510,-500,236,652,225,3740,33,37,922,1793,1895,2113,2256,2028,1794,1869,2000
351623,-36704,-4480,-35863,-3095,730,1425,479,-494,250,43,121,3926,47,30,921,1793,1895,2113,2256,2028,1794,1869,2000
352624,-36648,-4424,-35798,-3030,792,1487,479,-479,243,183,139,3663,39,28,920,1793,1895,2113,2256,2028,1794,1869,2000
353625,-36580,-4372,-35733,-2965,638,1554,453,-495,243,87,-41,3709,33,32,919,1793,1895,2113,2256,2028,1794,1869,2000
354626,-36512,-4316,-35668,-2900,635,1515,466,-530,271,-195,-33,4028,45,37,919,1793,1895,2113,2256,2028,1794,1869,2000
355627,-36476,-4240,-35603,-2835,1071,1253,480,-576,297,-174,-139,3714,36,40,919,1771,1862,2089,2216,2051,1814,1871,2013
356628,-36412,-4196,-35538,-2770,722,1678,515,-630,321,-216,-308,4175,35,30,919,1771,1862,2089,2216,2051,1814,1871,2013
357629,-36364,-4148,-35473,-2705,943,1650,546,-661,358,-223,-321,4061,43,40,917,1771,1862,2089,2216,2051,1814,1871,2013
358630,-36312,-4080,-35408,-2640,910,1396,575,-689,396,-198,-326,3971,34,43,915,1771,1862,2089,2216,2051,1814,1871,2013
359631,-36236,-4024,-35343,-2575,597,1558,604,-684,446,-56,-260,4233,36,46,917,1771,1862,2089,2216,2051,1814,1871,2013
360632,-36200,-3964,-35278,-2510,1132,1514,629,-668,491,46,-164,4142,33,36,919,1771,1862,2089,2216,2051,1814,1871,2013
361633,-36136,-3884,-35213,-2445,784,1247,649,-622,520,147,-78,4322,43,40,916,1714,1820,2056,2174,2068,1824,1880,2025
362634,-36084,-3820,-35148,-2380,950,1448,643,-584,548,448,200,4189,41,47,920,1714,1820,2056,2174,2068,1824,1880,2025
363635,-36008,-3768,-35083,-2315,637,1615,620,-549,582,450,120,3957,42,33,918,1714,1820,2056,2174,2068,1824,1880,2025
364636,-35944,-3712,-35018,-2250,789,1577,574,-511,604,355,339,3973,41,36,919,1714,1820,2056,2174,2068,1824,1880,2025
365637,-35872,-3660,-34953,-2185,680,1643,522,-467,606,316,590,3839,50,43,918,1714,1820,2056,2174,2068,1824,1880,2025
366638,-35816,-3588,-34888,-2120,891,1385,469,-426,604,484,597,3844,42,42,918,1745,1857,2083,2223,2055,1811,1889,2023
367639,-35748,-3524,-34823,-2055,739,1487,427,-405,601,393,643,3929,38,48,919,1745,1857,2083,2223,2055,1811,1889,2023
368640,-35684,-3452,-34758,-1990,790,1379,382,-409,591,262,640,3788,41,49,919,1745,1857,2083,2223,2055,1811,1889,2023
369641,-35628,-3384,-34693,-1925,901,1426,345,-420,567,350,466,3806,39,37,920,1745,1857,2083,2223,2055,1811,1889,2023
370642,-35576,-3316,-34628,-1860,968,1423,321,-426,547,114,340,3971,47,47,918,1745,1857,2083,2223,2055,1811,1889,2023
371643,-35512,-3256,-34563,-1795,819,1529,307,-444,519,260,343,3862,31,38,918,1745,1857,2083,2223,2055,1811,1889,2023
372644,-35428,-3192,-34498,-1730,546,1481,317,-460,504,261,190,3996,34,48,918,1782,1881,2108,2245,2071,1831,1892,2036
373645,-35376,-3120,-34433,-1665,963,1374,332,-482,500,142,88,3966,49,46,920,1782,1881,2108,2245,2071,1831,1892,2036
374646,-35316,-3048,-34368,-1600,869,1365,360,-508,498,62,-17,4119,32,35,918,1782,1881,2108,2245,2071,1831,1892,2036
375648,-35268,-3000,-34303,-1535,1040,1687,399,-520,492,103,-33,4094,35,47,918,1782,1881,2108,2245,2071,1831,1892,2036
376648,-35196,-2928,-34238,-1470,732,1378,427,-529,493,137,-148,4121,33,45,914,1782,1881,2108,2245,2071,1831,1892,2036
377649,-35132,-2856,-34173,-1405,833,1371,451,-529,514,191,110,4359,48,40,920,1749,1856,2098,2212,2077,1833,1880,2029
378650,-35064,-2800,-34108,-1340,780,1582,476,-519,542,190,162,4214,31,47,918,1749,1856,2098,2212,2077,1833,1880,2029
379651,-35008,-2736,-34043,-1275,941,1484,467,-509,554,307,279,4292,51,46,918,1749,1856,2098,2212,2077,1833,1880,2029
380652,-34940,-2668,-33978,-1210,788,1430,470,-486,581,382,412,4277,46,39,917,1749,1856,2098,2212,2077,1833,1880,2029
381653,-34872,-2600,-33913,-1145,785,1428,456,-486,605,339,678,4181,34,43,919,1749,1856,2098,2212,2077,1833,1880,2029
382654,-34820,-2540,-33848,-1080,1001,1535,426,-472,610,273,726,4196,51,36,919,1749,1856,2098,2212,2077,1833,1880,2029
383655,-34764,-2472,-33783,-1015,962,1431,395,-468,608,285,812,4227,48,42,917,1739,1855,2091,2220,2032,1798,1864,1997
384656,-34688,-2400,-33718,-950,700,1374,359,-489,606,465,833,4098,53,39,917,1739,1855,2091,2220,2032,1798,1864,1997
385657,-34644,-2332,-33653,-885,1125,1420,311,-513,600,271,835,3987,36,46,920,1739,1855,2091,2220,2032,1798,1864,1997
386658,-34584,-2280,-33588,-820,932,1637,236,-468,530,-607,779,4417,33,45,917,1739,1855,2091,2220,2032,1798,1864,1997
387659,-34516,-2220,-33523,-755,829,1543,183,-405,468,283,969,4526,50,42,917,1739,1855,2091,2220,2032,1798,1864,1997
388660,-34456,-2148,-33458,-690,935,1385,179,-418,491,1018,838,3799,39,35,918,1775,1882,2104,2243,2037,1807,1882,2023
389661,-34396,-2080,-33393,-625,942,1432,178,-471,452,296,656,3924,57,37,918,1775,1882,2104,2243,2037,1807,1882,2023
390662,-34308,-2032,-33328,-560,564,1703,189,-494,372,-394,726,4204,46,41,918,1775,1882,2104,2243,2037,1807,1882,2023
391663,-34240,-1952,-33263,-495,810,1285,227,-538,323,345,509,3770,48,46,918,1775,1882,2104,2243,2037,1807,1882,2023
392664,-34164,-1880,-33198,-430,698,1378,263,-537,279,629,493,4053,50,40,919,1775,1882,2104,2243,2037,1807,1882,2023
393665,-34100,-1832,-33133,-365,849,1699,298,-500,270,153,494,4321,49,50,920,1775,1882,2104,2243,2037,1807,1882,2023
394666,-34044,-1752,-33068,-300,961,1281,348,-493,270,341,445,3839,33,42,916,1763,1868,2106,2226,2097,1852,1904,2061
395667,-33964,-1668,-33003,-235,643,1209,386,-505,257,381,575,4128,47,42,919,1763,1868,2106,2226,2097,1852,1904,2061
396668,-33904,-1604,-32938,-170,899,1460,417,-507,241,176,568,3984,45,37,922,1763,1868,2106,2226,2097,1852,1904,2061
397669,-33844,-1540,-32873,-105,906,1462,434,-514,211,184,693,3945,49,32,918,1763,1868,2106,2226,2097,1852,1904,2061
398670,-33776,-1480,-32808,-40,802,1518,443,-519,213,66,818,4327,40,32,918,1763,1868,2106,2226,2097,1852,1904,2061
399671,-33708,-1412,-32743,25,798,1416,426,-513,227,355,943,4068,37,38,918,1752,1865,2107,2228,2058,1818,1871,2008
400672,-33656,-1348,-32678,90,1015,1467,401,-500,240,166,944,4151,49,39,918,1752,1865,2107,2228,2058,1818,1871,2008
401673,-33596,-1292,-32613,155,921,1579,374,-522,240,41,1150,4212,50,43,917,1752,1865,2107,2228,2058,1818,1871,2008
402674,-33532,-1248,-32548,220,874,1755,362,-538,230,46,1107,4261,52,35,917,1752,1865,2107,2228,2058,1818,1871,2008
403675,-33480,-1152,-32483,285,1040,1068,351,-595,221,311,1063,4245,36,43,916,1752,1865,2107,2228,2058,1818,1871,2008
404676,-33412,-1088,-32418,350,836,1470,334,-634,211,-26,900,4298,39,39,920,1752,1865,2107,2228,2058,1818,1871,2008
405677,-33344,-1008,-32353,415,833,1252,272,-611,160,20,989,4157,53,34,918,1771,1880,2105,2243,1998,1772,1841,1974
406678,-33284,-968,-32288,480,939,1783,179,-528,100,-54,874,4161,47,46,920,1771,1880,2105,2243,1998,1772,1841,1974
407679,-33216,-904,-32223,545,836,1484,91,-440,29,79,831,4406,48,37,914,1771,1880,2105,2243,1998,1772,1841,1974
408680,-33152,-840,-32158,610,888,1487,76,-381,19,572,953,4147,36,44,918,1771,1880,2105,2243,1998,1772,1841,1974
409681,-33092,-776,-32093,675,944,1488,110,-415,32,568,916,4134,52,46,918,1771,1880,2105,2243,1998,1772,1841,1974
410682,-33028,-688,-32028,740,896,1161,148,-419,-35,225,846,4015,40,41,917,1781,1882,2110,2234,2048,1821,1882,2039
411683,-32960,-628,-31963,805,843,1517,195,-412,-123,-49,843,4172,35,52,920,1781,1882,2110,2234,2048,1821,1882,2039
412684,-32904,-556,-31898,870,1004,1359,247,-395,-160,329,710,3974,36,54,918,1781,1882,2110,2234,2048,1821,1882,2039
413685,-32832,-500,-31833,935,796,1571,274,-360,-181,524,651,4121,46,49,918,1781,1882,2110,2234,2048,1821,1882,2039
414686,-32784,-416,-31768,1000,1117,1198,301,-356,-172,95,741,4027,49,47,918,1781,1882,2110,2234,2048,1821,1882,2039
415687,-32716,-340,-31703,1065,863,1286,321,-395,-163,108,1010,3751,44,49,918,1739,1847,2097,2215,2109,1865,1882,2039
416688,-32636,-268,-31638,1130,696,1327,373,-419,-161,38,1070,3969,36,47,919,1739,1847,2097,2215,2109,1865,1910,2061
417689,-32556,-228,-31573,1195,677,1759,408,-432,-178,151,1044,3495,53,43,921,1739,1847,2097,2215,2109,1865,1910,2061
418690,-32496,-160,-31508,1260,935,1405,426,-463,-215,123,1018,3803,32,32,917,1739,1847,2097,2215,2109,1865,1910,2061
419691,-32436,-88,-31443,1325,941,1347,409,-495,-224,-88,1299,3988,36,45,918,1739,1847,2097,2215,2109,1865,1910,2061
420692,-32384,-20,-31378,1390,1057,1394,386,-485,-197,60,1425,3976,37,45,919,1739,1847,2097,2215,2109,1865,1910,2061
421693,-32320,40,-31313,1455,909,1501,328,-445,-196,534,1314,3954,34,35,918,1744,1853,2094,2224,2043,1803,1860,1990
422694,-32272,120,-31248,1520,1130,1232,280,-386,-208,324,1276,4111,39,42,917,1744,1853,2094,2224,2043,1803,1860,1990
423695,-32196,156,-31183,1585,766,1819,217,-326,-232,217,1286,3870,39,35,918,1744,1853,2094,2224,2043,1803,1860,1990
424696,-32128,220,-31118,1650,863,1470,164,-278,-257,390,1226,3946,38,35,916,1744,1853,2094,2224,2043,1803,1860,1990
425697,-32060,276,-31053,1715,860,1582,121,-239,-273,394,1168,4004,40,48,918,1744,1853,2094,2224,2043,1803,1860,1990
426698,-31980,348,-30988,1780,692,1375,108,-184,-300,319,1136,4154,34,52,917,1766,1869,2095,2219,1995,1770,1831,1976
427699,-31936,424,-30923,1845,1168,1311,104,-151,-328,283,1044,4109,40,37,919,1766,1869,2095,2219,1995,1770,1831,1976
428700,-31872,500,-30858,1910,919,1299,114,-145,-371,251,1031,4031,32,43,918,1766,1869,2095,2219,1995,1770,1831,1976
429701,-31788,552,-30793,1975,647,1615,119,-145,-426,131,950,3966,36,45,920,1766,1869,2095,2219,1995,1770,1831,1976
430702,-31736,628,-30728,2040,1063,1302,128,-155,-462,77,895,4002,40,41,918,1766,1869,2095,2219,1995,1770,1831,1976
431703,-31680,696,-30663,2105,1025,1398,143,-164,-471,164,851,3727,43,35,918,1766,1869,2095,2219,1995,1770,1831,1976
432704,-31608,756,-30598,2170,816,1506,162,-167,-484,171,930,3845,46,41,917,1734,1835,2082,2197,2045,1812,1859,2017
433705,-31540,804,-30533,2235,863,1676,163,-174,-499,97,757,3683,56,54,918,1734,1835,2082,2197,2045,1812,1859,2017
434706,-31476,896,-30468,2300,915,1094,180,-198,-503,157,857,3657,53,45,917,1734,1835,2082,2197,2045,1812,1859,2017
435707,-31404,968,-30403,2365,806,1336,187,-235,-485,140,1106,3555,51,41,921,1734,1835,2082,2197,2045,1812,1859,2017
436708,-31328,1040,-30338,2430,743,1328,209,-236,-467,280,1272,3621,40,51,920,1734,1835,2082,2197,2045,1812,1859,2017
437709,-31280,1104,-30273,2495,1115,1429,217,-222,-471,549,1327,3535,51,36,921,1729,1838,2087,2207,2078,1836,1887,2037
438710,-31208,1172,-30208,2560,806,1377,223,-204,-475,367,1358,3695,39,46,917,1729,1838,2087,2207,2078,1836,1887,2037
439711,-31148,1244,-30143,2625,963,1318,213,-198,-486,477,1522,3633,41,39,919,1729,1838,2087,2207,2078,1836,1887,2037
440712,-31076,1312,-30078,2690,805,1366,190,-161,-484,537,1621,3881,53,49,919,1729,1838,2087,2207,2078,1836,1887,2037
441713,-30988,1384,-30013,2755,577,1308,161,-129,-484,735,1668,3734,37,49,919,1729,1838,2087,2207,2078,1836,1887,2037
442714,-30932,1456,-29948,2820,989,1300,128,-96,-495,629,1665,3646,43,50,922,1729,1838,2087,2207,2078,1836,1887,2037
443715,-30872,1520,-29883,2885,945,1402,105,-91,-517,368,1657,3887,45,40,919,1748,1856,2088,2213,2046,1803,1863,2006
444716,-30796,1588,-29818,2950,731,1348,85,-72,-548,434,1657,3734,43,37,918,1748,1856,2088,2213,2046,1803,1863,2006
445717,-30724,1640,-29753,3015,774,1565,64,-116,-565,262,1495,3848,57,51,920,1748,1856,2088,2213,2046,1803,1863,2006
446718,-30656,1704,-29688,3080,820,1416,58,-120,-587,258,1354,3830,43,34,918,1748,1856,2088,2213,2046,1803,1863,2006
447719,-30572,1776,-29623,3145,598,1309,58,-148,-605,133,1278,3841,41,40,919,1748,1856,2088,2213,2046,1803,1863,2006
448720,-30524,1848,-29558,3210,1069,1300,65,-171,-628,61,1191,3862,52,37,922,1743,1845,2081,2196,2032,1789,1840,1997
449721,-30460,1908,-29493,3275,870,1457,72,-200,-656,158,1145,3877,50,51,919,1743,1845,2081,2196,2032,1789,1840,1997
450722,-30380,1984,-29428,3340,653,1244,89,-248,-668,144,1080,3824,43,44,918,1743,1845,2081,2196,2032,1789,1840,1997
451723,-30324,2056,-29363,3405,964,1286,110,-277,-669,242,988,3904,48,54,922,1743,1845,2081,2196,2032,1789,1840,1997
452724,-30236,2132,-29164,3604,1386,2073,138,-287,-674,366,1061,3905,44,50,920,1743,1845,2081,2196,2032,1789,1840,1997
453725,-30172,2196,-29099,3669,1688,2226,154,-289,-684,418,1168,3723,40,44,909,1743,1845,2081,2196,2032,1789,1840,1997
454726,-30088,2272,-29034,3734,1415,2062,155,-314,-687,397,1066,3716,58,59,905,1733,1845,2093,2196,2032,1792,1845,2003
455727,-30008,2364,-28969,3799,1448,1830,151,-314,-675,305,1252,3897,49,61,909,1733,1845,2093,2196,2032,1792,1845,2003
456728,-29892,2468,-28904,3864,936,1633,141,-313,-628,459,1261,3621,55,69,912,1733,1845,2093,2196,2032,1792,1845,2003
457729,-29780,2568,-28839,3929,928,1641,156,-274,-584,894,1604,3666,77,69,917,1733,1845,2093,2196,2032,1792,1845,2003
458730,-29672,2676,-28774,3994,927,1488,149,-282,-589,828,1726,3543,64,56,917,1733,1845,2093,2196,2032,1792,1845,2003
459731,-29576,2768,-28709,4059,1039,1656,139,-286,-618,299,1768,3822,74,60,918,1763,1876,2111,2229,2033,1797,1862,2010
460732,-29452,2872,-28644,4124,617,1459,97,-320,-623,418,2131,3661,73,53,917,1763,1876,2111,2229,2033,1797,1862,2010
461733,-29356,2956,-28579,4189,930,1687,62,-328,-633,713,2353,3750,65,67,920,1763,1876,2111,2229,2033,1797,1862,2010
462734,-29236,3056,-28514,4254,563,1444,28,-323,-649,595,1916,3863,61,55,916,1763,1876,2111,2229,2033,1797,1862,2010
463735,-29136,3164,-28449,4319,770,1292,15,-320,-678,440,2102,4006,69,55,921,1763,1876,2111,2229,2033,1797,1862,2010
464736,-29020,3260,-28384,4384,508,1405,-9,-362,-695,193,2072,3795,55,58,921,1763,1876,2111,2229,2033,1797,1862,2010
465737,-28888,3352,-28319,4449,227,1423,24,-381,-722,399,1816,4320,66,67,922,1770,1873,2102,2225,2052,1811,1870,2024
466738,-28804,3460,-28254,4514,804,1170,53,-432,-760,345,1707,3891,54,71,923,1770,1873,2102,2225,2052,1811,1870,2024
467739,-28704,3532,-28189,4579,561,1613,109,-462,-782,229,1768,4161,64,69,922,1770,1873,2102,2225,2052,1811,1870,2024
468740,-28612,3640,-28124,4644,628,1110,147,-543,-799,226,1538,3952,44,61,920,1770,1873,2102,2225,2052,1811,1870,2024
469741,-28528,3748,-28059,4709,706,1058,183,-582,-822,120,1330,4075,53,53,923,1770,1873,2102,2225,2052,1811,1870,2024
470742,-28436,3832,-27994,4774,573,1335,238,-607,-808,145,1519,4099,47,49,923,1733,1844,2097,2200,2074,1821,1862,2031
471743,-28352,3912,-27929,4839,650,1367,278,-580,-773,538,1529,4032,57,58,922,1733,1844,2097,2200,2074,1821,1862,2031
472744,-28272,3996,-27864,4904,682,1294,301,-598,-768,721,1395,3858,46,47,921,1733,1844,2097,2200,2074,1821,1862,2031
473745,-28188,4096,-27799,4969,608,1052,313,-641,-764,117,1318,4027,60,46,921,1733,1844,2097,2200,2074,1821,1862,2031
474746,-28120,4172,-27734,5034,805,1339,315,-688,-737,49,1597,3796,57,54,924,1733,1844,2097,2200,2074,1821,1862,2031
475747,-28036,4236,-27669,5099,581,1490,307,-680,-703,743,1752,3759,56,43,921,1733,1844,2097,2200,2074,1821,1862,2031
476748,-27952,4316,-27604,5164,559,1273,296,-664,-693,589,1759,3907,46,43,921,1754,1875,2125,2230,2025,1779,1841,1996
477749,-27872,4400,-27539,5229,591,1199,264,-647,-679,136,1911,3760,42,52,922,1754,1875,2125,2230,2025,1779,1841,1996
478750,-27804,4488,-27474,5294,737,1121,213,-644,-660,561,2146,3706,37,47,922,1754,1875,2125,2230,2025,1779,1841,1996
479751,-27732,4564,-27409,5359,679,1259,163,-614,-662,941,2215,3820,53,46,922,1754,1875,2125,2230,2025,1779,1841,1996
480752,-27660,4632,-27344,5424,670,1355,126,-587,-687,653,2186,3814,38,56,922,1754,1875,2125,2230,2025,1779,1841,1996
481753,-27588,4708,-27279,5489,662,1242,88,-601,-703,383,2330,3683,41,42,921,1797,1904,2130,2250,2003,1772,1839,1988
482754,-27520,4776,-27214,5554,708,1339,56,-656,-711,367,2183,3449,50,58,922,1797,1904,2130,2250,2003,1772,1839,1988
483755,-27440,4860,-27149,5619,540,1116,51,-698,-730,241,2045,3522,48,60,921,1797,1904,2130,2250,2003,1772,1839,1988
484756,-27368,4956,-27084,5684,632,928,60,-738,-753,-56,1925,3590,48,47,924,1797,1904,2130,2250,2003,1772,1839,1988
485757,-27292,5032,-27019,5749,569,1165,79,-775,-741,178,1965,3611,53,42,924,1797,1904,2130,2250,2003,1772,1839,1988
486758,-27220,5108,-26954,5814,610,1152,133,-805,-714,467,1776,3372,42,51,923,1797,1904,2130,2250,2003,1772,1839,1988
487759,-27140,5188,-26889,5879,492,1084,200,-869,-721,297,1563,3357,35,38,923,1756,1852,2090,2195,2060,1816,1858,2021
488760,-27048,5252,-26824,5944,309,1285,268,-931,-738,-96,1389,3451,40,54,924,1756,1852,2090,2195,2060,1816,1858,2021
489761,-26984,5336,-26759,6009,660,1012,333,-948,-731,93,1519,3606,40,42,924,1756,1852,2090,2195,2060,1816,1858,2021
490762,-26924,5412,-26694,6074,716,1100,385,-928,-705,583,1555,3487,45,49,924,1756,1852,2090,2195,2060,1816,1858,2021
491763,-26860,5468,-26629,6139,667,1361,415,-894,-666,505,1544,3561,34,54,923,1756,1852,2090,2195,2060,1816,1858,2021
492764,-26784,5540,-26564,6204,504,1152,440,-876,-640,399,1701,3479,44,43,920,1704,1813,2062,2157,2047,1794,1835,1989
493765,-26708,5620,-26499,6269,491,1034,445,-857,-614,254,1774,3365,45,56,924,1704,1813,2062,2157,2047,1794,1835,1989
494766,-26648,5704,-26434,6334,697,962,438,-845,-584,329,1912,3314,47,52,924,1704,1813,2062,2157,2047,1794,1835,1989
495767,-26596,5788,-26369,6399,814,938,416,-837,-563,445,2073,3294,50,49,923,1704,1813,2062,2157,2047,1794,1835,1989
496768,-26508,5848,-26304,6464,336,1244,377,-841,-524,457,2023,3123,42,45,923,1704,1813,2062,2157,2047,1794,1835,1989
497769,-26436,5924,-26239,6529,527,1031,318,-892,-470,160,1864,2751,48,57,924,1704,1813,2062,2157,2047,1794,1835,1989
498770,-26348,5988,-26174,6594,299,1183,263,-930,-413,-159,1838,2762,47,51,924,1734,1843,2075,2190,1974,1746,1805,1944
499771,-26276,6096,-26109,6659,490,581,215,-942,-385,-15,1897,2665,37,42,924,1734,1843,2075,2190,1974,1746,1805,1944
500772,-26204,6148,-26044,6724,482,1297,179,-951,-353,288,1742,2670,54,47,927,1734,1843,2075,2190,1974,1746,1805,1944
501773,-26116,6240,-25979,6789,254,764,154,-990,-315,280,1571,2633,55,56,923,1734,1843,2075,2190,1974,1746,1805,1944
502776,-26048,6300,-25914,6854,500,1170,142,-1030,-297,126,1443,2604,56,53,927,1734,1843,2075,2190,1974,1746,1805,1944
503775,-25968,6392,-25849,6919,332,738,156,-1046,-291,186,1342,2793,47,47,924,1748,1847,2075,2176,1985,1753,1806,1962
504776,-25884,6472,-25784,6984,259,870,199,-985,-257,335,1261,2836,53,50,927,1748,1847,2075,2176,1985,1753,1806,1962
505777,-25800,6548,-25719,7049,235,906,228,-924,-228,780,1233,2853,35,41,927,1748,1847,2075,2176,1985,1753,1806,1962
506778,-25720,6624,-25654,7114,267,893,254,-891,-207,638,1052,2919,51,42,926,1748,1847,2075,2176,1985,1753,1806,1962
507779,-25648,6700,-25589,7179,359,879,280,-834,-195,409,1195,3119,38,35,927,1748,1847,2075,2176,1985,1753,1806,1962
508780,-25584,6776,-25524,7244,460,867,297,-782,-180,330,1305,2875,41,49,926,1748,1847,2075,2176,1985,1753,1806,1962
509781,-25520,6832,-25459,7309,461,1128,309,-748,-171,199,1384,2867,35,47,926,1698,1795,2029,2118,2016,1771,1815,1965
510782,-25440,6908,-25394,7374,243,864,308,-732,-152,186,1506,2803,45,41,924,1698,1795,2029,2118,2016,1771,1815,1965
511783,-25360,6976,-25329,7439,224,961,299,-764,-135,268,1778,2377,48,46,927,1698,1795,2029,2118,2016,1771,1815,1965
512784,-25296,7040,-25264,7504,426,1012,291,-820,-102,-119,1601,2368,49,36,925,1698,1795,2029,2118,2016,1771,1815,1965
513785,-25228,7092,-25199,7569,372,1179,293,-842,-65,-596,1319,2249,35,48,925,1698,1795,2029,2118,2016,1771,1815,1965
514786,-25148,7176,-25134,7634,204,756,260,-883,-1,-344,1438,2098,42,49,924,1672,1769,2005,2115,2006,1771,1815,1946
515787,-25076,7252,-25069,7699,295,842,222,-916,94,-17,1316,2109,42,44,927,1672,1769,2005,2115,2006,1771,1815,1946
516788,-24980,7336,-25004,7764,-43,719,185,-894,203,-81,1085,2155,41,53,927,1672,1769,2005,2115,2006,1771,1815,1946
517789,-24904,7396,-24939,7829,194,1025,144,-888,294,58,1082,2111,51,50,929,1672,1769,2005,2115,2006,1771,1815,1946
518790,-24836,7472,-24874,7894,290,812,105,-857,365,304,1108,2179,46,45,926,1672,1769,2005,2115,2006,1771,1815,1946
519791,-24744,7548,-24809,7959,-43,799,68,-806,422,445,915,2452,34,51,927,1672,1769,2005,2115,2006,1771,1815,1946
520792,-24672,7632,-24744,8024,199,676,39,-664,477,630,926,2667,55,56,928,1677,1779,2005,2113,1990,1759,1805,1944
521793,-24588,7720,-24679,8089,25,598,22,-551,518,1127,1053,2429,53,44,929,1677,1779,2005,2113,1990,1759,1805,1944
522794,-24496,7792,-24614,8154,-108,789,8,-439,521,779,914,2629,37,43,930,1677,1779,2005,2113,1990,1759,1805,1944
523795,-24424,7868,-24549,8219,134,726,-8,-327,504,397,768,2709,36,43,925,1677,1779,2005,2113,1990,1759,1805,1944
524796,-24328,7948,-24484,8284,-204,658,-37,-246,493,631,862,2445,35,48,928,1677,1779,2005,2113,1990,1759,1805,1944
525797,-24216,8036,-24419,8349,-461,530,-80,-199,507,538,801,2531,38,47,921,1665,1761,1997,2095,2003,1768,1804,1945
526798,-24116,8116,-24354,8414,-354,611,-132,-153,523,151,627,2422,45,49,930,1665,1761,1997,2095,2003,1768,1804,1945
527799,-24012,8192,-24289,8479,-452,649,-176,-156,530,108,764,1923,34,51,929,1665,1761,1997,2095,2003,1768,1804,1945
528800,-23940,8268,-24224,8544,-60,635,-213,-199,546,-473,706,2002,53,54,923,1665,1761,1997,2095,2003,1768,1804,1945
529801,-23876,8344,-24159,8609,41,622,-237,-238,574,-591,726,1783,41,55,928,1665,1761,1997,2095,2003,1768,1804,1945
530802,-23812,8440,-24094,8674,41,334,-267,-266,611,-105,776,1875,39,57,929,1665,1761,1997,2095,2003,1768,1804,1945
531803,-23736,8520,-24029,8739,-122,516,-289,-242,668,-178,633,2074,51,57,931,1646,1742,1990,2095,2034,1800,1830,1965
532804,-23656,8592,-23964,8804,-190,607,-341,-146,744,245,484,2351,41,46,926,1646,1742,1990,2095,2034,1800,1830,1965
533805,-23600,8672,-23899,8869,121,489,-410,-13,824,629,622,2330,47,41,922,1646,1742,1990,2095,2034,1800,1830,1965
534806,-23532,8772,-23834,8934,-33,196,-505,152,910,648,576,2594,32,51,929,1646,1742,1990,2095,2034,1800,1830,1965
535807,-23460,8868,-23769,8999,-92,208,-614,346,1006,855,503,2787,47,47,932,1646,1742,1990,2095,2034,1800,1830,1965
536808,-23412,8960,-23704,9064,229,225,-702,542,1092,1084,478,2823,37,60,929,1632,1736,1972,2072,2035,1807,1843,1979
537809,-23328,9052,-23639,9129,-244,192,-793,712,1155,925,504,2721,50,55,930,1632,1736,1972,2072,2035,1807,1843,1979
538810,-23264,9132,-23574,9194,7,324,-868,881,1184,607,562,2964,43,44,931,1632,1736,1972,2072,2035,1807,1843,1979
539811,-23204,9224,-23509,9259,62,141,-945,1044,1169,805,751,2919,35,47,931,1632,1736,1972,2072,2035,1807,1843,1979
540812,-23132,9308,-23444,9324,-96,218,-1001,1139,1119,541,835,2597,40,42,931,1632,1736,1972,2072,2035,1807,1843,1979
541813,-23084,9392,-23379,9389,224,195,-1070,1231,1066,539,984,2987,38,51,929,1632,1736,1972,2072,2035,1807,1843,1979
542814,-23016,9464,-23314,9454,-29,336,-1157,1297,1022,1041,883,2559,36,48,931,1610,1708,1956,2063,2103,1868,1876,2013
543815,-22964,9552,-23249,9519,187,108,-1206,1300,998,156,346,1986,36,55,931,1610,1708,1956,2063,2103,1868,1876,2013
544816,-22892,9640,-23184,9584,-72,80,-1231,1307,979,-838,320,2316,33,43,931,1610,1708,1956,2063,2103,1868,1876,2013
545817,-22820,9712,-23119,9649,-80,272,-1250,1304,985,-543,-51,1722,34,50,931,1610,1708,1956,2063,2103,1868,1876,2013
546818,-22740,9800,-23054,9714,-199,44,-1286,1333,1034,167,-211,2105,50,53,929,1610,1708,1956,2063,2103,1868,1876,2013
547819,-22664,9904,-22989,9779,-163,-204,-1357,1360,1089,396,8,1940,50,54,923,1594,1693,1971,2080,2133,1888,1876,2009
548820,-22616,10008,-22924,9844,208,-252,-1451,1445,1154,152,-111,2185,31,57,924,1594,1693,1971,2080,2133,1888,1876,2009
549821,-22564,10140,-22859,9909,173,-683,-1550,1673,1244,553,110,2747,31,47,930,1594,1693,1971,2080,2133,1888,1876,2009
550822,-22496,10284,-22794,9974,-30,-930,-1647,2000,1329,1896,108,2726,48,47,928,1594,1693,1971,2080,2133,1888,1876,2009
551823,-22424,10360,-22729,10039,-89,-93,-1756,2308,1368,2416,159,2925,30,38,926,1594,1693,1971,2080,2133,1888,1876,2009
552825,-22352,10424,-22664,10104,-97,58,-1877,2496,1364,1250,283,2931,44,25,929,1594,1693,1971,2080,2133,1888,1876,2009
553825,-22300,10472,-22599,10169,169,279,-1990,2610,1307,804,701,2555,31,29,929,1614,1721,1974,2077,2050,1817,1836,1960
554826,-22220,10532,-22534,10234,-200,135,-2100,2798,1282,802,693,3031,42,39,931,1614,1721,1974,2077,2050,1817,1836,1960
555827,-22164,10584,-22469,10299,110,250,-2237,2919,1277,1213,774,2401,32,34,923,1614,1721,1974,2077,2050,1817,1836,1960
556828,-22084,10648,-22404,10364,-208,101,-2360,2864,1242,368,967,1555,49,34,931,1614,1721,1974,2077,2050,1817,1836,1960
557829,-22028,10704,-22339,10429,103,212,-2486,2750,1171,-600,701,1447,42,41,923,1614,1721,1974,2077,2050,1817,1836,1960
558830,-21944,10764,-22274,10494,-270,168,-2570,2726,1155,-96,314,1784,39,33,931,1612,1708,1951,2064,2045,1820,1840,1964
559831,-21876,10832,-22209,10559,-74,64,-2604,2667,1211,297,42,1389,51,39,932,1612,1708,1951,2064,2045,1820,1840,1964
560832,-21796,10900,-22144,10624,-242,61,-2572,2491,1314,-874,-345,1547,41,37,931,1612,1708,1951,2064,2045,1820,1840,1964
561833,-21732,10956,-22079,10689,-41,222,-2541,2295,1341,-1313,-574,2041,36,32,932,1612,1708,1951,2064,2045,1820,1840,1964
562834,-21668,11020,-22014,10754,-40,123,-2475,2147,1363,-384,-750,2694,45,39,931,1612,1708,1951,2064,2045,1820,1840,1964
563835,-21596,11072,-21949,10819,-149,289,-2361,2002,1418,752,-684,3102,29,32,931,1612,1708,1951,2064,2045,1820,1840,1964
564836,-21520,11148,-21884,10884,-213,-25,-2245,1913,1467,901,-370,3465,46,44,925,1572,1684,1927,2016,2058,1803,1839,1990
565837,-21448,11212,-21819,10949,-171,125,-2151,1930,1477,1142,-179,3827,51,44,923,1572,1684,1927,2016,2058,1803,1839,1990
566838,-21384,11288,-21754,11014,-70,-38,-2088,2007,1475,1842,54,4005,33,48,924,1572,1684,1927,2016,2058,1803,1839,1990
567839,-21316,11348,-21689,11079,-124,168,-2081,2093,1477,2175,428,3902,51,50,930,1572,1684,1927,2016,2058,1803,1839,1990
568840,-21244,11412,-21624,11144,-182,119,-2117,2182,1485,1933,690,3816,32,50,927,1572,1684,1927,2016,2058,1803,1839,1990
569841,-21172,11480,-21559,11209,-191,66,-2189,2194,1492,1661,954,3594,33,50,924,1683,1820,2018,2136,1940,1701,1815,1944
570842,-21108,11576,-21494,11274,-91,-322,-2276,2098,1495,877,995,3281,33,43,923,1683,1820,2018,2136,1940,1701,1815,1944
571843,-21048,11640,-21429,11339,-35,79,-2351,1893,1506,74,1019,3039,34,45,928,1683,1820,2018,2136,1940,1701,1815,1944
572844,-20968,11720,-21364,11404,-303,-139,-2396,1546,1534,-804,722,2825,33,39,932,1683,1820,2018,2136,1940,1701,1815,1944
573845,-20916,11784,-21299,11469,63,62,-2410,1129,1551,-1204,265,3292,41,50,931,1683,1820,2018,2136,1940,1701,1815,1944
574846,-20860,11868,-21234,11534,24,-212,-2378,673,1561,-1221,-31,3567,42,52,932,1683,1820,2018,2136,1940,1701,1815,1944
575847,-20808,11944,-21169,11599,90,-126,-2311,202,1583,-1606,-456,3782,29,43,931,1923,2058,2223,2375,1948,1730,1856,1997
576848,-20732,12028,-21104,11664,-224,-249,-2210,-185,1609,-1437,-889,4338,28,41,931,1923,2058,2223,2375,1948,1730,1856,1997
577849,-20668,12136,-21039,11729,-73,-601,-2079,-439,1655,-737,-1104,4953,28,55,921,1923,2058,2223,2375,1948,1730,1856,1997
578850,-20596,12216,-20974,11794,-182,-270,-1915,-618,1694,-207,-1344,5221,45,49,929,1923,2058,2223,2375,1948,1730,1856,1997
579851,-20540,12288,-20909,11859,29,-178,-1756,-727,1723,206,-1291,5709,43,34,923,1923,2058,2223,2375,1948,1730,1856,1997
580852,-20480,12380,-20844,11924,-15,-461,-1598,-792,1749,249,-1048,5663,36,47,930,2006,2150,2314,2399,2028,1795,1928,2105
581853,-20416,12464,-20779,11989,-64,-385,-1473,-797,1778,282,-765,5932,29,42,930,2006,2150,2314,2399,2028,1795,1928,2105
582854,-20348,12540,-20714,12054,-117,-299,-1389,-833,1815,471,-696,5366,44,32,930,2006,2150,2314,2399,2028,1795,1928,2105
583855,-20288,12604,-20649,12119,-11,-148,-1348,-932,1858,522,-920,5247,29,45,927,2006,2150,2314,2399,2028,1795,1928,2105
584856,-20220,12688,-20584,12184,-116,-421,-1320,-1074,1883,366,-801,5009,44,49,931,2006,2150,2314,2399,2028,1795,1928,2105
585857,-20168,12764,-20519,12249,100,-334,-1306,-1206,1876,-515,-644,5049,39,44,926,2006,2150,2314,2399,2028,1795,1928,2105
586858,-20096,12836,-20454,12314,-159,-294,-1329,-1274,1865,-639,-554,5350,29,34,930,2042,2177,2317,2440,2037,1807,1939,2057
587859,-20028,12904,-20389,12379,-112,-247,-1396,-1348,1852,-145,-400,5545,46,46,925,2042,2177,2317,2440,2037,1807,1939,2057
588860,-19968,12984,-20324,12444,-6,-416,-1489,-1472,1845,-928,-482,5570,39,43,927,2042,2177,2317,2440,2037,1807,1939,2057
589861,-19900,13064,-20259,12509,-110,-434,-1548,-1510,1817,-1698,-645,6351,43,44,930,2042,2177,2317,2440,2037,1807,1939,2057
590862,-19836,13124,-20194,12574,-59,-178,-1523,-1476,1776,-859,-1214,7375,42,40,927,2042,2177,2317,2440,2037,1807,1939,2057
591863,-19788,13188,-20129,12639,161,-228,-1395,-1482,1740,-267,-1671,7557,28,29,931,1953,2038,2202,2366,2078,1880,1960,2052
592864,-19732,13256,-20064,12704,72,-281,-1208,-1544,1702,-358,-2285,7024,46,39,931,1953,2038,2202,2366,2078,1880,1960,2052
593865,-19652,13328,-19999,12769,-246,-340,-1033,-1516,1666,-1547,-2395,7293,28,37,931,1953,2038,2202,2366,2078,1880,1960,2052
594866,-19580,13392,-19934,12834,-155,-239,-921,-1348,1680,-1841,-2256,6862,24,32,931,1953,2038,2202,2366,2078,1880,1960,2052
595867,-19528,13456,-19869,12899,111,-238,-868,-1190,1756,-817,-2467,6297,28,42,931,1953,2038,2202,2366,2078,1880,1960,2052
596868,-19464,13508,-19804,12964,-38,-73,-837,-1230,1836,-1062,-2394,6010,23,40,931,1953,2038,2202,2366,2078,1880,1960,2052
597869,-19408,13560,-19739,13029,73,-57,-844,-1165,1809,-1606,-1794,5794,25,29,931,1813,1904,2159,2374,2171,1978,2015,2074
598870,-19344,13612,-19674,13094,-26,-41,-957,-926,1736,208,-1525,5057,32,38,932,1813,1904,2159,2374,2171,1978,2015,2074
599871,-19304,13668,-19609,13159,304,-80,-1111,-952,1756,656,-1967,3891,25,37,932,1813,1904,2159,2374,2171,1978,2015,2074
600872,-19248,13716,-19544,13224,115,40,-1236,-995,1765,-1745,-2153,5116,31,30,931,1813,1904,2159,2374,2171,1978,2015,2074
601873,-19188,13792,-19479,13289,71,-324,-1288,-765,1688,-1099,-2668,6586,22,30,932,1813,1904,2159,2374,2171,1978,2015,2074
602874,-19156,13848,-19414,13354,462,-63,-1245,-538,1644,1086,-3120,6571,38,38,931,1891,1960,2238,2473,2181,2006,2022,2083
603875,-19096,13908,-19349,13419,118,-106,-1133,-279,1621,1917,-3257,7679,18,41,930,1891,1960,2238,2473,2181,2006,2022,2083
604876,-19048,13988,-19284,13484,288,-375,-1012,72,1583,1402,-3234,8229,22,43,931,1891,1960,2238,2473,2181,2006,2022,2083
605877,-18992,14044,-19219,13549,199,-64,-890,330,1528,845,-2941,7502,19,28,930,1891,1960,2238,2473,2181,2006,2022,2083
606878,-18944,14100,-19154,13614,320,-54,-793,506,1503,527,-2696,7613,37,27,931,1891,1960,2238,2473,2181,2006,2022,2083
607879,-18888,14156,-19089,13679,231,-43,-743,635,1500,38,-2714,7039,24,29,931,1891,1960,2238,2473,2181,2006,2022,2083
608880,-18840,14220,-19024,13744,351,-142,-725,713,1489,-151,-2330,6236,38,37,931,1858,1941,2204,2428,2144,1949,1994,2038
609881,-18788,14268,-18959,13809,317,79,-728,792,1475,-293,-2147,6520,37,33,930,1858,1941,2204,2428,2144,1949,1994,2038
610882,-18732,14352,-18894,13874,278,-394,-740,816,1446,-293,-2077,5995,38,41,931,1858,1941,2204,2428,2144,1949,1994,2038
611883,-18688,14396,-18829,13939,453,131,-738,787,1374,-229,-1900,6012,40,42,930,1858,1941,2204,2428,2144,1949,1994,2038
612884,-18636,14468,-18764,14004,369,-228,-728,783,1295,156,-1891,6357,37,31,930,1858,1941,2204,2428,2144,1949,1994,2038
613885,-18588,14524,-18699,14069,440,-17,-722,817,1230,502,-2014,5907,22,32,930,1940,2041,2259,2523,2059,1870,1966,2008
614886,-18548,14580,-18634,14134,571,-6,-691,826,1129,863,-2272,5938,37,28,930,1940,2041,2259,2523,2059,1870,1966,2008
615887,-18488,14620,-18569,14199,327,225,-621,768,1045,558,-2764,5718,25,30,929,1940,2041,2259,2523,2059,1870,1966,2008
616888,-18444,14668,-18504,14264,552,145,-534,674,901,1144,-2848,5429,42,43,930,1940,2041,2259,2523,2059,1870,1966,2008
617889,-18388,14728,-18439,14329,413,0,-424,756,751,1571,-3656,5982,41,30,929,1940,2041,2259,2523,2059,1870,1966,2008
618890,-18320,14796,-18374,14394,260,-103,-336,875,609,2823,-3856,5366,43,34,931,1940,2041,2259,2523,2059,1870,1966,2008
619891,-18268,14832,-18309,14459,475,332,-231,851,440,2875,-4617,5038,38,44,931,1998,2069,2314,2558,1996,1792,1829,1908
620892,-18212,14892,-18244,14524,436,38,-157,875,244,2684,-5209,6109,20,29,929,1998,2069,2314,2558,1996,1792,1829,1908
621893,-18156,14948,-18179,14589,447,99,-30,772,12,3264,-5424,4905,23,33,931,1998,2069,2314,2558,1996,1792,1829,1908
622894,-18108,15020,-18114,14654,568,-109,56,606,-200,3107,-5703,4871,39,42,930,1998,2069,2314,2558,1996,1792,1829,1908
623895,-18056,15060,-18049,14719,534,321,108,598,-401,3314,-5651,5510,25,35,929,1998,2069,2314,2558,1996,1792,1829,1908
624896,-18008,15132,-17984,14784,605,-88,134,434,-548,3067,-5544,3810,42,32,929,2105,2071,2415,2635,1791,1655,1651,1733
625897,-17940,15184,-17919,14849,351,178,129,288,-681,2261,-5198,4459,44,32,929,2105,2071,2415,2635,1791,1655,1651,1733
626898,-17892,15244,-17854,14914,622,84,134,112,-780,1767,-5125,4113,27,43,931,2105,2071,2415,2635,1791,1655,1651,1733
627899,-17828,15288,-17789,14979,423,309,166,-43,-894,1691,-4686,4011,43,33,929,2105,2071,2415,2635,1791,1655,1651,1733
628900,-17768,15340,-17724,15044,479,225,150,-231,-949,1275,-4396,3421,46,42,930,2105,2071,2415,2635,1791,1655,1651,1733
629901,-17704,15404,-17659,15109,430,76,99,-396,-951,894,-3872,3642,47,33,930,2105,2071,2415,2635,1791,1655,1651,1733
630902,-17632,15440,-17594,15174,322,462,21,-570,-928,387,-3859,2274,44,32,930,2060,2032,2348,2580,1713,1586,1618,1694
631903,-17556,15468,-17529,15239,258,607,-94,-787,-894,-184,-3758,2129,46,43,928,2060,2032,2348,2580,1713,1586,1618,1694
632904,-17496,15548,-17464,15304,465,-62,-240,-849,-819,-334,-3880,2025,44,44,929,2060,2032,2348,2580,1713,1586,1618,1694
633905,-17428,15612,-17399,15369,361,139,-384,-911,-717,212,-3585,1175,39,47,930,2060,2032,2348,2580,1713,1586,1618,1694
634906,-17368,15668,-17334,15434,467,250,-523,-915,-655,-115,-2971,1336,27,50,930,2060,2032,2348,2580,1713,1586,1618,1694
635907,-17308,15736,-17269,15499,473,96,-671,-888,-638,-664,-2928,1875,35,46,930,2184,2204,2477,2754,1691,1555,1651,1752
636908,-17240,15816,-17204,15564,369,-72,-803,-845,-644,-61,-2538,1227,31,49,930,2184,2204,2477,2754,1691,1555,1651,1752
637909,-17160,15892,-17139,15629,201,-36,-889,-774,-657,162,-2311,1966,31,45,930,2184,2204,2477,2754,1691,1555,1651,1752
638910,-17104,15980,-17074,15694,512,-214,-943,-707,-656,-503,-2517,1929,37,43,932,2184,2204,2477,2754,1691,1555,1651,1752
639911,-17036,16044,-17009,15759,358,88,-910,-658,-705,-124,-2201,2169,37,41,929,2184,2204,2477,2754,1691,1555,1651,1752
640912,-16980,16124,-16944,15824,519,-131,-829,-650,-786,-446,-2108,2679,29,42,931,2184,2204,2477,2754,1691,1555,1651,1752
641913,-16912,16172,-16879,15889,366,290,-716,-644,-875,-538,-2099,3081,29,44,930,2187,2213,2409,2586,1882,1709,1778,1884
642914,-16848,16260,-16814,15954,417,-239,-555,-637,-968,57,-1708,3262,35,45,930,2187,2213,2409,2586,1882,1709,1778,1884
643915,-16776,16316,-16749,16019,308,172,-395,-693,-1051,-36,-1761,3318,39,46,930,2187,2213,2409,2586,1882,1709,1778,1884
644916,-16724,16360,-16684,16084,574,348,-253,-708,-1139,-59,-1472,3593,29,36,931,2187,2213,2409,2586,1882,1709,1778,1884
645917,-16676,16408,-16619,16149,645,318,-116,-719,-1212,346,-1237,3477,27,34,929,2187,2213,2409,2586,1882,1709,1778,1884
646918,-16612,16476,-16554,16214,446,65,-13,-690,-1254,525,-1019,3491,41,36,928,1975,1978,2253,2488,1890,1706,1740,1789
647919,-16556,16492,-16489,16279,557,774,62,-608,-1272,554,-790,3897,35,34,930,1975,1978,2253,2488,1890,1706,1740,1789
648920,-16500,16520,-16424,16344,568,670,123,-489,-1255,564,-387,4076,30,48,926,1975,1978,2253,2488,1890,1706,1740,1789
649921,-16428,16600,-16359,16409,360,1,187,-363,-1187,559,-240,3685,28,51,927,1975,1978,2253,2488,1890,1706,1740,1789
650922,-16364,16656,-16294,16474,461,312,234,-250,-1100,300,161,3871,33,49,931,1975,1978,2253,2488,1890,1706,1740,1789
651923,-16296,16736,-16229,16539,407,-6,282,-132,-977,-159,302,3848,44,39,930,1954,1942,2168,2417,1803,1673,1741,1765
652924,-16248,16804,-16164,16604,678,139,352,-68,-835,-555,346,3518,29,38,931,1954,1942,2168,2417,1803,1673,1741,1765
653925,-16168,16880,-16099,16669,260,26,435,29,-683,-799,439,3887,34,50,929,1954,1942,2168,2417,1803,1673,1741,1765
654926,-16096,16944,-16034,16734,351,177,521,81,-517,-971,238,3821,31,44,931,1954,1942,2168,2417,1803,1673,1741,1765
655927,-16064,17028,-15969,16799,891,-96,616,152,-355,-1319,173,3737,29,36,930,1954,1942,2168,2417,1803,1673,1741,1765
656928,-15996,17084,-15904,16864,438,265,726,188,-224,-1617,217,3732,28,50,927,1954,1942,2168,2417,1803,1673,1741,1765
657929,-15944,17168,-15839,16929,654,-108,838,225,-146,-1534,90,3630,31,38,930,1811,1865,2068,2303,1867,1699,1778,1845
658930,-15884,17236,-15774,16994,560,88,954,263,-85,-1515,-132,3448,44,38,929,1811,1865,2068,2303,1867,1699,1778,1845
659931,-15808,17304,-15709,17059,346,84,1097,350,-53,-996,-359,3718,48,41,930,1811,1865,2068,2303,1867,1699,1778,1845
660932,-15748,17364,-15644,17124,553,191,1251,453,-61,-914,-550,3438,33,35,931,1811,1865,2068,2303,1867,1699,1778,1845
661933,-15688,17416,-15579,17189,560,306,1388,565,-103,-391,-553,3135,48,33,929,1811,1865,2068,2303,1867,1699,1778,1845
662934,-15604,17488,-15514,17254,236,48,1518,691,-158,-341,-675,3352,33,33,929,1782,1860,2091,2252,1988,1758,1825,1952
663935,-15548,17536,-15449,17319,597,368,1625,799,-239,-128,-576,2928,32,35,931,1782,1860,2091,2252,1988,1758,1825,1952
664936,-15480,17612,-15384,17384,444,4,1704,915,-322,170,-530,2683,48,39,929,1782,1860,2091,2252,1988,1758,1825,1952
665937,-15416,17676,-15319,17449,495,155,1743,1007,-385,527,-516,2597,47,40,930,1782,1860,2091,2252,1988,1758,1825,1952
666938,-15360,17732,-15254,17514,606,266,1747,1102,-423,506,-446,2559,49,43,930,1782,1860,2091,2252,1988,1758,1825,1952
667939,-15300,17788,-15189,17579,562,277,1724,1154,-454,508,-286,2426,32,46,929,1782,1860,2091,2252,1988,1758,1825,1952
668940,-15248,17832,-15124,17644,678,453,1691,1210,-452,592,-333,2494,34,33,929,1844,1947,2165,2311,1936,1725,1789,1882
669941,-15184,17896,-15059,17709,529,204,1654,1252,-403,916,-215,2559,33,45,928,1844,1947,2165,2311,1936,1725,1789,1882
670942,-15112,17964,-14994,17774,421,151,1638,1256,-330,770,-168,2628,53,46,929,1844,1947,2165,2311,1936,1725,1789,1882
671943,-15048,18016,-14929,17839,522,366,1629,1226,-227,170,-273,2596,39,42,930,1844,1947,2165,2311,1936,1725,1789,1882
672944,-15000,18072,-14864,17904,743,327,1642,1149,-99,128,-247,2716,50,32,929,1844,1947,2165,2311,1936,1725,1789,1882
673945,-14936,18148,-14799,17969,544,64,1671,1066,30,10,-186,2776,41,32,927,1837,1879,2093,2275,1916,1733,1798,1881
674946,-14860,18220,-14734,18034,380,105,1705,964,147,106,-24,2967,46,44,930,1837,1879,2093,2275,1916,1733,1798,1881
675947,-14800,18264,-14669,18099,586,481,1743,868,270,91,44,3128,39,38,931,1837,1879,2093,2275,1916,1733,1798,1881
676948,-14728,18328,-14604,18164,428,231,1780,768,376,-25,-33,3338,40,31,928,1837,1879,2093,2275,1916,1733,1798,1881
677952,-14672,18368,-14539,18229,639,562,1811,714,438,-74,95,3563,51,28,930,1837,1879,2093,2275,1916,1733,1798,1881
678950,-14600,18428,-14474,18294,430,318,1836,634,476,205,35,3402,42,33,927,1837,1879,2093,2275,1916,1733,1798,1881
679951,-14524,18468,-14409,18359,367,598,1870,596,503,358,70,3776,49,41,929,1703,1783,1996,2138,1948,1752,1810,1927
680952,-14452,18516,-14344,18424,408,519,1905,567,498,374,-17,3570,39,26,928,1703,1783,1996,2138,1948,1752,1810,1927
681953,-14380,18576,-14279,18489,400,375,1946,530,481,382,-111,3637,49,27,929,1703,1783,1996,2138,1948,1752,1810,1927
682954,-14316,18636,-14214,18554,501,381,1983,483,438,375,187,3608,49,33,929,1703,1783,1996,2138,1948,1752,1810,1927
683955,-14232,18680,-14149,18619,228,607,2003,438,378,304,270,3659,53,29,929,1703,1783,1996,2138,1948,1752,1810,1927
684956,-14168,18740,-14084,18684,479,413,1992,397,301,500,324,3922,51,38,929,1682,1792,2011,2136,2081,1820,1895,2069
685957,-14112,18788,-14019,18749,591,584,1944,344,210,632,304,3580,40,31,929,1682,1792,2011,2136,2081,1820,1895,2069
686958,-14048,18832,-13954,18814,492,660,1852,260,124,491,371,3990,47,38,927,1682,1792,2011,2136,2081,1820,1895,2069
687959,-13984,18876,-13889,18879,493,685,1757,213,63,884,264,3866,46,34,927,1682,1792,2011,2136,2081,1820,1895,2069
688960,-13924,18948,-13824,18944,550,327,1674,150,-17,858,581,3591,45,39,927,1682,1792,2011,2136,2081,1820,1895,2069
689961,-13864,19004,-13759,19009,556,538,1572,54,-80,188,616,3331,39,40,929,1682,1792,2011,2136,2081,1820,1895,2069
690962,-13788,19072,-13694,19074,342,384,1445,-36,-94,378,338,3322,38,30,927,1814,1949,2189,2294,2166,1913,1986,2185
691963,-13744,19136,-13629,19139,768,435,1321,-86,-49,1130,273,3726,36,42,930,1814,1949,2189,2294,2166,1913,1986,2185
692964,-13660,19180,-13564,19204,245,711,1214,-162,42,641,58,3173,46,38,927,1814,1949,2189,2294,2166,1913,1986,2185
693965,-13600,19224,-13499,19269,551,736,1130,-201,135,237,-74,4193,47,40,928,1814,1949,2189,2294,2166,1913,1986,2185
694966,-13556,19300,-13434,19334,776,323,1099,-185,196,756,-87,4853,47,29,927,1814,1949,2189,2294,2166,1913,1986,2185
695967,-13488,19356,-13369,19399,473,584,1078,-170,274,1017,-16,5249,42,41,927,1811,1961,2193,2249,2271,2002,2022,2216
696968,-13440,19428,-13304,19464,744,375,1044,-182,351,905,206,5795,49,33,927,1811,1961,2193,2249,2271,2002,2022,2216
697969,-13364,19480,-13239,19529,380,641,1003,-230,395,771,182,5974,39,41,927,1811,1961,2193,2249,2271,2002,2022,2216
698970,-13320,19552,-13174,19594,806,383,964,-321,406,533,427,5624,38,46,927,1811,1961,2193,2249,2271,2002,2022,2216
699971,-13244,19612,-13109,19659,392,539,904,-417,394,509,724,5543,34,40,927,1811,1961,2193,2249,2271,2002,2022,2216
700972,-13188,19676,-13044,19724,653,490,848,-466,342,674,831,5711,38,41,929,1811,1961,2193,2249,2271,2002,2022,2216
701973,-13144,19732,-12979,19789,829,601,775,-529,286,479,874,5583,47,39,927,1714,1821,2101,2211,2258,2005,2006,2170
702974,-13064,19816,-12780,19988,524,391,703,-624,207,346,1399,5706,31,47,925,1714,1821,2101,2211,2258,2005,2006,2170
703975,-13012,19880,-12715,20053,890,643,609,-725,89,80,1544,5607,46,34,929,1714,1821,2101,2211,2258,2005,2006,2170
704976,-12932,19948,-12650,20118,522,589,504,-755,-39,419,1663,5563,33,37,925,1714,1821,2101,2211,2258,2005,2006,2170
705977,-12868,20008,-12585,20183,724,695,398,-742,-151,835,1556,5955,35,42,927,1714,1821,2101,2211,2258,2005,2006,2170
706978,-12804,20080,-12520,20248,725,537,314,-633,-237,1153,1142,5659,35,34,926,1693,1806,2081,2210,2287,2030,2027,2179
707979,-12736,20136,-12455,20313,672,748,244,-484,-320,1587,1199,5514,47,40,927,1693,1806,2081,2210,2287,2030,2027,2179
708980,-12656,20200,-12390,20378,503,650,166,-314,-370,1342,938,5227,42,41,926,1693,1806,2081,2210,2287,2030,2027,2179
709981,-12596,20288,-12325,20443,759,322,99,-153,-377,882,710,4967,43,46,927,1693,1806,2081,2210,2287,2030,2027,2179
710982,-12528,20364,-12260,20508,656,458,56,-33,-363,658,496,5048,34,40,927,1693,1806,2081,2210,2287,2030,2027,2179
711983,-12456,20420,-12195,20573,597,719,32,61,-341,438,264,4701,36,44,927,1693,1806,2081,2210,2287,2030,2027,2179
712984,-12384,20492,-12130,20638,589,511,-3,116,-295,455,478,4611,35,45,926,1811,1926,2227,2367,2278,2027,2029,2191
713985,-12328,20568,-12065,20703,800,447,-55,137,-225,-37,378,4322,52,36,927,1811,1926,2227,2367,2278,2027,2029,2191
714986,-12256,20624,-12000,20768,591,708,-108,104,-165,-487,317,4334,49,42,926,1811,1926,2227,2367,2278,2027,2029,2191
715987,-12180,20692,-11935,20833,529,555,-155,69,-105,-473,340,4498,49,43,926,1811,1926,2227,2367,2278,2027,2029,2191
716988,-12128,20744,-11870,20898,844,770,-199,62,-77,-336,335,4534,51,36,927,1811,1926,2227,2367,2278,2027,2029,2191
717989,-12064,20832,-11805,20963,696,292,-250,99,-74,12,610,4448,43,46,924,1820,1938,2227,2356,2153,1918,1920,2036
718990,-12004,20892,-11740,21028,752,649,-302,116,-67,249,573,4410,37,51,928,1820,1938,2227,2356,2153,1918,1920,2036
719991,-11928,20968,-11675,21093,538,435,-366,106,-70,106,522,4565,32,45,926,1820,1938,2227,2356,2153,1918,1920,2036
720992,-11884,21040,-11610,21158,964,477,-408,139,-92,261,673,4684,42,41,928,1820,1938,2227,2356,2153,1918,1920,2036
721993,-11796,21108,-11545,21223,386,523,-437,219,-158,886,698,4616,33,36,925,1820,1938,2227,2356,2153,1918,1920,2036
722994,-11720,21180,-11480,21288,522,464,-445,357,-233,1298,997,4921,43,36,929,1820,1938,2227,2356,2153,1918,1920,2036
723995,-11668,21244,-11415,21353,838,566,-449,452,-287,1307,1115,4609,46,41,928,1779,1865,2103,2231,2035,1814,1852,1971
724996,-11608,21300,-11350,21418,744,677,-443,478,-352,997,977,4451,30,39,926,1779,1865,2103,2231,2035,1814,1852,1971
725997,-11548,21380,-11285,21483,751,358,-420,501,-406,758,952,4254,38,44,925,1779,1865,2103,2231,2035,1814,1852,1971
726998,-11484,21448,-11220,21548,703,505,-409,495,-454,1013,927,4028,32,44,927,1779,1865,2103,2231,2035,1814,1852,1971
728000,-11432,21508,-11155,21613,869,611,-374,510,-484,608,707,3869,41,36,927,1779,1865,2103,2231,2035,1814,1852,1971
729000,-11348,21560,-11090,21678,445,728,-352,479,-483,565,768,3465,33,42,925,1719,1798,2040,2197,2012,1797,1848,1957
730001,-11292,21628,-11025,21743,806,524,-321,436,-454,316,635,3271,47,45,927,1719,1798,2040,2197,2012,1797,1848,1957
731002,-11228,21680,-10960,21808,708,740,-283,377,-421,168,465,3209,52,30,926,1719,1798,2040,2197,2012,1797,1848,1957
732003,-11132,21744,-10895,21873,270,591,-235,321,-383,256,404,3115,49,39,925,1719,1798,2040,2197,2012,1797,1848,1957
733004,-11064,21792,-10830,21938,616,812,-200,272,-316,-125,371,2544,35,31,928,1719,1798,2040,2197,2012,1797,1848,1957
734005,-11008,21872,-10765,22003,777,393,-176,213,-248,-225,217,2449,32,35,925,1719,1798,2040,2197,2012,1797,1848,1957
735006,-10928,21932,-10700,22068,459,650,-150,168,-177,-162,155,2390,49,41,927,1768,1877,2104,2250,2027,1809,1867,1983
736007,-10876,21996,-10635,22133,825,601,-123,108,-110,-131,135,2352,46,31,927,1768,1877,2104,2250,2027,1809,1867,1983
737008,-10800,22056,-10570,22198,512,657,-110,92,-48,-31,117,2470,48,31,925,1768,1877,2104,2250,2027,1809,1867,1983
738009,-10716,22120,-10505,22263,389,608,-118,85,7,35,-75,2608,36,31,927,1768,1877,2104,2250,2027,1809,1867,1983
739010,-10664,22168,-10440,22328,805,829,-112,83,21,338,122,2636,36,30,928,1768,1877,2104,2250,2027,1809,1867,1983
740011,-10608,22224,-10375,22393,766,740,-115,74,25,262,62,2777,46,36,924,1830,1932,2160,2312,1942,1724,1793,1908
741012,-10540,22276,-10310,22458,612,806,-105,76,18,204,66,3018,46,30,925,1830,1932,2160,2312,1942,1724,1793,1908
742013,-10472,22336,-10245,22523,609,712,-90,105,-7,350,164,3230,36,43,925,1830,1932,2160,2312,1942,1724,1793,1908
743014,-10420,22396,-10180,22588,824,718,-57,126,-37,442,183,3390,49,45,926,1830,1932,2160,2312,1942,1724,1793,1908
744015,-10348,22468,-10115,22653,566,559,-9,126,-62,204,175,3427,48,30,925,1830,1932,2160,2312,1942,1724,1793,1908
745016,-10276,22524,-10050,22718,557,770,33,92,-99,162,214,3481,51,34,927,1830,1932,2160,2312,1942,1724,1793,1908
746017,-10228,22580,-9985,22783,878,781,67,74,-134,288,446,3373,32,37,926,1785,1865,2066,2189,1919,1707,1774,1878
747018,-10164,22620,-9920,22848,679,1013,91,11,-142,12,406,3309,32,33,924,1785,1865,2066,2189,1919,1707,1774,1878
748019,-10108,22696,-9855,22913,790,549,130,-17,-144,-35,418,3447,46,42,924,1785,1865,2066,2189,1919,1707,1774,1878
749020,-10048,22756,-9790,22978,747,755,164,-37,-136,-50,455,3374,41,39,926,1785,1865,2066,2189,1919,1707,1774,1878
750021,-9980,22828,-9725,23043,644,597,207,-54,-98,62,274,3235,50,42,925,1785,1865,2066,2189,1919,1707,1774,1878
751022,-9932,22888,-9660,23108,915,753,259,-52,-68,334,440,3524,31,33,926,1750,1832,2053,2222,1945,1756,1824,1928
752023,-9856,22940,-9595,23173,551,869,298,-75,-29,193,564,2890,39,30,923,1750,1832,2053,2222,1945,1756,1824,1928
753024,-9800,22992,-9530,23238,812,885,322,-94,35,-33,545,2737,34,31,925,1750,1832,2053,2222,1945,1756,1824,1928
754025,-9740,23052,-9465,23303,768,791,355,-94,110,-104,420,3219,49,26,924,1750,1832,2053,2222,1945,1756,1824,1928
755026,-9676,23116,-9400,23368,719,742,389,-81,173,-24,242,2981,48,35,924,1750,1832,2053,2222,1945,1756,1824,1928
756027,-9616,23152,-9335,23433,776,1128,434,-54,241,26,141,3135,48,41,925,1750,1832,2053,2222,1945,1756,1824,1928
757028,-9544,23228,-9270,23498,617,614,488,-77,299,-170,115,3094,32,26,922,1779,1861,2105,2281,2035,1835,1882,1982
758029,-9484,23292,-9205,23563,773,765,533,-115,347,-548,33,3403,40,40,926,1779,1861,2105,2281,2035,1835,1882,1982
759030,-9424,23352,-9140,23628,780,822,567,-110,364,-183,125,3530,49,34,925,1779,1861,2105,2281,2035,1835,1882,1982
760031,-9360,23412,-9075,23693,731,829,596,-119,390,22,3,3474,36,38,924,1779,1861,2105,2281,2035,1835,1882,1982
761032,-9308,23476,-9010,23758,897,780,617,-103,389,24,113,3906,46,30,924,1779,1861,2105,2281,2035,1835,1882,1982
762033,-9264,23532,-8945,23823,1023,891,627,-73,356,112,165,3903,32,41,924,1828,1918,2161,2316,2009,1800,1845,1960
763034,-9192,23584,-8880,23888,664,957,635,-39,330,-102,152,4035,38,39,922,1828,1918,2161,2316,2009,1800,1845,1960
764035,-9128,23656,-8815,23953,766,698,644,-28,301,-79,167,3999,46,45,924,1828,1918,2161,2316,2009,1800,1845,1960
765036,-9072,23720,-8750,24018,877,799,632,5,255,81,261,4290,35,32,925,1828,1918,2161,2316,2009,1800,1845,1960
766037,-9012,23768,-8685,24083,833,1020,610,57,218,119,287,4187,37,41,924,1828,1918,2161,2316,2009,1800,1845,1960
767038,-8956,23816,-8620,24148,894,1041,589,124,197,236,329,4320,49,44,922,1828,1918,2161,2316,2009,1800,1845,1960
768039,-8896,23900,-8555,24213,851,569,586,211,182,296,186,4395,46,47,921,1820,1900,2139,2295,1999,1786,1842,1958
769040,-8828,23976,-8490,24278,747,655,592,311,183,194,169,4382,35,44,925,1820,1900,2139,2295,1999,1786,1842,1958
770041,-8764,24040,-8425,24343,798,806,589,384,192,127,216,4475,42,48,925,1820,1900,2139,2295,1999,1786,1842,1958
771042,-8712,24104,-8360,24408,964,808,594,426,221,-153,196,4420,30,46,924,1820,1900,2139,2295,1999,1786,1842,1958
772043,-8664,24160,-8295,24473,1035,919,609,414,262,-294,294,4258,45,41,923,1820,1900,2139,2295,1999,1786,1842,1958
773044,-8604,24224,-8230,24538,891,820,637,366,315,-577,337,4269,38,45,922,1812,1904,2136,2287,2054,1858,1906,2018
774045,-8552,24284,-8165,24603,1007,876,659,332,377,-476,330,4201,42,42,923,1812,1904,2136,2287,2054,1858,1906,2018
775046,-8492,24368,-8100,24668,914,553,684,272,454,-384,310,4097,29,37,922,1812,1904,2136,2287,2054,1858,1906,2018
776047,-8424,24428,-8035,24733,810,859,693,229,515,-310,447,4218,46,35,925,1812,1904,2136,2287,2054,1858,1906,2018
777048,-8368,24472,-7970,24798,971,1085,694,214,561,-270,372,4227,37,32,924,1812,1904,2136,2287,2054,1858,1906,2018
778049,-8320,24548,-7905,24863,1092,672,699,194,589,199,410,4284,49,38,921,1812,1904,2136,2287,2054,1858,1906,2018
779050,-8264,24616,-7840,24928,1003,768,719,150,611,194,381,4085,46,40,923,1789,1881,2142,2317,2117,1904,1938,2054
780051,-8196,24680,-7775,24993,849,820,724,147,609,26,346,4320,35,46,923,1789,1881,2142,2317,2117,1904,1938,2054
781052,-8136,24748,-7710,25058,956,766,749,176,600,466,102,4435,51,50,923,1789,1881,2142,2317,2117,1904,1938,2054
782053,-8080,24828,-7645,25123,1018,598,764,219,579,780,89,4400,43,41,923,1789,1881,2142,2317,2117,1904,1938,2054
783054,-8008,24884,-7580,25188,809,909,784,268,559,696,239,4459,47,43,924,1789,1881,2142,2317,2117,1904,1938,2054
784055,-7940,24936,-7515,25253,855,974,801,330,519,686,328,4692,35,38,923,1820,1906,2161,2307,2107,1880,1915,2040
785056,-7892,24988,-7450,25318,1126,991,809,360,476,423,228,4579,47,35,922,1820,1906,2161,2307,2107,1880,1915,2040
786057,-7840,25084,-7385,25383,1092,403,793,370,444,349,292,4629,37,37,921,1820,1906,2161,2307,2107,1880,1915,2040
787058,-7780,25160,-7320,25448,998,640,765,361,405,72,384,4535,32,43,924,1820,1906,2161,2307,2107,1880,1915,2040
788059,-7720,25232,-7255,25513,1005,682,708,351,360,-313,351,4594,51,52,924,1820,1906,2161,2307,2107,1880,1915,2040
789060,-7652,25312,-7190,25578,901,563,666,340,348,-282,445,4525,41,38,923,1820,1906,2161,2307,2107,1880,1915,2040
790061,-7596,25388,-7125,25643,1062,600,611,305,354,-77,577,4551,51,46,925,1817,1917,2159,2308,2038,1819,1872,1992
791062,-7536,25452,-7060,25708,1019,751,550,290,370,-507,449,4538,49,44,923,1817,1917,2159,2308,2038,1819,1872,1992
792063,-7452,25528,-6995,25773,695,588,521,249,395,-363,393,4320,38,34,923,1817,1917,2159,2308,2038,1819,1872,1992
793064,-7424,25576,-6930,25838,1441,958,494,210,432,-544,312,4448,48,36,926,1817,1917,2159,2308,2038,1819,1872,1992
794065,-7356,25652,-6865,25903,938,595,496,195,472,-453,261,4376,31,37,919,1817,1917,2159,2308,2038,1819,1872,1992
795066,-7292,25712,-6800,25968,989,802,492,200,510,-10,223,4374,35,42,924,1821,1921,2163,2304,2086,1873,1923,2061
796067,-7236,25780,-6735,26033,1100,698,521,201,528,67,396,4399,48,36,923,1821,1921,2163,2304,2086,1873,1923,2061
797068,-7160,25840,-6670,26098,837,804,529,198,559,-88,260,4341,51,47,923,1821,1921,2163,2304,2086,1873,1923,2061
798069,-7104,25900,-6605,26163,1098,811,558,198,573,173,348,4238,37,49,924,1821,1921,2163,2304,2086,1873,1923,2061
799070,-7044,25964,-6540,26228,1055,762,581,206,578,477,436,4393,53,46,922,1821,1921,2163,2304,2086,1873,1923,2061
800071,-6980,26024,-6475,26293,1006,818,604,233,580,445,344,4182,34,42,923,1821,1921,2163,2304,2086,1873,1923,2061
801072,-6896,26100,-6410,26358,733,604,625,250,567,648,638,4231,34,36,923,1790,1900,2148,2285,2128,1910,1940,2066
802073,-6844,26176,-6345,26423,1149,591,638,238,526,487,702,4261,49,46,925,1790,1900,2148,2285,2128,1910,1940,2066
803074,-6784,26228,-6280,26488,1055,907,635,207,492,133,635,4027,44,37,923,1790,1900,2148,2285,2128,1910,1940,2066
804075,-6720,26284,-6215,26553,1007,868,629,159,443,375,877,4156,46,38,922,1790,1900,2148,2285,2128,1910,1940,2066
805076,-6652,26360,-6150,26618,953,605,631,136,381,227,786,4326,40,39,921,1790,1900,2148,2285,2128,1910,1940,2066
806077,-6604,26424,-6085,26683,1224,757,609,109,333,258,945,4061,48,40,924,1787,1867,2122,2283,2090,1869,1899,2007
807078,-6540,26504,-6020,26748,1025,538,577,97,271,273,968,4363,49,43,921,1787,1867,2122,2283,2090,1869,1899,2007
808079,-6468,26568,-5955,26813,917,740,522,91,223,-120,724,4008,33,40,923,1787,1867,2122,2283,2090,1869,1899,2007
809080,-6420,26636,-5890,26878,1237,686,486,74,178,20,831,4058,36,51,924,1787,1867,2122,2283,2090,1869,1899,2007
810081,-6356,26712,-5825,26943,1040,572,447,86,162,-140,642,4299,41,46,922,1787,1867,2122,2283,2090,1869,1899,2007
811082,-6308,26776,-5760,27008,1260,724,413,140,152,117,473,4153,31,52,924,1787,1867,2122,2283,2090,1869,1899,2007
812083,-6256,26848,-5695,27073,1226,615,379,150,157,89,419,4005,40,48,922,1798,1890,2137,2288,2025,1821,1861,1981
813084,-6188,26908,-5630,27138,1023,771,364,166,163,-306,384,4019,49,52,922,1798,1890,2137,2288,2025,1821,1861,1981
814085,-6120,26960,-5565,27203,1020,887,348,171,192,-573,437,3983,42,38,922,1798,1890,2137,2288,2025,1821,1861,1981
815086,-6072,27024,-5500,27268,1291,738,350,200,226,-245,304,3908,36,46,922,1798,1890,2137,2288,2025,1821,1861,1981
816087,-6024,27084,-5435,27333,1311,795,350,236,255,-174,421,4032,49,37,921,1798,1890,2137,2288,2025,1821,1861,1981
817088,-5948,27156,-5370,27398,948,637,375,257,287,-206,571,3872,32,35,920,1780,1888,2137,2271,2059,1850,1890,2024
818089,-5896,27220,-5305,27463,1264,738,376,270,305,-289,511,3802,39,49,924,1780,1888,2137,2271,2059,1850,1890,2024
819090,-5816,27272,-5240,27528,897,904,395,269,305,-125,407,3750,51,38,921,1780,1888,2137,2271,2059,1850,1890,2024
820091,-5764,27340,-5175,27593,1262,700,408,261,300,-51,551,3628,35,45,923,1780,1888,2137,2271,2059,1850,1890,2024
821092,-5700,27404,-5110,27658,1114,752,424,273,285,-18,854,3852,34,49,921,1780,1888,2137,2271,2059,1850,1890,2024
822093,-5640,27480,-5045,27723,1170,588,424,326,255,123,838,3910,32,51,922,1780,1888,2137,2271,2059,1850,1890,2024
823094,-5592,27560,-4980,27788,1341,520,427,351,218,494,1091,3697,32,39,923,1780,1876,2131,2274,2068,1857,1889,2005
824095,-5520,27620,-4915,27853,1033,776,419,345,165,161,1235,3786,47,51,921,1780,1876,2131,2274,2068,1857,1889,2005
825096,-5452,27704,-4850,27918,1079,453,408,339,100,-38,1153,3736,37,46,922,1780,1876,2131,2274,2068,1857,1889,2005
826097,-5384,27780,-4785,27983,1076,539,410,346,43,310,1133,3702,42,37,924,1780,1876,2131,2274,2068,1857,1889,2005
827098,-5348,27844,-4720,28048,1511,691,421,329,-7,444,1078,3576,40,42,923,1780,1876,2131,2274,2068,1857,1889,2005
828099,-5272,27916,-4655,28113,999,583,413,325,-27,173,1003,3764,43,40,919,1767,1851,2095,2250,2044,1837,1866,1967
829100,-5212,27972,-4590,28178,1205,794,397,332,-51,296,1174,3673,50,46,924,1767,1851,2095,2250,2044,1837,1866,1967
830101,-5156,28040,-4525,28243,1266,640,369,330,-75,189,1047,3715,40,49,921,1767,1851,2095,2250,2044,1837,1866,1967
831102,-5100,28096,-4460,28308,1277,801,359,332,-76,85,855,3694,31,47,921,1767,1851,2095,2250,2044,1837,1866,1967
832103,-5040,28164,-4395,28373,1234,648,351,318,-58,51,773,3731,30,46,920,1767,1851,2095,2250,2044,1837,1866,1967
833104,-4992,28240,-4330,28438,1405,534,356,316,-44,-73,626,3727,36,52,922,1767,1851,2095,2250,2044,1837,1866,1967
834105,-4928,28292,-4265,28503,1206,850,354,321,-15,-22,536,3752,45,45,921,1781,1860,2116,2274,2012,1813,1851,1971
835106,-4872,28364,-4200,28568,1317,592,352,330,15,43,536,3726,31,52,921,1781,1860,2116,2274,2012,1813,1851,1971
836107,-4808,28436,-4135,28633,1219,583,358,357,39,-193,382,3749,38,40,920,1781,1860,2116,2274,2012,1813,1851,1971
837108,-4756,28512,-4070,28698,1385,520,361,371,65,-75,394,3652,51,39,922,1781,1860,2116,2274,2012,1813,1851,1971
838109,-4676,28576,-4005,28763,1017,671,377,405,97,140,499,3710,40,52,921,1781,1860,2116,2274,2012,1813,1851,1971
839110,-4624,28644,-3940,28828,1382,617,371,405,117,-64,643,3669,43,51,923,1772,1877,2127,2263,2034,1826,1864,1988
840111,-4576,28732,-3875,28893,1454,339,362,419,125,-190,688,3734,32,45,921,1772,1877,2127,2263,2034,1826,1864,1988
841112,-4516,28796,-3810,28958,1310,640,344,413,128,0,791,3715,47,51,921,1772,1877,2127,2263,2034,1826,1864,1988
842113,-4452,28848,-3745,29023,1262,807,341,410,111,159,876,3642,42,37,921,1772,1877,2127,2263,2034,1826,1864,1988
843114,-4396,28916,-3680,29088,1373,603,344,392,88,-69,1053,3717,45,40,920,1772,1877,2127,2263,2034,1826,1864,1988
844115,-4332,28976,-3615,29153,1275,710,337,362,57,-19,1124,3698,33,43,921,1772,1877,2127,2263,2034,1826,1864,1988
845116,-4272,29052,-3550,29218,1331,496,325,376,12,255,1205,3844,50,37,921,1791,1887,2135,2279,2054,1838,1884,2007
846117,-4212,29116,-3485,29283,1337,647,314,391,-41,330,1272,3692,37,49,922,1791,1887,2135,2279,2054,1838,1884,2007
847118,-4144,29172,-3420,29348,1233,758,312,409,-96,402,1295,3858,52,50,921,1791,1887,2135,2279,2054,1838,1884,2007
848119,-4072,29268,-3355,29413,1176,221,309,425,-139,352,1177,3770,48,41,921,1791,1887,2135,2279,2054,1838,1884,2007
849120,-4000,29308,-3290,29478,1167,951,316,424,-169,475,1119,3871,35,35,924,1791,1887,2135,2279,2054,1838,1884,2007
850121,-3940,29372,-3225,29543,1323,652,314,431,-187,492,1173,3827,32,42,920,1774,1864,2115,2262,2070,1858,1889,2005
851122,-3884,29448,-3160,29608,1385,489,312,443,-203,595,1149,3826,41,43,921,1774,1864,2115,2262,2070,1858,1889,2005
852123,-3832,29488,-3095,29673,1451,969,307,466,-195,343,942,3746,48,49,921,1774,1864,2115,2262,2070,1858,1889,2005
853124,-3772,29564,-3030,29738,1357,506,316,460,-169,113,873,3886,36,52,918,1774,1864,2115,2262,2070,1858,1889,2005
854125,-3712,29648,-2965,29803,1363,383,343,424,-128,-159,810,3940,35,50,921,1774,1864,2115,2262,2070,1858,1889,2005
855126,-3652,29696,-2900,29868,1370,853,366,380,-86,80,774,3839,33,50,922,1774,1864,2115,2262,2070,1858,1889,2005
856127,-3596,29768,-2835,29933,1431,545,376,333,-67,195,671,3950,49,43,919,1770,1861,2120,2268,2066,1859,1883,2002
857128,-3544,29844,-2770,29998,1497,481,377,273,-43,96,736,3723,49,41,920,1770,1861,2120,2268,2066,1859,1883,2002
858129,-3484,29904,-2705,30063,1404,689,365,211,-11,-135,657,3696,30,53,920,1770,1861,2120,2268,2066,1859,1883,2002
859130,-3432,29992,-2640,30128,1520,311,352,183,-1,-191,796,4015,30,41,920,1770,1861,2120,2268,2066,1859,1883,2002
860131,-3384,30052,-2575,30193,1591,667,331,189,12,129,863,3927,29,54,920,1770,1861,2120,2268,2066,1859,1883,2002
861132,-3324,30112,-2510,30258,1447,673,304,217,25,406,921,4028,38,46,919,1787,1879,2147,2302,2031,1823,1861,1984
862133,-3264,30180,-2445,30323,1454,569,265,260,21,484,993,4009,33,48,920,1787,1879,2147,2302,2031,1823,1861,1984
863134,-3208,30264,-2380,30388,1515,346,228,289,-1,453,1043,3868,34,46,920,1787,1879,2147,2302,2031,1823,1861,1984
864135,-3144,30332,-2315,30453,1416,542,190,331,-26,396,1051,3976,38,40,921,1787,1879,2147,2302,2031,1823,1861,1984
865136,-3080,30392,-2250,30518,1419,648,168,363,-50,355,1113,4078,48,40,920,1787,1879,2147,2302,2031,1823,1861,1984
866137,-3012,30436,-2185,30583,1365,874,145,423,-92,415,1101,4221,36,52,920,1787,1879,2147,2302,2031,1823,1861,1984
867138,-2944,30496,-2120,30648,1361,680,144,484,-126,525,1048,4238,36,51,919,1806,1904,2145,2277,2064,1846,1892,2026
868139,-2880,30568,-2055,30713,1414,522,132,521,-154,446,1086,4007,50,42,920,1806,1904,2145,2277,2064,1846,1892,2026
869140,-2804,30636,-1990,30778,1250,568,133,527,-180,270,1097,4180,40,39,921,1806,1904,2145,2277,2064,1846,1892,2026
870141,-2728,30696,-1925,30843,1237,674,124,517,-210,145,1162,4031,38,55,921,1806,1904,2145,2277,2064,1846,1892,2026
871142,-2652,30772,-1860,30908,1224,461,130,497,-217,5,968,4094,38,53,922,1806,1904,2145,2277,2064,1846,1892,2026
872143,-2588,30828,-1795,30973,1376,722,146,478,-219,67,1025,4125,50,47,922,1779,1873,2131,2278,2104,1886,1915,2043
873144,-2532,30900,-1730,31038,1487,513,160,461,-215,62,998,4079,35,52,920,1779,1873,2131,2278,2104,1886,1915,2043
874145,-2460,30960,-1665,31103,1278,669,174,461,-196,35,956,4275,52,40,920,1779,1873,2131,2278,2104,1886,1915,2043
875146,-2400,31036,-1600,31168,1435,456,176,468,-176,220,1063,4178,39,43,921,1779,1873,2131,2278,2104,1886,1915,2043
876147,-2328,31092,-1535,31233,1277,717,179,474,-157,241,953,4107,47,38,921,1779,1873,2131,2278,2104,1886,1915,2043
877148,-2280,31152,-1470,31298,1597,673,173,476,-129,157,976,4136,33,37,921,1767,1862,2132,2282,2118,1905,1920,2032
878149,-2216,31232,-1405,31363,1399,405,157,479,-99,245,1075,4084,50,40,919,1767,1862,2132,2282,2118,1905,1920,2032
879150,-2156,31296,-1340,31428,1456,607,125,486,-75,297,1031,4146,47,43,921,1767,1862,2132,2282,2118,1905,1920,2032
880151,-2084,31372,-1275,31493,1297,443,85,492,-63,296,1041,4074,43,48,920,1767,1862,2132,2282,2118,1905,1920,2032
881152,-2040,31436,-1210,31558,1674,594,50,500,-58,445,961,4081,40,51,922,1767,1862,2132,2282,2118,1905,1920,2032
882153,-1976,31496,-1145,31623,1425,651,39,484,-57,426,644,4312,35,43,917,1767,1862,2132,2282,2118,1905,1920,2032
883154,-1916,31556,-1080,31688,1481,657,20,503,-85,770,513,4332,47,41,920,1794,1883,2156,2303,2062,1853,1857,1991
884155,-1856,31628,-1015,31753,1488,498,24,543,-142,950,375,4549,49,50,919,1794,1883,2156,2303,2062,1853,1857,1991
885156,-1812,31700,-950,31818,1714,490,35,596,-209,948,294,4498,51,52,920,1794,1883,2156,2303,2062,1853,1857,1991
886157,-1736,31760,-885,31883,1300,646,42,594,-282,897,-114,4573,42,53,918,1794,1883,2156,2303,2062,1853,1857,1991
887158,-1676,31824,-820,31948,1506,597,36,608,-376,1038,-165,4579,35,55,920,1794,1883,2156,2303,2062,1853,1857,1991
888159,-1608,31912,-755,32013,1404,269,30,654,-462,1065,-306,4659,40,44,919,1784,1852,2154,2287,2002,1801,1792,1931
889160,-1544,31952,-690,32078,1455,899,31,671,-549,1019,-588,4489,53,42,921,1784,1852,2154,2287,2002,1801,1792,1931
890161,-1464,32040,-625,32143,1237,271,20,715,-637,1122,-771,4718,37,40,919,1784,1852,2154,2287,2002,1801,1792,1931
891162,-1408,32108,-560,32208,1549,518,25,722,-716,1100,-785,4342,35,54,923,1784,1852,2154,2287,2002,1801,1792,1931
892163,-1332,32176,-495,32273,1285,514,27,751,-785,839,-809,4502,46,47,920,1784,1852,2154,2287,2002,1801,1792,1931
893164,-1280,32248,-430,32338,1601,455,25,727,-823,623,-1047,4201,35,55,921,1784,1852,2154,2287,2002,1801,1792,1931
894165,-1204,32312,-365,32403,1289,557,24,738,-842,720,-1039,4615,52,47,920,1826,1880,2219,2345,1972,1787,1756,1900
895166,-1136,32396,-300,32468,1385,283,24,731,-847,835,-1110,4154,38,43,921,1826,1880,2219,2345,1972,1787,1756,1900
896167,-1068,32456,-235,32533,1381,589,24,705,-844,658,-1232,4276,54,52,922,1826,1880,2219,2345,1972,1787,1756,1900
897168,-984,32516,-170,32598,1159,596,13,664,-832,428,-1239,3948,54,53,921,1826,1880,2219,2345,1972,1787,1756,1900
898169,-936,32588,-105,32663,1630,437,-11,609,-802,464,-1294,3981,48,45,922,1826,1880,2219,2345,1972,1787,1756,1900
899170,-884,32628,-40,32728,1596,868,-37,609,-785,545,-1217,3962,31,37,919,1864,1911,2287,2440,1926,1757,1728,1868
900171,-808,32704,25,32793,1283,404,-75,635,-784,752,-1136,3935,44,43,917,1864,1911,2287,2440,1926,1757,1728,1868
901172,-748,32772,90,32858,1489,500,-117,657,-794,922,-1040,3694,34,42,922,1864,1911,2287,2440,1926,1757,1728,1868
902173,-684,32844,155,32923,1441,442,-180,681,-810,847,-807,3780,49,53,921,1864,1911,2287,2440,1926,1757,1728,1868
903176,-616,32916,220,32988,1388,433,-230,687,-846,782,-756,3627,44,45,921,1864,1911,2287,2440,1926,1757,1728,1868
904175,-556,32964,285,33053,1494,754,-287,723,-883,801,-576,3793,41,47,921,1864,1911,2287,2440,1926,1757,1728,1868
905176,-488,33028,350,33118,1390,556,-335,733,-917,854,-232,3568,41,39,919,1952,1980,2337,2491,1895,1733,1719,1847
906177,-432,33108,415,33183,1552,338,-380,766,-975,601,-109,3753,42,44,920,1952,1980,2337,2491,1895,1733,1719,1847
907178,-344,33160,480,33248,1124,704,-414,793,-1030,653,-125,3702,47,40,920,1952,1980,2337,2491,1895,1733,1719,1847
908179,-280,33224,545,33313,1426,555,-439,810,-1076,706,225,3598,39,40,922,1952,1980,2337,2491,1895,1733,1719,1847
909180,-216,33288,610,33378,1427,556,-453,827,-1117,284,132,3448,44,38,921,1952,1980,2337,2491,1895,1733,1719,1847
910181,-136,33336,675,33443,1209,777,-473,830,-1150,221,209,3510,47,42,920,1952,1980,2306,2472,1918,1741,1748,1871
911182,-76,33400,740,33508,1466,578,-497,865,-1182,337,259,3377,47,39,921,1952,1980,2306,2472,1918,1741,1748,1871
912183,0,33444,805,33573,1252,854,-508,895,-1174,116,-31,3526,39,41,920,1952,1980,2306,2472,1918,1741,1748,1871
913184,60,33516,870,33638,1459,495,-503,905,-1169,-135,272,3586,37,40,920,1952,1980,2306,2472,1918,1741,1748,1871
914185,144,33576,935,33703,1136,652,-477,892,-1161,-264,152,3406,39,52,920,1952,1980,2306,2472,1918,1741,1748,1871
915186,240,33640,1000,33768,948,603,-446,861,-1153,-661,-87,3724,48,49,922,1952,1980,2306,2472,1918,1741,1748,1871
916187,336,33704,1065,33833,911,604,-412,848,-1174,-856,601,3466,39,34,923,1936,1972,2304,2466,1912,1738,1742,1862
917188,392,33772,1130,33898,1422,550,-435,797,-1175,529,-384,2887,36,39,924,1936,1972,2304,2466,1912,1738,1742,1862
918189,448,33816,1195,33963,1433,876,-572,723,-1050,2549,-1366,4028,52,46,922,1936,1972,2304,2466,1912,1738,1742,1862
919190,516,33876,1260,34028,1280,682,-767,561,-964,1786,112,2388,51,43,919,1936,1972,2304,2466,1912,1738,1742,1862
920191,576,33948,1325,34093,1387,524,-928,269,-998,-1004,1088,1246,45,39,921,1936,1972,2304,2466,1912,1738,1742,1862
921192,660,34004,1390,34158,1064,734,-1011,100,-1075,-1579,794,2719,48,50,920,1918,1967,2270,2414,1919,1754,1772,1921
922193,732,34036,1455,34223,1205,1075,-949,239,-1098,1027,0,3892,44,34,922,1918,1967,2270,2414,1919,1754,1772,1921
923194,824,34112,1520,34288,923,511,-801,557,-1061,2978,-368,4519,54,38,919,1918,1967,2270,2414,1919,1754,1772,1921
924195,880,34168,1585,34353,1384,772,-654,820,-1035,2259,-59,4653,45,50,923,1918,1967,2270,2414,1919,1754,1772,1921
925196,968,34236,1650,34418,956,619,-569,850,-1057,355,349,3400,51,50,921,1918,1967,2270,2414,1919,1754,1772,1921
926197,1032,34288,1715,34483,1257,835,-537,702,-1100,-419,849,3015,48,50,923,1918,1967,2270,2414,1919,1754,1772,1921
927198,1108,34348,1780,34548,1095,742,-517,618,-1144,-123,1185,3334,47,44,921,1827,1886,2169,2293,1991,1783,1803,1943
928199,1184,34416,1845,34613,1081,638,-518,605,-1160,90,1359,3547,44,45,921,1827,1886,2169,2293,1991,1783,1803,1943
929200,1256,34484,1910,34678,1123,634,-485,634,-1185,-263,1495,3674,39,44,923,1827,1886,2169,2293,1991,1783,1803,1943
930201,1340,34544,1975,34743,950,740,-439,599,-1182,-915,1496,3499,49,44,923,1827,1886,2169,2293,1991,1783,1803,1943
931202,1400,34608,2040,34808,1257,692,-370,510,-1170,-1008,1799,3228,59,39,923,1827,1886,2169,2293,1991,1783,1803,1943
932203,1484,34672,2105,34873,934,693,-349,420,-1153,-1350,1634,3412,42,52,922,1798,1874,2131,2279,1975,1766,1801,1909
933204,1556,34744,2170,34938,1075,584,-342,387,-1139,-752,1783,3501,43,50,923,1798,1874,2131,2279,1975,1766,1801,1909
934205,1628,34800,2235,35003,1066,795,-337,392,-1122,-419,2012,3448,46,42,923,1798,1874,2131,2279,1975,1766,1801,1909
935206,1708,34876,2300,35068,949,532,-335,385,-1080,-845,1874,3049,46,50,922,1798,1874,2131,2279,1975,1766,1801,1909
936207,1784,34936,2365,35133,986,738,-329,347,-1015,-889,1680,3258,41,53,924,1798,1874,2131,2279,1975,1766,1801,1909
937208,1860,34988,2430,35198,972,854,-333,337,-973,0,1747,3281,50,40,923,1798,1874,2131,2279,1975,1766,1801,1909
938209,1940,35068,2495,35263,904,486,-313,330,-942,29,1624,3127,43,51,922,1833,1917,2176,2345,1940,1756,1800,1914
939210,2000,35132,2560,35328,1160,687,-306,346,-923,193,1545,3414,39,43,924,1833,1917,2176,2345,1940,1756,1800,1914
940211,2068,35208,2625,35393,1057,524,-300,404,-914,642,1390,3524,50,47,923,1833,1917,2176,2345,1940,1756,1800,1914
941212,2136,35284,2690,35458,1054,511,-271,460,-915,615,1661,3198,39,45,923,1833,1917,2176,2345,1940,1756,1800,1914
942213,2212,35352,2755,35523,940,607,-207,457,-910,107,1365,3197,39,44,923,1833,1917,2176,2345,1940,1756,1800,1914
943214,2292,35420,2820,35588,872,604,-142,470,-896,-37,1317,3684,52,43,924,1841,1903,2164,2308,1993,1801,1829,1950
944215,2360,35496,2885,35653,1018,490,-72,524,-904,435,1406,3638,40,38,924,1841,1903,2164,2308,1993,1801,1829,1950
945216,2428,35564,2950,35718,1016,586,-8,543,-915,436,1483,3473,49,41,924,1841,1903,2164,2308,1993,1801,1829,1950
946217,2512,35624,3015,35783,793,693,45,524,-924,-267,1273,3519,52,51,924,1841,1903,2164,2308,1993,1801,1829,1950
947218,2580,35684,3080,35848,989,699,68,480,-964,-252,1458,3387,49,49,924,1841,1903,2164,2308,1993,1801,1829,1950
948219,2656,35744,3145,35913,875,705,96,421,-977,-303,1613,3270,49,44,924,1841,1903,2164,2308,1993,1801,1829,1950
949220,2720,35808,3210,35978,1027,656,110,332,-1003,-509,1512,3187,45,51,924,1786,1859,2128,2265,1989,1788,1806,1925
950221,2788,35868,3275,36043,974,712,115,254,-1028,-1033,1478,3598,50,49,924,1786,1859,2128,2265,1989,1788,1806,1925
951222,2876,35936,3340,36108,696,608,121,190,-1039,-679,1373,3389,40,41,923,1786,1859,2128,2265,1989,1788,1806,1925
952223,2952,35992,3405,36173,832,769,111,157,-1047,-358,1503,3273,58,38,925,1786,1859,2128,2265,1989,1788,1806,1925
953225,3024,36068,3604,36372,1038,670,125,97,-1062,-684,1277,3283,56,49,925,1786,1859,2128,2265,1989,1788,1806,1925
954225,3100,36128,3669,36437,974,876,124,95,-1054,-555,1014,3684,55,38,924,1781,1858,2132,2276,1974,1772,1795,1933
955226,3184,36180,3734,36502,852,993,141,107,-1064,-46,1014,3557,41,39,922,1781,1858,2132,2276,1974,1772,1795,1933
956227,3248,36244,3799,36567,1103,844,138,152,-1074,144,886,3721,58,40,922,1781,1858,2132,2276,1974,1772,1795,1933
957228,3340,36312,3864,36632,720,790,150,154,-1093,-35,647,3452,42,46,922,1781,1858,2132,2276,1974,1772,1795,1933
958229,3396,36376,3929,36697,1181,841,140,179,-1108,133,414,3735,52,41,923,1781,1858,2132,2276,1974,1772,1795,1933
959230,3484,36456,3994,36762,753,623,142,197,-1144,375,276,3725,52,47,923,1781,1858,2132,2276,1974,1772,1795,1933
960231,3584,36520,4059,36827,561,824,131,232,-1175,492,-44,3452,61,55,923,1818,1898,2200,2332,1952,1765,1767,1909
961232,3664,36608,4124,36892,793,496,117,273,-1210,698,-109,3780,44,55,925,1818,1898,2200,2332,1952,1765,1767,1909
962233,3744,36684,4189,36957,775,633,108,290,-1252,606,-97,3265,49,57,926,1818,1898,2200,2332,1952,1765,1767,1909
963234,3832,36768,4254,37022,647,510,106,244,-1296,344,-161,3539,40,44,925,1818,1898,2200,2332,1952,1765,1767,1909
964235,3916,36864,4319,37087,673,323,96,168,-1323,-84,-204,3741,47,48,926,1818,1898,2200,2332,1952,1765,1767,1909
965236,4000,36952,4384,37152,650,395,95,112,-1364,28,56,3515,44,59,927,1882,1925,2263,2397,1936,1768,1754,1885
966237,4052,37016,4449,37217,1066,696,77,65,-1407,-278,51,3674,44,50,927,1882,1925,2263,2397,1936,1768,1754,1885
967238,4140,37104,4514,37282,589,368,42,-8,-1449,-172,323,3506,41,62,925,1882,1925,2263,2397,1936,1768,1754,1885
968239,4228,37188,4579,37347,561,395,-5,-76,-1484,-70,406,3431,54,59,925,1882,1925,2263,2397,1936,1768,1754,1885
969240,4308,37268,4644,37412,643,426,-48,-175,-1521,-452,519,3473,37,53,927,1882,1925,2263,2397,1936,1768,1754,1885
970241,4360,37336,4709,37477,1009,573,-97,-251,-1587,-256,534,3386,47,46,927,1882,1925,2263,2397,1936,1768,1754,1885
971242,4444,37404,4774,37542,585,569,-138,-266,-1651,289,647,3471,51,54,926,1874,1904,2236,2394,1946,1776,1769,1897
972243,4508,37468,4839,37607,837,620,-186,-255,-1708,316,779,3676,43,53,925,1874,1904,2236,2394,1946,1776,1769,1897
973244,4588,37540,4904,37672,618,512,-205,-290,-1763,-136,547,3466,51,44,926,1874,1904,2236,2394,1946,1776,1769,1897
974245,4664,37620,4969,37737,656,393,-224,-322,-1812,-196,339,3894,52,44,926,1874,1904,2236,2394,1946,1776,1769,1897
975246,4732,37684,5034,37802,752,595,-219,-326,-1833,130,120,3714,45,56,927,1874,1904,2236,2394,1946,1776,1769,1897
976247,4796,37756,5099,37867,803,486,-225,-282,-1856,479,233,4201,35,51,927,1862,1900,2227,2363,1959,1780,1772,1919
977248,4872,37832,5164,37932,640,423,-219,-225,-1885,315,59,3995,48,59,926,1862,1900,2227,2363,1959,1780,1772,1919
978249,4956,37908,5229,37997,517,409,-221,-232,-1922,-209,-127,3908,50,42,926,1862,1900,2227,2363,1959,1780,1772,1919
979250,5024,37984,5294,38062,713,396,-200,-222,-1968,-109,13,3982,37,55,928,1862,1900,2227,2363,1959,1780,1772,1919
980251,5108,38060,5359,38127,490,382,-196,-229,-2011,-5,-89,3555,35,55,927,1862,1900,2227,2363,1959,1780,1772,1919
981252,5172,38136,5424,38192,741,369,-217,-181,-2068,563,227,3837,53,48,927,1862,1900,2227,2363,1959,1780,1772,1919
982253,5248,38212,5489,38257,578,355,-254,-177,-2105,301,194,3482,47,54,928,1848,1905,2238,2362,1971,1784,1777,1926
983254,5324,38280,5554,38322,564,452,-271,-271,-2148,-532,234,3138,49,45,927,1848,1905,2238,2362,1971,1784,1777,1926
984255,5384,38364,5619,38387,771,229,-286,-339,-2185,-766,456,3773,34,55,928,1848,1905,2238,2362,1971,1784,1777,1926
985256,5468,38448,5684,38452,448,205,-276,-365,-2242,-350,480,3645,52,41,927,1848,1905,2238,2362,1971,1784,1777,1926
986257,5544,38520,5749,38517,535,347,-269,-374,-2294,-464,228,3792,52,47,928,1848,1905,2238,2362,1971,1784,1777,1926
987258,5632,38584,5814,38582,357,448,-269,-324,-2335,-165,581,3815,53,36,929,1879,1911,2243,2390,1952,1772,1766,1890
988259,5696,38644,5879,38647,658,504,-273,-344,-2375,64,758,3307,41,36,929,1879,1911,2243,2390,1952,1772,1766,1890
989260,5772,38708,5944,38712,494,455,-297,-370,-2421,-398,858,3630,34,44,926,1879,1911,2243,2390,1952,1772,1766,1890
990261,5844,38784,6009,38777,536,292,-337,-363,-2462,-458,1062,3927,49,44,927,1879,1911,2243,2390,1952,1772,1766,1890
991262,5916,38836,6074,38842,527,608,-371,-330,-2494,-231,1208,3622,34,47,929,1879,1911,2243,2390,1952,1772,1766,1890
992263,5996,38912,6139,38907,409,294,-394,-345,-2493,-590,1073,3712,39,43,928,1879,1911,2243,2390,1952,1772,1766,1890
993264,6060,38964,6204,38972,610,610,-417,-367,-2481,-693,1416,3800,52,47,928,1842,1874,2168,2320,1954,1781,1793,1911
994265,6144,39024,6269,39037,337,516,-422,-369,-2488,-624,1454,3841,43,36,928,1842,1874,2168,2320,1954,1781,1793,1911
995266,6228,39092,6334,39102,314,413,-415,-395,-2470,-1205,1121,3667,36,39,928,1842,1874,2168,2320,1954,1781,1793,1911
996267,6304,39148,6399,39167,400,574,-385,-378,-2435,-798,1183,3993,42,50,929,1842,1874,2168,2320,1954,1781,1793,1911
997268,6372,39208,6464,39232,497,530,-332,-405,-2395,-990,1121,3667,51,50,929,1842,1874,2168,2320,1954,1781,1793,1911
998269,6460,39280,6529,39297,219,371,-271,-439,-2367,-1719,1050,3712,44,52,928,1766,1821,2099,2245,2036,1828,1850,1988
999270,6528,39336,6594,39362,465,582,-241,-408,-2328,-1526,1049,4161,40,47,929,1766,1821,2099,2245,2036,1828,1850,1988
1000271,6620,39412,6659,39427,132,319,-200,-342,-2296,-932,1015,3613,34,38,928,1766,1821,2099,2245,2036,1828,1850,1988
1001272,6704,39472,6724,39492,209,525,-164,-304,-2263,-1109,717,3248,39,34,929,1766,1821,2099,2245,2036,1828,1850,1988
1002273,6776,39524,6789,39557,350,641,-142,-236,-2236,-938,872,3561,39,44,930,1766,1821,2099,2245,2036,1828,1850,1988
1003274,6864,39592,6854,39622,122,437,-125,-203,-2195,-977,867,3050,41,40,929,1766,1821,2099,2245,2036,1828,1850,1988
1004275,6936,39644,6919,39687,314,653,-106,-229,-2180,-1525,741,3160,33,30,928,1779,1862,2137,2269,2046,1823,1849,1987
1005276,7012,39700,6984,39752,250,614,-119,-207,-2163,-1754,626,3713,32,43,929,1779,1862,2137,2269,2046,1823,1849,1987
1006277,7092,39760,7049,39817,182,571,-147,-159,-2134,-1016,832,3604,48,40,927,1779,1862,2137,2269,2046,1823,1849,1987
1007278,7180,39816,7114,39882,54,632,-201,-112,-2120,-894,805,3279,32,37,928,1779,1862,2137,2269,2046,1823,1849,1987
1008279,7268,39876,7179,39947,26,588,-271,-118,-2090,-1403,714,3391,40,41,929,1779,1862,2137,2269,2046,1823,1849,1987
1009280,7344,39936,7244,40012,162,594,-335,-224,-2059,-1513,736,3083,52,29,929,1833,1904,2174,2319,1985,1776,1805,1932
1010281,7408,40012,7309,40077,314,381,-395,-344,-2053,-1714,212,3632,44,28,929,1833,1904,2174,2319,1985,1776,1805,1932
1011282,7492,40068,7374,40142,40,642,-400,-379,-1990,-1998,-215,4470,32,41,929,1833,1904,2174,2319,1985,1776,1805,1932
1012283,7572,40136,7439,40207,72,488,-391,-402,-1919,-1377,-88,4068,45,37,929,1833,1904,2174,2319,1985,1776,1805,1932
