%  Data file recorded 2017/4/5  19:15:31
%  Stride Frequency         = [1, 1]
%  Lead In /Lead Out        = 
%  Deltas (Fractional)      = [0.25, 0.25, 0.25],[0.25, 0.25, 0.25]
%  Phase                    = 32768
%  Experiment.py 
%  Motor Gains    = [0, 0, 0, 0, 0, 0, 0, 0, 0, 0]
% Columns: 
% time | Right Leg Pos | Left Leg Pos | Commanded Right Leg Pos | Commanded Left Leg Pos | DCR | DCL | GyroX | GyroY | GyroZ | AX | AY | AZ | RBEMF | LBEMF | VBatt | S1 | S2 | S3 | S4 | S5 | S6 | S7 | S8
57,-15944,-14656,3000,3000,0,0,43,33,58,210,-62,3916,-10,0,853,0,0,0,0,0,0,0,0
1058,-15944,-14668,3000,3000,0,0,44,33,61,219,-55,3909,5,-10,854,0,0,0,0,0,0,0,0
2059,-15944,-14656,3000,3000,0,0,46,32,62,230,-57,3938,-3,-4,853,0,0,0,0,0,0,0,0
3060,-15940,-14660,3000,3000,0,0,45,34,61,213,-57,3954,-7,1,854,0,0,0,0,0,0,0,0
4062,-15940,-14660,3000,3000,0,0,46,33,59,228,-48,3969,8,4,854,0,0,0,0,0,0,0,0
5062,-15948,-14676,3000,3000,0,0,46,31,59,210,-53,3979,-9,-4,853,0,0,0,0,0,0,0,0
6063,-15948,-14660,3000,3000,0,0,46,32,61,212,-71,3957,6,-1,854,0,0,0,0,0,0,0,0
7064,-15944,-14652,3000,3000,0,0,47,31,59,205,-52,3915,-10,-9,853,0,0,0,0,0,0,0,0
8065,-15944,-14668,3000,3000,0,0,45,31,58,228,-60,3930,8,-9,853,0,0,0,0,0,0,0,0
9066,-15944,-14660,3000,3000,0,0,46,30,60,204,-52,3956,-2,-6,854,0,0,0,0,0,0,0,0
10067,-15952,-14660,3000,3000,0,0,44,29,60,203,-55,3943,-9,4,854,0,0,0,0,0,0,0,0
11068,-15952,-14660,3000,3000,0,0,46,29,62,228,-66,3924,7,3,853,0,0,0,0,0,0,0,0
12069,-15944,-14656,3000,3000,0,0,47,30,61,222,-28,3926,-11,1,853,0,0,0,0,0,0,0,0
13070,-15948,-14660,3000,3000,0,0,46,32,59,225,-35,3924,5,-9,854,0,0,0,0,0,0,0,0
14071,-15952,-14668,3000,3000,0,0,46,33,60,225,-36,3925,-3,-7,853,0,0,0,0,0,0,0,0
15072,-15948,-14664,3000,3000,0,0,42,31,60,213,-31,3932,-10,1,854,0,0,0,0,0,0,0,0
16073,-15936,-14664,3000,3000,0,0,41,32,60,213,-55,3950,5,1,853,0,0,0,0,0,0,0,0
17074,-15940,-14664,3000,3000,0,0,42,32,63,211,-61,3954,-9,-10,853,0,0,0,0,0,0,0,0
18075,-15948,-14656,3000,3000,0,0,42,34,63,227,-55,3944,7,-9,851,0,0,0,0,0,0,0,0
19076,-15944,-14660,3000,3000,0,0,42,34,62,208,-47,3950,-10,5,851,0,0,0,0,0,0,0,0
20077,-15940,-14660,3000,3000,0,0,43,33,63,200,-41,3945,-7,-9,853,0,0,0,0,0,0,0,0
21078,-15952,-14660,3000,3000,0,0,45,32,62,193,-62,3966,4,-6,853,0,0,0,0,0,0,0,0
22079,-15948,-14656,3000,3000,0,0,45,34,61,204,-62,3971,-11,5,854,0,0,0,0,0,0,0,0
23080,-15944,-14668,3000,3000,0,0,43,35,62,212,-56,3985,7,-6,853,0,0,0,0,0,0,0,0
24081,-15952,-14664,3000,3000,0,0,42,35,62,210,-58,3973,-10,-9,853,0,0,0,0,0,0,0,0
25082,-15948,-14668,3000,3000,0,0,41,33,60,215,-71,3969,6,-2,853,0,0,0,0,0,0,0,0
26083,-15940,-14676,3000,3000,0,0,42,35,59,222,-60,3933,-8,5,853,0,0,0,0,0,0,0,0
27084,-15952,-14664,3000,3000,0,0,42,36,60,215,-73,3923,-1,1,853,0,0,0,0,0,0,0,0
28085,-15948,-14664,3000,3000,0,0,40,35,62,224,-71,3925,2,-9,853,0,0,0,0,0,0,0,0
29086,-15940,-14656,3000,3000,0,0,41,34,61,209,-55,3914,-1,0,854,0,0,0,0,0,0,0,0
30087,-15944,-14668,3000,3000,0,0,43,36,62,218,-48,3941,2,2,853,0,0,0,0,0,0,0,0
31088,-15944,-14676,3000,3000,0,0,42,36,61,216,-65,4007,-5,5,853,0,0,0,0,0,0,0,0
32089,-15948,-14676,3000,3000,0,0,42,36,58,238,-30,3956,-9,-4,853,0,0,0,0,0,0,0,0
33090,-15948,-14668,3000,3000,0,0,42,35,61,231,-49,3911,7,-9,853,0,0,0,0,0,0,0,0
34091,-15952,-14656,3000,3000,0,0,41,34,61,222,-69,3919,-8,-5,853,0,0,0,0,0,0,0,0
35092,-15952,-14656,3000,3000,0,0,40,34,61,200,-85,3942,8,5,852,0,0,0,0,0,0,0,0
36093,-15948,-14656,3000,3000,0,0,42,34,61,218,-60,3960,-10,1,852,0,0,0,0,0,0,0,0
37094,-15948,-14656,3000,3000,0,0,43,36,58,231,-49,3952,-8,-9,853,0,0,0,0,0,0,0,0
38095,-15948,-14676,3000,3000,0,0,42,37,58,219,-40,3954,7,-3,853,0,0,0,0,0,0,0,0
39096,-15936,-14652,3000,3000,0,0,40,35,58,225,-43,3961,-10,-2,853,0,0,0,0,0,0,0,0
40097,-15944,-14648,3000,3000,0,0,42,34,60,232,-46,3968,8,5,853,0,0,0,0,0,0,0,0
41098,-15952,-14668,3000,3000,0,0,42,34,60,229,-69,3942,-9,0,853,0,0,0,0,0,0,0,0
42099,-15952,-14660,3000,3000,0,0,43,34,59,226,-43,3965,8,-3,853,0,0,0,0,0,0,0,0
43100,-15948,-14652,3000,3000,0,0,43,33,58,218,-47,3948,-2,-9,853,0,0,0,0,0,0,0,0
44101,-15944,-14664,3000,3000,0,0,42,34,58,219,-64,3950,3,-8,853,0,0,0,0,0,0,0,0
45102,-15944,-14660,3000,3000,0,0,43,32,62,222,-39,3916,-4,-6,854,0,0,0,0,0,0,0,0
46103,-15944,-14664,3000,3000,0,0,42,30,62,205,-46,3949,-8,5,853,0,0,0,0,0,0,0,0
47104,-15948,-14664,3000,3000,0,0,43,31,62,227,-70,3979,2,-4,853,0,0,0,0,0,0,0,0
48105,-15948,-14656,3000,3000,0,0,45,31,60,221,-29,3971,-9,-9,853,0,0,0,0,0,0,0,0
49106,-15956,-14660,3000,3000,0,0,45,33,60,219,-54,3977,8,-5,853,0,0,0,0,0,0,0,0
50107,-15944,-14676,3000,3000,0,0,44,34,60,223,-70,3980,-10,5,853,0,0,0,0,0,0,0,0
51108,-15948,-14660,3000,3000,0,0,45,32,61,225,-71,3937,5,3,853,0,0,0,0,0,0,0,0
52109,-15952,-14660,3000,3000,0,0,44,32,61,217,-47,3916,-3,-8,851,0,0,0,0,0,0,0,0
53110,-15948,-14660,3000,3000,0,0,44,32,59,216,-27,3920,7,-3,851,0,0,0,0,0,0,0,0
54111,-15956,-14660,3000,3000,0,0,43,33,61,233,-36,3936,8,5,853,0,0,0,0,0,0,0,0
55112,-15940,-14652,3000,3000,0,0,44,32,61,224,-46,3917,-9,-6,853,0,0,0,0,0,0,0,0
56113,-15944,-14660,3000,3000,0,0,45,33,60,233,-31,3889,7,-8,853,0,0,0,0,0,0,0,0
57114,-15948,-14660,3000,3000,0,0,44,35,61,228,-53,3922,-10,-4,853,0,0,0,0,0,0,0,0
58115,-15948,-14660,3000,3000,0,0,43,36,63,199,-56,3981,8,4,853,0,0,0,0,0,0,0,0
59116,-15952,-14652,3000,3000,0,0,42,34,62,217,-55,3949,-7,2,853,0,0,0,0,0,0,0,0
60117,-15940,-14664,3000,3000,0,0,41,33,60,200,-54,3961,-3,0,853,0,0,0,0,0,0,0,0
61118,-15948,-14660,3000,3000,0,0,43,33,60,197,-52,3948,4,-7,853,0,0,0,0,0,0,0,0
62119,-15948,-14652,3000,3000,0,0,43,35,63,230,-47,3919,-10,-9,853,0,0,0,0,0,0,0,0
63120,-15952,-14656,3000,3000,0,0,42,38,64,235,-44,3944,8,-9,853,0,0,0,0,0,0,0,0
64121,-15944,-14652,3000,3000,0,0,42,36,62,232,-71,3949,-9,-4,853,0,0,0,0,0,0,0,0
65122,-15944,-14660,3000,3000,0,0,43,34,62,209,-53,3962,8,4,853,0,0,0,0,0,0,0,0
66123,-15948,-14660,3000,3000,0,0,43,32,62,235,-24,3957,-10,4,853,0,0,0,0,0,0,0,0
67124,-15948,-14668,3000,3000,0,0,46,33,64,221,-28,3968,8,-9,853,0,0,0,0,0,0,0,0
68125,-15948,-14672,3000,3000,0,0,44,35,63,229,-40,3972,-10,-5,853,0,0,0,0,0,0,0,0
69126,-15948,-14656,3000,3000,0,0,45,35,61,227,-60,3939,8,-1,851,0,0,0,0,0,0,0,0
70127,-15948,-14664,3000,3000,0,0,45,36,61,222,-61,3953,-8,6,851,0,0,0,0,0,0,0,0
71128,-15952,-14668,3000,3000,0,0,43,38,60,215,-52,3942,-9,1,853,0,0,0,0,0,0,0,0
72129,-15940,-14656,3000,3000,0,0,42,37,63,208,-40,3940,8,-8,853,0,0,0,0,0,0,0,0
73130,-15952,-14664,3000,3000,0,0,41,36,63,213,-58,3906,-4,2,853,0,0,0,0,0,0,0,0
74131,-15940,-14652,3000,3000,0,0,42,31,63,234,-30,3892,2,-4,853,0,0,0,0,0,0,0,0
75132,-15948,-14668,3000,3000,0,0,40,33,63,237,-30,3929,4,1,853,0,0,0,0,0,0,0,0
76133,-15940,-14664,3000,3000,0,0,40,35,61,238,-39,3957,-10,-6,853,0,0,0,0,0,0,0,0
77134,-15952,-14656,3000,3000,0,0,41,32,61,225,-51,3988,7,-9,853,0,0,0,0,0,0,0,0
78135,-15952,-14676,3000,3000,0,0,41,31,62,209,-38,3993,0,-9,853,0,0,0,0,0,0,0,0
79136,-15944,-14664,3000,3000,0,0,43,31,62,201,-49,3987,-8,-7,853,0,0,0,0,0,0,0,0
80137,-15940,-14656,3000,3000,0,0,43,30,64,195,-47,3950,-1,3,853,0,0,0,0,0,0,0,0
81138,-15932,-14664,3000,3000,0,0,42,34,64,211,-44,3954,-8,5,853,0,0,0,0,0,0,0,0
82139,-15948,-14660,3000,3000,0,0,43,33,62,220,-55,3960,8,2,853,0,0,0,0,0,0,0,0
83140,-15948,-14652,3000,3000,0,0,44,32,59,220,-58,3983,-11,-6,853,0,0,0,0,0,0,0,0
84141,-15948,-14668,3000,3000,0,0,43,31,60,220,-48,3972,2,-9,853,0,0,0,0,0,0,0,0
85142,-15940,-14656,3000,3000,0,0,43,33,60,199,-70,3963,2,-5,853,0,0,0,0,0,0,0,0
86143,-15944,-14672,3000,3000,0,0,44,33,61,208,-62,3955,3,4,853,0,0,0,0,0,0,0,0
87144,-15948,-14664,3000,3000,0,0,43,36,58,220,-67,3935,-6,3,851,0,0,0,0,0,0,0,0
88145,-15944,-14660,3000,3000,0,0,44,34,58,233,-63,3943,-2,4,853,0,0,0,0,0,0,0,0
89146,-15952,-14668,3000,3000,0,0,45,30,60,215,-47,3983,8,1,853,0,0,0,0,0,0,0,0
90147,-15952,-14660,3000,3000,0,0,46,30,59,191,-34,3962,-10,-3,853,0,0,0,0,0,0,0,0
91148,-15940,-14656,3000,3000,0,0,46,32,59,191,-36,3933,8,-9,853,0,0,0,0,0,0,0,0
92149,-15956,-14660,3000,3000,0,0,46,36,62,188,-33,3912,-10,-8,853,0,0,0,0,0,0,0,0
93150,-15952,-14648,3000,3000,0,0,44,37,62,205,-73,3949,4,-6,853,0,0,0,0,0,0,0,0
94151,-15948,-14668,3000,3000,0,0,44,33,60,214,-57,3956,4,4,853,0,0,0,0,0,0,0,0
95152,-15940,-14660,3000,3000,0,0,46,33,60,215,-11,3975,-6,4,853,0,0,0,0,0,0,0,0
96153,-15948,-14656,3000,3000,0,0,44,35,57,185,-29,3955,8,1,853,0,0,0,0,0,0,0,0
97154,-15940,-14660,3000,3000,0,0,42,36,58,221,-61,3946,-7,-9,853,0,0,0,0,0,0,0,0
98155,-15952,-14668,3000,3000,0,0,42,34,60,223,-69,3955,6,-9,853,0,0,0,0,0,0,0,0
99156,-15952,-14676,3000,3000,0,0,44,30,61,219,-39,3992,-1,-7,852,0,0,0,0,0,0,0,0
100157,-15944,-14664,0,0,0,0,44,31,59,208,-37,3990,-5,3,853,0,0,0,0,0,0,0,0
101158,-15956,-14668,65,65,0,0,45,35,60,185,-52,3978,2,2,853,0,0,0,0,0,0,0,0
102159,-15940,-14652,130,130,0,0,46,35,62,187,-63,3944,-10,-6,853,0,0,0,0,0,0,0,0
103160,-15948,-14656,195,195,0,0,46,32,60,215,-53,3971,7,-8,852,0,0,0,0,0,0,0,0
104161,-15948,-14656,260,260,0,0,46,30,59,212,-54,3942,-9,4,851,0,0,0,0,0,0,0,0
105162,-15944,-14656,325,325,0,0,45,33,59,225,-54,3945,-2,0,853,0,0,0,0,0,0,0,0
106163,-15948,-14660,390,390,0,0,43,37,63,212,-52,3992,8,-10,853,0,0,0,0,0,0,0,0
107164,-15944,-14660,455,455,0,0,42,36,63,207,-51,3971,-8,-5,853,0,0,0,0,0,0,0,0
108165,-15948,-14660,520,520,0,0,45,34,63,204,-63,3944,5,0,853,0,0,0,0,0,0,0,0
109166,-15952,-14668,585,585,0,0,44,34,61,214,-50,3943,-9,5,853,0,0,0,0,0,0,0,0
110167,-15952,-14672,650,650,0,0,44,33,60,211,-64,3987,5,-2,853,0,0,0,0,0,0,0,0
111168,-15948,-14656,715,715,0,0,45,36,59,210,-63,3931,-11,-2,853,0,0,0,0,0,0,0,0
112169,-15948,-14660,780,780,0,0,46,35,58,196,-70,3929,8,-4,853,0,0,0,0,0,0,0,0
113170,-15948,-14664,845,845,0,0,46,34,60,199,-42,3972,-10,-8,853,0,0,0,0,0,0,0,0
114171,-15948,-14664,910,910,0,0,44,32,61,218,-28,3970,8,-7,853,0,0,0,0,0,0,0,0
115172,-15936,-14648,975,975,0,0,42,30,61,227,-46,3941,-10,-5,853,0,0,0,0,0,0,0,0
116173,-15952,-14664,1040,1040,0,0,42,31,59,232,-11,3953,8,-9,853,0,0,0,0,0,0,0,0
117174,-15944,-14652,1105,1105,0,0,42,31,63,212,-39,3984,-9,-9,853,0,0,0,0,0,0,0,0
118175,-15948,-14656,1170,1170,0,0,43,35,64,220,-41,3965,4,-4,853,0,0,0,0,0,0,0,0
119176,-15940,-14668,1235,1235,0,0,42,33,61,243,-60,3944,-7,-4,853,0,0,0,0,0,0,0,0
120177,-15940,-14668,1300,1300,0,0,44,30,59,207,-37,3966,-2,-6,852,0,0,0,0,0,0,0,0
121178,-15952,-14668,1365,1365,0,0,45,29,59,207,-27,3952,1,0,851,0,0,0,0,0,0,0,0
122179,-15948,-14668,1430,1430,0,0,43,31,60,222,-51,3952,2,-9,853,0,0,0,0,0,0,0,0
123180,-15948,-14656,1495,1495,0,0,43,29,62,230,-63,3956,-7,-9,853,0,0,0,0,0,0,0,0
124181,-15944,-14668,1560,1560,0,0,41,30,62,240,-43,3968,8,3,853,0,0,0,0,0,0,0,0
125182,-15944,-14656,1625,1625,0,0,41,32,63,240,-60,3961,-10,0,853,0,0,0,0,0,0,0,0
126183,-15948,-14656,1690,1690,0,0,45,35,61,215,-82,3973,2,-7,853,0,0,0,0,0,0,0,0
127184,-15948,-14660,1755,1755,0,0,45,33,61,227,-68,3979,-3,2,853,0,0,0,0,0,0,0,0
128185,-15952,-14656,1820,1820,0,0,42,30,59,210,-63,3997,2,5,853,0,0,0,0,0,0,0,0
129186,-15940,-14668,1885,1885,0,0,40,30,59,211,-47,3966,1,4,853,0,0,0,0,0,0,0,0
130187,-15940,-14664,1950,1950,0,0,40,31,58,199,-49,3916,-9,0,853,0,0,0,0,0,0,0,0
131188,-15952,-14664,2015,2015,0,0,43,33,61,211,-38,3936,7,-6,853,0,0,0,0,0,0,0,0
132189,-15956,-14660,2080,2080,0,0,45,37,61,232,-49,3916,-10,-3,853,0,0,0,0,0,0,0,0
133190,-15944,-14660,2145,2145,0,0,45,38,62,222,-46,3923,5,-1,853,0,0,0,0,0,0,0,0
134191,-15948,-14664,2210,2210,0,0,44,36,61,242,-52,3967,-9,-1,853,0,0,0,0,0,0,0,0
135192,-15940,-14668,2275,2275,0,0,42,34,61,229,-55,3953,2,-2,853,0,0,0,0,0,0,0,0
136193,-15940,-14660,2340,2340,0,0,42,34,63,217,-54,3975,-4,5,853,0,0,0,0,0,0,0,0
137194,-15936,-14664,2405,2405,0,0,41,36,62,177,-65,3949,5,-8,853,0,0,0,0,0,0,0,0
138195,-15944,-14668,2470,2470,0,0,41,36,61,212,-38,3975,-7,-6,851,0,0,0,0,0,0,0,0
139196,-15944,-14668,2535,2535,0,0,42,36,61,204,-44,3941,-5,4,853,0,0,0,0,0,0,0,0
140197,-15940,-14656,2600,2600,0,0,42,37,61,227,-38,3909,8,-8,853,0,0,0,0,0,0,0,0
141198,-15956,-14664,2665,2665,0,0,43,37,59,230,-47,3941,-4,-5,853,0,0,0,0,0,0,0,0
142199,-15944,-14652,2730,2730,0,0,44,39,59,222,-64,3946,-10,-8,853,0,0,0,0,0,0,0,0
143200,-15944,-14676,2795,2795,0,0,46,41,60,203,-54,3923,8,-10,853,0,0,0,0,0,0,0,0
144201,-15940,-14652,2860,2860,0,0,45,38,64,238,-37,3906,-8,-5,853,0,0,0,0,0,0,0,0
145202,-15952,-14652,2925,2925,0,0,45,36,64,237,-57,3901,-1,-6,853,0,0,0,0,0,0,0,0
146203,-15948,-14668,2990,2990,0,0,44,34,60,234,-39,3939,-3,3,853,0,0,0,0,0,0,0,0
147204,-15952,-14672,3055,3055,0,0,41,32,58,220,-44,3949,-8,-4,853,0,0,0,0,0,0,0,0
148205,-15952,-14672,3120,3120,0,0,45,33,58,249,-37,3929,7,-4,854,0,0,0,0,0,0,0,0
149206,-15948,-14656,3185,3185,0,0,45,36,59,225,-54,3927,-7,-3,854,0,0,0,0,0,0,0,0
150207,-15948,-14664,3250,3250,0,0,46,34,59,217,-61,3948,-3,-2,853,0,0,0,0,0,0,0,0
151208,-15940,-14656,3315,3315,0,0,45,32,59,203,-49,3940,6,-8,853,0,0,0,0,0,0,0,0
152209,-15944,-14664,3380,3380,0,0,47,32,59,219,-36,3960,-4,-10,854,0,0,0,0,0,0,0,0
153210,-15956,-14656,3445,3445,0,0,43,30,61,205,-49,3987,8,-9,854,0,0,0,0,0,0,0,0
154211,-15944,-14656,3510,3510,0,0,42,29,59,214,-29,3991,-8,-8,853,0,0,0,0,0,0,0,0
155212,-15944,-14664,3575,3575,0,0,43,30,60,213,-56,3954,4,-2,851,0,0,0,0,0,0,0,0
156213,-15944,-14648,3640,3640,0,0,46,30,59,213,-86,3943,-6,-4,854,0,0,0,0,0,0,0,0
157214,-15944,-14660,3705,3705,0,0,43,30,61,228,-77,3949,4,1,854,0,0,0,0,0,0,0,0
158215,-15948,-14664,3770,3770,0,0,43,28,61,214,-56,3955,-8,3,853,0,0,0,0,0,0,0,0
159216,-15940,-14656,3835,3835,0,0,43,30,62,200,-42,3934,9,5,853,0,0,0,0,0,0,0,0
160217,-15940,-14652,3900,3900,0,0,43,33,59,204,-62,3924,-5,4,854,0,0,0,0,0,0,0,0
161218,-15936,-14668,3965,3965,0,0,45,36,59,205,-45,3927,-4,0,854,0,0,0,0,0,0,0,0
162219,-15944,-14664,4030,4030,0,0,44,32,60,190,-48,3939,7,-2,853,0,0,0,0,0,0,0,0
163220,-15952,-14664,4095,4095,0,0,45,31,61,184,-55,3969,-6,-7,854,0,0,0,0,0,0,0,0
164221,-15940,-14656,4160,4160,0,0,42,34,62,198,-64,3946,5,-10,854,0,0,0,0,0,0,0,0
165222,-15944,-14668,4225,4225,0,0,42,34,61,180,-38,3957,2,-9,854,0,0,0,0,0,0,0,0
166223,-15948,-14652,4290,4290,0,0,42,32,59,191,-46,3963,-9,-9,854,0,0,0,0,0,0,0,0
167224,-15948,-14660,4355,4355,0,0,40,34,61,218,-67,3954,7,-6,854,0,0,0,0,0,0,0,0
168225,-15948,-14664,4420,4420,0,0,42,35,61,201,-53,3920,-10,-7,854,0,0,0,0,0,0,0,0
169226,-15952,-14656,4485,4485,0,0,42,35,62,197,-37,3914,0,-2,854,0,0,0,0,0,0,0,0
170227,-15948,-14660,4550,4550,0,0,40,34,62,225,-43,3912,-4,3,854,0,0,0,0,0,0,0,0
171228,-15948,-14656,4615,4615,0,0,41,35,61,221,-54,3923,3,-2,854,0,0,0,0,0,0,0,0
172229,-15948,-14664,4680,4680,0,0,44,35,62,226,-49,3910,-5,-6,851,0,0,0,0,0,0,0,0
173230,-15948,-14664,4745,4745,0,0,43,35,63,215,-60,3960,-10,-9,853,0,0,0,0,0,0,0,0
174231,-15940,-14660,4810,4810,0,0,42,34,63,181,-33,3938,8,-2,854,0,0,0,0,0,0,0,0
175232,-15948,-14660,4875,4875,0,0,42,34,63,212,-21,3944,-8,0,854,0,0,0,0,0,0,0,0
176233,-15944,-14656,4940,4940,0,0,41,35,62,217,-28,3959,8,2,854,0,0,0,0,0,0,0,0
177234,-15944,-14652,5005,5005,0,0,41,35,60,232,-60,3963,-10,-7,854,0,0,0,0,0,0,0,0
178235,-15948,-14652,5070,5070,0,0,43,36,63,220,-50,3936,8,-4,854,0,0,0,0,0,0,0,0
179236,-15952,-14672,5135,5135,0,0,42,36,64,201,-30,3940,-9,-3,854,0,0,0,0,0,0,0,0
180237,-15952,-14664,5200,5200,0,0,43,34,63,193,-54,3933,8,-7,853,0,0,0,0,0,0,0,0
181238,-15944,-14648,5265,5265,0,0,44,36,60,224,-68,3962,-10,-8,853,0,0,0,0,0,0,0,0
182239,-15936,-14668,5330,5330,0,0,45,36,60,207,-44,3936,3,-5,854,0,0,0,0,0,0,0,0
183240,-15948,-14660,5395,5395,0,0,44,33,61,217,-47,3939,-1,-9,854,0,0,0,0,0,0,0,0
184241,-15940,-14652,5460,5460,0,0,46,33,61,200,-61,3949,-6,-9,854,0,0,0,0,0,0,0,0
185242,-15952,-14648,5525,5525,0,0,45,34,60,216,-58,3931,7,-9,853,0,0,0,0,0,0,0,0
186243,-15944,-14656,5590,5590,0,0,45,33,61,220,-53,3953,-9,-2,853,0,0,0,0,0,0,0,0
187244,-15948,-14656,5655,5655,0,0,43,33,61,233,-19,3969,5,-3,854,0,0,0,0,0,0,0,0
188245,-15944,-14652,5720,5720,0,0,43,33,61,233,-15,3977,-8,-8,854,0,0,0,0,0,0,0,0
189246,-15940,-14672,5785,5785,0,0,42,31,61,219,-27,3957,7,-9,851,0,0,0,0,0,0,0,0
190247,-15940,-14664,5850,5850,0,0,45,31,61,218,-59,3959,8,-2,854,0,0,0,0,0,0,0,0
191248,-15948,-14656,5915,5915,0,0,45,31,60,193,-65,3956,2,2,854,0,0,0,0,0,0,0,0
192249,-15952,-14664,5980,5980,0,0,45,31,59,204,-56,3977,-4,-8,854,0,0,0,0,0,0,0,0
193250,-15948,-14648,6045,6045,0,0,45,32,58,219,-71,3973,0,-9,854,0,0,0,0,0,0,0,0
194251,-15940,-14660,6110,6110,0,0,45,34,58,212,-71,3981,-10,3,854,0,0,0,0,0,0,0,0
195252,-15952,-14664,6175,6175,0,0,46,30,57,210,-47,3970,7,5,854,0,0,0,0,0,0,0,0
196253,-15944,-14664,6240,6240,0,0,44,27,61,195,-50,3928,-9,2,853,0,0,0,0,0,0,0,0
197254,-15940,-14652,6305,6305,0,0,42,29,62,193,-52,3918,-2,-4,854,0,0,0,0,0,0,0,0
198255,-15944,-14664,6370,6370,0,0,41,32,62,203,-42,3942,-2,-6,854,0,0,0,0,0,0,0,0
199256,-15956,-14672,6435,6435,0,0,43,36,61,212,-41,3940,1,-9,854,0,0,0,0,0,0,0,0
200257,-15948,-14676,6500,6500,0,0,44,35,61,205,-59,3927,4,-3,853,0,0,0,0,0,0,0,0
201258,-15948,-14652,6565,6565,0,0,45,33,61,218,-47,3939,1,0,854,0,0,0,0,0,0,0,0
202259,-15956,-14656,6630,6630,0,0,44,33,57,217,-38,3962,-8,5,854,0,0,0,0,0,0,0,0
203260,-15948,-14656,6695,6695,0,0,42,32,56,229,-39,3981,2,2,854,0,0,0,0,0,0,0,0
204261,-15952,-14664,6760,6760,0,0,43,34,59,217,-37,3924,-8,3,854,0,0,0,0,0,0,0,0
205262,-15944,-14652,6825,6825,0,0,45,34,61,220,-66,3884,8,-5,854,0,0,0,0,0,0,0,0
206263,-15948,-14664,6890,6890,0,0,45,34,59,222,-52,3885,-8,-9,852,0,0,0,0,0,0,0,0
207264,-15940,-14656,6955,6955,0,0,42,34,57,203,-38,3919,-9,-2,854,0,0,0,0,0,0,0,0
208265,-15948,-14664,7020,7020,0,0,38,35,57,217,-21,3930,-2,5,854,0,0,0,0,0,0,0,0
209266,-15956,-14664,7085,7085,0,0,39,37,60,234,-30,3970,3,-5,853,0,0,0,0,0,0,0,0
210267,-15936,-14656,7150,7150,0,0,39,37,62,239,-41,3963,-4,-10,854,0,0,0,0,0,0,0,0
211268,-15960,-14656,7215,7215,0,0,41,38,61,228,-22,3961,2,-3,854,0,0,0,0,0,0,0,0
212269,-15940,-14656,7280,7280,0,0,43,36,59,236,-38,3966,-11,5,854,0,0,0,0,0,0,0,0
213270,-15952,-14656,7345,7345,0,0,41,36,60,234,-59,3969,7,5,854,0,0,0,0,0,0,0,0
214271,-15952,-14664,7410,7410,0,0,41,35,63,229,-57,3952,-10,-3,853,0,0,0,0,0,0,0,0
215272,-15956,-14664,7475,7475,0,0,43,34,64,223,-32,3919,3,-9,854,0,0,0,0,0,0,0,0
216273,-15952,-14668,7540,7540,0,0,44,34,61,204,-41,3942,-1,-9,854,0,0,0,0,0,0,0,0
217274,-15952,-14664,7605,7605,0,0,43,37,59,207,-53,3954,-3,-7,854,0,0,0,0,0,0,0,0
218275,-15940,-14664,7670,7670,0,0,43,37,61,239,-35,3967,7,0,853,0,0,0,0,0,0,0,0
219276,-15944,-14664,7735,7735,0,0,43,37,61,205,-30,3979,-7,1,854,0,0,0,0,0,0,0,0
220277,-15944,-14668,7800,7800,0,0,45,35,61,197,-65,3976,7,5,854,0,0,0,0,0,0,0,0
221278,-15952,-14652,7865,7865,0,0,46,34,62,224,-62,3962,-7,5,854,0,0,0,0,0,0,0,0
222279,-15948,-14656,7930,7930,0,0,44,33,61,222,-52,3992,-1,5,854,0,0,0,0,0,0,0,0
223280,-15940,-14656,7995,7995,0,0,41,34,62,212,-43,3972,-3,-5,851,0,0,0,0,0,0,0,0
224281,-15952,-14660,8060,8060,0,0,43,34,61,214,-47,3947,5,-8,854,0,0,0,0,0,0,0,0
225282,-15952,-14660,8125,8125,0,0,44,32,60,201,-36,3978,-10,-9,854,0,0,0,0,0,0,0,0
226283,-15944,-14664,8190,8190,0,0,46,31,63,218,-17,3943,8,-1,854,0,0,0,0,0,0,0,0
227284,-15956,-14664,8255,8255,0,0,46,32,63,216,-47,3932,-9,2,854,0,0,0,0,0,0,0,0
228285,-15944,-14664,8320,8320,0,0,46,34,61,206,-43,3989,8,3,854,0,0,0,0,0,0,0,0
229286,-15948,-14672,8385,8385,0,0,44,33,60,225,-71,3952,-10,1,853,0,0,0,0,0,0,0,0
230287,-15932,-14668,8450,8450,0,0,43,33,60,234,-70,3968,8,-10,854,0,0,0,0,0,0,0,0
231288,-15944,-14664,8515,8515,0,0,43,32,63,235,-70,3984,-9,-7,854,0,0,0,0,0,0,0,0
232289,-15948,-14660,8580,8580,0,0,43,32,61,212,-61,3976,8,2,854,0,0,0,0,0,0,0,0
233290,-15944,-14652,8645,8645,0,0,43,33,60,205,-55,3977,-9,1,854,0,0,0,0,0,0,0,0
234291,-15948,-14676,8710,8710,0,0,41,32,62,185,-62,3964,8,-1,853,0,0,0,0,0,0,0,0
235292,-15948,-14652,8775,8775,0,0,43,34,62,212,-41,3938,-10,-9,854,0,0,0,0,0,0,0,0
236293,-15944,-14644,8840,8840,0,0,46,33,63,212,-49,3935,6,-8,854,0,0,0,0,0,0,0,0
237294,-15948,-14656,8905,8905,0,0,44,33,61,215,-48,3946,-10,-4,854,0,0,0,0,0,0,0,0
238295,-15944,-14668,8970,8970,0,0,44,32,61,233,-59,3924,8,2,853,0,0,0,0,0,0,0,0
239296,-15944,-14652,9035,9035,0,0,45,33,59,241,-57,3912,-8,5,854,0,0,0,0,0,0,0,0
240297,-15944,-14672,9100,9100,0,0,45,33,63,227,-67,3949,3,1,851,0,0,0,0,0,0,0,0
241298,-15948,-14664,9165,9165,0,0,43,34,62,213,-70,3955,6,-9,854,0,0,0,0,0,0,0,0
242299,-15948,-14672,9230,9230,0,0,43,32,58,243,-69,3938,8,-9,854,0,0,0,0,0,0,0,0
243300,-15956,-14656,9295,9295,0,0,42,34,59,225,-64,3944,-9,5,853,0,0,0,0,0,0,0,0
244301,-15948,-14660,9360,9360,0,0,43,37,61,211,-49,3930,8,4,853,0,0,0,0,0,0,0,0
245302,-15948,-14668,9425,9425,0,0,43,34,61,220,-46,3907,-9,2,854,0,0,0,0,0,0,0,0
246303,-15948,-14676,9490,9490,0,0,43,35,59,203,-47,3932,5,-4,853,0,0,0,0,0,0,0,0
247304,-15952,-14656,9555,9555,0,0,44,33,60,183,-43,3942,-7,-9,854,0,0,0,0,0,0,0,0
248305,-15944,-14656,9620,9620,0,0,47,33,59,212,-31,3973,-3,-6,854,0,0,0,0,0,0,0,0
249306,-15948,-14656,9685,9685,0,0,46,36,61,232,-47,3953,-4,-6,853,0,0,0,0,0,0,0,0
250307,-15948,-14668,9750,9750,0,0,43,35,61,231,-47,3937,3,-6,853,0,0,0,0,0,0,0,0
251308,-15948,-14656,9815,9815,0,0,43,35,61,262,-47,3951,3,-4,854,0,0,0,0,0,0,0,0
252309,-15944,-14664,9880,9880,0,0,44,33,60,234,-41,3940,-2,-3,854,0,0,0,0,0,0,0,0
253310,-15948,-14668,9945,9945,0,0,44,33,58,190,-33,3948,-8,5,854,0,0,0,0,0,0,0,0
254311,-15936,-14668,10010,10010,0,0,41,34,59,201,-50,3944,2,1,853,0,0,0,0,0,0,0,0
255312,-15944,-14656,10075,10075,0,0,40,38,58,231,-48,3939,-10,0,853,0,0,0,0,0,0,0,0
256313,-15952,-14652,10140,10140,0,0,42,35,57,234,-51,3958,8,-7,853,0,0,0,0,0,0,0,0
257314,-15940,-14648,10205,10205,0,0,44,35,58,226,-52,3945,-9,-10,851,0,0,0,0,0,0,0,0
258315,-15952,-14660,10270,10270,0,0,42,35,60,234,-37,3945,-11,-8,854,0,0,0,0,0,0,0,0
259316,-15952,-14672,10335,10335,0,0,41,33,59,211,-57,3935,-2,-5,853,0,0,0,0,0,0,0,0
260317,-15936,-14664,10400,10400,0,0,42,33,62,228,-68,3970,3,3,854,0,0,0,0,0,0,0,0
261318,-15936,-14664,10465,10465,0,0,41,33,60,220,-44,3985,-3,3,854,0,0,0,0,0,0,0,0
262319,-15944,-14656,10530,10530,0,0,41,31,59,200,-48,3971,-2,5,854,0,0,0,0,0,0,0,0
263320,-15952,-14660,10595,10595,0,0,43,32,57,212,-25,3924,-7,5,854,0,0,0,0,0,0,0,0
264321,-15944,-14652,10660,10660,0,0,48,33,59,221,-29,3911,5,3,854,0,0,0,0,0,0,0,0
265322,-15948,-14668,10725,10725,0,0,49,34,62,220,-41,3934,-9,-5,854,0,0,0,0,0,0,0,0
266323,-15948,-14656,10790,10790,0,0,47,32,60,182,-46,3939,6,-9,854,0,0,0,0,0,0,0,0
267324,-15948,-14660,10855,10855,0,0,43,31,62,194,-40,3920,-1,-8,854,0,0,0,0,0,0,0,0
268325,-15952,-14656,10920,10920,0,0,42,31,62,230,-57,3931,-7,-9,854,0,0,0,0,0,0,0,0
269326,-15940,-14656,10985,10985,0,0,40,33,62,216,-39,3961,8,-6,854,0,0,0,0,0,0,0,0
270327,-15948,-14660,11050,11050,0,0,42,33,59,192,-30,3954,-10,-6,854,0,0,0,0,0,0,0,0
271328,-15948,-14656,11115,11115,0,0,45,34,59,189,-33,3951,7,-2,853,0,0,0,0,0,0,0,0
272329,-15952,-14668,11180,11180,0,0,46,32,61,179,-29,3935,-5,2,854,0,0,0,0,0,0,0,0
273330,-15948,-14664,11245,11245,0,0,46,32,60,183,-59,3919,-4,-4,854,0,0,0,0,0,0,0,0
274331,-15936,-14668,11310,11310,0,0,46,34,58,212,-63,3907,3,0,851,0,0,0,0,0,0,0,0
275332,-15948,-14664,11375,11375,0,0,45,34,59,222,-63,3911,4,5,854,0,0,0,0,0,0,0,0
276333,-15956,-14656,11440,11440,0,0,44,35,61,246,-54,3941,-10,2,854,0,0,0,0,0,0,0,0
277334,-15952,-14660,11505,11505,0,0,46,33,61,238,-23,3936,8,5,853,0,0,0,0,0,0,0,0
278335,-15948,-14664,11570,11570,0,0,47,33,61,224,-29,3942,-10,3,854,0,0,0,0,0,0,0,0
279336,-15948,-14664,11635,11635,0,0,46,35,62,233,-28,3953,7,1,854,0,0,0,0,0,0,0,0
280337,-15940,-14664,11700,11700,0,0,43,37,63,220,-9,3927,-11,-8,854,0,0,0,0,0,0,0,0
281338,-15944,-14648,11765,11765,0,0,43,35,64,219,-23,3914,5,-8,854,0,0,0,0,0,0,0,0
282339,-15952,-14664,11830,11830,0,0,42,33,61,198,-32,3926,-8,-8,854,0,0,0,0,0,0,0,0
283340,-15936,-14660,11895,11895,0,0,44,35,61,210,-30,3953,1,-2,854,0,0,0,0,0,0,0,0
284341,-15948,-14664,11960,11960,0,0,42,38,63,227,-39,3976,4,3,853,0,0,0,0,0,0,0,0
285342,-15948,-14672,12025,12025,0,0,42,36,63,213,-55,3930,-7,4,854,0,0,0,0,0,0,0,0
286343,-15944,-14652,12090,12090,0,0,43,34,63,223,-46,3960,5,5,853,0,0,0,0,0,0,0,0
287344,-15944,-14660,12155,12155,0,0,42,33,64,235,-33,3949,-10,0,853,0,0,0,0,0,0,0,0
288345,-15936,-14664,12220,12220,0,0,42,34,60,215,-44,3915,8,-2,854,0,0,0,0,0,0,0,0
289346,-15948,-14656,12285,12285,0,0,42,34,61,208,-24,3959,-10,-9,854,0,0,0,0,0,0,0,0
290347,-15940,-14656,12350,12350,0,0,43,33,61,212,-34,3991,6,-5,854,0,0,0,0,0,0,0,0
291348,-15948,-14668,12415,12415,0,0,43,36,62,232,-62,3960,-10,2,851,0,0,0,0,0,0,0,0
292349,-15948,-14660,12480,12480,0,0,45,35,61,228,-58,3950,-9,1,854,0,0,0,0,0,0,0,0
293350,-15948,-14664,12545,12545,0,0,44,32,62,217,-41,3946,-4,-9,854,0,0,0,0,0,0,0,0
294351,-15956,-14664,12610,12610,0,0,44,33,59,204,-38,3978,-3,-9,854,0,0,0,0,0,0,0,0
295352,-15936,-14668,12675,12675,0,0,46,35,58,217,-49,3991,2,0,854,0,0,0,0,0,0,0,0
296353,-15956,-14664,12740,12740,0,0,45,37,60,211,-63,3954,1,5,854,0,0,0,0,0,0,0,0
297354,-15944,-14656,12805,12805,0,0,41,34,59,209,-51,3979,-2,5,854,0,0,0,0,0,0,0,0
298355,-15944,-14660,12870,12870,0,0,38,34,59,216,-49,3942,7,1,854,0,0,0,0,0,0,0,0
299356,-15948,-14672,12935,12935,0,0,43,38,58,221,-67,3923,-11,-7,854,0,0,0,0,0,0,0,0
300357,-15952,-14656,13000,13000,0,0,45,36,59,209,-50,3965,9,-7,854,0,0,0,0,0,0,0,0
301358,-15948,-14660,13065,13065,0,0,44,31,60,202,-54,3922,-9,-9,854,0,0,0,0,0,0,0,0
302359,-15944,-14660,13130,13130,0,0,44,31,62,187,-58,3914,5,3,854,0,0,0,0,0,0,0,0
303360,-15948,-14648,13195,13195,0,0,42,33,59,193,-50,3920,-3,1,854,0,0,0,0,0,0,0,0
304361,-15956,-14656,13260,13260,0,0,43,32,59,200,-40,3949,1,4,854,0,0,0,0,0,0,0,0
305362,-15948,-14664,13325,13325,0,0,44,32,58,212,-61,3954,-9,5,854,0,0,0,0,0,0,0,0
306363,-15940,-14656,13390,13390,0,0,44,31,59,215,-57,3955,7,4,854,0,0,0,0,0,0,0,0
307364,-15944,-14660,13455,13455,0,0,42,32,59,185,-46,3946,-7,-5,853,0,0,0,0,0,0,0,0
308365,-15940,-14656,13520,13520,0,0,41,33,59,203,-33,4001,7,-10,851,0,0,0,0,0,0,0,0
309366,-15948,-14672,13585,13585,0,0,42,33,62,221,-45,3965,6,-4,854,0,0,0,0,0,0,0,0
310367,-15940,-14664,13650,13650,0,0,45,35,63,208,-30,3939,-3,5,854,0,0,0,0,0,0,0,0
311368,-15948,-14672,13715,13715,0,0,44,34,63,212,-31,3937,-10,4,854,0,0,0,0,0,0,0,0
312369,-15948,-14660,13780,13780,0,0,40,35,58,188,-38,3939,8,1,854,0,0,0,0,0,0,0,0
313370,-15956,-14652,13845,13845,0,0,42,35,59,217,-37,3946,-10,-9,854,0,0,0,0,0,0,0,0
314371,-15948,-14660,13910,13910,0,0,43,35,61,233,-50,3939,1,-4,853,0,0,0,0,0,0,0,0
315372,-15948,-14652,13975,13975,0,0,45,33,62,222,-44,3960,-2,-6,854,0,0,0,0,0,0,0,0
316373,-15940,-14640,14040,14040,0,0,47,33,61,215,-46,3962,-4,-8,854,0,0,0,0,0,0,0,0
317374,-15952,-14660,14105,14105,0,0,42,35,64,228,-43,3927,5,-1,854,0,0,0,0,0,0,0,0
318375,-15948,-14656,14170,14170,0,0,42,33,62,183,-63,3937,-10,0,854,0,0,0,0,0,0,0,0
319376,-15952,-14660,14235,14235,0,0,42,34,61,196,-54,3967,8,4,853,0,0,0,0,0,0,0,0
320377,-15944,-14648,14300,14300,0,0,44,35,61,207,-59,3941,-9,4,854,0,0,0,0,0,0,0,0
321378,-15948,-14664,14365,14365,0,0,44,35,63,209,-46,3927,5,5,854,0,0,0,0,0,0,0,0
322379,-15948,-14656,14430,14430,0,0,42,33,63,199,-40,3931,-9,-2,853,0,0,0,0,0,0,0,0
323380,-15948,-14648,14495,14495,0,0,44,34,61,205,-34,3955,-1,-9,854,0,0,0,0,0,0,0,0
324381,-15948,-14672,14560,14560,0,0,47,34,61,200,-51,3938,0,-10,854,0,0,0,0,0,0,0,0
325382,-15940,-14656,14625,14625,0,0,46,33,63,197,-47,3917,-2,-3,852,0,0,0,0,0,0,0,0
326383,-15940,-14656,14690,14690,0,0,43,33,62,210,-55,3966,-6,1,854,0,0,0,0,0,0,0,0
327384,-15936,-14652,14755,14755,0,0,42,34,59,217,-49,3995,7,-3,853,0,0,0,0,0,0,0,0
328385,-15948,-14664,14820,14820,0,0,43,33,60,216,-49,3998,-9,-9,854,0,0,0,0,0,0,0,0
329386,-15948,-14672,14885,14885,0,0,44,34,61,226,-57,3962,-5,-1,854,0,0,0,0,0,0,0,0
330387,-15952,-14664,14950,14950,0,0,47,33,61,212,-49,3960,3,3,854,0,0,0,0,0,0,0,0
331388,-15948,-14652,15015,15015,0,0,46,32,61,208,-58,3918,-9,4,853,0,0,0,0,0,0,0,0
332389,-15944,-14676,15080,15080,0,0,45,32,60,223,-53,3933,3,-5,853,0,0,0,0,0,0,0,0
333390,-15944,-14660,15145,15145,0,0,43,30,62,228,-71,3972,-5,-9,854,0,0,0,0,0,0,0,0
334391,-15936,-14656,15210,15210,0,0,44,33,62,235,-47,3971,-1,-1,853,0,0,0,0,0,0,0,0
335392,-15940,-14652,15275,15275,0,0,44,33,60,206,-43,3954,4,4,854,0,0,0,0,0,0,0,0
336393,-15940,-14664,15340,15340,0,0,45,31,59,222,-63,3928,-8,-1,854,0,0,0,0,0,0,0,0
337394,-15948,-14656,15405,15405,0,0,44,32,61,218,-64,3954,7,-8,854,0,0,0,0,0,0,0,0
338395,-15948,-14660,15470,15470,0,0,42,31,60,237,-81,3962,-11,-8,854,0,0,0,0,0,0,0,0
339396,-15948,-14664,15535,15535,0,0,40,31,59,222,-64,3960,8,-5,854,0,0,0,0,0,0,0,0
340397,-15948,-14672,15600,15600,0,0,42,31,57,217,-65,3970,-11,5,854,0,0,0,0,0,0,0,0
341398,-15948,-14636,15665,15665,0,0,44,29,58,224,-79,3979,6,-1,854,0,0,0,0,0,0,0,0
342399,-15944,-14668,15730,15730,0,0,45,29,58,217,-61,3971,-7,-5,851,0,0,0,0,0,0,0,0
343400,-15948,-14652,15795,15795,0,0,44,31,60,199,-46,3952,-3,-5,854,0,0,0,0,0,0,0,0
344401,-15948,-14660,15860,15860,0,0,43,33,62,194,-57,3969,-4,5,854,0,0,0,0,0,0,0,0
345402,-15944,-14668,15925,15925,0,0,39,34,60,196,-55,3933,-3,4,854,0,0,0,0,0,0,0,0
346403,-15948,-14656,15990,15990,0,0,39,34,61,215,-49,3928,4,3,853,0,0,0,0,0,0,0,0
347404,-15936,-14664,16055,16055,0,0,42,31,61,223,-55,3933,-10,-7,854,0,0,0,0,0,0,0,0
348405,-15952,-14656,16120,16120,0,0,43,32,60,207,-75,3940,8,-9,853,0,0,0,0,0,0,0,0
349406,-15944,-14672,16185,16185,0,0,42,34,60,218,-62,3953,-6,-2,854,0,0,0,0,0,0,0,0
350407,-15944,-14660,16250,16250,0,0,44,35,59,205,-38,3938,-8,5,854,0,0,0,0,0,0,0,0
351408,-15940,-14660,16315,16315,0,0,43,34,60,198,-19,3933,7,5,853,0,0,0,0,0,0,0,0
352409,-15944,-14660,16380,16380,0,0,43,34,62,217,-46,3959,-5,3,854,0,0,0,0,0,0,0,0
353410,-15940,-14660,16445,16445,0,0,40,38,64,229,-63,3947,6,-4,853,0,0,0,0,0,0,0,0
354411,-15952,-14664,16510,16510,0,0,42,39,60,238,-66,3934,-4,-7,854,0,0,0,0,0,0,0,0
355412,-15956,-14668,16575,16575,0,0,43,36,59,229,-74,3940,2,-6,854,0,0,0,0,0,0,0,0
356413,-15948,-14664,16640,16640,0,0,43,35,59,223,-54,3950,-8,4,854,0,0,0,0,0,0,0,0
357414,-15948,-14664,16705,16705,0,0,41,36,57,211,-35,3936,4,5,854,0,0,0,0,0,0,0,0
358415,-15952,-14656,16770,16770,0,0,40,37,60,229,-25,3913,-7,5,854,0,0,0,0,0,0,0,0
359416,-15944,-14656,16835,16835,0,0,41,39,60,226,-38,3931,8,-2,851,0,0,0,0,0,0,0,0
360417,-15944,-14652,16900,16900,0,0,43,37,62,233,-61,3945,7,-7,854,0,0,0,0,0,0,0,0
361418,-15944,-14664,16965,16965,0,0,46,34,63,219,-61,3931,-7,-7,854,0,0,0,0,0,0,0,0
362419,-15948,-14648,17030,17030,0,0,47,33,64,238,-48,3973,-6,4,853,0,0,0,0,0,0,0,0
363420,-15944,-14668,17095,17095,0,0,45,32,57,209,-46,3957,4,4,853,0,0,0,0,0,0,0,0
364421,-15948,-14652,17160,17160,0,0,44,36,59,218,-41,3950,-7,-9,854,0,0,0,0,0,0,0,0
365422,-15940,-14664,17225,17225,0,0,42,38,62,227,-70,3943,8,-1,854,0,0,0,0,0,0,0,0
366423,-15956,-14672,17290,17290,0,0,42,37,61,226,-54,3955,-11,5,853,0,0,0,0,0,0,0,0
367424,-15948,-14660,17355,17355,0,0,42,35,57,224,-28,3969,8,-3,854,0,0,0,0,0,0,0,0
368425,-15956,-14664,17420,17420,0,0,43,33,59,234,-45,3987,-8,-8,854,0,0,0,0,0,0,0,0
369426,-15940,-14656,17485,17485,0,0,44,31,59,240,-69,3964,0,-6,854,0,0,0,0,0,0,0,0
370427,-15940,-14656,17550,17550,0,0,45,30,62,205,-69,3953,0,-8,854,0,0,0,0,0,0,0,0
371428,-15944,-14652,17615,17615,0,0,46,32,61,196,-42,3940,-6,2,854,0,0,0,0,0,0,0,0
372429,-15948,-14668,17680,17680,0,0,47,33,59,231,-14,3953,5,5,854,0,0,0,0,0,0,0,0
373430,-15944,-14668,17745,17745,0,0,45,33,58,250,-18,3985,-7,-3,853,0,0,0,0,0,0,0,0
374431,-15952,-14668,17810,17810,0,0,44,32,64,199,-46,3953,8,-9,854,0,0,0,0,0,0,0,0
375432,-15944,-14656,17875,17875,0,0,45,31,64,207,-57,3940,-10,-4,853,0,0,0,0,0,0,0,0
376433,-15960,-14664,17940,17940,0,0,43,30,62,224,-32,3922,6,4,852,0,0,0,0,0,0,0,0
377434,-15952,-14660,18005,18005,0,0,43,30,61,212,-56,3933,-1,-2,854,0,0,0,0,0,0,0,0
378435,-15948,-14664,18070,18070,0,0,44,28,61,206,-45,3955,-9,-5,853,0,0,0,0,0,0,0,0
379436,-15944,-14668,18135,18135,0,0,44,30,60,199,-41,3946,3,-9,853,0,0,0,0,0,0,0,0
380437,-15944,-14656,18200,18200,0,0,43,32,60,215,-32,3943,-10,-7,854,0,0,0,0,0,0,0,0
381438,-15952,-14656,18265,18265,0,0,41,31,61,208,-63,3941,7,-2,854,0,0,0,0,0,0,0,0
382439,-15936,-14680,18330,18330,0,0,41,32,63,191,-51,3935,-9,-5,854,0,0,0,0,0,0,0,0
383440,-15952,-14656,18395,18395,0,0,41,36,62,208,-67,3966,8,-8,853,0,0,0,0,0,0,0,0
384441,-15940,-14668,18460,18460,0,0,40,36,62,226,-53,3973,-11,-9,853,0,0,0,0,0,0,0,0
385442,-15944,-14660,18525,18525,0,0,41,35,64,211,-62,3964,8,3,854,0,0,0,0,0,0,0,0
386443,-15948,-14664,18590,18590,0,0,42,33,62,214,-53,3933,-7,-4,853,0,0,0,0,0,0,0,0
387444,-15936,-14656,18655,18655,0,0,42,30,60,220,-44,3979,8,-4,853,0,0,0,0,0,0,0,0
388445,-15952,-14652,18720,18720,0,0,42,31,64,194,-38,3988,-10,3,853,0,0,0,0,0,0,0,0
389446,-15944,-14664,18785,18785,0,0,43,33,62,197,-55,3964,7,-9,854,0,0,0,0,0,0,0,0
390447,-15952,-14660,18850,18850,0,0,41,32,64,207,-62,3930,-10,4,854,0,0,0,0,0,0,0,0
391448,-15944,-14660,18915,18915,0,0,40,33,62,213,-74,3918,7,5,853,0,0,0,0,0,0,0,0
392449,-15940,-14668,18980,18980,0,0,41,34,60,205,-68,3949,-9,0,854,0,0,0,0,0,0,0,0
393450,-15952,-14660,19045,19045,0,0,43,35,59,199,-71,3949,7,-4,851,0,0,0,0,0,0,0,0
394451,-15952,-14660,19110,19110,0,0,45,36,61,205,-57,3944,8,-2,853,0,0,0,0,0,0,0,0
395452,-15952,-14664,19175,19175,0,0,41,36,62,221,-58,3962,8,4,853,0,0,0,0,0,0,0,0
396453,-15948,-14664,19240,19240,0,0,40,36,59,219,-27,3932,-10,4,854,0,0,0,0,0,0,0,0
397454,-15940,-14660,19305,19305,0,0,42,35,60,215,-64,3951,8,-6,854,0,0,0,0,0,0,0,0
398455,-15936,-14656,19370,19370,0,0,44,36,59,235,-50,3960,-9,-7,854,0,0,0,0,0,0,0,0
399456,-15940,-14648,19435,19435,0,0,42,36,60,233,-42,3938,7,4,854,0,0,0,0,0,0,0,0
400457,-15952,-14664,19500,19500,0,0,40,35,61,223,-66,3956,-10,-3,854,0,0,0,0,0,0,0,0
401458,-15952,-14660,19565,19565,0,0,42,36,63,189,-54,3952,-5,-8,854,0,0,0,0,0,0,0,0
402459,-15952,-14652,19630,19630,0,0,43,34,61,201,-58,3956,4,-1,854,0,0,0,0,0,0,0,0
403460,-15944,-14664,19695,19695,0,0,44,31,62,228,-37,3959,-8,4,854,0,0,0,0,0,0,0,0
404461,-15948,-14656,19760,19760,0,0,45,29,62,225,-28,3930,8,-8,854,0,0,0,0,0,0,0,0
405462,-15948,-14656,19825,19825,0,0,47,29,60,225,-38,3930,-11,-8,854,0,0,0,0,0,0,0,0
406463,-15940,-14672,19890,19890,0,0,44,32,60,218,-39,3943,8,4,854,0,0,0,0,0,0,0,0
407464,-15940,-14668,19955,19955,0,0,43,33,58,208,-47,3918,-8,3,854,0,0,0,0,0,0,0,0
408465,-15956,-14660,20020,20020,0,0,43,32,59,226,-50,3929,8,-5,853,0,0,0,0,0,0,0,0
409466,-15944,-14660,20085,20085,0,0,44,30,59,217,-47,3966,-7,-8,854,0,0,0,0,0,0,0,0
410467,-15956,-14656,20150,20150,0,0,45,30,58,198,-47,3944,5,-2,851,0,0,0,0,0,0,0,0
411468,-15956,-14664,20215,20215,0,0,45,33,58,227,-35,3927,-5,5,854,0,0,0,0,0,0,0,0
412469,-15948,-14668,20280,20280,0,0,45,34,59,234,-19,3954,-8,-4,854,0,0,0,0,0,0,0,0
413470,-15944,-14656,20345,20345,0,0,44,34,60,220,-44,3959,8,-9,854,0,0,0,0,0,0,0,0
414471,-15944,-14660,20410,20410,0,0,42,30,59,203,-39,3923,-8,5,854,0,0,0,0,0,0,0,0
415472,-15956,-14656,20475,20475,0,0,45,27,59,239,-54,3933,5,-1,854,0,0,0,0,0,0,0,0
416473,-15940,-14660,20540,20540,0,0,47,30,60,237,-60,3926,-9,-9,853,0,0,0,0,0,0,0,0
417474,-15944,-14668,20605,20605,0,0,44,33,58,204,-63,3932,6,-3,853,0,0,0,0,0,0,0,0
418475,-15944,-14660,20670,20670,0,0,43,31,57,203,-52,3940,-9,5,854,0,0,0,0,0,0,0,0
419476,-15956,-14660,20735,20735,0,0,42,30,58,212,-45,3942,8,-6,853,0,0,0,0,0,0,0,0
420477,-15956,-14672,20800,20800,0,0,43,34,60,207,-55,3942,-10,-9,854,0,0,0,0,0,0,0,0
421478,-15944,-14664,20865,20865,0,0,45,37,60,212,-40,3938,-1,-4,854,0,0,0,0,0,0,0,0
422479,-15952,-14672,20930,20930,0,0,43,36,59,221,-55,3920,3,5,854,0,0,0,0,0,0,0,0
423480,-15940,-14660,20995,20995,0,0,40,33,60,206,-17,3945,-10,5,854,0,0,0,0,0,0,0,0
424481,-15932,-14652,21060,21060,0,0,40,30,61,216,-36,3966,6,-5,854,0,0,0,0,0,0,0,0
425482,-15952,-14656,21125,21125,0,0,45,34,62,219,-32,3941,-9,-9,854,0,0,0,0,0,0,0,0
426483,-15936,-14656,21190,21190,0,0,44,36,62,200,-59,3893,3,-6,854,0,0,0,0,0,0,0,0
427484,-15956,-14644,21255,21255,0,0,42,36,63,204,-47,3945,-3,5,852,0,0,0,0,0,0,0,0
428485,-15948,-14672,21320,21320,0,0,46,35,62,190,-54,3956,-2,-9,854,0,0,0,0,0,0,0,0
429486,-15936,-14656,21385,21385,0,0,46,33,61,224,-57,3933,8,-3,854,0,0,0,0,0,0,0,0
430487,-15952,-14668,21450,21450,0,0,43,33,61,241,-67,3980,-6,5,854,0,0,0,0,0,0,0,0
431488,-15944,-14652,21515,21515,0,0,42,34,63,222,-57,3973,7,-4,854,0,0,0,0,0,0,0,0
432489,-15956,-14652,21580,21580,0,0,42,36,61,208,-68,3979,-4,-6,854,0,0,0,0,0,0,0,0
433490,-15952,-14664,21645,21645,0,0,44,36,61,207,-49,3961,-3,-8,854,0,0,0,0,0,0,0,0
434491,-15944,-14664,21710,21710,0,0,45,36,62,219,-22,3993,3,3,854,0,0,0,0,0,0,0,0
435492,-15948,-14656,21775,21775,0,0,47,35,61,224,-32,4006,-9,5,854,0,0,0,0,0,0,0,0
436493,-15932,-14668,21840,21840,0,0,47,33,60,222,-46,3948,4,-1,854,0,0,0,0,0,0,0,0
437494,-15948,-14664,21905,21905,0,0,46,32,61,218,-47,3928,-6,-9,854,0,0,0,0,0,0,0,0
438495,-15940,-14652,21970,21970,0,0,42,32,61,222,-49,3940,-4,-9,854,0,0,0,0,0,0,0,0
439496,-15944,-14668,22035,22035,0,0,39,33,61,231,-63,3962,4,-3,854,0,0,0,0,0,0,0,0
440497,-15948,-14652,22100,22100,0,0,43,33,61,219,-61,3971,-2,4,854,0,0,0,0,0,0,0,0
441498,-15952,-14652,22165,22165,0,0,47,31,62,206,-47,3953,-3,4,854,0,0,0,0,0,0,0,0
442499,-15940,-14656,22230,22230,0,0,47,33,59,203,-36,3941,3,-6,854,0,0,0,0,0,0,0,0
443500,-15944,-14656,22295,22295,0,0,45,35,60,205,-38,3943,-11,-8,854,0,0,0,0,0,0,0,0
444501,-15956,-14668,22360,22360,0,0,42,37,59,192,-47,3951,8,-6,851,0,0,0,0,0,0,0,0
445502,-15940,-14660,22425,22425,0,0,42,36,61,218,-61,3927,6,5,854,0,0,0,0,0,0,0,0
446503,-15948,-14656,22490,22490,0,0,43,35,61,204,-53,3922,0,0,853,0,0,0,0,0,0,0,0
447504,-15944,-14656,22555,22555,0,0,44,34,61,206,-43,3952,-5,-2,854,0,0,0,0,0,0,0,0
448505,-15940,-14660,22620,22620,0,0,41,34,61,215,-50,3946,-4,-7,853,0,0,0,0,0,0,0,0
449506,-15944,-14660,22685,22685,0,0,41,33,61,201,-44,3954,-6,-9,854,0,0,0,0,0,0,0,0
450507,-15948,-14664,22750,22750,0,0,42,32,60,225,-55,3963,0,-8,854,0,0,0,0,0,0,0,0
451508,-15952,-14652,22815,22815,0,0,40,34,58,228,-70,3974,-3,2,854,0,0,0,0,0,0,0,0
452509,-15944,-14660,22880,22880,0,0,41,32,58,220,-49,3942,6,2,854,0,0,0,0,0,0,0,0
453510,-15952,-14652,22945,22945,0,0,42,31,60,193,-33,3934,-7,-5,854,0,0,0,0,0,0,0,0
454511,-15940,-14664,23010,23010,0,0,43,32,61,215,-61,3931,4,3,854,0,0,0,0,0,0,0,0
455512,-15952,-14672,23075,23075,0,0,42,34,59,217,-63,3950,-8,4,854,0,0,0,0,0,0,0,0
456513,-15940,-14672,23140,23140,0,0,43,33,57,209,-47,3930,3,-9,853,0,0,0,0,0,0,0,0
457514,-15952,-14680,23205,23205,0,0,42,33,60,213,-60,3908,-4,5,854,0,0,0,0,0,0,0,0
458515,-15944,-14668,23270,23270,0,0,44,36,61,205,-45,3938,2,4,854,0,0,0,0,0,0,0,0
459516,-15936,-14656,23335,23335,0,0,44,37,61,184,-67,3971,0,4,854,0,0,0,0,0,0,0,0
460517,-15944,-14648,23400,23400,0,0,42,36,61,173,-70,3921,-7,-5,854,0,0,0,0,0,0,0,0
461518,-15964,-14668,23465,23465,0,0,43,36,61,190,-57,3944,7,-10,851,0,0,0,0,0,0,0,0
462519,-15948,-14660,23530,23530,0,0,43,34,61,219,-40,3957,8,5,854,0,0,0,0,0,0,0,0
463520,-15948,-14660,23595,23595,0,0,43,34,59,227,-44,3916,-7,4,854,0,0,0,0,0,0,0,0
464521,-15952,-14664,23660,23660,0,0,41,35,59,216,-67,3928,6,3,854,0,0,0,0,0,0,0,0
465522,-15944,-14660,23725,23725,0,0,41,32,62,210,-60,3935,-10,-9,854,0,0,0,0,0,0,0,0
466523,-15944,-14660,23790,23790,0,0,42,32,61,217,-47,3940,6,-9,854,0,0,0,0,0,0,0,0
467524,-15948,-14660,23855,23855,0,0,42,33,63,205,-51,3948,-8,-8,854,0,0,0,0,0,0,0,0
468525,-15944,-14660,23920,23920,0,0,44,34,60,207,-47,3990,-2,-4,854,0,0,0,0,0,0,0,0
469526,-15952,-14652,23985,23985,0,0,45,33,57,194,-38,3962,5,-7,854,0,0,0,0,0,0,0,0
470527,-15948,-14656,24050,24050,0,0,43,35,61,205,-32,3947,-5,-9,854,0,0,0,0,0,0,0,0
471528,-15948,-14660,24115,24115,0,0,45,37,61,228,-32,3964,8,-8,854,0,0,0,0,0,0,0,0
472529,-15948,-14656,24180,24180,0,0,45,36,59,219,-36,3976,-9,-2,853,0,0,0,0,0,0,0,0
473530,-15944,-14668,24245,24245,0,0,47,35,58,193,-49,3962,7,1,854,0,0,0,0,0,0,0,0
474531,-15948,-14648,24310,24310,0,0,47,34,59,207,-53,3965,-8,1,854,0,0,0,0,0,0,0,0
475532,-15940,-14660,24375,24375,0,0,47,34,60,210,-53,3931,2,5,854,0,0,0,0,0,0,0,0
476533,-15956,-14664,24440,24440,0,0,48,34,59,209,-52,3949,-8,4,854,0,0,0,0,0,0,0,0
477534,-15952,-14660,24505,24505,0,0,49,33,62,206,-34,3974,4,4,853,0,0,0,0,0,0,0,0
478535,-15948,-14664,24570,24570,0,0,46,33,61,210,-62,3968,-2,-4,852,0,0,0,0,0,0,0,0
479536,-15948,-14660,24635,24635,0,0,45,34,58,225,-36,3956,5,-9,853,0,0,0,0,0,0,0,0
480537,-15940,-14664,24700,24700,0,0,46,33,60,222,-66,3934,5,-6,854,0,0,0,0,0,0,0,0
481538,-15956,-14664,24765,24765,0,0,47,32,62,215,-51,3929,5,2,854,0,0,0,0,0,0,0,0
482539,-15952,-14660,24830,24830,0,0,44,32,60,210,-38,3961,-10,5,854,0,0,0,0,0,0,0,0
483540,-15948,-14664,24895,24895,0,0,42,31,59,221,-36,3934,7,5,853,0,0,0,0,0,0,0,0
484541,-15936,-14660,24960,24960,0,0,45,30,60,223,-72,3945,-6,0,854,0,0,0,0,0,0,0,0
485542,-15944,-14656,25025,25025,0,0,45,29,60,223,-63,3932,8,-7,854,0,0,0,0,0,0,0,0
486543,-15948,-14668,25090,25090,0,0,43,28,61,219,-60,3939,-9,-5,854,0,0,0,0,0,0,0,0
487544,-15944,-14668,25155,25155,0,0,44,29,62,208,-32,3936,4,-9,854,0,0,0,0,0,0,0,0
488545,-15948,-14664,25220,25220,0,0,46,31,60,199,-19,3950,-10,-3,854,0,0,0,0,0,0,0,0
489546,-15940,-14656,25285,25285,0,0,43,32,59,196,-49,3960,7,-4,854,0,0,0,0,0,0,0,0
490547,-15944,-14664,25350,25350,0,0,42,31,61,221,-38,3949,-5,5,854,0,0,0,0,0,0,0,0
491548,-15936,-14656,25415,25415,0,0,42,31,61,209,-41,3950,7,1,854,0,0,0,0,0,0,0,0
492549,-15952,-14660,25480,25480,0,0,40,31,62,211,-42,3955,-9,-3,853,0,0,0,0,0,0,0,0
493550,-15948,-14664,25545,25545,0,0,42,32,63,226,-42,3967,8,-5,854,0,0,0,0,0,0,0,0
494551,-15952,-14656,25610,25610,0,0,44,31,63,206,-26,3950,-9,-9,853,0,0,0,0,0,0,0,0
495552,-15948,-14668,25675,25675,0,0,42,32,61,217,-41,3945,4,-9,851,0,0,0,0,0,0,0,0
496553,-15948,-14668,25740,25740,0,0,41,33,60,222,-66,3913,8,-6,854,0,0,0,0,0,0,0,0
497554,-15944,-14660,25805,25805,0,0,41,34,62,210,-45,3922,8,-2,854,0,0,0,0,0,0,0,0
498555,-15964,-14668,25870,25870,0,0,43,35,65,198,-40,3927,-9,-4,854,0,0,0,0,0,0,0,0
499556,-15940,-14660,25935,25935,0,0,42,38,62,210,-59,3935,6,-9,853,0,0,0,0,0,0,0,0
500557,-15944,-14656,26000,26000,0,0,40,38,60,221,-61,3926,-11,3,854,0,0,0,0,0,0,0,0
501558,-15948,-14660,26065,26065,0,0,41,35,59,227,-54,3908,6,4,854,0,0,0,0,0,0,0,0
502559,-15948,-14664,26130,26130,0,0,41,37,60,226,-56,3935,-5,3,854,0,0,0,0,0,0,0,0
503560,-15956,-14664,26195,26195,0,0,44,37,60,203,-48,3933,7,-5,854,0,0,0,0,0,0,0,0
504561,-15944,-14656,26260,26260,0,0,44,37,61,205,-52,3962,-8,-8,854,0,0,0,0,0,0,0,0
505562,-15936,-14664,26325,26325,0,0,42,39,59,182,-72,3935,1,-4,853,0,0,0,0,0,0,0,0
506563,-15948,-14652,26390,26390,0,0,40,35,58,199,-39,3911,-4,5,854,0,0,0,0,0,0,0,0
507564,-15940,-14660,26455,26455,0,0,40,33,62,197,-50,3964,-3,-1,854,0,0,0,0,0,0,0,0
508565,-15944,-14656,26520,26520,0,0,40,37,60,197,-51,3960,8,-9,853,0,0,0,0,0,0,0,0
509566,-15956,-14660,26585,26585,0,0,42,38,58,205,-58,3938,-11,1,854,0,0,0,0,0,0,0,0
510567,-15936,-14668,26650,26650,0,0,46,35,61,198,-40,3979,6,5,854,0,0,0,0,0,0,0,0
511568,-15948,-14664,26715,26715,0,0,44,36,61,226,-36,3984,-8,-3,854,0,0,0,0,0,0,0,0
512569,-15944,-14676,26780,26780,0,0,41,37,60,223,-63,3947,6,-8,851,0,0,0,0,0,0,0,0
513570,-15948,-14648,26845,26845,0,0,42,35,61,206,-47,3946,-8,3,853,0,0,0,0,0,0,0,0
514571,-15948,-14656,26910,26910,0,0,44,33,61,238,-51,3958,-7,3,853,0,0,0,0,0,0,0,0
515572,-15940,-14652,26975,26975,0,0,43,31,62,231,-39,3943,7,-7,853,0,0,0,0,0,0,0,0
516573,-15944,-14668,27040,27040,0,0,42,32,60,210,-39,3943,-10,-9,854,0,0,0,0,0,0,0,0
517574,-15944,-14652,27105,27105,0,0,42,32,58,225,-51,3926,8,-7,854,0,0,0,0,0,0,0,0
518575,-15944,-14652,27170,27170,0,0,42,32,58,225,-30,3949,-6,1,854,0,0,0,0,0,0,0,0
519576,-15940,-14672,27235,27235,0,0,42,34,60,215,-21,3978,1,3,854,0,0,0,0,0,0,0,0
520577,-15944,-14652,27300,27300,0,0,44,34,60,217,-59,3984,-8,5,853,0,0,0,0,0,0,0,0
521578,-15940,-14664,27365,27365,0,0,43,33,62,254,-65,3937,1,3,854,0,0,0,0,0,0,0,0
522579,-15948,-14660,27430,27430,0,0,44,35,60,251,-53,3938,-7,-9,854,0,0,0,0,0,0,0,0
523580,-15944,-14656,27495,27495,0,0,44,35,60,239,-56,3942,2,-9,854,0,0,0,0,0,0,0,0
524581,-15944,-14664,27560,27560,0,0,43,33,59,208,-59,3936,3,-8,854,0,0,0,0,0,0,0,0
525582,-15948,-14660,27625,27625,0,0,42,35,58,224,-43,3951,-3,5,854,0,0,0,0,0,0,0,0
526583,-15948,-14660,27690,27690,0,0,41,32,59,224,-19,3982,0,2,854,0,0,0,0,0,0,0,0
527584,-15940,-14660,27755,27755,0,0,43,30,63,225,-40,3925,-9,-4,854,0,0,0,0,0,0,0,0
528585,-15960,-14648,27820,27820,0,0,45,31,61,221,-44,3938,5,-5,854,0,0,0,0,0,0,0,0
529586,-15948,-14676,27885,27885,0,0,45,33,59,215,-64,3934,-10,-10,852,0,0,0,0,0,0,0,0
530587,-15932,-14664,27950,27950,0,0,45,34,60,216,-77,3959,-10,3,854,0,0,0,0,0,0,0,0
531588,-15948,-14660,28015,28015,0,0,44,34,61,220,-60,3937,-1,4,854,0,0,0,0,0,0,0,0
532589,-15944,-14660,28080,28080,0,0,44,34,58,231,-27,3954,-3,3,854,0,0,0,0,0,0,0,0
533590,-15944,-14652,28145,28145,0,0,45,35,58,241,-39,3943,-1,-4,853,0,0,0,0,0,0,0,0
534591,-15948,-14656,28210,28210,0,0,44,34,63,247,-40,3940,-6,0,854,0,0,0,0,0,0,0,0
535592,-15948,-14660,28275,28275,0,0,43,34,62,234,-40,3914,4,-1,853,0,0,0,0,0,0,0,0
536593,-15952,-14664,28340,28340,0,0,43,30,62,225,-31,3910,-8,4,854,0,0,0,0,0,0,0,0
537594,-15948,-14660,28405,28405,0,0,45,31,61,200,-69,3910,7,-9,854,0,0,0,0,0,0,0,0
538595,-15948,-14656,28470,28470,0,0,44,33,60,206,-53,3952,-10,3,853,0,0,0,0,0,0,0,0
539596,-15948,-14664,28535,28535,0,0,41,34,62,220,-31,3961,-1,3,854,0,0,0,0,0,0,0,0
540597,-15948,-14660,28600,28600,0,0,41,35,60,225,-13,3988,-2,-8,854,0,0,0,0,0,0,0,0
541598,-15944,-14656,28665,28665,0,0,42,35,59,221,-22,3937,1,1,854,0,0,0,0,0,0,0,0
542599,-15948,-14660,28730,28730,0,0,42,36,61,214,-52,3968,-4,-3,854,0,0,0,0,0,0,0,0
543600,-15948,-14660,28795,28795,0,0,44,35,61,215,-57,3970,4,2,854,0,0,0,0,0,0,0,0
544601,-15948,-14660,28860,28860,0,0,46,32,61,200,-37,3971,-9,4,853,0,0,0,0,0,0,0,0
545602,-15940,-14668,28925,28925,0,0,44,34,61,199,-37,3991,-3,-9,853,0,0,0,0,0,0,0,0
546603,-15944,-14660,28990,28990,0,0,43,34,59,221,-32,3966,0,-9,851,0,0,0,0,0,0,0,0
547604,-15944,-14672,29055,29055,0,0,43,36,57,223,-73,3959,-9,5,853,0,0,0,0,0,0,0,0
548605,-15952,-14648,29120,29120,0,0,42,35,61,205,-44,3982,-10,-4,854,0,0,0,0,0,0,0,0
549606,-15944,-14648,29185,29185,0,0,43,32,61,215,-34,3957,5,-7,854,0,0,0,0,0,0,0,0
550607,-15944,-14656,29250,29250,0,0,43,36,60,242,-53,3946,-8,-6,853,0,0,0,0,0,0,0,0
551608,-15944,-14672,29315,29315,0,0,44,39,60,220,-68,3951,-7,-1,854,0,0,0,0,0,0,0,0
552609,-15948,-14652,29380,29380,0,0,43,36,59,228,-75,3960,0,3,854,0,0,0,0,0,0,0,0
553610,-15948,-14660,29445,29445,0,0,43,35,58,233,-35,3970,-4,-4,853,0,0,0,0,0,0,0,0
554611,-15944,-14668,29510,29510,0,0,42,36,59,226,-56,3968,5,-7,854,0,0,0,0,0,0,0,0
555612,-15944,-14660,29575,29575,0,0,42,34,60,204,-46,3961,-5,-7,854,0,0,0,0,0,0,0,0
556613,-15956,-14664,29640,29640,0,0,41,32,60,191,-33,3952,2,-9,854,0,0,0,0,0,0,0,0
557614,-15948,-14656,29705,29705,0,0,41,33,61,213,-51,3974,-9,5,854,0,0,0,0,0,0,0,0
558615,-15944,-14660,29770,29770,0,0,42,31,62,228,-64,3930,6,-3,854,0,0,0,0,0,0,0,0
559616,-15940,-14660,29835,29835,0,0,43,31,60,231,-51,3929,-4,-3,854,0,0,0,0,0,0,0,0
560617,-15944,-14660,29900,29900,0,0,43,34,59,229,-48,3944,0,5,854,0,0,0,0,0,0,0,0
561618,-15944,-14656,29965,29965,0,0,44,36,58,203,-38,3928,7,-7,853,0,0,0,0,0,0,0,0
562619,-15944,-14664,30030,30030,0,0,42,36,58,199,-66,3945,-10,-4,853,0,0,0,0,0,0,0,0
563620,-15940,-14652,30095,30095,0,0,40,35,61,213,-69,3963,6,3,851,0,0,0,0,0,0,0,0
564621,-15944,-14664,30160,30160,0,0,41,33,61,224,-57,3949,-9,-9,853,0,0,0,0,0,0,0,0
565622,-15940,-14664,30225,30225,0,0,43,31,60,196,-68,3950,-10,-8,854,0,0,0,0,0,0,0,0
566623,-15948,-14660,30290,30290,0,0,43,33,60,219,-47,3925,8,1,854,0,0,0,0,0,0,0,0
567624,-15940,-14648,30355,30355,0,0,43,34,59,208,-38,3929,-7,3,853,0,0,0,0,0,0,0,0
568625,-15952,-14672,30420,30420,0,0,42,35,60,196,-40,3969,2,-9,854,0,0,0,0,0,0,0,0
569626,-15944,-14668,30485,30485,0,0,43,37,63,204,-44,3963,1,4,853,0,0,0,0,0,0,0,0
570627,-15948,-14656,30550,30550,0,0,43,35,62,210,-22,3940,2,-8,854,0,0,0,0,0,0,0,0
571628,-15948,-14660,30615,30615,0,0,46,34,61,214,-33,3949,-8,5,853,0,0,0,0,0,0,0,0
572629,-15944,-14664,30680,30680,0,0,46,35,60,200,-74,3933,2,-8,854,0,0,0,0,0,0,0,0
573630,-15960,-14648,30745,30745,0,0,45,37,57,209,-57,3952,-10,-9,854,0,0,0,0,0,0,0,0
574631,-15948,-14668,30810,30810,0,0,43,37,60,196,-43,3930,8,0,854,0,0,0,0,0,0,0,0
575632,-15948,-14660,30875,30875,0,0,46,37,62,199,-51,3938,-9,5,853,0,0,0,0,0,0,0,0
576633,-15952,-14664,30940,30940,0,0,46,35,63,223,-54,3935,4,2,854,0,0,0,0,0,0,0,0
577634,-15948,-14660,31005,31005,0,0,45,36,61,200,-47,3938,-10,-9,854,0,0,0,0,0,0,0,0
578635,-15952,-14668,31070,31070,0,0,43,36,60,201,-42,3963,6,-2,854,0,0,0,0,0,0,0,0
579636,-15940,-14668,31135,31135,0,0,42,35,60,206,-58,3958,-11,5,854,0,0,0,0,0,0,0,0
580637,-15944,-14668,31200,31200,0,0,42,33,61,180,-66,3928,7,-1,851,0,0,0,0,0,0,0,0
581638,-15948,-14656,31265,31265,0,0,44,34,62,203,-63,3952,-1,-9,854,0,0,0,0,0,0,0,0
582639,-15944,-14664,31330,31330,0,0,45,33,60,201,-66,3981,-10,-6,853,0,0,0,0,0,0,0,0
583640,-15948,-14664,31395,31395,0,0,45,30,58,210,-71,3955,7,-1,853,0,0,0,0,0,0,0,0
584641,-15940,-14664,31460,31460,0,0,46,31,60,216,-69,3933,-10,-2,854,0,0,0,0,0,0,0,0
585642,-15940,-14664,31525,31525,0,0,46,32,62,229,-52,3947,8,3,854,0,0,0,0,0,0,0,0
586643,-15948,-14652,31590,31590,0,0,48,35,62,203,-49,3964,-9,-9,854,0,0,0,0,0,0,0,0
587644,-15944,-14652,31655,31655,0,0,47,34,60,181,-23,3946,2,-3,853,0,0,0,0,0,0,0,0
588645,-15948,-14668,31720,31720,0,0,45,30,61,201,-31,3964,4,3,854,0,0,0,0,0,0,0,0
589646,-15948,-14664,31785,31785,0,0,45,30,61,220,-63,3966,-10,3,854,0,0,0,0,0,0,0,0
590647,-15948,-14656,31850,31850,0,0,46,28,59,205,-71,3957,4,-9,853,0,0,0,0,0,0,0,0
591648,-15940,-14660,31915,31915,0,0,46,29,61,226,-54,3965,-1,-9,854,0,0,0,0,0,0,0,0
592649,-15944,-14668,31980,31980,0,0,44,30,62,208,-41,3984,-6,-4,854,0,0,0,0,0,0,0,0
593650,-15940,-14668,32045,32045,0,0,44,29,61,219,-31,3947,-1,5,854,0,0,0,0,0,0,0,0
594651,-15952,-14656,32110,32110,0,0,43,30,61,198,-46,3930,-10,-3,854,0,0,0,0,0,0,0,0
595652,-15952,-14656,32175,32175,0,0,41,32,59,207,-50,3940,5,-9,853,0,0,0,0,0,0,0,0
596653,-15952,-14660,32240,32240,0,0,44,32,60,226,-48,3955,-9,1,854,0,0,0,0,0,0,0,0
597654,-15948,-14660,32305,32305,0,0,45,30,63,204,-33,3966,1,5,852,0,0,0,0,0,0,0,0
598655,-15940,-14664,32370,32370,0,0,42,31,62,192,-66,3942,-10,-10,853,0,0,0,0,0,0,0,0
599656,-15948,-14660,32435,32435,0,0,42,32,62,190,-60,3936,-10,0,854,0,0,0,0,0,0,0,0
600657,-15952,-14648,32500,32500,0,0,40,32,61,203,-65,3915,6,4,854,0,0,0,0,0,0,0,0
601658,-15936,-14664,32565,32565,0,0,38,32,62,193,-41,3915,-9,3,854,0,0,0,0,0,0,0,0
602659,-15952,-14660,32630,32630,0,0,40,31,61,195,-55,3944,5,-9,854,0,0,0,0,0,0,0,0
603660,-15932,-14660,32695,32695,0,0,43,33,60,194,-41,3973,-10,-10,854,0,0,0,0,0,0,0,0
604661,-15952,-14664,32760,32760,0,0,43,33,61,215,-52,3960,8,-5,854,0,0,0,0,0,0,0,0
605662,-15944,-14660,32825,32825,0,0,45,35,62,210,-38,3946,8,5,854,0,0,0,0,0,0,0,0
606663,-15952,-14660,32890,32890,0,0,41,35,61,223,-39,3953,-6,-2,854,0,0,0,0,0,0,0,0
607664,-15944,-14656,32955,32955,0,0,40,34,60,205,-38,3979,1,-9,854,0,0,0,0,0,0,0,0
608665,-15944,-14668,33020,33020,0,0,43,35,60,212,-53,3980,7,-9,854,0,0,0,0,0,0,0,0
609666,-15936,-14652,33085,33085,0,0,44,34,60,225,-53,3967,-9,-6,854,0,0,0,0,0,0,0,0
610667,-15948,-14652,33150,33150,0,0,44,34,60,224,-65,3944,7,5,854,0,0,0,0,0,0,0,0
611668,-15952,-14668,33215,33215,0,0,42,36,59,212,-50,3943,-2,1,854,0,0,0,0,0,0,0,0
612669,-15932,-14664,33280,33280,0,0,41,37,61,210,-45,3968,-9,-8,854,0,0,0,0,0,0,0,0
613670,-15948,-14672,33345,33345,0,0,42,38,63,210,-48,3958,7,-8,854,0,0,0,0,0,0,0,0
614671,-15948,-14652,33410,33410,0,0,42,37,61,201,-58,3954,-3,3,851,0,0,0,0,0,0,0,0
615672,-15944,-14676,33475,33475,0,0,43,34,60,218,-51,3965,-7,-3,853,0,0,0,0,0,0,0,0
616673,-15944,-14664,33540,33540,0,0,44,34,60,217,-52,3947,2,-8,854,0,0,0,0,0,0,0,0
617674,-15944,-14660,33605,33605,0,0,45,35,58,208,-59,3935,7,-8,854,0,0,0,0,0,0,0,0
618675,-15944,-14660,33670,33670,0,0,43,34,58,212,-64,3933,-10,3,854,0,0,0,0,0,0,0,0
619676,-15956,-14660,33735,33735,0,0,42,34,61,211,-71,3905,7,5,854,0,0,0,0,0,0,0,0
620677,-15952,-14660,33800,33800,0,0,41,35,61,219,-48,3952,-5,5,854,0,0,0,0,0,0,0,0
621678,-15948,-14648,33865,33865,0,0,41,34,59,214,-52,3927,-7,-3,854,0,0,0,0,0,0,0,0
622679,-15952,-14660,33930,33930,0,0,42,32,60,203,-52,3939,4,-9,854,0,0,0,0,0,0,0,0
623680,-15940,-14672,33995,33995,0,0,45,30,61,210,-41,3943,-10,-7,853,0,0,0,0,0,0,0,0
624681,-15952,-14656,34060,34060,0,0,44,32,59,223,-47,3922,0,3,853,0,0,0,0,0,0,0,0
625682,-15948,-14664,34125,34125,0,0,43,31,60,234,-39,3947,3,4,853,0,0,0,0,0,0,0,0
626683,-15940,-14648,34190,34190,0,0,42,33,59,206,-40,3958,-9,3,853,0,0,0,0,0,0,0,0
627684,-15948,-14664,34255,34255,0,0,44,31,59,218,-47,3969,-5,-9,854,0,0,0,0,0,0,0,0
628685,-15948,-14652,34320,34320,0,0,44,31,57,214,-55,3937,-6,-8,854,0,0,0,0,0,0,0,0
629686,-15944,-14656,34385,34385,0,0,45,34,57,227,-43,3924,-3,-5,853,0,0,0,0,0,0,0,0
630687,-15948,-14664,34450,34450,0,0,45,33,59,235,-47,3939,7,4,854,0,0,0,0,0,0,0,0
631688,-15948,-14664,34515,34515,0,0,46,33,59,230,-42,3933,3,-4,851,0,0,0,0,0,0,0,0
632689,-15952,-14660,34580,34580,0,0,45,33,60,203,-67,3922,-10,-9,853,0,0,0,0,0,0,0,0
633690,-15932,-14668,34645,34645,0,0,44,31,60,179,-42,3932,7,-9,854,0,0,0,0,0,0,0,0
634691,-15944,-14660,34710,34710,0,0,44,32,57,195,-52,3939,-3,-3,854,0,0,0,0,0,0,0,0
635692,-15948,-14652,34775,34775,0,0,45,30,59,206,-62,3952,-10,4,854,0,0,0,0,0,0,0,0
636693,-15944,-14664,34840,34840,0,0,44,28,60,221,-58,3964,5,2,853,0,0,0,0,0,0,0,0
637694,-15940,-14656,34905,34905,0,0,44,32,61,207,-57,3948,-6,-8,854,0,0,0,0,0,0,0,0
638695,-15940,-14656,34970,34970,0,0,45,33,60,198,-78,3971,-6,-9,853,0,0,0,0,0,0,0,0
639696,-15948,-14668,35035,35035,0,0,45,33,59,194,-61,3936,8,-1,854,0,0,0,0,0,0,0,0
640697,-15948,-14672,35100,35100,0,0,46,32,59,198,-47,3914,-10,5,854,0,0,0,0,0,0,0,0
641698,-15948,-14668,35165,35165,0,0,46,32,62,207,-49,3947,5,3,854,0,0,0,0,0,0,0,0
642699,-15944,-14672,35230,35230,0,0,45,34,63,215,-54,3952,0,-7,854,0,0,0,0,0,0,0,0
643700,-15944,-14652,35295,35295,0,0,46,35,61,191,-58,3917,0,4,854,0,0,0,0,0,0,0,0
644701,-15944,-14668,35360,35360,0,0,44,32,60,182,-49,3941,6,5,854,0,0,0,0,0,0,0,0
645702,-15952,-14668,35425,35425,0,0,42,31,62,210,-39,3945,-11,3,854,0,0,0,0,0,0,0,0
646703,-15948,-14652,35490,35490,0,0,42,32,61,227,-36,3961,8,-3,854,0,0,0,0,0,0,0,0
647704,-15952,-14660,35555,35555,0,0,44,34,61,219,-57,3955,-7,-4,853,0,0,0,0,0,0,0,0
648705,-15944,-14668,35620,35620,0,0,45,36,61,225,-24,3920,8,-8,852,0,0,0,0,0,0,0,0
649706,-15944,-14664,35685,35685,0,0,44,35,60,220,-48,3913,8,4,853,0,0,0,0,0,0,0,0
650707,-15952,-14664,35750,35750,0,0,45,37,60,221,-52,3988,-6,5,854,0,0,0,0,0,0,0,0
651708,-15940,-14648,35815,35815,0,0,47,37,61,225,-61,3962,-9,3,854,0,0,0,0,0,0,0,0
652709,-15948,-14664,35880,35880,0,0,44,33,63,204,-53,3952,8,-6,853,0,0,0,0,0,0,0,0
653710,-15952,-14656,35945,35945,0,0,41,33,64,216,-48,3947,-8,-9,853,0,0,0,0,0,0,0,0
654711,-15948,-14664,36010,36010,0,0,40,34,63,206,-48,3934,-4,-7,853,0,0,0,0,0,0,0,0
655712,-15948,-14656,36075,36075,0,0,42,35,60,216,-49,3937,-1,0,854,0,0,0,0,0,0,0,0
656713,-15948,-14668,36140,36140,0,0,42,34,60,199,-37,3943,-7,-3,854,0,0,0,0,0,0,0,0
657714,-15948,-14656,36205,36205,0,0,43,37,60,199,-52,3957,8,4,854,0,0,0,0,0,0,0,0
658715,-15936,-14668,36270,36270,0,0,43,37,61,212,-52,3959,-10,3,854,0,0,0,0,0,0,0,0
659716,-15948,-14656,36335,36335,0,0,42,33,60,244,-41,3969,5,-3,854,0,0,0,0,0,0,0,0
660717,-15940,-14660,36400,36400,0,0,39,32,60,246,-45,3969,-2,-10,854,0,0,0,0,0,0,0,0
661718,-15944,-14664,36465,36465,0,0,38,36,60,212,-47,3967,0,-4,854,0,0,0,0,0,0,0,0
662719,-15952,-14660,36530,36530,0,0,40,35,62,217,-54,3961,4,-3,854,0,0,0,0,0,0,0,0
663720,-15948,-14668,36595,36595,0,0,41,34,59,207,-38,3991,-10,2,854,0,0,0,0,0,0,0,0
664721,-15944,-14668,36660,36660,0,0,40,36,57,209,-49,3959,8,5,854,0,0,0,0,0,0,0,0
665722,-15948,-14656,36725,36725,0,0,42,32,60,191,-38,3902,-8,-3,851,0,0,0,0,0,0,0,0
666723,-15952,-14660,36790,36790,0,0,43,32,62,220,-29,3931,-10,-9,853,0,0,0,0,0,0,0,0
667724,-15948,-14664,36855,36855,0,0,43,33,60,225,-40,3944,8,-4,854,0,0,0,0,0,0,0,0
668725,-15944,-14660,36920,36920,0,0,43,33,59,220,-84,3946,-5,-3,854,0,0,0,0,0,0,0,0
669726,-15956,-14660,36985,36985,0,0,40,35,59,211,-66,3937,-4,5,854,0,0,0,0,0,0,0,0
670727,-15944,-14664,37050,37050,0,0,41,35,58,221,-62,3917,-4,4,853,0,0,0,0,0,0,0,0
671728,-15952,-14668,37115,37115,0,0,42,33,58,194,-57,3916,-9,1,854,0,0,0,0,0,0,0,0
672729,-15944,-14664,37180,37180,0,0,43,32,60,190,-38,3934,8,-7,853,0,0,0,0,0,0,0,0
673730,-15948,-14652,37245,37245,0,0,45,34,60,179,-52,3946,-10,-8,854,0,0,0,0,0,0,0,0
674731,-15948,-14656,37310,37310,0,0,44,33,60,213,-60,3934,8,4,854,0,0,0,0,0,0,0,0
675732,-15952,-14660,37375,37375,0,0,46,35,60,223,-61,3973,-9,-5,854,0,0,0,0,0,0,0,0
676733,-15940,-14660,37440,37440,0,0,44,36,59,233,-41,3964,7,5,854,0,0,0,0,0,0,0,0
677734,-15948,-14660,37505,37505,0,0,43,37,63,229,-45,3952,-8,-1,854,0,0,0,0,0,0,0,0
678735,-15948,-14664,37570,37570,0,0,42,36,61,210,-56,3941,7,-9,853,0,0,0,0,0,0,0,0
679736,-15944,-14660,37635,37635,0,0,40,35,60,214,-71,3925,-10,4,854,0,0,0,0,0,0,0,0
680737,-15944,-14672,37700,37700,0,0,42,35,61,213,-41,3925,7,5,853,0,0,0,0,0,0,0,0
681738,-15936,-14644,37765,37765,0,0,43,34,62,216,-27,3919,-9,-5,854,0,0,0,0,0,0,0,0
682739,-15944,-14660,37830,37830,0,0,44,34,61,203,-60,3941,-10,-4,852,0,0,0,0,0,0,0,0
683740,-15948,-14664,37895,37895,0,0,45,33,61,218,-60,3944,-4,5,853,0,0,0,0,0,0,0,0
684741,-15948,-14656,37960,37960,0,0,46,34,60,216,-45,3996,5,0,854,0,0,0,0,0,0,0,0
685742,-15940,-14656,38025,38025,0,0,44,32,60,208,-30,3987,-10,-9,853,0,0,0,0,0,0,0,0
686743,-15944,-14648,38090,38090,0,0,43,33,58,225,-34,3943,8,-6,854,0,0,0,0,0,0,0,0
687744,-15944,-14668,38155,38155,0,0,45,32,59,195,-29,3952,-9,5,853,0,0,0,0,0,0,0,0
688745,-15948,-14656,38220,38220,0,0,44,34,61,225,-41,3940,-2,0,854,0,0,0,0,0,0,0,0
689746,-15944,-14660,38285,38285,0,0,44,34,64,223,-23,3956,-2,-6,854,0,0,0,0,0,0,0,0
690747,-15952,-14660,38350,38350,0,0,44,34,63,220,-30,3902,4,-7,854,0,0,0,0,0,0,0,0
691748,-15944,-14656,38415,38415,0,0,45,34,61,212,-70,3932,1,5,854,0,0,0,0,0,0,0,0
692749,-15948,-14672,38480,38480,0,0,46,34,61,227,-37,3932,-1,3,854,0,0,0,0,0,0,0,0
693750,-15956,-14664,38545,38545,0,0,42,32,61,224,-36,3915,-3,-9,854,0,0,0,0,0,0,0,0
694751,-15948,-14652,38610,38610,0,0,43,33,62,225,-46,3944,-8,1,854,0,0,0,0,0,0,0,0
695752,-15940,-14656,38675,38675,0,0,44,34,61,217,-66,3949,1,5,854,0,0,0,0,0,0,0,0
696753,-15944,-14652,38740,38740,0,0,43,33,59,210,-49,3960,6,-2,853,0,0,0,0,0,0,0,0
697754,-15948,-14664,38805,38805,0,0,45,33,61,212,-58,3969,-9,-8,853,0,0,0,0,0,0,0,0
698755,-15948,-14668,38870,38870,0,0,47,32,61,222,-62,3971,7,-8,854,0,0,0,0,0,0,0,0
699756,-15952,-14656,38935,38935,0,0,46,30,62,231,-73,3952,-8,5,851,0,0,0,0,0,0,0,0
700757,-15944,-14656,39000,39000,0,0,44,29,64,245,-77,3932,-9,-8,853,0,0,0,0,0,0,0,0
701758,-15944,-14660,39065,39065,0,0,44,30,60,241,-65,3946,8,-10,853,0,0,0,0,0,0,0,0
702759,-15948,-14664,39130,39130,0,0,45,31,58,221,-58,3952,-4,-5,854,0,0,0,0,0,0,0,0
703760,-15948,-14660,39195,39195,0,0,43,33,61,199,-82,3968,7,1,854,0,0,0,0,0,0,0,0
704761,-15948,-14664,39260,39260,0,0,43,37,59,213,-54,3968,-5,-7,853,0,0,0,0,0,0,0,0
705762,-15944,-14652,39325,39325,0,0,41,34,62,200,-63,3960,-6,-9,853,0,0,0,0,0,0,0,0
706763,-15940,-14652,39390,39390,0,0,40,29,61,223,-73,3933,-1,-2,854,0,0,0,0,0,0,0,0
707764,-15944,-14660,39455,39455,0,0,42,31,61,214,-50,3966,-7,4,853,0,0,0,0,0,0,0,0
708765,-15956,-14664,39520,39520,0,0,44,34,61,207,-48,3961,4,-9,854,0,0,0,0,0,0,0,0
709766,-15936,-14648,39585,39585,0,0,41,35,61,212,-28,3949,2,-8,854,0,0,0,0,0,0,0,0
710767,-15940,-14648,39650,39650,0,0,42,34,60,206,-23,3943,-9,-9,854,0,0,0,0,0,0,0,0
711768,-15948,-14656,39715,39715,0,0,42,34,62,209,-33,3928,8,-5,854,0,0,0,0,0,0,0,0
712769,-15944,-14664,39780,39780,0,0,43,37,61,218,-67,3945,-6,4,854,0,0,0,0,0,0,0,0
713770,-15952,-14664,39845,39845,0,0,44,37,60,211,-52,3973,1,5,854,0,0,0,0,0,0,0,0
714771,-15948,-14660,39910,39910,0,0,43,35,59,199,-24,3959,-7,0,854,0,0,0,0,0,0,0,0
715772,-15944,-14656,39975,39975,0,0,42,32,60,212,-42,3983,0,-9,854,0,0,0,0,0,0,0,0
716773,-15936,-14676,40040,40040,0,0,43,33,61,196,-58,3949,9,-8,851,0,0,0,0,0,0,0,0
717774,-15960,-14656,40105,40105,0,0,43,36,61,200,-57,3959,8,5,853,0,0,0,0,0,0,0,0
718775,-15952,-14660,40170,40170,0,0,41,36,60,220,-48,3928,-11,-1,854,0,0,0,0,0,0,0,0
719776,-15952,-14656,40235,40235,0,0,43,35,61,221,-74,3934,8,-5,853,0,0,0,0,0,0,0,0
720777,-15948,-14648,40300,40300,0,0,44,37,58,232,-49,3958,-8,5,854,0,0,0,0,0,0,0,0
721778,-15944,-14648,40365,40365,0,0,43,35,57,246,-50,3921,7,-2,854,0,0,0,0,0,0,0,0
722779,-15944,-14652,40430,40430,0,0,42,31,59,238,-46,3920,-3,-8,853,0,0,0,0,0,0,0,0
723780,-15948,-14656,40495,40495,0,0,43,33,62,213,-53,3966,-6,-3,854,0,0,0,0,0,0,0,0
724781,-15948,-14656,40560,40560,0,0,43,35,60,229,-36,3943,1,4,854,0,0,0,0,0,0,0,0
725782,-15948,-14672,40625,40625,0,0,43,33,56,232,-36,3949,-5,-7,853,0,0,0,0,0,0,0,0
726783,-15944,-14664,40690,40690,0,0,44,33,59,222,-39,3950,2,-1,853,0,0,0,0,0,0,0,0
727784,-15952,-14648,40755,40755,0,0,43,31,60,227,-74,3958,0,4,853,0,0,0,0,0,0,0,0
728785,-15952,-14664,40820,40820,0,0,43,33,59,209,-52,3976,3,-2,854,0,0,0,0,0,0,0,0
729786,-15948,-14664,40885,40885,0,0,42,32,60,209,-35,3987,-10,-9,853,0,0,0,0,0,0,0,0
730787,-15944,-14652,40950,40950,0,0,40,34,61,240,-21,3963,6,2,854,0,0,0,0,0,0,0,0
731788,-15940,-14660,41015,41015,0,0,43,35,59,238,-18,3987,-11,5,853,0,0,0,0,0,0,0,0
732789,-15948,-14656,41080,41080,0,0,46,32,60,201,-55,3984,7,-5,854,0,0,0,0,0,0,0,0
733790,-15948,-14656,41145,41145,0,0,46,33,59,200,-53,3952,7,-4,851,0,0,0,0,0,0,0,0
734791,-15940,-14652,41210,41210,0,0,45,34,57,208,-56,3974,0,4,852,0,0,0,0,0,0,0,0
735792,-15944,-14664,41275,41275,0,0,46,33,57,222,-86,3968,-8,5,854,0,0,0,0,0,0,0,0
736793,-15944,-14672,41340,41340,0,0,46,31,59,195,-81,3963,8,5,853,0,0,0,0,0,0,0,0
737794,-15952,-14656,41405,41405,0,0,43,31,60,202,-66,3960,-9,4,853,0,0,0,0,0,0,0,0
738795,-15952,-14668,41470,41470,0,0,45,32,62,198,-67,3938,0,4,853,0,0,0,0,0,0,0,0
739796,-15952,-14668,41535,41535,0,0,45,32,61,224,-77,3948,-3,-7,853,0,0,0,0,0,0,0,0
740797,-15944,-14664,41600,41600,0,0,45,32,59,216,-55,3911,-6,-9,854,0,0,0,0,0,0,0,0
741798,-15948,-14668,41665,41665,0,0,44,31,60,210,-49,3911,8,-8,853,0,0,0,0,0,0,0,0
742799,-15948,-14648,41730,41730,0,0,44,32,60,221,-64,3935,-10,1,853,0,0,0,0,0,0,0,0
743800,-15944,-14648,41795,41795,0,0,45,33,62,220,-63,3944,5,5,854,0,0,0,0,0,0,0,0
744801,-15948,-14656,41860,41860,0,0,47,31,60,224,-51,3946,-7,-4,854,0,0,0,0,0,0,0,0
745802,-15940,-14664,41925,41925,0,0,45,31,59,236,-45,3965,5,-9,853,0,0,0,0,0,0,0,0
746803,-15944,-14660,41990,41990,0,0,45,31,60,230,-9,3949,-2,-9,853,0,0,0,0,0,0,0,0
747804,-15956,-14656,42055,42055,0,0,46,32,62,218,-30,3948,-9,-3,854,0,0,0,0,0,0,0,0
748805,-15948,-14648,42120,42120,0,0,44,33,62,205,-59,3919,5,5,854,0,0,0,0,0,0,0,0
749806,-15948,-14660,42185,42185,0,0,42,34,64,197,-72,3943,-11,3,853,0,0,0,0,0,0,0,0
750807,-15952,-14652,42250,42250,0,0,44,34,61,215,-38,3959,7,-8,851,0,0,0,0,0,0,0,0
751808,-15948,-14660,42315,42315,0,0,45,34,59,223,-57,3924,8,5,852,0,0,0,0,0,0,0,0
752809,-15956,-14660,42380,42380,0,0,45,33,60,234,-67,3953,-11,5,854,0,0,0,0,0,0,0,0
753810,-15948,-14660,42445,42445,0,0,44,35,62,233,-55,3931,8,-9,854,0,0,0,0,0,0,0,0
754811,-15956,-14652,42510,42510,0,0,43,36,62,219,-57,3934,-9,-6,853,0,0,0,0,0,0,0,0
755812,-15948,-14660,42575,42575,0,0,42,37,61,233,-65,3956,7,4,853,0,0,0,0,0,0,0,0
756813,-15940,-14652,42640,42640,0,0,42,38,60,227,-47,3952,-9,0,853,0,0,0,0,0,0,0,0
757814,-15948,-14668,42705,42705,0,0,42,37,60,226,-17,3948,5,-9,854,0,0,0,0,0,0,0,0
758815,-15940,-14664,42770,42770,0,0,44,36,63,215,-37,3934,-10,-8,854,0,0,0,0,0,0,0,0
759816,-15940,-14660,42835,42835,0,0,44,35,65,223,-49,3947,-2,-1,853,0,0,0,0,0,0,0,0
760817,-15944,-14656,42900,42900,0,0,43,36,62,234,-59,3947,-1,5,854,0,0,0,0,0,0,0,0
761818,-15944,-14664,42965,42965,0,0,43,35,62,221,-49,3980,-10,2,854,0,0,0,0,0,0,0,0
762819,-15948,-14660,43030,43030,0,0,43,36,63,236,-26,3947,7,-9,853,0,0,0,0,0,0,0,0
763820,-15948,-14672,43095,43095,0,0,42,36,63,212,-40,3929,-10,0,853,0,0,0,0,0,0,0,0
764821,-15952,-14664,43160,43160,0,0,43,34,63,198,-27,3943,2,5,854,0,0,0,0,0,0,0,0
765822,-15952,-14660,43225,43225,0,0,46,33,62,208,-43,3969,-1,-1,853,0,0,0,0,0,0,0,0
766823,-15952,-14660,43290,43290,0,0,46,35,60,214,-60,4001,4,-9,853,0,0,0,0,0,0,0,0
767824,-15948,-14652,43355,43355,0,0,45,38,60,214,-57,3945,-10,0,851,0,0,0,0,0,0,0,0
768825,-15944,-14672,43420,43420,0,0,43,34,60,225,-48,3953,-1,1,851,0,0,0,0,0,0,0,0
769826,-15956,-14660,43485,43485,0,0,46,33,61,225,-58,3958,3,-9,854,0,0,0,0,0,0,0,0
770827,-15948,-14668,43550,43550,0,0,44,35,60,224,-78,3972,4,-8,853,0,0,0,0,0,0,0,0
771828,-15948,-14652,43615,43615,0,0,40,33,60,228,-53,3953,-10,3,853,0,0,0,0,0,0,0,0
772829,-15940,-14672,43680,43680,0,0,43,30,60,230,-75,3960,6,3,853,0,0,0,0,0,0,0,0
773830,-15952,-14656,43745,43745,0,0,42,29,58,225,-68,3934,-10,-1,854,0,0,0,0,0,0,0,0
774831,-15944,-14648,43810,43810,0,0,44,31,60,208,-51,3946,8,-10,854,0,0,0,0,0,0,0,0
775832,-15948,-14648,43875,43875,0,0,45,32,62,202,-71,3945,-9,-1,853,0,0,0,0,0,0,0,0
776833,-15956,-14668,43940,43940,0,0,46,34,59,232,-39,3918,1,3,854,0,0,0,0,0,0,0,0
777834,-15944,-14668,44005,44005,0,0,44,33,59,238,-68,3936,7,4,854,0,0,0,0,0,0,0,0
778835,-15952,-14660,44070,44070,0,0,43,34,58,218,-78,3897,-11,-7,853,0,0,0,0,0,0,0,0
779836,-15948,-14660,44135,44135,0,0,45,35,59,210,-49,3931,5,-9,853,0,0,0,0,0,0,0,0
780837,-15952,-14648,44200,44200,0,0,43,35,60,191,-42,3959,-6,-4,853,0,0,0,0,0,0,0,0
781838,-15952,-14660,44265,44265,0,0,43,30,60,191,-33,3920,7,5,854,0,0,0,0,0,0,0,0
782839,-15944,-14664,44330,44330,0,0,44,31,59,183,-44,3940,-6,5,853,0,0,0,0,0,0,0,0
783840,-15940,-14656,44395,44395,0,0,43,32,61,196,-58,3927,2,-4,854,0,0,0,0,0,0,0,0
784841,-15940,-14656,44460,44460,0,0,43,34,61,237,-63,3941,-8,-6,851,0,0,0,0,0,0,0,0
785842,-15948,-14664,44525,44525,0,0,43,35,60,201,-68,3957,-8,5,851,0,0,0,0,0,0,0,0
786843,-15948,-14656,44590,44590,0,0,43,36,61,213,-48,3954,3,-2,854,0,0,0,0,0,0,0,0
787844,-15936,-14648,44655,44655,0,0,44,34,61,225,-54,3927,1,-9,854,0,0,0,0,0,0,0,0
788845,-15948,-14664,44720,44720,0,0,43,33,59,229,-52,3927,-1,-8,854,0,0,0,0,0,0,0,0
789846,-15952,-14660,44785,44785,0,0,41,34,58,188,-66,3930,1,1,854,0,0,0,0,0,0,0,0
790847,-15948,-14660,44850,44850,0,0,42,36,60,204,-39,3938,-9,5,853,0,0,0,0,0,0,0,0
791848,-15940,-14656,44915,44915,0,0,42,37,63,223,-43,3960,8,4,853,0,0,0,0,0,0,0,0
792849,-15940,-14660,44980,44980,0,0,42,35,62,204,-21,3952,-10,-2,854,0,0,0,0,0,0,0,0
793850,-15940,-14660,45045,45045,0,0,44,34,61,213,-3,3956,8,-9,854,0,0,0,0,0,0,0,0
794851,-15956,-14668,45110,45110,0,0,44,32,61,208,-46,3962,-9,-9,853,0,0,0,0,0,0,0,0
795852,-15940,-14660,45175,45175,0,0,44,34,60,185,-66,3916,2,0,853,0,0,0,0,0,0,0,0
796853,-15948,-14660,45240,45240,0,0,43,35,62,210,-57,3945,-5,4,853,0,0,0,0,0,0,0,0
797854,-15956,-14672,45305,45305,0,0,43,34,63,234,-45,3946,-4,-3,854,0,0,0,0,0,0,0,0
798855,-15952,-14656,45370,45370,0,0,42,34,64,229,-68,3947,5,-9,854,0,0,0,0,0,0,0,0
799856,-15952,-14676,45435,45435,0,0,42,35,63,227,-71,3945,-6,-2,853,0,0,0,0,0,0,0,0
800857,-15948,-14656,45500,45500,0,0,44,34,60,222,-77,3960,7,-8,854,0,0,0,0,0,0,0,0
801858,-15952,-14668,45565,45565,0,0,46,34,61,214,-58,3960,0,-5,852,0,0,0,0,0,0,0,0
802859,-15952,-14652,45630,45630,0,0,44,34,64,222,-55,3977,0,-9,852,0,0,0,0,0,0,0,0
803860,-15948,-14664,45695,45695,0,0,45,36,62,220,-63,3902,-7,4,854,0,0,0,0,0,0,0,0
804861,-15948,-14664,45760,45760,0,0,44,34,60,225,-51,3940,0,-8,853,0,0,0,0,0,0,0,0
805862,-15948,-14664,45825,45825,0,0,42,34,59,218,-42,3958,-6,-9,853,0,0,0,0,0,0,0,0
806863,-15944,-14676,45890,45890,0,0,42,34,59,220,-32,3935,1,-10,853,0,0,0,0,0,0,0,0
807864,-15944,-14664,45955,45955,0,0,45,34,63,215,-30,3957,0,-5,854,0,0,0,0,0,0,0,0
808865,-15940,-14672,46020,46020,0,0,44,35,65,235,-51,3972,-2,-1,853,0,0,0,0,0,0,0,0
809866,-15956,-14668,46085,46085,0,0,44,32,61,223,-56,3971,0,0,853,0,0,0,0,0,0,0,0
810867,-15944,-14668,46150,46150,0,0,41,32,59,234,-83,3938,-1,5,854,0,0,0,0,0,0,0,0
811868,-15940,-14656,46215,46215,0,0,42,31,60,209,-54,3944,-9,0,854,0,0,0,0,0,0,0,0
812869,-15952,-14656,46280,46280,0,0,43,34,60,201,-41,3979,8,4,853,0,0,0,0,0,0,0,0
813870,-15948,-14660,46345,46345,0,0,45,33,61,210,-38,3936,-11,-8,853,0,0,0,0,0,0,0,0
814871,-15944,-14652,46410,46410,0,0,45,32,61,214,-39,3959,7,-5,854,0,0,0,0,0,0,0,0
815872,-15948,-14660,46475,46475,0,0,45,30,61,220,-44,3948,-10,-8,854,0,0,0,0,0,0,0,0
816873,-15948,-14660,46540,46540,0,0,45,31,59,225,-35,3935,8,0,854,0,0,0,0,0,0,0,0
817874,-15952,-14660,46605,46605,0,0,45,33,59,215,-60,3976,-7,5,854,0,0,0,0,0,0,0,0
818875,-15944,-14672,46670,46670,0,0,43,36,57,217,-53,3947,-6,1,851,0,0,0,0,0,0,0,0
819876,-15948,-14664,46735,46735,0,0,43,35,58,229,-58,3938,-3,-9,851,0,0,0,0,0,0,0,0
820877,-15944,-14664,46800,46800,0,0,42,34,63,205,-55,3916,8,-9,854,0,0,0,0,0,0,0,0
821878,-15940,-14672,46865,46865,0,0,42,35,62,212,-39,3935,-8,-6,854,0,0,0,0,0,0,0,0
822879,-15944,-14664,46930,46930,0,0,39,35,59,214,-46,3966,4,-1,854,0,0,0,0,0,0,0,0
823880,-15944,-14652,46995,46995,0,0,42,34,59,215,-57,3964,-5,3,854,0,0,0,0,0,0,0,0
824881,-15952,-14664,47060,47060,0,0,44,34,58,210,-55,3924,-6,-2,854,0,0,0,0,0,0,0,0
825882,-15944,-14664,47125,47125,0,0,45,33,58,218,-42,3926,8,-7,854,0,0,0,0,0,0,0,0
826883,-15948,-14656,47190,47190,0,0,43,34,59,232,-49,3960,-10,-2,853,0,0,0,0,0,0,0,0
827884,-15944,-14664,47255,47255,0,0,42,36,62,203,-41,3975,7,-4,854,0,0,0,0,0,0,0,0
828885,-15948,-14672,47320,47320,0,0,40,37,63,211,-44,3947,3,1,854,0,0,0,0,0,0,0,0
829886,-15952,-14664,47385,47385,0,0,41,37,60,214,-64,3959,-9,-4,854,0,0,0,0,0,0,0,0
830887,-15948,-14664,47450,47450,0,0,41,37,60,211,-62,3949,8,2,854,0,0,0,0,0,0,0,0
831888,-15944,-14660,47515,47515,0,0,42,36,58,196,-54,3978,-5,-4,853,0,0,0,0,0,0,0,0
832889,-15936,-14656,47580,47580,0,0,42,34,58,194,-54,3973,6,-9,853,0,0,0,0,0,0,0,0
833890,-15944,-14660,47645,47645,0,0,44,36,59,213,-51,3956,-7,-8,854,0,0,0,0,0,0,0,0
834891,-15944,-14660,47710,47710,0,0,43,37,62,234,-58,3962,2,1,853,0,0,0,0,0,0,0,0
835892,-15944,-14640,47775,47775,0,0,42,34,63,229,-42,3944,-10,4,851,0,0,0,0,0,0,0,0
836893,-15948,-14672,47840,47840,0,0,43,33,62,209,-46,3953,-8,0,851,0,0,0,0,0,0,0,0
837894,-15948,-14656,47905,47905,0,0,44,34,61,186,-63,3964,-4,-5,853,0,0,0,0,0,0,0,0
838895,-15948,-14660,47970,47970,0,0,44,34,61,202,-30,3935,5,-9,854,0,0,0,0,0,0,0,0
839896,-15956,-14660,48035,48035,0,0,42,33,58,221,-42,3958,-8,-9,853,0,0,0,0,0,0,0,0
840897,-15948,-14660,48100,48100,0,0,43,34,60,238,-65,3936,-5,-6,853,0,0,0,0,0,0,0,0
841898,-15936,-14664,48165,48165,0,0,44,32,62,235,-62,3926,3,3,853,0,0,0,0,0,0,0,0
842899,-15944,-14664,48230,48230,0,0,45,33,63,228,-60,3943,-10,4,854,0,0,0,0,0,0,0,0
843900,-15940,-14644,48295,48295,0,0,44,33,61,226,-61,3953,7,5,853,0,0,0,0,0,0,0,0
844901,-15952,-14664,48360,48360,0,0,43,35,58,205,-24,3982,-8,-4,853,0,0,0,0,0,0,0,0
845902,-15948,-14660,48425,48425,0,0,44,36,55,228,-17,3982,-7,-7,853,0,0,0,0,0,0,0,0
846903,-15948,-14660,48490,48490,0,0,44,36,59,209,-40,3946,7,-9,854,0,0,0,0,0,0,0,0
847904,-15948,-14652,48555,48555,0,0,44,36,62,208,-28,3944,-8,-4,853,0,0,0,0,0,0,0,0
848905,-15940,-14660,48620,48620,0,0,44,35,64,216,-24,3919,-6,-2,853,0,0,0,0,0,0,0,0
849906,-15944,-14652,48685,48685,0,0,45,34,61,209,-48,3943,8,5,853,0,0,0,0,0,0,0,0
850907,-15944,-14660,48750,48750,0,0,44,33,61,208,-47,3970,-10,1,853,0,0,0,0,0,0,0,0
851908,-15940,-14652,48815,48815,0,0,41,34,65,189,-47,3935,4,0,854,0,0,0,0,0,0,0,0
852909,-15952,-14664,48880,48880,0,0,43,31,63,225,-21,3923,-6,-9,852,0,0,0,0,0,0,0,0
853910,-15936,-14652,48945,48945,0,0,44,30,61,225,-37,3935,4,-4,852,0,0,0,0,0,0,0,0
854911,-15948,-14652,49010,49010,0,0,43,33,61,203,-45,3945,-10,-9,854,0,0,0,0,0,0,0,0
855912,-15940,-14672,49075,49075,0,0,44,32,61,200,-52,3972,4,5,853,0,0,0,0,0,0,0,0
856913,-15944,-14672,49140,49140,0,0,42,32,60,202,-28,3966,-3,3,854,0,0,0,0,0,0,0,0
857914,-15944,-14656,49205,49205,0,0,44,33,60,211,-43,3988,-10,5,854,0,0,0,0,0,0,0,0
858915,-15940,-14664,49270,49270,0,0,45,36,62,218,-56,3983,4,-9,853,0,0,0,0,0,0,0,0
859916,-15940,-14652,49335,49335,0,0,45,33,63,217,-19,3958,3,-7,853,0,0,0,0,0,0,0,0
860917,-15956,-14656,49400,49400,0,0,42,33,60,208,-44,3941,-7,-9,853,0,0,0,0,0,0,0,0
861918,-15948,-14672,49465,49465,0,0,44,34,60,234,-58,3941,-10,-1,854,0,0,0,0,0,0,0,0
862919,-15952,-14652,49530,49530,0,0,45,34,60,205,-64,3941,7,2,853,0,0,0,0,0,0,0,0
863920,-15948,-14664,49595,49595,0,0,44,34,60,222,-52,3934,-2,-4,854,0,0,0,0,0,0,0,0
864921,-15952,-14664,49660,49660,0,0,42,32,60,229,-57,3960,-9,-3,853,0,0,0,0,0,0,0,0
865922,-15952,-14664,49725,49725,0,0,43,33,62,221,-68,3952,8,-9,853,0,0,0,0,0,0,0,0
866923,-15948,-14660,49790,49790,0,0,44,31,63,222,-41,3957,-2,-8,854,0,0,0,0,0,0,0,0
867924,-15948,-14664,49855,49855,0,0,44,31,61,202,-32,3961,-11,-2,854,0,0,0,0,0,0,0,0
868925,-15952,-14660,49920,49920,0,0,44,31,59,237,-44,3920,7,5,853,0,0,0,0,0,0,0,0
869926,-15944,-14652,49985,49985,0,0,41,34,58,232,-69,3907,-9,5,851,0,0,0,0,0,0,0,0
870927,-15948,-14660,50050,50050,0,0,41,35,61,212,-36,3941,-5,3,851,0,0,0,0,0,0,0,0
871928,-15948,-14656,50115,50115,0,0,41,35,61,211,-38,3936,2,-1,853,0,0,0,0,0,0,0,0
872929,-15944,-14660,50180,50180,0,0,40,35,62,201,-37,3980,5,-3,853,0,0,0,0,0,0,0,0
873930,-15944,-14660,50245,50245,0,0,41,34,60,232,-52,3959,-9,-9,853,0,0,0,0,0,0,0,0
874931,-15944,-14652,50310,50310,0,0,42,35,60,214,-70,3976,4,-7,853,0,0,0,0,0,0,0,0
875932,-15940,-14668,50375,50375,0,0,44,37,60,224,-51,3961,1,-9,854,0,0,0,0,0,0,0,0
876933,-15948,-14664,50440,50440,0,0,43,38,60,233,-40,3969,-10,-1,854,0,0,0,0,0,0,0,0
877934,-15948,-14660,50505,50505,0,0,43,34,58,229,-46,3951,8,6,853,0,0,0,0,0,0,0,0
878935,-15944,-14664,50570,50570,0,0,42,32,58,249,-57,3903,-9,-9,854,0,0,0,0,0,0,0,0
879936,-15944,-14664,50635,50635,0,0,43,32,60,218,-45,3947,6,5,853,0,0,0,0,0,0,0,0
880937,-15948,-14660,50700,50700,0,0,43,33,62,217,-36,3925,-9,4,853,0,0,0,0,0,0,0,0
881938,-15944,-14668,50765,50765,0,0,43,37,58,219,-38,3910,3,5,853,0,0,0,0,0,0,0,0
882939,-15944,-14676,50830,50830,0,0,45,36,58,234,-70,3905,-1,-10,853,0,0,0,0,0,0,0,0
883940,-15944,-14648,50895,50895,0,0,46,36,60,236,-57,3927,2,-9,853,0,0,0,0,0,0,0,0
884941,-15944,-14648,50960,50960,0,0,44,33,58,207,-62,3943,0,1,853,0,0,0,0,0,0,0,0
885942,-15948,-14660,51025,51025,0,0,43,35,61,217,-64,3951,-7,3,853,0,0,0,0,0,0,0,0
886943,-15944,-14652,51090,51090,0,0,44,33,62,214,-49,3934,-8,5,851,0,0,0,0,0,0,0,0
887944,-15952,-14664,51155,51155,0,0,45,33,62,205,-53,3921,-1,4,851,0,0,0,0,0,0,0,0
888945,-15948,-14652,51220,51220,0,0,46,34,60,234,-48,3953,-11,3,853,0,0,0,0,0,0,0,0
889946,-15944,-14656,51285,51285,0,0,48,34,59,241,-54,3935,8,4,854,0,0,0,0,0,0,0,0
890947,-15948,-14656,51350,51350,0,0,46,33,59,208,-47,3950,-3,-8,853,0,0,0,0,0,0,0,0
891948,-15940,-14664,51415,51415,0,0,43,31,60,215,-45,3946,-9,-9,853,0,0,0,0,0,0,0,0
892949,-15936,-14664,51480,51480,0,0,43,33,60,234,-41,3945,6,-7,853,0,0,0,0,0,0,0,0
893950,-15956,-14664,51545,51545,0,0,43,34,58,218,-42,3990,-10,5,853,0,0,0,0,0,0,0,0
894951,-15944,-14656,51610,51610,0,0,43,34,59,212,-42,3990,1,-9,853,0,0,0,0,0,0,0,0
895952,-15944,-14676,51675,51675,0,0,44,34,62,215,-36,3979,-2,-8,854,0,0,0,0,0,0,0,0
896953,-15948,-14672,51740,51740,0,0,47,32,64,208,-58,3944,-10,-10,853,0,0,0,0,0,0,0,0
897954,-15944,-14664,51805,51805,0,0,47,30,62,193,-60,3973,7,-7,853,0,0,0,0,0,0,0,0
898955,-15944,-14664,51870,51870,0,0,46,32,60,210,-55,3994,-8,1,854,0,0,0,0,0,0,0,0
899956,-15948,-14656,51935,51935,0,0,45,33,60,228,-23,3929,-1,3,853,0,0,0,0,0,0,0,0
900957,-15940,-14656,52000,52000,0,0,44,35,59,221,-45,3938,7,-2,854,0,0,0,0,0,0,0,0
901958,-15948,-14664,52065,52065,0,0,43,34,61,216,-40,3955,-10,-10,854,0,0,0,0,0,0,0,0
902959,-15940,-14660,52130,52130,0,0,42,31,61,227,-43,3938,1,-8,853,0,0,0,0,0,0,0,0
903960,-15944,-14660,52195,52195,0,0,41,30,61,197,-44,3932,0,0,852,0,0,0,0,0,0,0,0
904961,-15936,-14656,52260,52260,0,0,43,33,62,182,-53,3978,1,2,851,0,0,0,0,0,0,0,0
905962,-15936,-14672,52325,52325,0,0,43,35,63,209,-41,3998,-9,4,853,0,0,0,0,0,0,0,0
906963,-15948,-14664,52390,52390,0,0,44,34,62,237,-50,3977,8,5,853,0,0,0,0,0,0,0,0
907964,-15936,-14660,52455,52455,0,0,46,33,60,235,-45,3955,-10,-9,853,0,0,0,0,0,0,0,0
908965,-15948,-14660,52520,52520,0,0,44,32,61,212,-50,3955,0,-9,853,0,0,0,0,0,0,0,0
909966,-15944,-14672,52585,52585,0,0,43,32,62,220,-55,3956,4,2,853,0,0,0,0,0,0,0,0
910967,-15948,-14676,52650,52650,0,0,41,31,63,218,-51,3990,-10,-5,853,0,0,0,0,0,0,0,0
911968,-15948,-14652,52715,52715,0,0,41,30,62,221,-76,3968,7,-4,854,0,0,0,0,0,0,0,0
912969,-15944,-14656,52780,52780,0,0,42,32,62,237,-49,3966,-6,4,853,0,0,0,0,0,0,0,0
913970,-15940,-14656,52845,52845,0,0,41,34,62,227,-42,3945,4,-9,853,0,0,0,0,0,0,0,0
914971,-15952,-14668,52910,52910,0,0,39,35,63,203,-45,3923,-3,-9,853,0,0,0,0,0,0,0,0
915972,-15944,-14668,52975,52975,0,0,41,35,62,208,-31,3910,-5,4,853,0,0,0,0,0,0,0,0
916973,-15940,-14652,53040,53040,0,0,43,34,60,201,-36,3936,2,-3,854,0,0,0,0,0,0,0,0
917974,-15940,-14672,53105,53105,0,0,38,34,60,207,-60,3958,-9,-2,854,0,0,0,0,0,0,0,0
918975,-15940,-14656,53170,53170,0,0,39,33,64,209,-24,3949,8,-4,854,0,0,0,0,0,0,0,0
919976,-15944,-14664,53235,53235,0,0,41,32,63,211,-33,3918,-11,0,854,0,0,0,0,0,0,0,0
920977,-15940,-14660,53300,53300,0,0,43,32,61,222,-65,3970,8,0,851,0,0,0,0,0,0,0,0
921978,-15944,-14668,53365,53365,0,0,42,36,60,239,-67,3955,9,2,851,0,0,0,0,0,0,0,0
922979,-15944,-14664,53430,53430,0,0,41,35,60,225,-49,3924,-10,5,853,0,0,0,0,0,0,0,0
923980,-15944,-14664,53495,53495,0,0,40,33,59,192,-33,3950,7,5,853,0,0,0,0,0,0,0,0
924981,-15952,-14668,53560,53560,0,0,41,36,60,190,-49,3965,-4,-9,854,0,0,0,0,0,0,0,0
925982,-15948,-14664,53625,53625,0,0,43,36,58,187,-46,3945,1,-5,854,0,0,0,0,0,0,0,0
926983,-15948,-14676,53690,53690,0,0,44,34,59,209,-45,3938,5,-7,853,0,0,0,0,0,0,0,0
927984,-15940,-14664,53755,53755,0,0,41,35,61,202,-50,3923,-10,-2,854,0,0,0,0,0,0,0,0
928985,-15948,-14664,53820,53820,0,0,42,36,60,210,-44,3953,8,5,854,0,0,0,0,0,0,0,0
929986,-15944,-14660,53885,53885,0,0,46,34,59,218,-49,3971,-11,5,854,0,0,0,0,0,0,0,0
930987,-15944,-14664,53950,53950,0,0,47,35,59,213,-62,3927,8,4,853,0,0,0,0,0,0,0,0
931988,-15952,-14660,54015,54015,0,0,45,37,60,221,-48,3947,-6,2,854,0,0,0,0,0,0,0,0
932989,-15952,-14668,54080,54080,0,0,43,40,60,214,-40,3984,7,-3,854,0,0,0,0,0,0,0,0
933990,-15948,-14664,54145,54145,0,0,45,38,61,210,-46,3983,-10,-7,854,0,0,0,0,0,0,0,0
934991,-15952,-14664,54210,54210,0,0,46,32,60,224,-43,3976,8,-9,853,0,0,0,0,0,0,0,0
935992,-15936,-14668,54275,54275,0,0,46,29,62,222,-64,3967,-8,-10,854,0,0,0,0,0,0,0,0
936993,-15940,-14652,54340,54340,0,0,45,29,59,215,-68,3956,-2,-9,853,0,0,0,0,0,0,0,0
937994,-15952,-14664,54405,54405,0,0,42,34,59,231,-48,3944,-7,4,851,0,0,0,0,0,0,0,0
938995,-15944,-14656,54470,54470,0,0,41,34,61,219,-55,3927,-4,-4,851,0,0,0,0,0,0,0,0
939996,-15940,-14656,54535,54535,0,0,44,31,59,210,-57,3936,0,-9,853,0,0,0,0,0,0,0,0
940997,-15940,-14660,54600,54600,0,0,45,28,57,210,-61,3948,-5,-7,854,0,0,0,0,0,0,0,0
941998,-15944,-14660,54665,54665,0,0,45,28,58,222,-57,3935,-1,4,854,0,0,0,0,0,0,0,0
942999,-15944,-14660,54730,54730,0,0,43,32,60,212,-65,3964,1,1,853,0,0,0,0,0,0,0,0
944000,-15936,-14656,54795,54795,0,0,46,36,58,214,-62,3949,-2,-4,853,0,0,0,0,0,0,0,0
945001,-15932,-14648,54860,54860,0,0,48,36,57,196,-68,3944,4,-1,854,0,0,0,0,0,0,0,0
946002,-15944,-14660,54925,54925,0,0,46,31,58,192,-66,3943,-5,1,853,0,0,0,0,0,0,0,0
947003,-15948,-14656,54990,54990,0,0,42,30,59,217,-55,3936,-3,0,853,0,0,0,0,0,0,0,0
948004,-15940,-14664,55055,55055,0,0,42,31,59,218,-56,3932,0,3,853,0,0,0,0,0,0,0,0
949005,-15948,-14660,55120,55120,0,0,43,33,59,190,-58,3934,-1,2,853,0,0,0,0,0,0,0,0
950006,-15940,-14660,55185,55185,0,0,42,33,61,220,-58,3958,2,-6,853,0,0,0,0,0,0,0,0
951007,-15948,-14668,55250,55250,0,0,42,32,61,225,-32,3952,4,-5,853,0,0,0,0,0,0,0,0
952008,-15944,-14656,55315,55315,0,0,43,32,61,208,-49,3963,-10,-10,853,0,0,0,0,0,0,0,0
953009,-15948,-14656,55380,55380,0,0,46,32,61,218,-55,3965,5,-8,853,0,0,0,0,0,0,0,0
954010,-15948,-14664,55445,55445,0,0,46,35,61,211,-50,3972,0,5,854,0,0,0,0,0,0,0,0
955011,-15948,-14652,55510,55510,0,0,46,35,61,231,-34,3975,0,-9,852,0,0,0,0,0,0,0,0
956012,-15952,-14656,55575,55575,0,0,44,32,61,216,-40,3937,2,0,851,0,0,0,0,0,0,0,0
957013,-15948,-14644,55640,55640,0,0,44,34,60,206,-65,3918,0,4,854,0,0,0,0,0,0,0,0
958014,-15952,-14656,55705,55705,0,0,40,35,60,211,-39,3955,-9,4,853,0,0,0,0,0,0,0,0
959015,-15948,-14664,55770,55770,0,0,38,36,59,230,-59,3943,3,-3,853,0,0,0,0,0,0,0,0
960016,-15948,-14652,55835,55835,0,0,39,36,59,226,-62,3941,-10,-4,853,0,0,0,0,0,0,0,0
961017,-15940,-14652,55900,55900,0,0,42,37,62,190,-60,3947,8,-5,854,0,0,0,0,0,0,0,0
962018,-15940,-14656,55965,55965,0,0,45,37,62,214,-45,3956,-7,-5,853,0,0,0,0,0,0,0,0
963019,-15948,-14648,56030,56030,0,0,45,36,63,213,-36,3938,-4,1,854,0,0,0,0,0,0,0,0
964020,-15948,-14652,56095,56095,0,0,43,35,63,217,-41,3988,7,-4,853,0,0,0,0,0,0,0,0
965021,-15948,-14652,56160,56160,0,0,40,37,62,249,-41,3947,-9,-4,853,0,0,0,0,0,0,0,0
966022,-15952,-14660,56225,56225,0,0,38,37,63,235,-60,3956,5,-5,854,0,0,0,0,0,0,0,0
967023,-15948,-14652,56290,56290,0,0,42,35,62,229,-49,3976,-6,3,854,0,0,0,0,0,0,0,0
968024,-15948,-14652,56355,56355,0,0,44,35,62,210,-50,3942,5,5,853,0,0,0,0,0,0,0,0
969025,-15944,-14656,56420,56420,0,0,42,35,61,203,-34,3943,-10,5,853,0,0,0,0,0,0,0,0
970026,-15948,-14656,56485,56485,0,0,44,35,62,213,-63,3945,7,-9,853,0,0,0,0,0,0,0,0
971027,-15944,-14648,56550,56550,0,0,44,36,62,210,-63,3958,-10,-8,853,0,0,0,0,0,0,0,0
972028,-15936,-14652,56615,56615,0,0,42,35,64,229,-49,3998,8,3,851,0,0,0,0,0,0,0,0
973029,-15944,-14660,56680,56680,0,0,40,33,62,232,-41,3952,7,-5,851,0,0,0,0,0,0,0,0
974030,-15940,-14664,56745,56745,0,0,39,35,60,223,-66,3950,-10,-9,854,0,0,0,0,0,0,0,0
975031,-15956,-14660,56810,56810,0,0,41,36,60,213,-52,3942,5,-9,853,0,0,0,0,0,0,0,0
976032,-15944,-14660,56875,56875,0,0,44,36,60,237,-47,3972,-5,-4,853,0,0,0,0,0,0,0,0
977033,-15940,-14660,56940,56940,0,0,43,36,59,195,-45,3947,2,5,853,0,0,0,0,0,0,0,0
978034,-15948,-14656,57005,57005,0,0,40,33,60,229,-51,3959,-1,3,853,0,0,0,0,0,0,0,0
979035,-15948,-14664,57070,57070,0,0,39,31,60,220,-61,3947,-3,-8,853,0,0,0,0,0,0,0,0
980036,-15948,-14664,57135,57135,0,0,41,33,60,207,-58,3938,1,-4,853,0,0,0,0,0,0,0,0
981037,-15944,-14656,57200,57200,0,0,42,34,61,218,-48,3926,-11,-1,854,0,0,0,0,0,0,0,0
982038,-15940,-14660,57265,57265,0,0,43,33,59,234,-45,3935,3,5,854,0,0,0,0,0,0,0,0
983039,-15944,-14656,57330,57330,0,0,44,33,61,256,-40,3926,-8,1,853,0,0,0,0,0,0,0,0
984040,-15960,-14656,57395,57395,0,0,43,34,61,212,-71,3938,-5,0,853,0,0,0,0,0,0,0,0
985041,-15948,-14656,57460,57460,0,0,41,35,61,212,-33,3962,8,-9,853,0,0,0,0,0,0,0,0
986042,-15940,-14656,57525,57525,0,0,44,33,60,238,-52,3956,-8,-6,854,0,0,0,0,0,0,0,0
987043,-15952,-14664,57590,57590,0,0,47,32,61,231,-51,3924,8,1,853,0,0,0,0,0,0,0,0
988044,-15948,-14652,57655,57655,0,0,46,31,60,213,-52,3962,-11,5,854,0,0,0,0,0,0,0,0
989045,-15940,-14664,57720,57720,0,0,44,32,61,213,-37,3954,3,-9,851,0,0,0,0,0,0,0,0
990046,-15948,-14656,57785,57785,0,0,42,32,60,203,-23,3919,7,-2,851,0,0,0,0,0,0,0,0
991047,-15948,-14656,57850,57850,0,0,43,32,60,212,-30,3941,-4,5,853,0,0,0,0,0,0,0,0
992048,-15944,-14660,57915,57915,0,0,47,34,60,195,-46,3950,-6,-5,854,0,0,0,0,0,0,0,0
993049,-15952,-14660,57980,57980,0,0,48,34,59,217,-17,3942,3,-9,853,0,0,0,0,0,0,0,0
994050,-15940,-14660,58045,58045,0,0,47,33,59,208,-27,3912,8,-8,854,0,0,0,0,0,0,0,0
995051,-15952,-14660,58110,58110,0,0,47,33,58,189,-51,3941,-6,0,854,0,0,0,0,0,0,0,0
996052,-15940,-14668,58175,58175,0,0,46,32,57,184,-38,3955,-9,4,854,0,0,0,0,0,0,0,0
997053,-15960,-14660,58240,58240,0,0,43,33,57,183,-44,3971,8,5,853,0,0,0,0,0,0,0,0
998054,-15948,-14672,58305,58305,0,0,44,33,57,203,-35,3960,-9,-9,853,0,0,0,0,0,0,0,0
999055,-15944,-14652,58370,58370,0,0,46,33,58,212,-66,3932,-1,1,854,0,0,0,0,0,0,0,0
1000056,-15948,-14664,58435,58435,0,0,49,34,61,218,-69,3952,8,3,853,0,0,0,0,0,0,0,0
1001057,-15944,-14660,58500,58500,0,0,48,35,59,223,-52,3945,-11,-8,853,0,0,0,0,0,0,0,0
1002058,-15952,-14656,58565,58565,0,0,44,33,59,214,-46,3958,4,-8,853,0,0,0,0,0,0,0,0
1003059,-15944,-14656,58630,58630,0,0,44,34,61,236,-34,3990,4,4,854,0,0,0,0,0,0,0,0
1004060,-15948,-14672,58695,58695,0,0,43,34,61,220,-30,3980,-9,-1,854,0,0,0,0,0,0,0,0
1005062,-15948,-14660,58760,58760,0,0,43,35,62,212,-31,3952,8,-9,852,0,0,0,0,0,0,0,0
1006062,-15952,-14676,58825,58825,0,0,44,35,59,210,-44,3939,-6,4,851,0,0,0,0,0,0,0,0
1007063,-15952,-14672,58890,58890,0,0,46,34,59,222,-33,3926,-5,-8,853,0,0,0,0,0,0,0,0
1008064,-15944,-14664,58955,58955,0,0,46,33,61,226,-43,3956,-6,-9,853,0,0,0,0,0,0,0,0
1009065,-15944,-14660,59020,59020,0,0,46,33,62,214,-21,3946,8,0,854,0,0,0,0,0,0,0,0
1010066,-15948,-14668,59085,59085,0,0,43,33,61,207,-25,3947,-10,5,853,0,0,0,0,0,0,0,0
1011067,-15948,-14672,59150,59150,0,0,41,32,62,212,-44,3972,5,4,853,0,0,0,0,0,0,0,0
1012068,-15940,-14656,59215,59215,0,0,39,33,62,224,-47,3970,1,-7,853,0,0,0,0,0,0,0,0
1013069,-15948,-14660,59280,59280,0,0,41,36,61,210,-57,3960,-6,-9,853,0,0,0,0,0,0,0,0
1014070,-15948,-14652,59345,59345,0,0,41,37,60,195,-39,3942,8,-8,853,0,0,0,0,0,0,0,0
1015071,-15948,-14660,59410,59410,0,0,43,35,61,175,-36,3929,-6,1,853,0,0,0,0,0,0,0,0
1016072,-15944,-14668,59475,59475,0,0,42,31,63,203,-62,3923,3,5,853,0,0,0,0,0,0,0,0
1017073,-15952,-14656,59540,59540,0,0,43,32,62,212,-72,3949,2,4,853,0,0,0,0,0,0,0,0
1018074,-15944,-14656,59605,59605,0,0,41,32,60,232,-57,3954,-8,-5,853,0,0,0,0,0,0,0,0
1019075,-15956,-14664,59670,59670,0,0,40,35,61,234,-22,3959,-2,-8,853,0,0,0,0,0,0,0,0
1020076,-15956,-14660,59735,59735,0,0,41,33,63,249,-44,3914,-4,-4,853,0,0,0,0,0,0,0,0
1021077,-15944,-14652,59800,59800,0,0,43,29,61,226,-56,3946,4,4,853,0,0,0,0,0,0,0,0
1022078,-15956,-14664,59865,59865,0,0,45,29,60,206,-55,3927,-5,5,851,0,0,0,0,0,0,0,0
1023079,-15948,-14672,59930,59930,0,0,44,33,60,186,-56,3918,1,-8,851,0,0,0,0,0,0,0,0
1024080,-15940,-14656,59995,59995,0,0,43,34,61,187,-71,3920,3,-4,853,0,0,0,0,0,0,0,0
1025081,-15936,-14676,60060,60060,0,0,40,32,61,212,-49,3932,-2,2,853,0,0,0,0,0,0,0,0
1026082,-15948,-14660,60125,60125,0,0,39,34,61,215,-66,3975,8,0,853,0,0,0,0,0,0,0,0
1027083,-15952,-14660,60190,60190,0,0,40,37,64,209,-67,3961,-5,5,853,0,0,0,0,0,0,0,0
1028084,-15940,-14656,60255,60255,0,0,43,37,62,199,-38,3919,0,1,853,0,0,0,0,0,0,0,0
1029085,-15948,-14660,60320,60320,0,0,42,35,59,237,-24,3935,6,0,853,0,0,0,0,0,0,0,0
1030086,-15948,-14664,60385,60385,0,0,44,35,60,226,-73,3941,-10,-7,853,0,0,0,0,0,0,0,0
1031087,-15952,-14652,60450,60450,0,0,42,34,63,232,-58,3926,5,-9,853,0,0,0,0,0,0,0,0
1032088,-15952,-14664,60515,60515,0,0,41,35,63,206,-49,3947,-1,-9,853,0,0,0,0,0,0,0,0
1033089,-15948,-14668,60580,60580,0,0,38,33,63,202,-47,3958,-4,-3,853,0,0,0,0,0,0,0,0
1034090,-15940,-14664,60645,60645,0,0,38,34,62,211,-38,3943,-6,5,853,0,0,0,0,0,0,0,0
1035091,-15948,-14660,60710,60710,0,0,42,34,60,210,-53,3949,-1,5,853,0,0,0,0,0,0,0,0
1036092,-15944,-14664,60775,60775,0,0,45,34,59,205,-52,3941,3,-4,853,0,0,0,0,0,0,0,0
1037093,-15948,-14668,60840,60840,0,0,46,35,62,244,-59,3959,-9,-9,853,0,0,0,0,0,0,0,0
1038094,-15940,-14656,60905,60905,0,0,46,36,61,231,-44,3925,8,-9,853,0,0,0,0,0,0,0,0
1039095,-15944,-14652,60970,60970,0,0,45,35,62,218,-46,3921,-1,2,851,0,0,0,0,0,0,0,0
1040096,-15948,-14656,61035,61035,0,0,44,34,62,219,-49,3958,1,5,851,0,0,0,0,0,0,0,0
1041097,-15948,-14668,61100,61100,0,0,43,34,63,198,-36,3936,-9,5,853,0,0,0,0,0,0,0,0
1042098,-15944,-14664,61165,61165,0,0,44,33,61,193,-58,3927,8,2,853,0,0,0,0,0,0,0,0
1043099,-15948,-14664,61230,61230,0,0,45,30,61,220,-47,3927,-10,-7,853,0,0,0,0,0,0,0,0
1044100,-15952,-14668,61295,61295,0,0,46,31,60,232,-42,3920,8,-8,853,0,0,0,0,0,0,0,0
1045101,-15944,-14672,61360,61360,0,0,45,34,57,219,-48,3968,-7,-9,853,0,0,0,0,0,0,0,0
1046102,-15948,-14664,61425,61425,0,0,44,34,57,211,-60,3948,6,-10,853,0,0,0,0,0,0,0,0
1047103,-15944,-14652,61490,61490,0,0,44,32,63,214,-60,3938,-3,-9,853,0,0,0,0,0,0,0,0
1048104,-15944,-14660,61555,61555,0,0,44,30,60,221,-60,3935,-4,-8,853,0,0,0,0,0,0,0,0
1049105,-15948,-14668,61620,61620,0,0,47,30,58,194,-69,3957,-2,1,853,0,0,0,0,0,0,0,0
1050106,-15948,-14656,61685,61685,0,0,47,30,58,203,-37,3959,-3,3,853,0,0,0,0,0,0,0,0
1051107,-15952,-14672,61750,61750,0,0,47,33,59,222,-55,3969,1,5,853,0,0,0,0,0,0,0,0
1052108,-15952,-14660,61815,61815,0,0,44,35,60,216,-49,3961,0,3,853,0,0,0,0,0,0,0,0
1053109,-15944,-14668,61880,61880,0,0,42,36,60,207,-25,3963,0,4,853,0,0,0,0,0,0,0,0
1054110,-15948,-14664,61945,61945,0,0,43,32,60,203,-47,3975,-7,-4,853,0,0,0,0,0,0,0,0
1055111,-15948,-14660,62010,62010,0,0,45,32,59,216,-47,3953,5,-9,853,0,0,0,0,0,0,0,0
1056112,-15952,-14652,62075,62075,0,0,43,33,59,206,-61,3940,-9,-8,852,0,0,0,0,0,0,0,0
1057113,-15948,-14660,62140,62140,0,0,41,30,58,205,-46,3946,7,-8,851,0,0,0,0,0,0,0,0
1058114,-15944,-14664,62205,62205,0,0,44,31,58,193,-62,3971,8,4,853,0,0,0,0,0,0,0,0
1059115,-15948,-14672,62270,62270,0,0,43,31,61,205,-58,3936,-10,-8,853,0,0,0,0,0,0,0,0
1060116,-15940,-14652,62335,62335,0,0,43,30,62,203,-36,3943,8,1,853,0,0,0,0,0,0,0,0
1061117,-15952,-14664,62400,62400,0,0,46,32,59,189,-33,3942,-3,4,853,0,0,0,0,0,0,0,0
1062118,-15948,-14672,62465,62465,0,0,46,33,59,182,-48,3954,3,5,853,0,0,0,0,0,0,0,0
1063119,-15944,-14664,62530,62530,0,0,43,34,61,207,-59,3944,-8,-1,853,0,0,0,0,0,0,0,0
1064120,-15944,-14664,62595,62595,0,0,41,31,62,209,-53,3961,-4,5,853,0,0,0,0,0,0,0,0
1065121,-15944,-14652,62660,62660,0,0,40,33,61,181,-30,3920,3,5,853,0,0,0,0,0,0,0,0
1066122,-15948,-14668,62725,62725,0,0,40,33,62,166,-58,3938,-4,2,853,0,0,0,0,0,0,0,0
1067123,-15940,-14648,62790,62790,0,0,42,35,62,198,-65,3955,2,-3,853,0,0,0,0,0,0,0,0
1068124,-15948,-14660,62855,62855,0,0,43,35,61,221,-71,3952,-1,-3,853,0,0,0,0,0,0,0,0
1069125,-15944,-14652,62920,62920,0,0,44,35,60,193,-68,3949,-9,-8,853,0,0,0,0,0,0,0,0
1070126,-15944,-14676,62985,62985,0,0,42,37,62,206,-20,3934,7,-8,853,0,0,0,0,0,0,0,0
1071127,-15940,-14664,63050,63050,0,0,39,37,62,205,-26,3944,-4,-9,853,0,0,0,0,0,0,0,0
1072128,-15948,-14660,63115,63115,0,0,39,36,64,210,-46,3933,-9,5,853,0,0,0,0,0,0,0,0
1073129,-15952,-14672,63180,63180,0,0,39,36,63,224,-46,3939,8,-9,852,0,0,0,0,0,0,0,0
1074130,-15944,-14664,63245,63245,0,0,41,34,57,212,-58,3950,-11,2,851,0,0,0,0,0,0,0,0
1075131,-15948,-14660,63310,63310,0,0,43,36,58,208,-67,3927,-11,-6,853,0,0,0,0,0,0,0,0
1076132,-15948,-14664,63375,63375,0,0,41,38,63,199,-44,3908,-1,0,853,0,0,0,0,0,0,0,0
1077133,-15944,-14660,63440,63440,0,0,39,36,64,205,-43,3950,-7,-1,853,0,0,0,0,0,0,0,0
1078134,-15960,-14668,63505,63505,0,0,38,34,64,217,-57,3918,7,-2,853,0,0,0,0,0,0,0,0
1079135,-15944,-14660,63570,63570,0,0,41,36,62,238,-64,3925,-11,1,853,0,0,0,0,0,0,0,0
1080136,-15952,-14660,63635,63635,0,0,40,38,62,227,-25,3960,3,1,853,0,0,0,0,0,0,0,0
1081137,-15948,-14660,63700,63700,0,0,42,35,62,220,-60,3959,2,-2,853,0,0,0,0,0,0,0,0
1082138,-15952,-14660,63765,63765,0,0,43,35,61,231,-57,3953,-3,-4,853,0,0,0,0,0,0,0,0
1083139,-15948,-14664,63830,63830,0,0,42,35,60,217,-41,3947,5,-7,853,0,0,0,0,0,0,0,0
1084140,-15948,-14660,63895,63895,0,0,42,33,59,201,-51,3933,-10,-2,853,0,0,0,0,0,0,0,0
1085141,-15944,-14660,63960,63960,0,0,42,33,59,207,-57,3939,8,-7,853,0,0,0,0,0,0,0,0
1086142,-15944,-14664,64025,64025,0,0,41,33,58,208,-41,3941,-9,-9,853,0,0,0,0,0,0,0,0
1087143,-15952,-14656,64090,64090,0,0,44,34,59,194,-37,3923,2,-6,853,0,0,0,0,0,0,0,0
1088144,-15948,-14676,64155,64155,0,0,45,33,60,224,-43,3931,-7,-2,853,0,0,0,0,0,0,0,0
1089145,-15952,-14668,64220,64220,0,0,44,32,62,207,-54,3953,-3,-4,853,0,0,0,0,0,0,0,0
1090146,-15948,-14664,64285,64285,0,0,39,32,61,215,-63,3948,5,-9,852,0,0,0,0,0,0,0,0
1091147,-15948,-14664,64350,64350,0,0,39,33,59,211,-69,3956,5,3,851,0,0,0,0,0,0,0,0
1092148,-15960,-14652,64415,64415,0,0,45,32,57,204,-43,3954,6,-4,853,0,0,0,0,0,0,0,0
1093149,-15948,-14664,64480,64480,0,0,48,30,59,216,-41,3943,-10,-6,853,0,0,0,0,0,0,0,0
1094150,-15944,-14660,64545,64545,0,0,47,29,60,240,-45,3950,7,4,853,0,0,0,0,0,0,0,0
1095151,-15948,-14660,64610,64610,0,0,45,31,62,204,-26,3941,-10,-5,853,0,0,0,0,0,0,0,0
1096152,-15956,-14672,64675,64675,0,0,44,33,60,213,-61,3918,8,3,853,0,0,0,0,0,0,0,0
1097153,-15948,-14664,64740,64740,0,0,42,32,60,235,-59,3938,-11,5,853,0,0,0,0,0,0,0,0
1098154,-15944,-14660,64805,64805,0,0,44,29,58,227,-44,3949,4,-9,853,0,0,0,0,0,0,0,0
1099155,-15948,-14656,64870,64870,0,0,44,31,58,219,-60,3951,-1,-1,852,0,0,0,0,0,0,0,0
1100156,-15928,-14676,64935,64935,0,0,44,34,59,200,-62,3945,-1,-7,852,0,0,0,0,0,0,0,0
1101157,-15952,-14648,65000,65000,0,0,47,35,61,217,-53,3950,3,5,852,0,0,0,0,0,0,0,0
1102158,-15952,-14652,65065,65065,0,0,47,35,60,224,-56,3973,-7,-5,852,0,0,0,0,0,0,0,0
1103159,-15948,-14656,65130,65130,0,0,48,33,60,221,-60,3951,1,4,853,0,0,0,0,0,0,0,0
1104160,-15952,-14652,65195,65195,0,0,47,31,59,206,-73,3956,-11,1,852,0,0,0,0,0,0,0,0
1105161,-15956,-14660,65260,65260,0,0,45,32,58,228,-52,3937,4,-1,852,0,0,0,0,0,0,0,0
1106162,-15948,-14664,65325,65325,0,0,47,34,60,219,-71,3898,-9,-6,853,0,0,0,0,0,0,0,0
1107163,-15948,-14676,65390,65390,0,0,47,35,60,219,-58,3924,-2,-1,852,0,0,0,0,0,0,0,0
1108164,-15948,-14660,65455,65455,0,0,45,34,59,218,-76,3957,6,-3,851,0,0,0,0,0,0,0,0
1109165,-15952,-14664,65520,65520,0,0,46,34,62,221,-49,3978,7,-9,853,0,0,0,0,0,0,0,0
1110166,-15948,-14672,65585,65585,0,0,45,35,62,217,-65,3947,-9,-9,853,0,0,0,0,0,0,0,0
1111167,-15944,-14652,65650,65650,0,0,42,36,58,222,-70,3905,8,-5,853,0,0,0,0,0,0,0,0
1112168,-15940,-14668,65715,65715,0,0,41,36,59,237,-61,3932,-11,3,852,0,0,0,0,0,0,0,0
1113169,-15944,-14668,65780,65780,0,0,43,34,59,223,-48,3956,-1,4,853,0,0,0,0,0,0,0,0
1114170,-15940,-14664,65845,65845,0,0,47,33,58,238,-44,3971,5,5,853,0,0,0,0,0,0,0,0
1115171,-15956,-14664,65910,65910,0,0,46,33,59,239,-38,3957,-9,-9,853,0,0,0,0,0,0,0,0
1116172,-15952,-14660,65975,65975,0,0,43,34,60,235,-41,3949,5,-8,853,0,0,0,0,0,0,0,0
1117173,-15944,-14648,66040,66040,0,0,44,35,60,235,-54,3950,0,-8,853,0,0,0,0,0,0,0,0
1118174,-15952,-14652,66105,66105,0,0,45,33,62,221,-35,3934,-8,4,853,0,0,0,0,0,0,0,0
1119175,-15940,-14656,66170,66170,0,0,44,35,61,247,-33,3919,5,-1,853,0,0,0,0,0,0,0,0
1120176,-15948,-14652,66235,66235,0,0,42,35,62,246,-47,3928,5,-1,853,0,0,0,0,0,0,0,0
1121177,-15940,-14664,66300,66300,0,0,42,36,61,214,-31,3965,-9,-6,853,0,0,0,0,0,0,0,0
1122178,-15940,-14660,66365,66365,0,0,44,34,61,230,-55,3942,7,-4,853,0,0,0,0,0,0,0,0
1123179,-15956,-14672,66430,66430,0,0,41,34,60,232,-62,3930,3,-5,853,0,0,0,0,0,0,0,0
1124180,-15944,-14652,66495,66495,0,0,40,33,61,221,-51,3926,-4,-6,853,0,0,0,0,0,0,0,0
1125181,-15936,-14660,66560,66560,0,0,41,34,62,213,-45,3910,2,-7,852,0,0,0,0,0,0,0,0
1126182,-15948,-14656,66625,66625,0,0,42,35,61,233,-76,3946,8,-8,853,0,0,0,0,0,0,0,0
1127183,-15948,-14660,66690,66690,0,0,42,35,60,232,-39,3954,4,-8,853,0,0,0,0,0,0,0,0
1128184,-15948,-14648,66755,66755,0,0,42,34,61,231,-33,3950,-7,-8,853,0,0,0,0,0,0,0,0
1129185,-15948,-14656,66820,66820,0,0,45,35,61,223,-44,3918,5,-9,853,0,0,0,0,0,0,0,0
1130186,-15944,-14668,66885,66885,0,0,44,35,61,211,-43,3929,-10,-7,853,0,0,0,0,0,0,0,0
1131187,-15944,-14668,66950,66950,0,0,45,35,62,192,-44,3903,5,-8,853,0,0,0,0,0,0,0,0
1132188,-15948,-14648,67015,67015,0,0,42,34,62,196,-48,3923,0,0,853,0,0,0,0,0,0,0,0
1133189,-15952,-14660,67080,67080,0,0,39,34,60,210,-56,3950,-3,0,853,0,0,0,0,0,0,0,0
1134190,-15948,-14660,67145,67145,0,0,38,33,61,232,-61,3932,7,1,853,0,0,0,0,0,0,0,0
1135191,-15948,-14664,67210,67210,0,0,41,33,63,222,-61,3949,-11,3,853,0,0,0,0,0,0,0,0
1136192,-15940,-14668,67275,67275,0,0,43,35,60,225,-54,3951,8,-5,853,0,0,0,0,0,0,0,0
1137193,-15960,-14664,67340,67340,0,0,42,36,60,222,-37,3961,-10,-6,853,0,0,0,0,0,0,0,0
1138194,-15936,-14660,67405,67405,0,0,38,36,60,208,-49,3924,8,1,853,0,0,0,0,0,0,0,0
1139195,-15956,-14660,67470,67470,0,0,39,36,60,216,-50,3973,-10,-3,853,0,0,0,0,0,0,0,0
1140196,-15948,-14668,67535,67535,0,0,42,36,61,217,-47,3947,7,-4,853,0,0,0,0,0,0,0,0
1141197,-15944,-14652,67600,67600,0,0,44,33,61,203,-56,3938,-10,-9,853,0,0,0,0,0,0,0,0
1142198,-15940,-14664,67665,67665,0,0,43,32,61,204,-62,3968,5,-5,851,0,0,0,0,0,0,0,0
1143199,-15944,-14672,67730,67730,0,0,43,33,61,216,-40,3930,8,3,853,0,0,0,0,0,0,0,0
1144200,-15944,-14660,67795,67795,0,0,42,37,63,205,-59,3950,-11,4,853,0,0,0,0,0,0,0,0
1145201,-15948,-14664,67860,67860,0,0,41,36,65,197,-76,3976,5,-9,853,0,0,0,0,0,0,0,0
1146202,-15948,-14660,67925,67925,0,0,45,32,64,229,-60,3986,-9,-9,853,0,0,0,0,0,0,0,0
1147203,-15940,-14660,67990,67990,0,0,46,32,60,227,-36,3962,7,-2,853,0,0,0,0,0,0,0,0
1148204,-15948,-14660,68055,68055,0,0,43,35,62,216,-47,3949,-9,4,853,0,0,0,0,0,0,0,0
1149205,-15940,-14664,68120,68120,0,0,40,34,61,229,-87,3918,8,4,854,0,0,0,0,0,0,0,0
1150206,-15944,-14664,68185,68185,0,0,43,35,61,253,-58,3919,-8,5,853,0,0,0,0,0,0,0,0
1151207,-15944,-14660,68250,68250,0,0,45,37,62,222,-63,3949,6,5,853,0,0,0,0,0,0,0,0
1152208,-15952,-14660,68315,68315,0,0,46,35,62,215,-47,3976,3,-4,853,0,0,0,0,0,0,0,0
1153209,-15936,-14660,68380,68380,0,0,46,36,60,217,-44,3943,-9,-6,853,0,0,0,0,0,0,0,0
1154210,-15948,-14676,68445,68445,0,0,47,36,59,225,-50,3944,6,-4,853,0,0,0,0,0,0,0,0
1155211,-15944,-14664,68510,68510,0,0,43,35,61,231,-61,3933,-9,-1,853,0,0,0,0,0,0,0,0
1156212,-15948,-14656,68575,68575,0,0,43,31,61,212,-44,3929,-1,3,853,0,0,0,0,0,0,0,0
1157213,-15948,-14660,68640,68640,0,0,45,29,59,203,-65,3944,-1,3,854,0,0,0,0,0,0,0,0
1158214,-15948,-14656,68705,68705,0,0,48,30,59,213,-71,3925,-6,1,855,0,0,0,0,0,0,0,0
1159215,-15936,-14660,68770,68770,0,0,47,32,63,221,-68,3921,2,3,851,0,0,0,0,0,0,0,0
1160216,-15936,-14660,68835,68835,0,0,46,35,62,209,-48,3951,2,-9,853,0,0,0,0,0,0,0,0
1161217,-15936,-14656,68900,68900,0,0,46,34,62,203,-52,3939,-3,-9,854,0,0,0,0,0,0,0,0
1162218,-15948,-14652,68965,68965,0,0,46,31,57,213,-38,3920,6,-1,853,0,0,0,0,0,0,0,0
1163219,-15944,-14664,69030,69030,0,0,44,28,58,219,-59,3925,-10,5,854,0,0,0,0,0,0,0,0
1164220,-15940,-14660,69095,69095,0,0,45,30,59,206,-47,3963,2,5,854,0,0,0,0,0,0,0,0
1165221,-15944,-14672,69160,69160,0,0,47,33,61,219,-26,3970,2,2,854,0,0,0,0,0,0,0,0
1166222,-15956,-14656,69225,69225,0,0,46,32,61,209,-43,3967,-5,-5,854,0,0,0,0,0,0,0,0
1167223,-15944,-14668,69290,69290,0,0,46,29,59,200,-46,3982,7,-9,853,0,0,0,0,0,0,0,0
1168224,-15944,-14660,69355,69355,0,0,43,27,59,197,-44,3958,-11,-8,854,0,0,0,0,0,0,0,0
1169225,-15932,-14664,69420,69420,0,0,42,31,57,227,-47,3940,5,-6,854,0,0,0,0,0,0,0,0
1170226,-15948,-14656,69485,69485,0,0,42,36,58,208,-34,3909,-10,-7,854,0,0,0,0,0,0,0,0
1171227,-15948,-14668,69550,69550,0,0,43,36,59,202,-68,3906,5,-1,854,0,0,0,0,0,0,0,0
1172228,-15944,-14668,69615,69615,0,0,44,33,60,222,-65,3938,-8,-2,854,0,0,0,0,0,0,0,0
1173229,-15948,-14644,69680,69680,0,0,44,29,61,211,-35,3964,0,0,854,0,0,0,0,0,0,0,0
1174230,-15956,-14676,69745,69745,0,0,44,31,61,217,-40,3960,4,4,854,0,0,0,0,0,0,0,0
1175231,-15940,-14656,69810,69810,0,0,45,36,61,199,-45,3963,-9,-7,853,0,0,0,0,0,0,0,0
1176232,-15940,-14652,69875,69875,0,0,46,37,61,229,-38,3956,8,-10,852,0,0,0,0,0,0,0,0
1177233,-15952,-14652,69940,69940,0,0,46,35,61,217,-33,3971,4,2,854,0,0,0,0,0,0,0,0
1178234,-15948,-14660,70005,70005,0,0,42,33,63,188,-55,3937,-10,4,854,0,0,0,0,0,0,0,0
1179235,-15952,-14664,70070,70070,0,0,43,32,61,179,-53,3938,5,2,854,0,0,0,0,0,0,0,0
1180236,-15940,-14660,70135,70135,0,0,44,35,61,229,-34,3929,2,-9,854,0,0,0,0,0,0,0,0
1181237,-15952,-14656,70200,70200,0,0,43,35,63,212,-64,3921,-5,-7,853,0,0,0,0,0,0,0,0
1182238,-15948,-14660,70265,70265,0,0,42,35,63,209,-47,3942,7,-7,853,0,0,0,0,0,0,0,0
1183239,-15944,-14660,70330,70330,0,0,38,35,62,194,-78,3944,-10,3,854,0,0,0,0,0,0,0,0
1184240,-15948,-14660,70395,70395,0,0,39,36,61,177,-60,3967,7,5,854,0,0,0,0,0,0,0,0
1185241,-15948,-14660,70460,70460,0,0,44,38,61,224,-39,3974,-10,-1,854,0,0,0,0,0,0,0,0
1186242,-15952,-14660,70525,70525,0,0,45,37,61,225,-40,3992,7,-9,854,0,0,0,0,0,0,0,0
1187243,-15944,-14660,70590,70590,0,0,42,37,60,232,-72,4012,-7,-9,854,0,0,0,0,0,0,0,0
1188244,-15944,-14660,70655,70655,0,0,40,36,61,240,-66,4014,-4,-9,854,0,0,0,0,0,0,0,0
1189245,-15948,-14656,70720,70720,0,0,41,35,63,232,-55,4000,8,-4,854,0,0,0,0,0,0,0,0
1190246,-15948,-14668,70785,70785,0,0,40,34,64,209,-54,3978,-10,-2,854,0,0,0,0,0,0,0,0
1191247,-15952,-14656,70850,70850,0,0,43,35,61,208,-62,3959,2,-3,854,0,0,0,0,0,0,0,0
1192248,-15960,-14668,70915,70915,0,0,44,36,59,211,-63,3971,1,2,854,0,0,0,0,0,0,0,0
1193249,-15948,-14656,70980,70980,0,0,43,35,59,209,-64,3937,-4,4,852,0,0,0,0,0,0,0,0
1194250,-15948,-14664,71045,71045,0,0,42,34,60,220,-74,3916,-9,-5,854,0,0,0,0,0,0,0,0
1195251,-15952,-14668,71110,71110,0,0,42,33,61,208,-44,3936,-1,-9,854,0,0,0,0,0,0,0,0
1196252,-15944,-14652,71175,71175,0,0,44,34,60,232,-30,3949,6,2,854,0,0,0,0,0,0,0,0
1197253,-15944,-14652,71240,71240,0,0,42,33,60,227,-38,3948,-7,5,854,0,0,0,0,0,0,0,0
1198254,-15948,-14656,71305,71305,0,0,44,33,58,222,-39,3949,-3,1,854,0,0,0,0,0,0,0,0
1199255,-15940,-14664,71370,71370,0,0,45,33,59,221,-79,3977,-4,-9,854,0,0,0,0,0,0,0,0
1200256,-15952,-14656,71435,71435,0,0,47,32,60,219,-62,3929,-6,-9,853,0,0,0,0,0,0,0,0
1201257,-15948,-14664,71500,71500,0,0,46,31,60,206,-51,3926,8,-7,853,0,0,0,0,0,0,0,0
1202258,-15948,-14656,71565,71565,0,0,44,30,59,229,-49,3952,-9,-4,854,0,0,0,0,0,0,0,0
1203259,-15940,-14664,71630,71630,0,0,43,31,58,212,-53,3927,6,0,854,0,0,0,0,0,0,0,0
1204260,-15952,-14656,71695,71695,0,0,44,30,59,235,-59,3937,-10,5,853,0,0,0,0,0,0,0,0
1205261,-15944,-14660,71760,71760,0,0,44,29,61,221,-58,3966,8,1,854,0,0,0,0,0,0,0,0
1206262,-15948,-14660,71825,71825,0,0,43,30,62,197,-49,3959,-10,-2,854,0,0,0,0,0,0,0,0
1207263,-15948,-14668,71890,71890,0,0,41,33,60,192,-49,3979,3,-9,854,0,0,0,0,0,0,0,0
1208264,-15944,-14664,71955,71955,0,0,42,34,59,200,-62,3976,-2,-3,854,0,0,0,0,0,0,0,0
1209265,-15940,-14668,72020,72020,0,0,43,35,59,240,-53,3945,-10,4,854,0,0,0,0,0,0,0,0
1210266,-15936,-14664,72085,72085,0,0,44,33,62,225,-44,3961,7,-2,851,0,0,0,0,0,0,0,0
1211267,-15948,-14660,72150,72150,0,0,42,31,61,212,-32,3929,3,-5,854,0,0,0,0,0,0,0,0
1212268,-15936,-14660,72215,72215,0,0,40,32,63,210,-50,3921,-7,2,854,0,0,0,0,0,0,0,0
1213269,-15948,-14660,72280,72280,0,0,41,33,61,211,-66,3973,-7,5,853,0,0,0,0,0,0,0,0
1214270,-15952,-14656,72345,72345,0,0,41,33,61,228,-56,3969,8,-7,853,0,0,0,0,0,0,0,0
1215271,-15944,-14652,72410,72410,0,0,41,34,61,211,-52,3928,-9,-9,853,0,0,0,0,0,0,0,0
1216272,-15944,-14660,72475,72475,0,0,44,35,60,195,-72,3942,-1,-3,854,0,0,0,0,0,0,0,0
1217273,-15944,-14648,72540,72540,0,0,46,36,60,209,-59,3977,-6,5,854,0,0,0,0,0,0,0,0
1218274,-15948,-14660,72605,72605,0,0,45,36,62,205,-34,3932,-5,3,853,0,0,0,0,0,0,0,0
1219275,-15940,-14660,72670,72670,0,0,44,33,60,220,-52,3932,7,-5,854,0,0,0,0,0,0,0,0
1220276,-15952,-14664,72735,72735,0,0,42,34,60,197,-51,3955,-10,-9,853,0,0,0,0,0,0,0,0
1221277,-15940,-14660,72800,72800,0,0,44,38,62,229,-48,3936,5,-7,854,0,0,0,0,0,0,0,0
1222278,-15944,-14656,72865,72865,0,0,44,38,61,224,-42,3952,5,3,853,0,0,0,0,0,0,0,0
1223279,-15944,-14656,72930,72930,0,0,40,38,61,230,-62,3937,-10,2,854,0,0,0,0,0,0,0,0
1224280,-15952,-14676,72995,72995,0,0,41,37,60,219,-61,3955,6,-4,853,0,0,0,0,0,0,0,0
1225281,-15944,-14656,73060,73060,0,0,43,36,60,236,-41,3951,-4,-9,854,0,0,0,0,0,0,0,0
1226282,-15952,-14668,73125,73125,0,0,44,33,62,232,-60,3934,-1,0,854,0,0,0,0,0,0,0,0
1227283,-15952,-14656,73190,73190,0,0,44,34,62,229,-94,3927,5,5,851,0,0,0,0,0,0,0,0
1228284,-15944,-14668,73255,73255,0,0,41,37,62,231,-60,3951,8,-8,854,0,0,0,0,0,0,0,0
1229285,-15952,-14668,73320,73320,0,0,40,36,62,222,-46,3950,-9,-3,854,0,0,0,0,0,0,0,0
1230286,-15944,-14660,73385,73385,0,0,42,37,61,215,-41,3930,2,2,853,0,0,0,0,0,0,0,0
1231287,-15948,-14656,73450,73450,0,0,44,36,61,200,-53,3952,7,2,854,0,0,0,0,0,0,0,0
1232288,-15944,-14664,73515,73515,0,0,45,36,63,212,-42,3955,-10,-9,853,0,0,0,0,0,0,0,0
1233289,-15948,-14668,73580,73580,0,0,46,35,61,180,-29,3960,1,-9,854,0,0,0,0,0,0,0,0
1234290,-15948,-14660,73645,73645,0,0,43,32,62,202,-45,3958,2,-2,853,0,0,0,0,0,0,0,0
1235291,-15956,-14664,73710,73710,0,0,40,33,60,217,-32,3962,-9,5,853,0,0,0,0,0,0,0,0
1236292,-15940,-14656,73775,73775,0,0,42,34,61,211,-46,3956,7,5,854,0,0,0,0,0,0,0,0
1237293,-15948,-14648,73840,73840,0,0,43,37,61,205,-49,3963,5,-3,854,0,0,0,0,0,0,0,0
1238294,-15940,-14656,73905,73905,0,0,45,35,60,212,-61,3972,-10,-9,854,0,0,0,0,0,0,0,0
1239295,-15948,-14664,73970,73970,0,0,46,30,58,227,-56,3968,5,-8,854,0,0,0,0,0,0,0,0
1240296,-15956,-14664,74035,74035,0,0,44,29,60,215,-26,3969,5,-10,854,0,0,0,0,0,0,0,0
1241297,-15944,-14672,74100,74100,0,0,43,32,60,211,-27,3932,-10,-10,853,0,0,0,0,0,0,0,0
1242298,-15952,-14660,74165,74165,0,0,43,35,59,212,-33,3940,3,-9,853,0,0,0,0,0,0,0,0
1243299,-15944,-14676,74230,74230,0,0,43,34,58,201,-43,3981,8,-6,853,0,0,0,0,0,0,0,0
1244300,-15948,-14660,74295,74295,0,0,42,32,60,211,-60,3954,-9,5,852,0,0,0,0,0,0,0,0
1245301,-15948,-14668,74360,74360,0,0,42,33,61,220,-65,3951,5,0,854,0,0,0,0,0,0,0,0
1246302,-15952,-14660,74425,74425,0,0,43,35,60,229,-54,3900,-9,-9,854,0,0,0,0,0,0,0,0
1247303,-15948,-14656,74490,74490,0,0,43,33,58,217,-42,3932,8,-6,854,0,0,0,0,0,0,0,0
1248304,-15944,-14648,74555,74555,0,0,44,30,59,241,-56,3970,-2,-5,854,0,0,0,0,0,0,0,0
1249305,-15960,-14664,74620,74620,0,0,46,32,59,211,-56,3967,-10,1,853,0,0,0,0,0,0,0,0
1250306,-15948,-14668,74685,74685,0,0,43,33,62,232,-48,3949,7,5,854,0,0,0,0,0,0,0,0
1251307,-15952,-14668,74750,74750,0,0,39,34,63,222,-61,3976,-1,5,854,0,0,0,0,0,0,0,0
1252308,-15956,-14664,74815,74815,0,0,40,34,60,233,-28,3958,-10,4,854,0,0,0,0,0,0,0,0
1253309,-15944,-14660,74880,74880,0,0,44,34,58,206,-46,3911,8,1,854,0,0,0,0,0,0,0,0
1254310,-15956,-14652,74945,74945,0,0,43,33,60,200,-56,3925,-8,3,854,0,0,0,0,0,0,0,0
1255311,-15952,-14656,75010,75010,0,0,42,35,61,204,-54,3961,-4,-7,854,0,0,0,0,0,0,0,0
1256312,-15948,-14664,75075,75075,0,0,42,37,59,214,-48,3995,-1,3,854,0,0,0,0,0,0,0,0
1257313,-15952,-14664,75140,75140,0,0,43,36,60,233,-40,3976,-9,-7,854,0,0,0,0,0,0,0,0
1258314,-15940,-14664,75205,75205,0,0,41,36,61,240,-43,3905,8,-9,853,0,0,0,0,0,0,0,0
1259315,-15948,-14664,75270,75270,0,0,42,36,62,233,-34,3918,-10,4,854,0,0,0,0,0,0,0,0
1260316,-15956,-14672,75335,75335,0,0,41,34,63,197,-44,3960,8,-2,854,0,0,0,0,0,0,0,0
1261317,-15948,-14648,75400,75400,0,0,42,31,60,219,-58,3926,-8,5,851,0,0,0,0,0,0,0,0
1262318,-15948,-14652,75465,75465,0,0,44,34,59,230,-68,3919,-10,0,853,0,0,0,0,0,0,0,0
1263319,-15936,-14668,75530,75530,0,0,45,35,59,208,-85,3963,8,5,853,0,0,0,0,0,0,0,0
1264320,-15952,-14664,75595,75595,0,0,43,37,59,237,-70,3974,-10,4,854,0,0,0,0,0,0,0,0
1265321,-15936,-14668,75660,75660,0,0,39,34,58,206,-52,3944,5,5,854,0,0,0,0,0,0,0,0
1266322,-15948,-14672,75725,75725,0,0,42,31,57,209,-35,3960,-10,5,854,0,0,0,0,0,0,0,0
1267323,-15948,-14656,75790,75790,0,0,46,32,60,223,-62,3972,4,2,853,0,0,0,0,0,0,0,0
1268324,-15948,-14656,75855,75855,0,0,46,34,61,237,-65,3945,-5,-9,853,0,0,0,0,0,0,0,0
1269325,-15944,-14660,75920,75920,0,0,44,34,61,234,-32,3956,-5,-9,854,0,0,0,0,0,0,0,0
1270326,-15948,-14656,75985,75985,0,0,44,34,59,223,-65,3956,8,-9,854,0,0,0,0,0,0,0,0
1271327,-15944,-14664,76050,76050,0,0,45,35,60,228,-38,3964,-10,4,853,0,0,0,0,0,0,0,0
1272328,-15948,-14672,76115,76115,0,0,42,34,61,201,-38,3963,0,5,854,0,0,0,0,0,0,0,0
1273329,-15956,-14656,76180,76180,0,0,44,33,60,213,-30,3937,5,2,853,0,0,0,0,0,0,0,0
1274330,-15948,-14656,76245,76245,0,0,46,33,61,226,-43,3954,-8,-2,854,0,0,0,0,0,0,0,0
1275331,-15948,-14660,76310,76310,0,0,44,33,60,231,-51,3970,8,-7,854,0,0,0,0,0,0,0,0
1276332,-15948,-14664,76375,76375,0,0,43,30,60,199,-52,3960,-9,1,854,0,0,0,0,0,0,0,0
1277333,-15936,-14656,76440,76440,0,0,44,31,62,213,-50,3969,5,5,854,0,0,0,0,0,0,0,0
1278334,-15956,-14652,76505,76505,0,0,43,34,63,201,-70,3967,-3,3,851,0,0,0,0,0,0,0,0
1279335,-15948,-14668,76570,76570,0,0,43,31,62,212,-45,3939,2,-6,854,0,0,0,0,0,0,0,0
1280336,-15944,-14664,76635,76635,0,0,42,32,59,222,-52,3937,7,-9,853,0,0,0,0,0,0,0,0
1281337,-15944,-14656,76700,76700,0,0,42,33,61,200,-59,3916,0,-8,854,0,0,0,0,0,0,0,0
1282338,-15944,-14652,76765,76765,0,0,41,34,60,215,-15,3941,-6,4,854,0,0,0,0,0,0,0,0
1283339,-15936,-14652,76830,76830,0,0,41,32,62,205,-31,3944,1,5,854,0,0,0,0,0,0,0,0
1284340,-15948,-14668,76895,76895,0,0,43,30,64,198,-49,3955,-9,4,854,0,0,0,0,0,0,0,0
1285341,-15944,-14652,76960,76960,0,0,44,34,64,211,-53,3977,7,-9,854,0,0,0,0,0,0,0,0
1286342,-15952,-14668,77025,77025,0,0,43,35,60,224,-46,3979,-6,-9,853,0,0,0,0,0,0,0,0
1287343,-15944,-14648,77090,77090,0,0,45,33,61,218,-56,3969,-9,-8,854,0,0,0,0,0,0,0,0
1288344,-15944,-14652,77155,77155,0,0,42,32,61,215,-57,3934,8,-3,854,0,0,0,0,0,0,0,0
1289345,-15948,-14664,77220,77220,0,0,43,33,63,220,-69,3946,-9,-2,854,0,0,0,0,0,0,0,0
1290346,-15940,-14656,77285,77285,0,0,44,37,61,208,-67,3957,-5,-1,854,0,0,0,0,0,0,0,0
1291347,-15944,-14656,77350,77350,0,0,43,37,61,239,-42,3993,7,-6,853,0,0,0,0,0,0,0,0
1292348,-15952,-14664,77415,77415,0,0,41,34,63,224,-40,3934,-8,3,854,0,0,0,0,0,0,0,0
1293349,-15944,-14668,77480,77480,0,0,41,34,62,206,-50,3939,1,3,853,0,0,0,0,0,0,0,0
1294350,-15940,-14664,77545,77545,0,0,44,33,62,227,-47,3966,7,5,854,0,0,0,0,0,0,0,0
1295351,-15948,-14660,77610,77610,0,0,44,34,64,211,-55,3987,-10,-4,852,0,0,0,0,0,0,0,0
1296352,-15948,-14668,77675,77675,0,0,43,36,62,220,-62,3961,-2,-9,854,0,0,0,0,0,0,0,0
1297353,-15944,-14656,77740,77740,0,0,41,35,62,230,-59,3981,5,-6,854,0,0,0,0,0,0,0,0
1298354,-15952,-14648,77805,77805,0,0,39,35,61,221,-68,3988,-4,0,854,0,0,0,0,0,0,0,0
1299355,-15944,-14648,77870,77870,0,0,40,37,63,230,-35,3960,-10,-1,854,0,0,0,0,0,0,0,0
1300356,-15944,-14668,77935,77935,0,0,43,34,62,225,-53,3971,6,1,854,0,0,0,0,0,0,0,0
1301357,-15952,-14660,78000,78000,0,0,42,35,62,214,-62,3952,-9,-4,854,0,0,0,0,0,0,0,0
1302358,-15948,-14664,78065,78065,0,0,42,38,60,203,-58,3971,1,-3,853,0,0,0,0,0,0,0,0
1303359,-15944,-14656,78130,78130,0,0,43,35,59,209,-57,3953,4,-6,854,0,0,0,0,0,0,0,0
1304360,-15940,-14664,78195,78195,0,0,43,34,61,229,-39,3944,-6,-4,854,0,0,0,0,0,0,0,0
1305361,-15948,-14668,78260,78260,0,0,40,32,60,214,-39,3907,8,-9,853,0,0,0,0,0,0,0,0
1306362,-15944,-14664,78325,78325,0,0,41,32,59,225,-39,3937,-1,-9,854,0,0,0,0,0,0,0,0
1307363,-15944,-14664,78390,78390,0,0,43,32,60,225,-56,3917,-7,-7,854,0,0,0,0,0,0,0,0
1308364,-15952,-14656,78455,78455,0,0,42,33,60,190,-45,3911,8,-9,854,0,0,0,0,0,0,0,0
1309365,-15948,-14656,78520,78520,0,0,43,32,61,207,-41,3949,-7,5,854,0,0,0,0,0,0,0,0
1310366,-15956,-14656,78585,78585,0,0,44,33,62,214,-49,3954,3,2,854,0,0,0,0,0,0,0,0
1311367,-15944,-14660,78650,78650,0,0,43,33,60,228,-57,3946,4,3,854,0,0,0,0,0,0,0,0
1312368,-15936,-14656,78715,78715,0,0,41,35,59,227,-66,3942,-10,-2,851,0,0,0,0,0,0,0,0
1313369,-15948,-14660,78780,78780,0,0,40,32,59,212,-56,3976,-10,-8,853,0,0,0,0,0,0,0,0
1314370,-15948,-14648,78845,78845,0,0,41,32,61,232,-68,3944,-1,-9,854,0,0,0,0,0,0,0,0
1315371,-15960,-14656,78910,78910,0,0,42,31,59,217,-66,3924,-4,5,854,0,0,0,0,0,0,0,0
1316372,-15944,-14660,78975,78975,0,0,45,31,60,195,-70,3916,-1,5,853,0,0,0,0,0,0,0,0
1317373,-15944,-14660,79040,79040,0,0,45,34,58,213,-80,3902,-8,5,854,0,0,0,0,0,0,0,0
1318374,-15940,-14660,79105,79105,0,0,42,35,58,207,-49,3895,8,5,854,0,0,0,0,0,0,0,0
1319375,-15948,-14660,79170,79170,0,0,43,34,59,226,-41,3906,-8,5,854,0,0,0,0,0,0,0,0
1320376,-15936,-14660,79235,79235,0,0,44,33,59,206,-41,3933,7,5,854,0,0,0,0,0,0,0,0
1321377,-15944,-14668,79300,79300,0,0,45,31,60,201,-37,3949,-10,5,854,0,0,0,0,0,0,0,0
1322378,-15952,-14676,79365,79365,0,0,45,31,59,222,-45,3951,8,4,854,0,0,0,0,0,0,0,0
1323379,-15948,-14656,79430,79430,0,0,42,32,57,205,-44,3934,-6,5,854,0,0,0,0,0,0,0,0
1324380,-15944,-14660,79495,79495,0,0,41,34,59,212,-69,3940,-7,4,854,0,0,0,0,0,0,0,0
1325381,-15956,-14648,79560,79560,0,0,41,34,62,218,-59,3950,1,-2,854,0,0,0,0,0,0,0,0
1326382,-15952,-14656,79625,79625,0,0,43,36,61,230,-69,3949,-10,-1,854,0,0,0,0,0,0,0,0
1327383,-15944,-14664,79690,79690,0,0,43,34,60,194,-57,3946,8,-5,854,0,0,0,0,0,0,0,0
1328384,-15944,-14660,79755,79755,0,0,44,32,61,217,-46,3938,-11,1,854,0,0,0,0,0,0,0,0
1329385,-15940,-14664,79820,79820,0,0,42,33,63,193,-17,3929,7,2,851,0,0,0,0,0,0,0,0
1330386,-15952,-14660,79885,79885,0,0,43,36,62,197,-35,3939,3,-5,854,0,0,0,0,0,0,0,0
1331387,-15948,-14656,79950,79950,0,0,44,36,63,214,-33,3949,-9,-2,854,0,0,0,0,0,0,0,0
1332388,-15948,-14656,80015,80015,0,0,43,36,62,198,-52,3920,8,-8,854,0,0,0,0,0,0,0,0
1333389,-15960,-14656,80080,80080,0,0,44,34,61,195,-61,3938,-5,5,854,0,0,0,0,0,0,0,0
1334390,-15940,-14664,80145,80145,0,0,44,33,61,214,-39,3954,7,5,854,0,0,0,0,0,0,0,0
1335391,-15948,-14652,80210,80210,0,0,44,33,60,203,-53,3972,-5,5,853,0,0,0,0,0,0,0,0
1336392,-15948,-14656,80275,80275,0,0,42,34,59,219,-61,3954,-5,1,854,0,0,0,0,0,0,0,0
1337393,-15952,-14656,80340,80340,0,0,42,34,60,199,-60,3941,4,-3,854,0,0,0,0,0,0,0,0
1338394,-15940,-14664,80405,80405,0,0,43,35,62,213,-47,3937,-11,4,854,0,0,0,0,0,0,0,0
1339395,-15948,-14672,80470,80470,0,0,45,33,61,216,-63,3961,5,-4,854,0,0,0,0,0,0,0,0
1340396,-15948,-14668,80535,80535,0,0,46,31,61,219,-85,3945,-7,-8,853,0,0,0,0,0,0,0,0
1341397,-15952,-14664,80600,80600,0,0,45,34,63,213,-79,3935,3,-8,854,0,0,0,0,0,0,0,0
1342398,-15952,-14656,80665,80665,0,0,45,33,62,213,-55,3962,5,-10,854,0,0,0,0,0,0,0,0
1343399,-15944,-14656,80730,80730,0,0,43,32,58,228,-47,3979,-10,5,854,0,0,0,0,0,0,0,0
1344400,-15948,-14652,80795,80795,0,0,42,34,57,219,-47,3948,4,4,854,0,0,0,0,0,0,0,0
1345401,-15948,-14664,80860,80860,0,0,43,34,61,215,-28,3943,0,0,854,0,0,0,0,0,0,0,0
1346402,-15948,-14660,80925,80925,0,0,43,34,61,232,-16,3959,-5,-8,852,0,0,0,0,0,0,0,0
1347403,-15940,-14652,80990,80990,0,0,41,33,61,254,-25,3961,-11,3,853,0,0,0,0,0,0,0,0
1348404,-15948,-14668,81055,81055,0,0,42,33,61,225,-78,3966,8,-2,854,0,0,0,0,0,0,0,0
1349405,-15952,-14668,81120,81120,0,0,43,33,60,209,-49,3965,-7,-6,854,0,0,0,0,0,0,0,0
1350406,-15944,-14660,81185,81185,0,0,43,32,58,203,-30,3943,1,-9,854,0,0,0,0,0,0,0,0
1351407,-15944,-14656,81250,81250,0,0,46,31,56,203,-44,3959,3,5,854,0,0,0,0,0,0,0,0
1352408,-15948,-14652,81315,81315,0,0,45,34,56,216,-50,3982,-4,4,854,0,0,0,0,0,0,0,0
1353409,-15948,-14672,81380,81380,0,0,43,36,58,221,-45,3965,7,4,854,0,0,0,0,0,0,0,0
1354410,-15948,-14664,81445,81445,0,0,43,36,59,205,-34,3900,-9,-1,854,0,0,0,0,0,0,0,0
1355411,-15940,-14656,81510,81510,0,0,41,34,60,221,-39,3952,6,-3,854,0,0,0,0,0,0,0,0
1356412,-15948,-14660,81575,81575,0,0,42,31,60,218,-60,3991,-4,-6,854,0,0,0,0,0,0,0,0
1357413,-15948,-14660,81640,81640,0,0,45,32,59,216,-56,3968,-1,-9,854,0,0,0,0,0,0,0,0
1358414,-15948,-14664,81705,81705,0,0,47,32,61,212,-39,3938,-2,-9,854,0,0,0,0,0,0,0,0
1359415,-15940,-14664,81770,81770,0,0,45,33,61,216,-55,3927,-10,-6,854,0,0,0,0,0,0,0,0
1360416,-15936,-14668,81835,81835,0,0,41,34,57,189,-47,3959,7,-9,854,0,0,0,0,0,0,0,0
1361417,-15940,-14652,81900,81900,0,0,40,34,59,197,-27,3973,-9,-9,854,0,0,0,0,0,0,0,0
1362418,-15940,-14672,81965,81965,0,0,40,35,62,210,-44,3976,-7,-9,854,0,0,0,0,0,0,0,0
1363419,-15952,-14664,82030,82030,0,0,41,35,59,195,-46,3964,8,-6,851,0,0,0,0,0,0,0,0
1364420,-15944,-14660,82095,82095,0,0,43,35,61,200,-36,3943,6,5,854,0,0,0,0,0,0,0,0
1365421,-15940,-14656,82160,82160,0,0,43,35,60,208,-53,3957,-10,2,854,0,0,0,0,0,0,0,0
1366422,-15960,-14676,82225,82225,0,0,43,39,60,219,-33,3950,7,5,853,0,0,0,0,0,0,0,0
1367423,-15936,-14656,82290,82290,0,0,43,37,59,211,-52,3964,-7,5,854,0,0,0,0,0,0,0,0
1368424,-15944,-14668,82355,82355,0,0,41,35,61,203,-15,3922,-7,5,853,0,0,0,0,0,0,0,0
1369425,-15948,-14664,82420,82420,0,0,42,35,62,204,-46,3929,8,0,854,0,0,0,0,0,0,0,0
1370426,-15944,-14668,82485,82485,0,0,42,35,59,208,-61,3986,-9,-9,854,0,0,0,0,0,0,0,0
1371427,-15948,-14660,82550,82550,0,0,43,35,58,205,-62,3989,-3,-9,854,0,0,0,0,0,0,0,0
1372428,-15940,-14656,82615,82615,0,0,45,35,61,182,-51,3946,3,-4,854,0,0,0,0,0,0,0,0
1373429,-15936,-14668,82680,82680,0,0,45,37,60,211,-50,3957,-7,2,853,0,0,0,0,0,0,0,0
1374430,-15940,-14668,82745,82745,0,0,46,37,59,210,-29,3923,8,1,853,0,0,0,0,0,0,0,0
1375431,-15944,-14660,82810,82810,0,0,43,34,60,221,-30,3950,-5,3,854,0,0,0,0,0,0,0,0
1376432,-15944,-14648,82875,82875,0,0,41,31,61,235,-38,3919,-4,4,854,0,0,0,0,0,0,0,0
1377433,-15956,-14668,82940,82940,0,0,40,33,62,218,-38,3954,8,2,854,0,0,0,0,0,0,0,0
1378434,-15944,-14660,83005,83005,0,0,39,37,62,217,-41,3968,-7,4,854,0,0,0,0,0,0,0,0
1379435,-15940,-14660,83070,83070,0,0,41,36,60,214,-55,3955,-1,-2,853,0,0,0,0,0,0,0,0
1380436,-15948,-14660,83135,83135,0,0,44,34,59,242,-42,3949,7,-8,851,0,0,0,0,0,0,0,0
1381437,-15948,-14660,83200,83200,0,0,46,32,60,237,-53,3934,1,-4,854,0,0,0,0,0,0,0,0
1382438,-15948,-14664,83265,83265,0,0,44,31,61,219,-42,3938,-10,-2,854,0,0,0,0,0,0,0,0
1383439,-15936,-14660,83330,83330,0,0,43,30,62,219,-51,3943,-8,-1,854,0,0,0,0,0,0,0,0
1384440,-15952,-14652,83395,83395,0,0,42,30,61,215,-47,3962,8,5,854,0,0,0,0,0,0,0,0
1385441,-15944,-14652,83460,83460,0,0,43,29,63,211,-64,3959,-9,-1,854,0,0,0,0,0,0,0,0
1386442,-15952,-14660,83525,83525,0,0,43,30,61,201,-56,3946,2,-2,853,0,0,0,0,0,0,0,0
1387443,-15940,-14660,83590,83590,0,0,44,32,61,203,-50,3950,6,-5,854,0,0,0,0,0,0,0,0
1388444,-15952,-14664,83655,83655,0,0,44,31,64,222,-69,3952,-9,-8,854,0,0,0,0,0,0,0,0
1389445,-15936,-14656,83720,83720,0,0,45,32,62,236,-70,3927,8,-4,854,0,0,0,0,0,0,0,0
1390446,-15940,-14664,83785,83785,0,0,46,32,60,207,-64,3923,-6,-1,854,0,0,0,0,0,0,0,0
1391447,-15948,-14656,83850,83850,0,0,46,31,62,198,-47,3930,1,-3,854,0,0,0,0,0,0,0,0
1392448,-15948,-14668,83915,83915,0,0,45,30,63,207,-44,3974,3,-8,854,0,0,0,0,0,0,0,0
1393449,-15944,-14664,83980,83980,0,0,44,29,63,218,-57,3980,-9,-7,854,0,0,0,0,0,0,0,0
1394450,-15936,-14672,84045,84045,0,0,45,33,62,205,-65,3932,7,-9,854,0,0,0,0,0,0,0,0
1395451,-15952,-14652,84110,84110,0,0,42,34,60,202,-56,3929,-4,-8,854,0,0,0,0,0,0,0,0
1396452,-15932,-14668,84175,84175,0,0,43,35,59,205,-39,3948,-3,-9,853,0,0,0,0,0,0,0,0
1397453,-15952,-14668,84240,84240,0,0,41,33,60,227,-39,3959,2,-9,852,0,0,0,0,0,0,0,0
1398454,-15948,-14668,84305,84305,0,0,43,32,63,222,-35,3939,8,-7,854,0,0,0,0,0,0,0,0
1399455,-15952,-14668,84370,84370,0,0,45,35,61,192,-39,3956,-8,-3,853,0,0,0,0,0,0,0,0
1400456,-15948,-14660,84435,84435,0,0,47,37,60,209,-74,3961,7,2,853,0,0,0,0,0,0,0,0
1401457,-15948,-14660,84500,84500,0,0,46,37,58,212,-39,3963,-10,-4,854,0,0,0,0,0,0,0,0
1402458,-15948,-14664,84565,84565,0,0,44,36,60,226,-52,3941,5,-1,854,0,0,0,0,0,0,0,0
1403459,-15940,-14668,84630,84630,0,0,45,34,59,224,-85,3967,-5,1,854,0,0,0,0,0,0,0,0
1404460,-15944,-14656,84695,84695,0,0,45,34,59,208,-64,3993,-6,-5,854,0,0,0,0,0,0,0,0
1405461,-15944,-14660,84760,84760,0,0,46,35,61,195,-46,3954,6,4,854,0,0,0,0,0,0,0,0
1406462,-15944,-14648,84825,84825,0,0,44,36,59,184,-25,3956,-6,-1,854,0,0,0,0,0,0,0,0
1407463,-15944,-14660,84890,84890,0,0,41,35,59,214,-44,3914,8,4,854,0,0,0,0,0,0,0,0
1408464,-15948,-14652,84955,84955,0,0,41,34,58,234,-41,3947,-10,1,854,0,0,0,0,0,0,0,0
1409465,-15940,-14664,85020,85020,0,0,43,33,59,246,-50,3970,7,1,854,0,0,0,0,0,0,0,0
1410466,-15948,-14660,85085,85085,0,0,42,34,60,257,-48,3952,-10,5,854,0,0,0,0,0,0,0,0
1411467,-15944,-14660,85150,85150,0,0,42,34,59,205,-63,3935,7,-9,854,0,0,0,0,0,0,0,0
1412468,-15952,-14652,85215,85215,0,0,42,33,59,205,-36,3922,-10,-9,853,0,0,0,0,0,0,0,0
1413469,-15940,-14660,85280,85280,0,0,44,34,61,223,-17,3931,8,3,853,0,0,0,0,0,0,0,0
1414470,-15944,-14672,85345,85345,0,0,41,32,59,207,-52,3955,-7,5,851,0,0,0,0,0,0,0,0
1415471,-15948,-14660,85410,85410,0,0,38,30,59,212,-42,3933,-6,-7,854,0,0,0,0,0,0,0,0
1416472,-15944,-14664,85475,85475,0,0,40,30,59,230,-27,3964,5,-6,854,0,0,0,0,0,0,0,0
1417473,-15944,-14668,85540,85540,0,0,43,34,61,226,-47,3973,-11,-4,854,0,0,0,0,0,0,0,0
1418474,-15944,-14668,85605,85605,0,0,43,34,60,223,-63,3963,8,-5,853,0,0,0,0,0,0,0,0
1419475,-15948,-14664,85670,85670,0,0,43,34,57,210,-63,3960,-7,-6,853,0,0,0,0,0,0,0,0
1420476,-15948,-14668,85735,85735,0,0,45,34,57,216,-52,3993,1,-2,854,0,0,0,0,0,0,0,0
