%  Data file recorded 2016/10/7  0:15:13
%  Stride Frequency         = [1, 1]
%  Lead In /Lead Out        = 
%  Deltas (Fractional)      = [0.25, 0.25, 0.25],[0.25, 0.25, 0.25]
%  Phase                    = 32768
%  Experiment.py 
%  Motor Gains    = [5000, 400, 200, 0, 300, 5000, 400, 200, 0, 300]
% Columns: 
% time | Right Leg Pos | Left Leg Pos | Commanded Right Leg Pos | Commanded Left Leg Pos | DCR | DCL | GyroX | GyroY | GyroZ | AX | AY | AZ | RBEMF | LBEMF | VBatt | S1 | S2 | S3 | S4 | S5 | S6 | S7 | S8
416,19236,-16988,17510,-15258,3800,3800,-17,-6,2,-68,27,3911,0,9,886,1788,1868,2043,2240,2028,1792,1858,1967
1417,19240,-16980,17510,-15258,3800,3800,-17,-7,1,-78,7,3910,-1,1,885,1788,1868,2043,2240,2028,1792,1858,1967
2418,19244,-16988,17510,-15258,3800,3800,-14,-6,0,-87,25,3911,14,0,885,1788,1868,2043,2240,2028,1792,1858,1967
3419,19232,-16980,17510,-15258,3800,3800,-14,-3,1,-76,56,3930,-2,5,885,1788,1868,2043,2240,2028,1792,1858,1967
4420,19236,-16980,17510,-15258,3800,3800,-14,-3,1,-86,49,3930,-1,4,885,1786,1870,2044,2239,2031,1792,1860,1968
5421,19248,-16980,17510,-15258,3800,3800,-13,-5,0,-97,40,3964,11,8,885,1786,1870,2044,2239,2031,1792,1860,1968
6422,19232,-16980,17510,-15258,3800,3800,-13,-2,-1,-73,32,3928,12,9,885,1786,1870,2044,2239,2031,1792,1860,1968
7423,19240,-16980,17510,-15258,3800,3800,-14,-1,0,-92,27,3930,7,3,885,1786,1870,2044,2239,2031,1792,1860,1968
8425,19220,-16988,17510,-15258,3800,3800,-15,-2,-1,-68,31,3954,-5,3,885,1786,1870,2044,2239,2031,1792,1860,1968
9425,19228,-16984,17510,-15258,3800,3800,-15,-2,-2,-75,31,3951,-4,6,885,1785,1866,2040,2236,2027,1791,1857,1965
10426,19240,-16988,17510,-15258,3800,3800,-14,-4,-1,-76,9,3930,11,1,885,1785,1866,2040,2236,2027,1791,1857,1965
11427,19228,-16984,17510,-15258,3800,3800,-13,-6,1,-58,-5,3953,10,1,885,1785,1866,2040,2236,2027,1791,1857,1965
12428,19236,-16996,17510,-15258,3800,3800,-15,-6,3,-66,-6,3951,1,-3,885,1785,1866,2040,2236,2027,1791,1857,1965
13429,19244,-16988,17510,-15258,3800,3800,-17,-4,3,-68,15,3939,-5,-3,885,1785,1866,2040,2236,2027,1791,1857,1965
14430,19220,-16984,17510,-15258,3800,3800,-16,-6,2,-73,36,3941,6,-4,885,1785,1866,2040,2236,2027,1791,1857,1965
15431,19228,-16992,17510,-15258,3800,3800,-14,-7,0,-61,47,3900,11,-3,885,1788,1868,2042,2238,2028,1792,1857,1968
16432,19232,-16984,17510,-15258,3800,3800,-14,-5,0,-68,6,3934,12,3,885,1788,1868,2042,2238,2028,1792,1857,1968
17433,19228,-16992,17510,-15258,3800,3800,-14,-2,2,-83,-23,3956,-4,6,885,1788,1868,2042,2238,2028,1792,1857,1968
18434,19240,-16980,17510,-15258,3800,3800,-15,0,2,-84,19,3934,-5,4,885,1788,1868,2042,2238,2028,1792,1857,1968
19435,19240,-16992,17510,-15258,3800,3800,-16,-1,0,-89,13,3954,7,8,884,1788,1868,2042,2238,2028,1792,1857,1968
20436,19228,-16992,17510,-15258,3800,3800,-19,1,2,-90,27,3939,14,-1,885,1786,1867,2042,2239,2029,1793,1859,1969
21437,19236,-16996,17510,-15258,3800,3800,-20,-1,2,-76,48,3916,11,-3,885,1786,1867,2042,2239,2029,1793,1859,1969
22438,19236,-16976,17510,-15258,3800,3800,-18,-3,1,-72,35,3903,-3,2,885,1786,1867,2042,2239,2029,1793,1859,1969
23439,19248,-16996,17510,-15258,3800,3800,-17,-2,-1,-100,33,3934,-2,0,885,1786,1867,2042,2239,2029,1793,1859,1969
24440,19244,-16980,17510,-15258,3800,3800,-18,-4,1,-92,31,3957,0,4,885,1786,1867,2042,2239,2029,1793,1859,1969
25441,19232,-16980,17510,-15258,3800,3800,-18,-3,0,-92,32,3958,10,10,885,1786,1867,2042,2239,2029,1793,1859,1969
26442,19240,-16996,17510,-15258,3800,3800,-15,-2,2,-87,20,3946,5,11,885,1788,1870,2044,2239,2030,1793,1860,1968
27443,19240,-16988,17510,-15258,3800,3800,-15,-2,1,-79,15,3963,-4,11,885,1788,1870,2044,2239,2030,1793,1860,1968
28444,19232,-16988,17510,-15258,3800,3800,-15,-1,1,-67,29,3958,0,9,885,1788,1870,2044,2239,2030,1793,1860,1968
29445,19236,-16984,17510,-15258,3800,3800,-16,-3,0,-85,51,3954,13,9,885,1788,1870,2044,2239,2030,1793,1860,1968
30446,19232,-16980,17510,-15258,3800,3800,-17,-4,0,-44,45,3970,13,7,885,1788,1870,2044,2239,2030,1793,1860,1968
31447,19236,-16996,17510,-15258,3800,3800,-17,-2,0,-73,63,3942,-3,-1,885,1786,1867,2042,2238,2027,1791,1857,1966
32448,19224,-16992,17510,-15258,3800,3800,-19,-2,-1,-75,34,3914,2,1,885,1786,1867,2042,2238,2027,1791,1857,1966
33449,19248,-16976,17510,-15258,3800,3800,-17,-2,-2,-94,6,3960,9,0,885,1786,1867,2042,2238,2027,1791,1857,1966
34450,19232,-16984,17510,-15258,3800,3800,-15,-2,-1,-83,11,3948,13,-4,885,1786,1867,2042,2238,2027,1791,1857,1966
35451,19236,-16988,17510,-15258,3800,3800,-16,1,0,-88,7,3920,12,-4,885,1786,1867,2042,2238,2027,1791,1857,1966
36452,19236,-16984,17510,-15258,3800,3800,-17,0,0,-79,25,3961,11,-4,884,1786,1867,2042,2238,2027,1791,1857,1966
37453,19244,-16980,17510,-15258,3800,3800,-15,-2,1,-76,27,3923,4,-4,885,1788,1868,2044,2240,2029,1792,1858,1968
38454,19232,-16984,17510,-15258,3800,3800,-17,-2,1,-88,18,3911,-5,-4,885,1788,1868,2044,2240,2029,1792,1858,1968
39455,19228,-16984,17510,-15258,3800,3800,-17,-3,1,-68,-1,3921,-6,-3,885,1788,1868,2044,2240,2029,1792,1858,1968
40456,19240,-16992,17510,-15258,3800,3800,-17,-1,1,-73,22,3931,0,-4,885,1788,1868,2044,2240,2029,1792,1858,1968
41457,19232,-16988,17510,-15258,3800,3800,-17,-1,1,-99,22,3909,10,-4,885,1788,1868,2044,2240,2029,1792,1858,1968
42458,19232,-16988,17510,-15258,3800,3800,-18,-2,1,-83,25,3941,14,-4,885,1787,1867,2042,2238,2027,1791,1858,1966
43459,19228,-16984,17510,-15258,3800,3800,-16,-2,3,-76,30,3914,11,1,885,1787,1867,2042,2238,2027,1791,1858,1966
44460,19244,-16980,17510,-15258,3800,3800,-15,-3,4,-79,38,3910,-3,1,885,1787,1867,2042,2238,2027,1791,1858,1966
45461,19236,-16988,17510,-15258,3800,3800,-13,-5,4,-65,33,3911,-5,2,885,1787,1867,2042,2238,2027,1791,1858,1966
46462,19240,-16988,17510,-15258,3800,3800,-14,-5,1,-71,51,3944,-5,10,885,1787,1867,2042,2238,2027,1791,1858,1966
47463,19240,-16988,17510,-15258,3800,3800,-17,-5,-2,-88,44,3929,2,10,885,1787,1867,2042,2238,2027,1791,1858,1966
48464,19228,-16988,17510,-15258,3800,3800,-19,-1,-1,-85,36,3922,4,10,885,1788,1868,2044,2240,2027,1790,1857,1965
49465,19236,-16988,17510,-15258,3800,3800,-15,-3,2,-72,59,3912,14,9,885,1788,1868,2044,2240,2027,1790,1857,1965
50466,19244,-16992,17510,-15258,3800,3800,-11,-3,1,-88,36,3902,11,9,885,1788,1868,2044,2240,2027,1790,1857,1965
51467,19228,-16988,17510,-15258,3800,3800,-12,-2,2,-96,20,3902,9,8,885,1788,1868,2044,2240,2027,1790,1857,1965
52468,19236,-16988,17510,-15258,3800,3800,-14,0,0,-78,29,3942,-3,2,885,1788,1868,2044,2240,2027,1790,1857,1965
53469,19236,-16976,17510,-15258,3800,3800,-14,-5,3,-97,48,3962,-6,4,884,1784,1865,2041,2237,2027,1791,1857,1967
54470,19232,-16996,17510,-15258,3800,3800,-15,-7,4,-91,15,3918,-6,11,885,1784,1865,2041,2237,2027,1791,1857,1967
55471,19240,-16988,17510,-15258,3800,3800,-12,-4,5,-97,16,3898,-4,11,885,1784,1865,2041,2237,2027,1791,1857,1967
56472,19228,-16988,17510,-15258,3800,3800,-13,-3,3,-105,20,3898,2,11,885,1784,1865,2041,2237,2027,1791,1857,1967
57473,19240,-16988,17510,-15258,3800,3800,-15,-2,2,-98,24,3905,3,9,885,1784,1865,2041,2237,2027,1791,1857,1967
58474,19240,-16972,17510,-15258,3800,3800,-15,-4,1,-87,29,3933,12,11,886,1784,1865,2041,2237,2027,1791,1857,1967
59475,19240,-16988,17510,-15258,3800,3800,-14,-5,0,-87,29,3918,12,8,885,1784,1867,2042,2240,2027,1790,1857,1966
60476,19232,-16984,17510,-15258,3800,3800,-14,-4,3,-81,26,3876,12,6,886,1784,1867,2042,2240,2027,1790,1857,1966
61477,19232,-16980,17510,-15258,3800,3800,-14,-3,3,-74,16,3908,1,6,885,1784,1867,2042,2240,2027,1790,1857,1966
62478,19224,-16988,17510,-15258,3800,3800,-14,-2,3,-78,25,3956,-5,2,885,1784,1867,2042,2240,2027,1790,1857,1966
63479,19228,-16976,17510,-15258,3800,3800,-12,-4,1,-79,46,3954,-1,-2,885,1784,1867,2042,2240,2027,1790,1857,1966
64480,19220,-16976,17510,-15258,3800,3800,-12,-4,-1,-94,16,3924,14,-1,885,1786,1868,2043,2238,2029,1792,1859,1967
65481,19232,-16988,17510,-15258,3800,3800,-14,-4,2,-90,-17,3909,0,-2,885,1786,1868,2043,2238,2029,1792,1859,1967
66482,19232,-16976,17510,-15258,3800,3800,-14,-5,2,-79,28,3928,-4,-3,885,1786,1868,2043,2238,2029,1792,1859,1967
67483,19240,-16988,17510,-15258,3800,3800,-13,-4,-1,-78,39,3910,-5,-1,885,1786,1868,2043,2238,2029,1792,1859,1967
68484,19224,-17000,17510,-15258,3800,3800,-13,-6,0,-89,38,3914,1,-2,885,1786,1868,2043,2238,2029,1792,1859,1967
69485,19236,-16988,17510,-15258,3800,3800,-14,-7,0,-82,33,3914,6,-4,885,1786,1868,2043,2238,2029,1792,1859,1967
70486,19240,-16988,17510,-15258,3800,3800,-16,-6,0,-65,39,3934,14,-4,884,1785,1867,2042,2238,2029,1793,1859,1969
71487,19236,-16980,17510,-15258,3800,3800,-17,-9,0,-100,22,3908,4,0,886,1785,1867,2042,2238,2029,1793,1859,1969
72488,19232,-16988,17510,-15258,3800,3800,-16,-7,-2,-105,46,3942,5,8,885,1785,1867,2042,2238,2029,1793,1859,1969
73489,19236,-16988,17510,-15258,3800,3800,-18,-5,-4,-95,26,3911,-5,7,885,1785,1867,2042,2238,2029,1793,1859,1969
74490,19224,-16976,17510,-15258,3800,3800,-19,-7,-2,-101,42,3929,-4,10,886,1785,1867,2042,2238,2029,1793,1859,1969
75491,19232,-16976,17510,-15258,3800,3800,-17,-8,-1,-97,19,3943,0,11,885,1785,1867,2043,2238,2029,1792,1858,1967
76492,19232,-16984,17510,-15258,3800,3800,-14,-5,1,-93,1,3925,7,8,885,1785,1867,2043,2238,2029,1792,1858,1967
77493,19240,-16992,17510,-15258,3800,3800,-13,-3,1,-66,9,3947,13,9,886,1785,1867,2043,2238,2029,1792,1858,1967
78494,19228,-16984,17510,-15258,3800,3800,-14,-2,-2,-80,41,3948,14,11,885,1785,1867,2043,2238,2029,1792,1858,1967
79495,19220,-16980,17510,-15258,3800,3800,-16,-4,-2,-92,29,3966,14,9,885,1785,1867,2043,2238,2029,1792,1858,1967
80496,19232,-16980,17510,-15258,3800,3800,-18,-5,0,-83,34,3974,7,11,885,1785,1867,2043,2238,2029,1792,1858,1967
81497,19240,-16992,17510,-15258,3800,3800,-18,-5,-1,-98,24,3968,2,9,885,1786,1867,2045,2240,2029,1792,1857,1967
82498,19236,-16988,17510,-15258,3800,3800,-18,-4,0,-76,7,3943,-4,10,885,1786,1867,2045,2240,2029,1792,1857,1967
83499,19228,-16996,17510,-15258,3800,3800,-16,-4,-1,-79,22,3929,4,9,885,1786,1867,2045,2240,2029,1792,1857,1967
84500,19224,-16984,17510,-15258,3800,3800,-15,-5,-1,-98,26,3949,9,7,885,1786,1867,2045,2240,2029,1792,1857,1967
85501,19228,-16984,17510,-15258,3800,3800,-16,-3,-3,-63,14,3925,14,10,885,1786,1867,2045,2240,2029,1792,1857,1967
86502,19244,-16988,17510,-15258,3800,3800,-19,-1,-2,-81,6,3954,9,8,885,1786,1867,2043,2238,2029,1793,1858,1968
87503,19228,-16992,17510,-15258,3800,3800,-18,-2,-3,-87,50,3984,1,7,884,1786,1867,2043,2238,2029,1793,1858,1968
88504,19236,-16992,17510,-15258,3800,3800,-17,-2,-2,-82,43,3980,-5,9,886,1786,1867,2043,2238,2029,1793,1858,1968
89505,19240,-16988,17510,-15258,3800,3800,-16,-2,2,-100,28,3960,-6,11,885,1786,1867,2043,2238,2029,1793,1858,1968
90506,19228,-16988,17510,-15258,3800,3800,-18,1,1,-66,7,3918,-5,9,886,1786,1867,2043,2238,2029,1793,1858,1968
91507,19236,-16976,17510,-15258,3800,3800,-16,0,-1,-55,12,3925,4,-2,885,1786,1867,2043,2238,2029,1793,1858,1968
92508,19232,-16988,17510,-15258,3800,3800,-16,-3,-1,-90,34,3941,13,-4,885,1786,1866,2043,2240,2027,1792,1857,1966
93509,19236,-16980,17510,-15258,3800,3800,-14,-4,2,-84,37,3915,11,-4,885,1786,1866,2043,2240,2027,1792,1857,1966
94510,19244,-16984,17510,-15258,3800,3800,-16,-3,3,-84,41,3938,-1,-3,885,1786,1866,2043,2240,2027,1792,1857,1966
95511,19232,-16984,17510,-15258,3800,3800,-15,-1,1,-94,24,3922,-2,-3,886,1786,1866,2043,2240,2027,1792,1857,1966
96512,19228,-16988,17510,-15258,3800,3800,-16,0,0,-83,6,3912,2,-3,885,1786,1866,2043,2240,2027,1792,1857,1966
97513,19236,-16984,17510,-15258,3800,3800,-16,0,2,-77,55,3935,13,3,885,1786,1867,2044,2239,2027,1791,1857,1966
98514,19236,-16988,17510,-15258,3800,3800,-16,-1,3,-71,35,3922,-6,5,886,1786,1867,2044,2239,2027,1791,1857,1966
99515,19240,-16992,17510,-15258,3800,3800,-16,-1,5,-67,19,3918,-1,4,885,1786,1867,2044,2239,2027,1791,1857,1966
100516,19224,-16984,17510,-15258,3800,3800,-18,-2,3,-71,4,3919,14,9,885,1786,1867,2044,2239,2027,1791,1857,1966
101517,19244,-16992,17510,-15258,3800,3800,-17,-3,1,-101,26,3895,6,10,885,1786,1867,2044,2239,2027,1791,1857,1966
102518,19236,-16984,17510,-15258,3800,3800,-16,-2,2,-102,28,3887,-3,10,885,1786,1867,2044,2239,2027,1791,1857,1966
103519,19228,-16980,17510,-15258,3800,3800,-16,-2,6,-108,36,3908,0,5,885,1785,1866,2042,2240,2027,1792,1858,1967
104520,19244,-16992,17510,-15258,3800,3800,-16,-3,7,-80,27,3910,12,1,884,1785,1866,2042,2240,2027,1792,1858,1967
105521,19240,-16980,17510,-15258,3800,3800,-15,-3,5,-96,28,3928,6,5,885,1785,1866,2042,2240,2027,1792,1858,1967
106522,19228,-16988,17510,-15258,3800,3800,-13,-2,3,-132,27,3932,-5,-2,885,1785,1866,2042,2240,2027,1792,1858,1967
107523,19240,-16984,17510,-15258,3800,3800,-11,-4,4,-80,36,3919,7,-3,885,1785,1866,2042,2240,2027,1792,1858,1967
108524,19240,-16992,17510,-15258,3800,3800,-13,-5,3,-86,48,3937,11,-4,885,1785,1866,2043,2238,2028,1790,1857,1965
109525,19232,-16980,17510,-15258,3800,3800,-13,-3,3,-82,23,3933,13,-2,886,1785,1866,2043,2238,2028,1790,1857,1965
110526,19236,-16984,17510,-15258,3800,3800,-14,0,2,-85,36,3967,9,0,885,1785,1866,2043,2238,2028,1790,1857,1965
111527,19240,-16988,17510,-15258,3800,3800,-13,-1,3,-85,26,3926,3,5,885,1785,1866,2043,2238,2028,1790,1857,1965
112528,19232,-16984,17510,-15258,3800,3800,-12,-4,5,-100,27,3925,-5,10,885,1785,1866,2043,2238,2028,1790,1857,1965
113529,19224,-16984,17510,-15258,3800,3800,-11,-6,6,-68,1,3912,2,10,886,1785,1866,2043,2238,2028,1790,1857,1965
114530,19232,-16984,17510,-15258,3800,3800,-12,-4,4,-48,22,3935,9,10,885,1786,1868,2044,2240,2028,1792,1858,1967
115531,19232,-16976,17510,-15258,3800,3800,-13,-2,5,-66,17,3949,13,10,885,1786,1868,2044,2240,2028,1792,1858,1967
116532,19244,-16984,17510,-15258,3800,3800,-13,-6,3,-61,14,3914,4,9,885,1786,1868,2044,2240,2028,1792,1858,1967
117533,19228,-16984,17510,-15258,3800,3800,-11,-6,2,-70,28,3902,4,8,885,1786,1868,2044,2240,2028,1792,1858,1967
118534,19232,-16988,17510,-15258,3800,3800,-11,-5,2,-77,29,3952,-2,11,885,1786,1868,2044,2240,2028,1792,1858,1967
119535,19216,-16984,17510,-15258,3800,3800,-10,-4,3,-71,31,3938,-5,11,885,1785,1867,2043,2237,2028,1792,1859,1968
120536,19224,-16992,17510,-15258,3800,3800,-12,-4,2,-72,39,3946,-5,11,885,1785,1867,2043,2237,2028,1792,1859,1968
121537,19224,-16980,17510,-15258,3800,3800,-14,-3,0,-61,37,3916,3,6,884,1785,1867,2043,2237,2028,1792,1859,1968
122538,19232,-16968,17510,-15258,3800,3800,-12,-3,2,-71,10,3952,11,10,885,1785,1867,2043,2237,2028,1792,1859,1968
123539,19240,-16984,17510,-15258,3800,3800,-13,-4,0,-66,38,3940,11,10,885,1785,1867,2043,2237,2028,1792,1859,1968
124540,19220,-16980,17510,-15258,3800,3800,-13,-6,0,-75,36,3914,13,7,885,1785,1867,2043,2237,2028,1792,1859,1968
125541,19240,-16992,17510,-15258,3800,3800,-14,-6,1,-85,39,3949,4,10,885,1785,1867,2043,2240,2029,1792,1858,1967
126542,19236,-16988,17510,-15258,3800,3800,-15,-4,1,-50,44,3932,-3,11,885,1785,1867,2043,2240,2029,1792,1858,1967
127543,19240,-16984,17510,-15258,3800,3800,-18,-3,-1,-82,28,3924,-3,10,885,1785,1867,2043,2240,2029,1792,1858,1967
128544,19240,-16976,17510,-15258,3800,3800,-17,-5,-1,-78,16,3925,8,11,885,1785,1867,2043,2240,2029,1792,1858,1967
129545,19228,-16984,17510,-15258,3800,3800,-15,-5,-1,-63,25,3959,14,11,885,1785,1867,2043,2240,2029,1792,1858,1967
130546,19236,-16988,17510,-15258,3800,3800,-18,-3,-4,-64,43,3956,9,10,885,1785,1869,2045,2239,2030,1793,1858,1967
131547,19236,-16976,17510,-15258,3800,3800,-17,-2,-4,-81,35,3933,-5,10,885,1785,1869,2045,2239,2030,1793,1858,1967
132548,19244,-16992,17510,-15258,3800,3800,-17,-2,-3,-101,3,3927,-5,10,885,1785,1869,2045,2239,2030,1793,1858,1967
133549,19232,-16984,17510,-15258,3800,3800,-17,-2,-3,-73,10,3952,11,6,886,1785,1869,2045,2239,2030,1793,1858,1967
134550,19232,-16988,17510,-15258,3800,3800,-19,-4,-5,-68,40,3918,14,6,885,1785,1869,2045,2239,2030,1793,1858,1967
135557,19232,-16984,17510,-15258,3800,3800,-17,-6,-3,-83,27,3920,7,3,885,1785,1869,2045,2239,2030,1793,1858,1967
136552,19240,-16984,17510,-15258,3800,3800,-17,-3,-3,-90,25,3935,-5,2,886,1786,1867,2044,2240,2029,1793,1859,1969
137553,19244,-16976,17510,-15258,3800,3800,-16,-3,-3,-73,39,3943,-6,0,885,1786,1867,2044,2240,2029,1793,1859,1969
138554,19248,-16980,17510,-15258,3800,3800,-19,-3,-2,-73,31,3940,-4,-2,884,1786,1867,2044,2240,2029,1793,1859,1969
139555,19232,-16984,17510,-15258,3800,3800,-20,1,0,-79,2,3960,-3,-3,885,1786,1867,2044,2240,2029,1793,1859,1969
140556,19232,-16988,17510,-15258,3800,3800,-18,-4,-1,-90,20,3939,2,-4,885,1786,1867,2044,2240,2029,1793,1859,1969
141557,19228,-16972,17510,-15258,3800,3800,-17,-5,-2,-63,21,3932,14,-2,885,1785,1867,2044,2238,2027,1791,1857,1966
142558,19240,-16972,17510,-15258,3800,3800,-16,-2,-3,-68,13,3947,7,1,885,1785,1867,2044,2238,2027,1791,1857,1966
143559,19232,-16980,17510,-15258,3800,3800,-15,0,-1,-84,24,3933,2,6,885,1785,1867,2044,2238,2027,1791,1857,1966
144560,19236,-16992,17510,-15258,3800,3800,-17,-1,2,-96,18,3954,-5,11,885,1785,1867,2044,2238,2027,1791,1857,1966
145561,19232,-16984,17510,-15258,3800,3800,-16,-4,0,-56,35,3945,5,9,885,1785,1867,2044,2238,2027,1791,1857,1966
146562,19240,-16988,17510,-15258,3800,3800,-17,-4,-4,-88,10,3944,14,9,885,1786,1868,2044,2238,2027,1791,1857,1966
147563,19228,-16992,17510,-15258,3800,3800,-16,-2,-4,-102,22,3945,0,2,885,1786,1868,2044,2238,2028,1792,1856,1968
148564,19240,-16988,17510,-15258,3800,3800,-16,-2,-2,-80,14,3922,-3,0,885,1786,1868,2044,2238,2028,1792,1856,1968
149565,19236,-16980,17510,-15258,3800,3800,-17,-2,0,-70,22,3929,4,-2,885,1786,1868,2044,2238,2028,1792,1856,1968
150566,19240,-16992,17510,-15258,3800,3800,-17,-2,1,-70,32,3955,13,-4,885,1786,1868,2044,2238,2028,1792,1856,1968
151567,19228,-16976,17510,-15258,3800,3800,-15,-1,3,-78,17,3944,7,-4,885,1786,1868,2044,2238,2028,1792,1856,1968
152568,19236,-16984,17510,-15258,3800,3800,-14,-3,2,-66,25,3910,0,-3,885,1785,1866,2042,2237,2027,1790,1857,1967
153569,19232,-16992,17510,-15258,3800,3800,-16,-1,3,-76,34,3917,-4,2,885,1785,1866,2042,2237,2027,1790,1857,1967
154570,19240,-16980,17510,-15258,3800,3800,-15,-1,4,-64,43,3932,10,3,885,1785,1866,2042,2237,2027,1790,1857,1967
155571,19244,-16976,17510,-15258,3800,3800,-13,-3,2,-62,9,3910,13,-4,884,1785,1866,2042,2237,2027,1790,1857,1967
156572,19236,-16980,17510,-15258,3800,3800,-12,-5,2,-64,26,3933,13,0,885,1785,1866,2042,2237,2027,1790,1857,1967
157573,19244,-16976,17510,-15258,3800,3800,-12,-5,1,-82,22,3924,0,3,885,1788,1868,2046,2240,2028,1790,1857,1968
158574,19232,-16984,17510,-15258,3800,3800,-12,-6,4,-92,41,3936,-6,7,885,1788,1868,2046,2240,2028,1790,1857,1968
159575,19244,-16980,17510,-15258,3800,3800,-12,-5,4,-69,28,3946,0,9,885,1788,1868,2046,2240,2028,1790,1857,1968
160576,19228,-16980,17510,-15258,3800,3800,-12,-2,3,-92,14,3915,14,4,885,1788,1868,2046,2240,2028,1790,1857,1968
161577,19228,-16984,17510,-15258,3800,3800,-10,-1,3,-83,41,3914,9,-1,885,1788,1868,2046,2240,2028,1790,1857,1968
162578,19232,-16976,17510,-15258,3800,3800,-11,0,5,-89,35,3947,-1,-3,885,1788,1868,2046,2240,2028,1790,1857,1968
163579,19236,-16980,17510,-15258,3800,3800,-11,-2,4,-80,28,3941,-2,-4,885,1785,1867,2045,2237,2028,1790,1857,1965
164580,19240,-16996,17510,-15258,3800,3800,-12,-3,4,-85,16,3950,7,-4,885,1785,1867,2045,2237,2028,1790,1857,1965
165581,19236,-16980,17510,-15258,3800,3800,-15,-4,5,-85,0,3953,11,0,886,1785,1867,2045,2237,2028,1790,1857,1965
166582,19236,-16984,17510,-15258,3800,3800,-17,-5,3,-62,34,3964,-4,-2,886,1785,1867,2045,2237,2028,1790,1857,1965
167583,19240,-16980,17510,-15258,3800,3800,-16,-5,3,-72,39,3954,-5,-3,885,1785,1867,2045,2237,2028,1790,1857,1965
168584,19236,-16984,17510,-15258,3800,3800,-13,-4,4,-82,57,3927,10,-1,885,1786,1867,2046,2238,2030,1792,1858,1968
169585,19236,-16980,17510,-15258,3800,3800,-13,-1,4,-73,35,3933,9,-3,885,1786,1867,2046,2238,2030,1792,1858,1968
170586,19232,-16988,17510,-15258,3800,3800,-13,-4,3,-63,41,3904,-1,-4,885,1786,1867,2046,2238,2030,1792,1858,1968
171587,19252,-16984,17510,-15258,3800,3800,-13,-3,3,-80,11,3910,-4,3,885,1786,1867,2046,2238,2030,1792,1858,1968
172588,19232,-16992,17510,-15258,3800,3800,-12,-3,2,-96,21,3937,8,-3,884,1786,1867,2046,2238,2030,1792,1858,1968
173589,19228,-16996,17510,-15258,3800,3800,-13,-3,2,-88,36,3924,12,-4,885,1786,1867,2046,2238,2030,1792,1858,1968
174590,19232,-16992,17510,-15258,3800,3800,-14,-4,2,-97,48,3934,11,1,885,1786,1868,2046,2238,2029,1792,1857,1968
175591,19228,-16980,17510,-15258,3800,3800,-17,-5,2,-111,31,3939,-4,1,885,1786,1868,2046,2238,2029,1792,1857,1968
176592,19236,-16988,17510,-15258,3800,3800,-16,-4,2,-89,51,3945,-6,0,885,1786,1868,2046,2238,2029,1792,1857,1968
177593,19232,-16988,17510,-15258,3800,3800,-14,-2,2,-74,20,3954,-3,7,885,1786,1868,2046,2238,2029,1792,1857,1968
178594,19236,-16980,17510,-15258,3800,3800,-13,-1,1,-93,30,3931,4,6,885,1786,1868,2046,2238,2029,1792,1857,1968
179595,19232,-16972,17510,-15258,3800,3800,-12,-2,0,-88,38,3916,7,9,885,1783,1865,2043,2235,2027,1791,1860,1970
180596,19236,-16988,17510,-15258,3800,3800,-15,-3,1,-100,43,3924,13,9,885,1783,1865,2043,2235,2027,1791,1860,1970
181597,19236,-16992,17510,-15258,3800,3800,-15,-2,0,-90,27,3956,10,4,885,1783,1865,2043,2235,2027,1791,1860,1970
182598,19244,-16988,17510,-15258,3800,3800,-14,-2,-1,-80,27,3960,11,1,885,1783,1865,2043,2235,2027,1791,1860,1970
183601,19232,-16988,17510,-15258,3800,3800,-14,-2,-1,-68,66,3972,-1,-3,886,1783,1865,2043,2235,2027,1791,1860,1970
184600,19236,-16992,17510,-15258,3800,3800,-13,0,0,-112,47,3953,-4,-4,885,1783,1865,2043,2235,2027,1791,1860,1970
185601,19228,-16988,17510,-15258,3800,3800,-13,-2,2,-97,30,3970,-1,-4,885,1785,1867,2043,2236,2028,1791,1858,1967
186602,19240,-16984,17510,-15258,3800,3800,-16,-2,1,-79,50,3962,14,3,885,1785,1867,2043,2236,2028,1791,1858,1967
187603,19244,-16980,17510,-15258,3800,3800,-15,-1,-1,-46,47,3961,5,6,885,1785,1867,2043,2236,2028,1791,1858,1967
188604,19232,-16988,17510,-15258,3800,3800,-16,-2,0,-68,29,3955,-5,6,885,1785,1867,2043,2236,2028,1791,1858,1967
189605,19236,-16984,17510,-15258,3800,3800,-15,-5,1,-63,32,3933,-1,7,884,1785,1867,2043,2236,2028,1791,1858,1967
190606,19228,-16980,17510,-15258,3800,3800,-14,-6,-2,-100,19,3936,4,5,885,1784,1866,2043,2237,2028,1791,1855,1966
191607,19244,-16988,17510,-15258,3800,3800,-15,-3,-1,-84,5,3932,10,6,885,1784,1866,2043,2237,2028,1791,1855,1966
192608,19244,-16976,17510,-15258,3800,3800,-20,-2,-1,-104,31,3956,8,11,885,1784,1866,2043,2237,2028,1791,1855,1966
193609,19228,-16984,17510,-15258,3800,3800,-20,-4,-2,-80,31,3910,-5,11,885,1784,1866,2043,2237,2028,1791,1855,1966
194610,19232,-16984,17510,-15258,3800,3800,-18,-4,0,-71,36,3901,-4,11,886,1784,1866,2043,2237,2028,1791,1855,1966
195611,19232,-16992,17510,-15258,3800,3800,-20,-4,1,-71,22,3927,12,8,885,1784,1866,2043,2237,2028,1791,1855,1966
196612,19240,-16984,17510,-15258,3800,3800,-17,-2,-1,-76,35,3916,12,7,885,1785,1867,2045,2238,2029,1792,1857,1966
197613,19232,-16988,17510,-15258,3800,3800,-16,-1,-2,-69,51,3897,6,8,885,1785,1867,2045,2238,2029,1792,1857,1966
198614,19232,-16996,17510,-15258,3800,3800,-16,-3,-1,-81,38,3909,-5,2,885,1785,1867,2045,2238,2029,1792,1857,1966
199615,19240,-16980,17510,-15258,3800,3800,-16,-3,-3,-81,43,3890,1,2,885,1785,1867,2045,2238,2029,1792,1857,1966
200616,19220,-16988,17575,-15193,-1334,2716,-18,-3,-4,-96,47,3925,12,3,885,1785,1867,2045,2238,2029,1792,1857,1966
201617,19232,-16988,17640,-15128,-1670,2695,-18,-3,-1,-77,32,3942,0,-15,860,1785,1867,2045,2237,2023,1787,1855,1967
202618,19232,-16960,17705,-15063,-1442,2391,-22,4,-2,-74,50,3917,8,17,851,1785,1867,2045,2237,2023,1787,1855,1967
203619,19228,-16880,17770,-14998,-1307,1724,-17,-13,0,-151,57,3874,20,43,860,1785,1867,2045,2237,2023,1787,1855,1967
204620,19224,-16800,17835,-14933,-1224,1706,-15,-33,0,-151,30,4071,18,55,867,1785,1867,2045,2237,2023,1787,1855,1967
205621,19240,-16664,17900,-14868,-1414,920,-16,-58,1,-385,95,4231,13,74,871,1785,1867,2045,2237,2023,1787,1855,1967
206622,19232,-16552,17965,-14803,-1026,1164,-13,-120,-11,-453,-30,4230,19,83,874,1785,1867,2045,2237,2023,1787,1855,1967
207623,19232,-16404,18030,-14738,-1047,612,-13,-135,-24,-183,-62,4199,10,76,878,1785,1867,2044,2238,2029,1792,1860,1966
208624,19232,-16252,18095,-14673,-968,457,-8,-135,-34,160,-69,4036,18,80,880,1785,1867,2044,2238,2029,1792,1860,1966
209625,19228,-16116,18160,-14608,-834,571,-22,-110,-53,212,-68,4081,0,89,883,1785,1867,2044,2238,2029,1792,1860,1966
210626,19228,-15972,18225,-14543,-806,375,-46,-86,-92,-16,-88,3806,1,71,882,1785,1867,2044,2238,2029,1792,1860,1966
211627,19244,-15832,18290,-14478,-946,334,-67,-61,-119,-13,-175,4011,2,82,883,1785,1867,2044,2238,2029,1792,1860,1966
212628,19240,-15672,18355,-14413,-612,-32,-82,-52,-138,-16,-194,3980,0,77,884,1796,1882,2057,2249,2035,1804,1875,1990
213629,19244,-15556,18420,-14348,-638,457,-90,-78,-144,-242,-193,4016,18,77,885,1796,1882,2057,2249,2035,1804,1875,1990
214630,19240,-15400,18485,-14283,-454,-154,-91,-134,-155,-439,-203,3984,3,86,884,1796,1882,2057,2249,2035,1804,1875,1990
215631,19228,-15264,18550,-14218,-260,10,-81,-191,-151,-672,-217,4188,16,66,884,1796,1882,2057,2249,2035,1804,1875,1990
216632,19232,-15156,18615,-14153,-387,308,-85,-263,-153,-519,-123,4149,3,72,885,1796,1882,2057,2249,2035,1804,1875,1990
217633,19240,-15008,18680,-14088,-367,-293,-79,-295,-141,-535,-143,4329,11,77,885,1796,1882,2057,2249,2035,1804,1875,1990
218634,19232,-14880,18745,-14023,-78,-119,-79,-323,-126,-330,-101,4161,0,65,884,1788,1874,2050,2240,2052,1812,1885,2001
219635,19236,-14764,18810,-13958,-154,-32,-73,-311,-130,-290,-157,4250,7,59,884,1788,1874,2050,2240,2052,1812,1885,2001
220636,19244,-14644,18875,-13893,-135,-149,-77,-281,-144,-174,-120,4321,17,56,879,1788,1874,2050,2240,2052,1812,1885,2001
221637,19232,-14540,18940,-13828,209,5,-71,-246,-145,31,-154,4188,5,67,877,1788,1874,2050,2240,2052,1812,1885,2001
222638,19244,-14448,19005,-13763,-26,122,-60,-218,-152,161,-119,4190,8,56,881,1788,1874,2050,2240,2052,1812,1885,2001
223639,19236,-14344,19070,-13698,313,-76,-55,-192,-170,-110,-111,4275,18,59,883,1789,1879,2049,2233,2045,1807,1879,1991
224640,19240,-14264,19135,-13633,237,206,-50,-195,-179,-322,-61,4096,18,48,883,1789,1879,2049,2233,2045,1807,1879,1991
225641,19240,-14168,19200,-13568,367,-31,-57,-209,-193,-378,-24,4223,1,49,883,1789,1879,2049,2233,2045,1807,1879,1991
226642,19240,-14084,19265,-13503,446,96,-60,-239,-207,-392,-51,4118,19,43,883,1789,1879,2049,2233,2045,1807,1879,1991
227643,19244,-13996,19330,-13438,470,18,-61,-284,-209,-495,-21,4104,8,49,883,1789,1879,2049,2233,2045,1807,1879,1991
228644,19248,-13928,19395,-13373,545,264,-61,-319,-212,-546,-87,4040,22,50,882,1789,1879,2049,2233,2045,1807,1879,1991
229645,19260,-13852,19460,-13308,510,152,-66,-330,-219,-335,-80,4043,14,39,883,1800,1882,2060,2260,2034,1796,1861,1964
230646,19284,-13792,19525,-13243,410,358,-74,-336,-221,-289,-121,3846,11,48,881,1800,1882,2060,2260,2034,1796,1861,1964
231647,19292,-13720,19590,-13178,679,199,-78,-306,-214,-266,-185,3908,21,50,882,1800,1882,2060,2260,2034,1796,1861,1964
232648,19328,-13664,19655,-13113,365,410,-85,-278,-202,-210,-194,3851,23,49,882,1800,1882,2060,2260,2034,1796,1861,1964
233650,19360,-13592,19720,-13048,456,202,-81,-260,-197,-143,-144,3900,17,33,880,1800,1882,2060,2260,2034,1796,1861,1964
234650,19380,-13520,19785,-12983,661,194,-74,-241,-182,-214,-243,3973,27,41,882,1806,1879,2059,2256,2013,1781,1844,1947
235651,19404,-13472,19850,-12918,661,515,-63,-215,-168,-127,-200,3884,37,45,882,1806,1879,2059,2256,2013,1781,1844,1947
236652,19452,-13404,19915,-12853,382,261,-52,-190,-154,-1,-120,3843,31,45,880,1806,1879,2059,2256,2013,1781,1844,1947
237653,19480,-13364,19980,-12788,677,642,-39,-170,-146,-79,-88,3785,22,29,879,1806,1879,2059,2256,2013,1781,1844,1947
238654,19516,-13308,20045,-12723,612,453,-37,-157,-131,-166,-129,3748,26,41,882,1806,1879,2059,2256,2013,1781,1844,1947
239655,19576,-13264,20110,-12658,319,629,-34,-126,-117,19,-100,3727,32,29,878,1806,1879,2059,2256,2013,1781,1844,1947
240656,19632,-13204,20175,-12593,380,435,-31,-110,-107,-27,-71,3610,38,38,878,1788,1858,2034,2232,1999,1767,1830,1929
241657,19672,-13148,20240,-12528,611,496,-22,-114,-91,-197,-32,3619,29,40,879,1788,1858,2034,2232,1999,1767,1830,1929
242658,19720,-13092,20305,-12463,532,507,-10,-133,-72,-291,53,3723,46,43,881,1788,1858,2034,2232,1999,1767,1830,1929
243659,19764,-13044,20370,-12398,607,629,4,-152,-64,-98,114,3748,31,41,879,1788,1858,2034,2232,1999,1767,1830,1929
244660,19836,-12972,20435,-12333,250,321,21,-173,-55,-75,96,3649,48,34,880,1788,1858,2034,2232,1999,1767,1830,1929
245661,19880,-12932,20500,-12268,625,751,34,-149,-42,48,163,3902,31,40,878,1769,1841,2019,2217,1999,1764,1833,1934
246662,19936,-12880,20565,-12203,486,617,45,-140,-24,118,105,3651,40,30,882,1769,1841,2019,2217,1999,1764,1833,1934
247663,20000,-12816,20630,-12138,388,469,56,-139,-5,-41,80,3419,44,31,877,1769,1841,2019,2217,1999,1764,1833,1934
248664,20044,-12776,20695,-12073,664,800,63,-97,-2,260,149,3804,40,45,879,1769,1841,2019,2217,1999,1764,1833,1934
249665,20112,-12712,20760,-12008,361,501,81,-90,19,112,101,3602,51,30,881,1769,1841,2019,2217,1999,1764,1833,1934
250666,20172,-12668,20825,-11943,467,777,92,-86,29,131,102,3625,43,37,877,1769,1841,2019,2217,1999,1764,1833,1934
251667,20244,-12592,20890,-11878,308,364,104,-86,39,118,127,3844,44,34,881,1769,1851,2025,2219,2003,1764,1836,1946
252668,20316,-12532,20955,-11813,300,570,115,-99,51,155,46,3602,35,46,878,1769,1851,2025,2219,2003,1764,1836,1946
253669,20380,-12480,21020,-11748,402,686,131,-106,67,33,-17,3732,33,38,882,1769,1851,2025,2219,2003,1764,1836,1946
254670,20440,-12428,21085,-11683,458,702,130,-111,69,105,15,3687,47,45,881,1769,1851,2025,2219,2003,1764,1836,1946
255671,20504,-12372,21150,-11618,409,664,134,-129,72,102,-11,3693,46,34,879,1769,1851,2025,2219,2003,1764,1836,1946
256672,20568,-12328,21215,-11553,410,840,126,-148,82,55,9,3642,50,40,879,1787,1872,2048,2238,2010,1772,1843,1957
257673,20632,-12260,21280,-11488,413,536,120,-164,85,12,32,3794,45,48,878,1787,1872,2048,2238,2010,1772,1843,1957
258674,20700,-12192,21345,-11423,359,533,113,-180,89,65,50,3790,51,34,877,1787,1872,2048,2238,2010,1772,1843,1957
259675,20768,-12148,21410,-11358,355,859,109,-200,90,101,20,3835,46,34,880,1787,1872,2048,2238,2010,1772,1843,1957
260676,20824,-12088,21475,-11293,516,665,107,-226,91,85,70,3907,36,40,881,1787,1872,2048,2238,2010,1772,1843,1957
261677,20876,-12044,21540,-11228,583,891,106,-235,88,66,56,3817,40,35,878,1787,1872,2048,2238,2010,1772,1843,1957
262678,20932,-11964,21605,-11163,544,423,100,-237,79,156,121,3974,35,48,878,1798,1882,2058,2245,2024,1786,1858,1975
263679,21008,-11904,21670,-11098,281,679,95,-243,80,177,115,4027,35,36,876,1798,1882,2058,2245,2024,1786,1858,1975
264680,21056,-11844,21735,-11033,651,685,93,-255,77,49,127,3943,47,45,880,1798,1882,2058,2245,2024,1786,1858,1975
265681,21124,-11784,21800,-10968,399,693,95,-254,71,76,80,4058,42,42,880,1798,1882,2058,2245,2024,1786,1858,1975
266682,21184,-11740,21865,-10903,505,918,99,-257,70,157,96,4177,49,35,877,1798,1882,2058,2245,2024,1786,1858,1975
267683,21248,-11688,21930,-10838,456,834,104,-270,74,-76,107,4136,32,32,880,1787,1872,2048,2233,2049,1807,1875,1993
268684,21296,-11616,21995,-10773,677,577,113,-274,68,-65,134,4113,49,41,877,1787,1872,2048,2233,2049,1807,1875,1993
269685,21356,-11552,22060,-10708,534,678,114,-283,70,-74,164,4264,48,35,877,1787,1872,2048,2233,2049,1807,1875,1993
270686,21404,-11492,22125,-10643,705,734,121,-297,77,-52,153,4122,39,42,878,1787,1872,2048,2233,2049,1807,1875,1993
271687,21460,-11432,22190,-10578,616,741,121,-301,74,-97,179,4243,40,48,879,1787,1872,2048,2233,2049,1807,1875,1993
272688,21532,-11372,22255,-10513,408,747,125,-285,66,-19,111,4314,51,33,877,1787,1872,2048,2233,2049,1807,1875,1993
273689,21572,-11304,22320,-10448,839,643,118,-281,73,-54,63,4160,35,35,877,1778,1865,2046,2235,2060,1817,1883,1996
274690,21632,-11232,22385,-10383,595,586,111,-277,75,-191,100,4159,42,37,877,1778,1865,2046,2235,2060,1817,1883,1996
275691,21692,-11172,22450,-10318,601,742,96,-273,69,-180,63,4184,38,37,876,1778,1865,2046,2235,2060,1817,1883,1996
276692,21772,-11124,22515,-10253,333,913,89,-263,67,-209,54,4075,51,42,879,1778,1865,2046,2235,2060,1817,1883,1996
277693,21840,-11060,22580,-10188,480,715,71,-270,66,-293,136,4024,37,37,877,1778,1865,2046,2235,2060,1817,1883,1996
278694,21916,-11012,22645,-10123,366,936,67,-247,42,-264,144,4362,42,48,878,1786,1869,2054,2249,2057,1811,1871,1987
279695,21968,-10948,22710,-10058,683,737,67,-203,11,26,138,4424,50,35,878,1786,1869,2054,2249,2057,1811,1871,1987
280696,22032,-10876,22775,-9993,534,629,61,-158,5,108,42,4268,35,47,878,1786,1869,2054,2249,2057,1811,1871,1987
281697,22100,-10816,22840,-9928,481,785,53,-124,3,-103,121,4313,36,45,877,1786,1869,2054,2249,2057,1811,1871,1987
282698,22156,-10748,22905,-9863,642,682,34,-113,-2,-325,98,4181,46,35,879,1786,1869,2054,2249,2057,1811,1871,1987
283699,22220,-10692,22970,-9798,544,844,26,-121,-19,-380,-63,4104,38,51,878,1786,1869,2054,2249,2057,1811,1871,1987
284700,22284,-10620,23035,-9733,545,635,33,-121,-23,-433,-115,4155,50,36,878,1792,1872,2061,2254,2044,1808,1865,1975
285701,22336,-10536,23100,-9668,711,462,52,-94,-46,-373,126,4163,34,40,877,1792,1872,2061,2254,2044,1808,1865,1975
286702,22408,-10480,23165,-9603,453,824,54,-77,-60,-202,286,4101,39,37,879,1792,1872,2061,2254,2044,1808,1865,1975
287703,22472,-10416,23230,-9538,555,725,48,-65,-71,111,371,4363,36,45,879,1792,1872,2061,2254,2044,1808,1865,1975
288704,22532,-10360,23295,-9473,611,836,43,-51,-79,-134,187,4212,35,45,878,1792,1872,2061,2254,2044,1808,1865,1975
289705,22588,-10304,23360,-9408,672,848,55,-25,-97,-185,187,4175,46,47,878,1794,1871,2061,2258,2032,1800,1860,1965
290706,22636,-10248,23425,-9343,794,859,65,-4,-103,-141,78,4092,46,48,877,1794,1871,2061,2258,2032,1800,1860,1965
291707,22708,-10184,23490,-9278,485,760,79,16,-98,-261,158,4124,50,45,874,1794,1871,2061,2258,2032,1800,1860,1965
292708,22772,-10136,23555,-9213,586,982,96,21,-90,-438,390,4140,46,37,874,1794,1871,2061,2258,2032,1800,1860,1965
293709,22840,-10068,23620,-9148,534,729,95,-4,-90,-322,370,3810,37,38,878,1794,1871,2061,2258,2032,1800,1860,1965
294710,22896,-10012,23685,-9083,695,890,109,-6,-90,-171,369,4056,46,48,875,1794,1871,2061,2258,2032,1800,1860,1965
295711,22968,-9936,23750,-9018,486,627,110,-27,-85,-377,364,3714,38,48,877,1792,1872,2054,2253,2016,1783,1851,1954
296712,23044,-9888,23815,-8953,423,998,123,-27,-96,-295,254,4087,46,35,875,1792,1872,2054,2253,2016,1783,1851,1954
297713,23104,-9828,23880,-8888,630,854,139,-8,-109,17,241,4079,45,45,879,1792,1872,2054,2253,2016,1783,1851,1954
298714,23164,-9772,23945,-8823,636,916,150,-8,-115,16,205,3872,48,34,876,1792,1872,2054,2253,2016,1783,1851,1954
299715,23220,-9696,24010,-8758,697,653,147,-7,-126,-131,317,3860,47,42,876,1792,1872,2054,2253,2016,1783,1851,1954
300716,23296,-9636,24075,-8693,434,859,151,8,-144,-145,343,3939,44,48,876,1798,1880,2054,2246,2000,1764,1840,1948
301717,23356,-9576,24140,-8628,641,866,160,23,-161,-62,247,4045,53,42,877,1798,1880,2054,2246,2000,1764,1840,1948
302718,23412,-9528,24205,-8563,702,1036,184,28,-186,19,196,4054,52,44,878,1798,1880,2054,2246,2000,1764,1840,1948
303719,23492,-9480,24270,-8498,383,1057,215,29,-208,-185,209,3873,36,33,876,1798,1880,2054,2246,2000,1764,1840,1948
304720,23560,-9432,24335,-8433,531,1079,253,41,-233,-70,305,4157,49,37,874,1798,1880,2054,2246,2000,1764,1840,1948
305721,23612,-9376,24400,-8368,746,990,284,58,-249,-17,217,4080,52,31,876,1798,1880,2054,2246,2000,1764,1840,1948
306722,23672,-9320,24465,-8303,653,1002,308,48,-265,-51,255,3865,56,35,875,1795,1877,2051,2241,1996,1760,1833,1943
307723,23748,-9256,24530,-8238,440,903,329,28,-280,-322,357,4080,39,41,874,1795,1877,2051,2241,1996,1760,1833,1943
308724,23808,-9188,24595,-8173,646,850,332,-14,-273,-383,112,3730,51,33,874,1795,1877,2051,2241,1996,1760,1833,1943
309725,23856,-9124,24660,-8108,817,902,336,-32,-266,-81,136,3983,51,36,876,1795,1877,2051,2241,1996,1760,1833,1943
310726,23924,-9076,24725,-8043,564,1122,337,-56,-250,-233,213,3780,41,46,876,1795,1877,2051,2241,1996,1760,1833,1943
311727,23984,-9016,24790,-7978,670,980,337,-72,-237,-374,217,3987,39,37,874,1808,1888,2066,2264,1995,1766,1841,1947
312728,24060,-8976,24855,-7913,457,1260,334,-90,-217,-238,209,3744,54,31,874,1808,1888,2066,2264,1995,1766,1841,1947
313729,24112,-8908,24920,-7848,773,906,329,-99,-195,-137,233,3958,52,41,875,1808,1888,2066,2264,1995,1766,1841,1947
314730,24184,-8840,24985,-7783,515,904,340,-89,-195,81,304,3881,43,35,874,1808,1888,2066,2264,1995,1766,1841,1947
315731,24256,-8784,25050,-7718,507,1065,350,-94,-193,-59,199,3851,41,32,875,1808,1888,2066,2264,1995,1766,1841,1947
316732,24324,-8732,25115,-7653,553,1132,368,-101,-198,38,280,4066,47,37,876,1808,1888,2066,2264,1995,1766,1841,1947
317733,24392,-8688,25180,-7588,550,1257,392,-89,-208,179,292,4097,36,43,875,1808,1887,2063,2257,2017,1783,1855,1967
318734,24456,-8620,25245,-7523,602,954,412,-96,-217,229,204,3981,35,32,875,1808,1887,2063,2257,2017,1783,1855,1967
319735,24540,-8564,25310,-7458,328,1116,434,-99,-219,97,209,4111,46,41,873,1808,1887,2063,2257,2017,1783,1855,1967
320736,24604,-8496,25375,-7393,581,962,451,-91,-225,83,217,4123,45,42,875,1808,1887,2063,2257,2017,1783,1855,1967
321737,24660,-8440,25440,-7328,692,1124,470,-94,-250,184,211,4050,38,43,876,1808,1887,2063,2257,2017,1783,1855,1967
322738,24716,-8376,25505,-7263,703,1025,490,-96,-273,140,251,4330,33,34,875,1788,1868,2045,2233,2032,1787,1856,1970
323739,24776,-8332,25570,-7198,659,1301,512,-107,-276,-15,192,4037,33,41,873,1788,1868,2045,2233,2032,1787,1856,1970
324740,24848,-8272,25635,-7133,501,1108,534,-112,-287,82,211,4233,51,35,874,1788,1868,2045,2233,2032,1787,1856,1970
325741,24908,-8208,25700,-7068,657,1059,546,-99,-294,-109,235,4188,34,34,870,1788,1868,2045,2233,2032,1787,1856,1970
326742,24964,-8144,25765,-7003,718,1061,552,-109,-289,-207,244,4175,51,39,873,1788,1868,2045,2233,2032,1787,1856,1970
327743,25032,-8076,25830,-6938,566,1008,557,-100,-278,-85,198,4324,41,33,874,1788,1868,2045,2233,2032,1787,1856,1970
328744,25080,-8028,25895,-6873,836,1279,564,-97,-263,46,279,4188,53,42,874,1783,1869,2049,2242,2028,1785,1855,1968
329745,25152,-7964,25960,-6808,528,1081,562,-95,-237,-11,241,4148,45,39,875,1783,1869,2049,2242,2028,1785,1855,1968
330746,25204,-7928,26025,-6743,795,1466,548,-98,-214,-52,138,4104,37,37,871,1783,1869,2049,2242,2028,1785,1855,1968
331747,25268,-7860,26090,-6678,646,1063,528,-86,-192,-28,236,4162,35,34,875,1783,1869,2049,2242,2028,1785,1855,1968
332748,25344,-7796,26155,-6613,482,1115,504,-76,-169,-21,201,4121,42,45,869,1783,1869,2049,2242,2028,1785,1855,1968
333749,25392,-7732,26220,-6548,853,1117,485,-46,-143,84,96,4192,55,37,874,1804,1889,2071,2267,2032,1793,1863,1978
334750,25448,-7696,26285,-6483,765,1502,466,-50,-122,139,68,4092,54,44,875,1804,1889,2071,2267,2032,1793,1863,1978
335751,25536,-7636,26350,-6418,337,1209,450,-40,-122,338,156,4254,55,33,872,1804,1889,2071,2267,2032,1793,1863,1978
336752,25604,-7580,26415,-6353,583,1270,440,-53,-111,245,78,3953,40,33,869,1804,1889,2071,2267,2032,1793,1863,1978
337753,25668,-7516,26480,-6288,636,1173,426,-75,-94,155,-41,4037,35,39,875,1804,1889,2071,2267,2032,1793,1863,1978
338754,25724,-7464,26545,-6223,747,1338,423,-67,-78,103,-40,4417,49,47,873,1804,1889,2071,2267,2032,1793,1863,1978
339755,25792,-7400,26610,-6158,593,1191,433,-39,-93,295,-28,4105,37,39,873,1802,1881,2068,2254,2068,1821,1881,2006
340756,25872,-7348,26675,-6093,426,1356,454,-45,-118,462,-81,4328,48,34,871,1802,1881,2068,2254,2068,1821,1881,2006
341757,25924,-7280,26740,-6028,792,1154,484,-38,-141,232,-61,4403,45,45,873,1802,1881,2068,2254,2068,1821,1881,2006
342758,25992,-7224,26805,-5963,588,1315,526,-36,-186,388,187,4082,40,36,871,1802,1881,2068,2254,2068,1821,1881,2006
343759,26056,-7168,26870,-5898,640,1326,564,-61,-232,549,363,4368,40,47,871,1802,1881,2068,2254,2068,1821,1881,2006
344760,26100,-7104,26935,-5833,916,1228,615,-70,-230,6,-136,4504,45,49,872,1772,1851,2040,2224,2077,1819,1881,1997
345761,26172,-7048,27000,-5768,557,1339,633,-74,-203,-392,267,4417,53,40,872,1772,1851,2040,2224,2077,1819,1881,1997
346762,26244,-6976,27065,-5703,550,1131,637,-66,-199,55,463,4402,40,36,870,1772,1851,2040,2224,2077,1819,1881,1997
347763,26316,-6936,27130,-5638,541,1562,614,-23,-167,349,257,4526,37,48,871,1772,1851,2040,2224,2077,1819,1881,1997
348764,26396,-6844,27195,-5573,423,880,590,-7,-121,267,251,4036,52,34,874,1772,1851,2040,2224,2077,1819,1881,1997
349765,26444,-6796,27260,-5508,844,1451,560,11,-84,-141,227,4354,53,36,869,1772,1851,2040,2224,2077,1819,1881,1997
350766,26500,-6728,27325,-5443,756,1198,535,-2,-34,-569,96,4175,40,38,877,1785,1875,2051,2251,2025,1781,1859,1966
351767,26564,-6668,27390,-5378,657,1304,502,-40,3,-306,297,3903,44,49,868,1785,1875,2051,2251,2025,1781,1859,1966
352768,26628,-6612,27455,-5313,658,1366,483,-56,30,14,318,4141,42,50,872,1785,1875,2051,2251,2025,1781,1859,1966
353769,26688,-6560,27520,-5248,715,1432,471,-55,40,235,207,3939,40,41,871,1785,1875,2051,2251,2025,1781,1859,1966
354770,26780,-6484,27585,-5183,282,1120,471,-43,39,190,98,4120,51,39,871,1785,1875,2051,2251,2025,1781,1859,1966
355771,26832,-6436,27650,-5118,798,1490,488,-37,33,279,124,4168,55,46,870,1812,1897,2072,2265,2024,1784,1856,1974
356772,26896,-6344,27715,-5053,650,908,511,-52,13,300,-40,4029,37,48,876,1812,1897,2072,2265,2024,1784,1856,1974
357773,26980,-6304,27780,-4988,377,1589,545,-47,-10,375,-172,4228,42,40,868,1812,1897,2072,2265,2024,1784,1856,1974
358774,27036,-6256,27845,-4923,738,1511,561,-33,-15,389,-162,4027,39,35,875,1812,1897,2072,2265,2024,1784,1856,1974
359775,27116,-6196,27910,-4858,421,1367,591,-7,-30,348,-234,4103,43,34,869,1812,1897,2072,2265,2024,1784,1856,1974
360782,27192,-6140,27975,-4793,457,1429,615,-25,-29,185,-196,4053,38,36,867,1812,1897,2072,2265,2024,1784,1856,1974
361777,27248,-6080,28040,-4728,718,1385,653,-68,-24,-34,-7,4262,33,44,873,1801,1879,2066,2249,2034,1788,1849,1968
362778,27316,-6024,28105,-4663,565,1447,674,-113,-41,25,227,4170,52,30,871,1801,1879,2066,2249,2034,1788,1849,1968
363779,27380,-5972,28170,-4598,617,1513,688,-134,-55,100,332,4100,42,33,870,1801,1879,2066,2249,2034,1788,1849,1968
364780,27448,-5916,28235,-4533,563,1475,682,-141,-54,278,510,3934,50,32,870,1801,1879,2066,2249,2034,1788,1849,1968
365781,27512,-5868,28300,-4468,614,1595,662,-126,-40,147,249,3930,49,37,869,1801,1879,2066,2249,2034,1788,1849,1968
366782,27580,-5832,28365,-4403,562,1782,644,-153,-36,-170,272,3783,51,31,870,1795,1873,2051,2246,2013,1771,1847,1954
367783,27628,-5768,28430,-4338,833,1434,628,-175,-31,-238,420,4061,38,37,868,1795,1873,2051,2246,2013,1771,1847,1954
368784,27684,-5744,28495,-4273,743,1984,626,-170,-17,205,525,3905,39,33,866,1795,1873,2051,2246,2013,1771,1847,1954
369785,27756,-5704,28560,-4208,536,1816,613,-147,10,249,321,3837,49,36,868,1795,1873,2051,2246,2013,1771,1847,1954
370786,27816,-5648,28625,-4143,692,1627,605,-167,20,-10,539,3786,56,40,862,1795,1873,2051,2246,2013,1771,1847,1954
371787,27876,-5600,28690,-4078,698,1748,592,-175,41,-181,364,3782,45,42,866,1789,1871,2040,2246,2013,1771,1847,1954
372788,27944,-5556,28755,-4013,594,1824,587,-187,58,53,448,3810,50,31,867,1789,1871,2040,2232,2020,1777,1854,1971
373789,27992,-5496,28820,-3948,866,1631,583,-174,69,199,340,3939,55,30,866,1789,1871,2040,2232,2020,1777,1854,1971
374790,28060,-5444,28885,-3883,613,1747,608,-171,80,18,24,3908,51,48,866,1789,1871,2040,2232,2020,1777,1854,1971
375791,28132,-5380,28950,-3818,554,1599,631,-207,94,-324,98,4003,41,36,867,1789,1871,2040,2232,2020,1777,1854,1971
376792,28176,-5304,29015,-3753,931,1437,674,-230,95,-83,128,3965,53,36,865,1789,1871,2040,2232,2020,1777,1854,1971
377793,28252,-5248,29080,-3688,517,1698,695,-262,82,-20,-38,3899,55,41,867,1760,1844,2026,2199,2043,1792,1854,1983
378794,28336,-5176,29145,-3623,394,1490,717,-309,62,-126,-1,4153,50,49,868,1760,1844,2026,2199,2043,1792,1854,1983
379795,28384,-5120,29210,-3558,866,1701,748,-341,61,-159,-111,3990,44,50,867,1760,1844,2026,2199,2043,1792,1854,1983
380796,28460,-5048,29275,-3493,502,1494,752,-400,59,-617,0,4129,38,52,871,1760,1844,2026,2199,2043,1792,1854,1983
381797,28528,-4980,29340,-3428,599,1541,752,-416,33,-19,286,3966,58,56,866,1760,1844,2026,2199,2043,1792,1854,1983
382798,28588,-4904,29405,-3363,706,1428,746,-432,13,168,266,3936,39,45,871,1763,1849,2036,2214,2030,1778,1849,1973
383799,28676,-4840,29470,-3298,328,1580,725,-434,-14,163,630,4051,51,42,869,1763,1849,2036,2214,2030,1778,1849,1973
384800,28756,-4768,29535,-3233,409,1471,699,-422,-39,234,493,3763,36,48,870,1763,1849,2036,2214,2030,1778,1849,1973
385801,28804,-4696,29600,-3168,830,1464,658,-425,-55,2,430,3717,51,46,870,1763,1849,2036,2214,2030,1778,1849,1973
386802,28872,-4632,29665,-3103,578,1566,606,-431,-58,-389,732,4188,32,46,871,1763,1849,2036,2214,2030,1778,1849,1973
387803,28936,-4564,29730,-3038,629,1512,572,-402,-57,289,688,3562,36,48,868,1763,1849,2036,2214,2030,1778,1849,1973
388804,29000,-4480,29795,-2973,630,1290,535,-378,-44,230,640,4001,54,48,869,1800,1884,2059,2246,2027,1784,1862,1985
389805,29064,-4424,29860,-2908,632,1651,525,-358,-23,9,683,3642,52,44,869,1800,1884,2059,2246,2027,1784,1862,1985
390806,29128,-4364,29925,-2843,633,1608,509,-398,0,-260,445,3388,54,45,872,1800,1884,2059,2246,2027,1784,1862,1985
391807,29180,-4308,29990,-2778,799,1669,505,-481,22,-548,397,3986,52,50,868,1800,1884,2059,2246,2027,1784,1862,1985
392808,29244,-4240,30055,-2713,651,1517,516,-523,49,-486,440,3878,38,37,868,1800,1884,2059,2246,2027,1784,1862,1985
393809,29292,-4172,30120,-2648,872,1514,534,-512,75,-352,372,4088,55,50,865,1779,1861,2041,2216,2056,1806,1867,1995
394810,29360,-4100,30185,-2583,619,1455,542,-496,105,-414,355,4141,49,48,867,1779,1861,2041,2216,2056,1806,1867,1995
395811,29444,-4044,30250,-2518,395,1667,561,-511,93,-28,328,3684,40,49,867,1779,1861,2041,2216,2056,1806,1867,1995
396812,29508,-3992,30315,-2453,648,1733,584,-608,103,-641,-37,4012,39,43,870,1779,1861,2041,2216,2056,1806,1867,1995
397813,29584,-3916,30380,-2388,484,1421,622,-653,93,-530,309,4521,40,35,869,1779,1861,2041,2216,2056,1806,1867,1995
398814,29644,-3856,30445,-2323,690,1628,649,-637,67,57,424,3953,52,47,867,1779,1861,2041,2216,2056,1806,1867,1995
399815,29724,-3784,30510,-2258,423,1469,650,-606,54,19,483,4260,29,48,871,1741,1827,2020,2190,2051,1795,1851,1976
400816,29760,-3728,30575,-2193,1008,1681,625,-572,51,-471,636,4132,48,47,867,1741,1827,2020,2190,2051,1795,1851,1976
401817,29824,-3672,30640,-2128,660,1692,591,-556,22,221,1046,3692,34,44,871,1741,1827,2020,2190,2051,1795,1851,1976
402818,29880,-3616,30705,-2063,772,1704,548,-561,6,388,951,4075,36,37,864,1741,1827,2020,2190,2051,1795,1851,1976
403819,29948,-3540,30770,-1998,618,1441,505,-566,7,-77,777,3748,31,52,867,1741,1827,2020,2190,2051,1795,1851,1976
404820,30004,-3468,30835,-1933,779,1483,460,-593,3,-583,718,4003,48,44,866,1765,1845,2033,2215,2025,1777,1843,1965
405821,30064,-3404,30900,-1868,736,1586,443,-593,-4,-494,629,4327,36,45,870,1765,1845,2033,2215,2025,1777,1843,1965
406822,30120,-3340,30965,-1803,797,1587,422,-536,0,200,600,4011,35,42,869,1765,1845,2033,2215,2025,1777,1843,1965
407823,30188,-3276,31030,-1738,643,1589,379,-495,20,333,683,3686,34,41,868,1765,1845,2033,2215,2025,1777,1843,1965
408826,30252,-3232,31095,-1673,695,1865,339,-507,43,-83,808,3661,50,48,867,1765,1845,2033,2215,2025,1777,1843,1965
409825,30292,-3148,31160,-1608,1026,1342,310,-530,58,-405,609,3622,47,44,868,1765,1845,2033,2215,2025,1777,1843,1965
410826,30360,-3080,31225,-1543,672,1540,305,-507,67,9,768,3995,33,47,863,1778,1859,2048,2226,2054,1807,1867,1999
411827,30416,-3020,31290,-1478,833,1646,331,-451,86,264,545,3762,55,48,865,1778,1859,2048,2226,2054,1807,1867,1999
412828,30488,-2940,31355,-1413,626,1379,343,-434,78,70,443,3538,37,46,869,1778,1859,2048,2226,2054,1807,1867,1999
413829,30540,-2880,31420,-1348,892,1635,368,-479,95,-570,577,3753,38,40,865,1778,1859,2048,2226,2054,1807,1867,1999
414830,30604,-2816,31485,-1283,743,1587,387,-546,102,-738,708,3902,49,46,871,1778,1859,2048,2226,2054,1807,1867,1999
415831,30676,-2760,31550,-1218,635,1698,411,-599,129,-226,803,3634,51,40,866,1753,1837,2031,2199,2065,1812,1861,1988
416832,30724,-2676,31615,-1153,956,1326,425,-629,136,-129,953,3829,57,45,867,1753,1837,2031,2199,2065,1812,1861,1988
417833,30780,-2604,31680,-1088,867,1468,423,-621,145,-248,996,3615,51,40,867,1753,1837,2031,2199,2065,1812,1861,1988
418834,30840,-2556,31745,-1023,824,1789,410,-602,148,-151,1131,3911,59,48,868,1753,1837,2031,2199,2065,1812,1861,1988
419835,30904,-2480,31810,-958,775,1426,387,-596,130,349,1193,3624,48,41,867,1753,1837,2031,2199,2065,1812,1861,1988
420836,30968,-2416,31875,-893,777,1578,377,-622,119,3,841,3982,58,39,865,1753,1837,2031,2199,2065,1812,1861,1988
421837,31052,-2356,31940,-828,504,1635,366,-626,116,-789,1058,4576,63,52,869,1747,1832,2022,2194,2017,1766,1826,1947
422838,31124,-2280,32005,-763,646,1421,355,-574,115,105,1077,3678,63,36,868,1747,1832,2022,2194,2017,1766,1826,1947
423839,31196,-2220,32070,-698,637,1628,331,-535,106,949,1054,3948,42,44,869,1747,1832,2022,2194,2017,1766,1826,1947
424840,31272,-2152,32135,-633,575,1526,294,-514,114,319,1086,4005,52,36,870,1747,1832,2022,2194,2017,1766,1826,1947
425841,31340,-2096,32200,-568,671,1687,266,-502,124,-213,1009,3835,40,41,868,1747,1832,2022,2194,2017,1766,1826,1947
426842,31428,-2032,32265,-503,393,1589,248,-523,120,-68,1069,3917,49,48,869,1763,1843,2030,2207,2003,1762,1828,1956
427843,31496,-1976,32330,-438,641,1700,241,-518,110,270,1009,3919,39,39,866,1763,1843,2030,2207,2003,1762,1828,1956
428844,31572,-1904,32395,-373,527,1492,222,-525,90,135,1038,3803,36,46,869,1763,1843,2030,2207,2003,1762,1828,1956
429845,31628,-1836,32460,-308,788,1540,222,-520,75,-44,1099,4059,38,36,866,1763,1843,2030,2207,2003,1762,1828,1956
430846,31680,-1772,32525,-243,855,1591,225,-531,62,73,960,3702,45,35,870,1763,1843,2030,2207,2003,1762,1828,1956
431847,31744,-1720,32590,-178,706,1758,232,-557,63,-27,984,3743,42,44,866,1763,1843,2030,2207,2003,1762,1828,1956
432848,31820,-1652,32655,-113,543,1554,235,-590,89,-90,1012,3540,48,46,866,1773,1857,2052,2225,2047,1804,1858,1992
433849,31896,-1600,32720,-48,530,1771,238,-618,90,-81,850,3378,45,35,865,1773,1857,2052,2225,2047,1804,1858,1992
434850,31932,-1544,32785,17,1066,1732,224,-647,101,-216,903,3569,40,37,869,1773,1857,2052,2225,2047,1804,1858,1992
435851,31996,-1480,32850,82,717,1634,218,-641,125,-129,1064,3743,35,47,867,1773,1857,2052,2225,2047,1804,1858,1992
436852,32060,-1432,32915,147,719,1856,221,-634,153,40,1041,3455,52,44,862,1773,1857,2052,2225,2047,1804,1858,1992
437853,32128,-1372,32980,212,666,1712,212,-626,162,97,1144,3727,52,41,867,1772,1858,2058,2224,2066,1808,1860,1994
438854,32204,-1316,33045,277,552,1774,191,-624,175,-19,1162,3593,50,36,864,1772,1858,2058,2224,2066,1808,1860,1994
439855,32248,-1260,33110,342,979,1785,175,-610,180,157,1068,3649,45,42,866,1772,1858,2058,2224,2066,1808,1860,1994
440856,32332,-1208,33175,407,456,1852,152,-588,181,121,1165,3990,35,34,866,1772,1858,2058,2224,2066,1808,1860,1994
441857,32396,-1152,33240,472,707,1814,139,-554,178,98,1337,4029,45,42,864,1772,1858,2058,2224,2066,1808,1860,1994
442858,32460,-1092,33305,537,709,1770,120,-538,174,377,1257,3813,50,45,866,1772,1858,2058,2224,2066,1808,1860,1994
443859,32516,-1024,33370,602,820,1667,92,-527,155,139,1322,4195,52,48,865,1743,1826,2015,2179,2039,1783,1838,1967
444860,32588,-960,33435,667,611,1720,77,-511,124,59,1448,4065,40,50,864,1743,1826,2015,2179,2039,1783,1838,1967
445861,32652,-888,33500,732,714,1611,58,-507,103,208,1186,3937,43,35,864,1743,1826,2015,2179,2039,1783,1838,1967
446862,32728,-832,33565,797,550,1823,40,-518,93,243,1122,4091,37,51,867,1743,1826,2015,2179,2039,1783,1838,1967
447863,32772,-756,33630,862,976,1560,22,-544,86,17,1172,3969,55,38,867,1743,1826,2015,2179,2039,1783,1838,1967
448864,32828,-708,33695,927,837,1931,4,-565,67,52,1043,3849,38,48,867,1724,1806,2004,2168,2044,1792,1840,1976
449865,32916,-632,33894,1126,1260,2419,-8,-561,70,-77,1093,4059,48,54,865,1724,1806,2004,2168,2044,1792,1840,1976
450866,32968,-560,33959,1191,1726,2461,-21,-555,69,56,1154,3974,40,36,863,1724,1806,2004,2168,2044,1792,1840,1976
451867,33052,-464,34024,1256,1304,2124,-15,-543,63,288,1088,3786,55,56,853,1724,1806,2004,2168,2044,1792,1840,1976
452868,33140,-376,34089,1321,1226,2197,-29,-580,80,82,1133,3914,64,53,849,1724,1806,2004,2168,2044,1792,1840,1976
453869,33240,-272,34154,1386,1033,1949,-36,-577,110,18,1099,3802,62,60,857,1724,1806,2004,2168,2044,1792,1840,1976
454870,33348,-164,34219,1451,882,1848,-49,-555,144,355,1057,3910,71,63,857,1739,1829,2036,2203,2068,1816,1867,2006
455871,33464,-56,34284,1516,719,1795,-48,-538,187,384,928,3547,61,63,862,1739,1829,2036,2203,2068,1816,1867,2006
456872,33576,60,34349,1581,712,1634,-78,-571,220,43,906,3550,73,74,864,1739,1829,2036,2203,2068,1816,1867,2006
457873,33668,176,34414,1646,930,1573,-101,-575,240,-327,1232,4175,67,76,867,1739,1829,2036,2203,2068,1816,1867,2006
458875,33772,260,34479,1711,733,1950,-122,-562,238,-56,1298,3757,74,62,868,1739,1829,2036,2203,2068,1816,1867,2006
459875,33876,364,34544,1776,685,1653,-122,-575,247,544,1605,3932,60,75,868,1778,1868,2070,2238,2072,1816,1868,2003
460876,33976,472,34609,1841,692,1551,-120,-626,234,528,1793,3911,67,68,865,1778,1868,2070,2238,2072,1816,1868,2003
461877,34072,580,34674,1906,705,1499,-122,-650,220,-63,1708,4192,77,62,867,1778,1868,2070,2238,2072,1816,1868,2003
462878,34180,680,34739,1971,503,1556,-116,-642,191,209,1726,4182,67,73,868,1778,1868,2070,2238,2072,1816,1868,2003
463879,34276,784,34804,2036,615,1460,-152,-638,164,214,1532,4103,63,57,870,1778,1868,2070,2238,2072,1816,1868,2003
464880,34376,884,34869,2101,522,1467,-154,-630,186,165,1458,4555,54,70,870,1778,1868,2070,2238,2072,1816,1868,2003
465881,34456,976,34934,2166,754,1535,-159,-624,183,268,1526,4226,71,67,871,1787,1872,2066,2232,2045,1787,1845,1980
466882,34540,1068,34999,2231,682,1502,-163,-628,161,310,1619,4392,63,52,871,1787,1872,2066,2232,2045,1787,1845,1980
467883,34636,1180,35064,2296,494,1196,-151,-630,152,381,1791,4408,59,63,869,1787,1872,2066,2232,2045,1787,1845,1980
468884,34736,1256,35129,2361,401,1632,-150,-664,154,621,1626,3844,68,51,870,1787,1872,2066,2232,2045,1787,1845,1980
469885,34820,1352,35194,2426,578,1345,-150,-654,132,547,1538,4303,52,59,874,1787,1872,2066,2232,2045,1787,1845,1980
470886,34916,1432,35259,2491,390,1527,-179,-635,149,-191,1457,4269,51,53,870,1786,1870,2072,2236,2037,1785,1840,1976
471887,35008,1508,35324,2556,407,1564,-205,-618,165,-30,1382,3942,55,45,872,1786,1870,2072,2236,2037,1785,1840,1976
472888,35076,1572,35389,2621,704,1716,-218,-597,194,329,1336,3844,67,41,870,1786,1870,2072,2236,2037,1785,1840,1976
473889,35176,1672,35454,2686,262,1223,-219,-640,236,221,1465,3918,65,45,870,1786,1870,2072,2236,2037,1785,1840,1976
474890,35260,1752,35519,2751,439,1455,-210,-674,268,31,1496,3721,66,46,866,1786,1870,2072,2236,2037,1785,1840,1976
475891,35336,1828,35584,2816,525,1493,-196,-686,285,123,1556,3856,52,52,875,1786,1870,2072,2236,2037,1785,1840,1976
476892,35412,1888,35649,2881,512,1699,-206,-685,291,347,1562,3857,44,46,871,1777,1862,2068,2232,2047,1800,1847,1983
477893,35488,1948,35714,2946,498,1706,-211,-641,307,254,1385,3836,54,41,869,1777,1862,2068,2232,2047,1800,1847,1983
478894,35568,2024,35779,3011,430,1492,-223,-616,345,320,1509,3646,60,42,867,1777,1862,2068,2232,2047,1800,1847,1983
479895,35648,2124,35844,3076,412,1150,-234,-613,371,344,1485,3685,44,50,867,1777,1862,2068,2232,2047,1800,1847,1983
480896,35720,2196,35909,3141,503,1492,-238,-618,371,335,1618,3556,43,43,871,1777,1862,2068,2232,2047,1800,1847,1983
481897,35788,2248,35974,3206,550,1758,-243,-618,369,229,1642,3512,38,56,875,1764,1844,2050,2214,2052,1800,1843,1970
482898,35856,2328,36039,3271,546,1390,-256,-612,363,464,1707,3468,51,41,871,1764,1844,2050,2214,2052,1800,1843,1970
483899,35932,2404,36104,3336,432,1427,-273,-570,351,446,1786,3769,58,48,867,1764,1844,2050,2214,2052,1800,1843,1970
484900,35996,2500,36169,3401,584,1139,-294,-539,344,438,1746,3484,52,55,871,1764,1844,2050,2214,2052,1800,1843,1970
485901,36088,2592,36234,3466,202,1156,-326,-505,340,278,1587,3615,39,59,871,1764,1844,2050,2214,2052,1800,1843,1970
486902,36156,2656,36299,3531,498,1509,-340,-478,365,304,1583,3391,58,58,873,1764,1844,2050,2214,2052,1800,1843,1970
487903,36220,2744,36364,3596,549,1181,-336,-468,388,471,1595,3256,49,48,876,1731,1808,2008,2169,2033,1780,1822,1950
488904,36292,2828,36429,3661,441,1207,-345,-493,396,274,1400,3297,46,42,871,1731,1808,2008,2169,2033,1780,1822,1950
489905,36372,2900,36494,3726,322,1350,-342,-511,414,-185,1345,3566,41,40,873,1731,1808,2008,2169,2033,1780,1822,1950
490906,36432,2980,36559,3791,579,1231,-355,-508,426,222,1446,3330,54,47,874,1731,1808,2008,2169,2033,1780,1822,1950
491907,36508,3060,36624,3856,365,1213,-377,-480,440,420,1337,3480,53,41,873,1731,1808,2008,2169,2033,1780,1822,1950
492908,36584,3116,36689,3921,352,1525,-395,-440,475,474,1348,3410,54,53,873,1706,1788,1989,2143,2020,1768,1812,1944
493909,36648,3192,36754,3986,503,1262,-405,-409,508,293,1297,3226,38,38,874,1706,1788,1989,2143,2020,1768,1812,1944
494910,36744,3264,36819,4051,65,1303,-425,-401,537,160,1211,3287,49,41,871,1706,1788,1989,2143,2020,1768,1812,1944
495911,36792,3352,36884,4116,686,1076,-444,-372,572,191,1172,3311,52,52,871,1706,1788,1989,2143,2020,1768,1812,1944
496912,36880,3428,36949,4181,158,1213,-470,-334,610,444,1242,3120,52,45,873,1706,1788,1989,2143,2020,1768,1812,1944
497913,36948,3500,37014,4246,404,1254,-496,-290,643,454,1275,3212,43,48,874,1706,1788,1989,2143,2020,1768,1812,1944
498914,37016,3576,37079,4311,400,1191,-529,-250,674,339,1367,2952,52,57,876,1712,1800,2001,2156,2021,1771,1819,1953
499915,37076,3648,37144,4376,507,1233,-557,-228,692,282,1302,3037,51,47,873,1712,1800,2001,2156,2021,1771,1819,1953
500916,37140,3724,37209,4441,458,1170,-592,-225,705,418,1330,2886,55,49,875,1712,1800,2001,2156,2021,1771,1819,1953
501917,37208,3828,37274,4506,404,772,-622,-240,718,252,1254,2769,39,64,874,1712,1800,2001,2156,2021,1771,1819,1953
502918,37292,3916,37339,4571,181,945,-665,-252,709,251,1184,2859,45,59,875,1712,1800,2001,2156,2021,1771,1819,1953
503919,37364,4016,37404,4636,322,752,-678,-252,743,106,1210,2836,38,48,878,1722,1806,2004,2158,2042,1788,1832,1960
504920,37436,4092,37469,4701,314,1039,-680,-250,759,358,1287,2792,35,47,878,1722,1806,2004,2158,2042,1788,1832,1960
505921,37520,4180,37534,4766,141,861,-687,-287,750,294,1082,2802,47,54,879,1722,1806,2004,2158,2042,1788,1832,1960
506922,37584,4276,37599,4831,392,723,-701,-309,760,111,1162,3103,50,62,877,1722,1806,2004,2158,2042,1788,1832,1960
507923,37648,4372,37664,4896,393,686,-700,-312,770,421,1139,2880,38,48,879,1722,1806,2004,2158,2042,1788,1832,1960
508924,37728,4460,37729,4961,175,758,-704,-307,779,649,1033,3197,54,58,879,1722,1806,2004,2158,2042,1788,1832,1960
509925,37780,4536,37794,5026,541,895,-695,-280,798,450,1127,3227,42,58,879,1693,1781,1971,2115,2029,1769,1820,1950
510926,37884,4624,37859,5091,-157,717,-686,-271,818,559,1120,3006,50,61,880,1693,1781,1971,2115,2029,1769,1820,1950
511927,37932,4708,37924,5156,564,743,-694,-253,831,467,1040,3308,39,46,876,1693,1781,1971,2115,2029,1769,1820,1950
512928,38012,4788,37989,5221,145,776,-716,-219,849,527,1079,3189,38,45,871,1693,1781,1971,2115,2029,1769,1820,1950
513929,38092,4884,38054,5286,127,538,-727,-189,872,662,1103,2996,40,47,877,1693,1781,1971,2115,2029,1769,1820,1950
514930,38164,4964,38119,5351,219,720,-756,-177,901,420,907,3058,56,48,880,1679,1778,1956,2092,1991,1745,1806,1938
515931,38236,5052,38184,5416,210,592,-774,-171,925,302,993,3094,46,48,881,1679,1778,1956,2092,1991,1745,1806,1938
516932,38316,5124,38249,5481,92,783,-793,-211,934,185,880,2893,56,48,880,1679,1778,1956,2092,1991,1745,1806,1938
517933,38380,5216,38314,5546,293,500,-797,-219,945,113,810,3131,38,50,880,1679,1778,1956,2092,1991,1745,1806,1938
518934,38472,5324,38379,5611,-90,248,-797,-253,961,372,849,2864,54,58,880,1679,1778,1956,2092,1991,1745,1806,1938
519935,38528,5404,38444,5676,371,581,-790,-305,961,535,741,2722,52,56,881,1679,1778,1956,2092,1991,1745,1806,1938
520936,38604,5476,38509,5741,108,672,-769,-373,963,173,730,2893,38,49,880,1694,1799,1975,2122,2002,1752,1814,1940
521937,38680,5564,38574,5806,94,444,-763,-419,972,35,692,2716,48,53,880,1694,1799,1975,2122,2002,1752,1814,1940
522938,38736,5648,38639,5871,355,471,-764,-441,973,283,644,3013,55,42,881,1694,1799,1975,2122,2002,1752,1814,1940
523939,38812,5720,38704,5936,92,612,-756,-427,971,638,601,2929,53,51,882,1694,1799,1975,2122,2002,1752,1814,1940
524940,38892,5812,38769,6001,23,329,-747,-416,980,619,622,3045,46,57,881,1694,1799,1975,2122,2002,1752,1814,1940
525941,38968,5892,38834,6066,60,461,-736,-404,975,477,564,3188,53,51,881,1715,1820,1991,2139,1993,1743,1814,1935
526942,39044,5964,38899,6131,46,552,-730,-386,962,542,611,3062,39,51,883,1715,1820,1991,2139,1993,1743,1814,1935
527943,39128,6052,38964,6196,-77,324,-729,-373,957,589,573,3052,41,46,882,1715,1820,1991,2139,1993,1743,1814,1935
528944,39196,6136,39029,6261,120,351,-719,-361,951,565,585,3056,52,47,882,1715,1820,1991,2139,1993,1743,1814,1935
529945,39308,6224,39094,6326,-489,273,-711,-349,942,560,511,3193,52,52,880,1715,1820,1991,2139,1993,1743,1814,1935
530946,39460,6328,39159,6391,-1095,25,-705,-342,935,464,553,2982,37,62,881,1715,1820,1991,2139,1993,1743,1814,1935
531947,39572,6420,39224,6456,-652,142,-701,-338,938,359,525,3282,53,58,884,1732,1831,1996,2156,1984,1739,1810,1918
532948,39636,6536,39289,6521,-51,-220,-681,-313,944,430,391,3287,46,56,885,1732,1831,1996,2156,1984,1739,1810,1918
533950,39712,6700,39354,6586,-215,-941,-657,-334,933,330,554,2830,39,57,884,1732,1831,1996,2156,1984,1739,1810,1918
534950,39768,6808,39419,6651,46,-293,-602,-382,921,-177,517,3074,48,42,865,1732,1831,1996,2156,1984,1739,1810,1918
535951,39844,6880,39484,6716,-217,148,-532,-415,911,302,377,3285,39,41,883,1732,1831,1996,2156,1984,1739,1810,1918
536952,39896,6964,39549,6781,99,-25,-491,-499,879,52,191,3023,39,49,871,1731,1823,1995,2172,1972,1725,1788,1901
537953,39972,7036,39614,6846,-216,117,-473,-598,860,-283,398,3254,38,50,884,1731,1823,1995,2172,1972,1725,1788,1901
538954,40044,7116,39679,6911,-174,-2,-455,-603,873,-239,325,3275,37,39,871,1731,1823,1995,2172,1972,1725,1788,1901
539955,40108,7200,39744,6976,-73,-75,-453,-555,887,735,294,3040,54,55,875,1731,1823,1995,2172,1972,1725,1788,1901
540956,40176,7264,39809,7041,-126,176,-462,-496,879,728,199,3167,38,49,883,1731,1823,1995,2172,1972,1725,1788,1901
541957,40236,7336,39874,7106,-20,68,-464,-424,861,178,143,3246,46,45,878,1731,1823,1995,2172,1972,1725,1788,1901
542958,40304,7408,39939,7171,-124,59,-477,-341,854,353,74,3341,45,41,884,1756,1847,1999,2186,1938,1719,1797,1894
543959,40376,7480,40004,7236,-183,51,-501,-259,854,691,51,3191,53,42,879,1756,1847,1999,2186,1938,1719,1797,1894
544960,40456,7552,40069,7301,-302,41,-501,-180,851,629,-127,3258,37,51,874,1756,1847,1999,2186,1938,1719,1797,1894
545961,40512,7640,40134,7366,9,-187,-496,-124,849,298,-159,3401,54,46,883,1756,1847,1999,2186,1938,1719,1797,1894
546962,40580,7712,40199,7431,-145,4,-474,-111,822,30,-84,3311,35,53,882,1756,1847,1999,2186,1938,1719,1797,1894
547963,40640,7792,40264,7496,-38,-114,-453,-110,799,-77,-403,3358,37,53,877,1767,1847,2020,2195,1962,1756,1817,1910
548964,40724,7880,40329,7561,-362,-242,-414,-91,784,-22,-366,3505,42,43,884,1767,1847,2020,2195,1962,1756,1817,1910
549965,40788,7956,40394,7626,-110,-105,-381,-102,769,-155,-284,3347,45,42,883,1767,1847,2020,2195,1962,1756,1817,1910
550966,40868,8032,40459,7691,-329,-119,-342,-124,753,-196,-203,3579,36,44,879,1767,1847,2020,2195,1962,1756,1817,1910
551967,40948,8120,40524,7756,-348,-297,-318,-164,735,-453,-313,3259,56,44,883,1767,1847,2020,2195,1962,1756,1817,1910
552968,41020,8208,40589,7821,-257,-325,-303,-160,698,-143,-318,3836,55,52,883,1767,1847,2020,2195,1962,1756,1817,1910
553969,41080,8312,40654,7886,-101,-574,-291,-123,682,-21,-273,3402,44,41,883,1754,1832,2015,2218,2004,1784,1842,1932
554970,41160,8368,40719,7951,-369,37,-293,-89,679,230,-322,3502,54,46,877,1754,1832,2015,2218,2004,1784,1842,1932
555971,41232,8444,40784,8016,-277,-226,-301,-58,678,158,-342,3498,54,45,884,1754,1832,2015,2218,2004,1784,1842,1932
556972,41324,8516,40849,8081,-560,-185,-315,-6,672,157,-442,3678,40,54,884,1754,1832,2015,2218,2004,1784,1842,1932
557973,41408,8588,40914,8146,-485,-193,-341,91,675,301,-516,3776,56,53,884,1754,1832,2015,2218,2004,1784,1842,1932
558974,41456,8668,40979,8211,-14,-311,-359,215,675,581,-371,3758,41,54,884,1771,1848,2026,2234,2010,1790,1857,1943
559975,41536,8744,41044,8276,-432,-276,-391,278,680,509,-400,3765,41,58,883,1771,1848,2026,2234,2010,1790,1857,1943
560976,41600,8808,41109,8341,-231,-125,-410,289,658,276,-465,3652,40,44,883,1771,1848,2026,2234,2010,1790,1857,1943
561977,41704,8884,41174,8406,-778,-288,-422,323,655,-8,-741,4030,39,52,884,1771,1848,2026,2234,2010,1790,1857,1943
562978,41772,8972,41239,8471,-333,-466,-411,349,659,40,-881,3547,39,49,882,1771,1848,2026,2234,2010,1790,1857,1943
563979,41860,9048,41304,8536,-611,-329,-388,327,655,-259,-871,3660,41,46,881,1771,1848,2026,2234,2010,1790,1857,1943
564980,41952,9112,41369,8601,-694,-179,-360,234,616,-752,-855,3624,43,39,883,1780,1856,2035,2242,2036,1814,1865,1958
565981,42036,9192,41434,8666,-617,-398,-332,164,576,-747,-1169,3903,54,52,884,1780,1856,2035,2242,2036,1814,1865,1958
566982,42124,9264,41499,8731,-695,-306,-302,96,569,-276,-940,3583,61,41,882,1780,1856,2035,2242,2036,1814,1865,1958
567983,42224,9340,41564,8796,-889,-370,-271,41,549,181,-983,3656,44,53,883,1780,1856,2035,2242,2036,1814,1865,1958
568984,42308,9404,41629,8861,-712,-218,-250,13,540,-48,-1203,3799,49,54,875,1780,1856,2035,2242,2036,1814,1865,1958
569985,42392,9488,41694,8926,-736,-493,-259,28,552,-76,-1353,4052,45,47,884,1776,1858,2041,2240,2024,1794,1860,1952
570986,42500,9568,41759,8991,-1088,-461,-294,160,574,365,-1300,4375,48,42,882,1776,1858,2041,2240,2024,1794,1860,1952
571987,42568,9640,41824,9056,-593,-369,-383,336,608,602,-1322,4405,47,40,882,1776,1858,2041,2240,2024,1794,1860,1952
572988,42672,9716,41889,9121,-1090,-433,-478,473,651,576,-1317,4262,61,47,874,1776,1858,2041,2240,2024,1794,1860,1952
573989,42760,9784,41954,9186,-918,-336,-564,540,682,300,-1198,4209,47,51,882,1776,1858,2041,2240,2024,1794,1860,1952
574990,42836,9860,42019,9251,-783,-451,-614,525,672,34,-1075,4012,52,48,883,1776,1858,2041,2240,2024,1794,1860,1952
575991,42932,9936,42084,9316,-1071,-464,-630,447,608,-318,-1043,3772,64,42,882,1808,1891,2053,2265,2022,1805,1882,1971
576992,43032,9996,42149,9381,-1163,-258,-621,301,542,-533,-924,3750,58,50,878,1808,1891,2053,2265,2022,1805,1882,1971
577993,43140,10080,42214,9446,-1317,-581,-608,114,483,-224,-1271,3637,65,43,883,1808,1891,2053,2265,2022,1805,1882,1971
578994,43240,10144,42279,9511,-1260,-331,-554,-97,430,-625,-1561,3634,53,50,881,1808,1891,2053,2265,2022,1805,1882,1971
579995,43340,10212,42344,9576,-1302,-385,-504,-276,384,-910,-1632,3922,48,38,882,1808,1891,2053,2265,2022,1805,1882,1971
580996,43464,10276,42409,9641,-1675,-334,-483,-313,370,-497,-1997,4394,59,48,879,1786,1866,2019,2250,2098,1858,1926,2024
581997,43552,10352,42474,9706,-1253,-497,-480,-232,390,174,-2181,4367,55,40,883,1786,1866,2019,2250,2098,1858,1926,2024
582998,43660,10408,42539,9771,-1557,-237,-485,-164,432,725,-2125,4446,53,52,881,1786,1866,2019,2250,2098,1858,1926,2024
583999,43784,10476,42604,9836,-1829,-391,-484,-74,477,846,-1979,4605,58,38,883,1786,1866,2019,2250,2098,1858,1926,2024
585000,43876,10540,42669,9901,-1462,-340,-493,40,508,695,-1788,4598,61,50,882,1786,1866,2019,2250,2098,1858,1926,2024
586006,43964,10608,42734,9966,-1441,-393,-531,68,509,916,-1762,4212,66,40,883,1786,1866,2019,2250,2098,1858,1926,2024
587002,44080,10672,42799,10031,-1853,-343,-570,6,494,537,-1625,4208,63,53,883,1797,1891,2052,2261,2070,1838,1923,2004
588003,44208,10740,42864,10096,-2081,-397,-589,-116,452,-367,-1646,4030,72,52,883,1797,1891,2052,2261,2070,1838,1923,2004
589004,44308,10812,42929,10161,-1774,-455,-603,-246,423,-326,-1691,4108,73,52,882,1797,1891,2052,2261,2070,1838,1923,2004
590005,44420,10884,42994,10226,-1982,-464,-609,-394,385,-109,-1509,3984,55,41,882,1797,1891,2052,2261,2070,1838,1923,2004
591006,44516,10948,43059,10291,-1820,-364,-629,-550,345,-626,-1808,3895,62,36,882,1797,1891,2052,2261,2070,1838,1923,2004
592007,44616,11024,43124,10356,-1914,-527,-651,-657,318,-547,-2051,4443,74,47,883,1817,1906,2066,2290,2049,1822,1905,1983
593008,44728,11084,43189,10421,-2122,-321,-690,-722,281,19,-1921,4302,63,33,881,1817,1906,2066,2290,2049,1822,1905,1983
594009,44824,11132,43254,10486,-1960,-150,-713,-718,217,825,-1970,4871,68,32,883,1817,1906,2066,2290,2049,1822,1905,1983
595010,44948,11196,43319,10551,-2383,-350,-736,-720,173,925,-2177,4777,69,40,884,1817,1906,2066,2290,2049,1822,1905,1983
596011,45072,11256,43384,10616,-2455,-294,-738,-770,148,519,-2362,4003,64,42,883,1817,1906,2066,2290,2049,1822,1905,1983
597012,45160,11312,43449,10681,-2034,-233,-686,-840,123,713,-2275,4644,58,34,882,1817,1906,2066,2290,2049,1822,1905,1983
598013,45284,11372,43514,10746,-2557,-277,-616,-868,117,113,-2828,4455,72,38,882,1832,1921,2082,2296,2057,1830,1905,2002
599014,45396,11424,43579,10811,-2465,-162,-569,-860,130,13,-2930,4242,68,41,883,1832,1921,2082,2296,2057,1830,1905,2002
600015,45504,11480,43644,10876,-2468,-201,-552,-785,107,909,-2432,4701,66,34,884,1832,1921,2082,2296,2057,1830,1905,2002
601016,45624,11536,43709,10941,-2686,-190,-587,-702,106,834,-2407,4502,61,36,883,1832,1921,2082,2296,2057,1830,1905,2002
602017,45696,11612,43774,11006,-2096,-453,-662,-663,116,800,-2298,4275,60,50,874,1832,1921,2082,2296,2057,1830,1905,2002
603018,45848,11660,43839,11071,-3202,-83,-729,-639,87,1042,-1801,4833,65,47,882,1845,1938,2096,2327,2038,1825,1911,1970
604019,45972,11728,43904,11136,-2925,-337,-730,-621,41,755,-2193,4938,57,44,884,1845,1938,2096,2327,2038,1825,1911,1970
605020,46068,11788,43969,11201,-2614,-231,-651,-566,-1,595,-2565,5462,66,41,883,1845,1938,2096,2327,2038,1825,1911,1970
606021,46196,11836,44034,11266,-3092,-60,-484,-674,-30,493,-2150,5022,63,50,878,1845,1938,2096,2327,2038,1825,1911,1970
607022,46288,11900,44099,11331,-2675,-259,-255,-864,-68,120,-2410,5022,58,40,884,1845,1938,2096,2327,2038,1825,1911,1970
608023,46392,11956,44164,11396,-2873,-149,-56,-933,-109,-656,-3067,5184,54,44,883,1838,1918,2094,2374,2038,1828,1904,1924
609024,46512,12024,44229,11461,-3141,-303,44,-834,-147,674,-2264,5477,54,35,884,1838,1918,2094,2374,2038,1828,1904,1924
610025,46596,12084,44294,11526,-2716,-197,53,-617,-177,2059,-2014,5343,54,39,877,1838,1918,2094,2374,2038,1828,1904,1924
611026,46704,12152,44359,11591,-3069,-300,-40,-401,-161,1976,-2263,4964,52,40,884,1838,1918,2094,2374,2038,1828,1904,1924
612027,46804,12216,44424,11656,-3013,-250,-141,-155,-176,1633,-1721,5458,66,47,883,1838,1918,2094,2374,2038,1828,1904,1924
613028,46888,12264,44489,11721,-2837,-29,-225,-17,-184,1651,-1955,5109,59,36,883,1838,1918,2094,2374,2038,1828,1904,1924
614029,46992,12320,44554,11786,-3136,-118,-237,112,-176,1531,-2245,5567,58,43,881,1954,2014,2167,2522,1952,1782,1872,1877
615030,47088,12388,44619,11851,-3074,-272,-223,139,-135,796,-2743,4771,54,36,883,1954,2014,2167,2522,1952,1782,1872,1877
616031,47192,12456,44684,11916,-3223,-276,-162,143,-136,987,-2689,5212,48,52,883,1954,2014,2167,2522,1952,1782,1872,1877
617032,47276,12512,44749,11981,-2996,-116,-84,146,-139,812,-2819,5257,43,38,883,1954,2014,2167,2522,1952,1782,1872,1877
618033,47356,12564,44814,12046,-2966,-50,11,78,-168,642,-2820,4707,56,36,883,1954,2014,2167,2522,1952,1782,1872,1877
619034,47436,12628,44879,12111,-2985,-199,98,17,-182,351,-3093,4948,42,39,884,1965,2002,2196,2526,2019,1839,1899,1924
620035,47500,12680,44944,12176,-2785,-33,183,19,-203,1031,-2849,5320,40,48,883,1965,2002,2196,2526,2019,1839,1899,1924
621036,47564,12736,45009,12241,-2784,-72,282,56,-221,1769,-2837,4923,50,36,884,1965,2002,2196,2526,2019,1839,1899,1924
622037,47644,12792,45074,12306,-3004,-62,375,110,-232,1841,-2638,5001,37,39,883,1965,2002,2196,2526,2019,1839,1899,1924
623038,47696,12860,45139,12371,-2639,-215,441,180,-232,1338,-2373,4717,47,34,884,1965,2002,2196,2526,2019,1839,1899,1924
624039,47768,12908,45204,12436,-2898,55,480,297,-244,1536,-2083,4905,48,41,883,1965,2002,2196,2526,2019,1839,1899,1924
625040,47828,12948,45269,12501,-2743,186,503,397,-227,2000,-2101,4704,34,32,884,1930,1985,2167,2443,2033,1821,1905,1955
626041,47892,13012,45334,12566,-2793,-113,494,475,-202,2124,-1890,4441,45,36,883,1930,1985,2167,2443,2033,1821,1905,1955
627042,47976,13068,45399,12631,-3067,-3,503,590,-208,2029,-1472,5008,26,45,884,1930,1985,2167,2443,2033,1821,1905,1955
628043,48024,13140,45464,12696,-2597,-211,482,642,-178,1685,-1690,4644,30,33,884,1930,1985,2167,2443,2033,1821,1905,1955
629044,48064,13188,45529,12761,-2468,109,485,656,-151,1820,-1477,4921,30,47,883,1930,1985,2167,2443,2033,1821,1905,1955
630045,48120,13248,45594,12826,-2658,-35,493,614,-120,1503,-1341,4625,37,32,884,1872,1943,2090,2329,2027,1798,1807,1963
631046,48172,13304,45659,12891,-2593,26,519,533,-99,1054,-1337,4761,32,32,884,1872,1943,2090,2329,2027,1798,1807,1963
632047,48200,13356,45724,12956,-2249,92,540,454,-83,954,-1278,4633,30,43,884,1872,1943,2090,2329,2027,1798,1807,1963
633048,48244,13424,45789,13021,-2424,-112,571,353,-64,909,-1222,4451,31,32,883,1872,1943,2090,2329,2027,1798,1807,1963
634051,48280,13468,45854,13086,-2290,213,614,267,-62,1101,-1154,4473,27,36,883,1872,1943,2090,2329,2027,1798,1807,1963
635050,48304,13532,45919,13151,-2091,-36,651,178,-50,990,-1381,4184,19,36,877,1872,1943,2090,2329,2027,1798,1807,1963
636051,48344,13588,45984,13216,-2261,75,691,133,-54,1263,-1300,4503,22,33,885,1798,1889,2052,2238,2072,1826,1903,2008
637052,48368,13640,46049,13281,-2012,141,741,128,-65,1507,-1245,4124,29,38,884,1798,1889,2052,2238,2072,1826,1903,2008
638053,48388,13692,46114,13346,-1908,157,777,125,-70,1617,-1251,4078,24,30,884,1798,1889,2052,2238,2072,1826,1903,2008
639054,48416,13748,46179,13411,-1964,118,802,126,-87,1510,-1130,3892,16,45,876,1798,1889,2052,2238,2072,1826,1903,2008
640055,48424,13812,46244,13476,-1645,18,812,127,-104,1448,-1111,3682,7,37,884,1798,1889,2052,2238,2072,1826,1903,2008
641056,48448,13852,46309,13541,-1796,349,805,130,-113,1492,-1007,3635,16,31,884,1799,1903,2089,2287,2070,1825,1888,1986
642057,48452,13928,46374,13606,-1472,-115,798,133,-119,1403,-903,3527,21,37,883,1799,1903,2089,2287,2070,1825,1888,1986
643058,48480,13964,46439,13671,-1728,421,792,139,-123,1198,-658,3593,5,42,880,1799,1903,2089,2287,2070,1825,1888,1986
644059,48476,13988,46504,13736,-1245,621,775,119,-121,1189,-614,3501,11,30,883,1799,1903,2089,2287,2070,1825,1888,1986
645060,48488,13996,46569,13801,-1380,890,761,57,-135,927,-442,3713,21,47,881,1799,1903,2089,2287,2070,1825,1888,1986
646061,48484,14036,46634,13866,-1097,521,728,-51,-136,552,-236,3354,2,33,879,1799,1903,2089,2287,2070,1825,1888,1986
647062,48492,14100,46699,13931,-1178,222,685,-170,-125,380,-174,3187,1,52,877,1830,1907,2097,2314,2016,1793,1850,1928
648063,48492,14164,46764,13996,-999,223,650,-232,-113,445,-36,3531,-1,50,884,1830,1907,2097,2314,2016,1793,1850,1928
649064,48492,14252,46829,14061,-921,-105,638,-254,-96,701,-18,3459,3,40,882,1830,1907,2097,2314,2016,1793,1850,1928
650065,48500,14328,46894,14126,-952,32,630,-272,-91,658,53,3522,14,52,884,1830,1907,2097,2314,2016,1793,1850,1928
651066,48492,14412,46959,14191,-663,-92,636,-281,-101,546,214,3633,15,39,883,1830,1907,2097,2314,2016,1793,1850,1928
652067,48484,14476,47024,14256,-575,159,643,-275,-119,548,239,3733,5,39,884,1785,1856,2040,2249,1998,1784,1835,2168
653068,48480,14568,47089,14321,-541,-224,649,-266,-124,783,323,3751,2,36,884,1785,1856,2040,2249,1998,1784,1835,2168
654069,48488,14628,47154,14386,-622,182,667,-237,-134,860,356,3825,15,46,884,1785,1856,2040,2249,1998,1784,1835,2168
655070,48484,14688,47219,14451,-389,188,688,-162,-146,838,369,3857,-2,45,883,1785,1856,2040,2249,1998,1784,1835,2168
656071,48484,14768,47284,14516,-359,-80,706,-123,-164,838,433,3593,12,48,884,1785,1856,2040,2249,1998,1784,1835,2168
657072,48480,14812,47349,14581,-226,396,717,-96,-177,547,364,3682,2,44,884,1785,1856,2040,2249,1998,1784,1835,2168
658073,48480,14868,47414,14646,-197,257,734,-59,-196,319,362,3549,11,31,883,1744,1818,2016,2211,1998,1795,1839,1940
659074,48484,14936,47479,14711,-172,103,756,1,-215,258,431,3775,-3,40,873,1744,1818,2016,2211,1998,1795,1839,1940
660075,48480,14996,47544,14776,11,209,784,81,-239,419,400,3824,0,33,875,1744,1818,2016,2211,1998,1795,1839,1940
661076,48476,15052,47609,14841,95,270,820,143,-262,352,431,3831,6,33,884,1744,1818,2016,2211,1998,1795,1839,1940
662077,48480,15096,47674,14906,70,445,827,157,-284,-42,682,3718,16,44,883,1744,1818,2016,2211,1998,1795,1839,1940
663078,48480,15160,47739,14971,198,196,820,133,-289,-301,757,3441,17,30,882,1755,1819,2031,2250,2018,1805,1842,1936
664079,48488,15220,47804,15036,168,252,786,95,-304,-258,865,3463,17,43,883,1755,1819,2031,2250,2018,1805,1842,1936
665080,48488,15280,47869,15101,347,258,761,90,-318,-189,918,3591,0,37,883,1755,1819,2031,2250,2018,1805,1842,1936
666081,48484,15328,47934,15166,480,429,725,96,-324,27,947,3478,15,35,881,1755,1819,2031,2250,2018,1805,1842,1936
667082,48484,15392,47999,15231,509,230,704,109,-336,60,1019,3380,15,33,880,1755,1819,2031,2250,2018,1805,1842,1936
668083,48492,15456,48064,15296,479,231,667,108,-341,-272,1108,3695,10,42,881,1755,1819,2031,2250,2018,1805,1842,1936
669084,48504,15524,48129,15361,494,178,645,142,-343,-101,1123,3629,7,37,881,1811,1878,2099,2314,2025,1813,1851,1952
670085,48504,15584,48194,15426,723,284,613,201,-334,509,1048,3620,25,43,881,1811,1878,2099,2314,2025,1813,1851,1952
671086,48524,15648,48259,15491,528,235,597,261,-331,692,950,3611,8,46,879,1811,1878,2099,2314,2025,1813,1851,1952
672087,48552,15716,48324,15556,473,181,584,290,-327,223,976,3678,23,34,881,1811,1878,2099,2314,2025,1813,1851,1952
673088,48572,15780,48389,15621,627,232,587,304,-317,-107,1038,3964,32,46,882,1811,1878,2099,2314,2025,1813,1851,1952
674089,48608,15820,48454,15686,463,563,596,300,-320,157,1109,3935,27,47,880,1812,1876,2095,2284,2050,1828,1860,1974
675090,48652,15884,48519,15751,388,264,612,290,-335,210,1145,4017,29,42,880,1812,1876,2095,2284,2050,1828,1860,1974
676091,48692,15948,48584,15816,469,265,622,276,-338,22,1308,3996,26,47,882,1812,1876,2095,2284,2050,1828,1860,1974
677092,48732,16020,48649,15881,499,157,628,258,-342,-192,1333,4091,31,38,881,1812,1876,2095,2284,2050,1828,1860,1974
678093,48764,16092,48714,15946,639,147,636,237,-345,-228,1331,4021,36,36,882,1812,1876,2095,2284,2050,1828,1860,1974
679094,48820,16144,48779,16011,350,413,635,217,-354,-42,1432,4130,37,46,881,1812,1876,2095,2284,2050,1828,1860,1974
680095,48860,16212,48844,16076,581,209,637,219,-362,180,1226,4047,26,44,881,1771,1846,2063,2236,2060,1824,1861,1986
681096,48924,16252,48909,16141,282,590,624,192,-373,147,1203,3903,37,35,881,1771,1846,2063,2236,2060,1824,1861,1986
682097,48972,16312,48974,16206,503,346,599,168,-387,53,1471,4057,28,50,882,1771,1846,2063,2236,2060,1824,1861,1986
683098,49028,16368,49039,16271,414,407,547,136,-391,-170,1547,3622,24,37,880,1771,1846,2063,2236,2060,1824,1861,1986
684099,49104,16440,49104,16336,151,199,492,155,-400,61,1538,4093,40,46,881,1771,1846,2063,2236,2060,1824,1861,1986
685100,49152,16512,49169,16401,521,190,436,158,-399,140,1585,3730,40,52,883,1771,1857,2063,2239,2069,1826,1876,2008
686101,49212,16568,49234,16466,377,401,386,155,-396,-25,1667,3679,36,35,882,1771,1857,2063,2239,2069,1826,1876,2008
687102,49280,16616,49299,16531,274,522,338,121,-378,-319,1476,3616,48,51,881,1771,1857,2063,2239,2069,1826,1876,2008
688103,49352,16700,49364,16596,215,49,299,89,-364,-234,1426,3714,42,47,881,1771,1857,2063,2239,2069,1826,1876,2008
689104,49408,16772,49429,16661,426,190,263,47,-356,-320,1254,3556,28,48,884,1771,1857,2063,2239,2069,1826,1876,2008
690105,49460,16844,49494,16726,492,181,240,32,-332,-136,1094,3664,30,50,882,1771,1857,2063,2239,2069,1826,1876,2008
691106,49524,16908,49559,16791,343,283,227,13,-305,23,1075,3662,42,53,882,1768,1856,2068,2226,2107,1858,1892,2035
692107,49588,16976,49624,16856,344,229,204,-3,-287,49,1028,3708,33,48,882,1768,1856,2068,2226,2107,1858,1892,2035
693108,49644,17056,49689,16921,455,61,180,-3,-275,-10,976,3542,31,34,883,1768,1856,2068,2226,2107,1858,1892,2035
694109,49684,17104,49754,16986,686,481,170,-2,-256,192,934,3833,40,47,883,1768,1856,2068,2226,2107,1858,1892,2035
695110,49756,17168,49819,17051,277,283,156,-25,-242,295,912,3627,42,37,879,1768,1856,2068,2226,2107,1858,1892,2035
696111,49832,17228,49884,17116,214,339,136,-42,-230,19,932,3611,36,51,883,1747,1827,2051,2211,2111,1859,1883,2012
697112,49892,17300,49949,17181,420,180,108,-69,-230,143,1164,3545,38,34,883,1747,1827,2051,2211,2111,1859,1883,2012
698113,49968,17360,50014,17246,207,336,79,-98,-221,194,1060,3526,31,48,883,1747,1827,2051,2211,2111,1859,1883,2012
699114,50028,17432,50079,17311,413,177,29,-125,-210,79,1213,3288,32,50,883,1747,1827,2051,2211,2111,1859,1883,2012
700115,50080,17484,50278,17510,692,606,-30,-138,-211,37,1218,3486,33,40,881,1747,1827,2051,2211,2111,1859,1883,2012
701116,50140,17560,50343,17575,598,293,-98,-153,-194,114,1142,3533,47,48,878,1747,1827,2051,2211,2111,1859,1883,2012
702117,50204,17612,50408,17640,550,609,-158,-131,-174,415,1192,3679,47,38,881,1741,1813,2031,2207,2069,1827,1857,1970
703118,50284,17672,50473,17705,332,515,-227,-116,-159,334,1229,3566,40,37,879,1741,1813,2031,2207,2069,1827,1857,1970
704119,50352,17744,50538,17770,479,356,-279,-92,-146,179,1106,3717,46,48,881,1741,1813,2031,2207,2069,1827,1857,1970
705120,50412,17808,50603,17835,585,457,-326,-66,-124,285,926,3703,43,47,882,1741,1813,2031,2207,2069,1827,1857,1970
706121,50476,17884,50668,17900,536,294,-356,-59,-86,163,741,3477,43,50,880,1741,1813,2031,2207,2069,1827,1857,1970
707122,50552,17936,50733,17965,372,610,-382,-41,-62,173,743,3649,45,40,881,1729,1804,2017,2190,2063,1825,1859,1979
708123,50616,17996,50798,18030,524,516,-400,-57,-18,-127,556,3236,45,40,880,1729,1804,2017,2190,2063,1825,1859,1979
709124,50692,18068,50863,18095,360,357,-413,-63,9,55,599,3579,48,39,880,1729,1804,2017,2190,2063,1825,1859,1979
710125,50764,18136,50928,18160,402,404,-412,-69,30,57,499,3381,58,52,882,1729,1804,2017,2190,2063,1825,1859,1979
711126,50840,18208,50993,18225,338,345,-416,-84,52,46,350,3280,41,43,881,1729,1804,2017,2190,2063,1825,1859,1979
712127,50920,18284,51058,18290,270,282,-431,-67,79,108,377,3460,55,43,882,1729,1804,2017,2190,2063,1825,1859,1979
713128,50992,18360,51123,18355,361,268,-443,-60,104,369,525,3151,39,51,883,1728,1811,2029,2205,2079,1833,1868,1984
714129,51060,18428,51188,18420,408,365,-454,-55,119,398,385,3295,49,35,882,1728,1811,2029,2205,2079,1833,1868,1984
715130,51136,18488,51253,18485,294,471,-476,-33,132,408,381,3271,41,50,881,1728,1811,2029,2205,2079,1833,1868,1984
716131,51204,18552,51318,18550,391,422,-499,0,158,300,340,3315,47,36,882,1728,1811,2029,2205,2079,1833,1868,1984
717132,51276,18632,51383,18615,332,204,-526,5,167,522,480,3289,37,46,880,1728,1811,2029,2205,2079,1833,1868,1984
718133,51348,18696,51448,18680,324,405,-523,42,169,497,447,3686,53,36,882,1760,1841,2049,2239,2043,1805,1851,1949
719134,51424,18756,51513,18745,260,461,-524,90,180,561,369,3864,36,46,882,1760,1841,2049,2239,2043,1805,1851,1949
720135,51476,18824,51578,18810,576,357,-511,164,206,594,258,4096,50,45,882,1760,1841,2049,2239,2043,1805,1851,1949
721136,51520,18892,51643,18875,702,354,-507,211,219,687,306,4193,36,29,880,1760,1841,2049,2239,2043,1805,1851,1949
722137,51604,18936,51708,18940,179,679,-487,240,232,665,368,4325,41,47,879,1760,1841,2049,2239,2043,1805,1851,1949
723138,51656,18996,51773,19005,595,485,-479,227,242,355,423,4105,39,45,881,1760,1841,2049,2239,2043,1805,1851,1949
724139,51724,19076,51838,19070,392,217,-458,209,242,152,374,4377,41,41,880,1788,1860,2062,2278,2005,1785,1839,1920
725140,51784,19132,51903,19135,498,528,-445,181,248,183,268,4154,36,48,882,1788,1860,2062,2278,2005,1785,1839,1920
726141,51836,19184,51968,19200,614,594,-415,139,278,258,152,4111,30,45,880,1788,1860,2062,2278,2005,1785,1839,1920
727142,51896,19256,52033,19265,520,335,-402,131,297,253,150,4236,36,47,878,1788,1860,2062,2278,2005,1785,1839,1920
728143,51948,19316,52098,19330,636,492,-373,117,307,298,5,4144,38,48,881,1788,1860,2062,2278,2005,1785,1839,1920
729144,52008,19368,52163,19395,542,607,-353,135,321,472,-48,4313,43,43,879,1843,1914,2120,2363,2006,1795,1855,1937
730145,52072,19444,52228,19460,493,294,-323,163,334,641,-47,4291,50,43,879,1843,1914,2120,2363,2006,1795,1855,1937
731146,52120,19492,52293,19525,714,665,-298,196,337,711,-207,4298,31,34,881,1843,1914,2120,2363,2006,1795,1855,1937
732147,52172,19560,52358,19590,680,411,-277,252,331,642,-326,4283,34,38,877,1843,1914,2120,2363,2006,1795,1855,1937
733148,52232,19620,52423,19655,586,517,-246,307,337,826,-231,4299,40,34,879,1843,1914,2120,2363,2006,1795,1855,1937
734149,52292,19684,52488,19720,592,468,-219,362,335,783,-247,4201,33,33,878,1843,1914,2120,2363,2006,1795,1855,1937
735150,52348,19748,52553,19785,653,470,-183,419,327,702,-320,4302,38,47,879,1901,1968,2164,2406,2016,1804,1870,1950
736151,52408,19816,52618,19850,609,416,-160,458,319,716,-308,4385,45,35,879,1901,1968,2164,2406,2016,1804,1870,1950
737152,52452,19880,52683,19915,834,468,-126,453,310,578,-326,4335,31,33,880,1901,1968,2164,2406,2016,1804,1870,1950
738153,52520,19944,52748,19980,531,469,-106,435,297,306,-281,4388,46,32,877,1901,1968,2164,2406,2016,1804,1870,1950
739154,52572,19988,52813,20045,748,745,-75,390,280,225,-314,4270,48,37,880,1901,1968,2164,2406,2016,1804,1870,1950
740155,52624,20052,52878,20110,764,496,-40,331,260,197,-369,4494,31,40,876,1892,1958,2142,2379,2013,1798,1865,1940
741156,52688,20112,52943,20175,615,552,-3,290,244,351,-374,4497,34,48,878,1892,1958,2142,2379,2013,1798,1865,1940
742157,52756,20180,53008,20240,561,449,29,305,227,594,-412,4625,42,44,879,1892,1958,2142,2379,2013,1798,1865,1940
743158,52828,20228,53073,20305,503,719,63,329,211,691,-393,4595,48,45,880,1892,1958,2142,2379,2013,1798,1865,1940
744159,52888,20292,53138,20370,659,521,84,339,196,626,-372,4550,50,32,878,1892,1958,2142,2379,2013,1798,1865,1940
745160,52952,20336,53203,20435,610,796,118,347,189,598,-463,4696,32,47,879,1892,1958,2142,2379,2013,1798,1865,1940
746161,53000,20408,53268,20500,831,438,144,364,178,701,-474,4688,45,45,876,1843,1916,2094,2318,2009,1793,1864,1948
747162,53064,20472,53333,20565,632,539,175,381,170,718,-444,4585,45,35,878,1843,1916,2094,2318,2009,1793,1864,1948
748163,53132,20536,53398,20630,578,540,192,397,155,734,-489,4583,40,39,879,1843,1916,2094,2318,2009,1793,1864,1948
749164,53188,20612,53463,20695,739,377,218,376,142,587,-592,4380,36,45,879,1843,1916,2094,2318,2009,1793,1864,1948
750165,53260,20656,53528,20760,532,802,242,338,136,527,-542,4535,49,49,879,1843,1916,2094,2318,2009,1793,1864,1948
751166,53316,20724,53593,20825,743,499,266,312,123,580,-532,4251,44,50,876,1825,1905,2087,2313,2027,1807,1879,1970
752167,53376,20780,53658,20890,699,660,276,269,112,492,-527,4168,35,46,878,1825,1905,2087,2313,2027,1807,1879,1970
753168,53428,20856,53723,20955,815,396,291,194,98,407,-509,3927,36,51,877,1825,1905,2087,2313,2027,1807,1879,1970
754169,53512,20920,53788,21020,391,548,313,111,106,114,-614,4017,44,37,878,1825,1905,2087,2313,2027,1807,1879,1970
755170,53544,20980,53853,21085,1082,604,329,97,72,344,-443,4062,39,47,880,1825,1905,2087,2313,2027,1807,1879,1970
756171,53612,21048,53918,21150,628,500,310,103,31,502,-454,3664,31,39,874,1825,1905,2087,2313,2027,1807,1879,1970
757172,53660,21128,53983,21215,899,332,284,73,12,798,-492,3670,37,41,879,1841,1924,2110,2328,2048,1821,1888,1983
758173,53728,21204,54048,21280,645,368,295,26,8,555,-513,4042,45,47,878,1841,1924,2110,2328,2048,1821,1888,1983
759174,53796,21276,54113,21345,642,410,310,23,-14,458,-487,4084,53,50,879,1841,1924,2110,2328,2048,1821,1888,1983
760175,53848,21324,54178,21410,858,730,325,87,-53,700,-584,4114,50,47,879,1841,1924,2110,2328,2048,1821,1888,1983
761176,53904,21388,54243,21475,819,532,315,112,-76,862,-454,3984,42,32,875,1841,1924,2110,2328,2048,1821,1888,1983
762177,53976,21444,54308,21540,611,643,309,135,-80,455,-490,3967,45,49,877,1833,1911,2095,2299,2038,1811,1874,1970
763178,54036,21516,54373,21605,767,434,305,169,-99,506,-429,3796,49,39,878,1833,1911,2095,2299,2038,1811,1874,1970
764179,54080,21584,54438,21670,993,480,306,66,-99,172,-607,3625,50,42,878,1833,1911,2095,2299,2038,1811,1874,1970
765180,54144,21640,54503,21735,744,641,306,32,-86,-113,-334,4246,45,40,876,1833,1911,2095,2299,2038,1811,1874,1970
766181,54204,21720,54568,21800,800,323,305,83,-98,69,-401,4046,48,51,877,1833,1911,2095,2299,2038,1811,1874,1970
767182,54280,21760,54633,21865,587,854,290,127,-108,527,-265,3811,37,50,878,1833,1911,2095,2299,2038,1811,1874,1970
768183,54340,21848,54698,21930,794,226,267,86,-113,395,-278,3559,48,48,875,1793,1868,2054,2260,2024,1801,1858,1944
769184,54408,21900,54763,21995,690,691,254,-11,-111,-282,-208,3912,49,49,879,1793,1868,2054,2260,2024,1801,1858,1944
770185,54472,21956,54828,22060,741,652,255,-80,-107,-450,-107,3980,53,43,877,1793,1868,2054,2260,2024,1801,1858,1944
771186,54544,22008,54893,22125,633,718,261,-89,-114,133,-43,4061,42,42,877,1793,1868,2054,2260,2024,1801,1858,1944
772187,54608,22084,54958,22190,734,406,277,-77,-131,466,-129,4004,39,35,877,1793,1868,2054,2260,2024,1801,1858,1944
773188,54680,22144,55023,22255,625,612,266,-30,-136,375,-211,3899,53,45,878,1759,1831,2027,2235,2030,1811,1863,1956
774189,54752,22196,55088,22320,617,728,241,51,-144,526,7,3649,37,39,878,1759,1831,2027,2235,2030,1811,1863,1956
775190,54824,22252,55153,22385,609,689,209,99,-149,584,88,3607,58,34,877,1759,1831,2027,2235,2030,1811,1863,1956
776191,54892,22324,55218,22450,655,480,208,126,-159,331,-34,3775,56,51,877,1759,1831,2027,2235,2030,1811,1863,1956
777192,54960,22392,55283,22515,652,527,211,145,-158,269,-112,3736,50,44,879,1759,1831,2027,2235,2030,1811,1863,1956
778193,55028,22448,55348,22580,648,688,221,166,-168,517,-6,3700,54,40,878,1759,1831,2027,2235,2030,1811,1863,1956
779194,55092,22532,55413,22645,699,314,212,162,-181,618,68,3480,52,41,877,1772,1844,2052,2260,2057,1835,1876,1971
780195,55148,22600,55478,22710,810,511,208,128,-187,253,89,3522,47,45,879,1772,1844,2052,2260,2057,1835,1876,1971
781196,55224,22672,55543,22775,547,452,213,94,-193,16,135,3692,38,45,877,1772,1844,2052,2260,2057,1835,1876,1971
782197,55280,22728,55608,22840,808,663,218,77,-202,75,122,3653,54,48,880,1772,1844,2052,2260,2057,1835,1876,1971
783198,55332,22800,55673,22905,875,455,207,75,-207,332,217,3620,42,33,876,1772,1844,2052,2260,2057,1835,1876,1971
784199,55412,22852,55738,22970,506,721,182,74,-206,343,201,3467,43,43,877,1786,1863,2074,2280,2043,1818,1861,1957
785200,55472,22936,55803,23035,763,297,137,83,-196,128,218,3565,40,34,877,1786,1863,2074,2280,2043,1818,1861,1957
786201,55544,22996,55868,23100,604,603,109,117,-197,39,228,3650,36,46,879,1786,1863,2074,2280,2043,1818,1861,1957
787202,55608,23056,55933,23165,705,610,78,159,-196,72,212,3747,51,35,878,1786,1863,2074,2280,2043,1818,1861,1957
788203,55664,23132,55998,23230,816,396,55,191,-185,106,94,3665,48,46,877,1786,1863,2074,2280,2043,1818,1861,1957
789204,55724,23188,56063,23295,772,657,31,221,-175,311,155,3769,47,42,878,1786,1863,2074,2280,2043,1818,1861,1957
790205,55780,23236,56128,23360,833,778,21,231,-170,166,301,3773,47,45,877,1793,1870,2072,2267,2027,1802,1850,1951
791206,55836,23284,56193,23425,845,799,0,270,-174,61,298,3962,36,33,875,1793,1870,2072,2267,2027,1802,1850,1951
792207,55908,23364,56258,23490,637,380,1,305,-175,273,367,4077,37,34,875,1793,1870,2072,2267,2027,1802,1850,1951
793208,55960,23432,56323,23555,903,527,18,330,-170,179,347,4150,42,34,880,1793,1870,2072,2267,2027,1802,1850,1951
794209,56020,23516,56388,23620,809,303,34,324,-170,-77,260,3983,46,48,876,1793,1870,2072,2267,2027,1802,1850,1951
795210,56100,23556,56453,23685,540,884,53,321,-178,-184,298,3996,39,38,878,1770,1844,2049,2247,2041,1817,1860,1958
796211,56156,23616,56518,23750,851,641,74,303,-188,-36,445,3979,53,40,876,1770,1844,2049,2247,2041,1817,1860,1958
797212,56220,23664,56583,23815,753,812,97,298,-183,159,330,3900,34,46,876,1770,1844,2049,2247,2041,1817,1860,1958
798213,56276,23736,56648,23880,865,503,121,272,-185,392,550,3772,53,45,876,1770,1844,2049,2247,2041,1817,1860,1958
799214,56344,23788,56713,23945,711,769,135,264,-185,24,462,3844,34,50,877,1770,1844,2049,2247,2041,1817,1860,1958
800215,56396,23864,56778,24010,927,456,147,284,-194,228,599,3753,36,47,876,1770,1844,2049,2247,2041,1817,1860,1958
801216,56436,23920,56843,24075,1107,717,157,301,-198,379,587,3721,32,39,877,1786,1856,2072,2288,2040,1821,1865,1952
802217,56504,23976,56908,24140,754,728,164,308,-200,321,590,3750,50,37,872,1786,1856,2072,2288,2040,1821,1865,1952
803218,56560,24044,56973,24205,915,574,163,292,-193,191,575,3869,39,53,876,1786,1856,2072,2288,2040,1821,1865,1952
804219,56608,24088,57038,24270,1035,900,151,293,-187,340,659,3830,37,48,876,1786,1856,2072,2288,2040,1821,1865,1952
805220,56656,24144,57103,24335,1057,761,143,264,-183,422,702,3742,33,39,872,1786,1856,2072,2288,2040,1821,1865,1952
806221,56732,24200,57168,24400,694,772,131,245,-183,419,640,3760,45,46,873,1837,1903,2111,2337,2011,1799,1850,1939
807222,56780,24284,57233,24465,1064,398,138,215,-165,231,502,3867,54,49,876,1837,1903,2111,2337,2011,1799,1850,1939
808223,56848,24348,57298,24530,811,650,143,204,-145,218,561,4066,38,48,875,1837,1903,2111,2337,2011,1799,1850,1939
809224,56900,24420,57363,24595,1027,541,154,204,-129,195,513,4062,36,48,876,1837,1903,2111,2337,2011,1799,1850,1939
810225,56968,24468,57428,24660,823,862,163,199,-122,319,482,4117,38,46,875,1837,1903,2111,2337,2011,1799,1850,1939
811231,57028,24516,57493,24725,930,883,176,186,-101,86,515,4352,52,39,875,1837,1903,2111,2337,2011,1799,1850,1939
812227,57088,24576,57558,24790,936,740,183,184,-92,-38,508,4209,43,42,873,1845,1920,2124,2326,2004,1784,1841,1945
813228,57152,24624,57623,24855,887,910,179,173,-83,161,395,4098,49,46,874,1845,1920,2124,2326,2004,1784,1841,1945
814229,57216,24676,57688,24920,889,876,189,158,-81,333,402,4401,41,46,873,1845,1920,2124,2326,2004,1784,1841,1945
815230,57264,24748,57753,24985,1109,618,199,146,-84,290,397,4207,43,41,873,1845,1920,2124,2326,2004,1784,1841,1945
816231,57320,24796,57818,25050,1020,939,204,139,-101,483,574,4126,46,47,874,1845,1920,2124,2326,2004,1784,1841,1945
817232,57404,24852,57883,25115,648,850,203,99,-98,377,649,3985,38,36,872,1832,1913,2116,2310,2037,1810,1867,1978
818233,57448,24908,57948,25180,1174,861,223,79,-96,-57,637,4207,38,36,876,1832,1913,2116,2310,2037,1810,1867,1978
819234,57508,24952,58013,25245,980,1036,226,81,-107,233,645,4194,49,45,869,1832,1913,2116,2310,2037,1810,1867,1978
820235,57556,25036,58078,25310,1151,513,251,96,-114,630,534,4101,48,37,871,1832,1913,2116,2310,2037,1810,1867,1978
821236,57620,25108,58143,25375,952,654,259,84,-98,639,614,4209,36,42,873,1832,1913,2116,2310,2037,1810,1867,1978
822237,57688,25140,58208,25440,899,1195,282,78,-98,485,773,4109,36,49,875,1832,1913,2116,2310,2037,1810,1867,1978
823238,57736,25192,58273,25505,1170,962,286,55,-93,271,757,4079,50,39,871,1820,1898,2102,2300,2073,1845,1892,1992
824239,57796,25244,58338,25570,1026,977,304,41,-86,422,869,4239,53,44,870,1820,1898,2102,2300,2073,1845,1892,1992
825240,57868,25308,58403,25635,868,829,309,40,-88,572,838,4369,52,35,871,1820,1898,2102,2300,2073,1845,1892,1992
826241,57916,25376,58468,25700,1188,775,305,13,-90,662,834,4118,38,46,874,1820,1898,2102,2300,2073,1845,1892,1992
827242,57980,25416,58533,25765,991,1156,295,-25,-82,434,739,3949,50,32,871,1820,1898,2102,2300,2073,1845,1892,1992
828243,58048,25488,58598,25830,937,747,284,-77,-66,237,612,4177,36,40,870,1811,1883,2095,2310,2065,1844,1883,1976
829244,58088,25560,58663,25895,1317,738,281,-71,-44,229,567,4251,45,33,874,1811,1883,2095,2310,2065,1844,1883,1976
830245,58152,25612,58728,25960,1019,1004,289,-45,-21,560,477,4262,32,37,870,1811,1883,2095,2310,2065,1844,1883,1976
831246,58204,25680,58793,26025,1184,802,290,-25,14,546,374,4335,38,35,871,1811,1883,2095,2310,2065,1844,1883,1976
832247,58244,25748,58858,26090,1366,798,287,-22,36,253,403,4254,37,38,871,1811,1883,2095,2310,2065,1844,1883,1976
833248,58304,25788,58923,26155,1122,1178,273,-32,51,133,261,4117,38,48,870,1814,1886,2105,2313,2047,1828,1864,1961
834249,58364,25868,58988,26220,1128,660,261,-32,56,270,308,4255,40,42,868,1814,1886,2105,2313,2047,1828,1864,1961
835250,58432,25924,59053,26285,1025,971,256,-30,59,298,364,4280,42,52,873,1814,1886,2105,2313,2047,1828,1864,1961
836251,58496,25988,59118,26350,1077,872,256,-3,64,219,185,4253,41,50,870,1814,1886,2105,2313,2047,1828,1864,1961
837252,58552,26060,59183,26415,1188,764,262,28,62,375,391,4323,38,45,872,1814,1886,2105,2313,2047,1828,1864,1961
838253,58616,26128,59248,26480,1089,810,285,53,65,280,301,4207,40,48,872,1814,1886,2105,2313,2047,1828,1864,1961
839254,58684,26192,59313,26545,1035,862,309,63,81,185,257,4090,39,45,872,1819,1892,2112,2314,2044,1820,1863,1960
840255,58740,26280,59378,26610,1197,534,316,77,69,385,710,4310,57,45,873,1819,1892,2112,2314,2044,1820,1863,1960
841256,58788,26328,59443,26675,1318,1055,296,76,79,159,384,4047,46,54,873,1819,1892,2112,2314,2044,1820,1863,1960
842257,58852,26380,59508,26740,1119,1021,301,87,66,407,547,3981,54,40,868,1819,1892,2112,2314,2044,1820,1863,1960
843258,58920,26476,59573,26805,1066,433,318,63,72,196,574,4066,40,53,870,1819,1892,2112,2314,2044,1820,1863,1960
844259,58972,26540,59638,26870,1282,834,309,50,72,262,619,4080,52,50,875,1828,1900,2109,2326,2038,1818,1872,1960
845260,59020,26596,59703,26935,1353,945,283,118,44,952,647,4205,32,48,870,1828,1900,2109,2326,2038,1818,1872,1960
846261,59080,26656,59768,27000,1209,902,268,163,33,808,702,3740,53,48,868,1828,1900,2109,2326,2038,1818,1872,1960
847262,59136,26720,59833,27065,1270,854,275,201,30,544,627,4202,35,45,871,1828,1900,2109,2326,2038,1818,1872,1960
848263,59188,26808,59898,27130,1337,526,274,250,32,489,649,4097,39,53,870,1828,1900,2109,2326,2038,1818,1872,1960
849264,59260,26884,59963,27195,1079,662,296,283,29,710,568,3950,52,45,872,1828,1900,2109,2326,2038,1818,1872,1960
850265,59300,26948,60028,27260,1509,813,304,290,40,705,455,3981,37,51,873,1821,1892,2096,2312,2033,1823,1867,1951
851266,59348,26996,60093,27325,1430,1034,326,295,46,310,520,4024,37,44,868,1821,1892,2096,2312,2033,1823,1867,1951
852267,59412,27056,60158,27390,1232,890,341,272,59,144,328,3875,52,48,867,1821,1892,2096,2312,2033,1823,1867,1951
853268,59480,27104,60223,27455,1178,1061,358,257,62,283,387,3955,37,49,869,1821,1892,2096,2312,2033,1823,1867,1951
854269,59532,27172,60288,27520,1394,808,378,244,66,155,456,4127,52,49,869,1821,1892,2096,2312,2033,1823,1867,1951
855270,59592,27232,60353,27585,1301,914,398,235,51,296,282,3967,54,49,869,1802,1872,2090,2306,2024,1816,1849,1932
856271,59644,27292,60418,27650,1417,921,414,232,40,513,228,4036,36,51,869,1802,1872,2090,2306,2024,1816,1849,1932
857272,59696,27356,60483,27715,1433,872,438,238,22,461,402,4080,53,35,868,1802,1872,2090,2306,2024,1816,1849,1932
858273,59768,27400,60548,27780,1175,1147,451,270,2,537,332,4108,37,35,868,1802,1872,2090,2306,2024,1816,1849,1932
859275,59828,27452,60613,27845,1332,1063,468,306,9,716,592,4113,48,41,868,1802,1872,2090,2306,2024,1816,1849,1932
860275,59884,27504,60678,27910,1393,1079,504,335,37,334,884,3957,51,38,867,1802,1872,2090,2306,2024,1816,1849,1932
861276,59928,27564,60743,27975,1568,985,537,342,82,133,519,4398,52,44,866,1808,1881,2097,2313,2000,1793,1837,1921
862277,60012,27624,60808,28040,1046,992,553,334,107,795,937,3575,52,50,865,1808,1881,2097,2313,2000,1793,1837,1921
863278,60068,27684,60873,28105,1407,998,595,337,132,544,720,4033,44,42,871,1808,1881,2097,2313,2000,1793,1837,1921
864279,60128,27748,60938,28170,1363,950,636,321,177,171,1184,3664,33,48,867,1808,1881,2097,2313,2000,1793,1837,1921
865280,60180,27808,61003,28235,1479,1006,649,297,206,-45,1015,3986,37,42,868,1808,1881,2097,2313,2000,1793,1837,1921
866281,60240,27876,61068,28300,1386,902,602,208,215,170,1261,3803,45,39,867,1840,1911,2121,2347,1985,1773,1829,1915
867282,60304,27960,61133,28365,1337,679,569,121,211,583,1060,3499,52,56,868,1840,1911,2121,2347,1985,1773,1829,1915
868283,60360,28008,61198,28430,1448,1151,561,16,210,564,1040,3365,35,48,870,1840,1911,2121,2347,1985,1773,1829,1915
869284,60424,28076,61263,28495,1351,897,546,-9,190,665,1062,3897,36,52,865,1840,1911,2121,2347,1985,1773,1829,1915
870285,60480,28144,61328,28560,1462,893,520,51,174,840,1103,3953,38,57,867,1840,1911,2121,2347,1985,1773,1829,1915
871286,60532,28220,61393,28625,1528,780,497,131,147,1279,1110,3858,44,59,867,1840,1911,2121,2347,1985,1773,1829,1915
872287,60596,28288,61458,28690,1380,876,498,208,140,1169,820,3927,49,54,867,1863,1927,2133,2329,2027,1802,1855,1973
873288,60660,28364,61523,28755,1381,763,517,265,140,957,821,3833,37,56,869,1863,1927,2133,2329,2027,1802,1855,1973
874289,60712,28448,61588,28820,1547,641,544,300,131,668,780,4044,39,63,870,1863,1927,2133,2329,2027,1802,1855,1973
875290,60764,28520,61653,28885,1564,782,577,326,133,575,470,3934,43,56,869,1863,1927,2133,2329,2027,1802,1855,1973
876291,60828,28608,61718,28950,1415,554,619,345,127,547,396,4152,53,63,867,1863,1927,2133,2329,2027,1802,1855,1973
877292,60892,28684,61783,29015,1416,691,669,335,146,342,501,4053,56,52,871,1808,1880,2100,2280,2076,1847,1877,1983
878293,60936,28760,61848,29080,1693,677,719,316,200,31,583,4149,38,44,870,1808,1880,2100,2280,2076,1847,1877,1983
879294,61008,28832,61913,29145,1334,719,763,272,259,-196,638,3833,50,54,866,1808,1880,2100,2280,2076,1847,1877,1983
880295,61076,28916,61978,29210,1381,545,806,218,308,-206,982,4076,41,58,871,1808,1880,2100,2280,2076,1847,1877,1983
881296,61148,28964,62043,29275,1323,1016,827,171,377,-255,878,3822,39,41,871,1808,1880,2100,2280,2076,1847,1877,1983
882297,61204,29036,62108,29340,1534,708,841,143,433,-102,1038,3987,40,41,868,1808,1880,2100,2280,2076,1847,1877,1983
883298,61260,29104,62173,29405,1545,755,835,121,484,-210,1092,3862,42,56,868,1779,1857,2081,2299,2045,1832,1864,1937
884299,61340,29160,62238,29470,1228,916,825,122,529,38,1040,3987,53,43,867,1779,1857,2081,2299,2045,1832,1864,1937
885300,61392,29240,62303,29535,1594,598,808,152,545,828,1134,4066,38,46,870,1779,1857,2081,2299,2045,1832,1864,1937
886301,61452,29308,62368,29600,1500,744,772,195,538,1350,1324,4085,38,52,868,1779,1857,2081,2299,2045,1832,1864,1937
887302,61528,29356,62433,29665,1287,1015,736,232,536,568,1251,3673,44,55,867,1779,1857,2081,2299,2045,1832,1864,1937
888303,61580,29428,62498,29730,1603,706,697,267,537,478,1218,3944,55,43,868,1826,1888,2107,2341,2007,1805,1845,1926
889304,61640,29496,62563,29795,1509,752,659,315,510,897,1201,4083,38,50,868,1826,1888,2107,2341,2007,1805,1845,1926
890305,61712,29584,62628,29860,1352,474,642,376,472,1087,908,3908,57,47,868,1826,1888,2107,2341,2007,1805,1845,1926
891306,61772,29640,62693,29925,1508,885,634,442,439,988,921,4133,40,48,872,1826,1888,2107,2341,2007,1805,1845,1926
892307,61836,29704,62758,29990,1460,788,625,461,395,658,874,4044,39,56,867,1826,1888,2107,2341,2007,1805,1845,1926
893308,61880,29776,62823,30055,1736,679,624,481,368,458,520,4021,43,59,868,1826,1888,2107,2341,2007,1805,1845,1926
894309,61948,29856,62888,30120,1432,561,628,489,350,497,616,4011,51,45,866,1832,1888,2118,2325,2039,1829,1856,1961
895310,62016,29924,62953,30185,1429,707,638,517,332,388,539,4123,35,61,870,1832,1888,2118,2325,2039,1829,1856,1961
896311,62060,29996,63018,30250,1755,649,631,518,332,150,374,3911,43,44,869,1832,1888,2118,2325,2039,1829,1856,1961
897312,62120,30068,63083,30315,1561,640,634,526,331,35,472,3964,43,48,866,1832,1888,2118,2325,2039,1829,1856,1961
898313,62156,30128,63148,30380,1897,796,619,527,358,0,454,3906,45,59,868,1832,1888,2118,2325,2039,1829,1856,1961
899314,62224,30196,63213,30445,1494,692,602,540,396,-141,627,3736,44,58,864,1800,1875,2115,2305,2081,1862,1886,1993
900315,62296,30284,63278,30510,1435,414,583,540,424,-93,793,3733,56,60,869,1800,1875,2115,2305,2081,1862,1886,1993
901316,62356,30340,63343,30575,1592,825,565,555,450,38,884,3886,50,52,871,1800,1875,2115,2305,2081,1862,1886,1993
902317,62428,30396,63408,30640,1434,837,554,586,479,-2,1145,3864,48,44,867,1800,1875,2115,2305,2081,1862,1886,1993
903318,62476,30460,63473,30705,1756,739,546,619,504,-67,1049,3997,55,57,868,1800,1875,2115,2305,2081,1862,1886,1993
904319,62540,30536,63538,30770,1557,575,536,666,526,312,1162,4022,43,56,865,1800,1875,2115,2305,2081,1862,1886,1993
905320,62612,30592,63603,30835,1448,836,524,683,527,467,1381,3862,51,46,869,1773,1856,2080,2274,2088,1865,1894,1989
906321,62680,30660,63668,30900,1496,682,498,687,514,228,1335,3941,41,45,869,1773,1856,2080,2274,2088,1865,1894,1989
907322,62748,30724,63733,30965,1492,734,486,693,479,341,1500,3928,50,48,869,1773,1856,2080,2274,2088,1865,1894,1989
908323,62836,30804,63798,31030,1214,515,464,690,442,438,1430,3923,55,58,869,1773,1856,2080,2274,2088,1865,1894,1989
909324,62900,30860,63863,31095,1516,826,445,696,406,528,1354,3969,60,51,873,1773,1856,2080,2274,2088,1865,1894,1989
910325,62984,30924,63928,31160,1243,728,423,689,375,289,1507,3932,58,54,868,1763,1834,2057,2260,2065,1847,1871,1966
911326,63052,30992,63993,31225,1439,674,383,701,319,-177,1233,3893,43,49,871,1763,1834,2057,2260,2065,1847,1871,1966
912327,63104,31068,64058,31290,1656,560,340,729,290,1142,712,4414,43,49,869,1763,1834,2057,2260,2065,1847,1871,1966
913328,63172,31140,64123,31355,1452,602,285,710,294,1917,777,4113,56,55,868,1763,1834,2057,2260,2065,1847,1871,1966
914329,63232,31184,64188,31420,1559,979,245,646,275,431,885,3698,42,60,870,1763,1834,2057,2260,2065,1847,1871,1966
915330,63308,31256,64253,31485,1346,620,219,608,217,-931,968,3992,56,55,866,1763,1834,2057,2260,2065,1847,1871,1966
916331,63380,31336,64318,31550,1388,502,205,632,174,-67,656,4284,40,56,871,1777,1846,2088,2284,2068,1852,1870,1985
917332,63432,31420,64383,31615,1654,429,177,655,186,1018,497,3752,55,49,871,1777,1846,2088,2284,2068,1852,1870,1985
918333,63500,31464,64448,31680,1451,954,140,643,186,602,769,3531,53,48,869,1777,1846,2088,2284,2068,1852,1870,1985
919334,63564,31532,64513,31745,1502,651,99,627,169,-597,742,3744,45,45,867,1777,1846,2088,2284,2068,1852,1870,1985
920335,63620,31604,64578,31810,1614,592,61,597,157,-547,837,3659,54,41,869,1777,1846,2088,2284,2068,1852,1870,1985
921336,63672,31652,64643,31875,1680,913,37,562,147,56,985,3516,37,50,866,1794,1880,2125,2309,2097,1874,1898,2015
922337,63752,31724,64708,31940,1311,604,20,531,141,7,1053,3659,46,50,866,1794,1880,2125,2309,2097,1874,1898,2015
923338,63800,31800,64773,32005,1733,541,-3,547,136,-237,1218,3804,59,44,871,1794,1880,2125,2309,2097,1874,1898,2015
924339,63880,31860,64838,32070,1315,747,-37,569,129,-186,1349,3725,40,48,867,1794,1880,2125,2309,2097,1874,1898,2015
925340,63952,31900,64903,32135,1407,1027,-69,594,104,57,1328,3663,55,41,870,1794,1880,2125,2309,2097,1874,1898,2015
926341,64004,31968,64968,32200,1673,675,-105,594,74,34,1463,3689,49,45,867,1794,1880,2125,2309,2097,1874,1898,2015
927342,64064,32048,65033,32265,1579,506,-138,600,34,104,1562,3951,52,49,867,1789,1878,2098,2281,2090,1864,1896,2000
928343,64140,32108,65098,32330,1367,762,-158,615,-11,250,1502,3846,57,54,869,1789,1878,2098,2281,2090,1864,1896,2000
929344,64216,32172,65163,32395,1354,714,-186,620,-59,299,1614,3941,47,57,870,1789,1878,2098,2281,2090,1864,1896,2000
930345,64300,32236,65228,32460,1230,715,-207,620,-101,-3,1564,4037,59,46,870,1789,1878,2098,2281,2090,1864,1896,2000
931346,64352,32296,65293,32525,1647,771,-235,632,-146,187,1559,4154,43,56,872,1789,1878,2098,2281,2090,1864,1896,2000
932347,64420,32356,65358,32590,1444,777,-247,634,-204,436,1605,4137,55,48,866,1757,1834,2055,2243,2060,1846,1868,1965
933348,64472,32436,65423,32655,1659,509,-269,613,-257,280,1437,4094,36,57,868,1757,1834,2055,2243,2060,1846,1868,1965
934349,64528,32508,65488,32720,1621,600,-284,609,-302,136,1336,4049,49,43,868,1757,1834,2055,2243,2060,1846,1868,1965
935350,64592,32560,65553,32785,1523,866,-302,582,-350,118,1368,4045,46,56,868,1757,1834,2055,2243,2060,1846,1868,1965
936351,64660,32620,65618,32850,1469,772,-321,572,-391,-8,1201,4029,51,51,867,1757,1834,2055,2243,2060,1846,1868,1965
937352,64728,32684,65683,32915,1466,723,-342,550,-420,87,1221,3922,48,52,868,1757,1834,2055,2243,2060,1846,1868,1965
938353,64800,32760,65748,32980,1408,561,-370,535,-447,15,1172,3939,57,45,867,1756,1828,2076,2276,2056,1850,1864,1964
939354,64852,32808,65813,33045,1675,932,-391,523,-490,7,1159,3753,57,56,871,1756,1828,2076,2276,2056,1850,1864,1964
940355,64912,32896,65878,33110,1581,404,-432,511,-507,-98,963,3648,57,48,865,1756,1828,2076,2276,2056,1850,1864,1964
941356,64980,32968,65943,33175,1477,595,-472,505,-525,-31,1007,3848,59,59,869,1756,1828,2076,2276,2056,1850,1864,1964
942357,65052,33028,66008,33240,1419,751,-513,509,-562,18,1178,3724,58,45,870,1756,1828,2076,2276,2056,1850,1864,1964
943358,65132,33100,66073,33305,1301,593,-544,516,-588,-48,1116,3682,58,55,869,1796,1873,2126,2326,2066,1860,1880,1989
944359,65208,33164,66138,33370,1338,694,-586,519,-614,105,1310,3795,43,44,871,1796,1873,2126,2326,2066,1860,1880,1989
945360,65260,33212,66203,33435,1655,915,-612,528,-632,-160,1275,3679,55,53,871,1796,1873,2126,2326,2066,1860,1880,1989
946361,65348,33296,66268,33500,1177,442,-650,529,-654,-130,1354,3746,44,56,865,1796,1873,2126,2326,2066,1860,1880,1989
947362,65408,33364,66333,33565,1533,638,-680,541,-699,-65,1511,3667,43,48,874,1796,1873,2126,2326,2066,1860,1880,1989
948363,65476,33436,66398,33630,1430,579,-711,544,-741,-13,1510,3740,42,58,869,1796,1873,2126,2326,2066,1860,1880,1989
949364,65544,33492,66463,33695,1426,790,-743,556,-796,-154,1581,3795,51,60,870,1807,1887,2120,2308,2082,1860,1889,2000
950365,65620,33580,66662,33894,1476,526,-778,587,-840,-8,1422,3775,58,45,869,1807,1887,2120,2308,2082,1860,1889,2000
951366,65688,33652,66727,33959,1574,718,-809,590,-896,288,1507,4001,40,50,870,1807,1887,2120,2308,2082,1860,1889,2000
952367,65760,33736,66792,34024,1515,545,-816,568,-964,52,1772,3899,43,57,867,1807,1887,2120,2308,2082,1860,1889,2000
953368,65824,33792,66857,34089,1617,906,-821,529,-1009,-305,1519,3926,57,52,870,1807,1887,2120,2308,2082,1860,1889,2000
954369,65900,33860,66922,34154,1454,752,-836,542,-1044,79,1549,4138,51,49,866,1765,1842,2065,2246,2079,1851,1878,1987
955370,65972,33932,66987,34219,1496,694,-841,561,-1066,336,1388,4112,56,55,868,1765,1842,2065,2246,2079,1851,1878,1987
956371,66056,34004,67052,34284,1323,685,-837,562,-1094,191,1550,4046,60,57,869,1765,1842,2065,2246,2079,1851,1878,1987
957372,66128,34088,67117,34349,1465,512,-828,530,-1134,-196,1543,3949,58,51,870,1765,1842,2065,2246,2079,1851,1878,1987
958373,66188,34164,67182,34414,1622,599,-824,514,-1148,-298,1180,3905,51,64,870,1765,1842,2065,2246,2079,1851,1878,1987
959374,66268,34256,67247,34479,1354,366,-838,525,-1142,259,1069,4112,51,57,868,1765,1842,2065,2246,2079,1851,1878,1987
960375,66352,34324,67312,34544,1280,662,-852,545,-1144,590,1189,3897,61,66,872,1746,1824,2060,2249,2056,1840,1861,1965
961376,66416,34396,67377,34609,1533,605,-864,493,-1172,34,1416,3640,51,56,872,1746,1824,2060,2249,2056,1840,1861,1965
962377,66508,34472,67442,34674,1150,541,-868,421,-1191,-570,1282,3531,61,63,869,1746,1824,2060,2249,2056,1840,1861,1965
963378,66572,34576,67507,34739,1501,143,-887,401,-1190,-298,1183,3867,61,68,873,1746,1824,2060,2249,2056,1840,1861,1965
964379,66644,34668,67572,34804,1393,261,-922,415,-1194,622,1030,3585,61,64,872,1746,1824,2060,2249,2056,1840,1861,1965
965380,66732,34744,67637,34869,1165,447,-946,397,-1204,463,1211,3394,64,56,873,1791,1867,2108,2310,2032,1824,1852,1951
966381,66796,34812,67702,34934,1466,543,-964,361,-1227,-301,1323,3390,63,63,874,1791,1867,2108,2310,2032,1824,1852,1951
967382,66880,34872,67767,34999,1194,650,-980,315,-1259,-142,1396,3163,49,45,871,1791,1867,2108,2310,2032,1824,1852,1951
968383,66956,34952,67832,35064,1281,381,-1004,320,-1284,185,1139,3535,62,48,873,1791,1867,2108,2310,2032,1824,1852,1951
969384,67052,35036,67897,35129,993,308,-1031,326,-1283,512,1240,3369,49,62,873,1791,1867,2108,2310,2032,1824,1852,1951
970385,67144,35112,67962,35194,1011,395,-1030,317,-1319,300,1724,3431,63,60,876,1791,1867,2108,2310,2032,1824,1852,1951
971386,67220,35172,68027,35259,1198,601,-1042,268,-1339,-474,1398,3080,52,58,876,1828,1896,2124,2324,2024,1808,1845,1947
972387,67300,35256,68092,35324,1129,278,-1048,276,-1354,-119,1295,3716,48,45,871,1828,1896,2124,2324,2024,1808,1845,1947
973388,67388,35324,68157,35389,1002,474,-1067,294,-1363,432,1279,3494,46,49,875,1828,1896,2124,2324,2024,1808,1845,1947
974389,67484,35392,68222,35454,864,470,-1068,299,-1386,122,1378,3210,63,49,876,1828,1896,2124,2324,2024,1808,1845,1947
975390,67552,35452,68287,35519,1211,576,-1067,248,-1397,-220,1086,3267,47,56,877,1828,1896,2124,2324,2024,1808,1845,1947
976391,67636,35512,68352,35584,989,582,-1061,232,-1395,3,1178,3650,59,53,873,1793,1862,2074,2259,2013,1788,1831,1938
977392,67712,35580,68417,35649,1075,479,-1065,211,-1394,79,1237,3191,48,57,875,1793,1862,2074,2259,2013,1788,1831,1938
978393,67808,35648,68482,35714,787,475,-1046,204,-1410,159,1157,3537,44,44,875,1793,1862,2074,2259,2013,1788,1831,1938
979394,67880,35720,68547,35779,1079,417,-1026,184,-1408,18,1175,3522,64,50,877,1793,1862,2074,2259,2013,1788,1831,1938
980395,67936,35796,68612,35844,1291,353,-997,176,-1403,-71,1107,3404,47,53,875,1793,1862,2074,2259,2013,1788,1831,1938
981396,68040,35872,68677,35909,643,340,-980,170,-1382,123,1063,3529,59,46,873,1793,1862,2074,2259,2013,1788,1831,1938
982397,68124,35932,68742,35974,870,546,-962,158,-1372,236,1120,3248,53,56,879,1750,1826,2037,2222,2008,1785,1827,1928
983398,68216,35980,68807,36039,737,717,-952,139,-1368,21,1176,3258,47,55,876,1750,1826,2037,2222,2008,1785,1827,1928
984399,68304,36060,68872,36104,760,298,-939,98,-1357,50,1175,3117,60,56,876,1750,1826,2037,2222,2008,1785,1827,1928
985400,68388,36136,68937,36169,787,335,-943,67,-1350,141,964,3229,63,50,879,1750,1826,2037,2222,2008,1785,1827,1928
986404,68476,36188,69002,36234,709,651,-948,49,-1341,195,998,3029,53,53,879,1750,1826,2037,2222,2008,1785,1827,1928
987402,68560,36260,69067,36299,735,392,-966,23,-1338,241,1070,2942,48,54,877,1757,1829,2048,2246,1993,1778,1821,1917
988403,68648,36332,69132,36364,657,384,-975,-7,-1338,106,937,2878,49,55,878,1757,1829,2048,2246,1993,1778,1821,1917
989404,68740,36392,69197,36429,575,540,-990,-35,-1345,271,1035,3004,44,54,877,1757,1829,2048,2246,1993,1778,1821,1917
990405,68820,36460,69262,36494,707,436,-1006,-66,-1345,174,781,2820,61,57,879,1757,1829,2048,2246,1993,1778,1821,1917
991406,68896,36540,69327,36559,744,268,-1015,-82,-1329,244,781,2827,57,49,878,1757,1829,2048,2246,1993,1778,1821,1917
992407,68992,36616,69392,36624,456,304,-1019,-106,-1328,286,822,2775,44,43,879,1757,1829,2048,2246,1993,1778,1821,1917
993408,69072,36680,69457,36689,637,455,-1021,-105,-1328,36,715,2897,46,48,881,1784,1850,2067,2263,1991,1773,1819,1921
994409,69144,36760,69522,36754,729,237,-1020,-95,-1326,292,789,2956,56,57,879,1784,1850,2067,2263,1991,1773,1819,1921
995410,69220,36820,69587,36819,665,493,-1014,-105,-1307,215,602,2730,49,43,880,1784,1850,2067,2263,1991,1773,1819,1921
996411,69296,36884,69652,36884,653,445,-1013,-116,-1307,203,711,3073,46,45,879,1784,1850,2067,2263,1991,1773,1819,1921
997412,69396,36972,69717,36949,310,116,-1008,-125,-1295,-54,599,2984,54,60,879,1784,1850,2067,2263,1991,1773,1819,1921
998413,69472,37048,69782,37014,597,253,-999,-122,-1290,133,707,3108,58,46,883,1769,1839,2047,2232,1992,1765,1815,1919
999414,69560,37116,69847,37079,419,349,-991,-110,-1271,26,567,2926,38,45,880,1769,1839,2047,2232,1992,1765,1815,1919
1000415,69632,37200,69912,37144,610,126,-997,66,-1253,483,572,2810,40,45,881,1769,1839,2047,2232,1992,1765,1815,1919
1001416,69720,37280,69977,37209,382,158,-1021,199,-1258,-535,673,3121,51,58,881,1769,1839,2047,2232,1992,1765,1815,1919
1002417,69788,37356,70042,37274,629,194,-1032,319,-1265,-42,772,3090,55,56,883,1769,1839,2047,2232,1992,1765,1815,1919
1003418,69892,37444,70107,37339,131,16,-1032,225,-1245,50,615,2313,54,47,881,1769,1839,2047,2232,1992,1765,1815,1919
1004419,69972,37504,70172,37404,413,372,-1029,118,-1224,-875,566,3303,46,48,884,1744,1815,2016,2207,1988,1766,1812,1903
1005420,70048,37564,70237,37469,450,379,-1029,113,-1214,-775,599,3251,52,56,881,1744,1815,2016,2207,1988,1766,1812,1903
1006421,70128,37648,70302,37534,382,55,-993,122,-1203,-107,450,3275,47,42,880,1744,1815,2016,2207,1988,1766,1812,1903
1007422,70212,37728,70367,37599,309,87,-976,49,-1174,56,473,2830,38,45,883,1744,1815,2016,2207,1988,1766,1812,1903
1008423,70292,37796,70432,37664,340,233,-949,-27,-1145,-686,401,3128,54,55,883,1744,1815,2016,2207,1988,1766,1812,1903
1009424,70380,37864,70497,37729,212,230,-951,-12,-1116,-293,354,3064,46,43,882,1721,1785,2000,2207,1993,1775,1815,1910
1010425,70460,37932,70562,37794,294,226,-943,32,-1099,506,420,3156,37,55,883,1721,1785,2000,2207,1993,1775,1815,1910
1011426,70528,38012,70627,37859,440,58,-938,83,-1071,708,464,3041,45,52,882,1721,1785,2000,2207,1993,1775,1815,1910
1012427,70616,38084,70692,37924,162,149,-942,105,-1050,274,373,2908,35,49,883,1721,1785,2000,2207,1993,1775,1815,1910
1013428,70688,38152,70757,37989,354,196,-949,159,-1027,245,250,3048,39,45,884,1721,1785,2000,2207,1993,1775,1815,1910
1014429,70772,38256,70822,38054,181,-302,-968,195,-1002,491,197,2871,56,57,883,1721,1785,2000,2207,1993,1775,1815,1910
1015430,70856,38344,70887,38119,157,-130,-976,225,-988,522,353,3156,50,56,882,1757,1821,2034,2240,1991,1772,1824,1921
1016431,70948,38412,70952,38184,24,116,-981,228,-984,278,252,2876,40,42,884,1757,1821,2034,2240,1991,1772,1824,1921
1017432,71056,38508,71017,38249,-228,-273,-996,195,-966,-106,165,2938,40,40,884,1757,1821,2034,2240,1991,1772,1824,1921
1018433,71136,38596,71082,38314,104,-201,-993,178,-944,-71,166,3007,54,52,876,1757,1821,2034,2240,1991,1772,1824,1921
1019434,71236,38680,71147,38379,-189,-174,-984,138,-938,-65,283,2972,55,55,884,1757,1821,2034,2240,1991,1772,1824,1921
1020435,71324,38748,71212,38444,-67,22,-966,86,-929,-310,205,3267,38,42,874,1783,1851,2052,2250,1996,1764,2032,1929
1021436,71404,38820,71277,38509,14,-36,-952,64,-911,-306,146,3272,53,39,883,1783,1851,2052,2250,1996,1764,2032,1929
1022437,71496,38872,71342,38574,-168,230,-922,55,-880,-213,129,3270,57,38,885,1783,1851,2052,2250,1996,1764,2032,1929
1023438,71576,38936,71407,38639,-37,81,-894,45,-862,-100,254,3400,51,50,873,1783,1851,2052,2250,1996,1764,2032,1929
1024439,71648,38992,71472,38704,55,192,-873,15,-839,-355,118,3431,55,43,884,1783,1851,2052,2250,1996,1764,2032,1929
1025440,71732,39052,71537,38769,-119,148,-859,18,-814,-300,66,3423,39,41,884,1783,1851,2052,2250,1996,1764,2032,1929
1026441,71816,39132,71602,38834,-143,-121,-853,32,-791,-34,1,3506,55,44,878,1778,1858,2044,2232,1984,1744,1821,1929
1027442,71900,39188,71667,38899,-166,190,-847,45,-777,108,108,3513,57,43,877,1778,1858,2044,2232,1984,1744,1821,1929
1028443,71992,39256,71732,38964,-299,36,-842,42,-759,-56,2,3420,44,43,875,1778,1858,2044,2232,1984,1744,1821,1929
1029444,72068,39320,71797,39029,-112,87,-843,36,-738,-70,2,3507,58,46,883,1778,1858,2044,2232,1984,1744,1821,1929
1030445,72160,39376,71862,39094,-345,198,-835,23,-708,50,56,3629,41,42,879,1778,1858,2044,2232,1984,1744,1821,1929
1031446,72244,39440,71927,39159,-268,99,-824,-4,-680,16,68,3517,54,41,883,1785,1861,2041,2234,1976,1750,1829,1929
1032447,72344,39516,71992,39224,-511,-64,-802,-37,-642,103,82,3711,60,43,884,1785,1861,2041,2234,1976,1750,1829,1929
1033448,72444,39592,72057,39289,-554,-77,-775,-71,-614,36,-11,3654,54,41,884,1785,1861,2041,2234,1976,1750,1829,1929
1034449,72516,39664,72122,39354,-212,-37,-751,-97,-587,87,-109,3742,46,56,883,1785,1861,2041,2234,1976,1750,1829,1929
1035450,72620,39736,72187,39419,-661,-45,-729,-108,-566,401,-52,3683,61,54,885,1785,1861,2041,2234,1976,1750,1829,1929
