%  Data file recorded 2016/10/7  0:25:58
%  Stride Frequency         = [1, 1]
%  Lead In /Lead Out        = 
%  Deltas (Fractional)      = [0.25, 0.25, 0.25],[0.25, 0.25, 0.25]
%  Phase                    = 32768
%  Experiment.py 
%  Motor Gains    = [5000, 400, 200, 0, 300, 5000, 400, 200, 0, 300]
% Columns: 
% time | Right Leg Pos | Left Leg Pos | Commanded Right Leg Pos | Commanded Left Leg Pos | DCR | DCL | GyroX | GyroY | GyroZ | AX | AY | AZ | RBEMF | LBEMF | VBatt | S1 | S2 | S3 | S4 | S5 | S6 | S7 | S8
176,18416,-18144,16520,-16248,-3800,3800,-11,-4,2,-131,54,3930,-4,9,866,1784,1863,2060,2248,2032,1793,1859,1969
1177,18420,-18144,16520,-16248,-3800,3800,-13,-2,3,-131,53,3967,13,1,866,1784,1863,2060,2248,2032,1793,1859,1969
2178,18420,-18148,16520,-16248,-3800,3800,-16,-3,0,-120,50,3937,0,-3,866,1784,1863,2060,2248,2032,1793,1859,1969
3179,18424,-18148,16520,-16248,-3800,3800,-16,-5,-1,-135,49,3939,1,6,867,1784,1863,2060,2248,2032,1793,1859,1969
4180,18424,-18148,16520,-16248,-3800,3800,-15,-5,-3,-124,25,3937,14,11,866,1783,1863,2060,2248,2032,1793,1859,1969
5181,18412,-18148,16520,-16248,-3800,3800,-16,-4,-2,-121,32,3916,-5,9,866,1783,1863,2060,2250,2036,1796,1862,1972
6182,18424,-18144,16520,-16248,-3800,3800,-16,-3,1,-129,22,3888,13,-1,866,1783,1863,2060,2250,2036,1796,1862,1972
7183,18420,-18136,16520,-16248,-3800,3800,-18,-5,2,-170,30,3896,5,-3,866,1783,1863,2060,2250,2036,1796,1862,1972
8186,18412,-18140,16520,-16248,-3800,3800,-17,-6,2,-149,32,3942,6,5,866,1783,1863,2060,2250,2036,1796,1862,1972
9185,18420,-18144,16520,-16248,-3800,3800,-12,-4,2,-136,60,3952,15,10,866,1783,1863,2060,2250,2036,1796,1862,1972
10186,18424,-18144,16520,-16248,-3800,3800,-13,-4,1,-124,58,3916,4,5,866,1783,1864,2059,2248,2032,1794,1859,1970
11187,18412,-18148,16520,-16248,-3800,3800,-14,-5,-1,-132,50,3915,-3,-1,866,1783,1864,2059,2248,2032,1794,1859,1970
12188,18416,-18148,16520,-16248,-3800,3800,-16,-4,-1,-140,16,3934,3,1,866,1783,1864,2059,2248,2032,1794,1859,1970
13189,18404,-18140,16520,-16248,-3800,3800,-16,-2,-3,-138,17,3933,12,6,866,1783,1864,2059,2248,2032,1794,1859,1970
14190,18412,-18144,16520,-16248,-3800,3800,-17,-5,-2,-127,42,3914,9,11,866,1783,1864,2059,2248,2032,1794,1859,1970
15191,18412,-18148,16520,-16248,-3800,3800,-17,-8,-3,-124,20,3909,-4,6,866,1781,1862,2059,2252,2036,1796,1861,1972
16192,18420,-18144,16520,-16248,-3800,3800,-15,-4,-2,-125,55,3926,-3,-1,866,1781,1862,2059,2252,2036,1796,1861,1972
17193,18416,-18140,16520,-16248,-3800,3800,-14,-4,-3,-109,38,3894,14,-3,866,1781,1862,2059,2252,2036,1796,1861,1972
18194,18420,-18140,16520,-16248,-3800,3800,-14,-4,-3,-124,26,3939,13,5,866,1781,1862,2059,2252,2036,1796,1861,1972
19195,18412,-18144,16520,-16248,-3800,3800,-16,-1,-3,-150,31,3943,-2,9,864,1781,1862,2059,2252,2036,1796,1861,1972
20196,18424,-18144,16520,-16248,-3800,3800,-18,-2,2,-148,37,3939,14,7,866,1781,1862,2059,2252,2036,1796,1861,1972
21197,18412,-18140,16520,-16248,-3800,3800,-14,-2,0,-126,16,3947,-2,11,866,1782,1862,2058,2248,2032,1794,1860,1971
22198,18420,-18144,16520,-16248,-3800,3800,-12,-1,-3,-139,38,3909,2,7,866,1782,1862,2058,2248,2032,1794,1860,1971
23199,18412,-18148,16520,-16248,-3800,3800,-15,-1,-3,-132,25,3926,14,0,866,1782,1862,2058,2248,2032,1794,1860,1971
24200,18412,-18136,16520,-16248,-3800,3800,-17,1,0,-139,33,3947,12,-2,866,1782,1862,2058,2248,2032,1794,1860,1971
25201,18408,-18136,16520,-16248,-3800,3800,-14,0,-2,-150,46,3930,2,5,866,1782,1862,2058,2248,2032,1794,1860,1971
26202,18412,-18152,16520,-16248,-3800,3800,-13,-2,-4,-138,18,3905,1,11,866,1783,1863,2060,2250,2034,1796,1861,1972
27203,18408,-18144,16520,-16248,-3800,3800,-15,-2,0,-135,19,3934,15,4,866,1783,1863,2060,2250,2034,1796,1861,1972
28204,18416,-18144,16520,-16248,-3800,3800,-15,-4,2,-154,42,3918,0,-3,866,1783,1863,2060,2250,2034,1796,1861,1972
29205,18412,-18144,16520,-16248,-3800,3800,-14,-5,4,-132,32,3932,3,-2,866,1783,1863,2060,2250,2034,1796,1861,1972
30206,18416,-18148,16520,-16248,-3800,3800,-15,-2,1,-105,13,3919,14,9,866,1783,1863,2060,2250,2034,1796,1861,1972
31207,18424,-18148,16520,-16248,-3800,3800,-16,0,0,-138,32,3901,2,11,866,1783,1863,2060,2250,2034,1796,1861,1972
32208,18416,-18136,16520,-16248,-3800,3800,-15,-2,-1,-140,9,3927,-2,10,866,1784,1864,2060,2248,2032,1793,1859,1969
33209,18416,-18148,16520,-16248,-3800,3800,-13,-4,1,-151,42,3932,8,2,866,1784,1864,2060,2248,2032,1793,1859,1969
34210,18416,-18144,16520,-16248,-3800,3800,-14,-5,2,-163,60,3936,15,-3,866,1784,1864,2060,2248,2032,1793,1859,1969
35211,18424,-18136,16520,-16248,-3800,3800,-14,-5,0,-158,44,3936,-1,-1,866,1784,1864,2060,2248,2032,1793,1859,1969
36212,18416,-18140,16520,-16248,-3800,3800,-16,-4,1,-124,45,3945,-3,8,865,1784,1864,2060,2248,2032,1793,1859,1969
37213,18416,-18148,16520,-16248,-3800,3800,-14,-1,5,-119,26,3934,15,5,866,1783,1863,2060,2250,2034,1794,1860,1972
38214,18412,-18148,16520,-16248,-3800,3800,-14,-2,4,-142,45,3915,-4,10,866,1783,1863,2060,2250,2034,1794,1860,1972
39215,18412,-18140,16520,-16248,-3800,3800,-13,-3,3,-128,40,3924,2,8,866,1783,1863,2060,2250,2034,1794,1860,1972
40216,18416,-18152,16520,-16248,-3800,3800,-19,0,3,-152,32,3941,12,-1,866,1783,1863,2060,2250,2034,1794,1860,1972
41217,18412,-18144,16520,-16248,-3800,3800,-18,-1,3,-130,38,3946,7,-3,866,1783,1863,2060,2250,2034,1794,1860,1972
42218,18408,-18144,16520,-16248,-3800,3800,-14,-3,4,-100,48,3938,-3,6,866,1783,1863,2060,2250,2034,1794,1860,1972
43219,18420,-18148,16520,-16248,-3800,3800,-13,-3,4,-132,43,3923,-4,11,866,1782,1864,2058,2248,2032,1793,1859,1969
44220,18416,-18140,16520,-16248,-3800,3800,-14,-5,4,-142,25,3903,14,10,866,1782,1864,2058,2248,2032,1793,1859,1969
45221,18424,-18136,16520,-16248,-3800,3800,-14,-7,2,-118,32,3937,10,-2,866,1782,1864,2058,2248,2032,1793,1859,1969
46222,18428,-18152,16520,-16248,-3800,3800,-13,-5,2,-155,37,3906,-4,-3,866,1782,1864,2058,2248,2032,1793,1859,1969
47223,18416,-18156,16520,-16248,-3800,3800,-14,-6,3,-131,33,3897,8,-2,866,1782,1864,2058,2248,2032,1793,1859,1969
48224,18416,-18144,16520,-16248,-3800,3800,-13,-6,3,-123,23,3908,15,7,866,1779,1862,2058,2247,2034,1796,1862,1972
49225,18420,-18144,16520,-16248,-3800,3800,-12,-4,4,-96,18,3929,10,9,866,1779,1862,2058,2247,2034,1796,1862,1972
50226,18420,-18148,16520,-16248,-3800,3800,-14,-2,4,-121,21,3919,-5,12,866,1779,1862,2058,2247,2034,1796,1862,1972
51227,18428,-18140,16520,-16248,-3800,3800,-12,-3,2,-152,20,3898,2,4,866,1779,1862,2058,2247,2034,1796,1862,1972
52228,18420,-18144,16520,-16248,-3800,3800,-14,-4,2,-138,38,3946,15,-1,866,1779,1862,2058,2247,2034,1796,1862,1972
53229,18420,-18140,16520,-16248,-3800,3800,-14,-5,4,-111,39,3922,3,-2,865,1779,1862,2058,2247,2034,1796,1862,1972
54230,18408,-18136,16520,-16248,-3800,3800,-13,-2,4,-106,45,3938,1,-2,866,1782,1863,2059,2249,2034,1795,1860,1972
55231,18416,-18136,16520,-16248,-3800,3800,-13,-3,1,-100,54,3949,8,-2,866,1782,1863,2059,2249,2034,1795,1860,1972
56232,18416,-18144,16520,-16248,-3800,3800,-15,-5,2,-116,36,3913,-2,-3,866,1782,1863,2059,2249,2034,1795,1860,1972
57233,18420,-18148,16520,-16248,-3800,3800,-17,-3,1,-114,52,3938,14,3,866,1782,1863,2059,2249,2034,1795,1860,1972
58235,18420,-18152,16520,-16248,-3800,3800,-12,-2,1,-109,58,3975,3,8,866,1782,1863,2059,2249,2034,1795,1860,1972
59235,18420,-18140,16520,-16248,-3800,3800,-11,-1,-1,-138,47,3957,0,11,866,1783,1863,2059,2247,2033,1791,1857,1971
60236,18408,-18144,16520,-16248,-3800,3800,-13,-2,-5,-139,32,3945,15,11,866,1783,1863,2059,2247,2033,1791,1857,1971
61237,18416,-18148,16520,-16248,-3800,3800,-13,-3,-1,-159,51,3955,4,5,866,1783,1863,2059,2247,2033,1791,1857,1971
62238,18408,-18144,16520,-16248,-3800,3800,-13,-5,-1,-128,47,3929,-1,2,866,1783,1863,2059,2247,2033,1791,1857,1971
63239,18424,-18148,16520,-16248,-3800,3800,-13,-4,-1,-148,52,3905,14,-3,866,1783,1863,2059,2247,2033,1791,1857,1971
64240,18416,-18156,16520,-16248,-3800,3800,-13,-4,-2,-155,14,3937,7,-1,866,1783,1863,2059,2247,2033,1791,1857,1971
65241,18424,-18148,16520,-16248,-3800,3800,-15,-3,-2,-141,29,3890,-4,7,866,1782,1864,2060,2248,2034,1795,1860,1972
66242,18396,-18148,16520,-16248,-3800,3800,-19,-3,-1,-138,68,3916,5,10,866,1782,1864,2060,2248,2034,1795,1860,1972
67243,18408,-18136,16520,-16248,-3800,3800,-21,-4,-1,-150,37,3938,15,6,866,1782,1864,2060,2248,2034,1795,1860,1972
68244,18412,-18148,16520,-16248,-3800,3800,-16,-6,-4,-134,12,3926,-4,2,866,1782,1864,2060,2248,2034,1795,1860,1972
69245,18412,-18140,16520,-16248,-3800,3800,-14,-6,-3,-101,26,3926,1,-3,866,1782,1864,2060,2248,2034,1795,1860,1972
70246,18408,-18148,16520,-16248,-3800,3800,-15,-4,-1,-126,27,3944,8,-3,865,1782,1863,2059,2248,2033,1795,1861,1971
71247,18408,-18148,16520,-16248,-3800,3800,-18,-4,0,-137,32,3927,5,-3,866,1782,1863,2059,2248,2033,1795,1861,1971
72248,18420,-18140,16520,-16248,-3800,3800,-18,-5,-1,-119,41,3941,-4,2,866,1782,1863,2059,2248,2033,1795,1861,1971
73249,18412,-18144,16520,-16248,-3800,3800,-17,-7,0,-139,36,3965,4,9,866,1782,1863,2059,2248,2033,1795,1861,1971
74250,18420,-18140,16520,-16248,-3800,3800,-18,-6,1,-148,38,3919,15,12,866,1782,1863,2059,2248,2033,1795,1861,1971
75251,18420,-18144,16520,-16248,-3800,3800,-17,-3,1,-133,40,3950,8,2,866,1782,1863,2059,2248,2033,1795,1861,1971
76252,18424,-18152,16520,-16248,-3800,3800,-15,-2,-1,-137,8,3962,-5,-3,866,1782,1863,2058,2249,2034,1795,1861,1971
77253,18416,-18136,16520,-16248,-3800,3800,-14,0,-2,-131,17,3926,13,2,866,1782,1863,2058,2249,2034,1795,1861,1971
78254,18424,-18148,16520,-16248,-3800,3800,-14,-1,1,-132,29,3900,10,10,866,1782,1863,2058,2249,2034,1795,1861,1971
79255,18420,-18148,16520,-16248,-3800,3800,-16,-2,0,-132,24,3923,-1,2,866,1782,1863,2058,2249,2034,1795,1861,1971
80256,18424,-18144,16520,-16248,-3800,3800,-16,-4,-1,-136,29,3923,5,-3,866,1782,1863,2058,2249,2034,1795,1861,1971
81257,18408,-18140,16520,-16248,-3800,3800,-16,-5,0,-119,24,3942,15,9,866,1782,1865,2061,2249,2033,1791,1857,1971
82258,18412,-18144,16520,-16248,-3800,3800,-15,-5,0,-136,35,3934,4,10,866,1782,1865,2061,2249,2033,1791,1857,1971
83259,18400,-18144,16520,-16248,-3800,3800,-16,-2,1,-138,13,3928,5,2,866,1782,1865,2061,2249,2033,1791,1857,1971
84260,18408,-18140,16520,-16248,-3800,3800,-18,-3,2,-142,30,3956,13,-3,866,1782,1865,2061,2249,2033,1791,1857,1971
85261,18408,-18152,16520,-16248,-3800,3800,-19,-3,0,-150,47,3955,-3,2,866,1782,1865,2061,2249,2033,1791,1857,1971
86262,18424,-18144,16520,-16248,-3800,3800,-17,-2,0,-132,31,3931,15,6,866,1782,1865,2061,2249,2033,1791,1857,1971
87263,18424,-18164,16520,-16248,-3800,3800,-15,-4,5,-151,38,3917,-1,11,865,1782,1863,2059,2249,2032,1794,1860,1971
88264,18420,-18136,16520,-16248,-3800,3800,-13,-4,5,-155,27,3894,12,12,866,1782,1863,2059,2249,2032,1794,1860,1971
89265,18424,-18144,16520,-16248,-3800,3800,-15,-3,2,-126,22,3900,-4,11,866,1782,1863,2059,2249,2032,1794,1860,1971
90266,18432,-18144,16520,-16248,-3800,3800,-14,-1,3,-138,33,3898,8,2,866,1782,1863,2059,2249,2032,1794,1860,1971
91267,18416,-18140,16520,-16248,-3800,3800,-15,-1,4,-137,32,3922,8,-2,866,1782,1863,2059,2249,2032,1794,1860,1971
92268,18416,-18144,16520,-16248,-3800,3800,-16,-1,3,-144,17,3939,-3,-3,866,1783,1863,2055,2247,2031,1794,1860,1972
93269,18412,-18152,16520,-16248,-3800,3800,-16,-1,2,-129,33,3907,13,7,866,1783,1863,2055,2247,2031,1794,1860,1972
94270,18420,-18156,16520,-16248,-3800,3800,-14,-1,1,-132,38,3902,6,11,866,1783,1863,2055,2247,2031,1794,1860,1972
95271,18416,-18144,16520,-16248,-3800,3800,-16,-2,4,-140,30,3898,-4,10,866,1783,1863,2055,2247,2031,1794,1860,1972
96272,18416,-18144,16520,-16248,-3800,3800,-17,-1,5,-124,34,3920,12,1,866,1783,1863,2055,2247,2031,1794,1860,1972
97273,18416,-18144,16520,-16248,-3800,3800,-15,-2,4,-116,41,3930,0,-2,866,1783,1863,2055,2247,2031,1794,1860,1972
98274,18412,-18144,16520,-16248,-3800,3800,-15,-4,4,-117,43,3933,7,-3,866,1782,1864,2060,2249,2032,1793,1860,1969
99275,18412,-18148,16520,-16248,-3800,3800,-15,-4,2,-151,28,3939,8,9,866,1782,1864,2060,2249,2032,1793,1860,1969
100276,18424,-18144,16520,-16248,-3800,3800,-12,-4,2,-133,36,3911,-4,12,866,1782,1864,2060,2249,2032,1793,1860,1969
101277,18416,-18136,16520,-16248,-3800,3800,-11,-5,2,-150,69,3931,13,6,866,1782,1864,2060,2249,2032,1793,1860,1969
102278,18412,-18140,16520,-16248,-3800,3800,-11,-4,2,-126,21,3928,-2,-3,866,1782,1864,2060,2249,2032,1793,1860,1969
103279,18420,-18140,16520,-16248,-3800,3800,-12,-1,1,-105,52,3966,10,1,866,1779,1859,2057,2250,2034,1796,1862,1972
104280,18420,-18144,16520,-16248,-3800,3800,-12,-1,0,-108,66,3949,-2,6,864,1779,1859,2057,2250,2034,1796,1862,1972
105281,18412,-18144,16520,-16248,-3800,3800,-13,-4,3,-135,41,3914,12,11,866,1779,1859,2057,2250,2034,1796,1862,1972
106282,18424,-18144,16520,-16248,-3800,3800,-13,-5,3,-145,18,3881,-1,9,866,1779,1859,2057,2250,2034,1796,1862,1972
107283,18412,-18144,16520,-16248,-3800,3800,-11,-3,3,-139,34,3900,10,3,866,1779,1859,2057,2250,2034,1796,1862,1972
108284,18424,-18148,16520,-16248,-3800,3800,-10,-3,0,-123,41,3914,9,-3,866,1779,1859,2057,2250,2034,1796,1862,1972
109285,18412,-18140,16520,-16248,-3800,3800,-13,-7,2,-127,45,3947,-4,2,866,1783,1864,2059,2249,2032,1793,1859,1970
110286,18420,-18144,16520,-16248,-3800,3800,-13,-10,3,-126,61,3942,14,7,866,1783,1864,2059,2249,2032,1793,1859,1970
111287,18424,-18144,16520,-16248,-3800,3800,-12,-7,1,-127,62,3957,-4,10,866,1783,1864,2059,2249,2032,1793,1859,1970
112288,18424,-18140,16520,-16248,-3800,3800,-15,-4,-1,-117,53,3970,10,4,866,1783,1864,2059,2249,2032,1793,1859,1970
113289,18420,-18148,16520,-16248,-3800,3800,-13,-4,-3,-132,43,3949,1,-1,866,1783,1864,2059,2249,2032,1793,1859,1970
114290,18412,-18152,16520,-16248,-3800,3800,-12,-4,-4,-143,46,3934,-2,2,866,1783,1863,2059,2247,2035,1796,1862,1972
115291,18416,-18144,16520,-16248,-3800,3800,-14,-3,0,-139,33,3926,13,10,866,1783,1863,2059,2247,2035,1796,1862,1972
116292,18416,-18132,16520,-16248,-3800,3800,-15,-3,2,-145,25,3948,-1,9,866,1783,1863,2059,2247,2035,1796,1862,1972
117293,18420,-18144,16520,-16248,-3800,3800,-14,-3,1,-137,29,3936,-4,-3,866,1783,1863,2059,2247,2035,1796,1862,1972
118294,18412,-18148,16520,-16248,-3800,3800,-15,-3,0,-125,12,3956,1,3,866,1783,1863,2059,2247,2035,1796,1862,1972
119295,18416,-18152,16520,-16248,-3800,3800,-13,-3,0,-119,14,3948,14,11,866,1783,1863,2059,2247,2035,1796,1862,1972
120296,18420,-18144,16520,-16248,-3800,3800,-13,-2,1,-134,33,3940,1,1,866,1781,1864,2059,2248,2034,1795,1861,1971
121297,18412,-18136,16520,-16248,-3800,3800,-15,-2,0,-106,40,3916,-5,-3,864,1781,1864,2059,2248,2034,1795,1861,1971
122298,18420,-18148,16520,-16248,-3800,3800,-17,-3,-1,-121,43,3930,12,-2,866,1781,1864,2059,2248,2034,1795,1861,1971
123299,18420,-18144,16520,-16248,-3800,3800,-17,-3,-1,-97,41,3939,-4,0,866,1781,1864,2059,2248,2034,1795,1861,1971
124300,18420,-18140,16520,-16248,-3800,3800,-16,-4,-1,-124,28,3950,10,6,866,1781,1864,2059,2248,2034,1795,1861,1971
125301,18412,-18144,16520,-16248,-3800,3800,-13,-3,-1,-141,33,3946,8,12,866,1782,1864,2059,2249,2035,1795,1859,1970
126302,18416,-18144,16520,-16248,-3800,3800,-15,-3,1,-152,48,3917,-5,1,866,1782,1864,2059,2249,2035,1795,1859,1970
127303,18412,-18148,16520,-16248,-3800,3800,-16,0,-1,-132,28,3930,11,-3,866,1782,1864,2059,2249,2035,1795,1859,1970
128304,18420,-18156,16520,-16248,-3800,3800,-17,0,-1,-135,41,3943,2,-1,866,1782,1864,2059,2249,2035,1795,1859,1970
129305,18416,-18148,16520,-16248,-3800,3800,-17,-3,-2,-134,48,3928,-2,10,866,1782,1864,2059,2249,2035,1795,1859,1970
130306,18412,-18140,16520,-16248,-3800,3800,-17,-5,0,-136,25,3940,13,11,866,1782,1864,2059,2249,2035,1795,1859,1970
131307,18428,-18160,16520,-16248,-3800,3800,-19,-5,0,-113,27,3924,2,6,866,1781,1863,2059,2248,2033,1794,1860,1970
132308,18428,-18140,16520,-16248,-3800,3800,-18,-3,-1,-132,30,3927,-2,-3,866,1781,1863,2059,2248,2033,1794,1860,1970
133309,18412,-18140,16520,-16248,-3800,3800,-18,0,-3,-129,48,3935,14,-3,866,1781,1863,2059,2248,2033,1794,1860,1970
134310,18416,-18156,16520,-16248,-3800,3800,-15,-1,2,-137,0,3919,-2,-3,866,1781,1863,2059,2248,2033,1794,1860,1970
135311,18408,-18148,16520,-16248,-3800,3800,-15,-2,2,-145,18,3927,8,2,866,1781,1863,2059,2248,2033,1794,1860,1970
136312,18408,-18152,16520,-16248,-3800,3800,-15,-4,-1,-138,64,3921,13,7,866,1781,1863,2058,2247,2032,1793,1859,1969
137313,18416,-18148,16520,-16248,-3800,3800,-15,-3,1,-145,36,3921,-5,9,866,1781,1863,2058,2247,2032,1793,1859,1969
138314,18420,-18144,16520,-16248,-3800,3800,-14,-2,4,-133,43,3943,5,11,865,1781,1863,2058,2247,2032,1793,1859,1969
139315,18412,-18148,16520,-16248,-3800,3800,-16,-1,4,-141,56,3927,11,11,866,1781,1863,2058,2247,2032,1793,1859,1969
140316,18412,-18148,16520,-16248,-3800,3800,-17,-1,2,-119,50,3936,3,11,866,1781,1863,2058,2247,2032,1793,1859,1969
141317,18424,-18128,16520,-16248,-3800,3800,-15,-3,-1,-123,37,3960,14,9,866,1781,1863,2058,2247,2032,1793,1859,1969
142318,18416,-18148,16520,-16248,-3800,3800,-13,-2,1,-125,27,3926,-1,6,866,1782,1864,2059,2248,2033,1793,1859,1969
143319,18416,-18144,16520,-16248,-3800,3800,-16,0,1,-119,41,3896,-2,6,866,1782,1864,2059,2248,2033,1793,1859,1969
144320,18412,-18148,16520,-16248,-3800,3800,-15,-3,1,-126,55,3937,13,-3,866,1782,1864,2059,2248,2033,1793,1859,1969
145321,18404,-18136,16520,-16248,-3800,3800,-13,-4,3,-114,57,3941,3,-2,866,1782,1864,2059,2248,2033,1793,1859,1969
146322,18416,-18144,16520,-16248,-3800,3800,-14,-3,4,-102,70,3931,1,6,866,1782,1864,2059,2248,2033,1793,1859,1969
147323,18420,-18148,16520,-16248,-3800,3800,-14,-4,2,-130,43,3916,14,11,866,1783,1865,2060,2249,2033,1794,1859,1969
148324,18412,-18144,16520,-16248,-3800,3800,-16,-2,2,-136,29,3928,-3,8,866,1783,1865,2060,2249,2033,1794,1859,1969
149325,18408,-18148,16520,-16248,-3800,3800,-14,-4,1,-115,64,3895,12,3,866,1783,1865,2060,2249,2033,1794,1859,1969
150326,18420,-18144,16520,-16248,-3800,3800,-12,-5,3,-116,64,3904,8,-3,866,1783,1865,2060,2249,2033,1794,1859,1969
151327,18412,-18148,16520,-16248,-3800,3800,-14,-6,2,-116,30,3901,-5,-3,866,1783,1865,2060,2249,2033,1794,1859,1969
152328,18400,-18144,16520,-16248,-3800,3800,-15,-7,0,-90,3,3932,14,0,866,1783,1865,2060,2249,2033,1794,1859,1969
153329,18412,-18152,16520,-16248,-3800,3800,-13,-8,1,-132,32,3913,-2,10,866,1782,1865,2059,2248,2032,1793,1859,1970
154330,18408,-18144,16520,-16248,-3800,3800,-11,-6,2,-152,28,3882,4,11,866,1782,1865,2059,2248,2032,1793,1859,1970
155331,18416,-18136,16520,-16248,-3800,3800,-11,-3,1,-133,50,3913,5,6,865,1782,1865,2059,2248,2032,1793,1859,1970
156332,18416,-18144,16520,-16248,-3800,3800,-12,-5,-1,-115,27,3931,-2,0,866,1782,1865,2059,2248,2032,1793,1859,1970
157333,18416,-18144,16520,-16248,-3800,3800,-13,-5,1,-135,22,3909,14,-3,866,1782,1865,2059,2248,2032,1793,1859,1970
158334,18412,-18132,16520,-16248,-3800,3800,-13,-5,5,-148,31,3928,-5,-1,866,1782,1865,2059,2247,2031,1793,1859,1970
159335,18424,-18148,16520,-16248,-3800,3800,-12,-4,3,-150,39,3939,3,9,866,1782,1865,2059,2247,2031,1793,1859,1970
160336,18404,-18140,16520,-16248,-3800,3800,-13,-2,2,-148,12,3938,14,12,866,1782,1865,2059,2247,2031,1793,1859,1970
161337,18408,-18140,16520,-16248,-3800,3800,-13,-2,1,-148,19,3956,-5,10,866,1782,1865,2059,2247,2031,1793,1859,1970
162338,18416,-18148,16520,-16248,-3800,3800,-12,-3,1,-139,29,3932,10,-1,866,1782,1865,2059,2247,2031,1793,1859,1970
163339,18420,-18140,16520,-16248,-3800,3800,-15,-2,1,-121,36,3895,8,-3,866,1782,1865,2059,2247,2031,1793,1859,1970
164340,18420,-18148,16520,-16248,-3800,3800,-15,-4,1,-111,41,3933,-5,-3,866,1782,1864,2059,2249,2033,1795,1860,1971
165341,18412,-18148,16520,-16248,-3800,3800,-16,-5,2,-128,32,3916,3,4,866,1782,1864,2059,2249,2033,1795,1860,1971
166342,18412,-18148,16520,-16248,-3800,3800,-14,-8,4,-143,40,3922,14,10,866,1782,1864,2059,2249,2033,1795,1860,1971
167343,18408,-18144,16520,-16248,-3800,3800,-15,-6,3,-155,32,3914,-1,12,866,1782,1864,2059,2249,2033,1795,1860,1971
168344,18416,-18140,16520,-16248,-3800,3800,-17,-3,0,-150,26,3936,-4,2,866,1782,1864,2059,2249,2033,1795,1860,1971
169345,18416,-18144,16520,-16248,-3800,3800,-16,0,-3,-145,22,3955,5,-2,866,1780,1864,2058,2248,2033,1795,1860,1971
170346,18424,-18148,16520,-16248,-3800,3800,-12,-1,1,-151,29,3952,12,-3,866,1780,1864,2058,2248,2033,1795,1860,1971
171347,18420,-18144,16520,-16248,-3800,3800,-13,-2,1,-131,47,3920,-3,0,866,1780,1864,2058,2248,2033,1795,1860,1971
172348,18420,-18140,16520,-16248,-3800,3800,-16,-3,-1,-146,34,3918,4,0,864,1780,1864,2058,2248,2033,1795,1860,1971
173349,18420,-18136,16520,-16248,-3800,3800,-18,-3,-3,-131,28,3924,5,-3,866,1780,1864,2058,2248,2033,1795,1860,1971
174350,18404,-18140,16520,-16248,-3800,3800,-15,-2,-3,-154,38,3930,-4,3,866,1780,1864,2058,2248,2033,1795,1860,1971
175351,18420,-18148,16520,-16248,-3800,3800,-13,-3,-1,-145,49,3946,12,7,866,1784,1866,2060,2249,2033,1794,1860,1970
176352,18408,-18148,16520,-16248,-3800,3800,-14,-3,1,-142,54,3928,6,7,866,1784,1866,2060,2249,2033,1794,1860,1970
177353,18416,-18152,16520,-16248,-3800,3800,-14,-4,2,-134,29,3918,-5,12,866,1784,1866,2060,2249,2033,1794,1860,1970
178354,18416,-18144,16520,-16248,-3800,3800,-15,-3,-2,-124,27,3946,8,11,866,1784,1866,2060,2249,2033,1794,1860,1970
179355,18420,-18148,16520,-16248,-3800,3800,-15,-3,-2,-117,27,3916,12,11,866,1784,1866,2060,2249,2033,1794,1860,1970
180356,18416,-18144,16520,-16248,-3800,3800,-15,-4,0,-105,13,3930,0,4,866,1781,1864,2059,2248,2033,1794,1859,1970
181357,18416,-18148,16520,-16248,-3800,3800,-17,-3,4,-125,32,3963,-5,1,866,1781,1864,2059,2248,2033,1794,1859,1970
182358,18416,-18140,16520,-16248,-3800,3800,-16,-4,1,-145,37,3907,11,1,866,1781,1864,2059,2248,2033,1794,1859,1970
183359,18424,-18148,16520,-16248,-3800,3800,-15,-4,0,-138,39,3885,12,-1,866,1781,1864,2059,2248,2033,1794,1859,1970
184360,18412,-18148,16520,-16248,-3800,3800,-17,-4,1,-146,49,3954,0,-1,866,1781,1864,2059,2248,2033,1794,1859,1970
185364,18424,-18152,16520,-16248,-3800,3800,-16,-2,2,-162,39,3928,4,-2,866,1781,1864,2059,2248,2033,1794,1859,1970
186362,18416,-18148,16520,-16248,-3800,3800,-18,-3,2,-138,32,3936,14,-2,866,1783,1866,2060,2252,2034,1796,1860,1970
187363,18420,-18144,16520,-16248,-3800,3800,-17,-5,-2,-131,43,3929,9,-2,866,1783,1866,2060,2252,2034,1796,1860,1970
188364,18404,-18148,16520,-16248,-3800,3800,-15,-4,-2,-103,51,3914,-4,2,866,1783,1866,2060,2252,2034,1796,1860,1970
189365,18404,-18148,16520,-16248,-3800,3800,-15,0,-2,-114,29,3934,3,10,865,1783,1866,2060,2252,2034,1796,1860,1970
190366,18416,-18152,16520,-16248,-3800,3800,-14,-1,0,-128,44,3954,15,11,866,1783,1866,2060,2252,2034,1796,1860,1970
191367,18416,-18144,16520,-16248,-3800,3800,-13,-5,2,-118,19,3931,-3,12,866,1783,1865,2058,2248,2032,1793,1859,1969
192368,18416,-18144,16520,-16248,-3800,3800,-16,-8,1,-140,41,3926,-4,9,866,1783,1865,2058,2248,2032,1793,1859,1969
193369,18416,-18140,16520,-16248,-3800,3800,-16,-6,-2,-119,29,3941,0,9,866,1783,1865,2058,2248,2032,1793,1859,1969
194370,18416,-18140,16520,-16248,-3800,3800,-16,-2,-1,-105,25,3937,13,8,866,1783,1865,2058,2248,2032,1793,1859,1969
195371,18408,-18144,16520,-16248,-3800,3800,-14,1,0,-116,24,3941,12,1,866,1783,1865,2058,2248,2032,1793,1859,1969
196372,18416,-18144,16520,-16248,-3800,3800,-15,-2,2,-119,21,3935,-2,1,866,1783,1865,2058,2248,2032,1793,1859,1969
197373,18420,-18132,16520,-16248,-3800,3800,-17,-5,3,-131,23,3951,-1,-1,866,1783,1866,2062,2252,2034,1796,1861,1971
198374,18404,-18144,16520,-16248,-3800,3800,-18,-2,1,-114,33,3946,10,-3,866,1783,1866,2062,2252,2034,1796,1861,1971
199375,18416,-18148,16585,-16183,-1961,2873,-14,-3,-1,-122,15,3935,14,-1,866,1783,1866,2062,2252,2034,1796,1861,1971
200376,18420,-18144,16650,-16118,-1787,2848,-12,-2,1,-124,21,3943,4,3,835,1783,1866,2062,2252,2034,1796,1861,1971
201377,18416,-18128,16715,-16053,-1604,2758,-11,-6,1,-132,5,3939,20,-6,836,1783,1866,2062,2252,2034,1796,1861,1971
202378,18408,-18072,16780,-15988,-1466,2270,-12,0,-2,-117,48,3908,18,10,835,1782,1864,2058,2248,2032,1791,1859,1969
203379,18412,-17968,16845,-15923,-1541,1624,-24,-13,1,-169,25,3972,12,28,847,1782,1864,2058,2248,2032,1791,1859,1969
204380,18416,-17820,16910,-15858,-1468,973,-22,-43,-2,-371,-8,4061,20,57,854,1782,1864,2058,2248,2032,1791,1859,1969
205381,18416,-17684,16975,-15793,-1339,1037,-23,-102,-5,-531,29,4334,15,75,860,1782,1864,2058,2248,2032,1791,1859,1969
206382,18420,-17584,17040,-15728,-1315,1445,-13,-110,-23,-307,-98,4266,2,88,857,1782,1864,2058,2248,2032,1791,1859,1969
207383,18412,-17428,17105,-15663,-1076,635,-8,-86,-33,204,-179,3978,2,81,857,1782,1864,2058,2248,2032,1791,1859,1969
208384,18420,-17260,17170,-15598,-1207,359,-8,-39,-54,486,-179,3832,6,96,863,1782,1866,2062,2252,2038,1799,1868,1979
209385,18420,-17092,17235,-15533,-1028,235,-22,-31,-82,93,-96,3581,8,99,865,1782,1866,2062,2252,2038,1799,1868,1979
210386,18412,-16956,17300,-15468,-840,548,-64,-46,-116,-290,-21,3890,11,85,864,1782,1866,2062,2252,2038,1799,1868,1979
211387,18424,-16792,17365,-15403,-1025,78,-76,-13,-124,125,-89,3808,2,86,864,1782,1866,2062,2252,2038,1799,1868,1979
212388,18424,-16632,17430,-15338,-797,13,-105,-43,-146,167,-221,3873,10,97,865,1782,1866,2062,2252,2038,1799,1868,1979
213389,18428,-16464,17495,-15273,-772,-213,-100,-79,-149,-573,-176,4134,15,88,866,1790,1876,2066,2253,2045,1807,1875,1989
214390,18420,-16280,17560,-15208,-533,-558,-97,-187,-146,-668,-244,3673,7,88,864,1790,1876,2066,2253,2045,1807,1875,1989
215391,18412,-16156,17625,-15143,-445,121,-85,-273,-150,-521,-90,4355,5,92,862,1790,1876,2066,2253,2045,1807,1875,1989
216392,18412,-15992,17690,-15078,-466,-500,-84,-353,-168,-435,-191,4098,13,73,865,1790,1876,2066,2253,2045,1807,1875,1989
217393,18416,-15864,17755,-15013,-441,-126,-94,-414,-167,-391,-41,4264,3,77,863,1790,1876,2066,2253,2045,1807,1875,1989
218394,18404,-15736,17820,-14948,-148,-203,-101,-390,-168,-169,-75,4633,-1,69,865,1790,1876,2066,2253,2045,1807,1875,1989
219395,18416,-15608,17885,-14883,-384,-279,-120,-359,-181,249,-122,4122,15,63,865,1749,1864,2050,2231,2051,1807,1883,2006
220396,18408,-15488,17950,-14818,-45,-246,-108,-306,-184,113,-221,4481,1,60,865,1749,1864,2050,2231,2051,1807,1883,2006
221397,18416,-15408,18015,-14753,-175,236,-99,-257,-197,159,-164,4160,16,60,865,1749,1864,2050,2231,2051,1807,1883,2006
222398,18424,-15296,18080,-14688,-105,-221,-83,-218,-212,45,-86,4345,16,59,855,1749,1864,2050,2231,2051,1807,1883,2006
223399,18408,-15196,18145,-14623,292,-114,-77,-173,-203,-168,-36,4419,0,57,859,1749,1864,2050,2231,2051,1807,1883,2006
224400,18420,-15100,18210,-14558,7,-102,-82,-166,-196,-104,109,4019,0,57,864,1770,1876,2064,2248,2062,1802,1870,2001
225401,18416,-15004,18275,-14493,291,-139,-102,-177,-199,-420,109,4165,11,52,865,1770,1876,2064,2248,2062,1802,1870,2001
226402,18420,-14920,18340,-14428,266,-12,-126,-217,-209,-541,149,3816,19,49,864,1770,1876,2064,2248,2062,1802,1870,2001
227403,18428,-14840,18405,-14363,285,20,-144,-270,-223,-646,50,3923,7,49,865,1770,1876,2064,2248,2062,1802,1870,2001
228404,18420,-14756,18470,-14298,575,-53,-152,-324,-236,-703,-14,3909,18,42,865,1770,1876,2064,2248,2062,1802,1870,2001
229405,18432,-14676,18535,-14233,389,-22,-137,-362,-247,-439,-66,3835,6,38,862,1770,1876,2064,2248,2062,1802,1870,2001
230406,18440,-14628,18600,-14168,509,400,-132,-382,-261,-418,-93,3948,23,42,864,1798,1881,2080,2276,2053,1812,1870,1976
231407,18440,-14552,18665,-14103,688,37,-112,-369,-263,-299,-108,3921,23,37,862,1798,1881,2080,2276,2053,1812,1870,1976
232408,18460,-14492,18730,-14038,493,243,-107,-336,-270,-48,-88,3919,14,48,862,1798,1881,2080,2276,2053,1812,1870,1976
233411,18476,-14440,18795,-13973,603,359,-106,-275,-275,25,-136,3933,30,40,863,1798,1881,2080,2276,2053,1812,1870,1976
234410,18504,-14392,18860,-13908,499,429,-108,-199,-264,54,-120,4019,28,39,861,1798,1881,2080,2276,2053,1812,1870,1976
235411,18524,-14336,18925,-13843,654,340,-100,-136,-240,87,-95,3952,18,43,862,1795,1865,2065,2261,2015,1780,1837,1935
236412,18548,-14288,18990,-13778,654,462,-96,-80,-228,-13,-123,4063,27,41,861,1795,1865,2065,2261,2015,1780,1837,1935
237413,18592,-14236,19055,-13713,430,428,-101,-31,-213,-115,-126,3878,31,31,860,1795,1865,2065,2261,2015,1780,1837,1935
238414,18620,-14180,19120,-13648,675,389,-98,-10,-186,-154,-52,3770,38,36,862,1795,1865,2065,2261,2015,1780,1837,1935
239415,18652,-14132,19185,-13583,665,510,-101,-5,-156,-288,-29,3854,31,42,861,1795,1865,2065,2261,2015,1780,1837,1935
240416,18696,-14088,19250,-13518,542,585,-104,-19,-128,-399,40,3787,42,42,859,1778,1846,2042,2245,1990,1762,1825,1920
241417,18740,-14028,19315,-13453,567,392,-101,-38,-98,-407,151,3765,44,29,860,1778,1846,2042,2245,1990,1762,1825,1920
242418,18776,-13976,19380,-13388,703,508,-97,-53,-71,-455,143,3668,37,43,861,1778,1846,2042,2245,1990,1762,1825,1920
243419,18840,-13920,19445,-13323,354,469,-91,-81,-51,-327,130,3579,32,42,860,1778,1846,2042,2245,1990,1762,1825,1920
244420,18888,-13876,19510,-13258,575,645,-78,-78,-22,-361,85,3726,36,34,862,1778,1846,2042,2245,1990,1762,1825,1920
245421,18944,-13828,19575,-13193,487,616,-57,-70,-11,-41,143,3659,28,29,860,1778,1846,2042,2245,1990,1762,1825,1920
246422,19004,-13776,19640,-13128,443,583,-33,-35,-12,-5,60,3833,45,44,860,1765,1839,2033,2230,2006,1770,1839,1947
247423,19052,-13744,19705,-13063,614,873,-5,2,-11,179,84,3727,48,40,861,1765,1839,2033,2230,2006,1770,1839,1947
248424,19108,-13656,19770,-12998,525,145,21,34,-8,224,29,3747,34,45,858,1765,1839,2033,2230,2006,1770,1839,1947
249425,19176,-13608,19835,-12933,372,665,52,58,-8,75,20,3873,48,34,863,1765,1839,2033,2230,2006,1770,1839,1947
250426,19224,-13552,19900,-12868,643,577,70,59,-8,31,19,3594,51,32,860,1765,1839,2033,2230,2006,1770,1839,1947
251427,19288,-13500,19965,-12803,444,643,83,58,-6,-11,50,3741,47,31,860,1780,1864,2052,2242,2016,1772,1844,1960
252428,19356,-13448,20030,-12738,390,659,91,55,6,30,79,3611,46,43,860,1780,1864,2052,2242,2016,1772,1844,1960
253429,19432,-13380,20095,-12673,278,457,90,43,19,-59,46,3586,54,49,861,1780,1864,2052,2242,2016,1772,1844,1960
254430,19472,-13316,20160,-12608,758,508,80,34,28,-9,142,3849,39,38,862,1780,1864,2052,2242,2016,1772,1844,1960
255431,19544,-13264,20225,-12543,350,674,59,-25,51,-317,21,3271,41,39,859,1780,1864,2052,2242,2016,1772,1844,1960
256432,19612,-13208,20290,-12478,396,635,52,-91,59,-257,111,3612,39,38,861,1780,1864,2052,2242,2016,1772,1844,1960
257433,19680,-13144,20355,-12413,393,537,36,-123,74,-278,-49,3859,43,43,859,1799,1888,2072,2257,2012,1772,1847,1965
258434,19744,-13096,20420,-12348,445,758,37,-158,86,-158,-51,3706,55,39,862,1799,1888,2072,2257,2012,1772,1847,1965
259435,19804,-13020,20485,-12283,501,394,40,-187,103,-91,-15,3879,49,41,860,1799,1888,2072,2257,2012,1772,1847,1965
260436,19852,-12952,20550,-12218,673,490,45,-199,102,-7,-6,4004,42,49,862,1799,1888,2072,2257,2012,1772,1847,1965
261437,19932,-12888,20615,-12153,254,543,55,-221,109,61,-100,3996,36,45,860,1799,1888,2072,2257,2012,1772,1847,1965
262438,19996,-12824,20680,-12088,455,544,63,-233,114,22,-55,4103,39,48,862,1791,1879,2066,2244,2032,1790,1864,1988
263439,20052,-12772,20745,-12023,566,710,81,-233,106,59,-54,4076,47,35,861,1791,1879,2066,2244,2032,1790,1864,1988
264440,20112,-12712,20810,-11958,524,617,92,-228,91,111,68,4167,42,45,860,1791,1879,2066,2244,2032,1790,1864,1988
265441,20180,-12656,20875,-11893,420,678,101,-238,77,88,92,4071,43,37,860,1791,1879,2066,2244,2032,1790,1864,1988
266442,20252,-12588,20940,-11828,361,524,109,-253,69,-79,47,4252,40,47,860,1791,1879,2066,2244,2032,1790,1864,1988
267443,20324,-12532,21005,-11763,353,685,114,-296,57,-225,60,3969,36,37,862,1791,1879,2066,2244,2032,1790,1864,1988
268444,20388,-12468,21070,-11698,455,587,122,-322,41,-346,129,4079,51,47,861,1781,1870,2060,2244,2050,1806,1877,1990
269445,20452,-12416,21135,-11633,456,753,118,-353,32,-360,115,4068,52,48,861,1781,1870,2060,2244,2050,1806,1877,1990
270446,20504,-12348,21200,-11568,622,550,112,-375,25,-309,150,4078,40,47,860,1781,1870,2060,2244,2050,1806,1877,1990
271447,20572,-12284,21265,-11503,418,602,97,-393,21,-364,138,4009,50,51,860,1781,1870,2060,2244,2050,1806,1877,1990
272448,20644,-12232,21330,-11438,361,768,91,-402,19,-382,109,4073,35,53,861,1781,1870,2060,2244,2050,1806,1877,1990
273449,20696,-12176,21395,-11373,627,729,74,-407,28,-396,82,3991,35,50,860,1785,1875,2065,2258,2054,1814,1880,1992
274450,20756,-12092,21460,-11308,533,356,70,-398,22,-270,26,4114,42,47,857,1785,1875,2065,2258,2054,1814,1880,1992
275451,20812,-12044,21525,-11243,594,827,59,-382,20,-274,9,4168,47,48,862,1785,1875,2065,2258,2054,1814,1880,1992
276452,20880,-11980,21590,-11178,441,629,64,-364,26,-263,-60,4096,50,48,858,1785,1875,2065,2258,2054,1814,1880,1992
277453,20940,-11912,21655,-11113,547,575,61,-327,20,-160,-73,4269,37,42,860,1785,1875,2065,2258,2054,1814,1880,1992
278454,20980,-11860,21720,-11048,828,792,63,-304,12,-132,-154,4126,40,38,860,1785,1875,2065,2258,2054,1814,1880,1992
279455,21036,-11788,21785,-10983,640,533,69,-267,6,-274,-145,4266,36,41,857,1785,1868,2066,2256,2048,1808,1868,1981
280456,21084,-11736,21850,-10918,761,799,74,-237,4,-262,-165,4152,35,38,860,1785,1868,2066,2256,2048,1808,1868,1981
281457,21156,-11672,21915,-10853,452,651,77,-221,-8,-240,-175,4218,41,50,857,1785,1868,2066,2256,2048,1808,1868,1981
282458,21212,-11620,21980,-10788,663,817,79,-219,-15,-281,-135,4131,48,46,860,1785,1868,2066,2256,2048,1808,1868,1981
283460,21260,-11552,22045,-10723,785,613,76,-217,-18,-383,-85,4169,33,48,858,1785,1868,2066,2256,2048,1808,1868,1981
284460,21312,-11480,22110,-10658,751,556,83,-216,-21,-400,-86,4038,43,49,859,1783,1863,2066,2260,2036,1800,1858,1964
285461,21388,-11424,22175,-10593,437,767,87,-214,-30,-282,2,4080,37,50,859,1783,1863,2066,2260,2036,1800,1858,1964
286462,21428,-11348,22240,-10528,919,503,77,-206,-29,-239,18,4094,37,48,860,1783,1863,2066,2260,2036,1800,1858,1964
287463,21484,-11292,22305,-10463,730,764,70,-197,-24,-222,89,4085,33,51,858,1783,1863,2066,2260,2036,1800,1858,1964
288464,21536,-11244,22370,-10398,796,886,65,-172,-23,-135,111,4044,40,37,858,1783,1863,2066,2260,2036,1800,1858,1964
289465,21592,-11180,22435,-10333,757,687,56,-151,-21,-149,157,4038,51,52,856,1783,1863,2066,2260,2036,1800,1858,1964
290466,21648,-11112,22500,-10268,769,634,52,-114,-18,-226,165,3981,51,49,858,1789,1867,2061,2260,2023,1787,1855,1960
291467,21716,-11052,22565,-10203,615,741,54,-93,-22,-102,170,4025,40,39,858,1789,1867,2061,2260,2023,1787,1855,1960
292468,21784,-11004,22630,-10138,611,912,64,-85,-17,-205,111,3903,41,38,858,1789,1867,2061,2260,2023,1787,1855,1960
293469,21856,-10924,22695,-10073,554,493,88,-66,-15,-108,115,3977,43,42,857,1789,1867,2061,2260,2023,1787,1855,1960
294470,21924,-10868,22760,-10008,600,805,95,-62,-4,-114,50,3816,41,36,861,1789,1867,2061,2260,2023,1787,1855,1960
295471,21976,-10800,22825,-9943,816,652,112,-46,-7,-118,36,3995,41,39,859,1786,1866,2058,2250,2023,1786,1854,1964
296472,22048,-10748,22890,-9878,558,868,130,-12,-10,-316,62,4141,40,45,857,1786,1866,2058,2250,2023,1786,1854,1964
297473,22100,-10684,22955,-9813,824,720,153,20,-22,-123,73,4124,54,45,858,1786,1866,2058,2250,2023,1786,1854,1964
298474,22164,-10616,23020,-9748,675,666,176,33,-9,-197,-82,4195,52,34,857,1786,1866,2058,2250,2023,1786,1854,1964
299475,22224,-10544,23085,-9683,733,608,192,17,-9,-191,82,3869,56,41,859,1786,1866,2058,2250,2023,1786,1854,1964
300476,22292,-10484,23150,-9618,629,765,211,28,-17,-552,154,4099,48,32,859,1786,1866,2058,2250,2023,1786,1854,1964
301477,22356,-10428,23215,-9553,680,826,229,32,-45,-184,157,3992,50,47,858,1784,1869,2060,2253,2012,1774,1843,1949
302478,22428,-10396,23280,-9488,573,1166,246,31,-74,137,181,4151,53,41,858,1784,1869,2060,2253,2012,1774,1843,1949
303479,22488,-10332,23345,-9423,729,768,245,-1,-90,-7,323,3791,43,32,855,1784,1869,2060,2253,2012,1774,1843,1949
304480,22532,-10288,23410,-9358,954,1044,245,-23,-84,-553,114,3847,55,36,857,1784,1869,2060,2253,2012,1774,1843,1949
305481,22604,-10220,23475,-9293,597,740,237,-15,-83,-455,123,4025,50,48,854,1784,1869,2060,2253,2012,1774,1843,1949
306482,22644,-10144,23540,-9228,1027,628,242,1,-69,-128,39,3978,42,50,859,1803,1887,2079,2277,2006,1773,1846,1958
307483,22728,-10108,23605,-9163,454,1163,250,-8,-54,-24,87,3799,56,49,857,1803,1887,2079,2277,2006,1773,1846,1958
308484,22784,-10056,23670,-9098,816,979,247,-30,-36,-167,161,3953,58,36,854,1803,1887,2079,2277,2006,1773,1846,1958
309485,22856,-9980,23735,-9033,607,667,240,-57,-19,-260,150,3539,56,37,855,1803,1887,2079,2277,2006,1773,1846,1958
310486,22932,-9920,23800,-8968,544,873,239,-67,-17,-194,257,3825,47,50,859,1803,1887,2079,2277,2006,1773,1846,1958
311487,22996,-9844,23865,-8903,696,660,237,-63,-6,-114,114,3819,51,36,858,1803,1887,2079,2277,2006,1773,1846,1958
312488,23072,-9812,23930,-8838,533,1250,250,-42,4,120,25,4031,42,33,859,1807,1891,2077,2265,2016,1780,1857,1974
313489,23132,-9756,23995,-8773,739,961,262,-35,-8,100,203,3949,54,32,855,1807,1891,2077,2265,2016,1780,1857,1974
314490,23188,-9704,24060,-8708,801,1028,266,-45,0,-193,43,3925,42,48,856,1807,1891,2077,2265,2016,1780,1857,1974
315491,23272,-9620,24125,-8643,428,605,267,-71,12,-69,41,3911,46,38,855,1807,1891,2077,2265,2016,1780,1857,1974
316492,23336,-9572,24190,-8578,679,1076,284,-94,-5,-235,234,4041,42,42,860,1807,1891,2077,2265,2016,1780,1857,1974
317493,23400,-9536,24255,-8513,681,1262,302,-116,-36,-179,230,3987,41,44,856,1777,1859,2047,2223,2035,1787,1855,1977
318494,23464,-9464,24320,-8448,682,804,327,-150,-68,66,303,4037,37,35,853,1777,1859,2047,2223,2035,1787,1855,1977
319495,23540,-9420,24385,-8383,519,1180,341,-187,-89,67,298,4026,46,34,857,1777,1859,2047,2223,2035,1787,1855,1977
320496,23600,-9368,24450,-8318,726,1096,342,-200,-102,-87,279,4097,53,48,856,1777,1859,2047,2223,2035,1787,1855,1977
321497,23664,-9288,24515,-8253,677,728,340,-181,-122,84,415,4034,43,48,855,1777,1859,2047,2223,2035,1787,1855,1977
322498,23716,-9228,24580,-8188,843,985,338,-177,-123,6,407,4092,58,50,858,1777,1859,2047,2223,2035,1787,1855,1977
323499,23788,-9188,24645,-8123,586,1266,335,-179,-121,-44,363,4111,44,46,855,1763,1853,2042,2222,2042,1792,1863,1985
324500,23844,-9136,24710,-8058,797,1131,326,-168,-110,-11,209,4018,45,42,854,1763,1853,2042,2222,2042,1792,1863,1985
325501,23900,-9068,24775,-7993,808,929,325,-163,-84,101,191,4090,45,35,852,1763,1853,2042,2222,2042,1792,1863,1985
326502,23964,-8996,24840,-7928,710,870,322,-181,-55,-187,247,3843,49,42,855,1763,1853,2042,2222,2042,1792,1863,1985
327503,24024,-8940,24905,-7863,766,1082,312,-187,-33,-168,302,3893,53,43,857,1763,1853,2042,2222,2042,1792,1863,1985
328504,24088,-8872,24970,-7798,717,929,294,-204,2,-236,85,3922,42,36,855,1775,1868,2062,2246,2045,1800,1866,1987
329505,24152,-8820,25035,-7733,719,1145,284,-195,32,-136,-10,4003,42,43,856,1775,1868,2062,2246,2045,1800,1866,1987
330506,24232,-8768,25100,-7668,501,1161,275,-195,44,-14,98,3974,41,48,854,1775,1868,2062,2246,2045,1800,1866,1987
331507,24304,-8712,25165,-7603,593,1122,261,-225,53,-65,39,3945,40,41,855,1775,1868,2062,2246,2045,1800,1866,1987
332508,24368,-8648,25230,-7538,694,1024,252,-221,60,97,63,4042,45,34,855,1775,1868,2062,2246,2045,1800,1866,1987
333509,24428,-8588,25295,-7473,751,1081,242,-228,60,181,205,3941,54,45,856,1775,1868,2062,2246,2045,1800,1866,1987
334510,24500,-8516,25360,-7408,592,923,235,-240,57,128,153,4094,54,44,855,1786,1872,2072,2255,2055,1807,1867,1989
335511,24552,-8480,25425,-7343,858,1408,226,-225,36,423,84,4163,47,36,857,1786,1872,2072,2255,2055,1807,1867,1989
336512,24620,-8408,25490,-7278,656,950,248,-187,27,329,-212,4320,52,35,851,1786,1872,2072,2255,2055,1807,1867,1989
337513,24692,-8356,25555,-7213,597,1217,265,-172,13,-44,224,4362,46,49,856,1786,1872,2072,2255,2055,1807,1867,1989
338514,24752,-8292,25620,-7148,753,1068,274,-151,-5,143,170,4185,39,50,855,1786,1872,2072,2255,2055,1807,1867,1989
339515,24816,-8228,25685,-7083,705,1070,289,-114,-15,389,115,4115,46,50,855,1780,1859,2060,2246,2057,1806,1869,1983
340516,24868,-8180,25750,-7018,871,1291,284,-136,-23,197,382,4162,44,42,855,1780,1859,2060,2246,2057,1806,1869,1983
341517,24932,-8116,25815,-6953,722,1093,298,-105,-36,45,338,4399,44,36,852,1780,1859,2060,2246,2057,1806,1869,1983
342518,24996,-8060,25880,-6888,725,1204,302,-103,-30,191,255,4112,53,48,853,1780,1859,2060,2246,2057,1806,1869,1983
343519,25044,-8012,25945,-6823,945,1326,312,-93,-10,-18,344,4267,54,39,853,1780,1859,2060,2246,2057,1806,1869,1983
344520,25108,-7960,26010,-6758,747,1292,307,-67,3,-128,460,4132,44,34,851,1780,1859,2060,2246,2057,1806,1869,1983
345521,25156,-7884,26075,-6693,968,978,296,-66,8,75,415,4055,40,38,852,1784,1868,2062,2260,2040,1796,1865,1974
346522,25224,-7828,26140,-6628,715,1240,283,-66,46,74,342,4163,37,36,854,1784,1868,2062,2260,2040,1796,1865,1974
347523,25284,-7788,26205,-6563,822,1471,291,-56,83,-41,299,4075,39,45,853,1784,1868,2062,2260,2040,1796,1865,1974
348524,25336,-7732,26270,-6498,938,1283,307,-35,101,-149,204,4246,39,34,850,1784,1868,2062,2260,2040,1796,1865,1974
349525,25392,-7672,26335,-6433,899,1239,320,-26,101,-37,149,4169,55,33,850,1784,1868,2062,2260,2040,1796,1865,1974
350526,25464,-7624,26400,-6368,691,1411,341,-2,112,-83,-11,4113,49,40,852,1792,1883,2080,2269,2029,1787,1855,1965
351527,25524,-7564,26465,-6303,847,1267,358,11,122,85,166,4057,49,35,851,1792,1883,2080,2269,2029,1787,1855,1965
352528,25596,-7508,26530,-6238,689,1329,380,-3,105,242,352,3945,61,43,852,1792,1883,2080,2269,2029,1787,1855,1965
353529,25688,-7452,26595,-6173,407,1340,389,-25,107,-51,68,4055,48,33,852,1792,1883,2080,2269,2029,1787,1855,1965
354530,25764,-7392,26660,-6108,593,1297,407,-31,101,131,182,3991,60,46,853,1792,1883,2080,2269,2029,1787,1855,1965
355531,25820,-7328,26725,-6043,854,1248,416,-35,71,65,135,4093,52,41,854,1792,1883,2080,2269,2029,1787,1855,1965
356532,25876,-7276,26790,-5978,866,1415,430,-9,39,143,153,4365,55,47,852,1800,1888,2082,2272,2016,1772,1840,1954
357533,25940,-7216,26855,-5913,767,1321,446,18,20,439,194,4053,41,43,851,1800,1888,2082,2272,2016,1772,1840,1954
358534,26016,-7156,26920,-5848,604,1328,460,7,2,359,420,4165,51,37,852,1800,1888,2082,2272,2016,1772,1840,1954
359535,26076,-7108,26985,-5783,811,1499,461,-16,-23,57,395,4111,43,46,852,1800,1888,2082,2272,2016,1772,1840,1954
360536,26148,-7036,27050,-5718,653,1191,464,-19,-31,116,306,4057,56,44,849,1800,1888,2082,2272,2016,1772,1840,1954
361537,26216,-6968,27115,-5653,699,1238,474,-5,-38,272,393,4210,41,45,854,1803,1885,2074,2264,2004,1766,1842,1956
362538,26272,-6908,27180,-5588,861,1345,481,8,-51,280,477,4318,57,51,853,1803,1885,2074,2264,2004,1766,1842,1956
363539,26340,-6848,27245,-5523,707,1351,496,30,-53,328,357,4128,43,41,851,1803,1885,2074,2264,2004,1766,1842,1956
364540,26412,-6792,27310,-5458,649,1413,498,-10,-43,119,399,3947,57,53,852,1803,1885,2074,2264,2004,1766,1842,1956
365541,26460,-6724,27375,-5393,970,1259,495,-33,-39,-195,411,4139,55,45,852,1803,1885,2074,2264,2004,1766,1842,1956
366542,26520,-6660,27440,-5328,827,1311,503,-64,-40,-74,349,3807,59,38,851,1803,1885,2074,2264,2004,1766,1842,1956
367543,26596,-6604,27505,-5263,613,1422,511,-85,-28,-13,300,4051,44,52,852,1793,1882,2067,2258,2027,1786,1861,1979
368544,26648,-6544,27570,-5198,930,1380,543,-103,-26,36,313,4047,51,43,851,1793,1882,2067,2258,2027,1786,1861,1979
369545,26724,-6484,27635,-5133,617,1386,559,-119,-25,-73,280,4048,42,48,851,1793,1882,2067,2258,2027,1786,1861,1979
370546,26796,-6416,27700,-5068,658,1283,581,-140,-28,21,355,4097,60,45,852,1793,1882,2067,2258,2027,1786,1861,1979
371547,26852,-6348,27765,-5003,870,1279,597,-150,-38,211,384,4019,58,46,853,1793,1882,2067,2258,2027,1786,1861,1979
372548,26936,-6296,27830,-4938,497,1496,620,-172,-49,56,327,4082,54,39,852,1782,1875,2065,2249,2047,1797,1867,1989
373549,27012,-6256,27895,-4873,583,1677,635,-172,-66,106,285,4133,56,34,851,1782,1875,2065,2249,2047,1797,1867,1989
374550,27072,-6204,27960,-4808,790,1544,655,-157,-91,291,204,4017,56,45,850,1782,1875,2065,2249,2047,1797,1867,1989
375551,27144,-6148,28025,-4743,632,1505,670,-147,-95,130,286,4244,41,45,849,1782,1875,2065,2249,2047,1797,1867,1989
376552,27200,-6084,28090,-4678,843,1407,674,-146,-110,-29,352,4153,54,30,849,1782,1875,2065,2249,2047,1797,1867,1989
377553,27276,-6052,28155,-4613,580,1847,671,-151,-137,217,393,4233,40,38,850,1782,1875,2065,2249,2047,1797,1867,1989
378554,27344,-6000,28220,-4548,677,1614,674,-147,-151,308,289,4187,40,43,847,1786,1874,2066,2249,2032,1782,1851,1971
379555,27408,-5956,28285,-4483,728,1740,672,-136,-160,60,383,4039,47,34,848,1786,1874,2066,2249,2032,1782,1851,1971
380556,27472,-5896,28350,-4418,730,1547,652,-131,-169,60,355,3939,37,25,847,1786,1874,2066,2249,2032,1782,1851,1971
381557,27520,-5880,28415,-4353,951,2158,646,-154,-174,282,174,3881,38,24,849,1786,1874,2066,2249,2032,1782,1851,1971
382558,27592,-5832,28480,-4288,642,1778,635,-187,-152,-484,88,4316,55,38,842,1786,1874,2066,2249,2032,1782,1851,1971
383559,27668,-5780,28545,-4223,580,1745,624,-160,-164,-418,423,4214,57,36,846,1789,1875,2067,2255,2023,1782,1850,1965
384560,27728,-5748,28610,-4158,786,2035,604,-133,-153,195,309,4013,46,35,847,1789,1875,2067,2255,2023,1782,1850,1965
385561,27776,-5692,28675,-4093,957,1747,582,-185,-139,-258,282,3954,52,34,844,1789,1875,2067,2255,2023,1782,1850,1965
386562,27828,-5644,28740,-4028,924,1869,602,-197,-141,-571,169,4328,51,26,845,1789,1875,2067,2255,2023,1782,1850,1965
387563,27892,-5592,28805,-3963,775,1835,606,-211,-146,-386,372,4112,42,43,845,1789,1875,2067,2255,2023,1782,1850,1965
388564,27952,-5536,28870,-3898,832,1797,631,-181,-145,67,309,4195,54,29,846,1789,1875,2067,2255,2023,1782,1850,1965
389565,28012,-5480,28935,-3833,838,1808,629,-187,-139,183,443,3897,43,35,846,1780,1862,2060,2244,2052,1804,1868,1992
390566,28064,-5412,29000,-3768,954,1655,634,-195,-133,-296,452,4028,55,49,846,1780,1862,2060,2244,2052,1804,1868,1992
391567,28144,-5364,29065,-3703,587,1927,633,-181,-126,-326,395,3884,50,42,847,1780,1862,2060,2244,2052,1804,1868,1992
392568,28216,-5296,29130,-3638,678,1673,637,-206,-120,-269,204,3792,48,45,846,1780,1862,2060,2244,2052,1804,1868,1992
393569,28292,-5240,29195,-3573,615,1835,648,-220,-127,-356,335,4172,55,41,846,1780,1862,2060,2244,2052,1804,1868,1992
394570,28356,-5164,29260,-3508,767,1573,660,-209,-126,-345,373,4001,48,52,847,1767,1856,2048,2234,2062,1807,1871,1996
395571,28416,-5092,29325,-3443,823,1614,665,-210,-129,206,483,3730,45,41,849,1767,1856,2048,2234,2062,1807,1871,1996
396572,28500,-5036,29390,-3378,500,1826,647,-246,-135,-46,623,3998,46,55,848,1767,1856,2048,2234,2062,1807,1871,1996
397573,28568,-4956,29455,-3313,697,1508,634,-260,-146,-284,751,3864,60,53,849,1767,1856,2048,2234,2062,1807,1871,1996
398574,28636,-4896,29520,-3248,694,1765,611,-222,-156,-134,545,4225,54,58,850,1767,1856,2048,2234,2062,1807,1871,1996
399575,28724,-4816,29585,-3183,416,1498,598,-217,-161,12,371,3943,55,56,847,1767,1856,2048,2234,2062,1807,1871,1996
400576,28788,-4740,29650,-3118,718,1534,592,-255,-187,-255,276,4368,49,54,851,1767,1855,2047,2223,2038,1784,1852,1978
401577,28860,-4664,29715,-3053,609,1522,609,-244,-204,-496,233,4713,37,55,851,1767,1855,2047,2223,2038,1784,1852,1978
402578,28892,-4600,29780,-2988,1149,1673,624,-244,-211,241,528,3833,51,54,850,1767,1855,2047,2223,2038,1784,1852,1978
403579,28972,-4524,29845,-2923,532,1511,615,-286,-204,-158,551,4222,53,46,847,1767,1855,2047,2223,2038,1784,1852,1978
404580,29032,-4472,29910,-2858,788,1828,595,-306,-192,-369,534,3719,40,42,850,1767,1855,2047,2223,2038,1784,1852,1978
405581,29100,-4404,29975,-2793,685,1624,579,-340,-180,-492,427,3851,50,47,847,1768,1858,2052,2228,2028,1780,1850,1978
406582,29168,-4332,30040,-2728,682,1567,565,-361,-168,-303,516,4061,47,51,849,1768,1858,2052,2228,2028,1780,1850,1978
407583,29228,-4268,30105,-2663,788,1669,563,-350,-162,-184,495,3925,48,35,849,1768,1858,2052,2228,2028,1780,1850,1978
408584,29280,-4196,30170,-2598,904,1560,565,-331,-129,-300,296,4021,56,35,848,1768,1858,2052,2228,2028,1780,1850,1978
409585,29348,-4144,30235,-2533,701,1827,584,-383,-120,-346,452,3675,47,48,848,1768,1858,2052,2228,2028,1780,1850,1978
410588,29444,-4096,30300,-2468,313,1898,588,-473,-109,-756,246,3768,55,41,846,1768,1858,2052,2228,2028,1780,1850,1978
411587,29516,-4028,30365,-2403,605,1645,600,-552,-80,-237,530,3751,43,44,847,1780,1869,2065,2244,2040,1791,1859,1985
412588,29588,-3968,30430,-2338,597,1752,595,-623,-66,-453,517,3779,51,48,849,1780,1869,2065,2244,2040,1791,1859,1985
413589,29632,-3900,30495,-2273,973,1649,582,-661,-91,-401,648,3996,50,47,848,1780,1869,2065,2244,2040,1791,1859,1985
414590,29704,-3848,30560,-2208,614,1865,585,-627,-109,-339,406,4572,53,51,847,1780,1869,2065,2244,2040,1791,1859,1985
415591,29772,-3792,30625,-2143,662,1826,607,-561,-137,309,828,4090,53,47,846,1780,1869,2065,2244,2040,1791,1859,1985
416592,29820,-3728,30690,-2078,933,1729,606,-534,-175,696,827,3816,44,39,847,1787,1873,2062,2238,2039,1785,1859,1987
417593,29888,-3656,30755,-2013,679,1621,594,-547,-193,128,797,3991,40,55,846,1787,1873,2062,2238,2039,1785,1859,1987
418594,29948,-3596,30820,-1948,786,1777,566,-578,-189,-271,919,3658,36,39,849,1787,1873,2062,2238,2039,1785,1859,1987
419595,30000,-3524,30885,-1883,902,1620,528,-591,-196,-205,666,4076,50,39,847,1787,1873,2062,2238,2039,1785,1859,1987
420596,30076,-3456,30950,-1818,588,1667,534,-552,-159,-336,569,4514,56,54,847,1787,1873,2062,2238,2039,1785,1859,1987
421597,30128,-3392,31015,-1753,905,1718,537,-556,-126,-172,678,3774,42,39,849,1787,1873,2062,2238,2039,1785,1859,1987
422598,30196,-3340,31080,-1688,702,1885,520,-621,-108,-647,465,3967,37,54,847,1783,1867,2054,2229,2037,1785,1853,1979
423599,30248,-3268,31145,-1623,917,1627,504,-683,-112,-586,629,4071,51,39,846,1783,1867,2054,2229,2037,1785,1853,1979
424600,30308,-3204,31210,-1558,825,1729,517,-712,-113,-663,247,4144,53,46,847,1783,1867,2054,2229,2037,1785,1853,1979
425601,30372,-3120,31275,-1493,776,1457,541,-664,-94,-48,544,4340,43,49,847,1783,1867,2054,2229,2037,1785,1853,1979
426602,30444,-3072,31340,-1428,667,1927,549,-630,-68,178,478,3659,53,47,849,1783,1867,2054,2229,2037,1785,1853,1979
427603,30504,-3008,31405,-1363,824,1730,525,-675,-77,-413,651,3641,54,47,846,1757,1844,2043,2213,2048,1796,1854,1987
428604,30564,-2928,31470,-1298,830,1512,502,-703,-86,-853,608,4174,40,42,846,1757,1844,2043,2213,2048,1796,1854,1987
429605,30616,-2864,31535,-1233,946,1713,501,-682,-81,-97,747,3846,57,49,849,1757,1844,2043,2213,2048,1796,1854,1987
430606,30696,-2804,31600,-1168,579,1771,506,-656,-68,187,764,3735,55,45,847,1757,1844,2043,2213,2048,1796,1854,1987
431607,30740,-2720,31665,-1103,1055,1447,489,-671,-70,-51,847,3517,45,37,847,1757,1844,2043,2213,2048,1796,1854,1987
432608,30800,-2660,31730,-1038,861,1754,478,-737,-83,-500,691,3460,44,47,847,1757,1844,2043,2213,2048,1796,1854,1987
433609,30852,-2592,31795,-973,978,1652,482,-811,-94,-628,865,4238,57,56,847,1757,1843,2047,2221,2054,1802,1857,1985
434610,30916,-2516,31860,-908,829,1538,500,-786,-84,154,777,3816,50,45,846,1757,1843,2047,2221,2054,1802,1857,1985
435611,31004,-2436,31925,-843,501,1471,501,-776,-48,529,844,3591,51,51,848,1757,1843,2047,2221,2054,1802,1857,1985
436612,31072,-2380,31990,-778,748,1782,470,-790,-16,-200,890,3549,64,41,850,1757,1843,2047,2221,2054,1802,1857,1985
437613,31152,-2312,32055,-713,580,1629,436,-765,9,-301,779,3648,61,48,849,1757,1843,2047,2221,2054,1802,1857,1985
438614,31252,-2248,32120,-648,287,1682,415,-730,22,224,938,3963,46,54,849,1757,1843,2043,2214,2035,1782,1843,1971
439615,31312,-2172,32185,-583,794,1518,393,-686,53,616,998,3890,57,38,850,1757,1843,2043,2214,2035,1782,1843,1971
440616,31372,-2108,32250,-518,800,1670,356,-629,73,528,998,3735,49,40,850,1757,1843,2043,2214,2035,1782,1843,1971
441617,31452,-2020,32315,-453,532,1343,305,-577,77,-307,973,3968,54,39,848,1757,1843,2043,2214,2035,1782,1843,1971
442618,31532,-1968,32380,-388,515,1809,259,-502,81,-104,881,3820,49,52,851,1757,1843,2043,2214,2035,1782,1843,1971
443619,31584,-1904,32445,-323,881,1661,214,-483,84,77,891,3734,55,36,850,1757,1843,2043,2214,2035,1782,1843,1971
444620,31652,-1836,32510,-258,677,1608,188,-508,111,-85,935,3925,55,48,846,1752,1834,2030,2195,2036,1781,1840,1972
445621,31720,-1764,32575,-193,674,1550,175,-535,118,-284,866,3627,57,42,848,1752,1834,2030,2195,2036,1781,1840,1972
446622,31784,-1704,32640,-128,725,1707,164,-589,124,-476,825,3568,39,37,850,1752,1834,2030,2195,2036,1781,1840,1972
447623,31848,-1640,32705,-63,727,1659,146,-615,131,-444,788,3682,39,41,849,1752,1834,2030,2195,2036,1781,1840,1972
448624,31924,-1568,32904,136,1415,2402,117,-628,124,-362,780,3479,39,35,847,1752,1834,2030,2195,2036,1781,1840,1972
449625,31968,-1512,32969,201,1840,2613,96,-598,133,-253,870,3956,54,48,840,1720,1804,2016,2176,2080,1817,1859,2002
450626,32044,-1432,33034,266,1427,2295,88,-560,159,19,833,3591,72,37,832,1720,1804,2016,2176,2080,1817,1859,2002
451627,32148,-1336,33099,331,1030,2058,87,-580,182,52,836,3557,78,57,832,1720,1804,2016,2176,2080,1817,1859,2002
452628,32220,-1268,33164,396,1422,2405,101,-584,207,-214,706,3789,76,54,839,1720,1804,2016,2176,2080,1817,1859,2002
453629,32320,-1180,33229,461,1029,2128,109,-565,210,-78,784,3531,65,55,839,1720,1804,2016,2176,2080,1817,1859,2002
454630,32420,-1084,33294,526,987,1991,113,-549,225,262,1270,3672,80,68,839,1720,1804,2016,2176,2080,1817,1859,2002
455631,32516,-980,33359,591,1000,1843,102,-524,254,217,1009,3720,68,72,842,1709,1798,2016,2173,2095,1827,1871,2010
456632,32616,-876,33424,656,907,1797,92,-489,277,132,1416,3705,69,67,845,1709,1798,2016,2173,2095,1827,1871,2010
457633,32716,-780,33489,721,865,1859,64,-499,297,208,1414,3452,82,64,846,1709,1798,2016,2173,2095,1827,1871,2010
458635,32820,-692,33554,786,767,1932,30,-519,301,174,1323,3644,81,57,846,1709,1798,2016,2173,2095,1827,1871,2010
459635,32912,-600,33619,851,885,1849,6,-519,322,-17,1522,3877,67,69,846,1709,1798,2016,2173,2095,1827,1871,2010
460636,33020,-488,33684,916,633,1542,-15,-510,338,198,1593,3723,80,67,846,1736,1824,2032,2200,2043,1786,1843,1970
461637,33124,-412,33749,981,635,1980,-51,-570,365,40,1412,3865,68,60,847,1736,1824,2032,2200,2043,1786,1843,1970
462638,33216,-292,33814,1046,752,1363,-50,-614,384,-4,1698,4044,75,57,847,1736,1824,2032,2200,2043,1786,1843,1970
463639,33356,-204,33879,1111,61,1736,-49,-631,390,187,1591,3897,61,62,849,1736,1824,2032,2200,2043,1786,1843,1970
464640,33444,-120,33944,1176,684,1763,-58,-664,387,395,1172,3746,56,51,852,1736,1824,2032,2200,2043,1786,1843,1970
465641,33556,-12,34009,1241,326,1411,-71,-710,383,-21,1347,4214,67,66,850,1764,1855,2053,2219,2013,1761,1823,1963
466642,33644,64,34074,1306,598,1798,-81,-749,387,-331,1355,3979,55,57,851,1764,1855,2053,2219,2013,1761,1823,1963
467643,33720,148,34139,1371,735,1675,-84,-768,378,123,1137,3912,71,56,851,1764,1855,2053,2219,2013,1761,1823,1963
468644,33812,232,34204,1436,502,1652,-76,-807,387,261,1479,3982,61,59,848,1764,1855,2053,2219,2013,1761,1823,1963
469645,33892,316,34269,1501,634,1629,-64,-843,374,132,1537,3782,54,49,850,1764,1855,2053,2219,2013,1761,1823,1963
470646,33972,384,34334,1566,615,1826,-58,-881,352,11,1248,3859,51,64,850,1764,1855,2053,2219,2013,1761,1823,1963
471647,34052,480,34399,1631,598,1439,-42,-879,357,-13,1473,4057,58,55,848,1787,1887,2092,2250,2034,1776,1840,1990
472648,34136,560,34464,1696,525,1621,-51,-884,372,265,1419,3549,51,54,850,1787,1887,2092,2250,2034,1776,1840,1990
473649,34208,644,34529,1761,666,1548,-65,-887,383,161,1339,4069,57,46,851,1787,1887,2092,2250,2034,1776,1840,1990
474650,34288,728,34594,1826,548,1526,-71,-906,400,76,1558,3623,54,55,850,1787,1887,2092,2250,2034,1776,1840,1990
475651,34368,808,34659,1891,530,1558,-73,-908,409,89,1655,3876,50,48,850,1787,1887,2092,2250,2034,1776,1840,1990
476652,34440,872,34724,1956,621,1759,-84,-917,414,342,1621,3765,61,45,851,1801,1897,2097,2254,2045,1790,1852,1992
477653,34512,948,34789,2021,613,1596,-86,-935,415,322,1675,3872,45,46,850,1801,1897,2097,2254,2045,1790,1852,1992
478654,34568,1028,34854,2086,824,1528,-85,-942,436,-65,1644,3893,64,44,847,1801,1897,2097,2254,2045,1790,1852,1992
479655,34644,1108,34919,2151,561,1511,-98,-930,454,50,1775,3798,48,51,849,1801,1897,2097,2254,2045,1790,1852,1992
480656,34728,1184,34984,2216,438,1547,-106,-952,471,308,1648,3691,44,55,850,1801,1897,2097,2254,2045,1790,1852,1992
481657,34808,1256,35049,2281,470,1589,-121,-990,466,308,1554,3819,57,53,851,1801,1897,2097,2254,2045,1790,1852,1992
482658,34872,1336,35114,2346,671,1471,-118,-1010,484,-137,1593,4151,42,45,852,1767,1851,2051,2215,2047,1799,1847,1978
483659,34944,1404,35179,2411,562,1618,-110,-990,486,180,1620,3933,53,57,851,1767,1851,2051,2215,2047,1799,1847,1978
484660,35016,1496,35244,2476,554,1286,-110,-1002,474,347,1575,4065,42,43,851,1767,1851,2051,2215,2047,1799,1847,1978
485661,35092,1552,35309,2541,490,1747,-104,-997,475,341,1510,4228,44,51,850,1767,1851,2051,2215,2047,1799,1847,1978
486662,35156,1636,35374,2606,642,1374,-106,-983,482,166,1657,3971,59,53,853,1767,1851,2051,2215,2047,1799,1847,1978
487663,35228,1716,35439,2671,533,1406,-116,-949,472,316,1511,4089,53,49,847,1725,1806,2020,2184,2052,1800,1841,1974
488664,35292,1772,35504,2736,634,1717,-128,-919,472,440,1356,3983,41,42,852,1725,1806,2020,2184,2052,1800,1841,1974
489665,35356,1864,35569,2801,636,1234,-142,-906,477,167,1288,3895,42,45,852,1725,1806,2020,2184,2052,1800,1841,1974
490666,35436,1936,35634,2866,417,1477,-163,-866,476,-79,1295,4014,48,50,849,1725,1806,2020,2184,2052,1800,1841,1974
491667,35512,2004,35699,2931,455,1523,-188,-816,495,165,1196,3765,48,56,854,1725,1806,2020,2184,2052,1800,1841,1974
492668,35584,2072,35764,2996,496,1519,-225,-779,512,400,1219,3709,51,47,852,1725,1806,2020,2184,2052,1800,1841,1974
493669,35652,2144,35829,3061,543,1462,-255,-749,520,129,1326,3639,54,52,851,1729,1818,2040,2202,2057,1805,1847,1983
494670,35712,2224,35894,3126,649,1344,-291,-707,540,-125,1162,3591,55,59,851,1729,1818,2040,2202,2057,1805,1847,1983
495671,35780,2308,35959,3191,545,1271,-327,-675,552,201,1302,3434,58,62,851,1729,1818,2040,2202,2057,1805,1847,1983
496672,35840,2376,36024,3256,651,1468,-366,-638,561,109,1309,3577,43,59,852,1729,1818,2040,2202,2057,1805,1847,1983
497673,35920,2476,36089,3321,383,1025,-406,-594,575,151,1215,3488,58,65,854,1729,1818,2040,2202,2057,1805,1847,1983
498674,36012,2560,36154,3386,200,1203,-444,-554,593,70,1197,3584,46,49,851,1747,1839,2057,2217,2073,1816,1859,1995
499675,36084,2672,36219,3451,441,795,-459,-528,634,189,1281,3292,43,48,857,1747,1839,2057,2217,2073,1816,1859,1995
500676,36148,2744,36284,3516,543,1287,-476,-518,650,302,1308,3317,47,60,856,1747,1839,2057,2217,2073,1816,1859,1995
501677,36212,2832,36349,3581,544,1059,-512,-541,649,-175,1267,3391,48,48,859,1747,1839,2057,2217,2073,1816,1859,1995
502678,36280,2912,36414,3646,490,1141,-521,-503,644,-39,1297,3734,45,49,854,1747,1839,2057,2217,2073,1816,1859,1995
503679,36352,2992,36479,3711,432,1123,-540,-473,648,493,1293,3644,44,56,856,1747,1839,2057,2217,2073,1816,1859,1995
504680,36448,3064,36544,3776,94,1215,-551,-444,657,716,1448,3644,47,43,856,1723,1810,2020,2174,2069,1809,1850,1981
505681,36516,3140,36609,3841,440,1152,-564,-443,668,397,1311,3395,55,51,856,1723,1810,2020,2174,2069,1809,1850,1981
506682,36588,3232,36674,3906,381,919,-563,-443,659,186,1283,3602,49,52,857,1723,1810,2020,2174,2069,1809,1850,1981
507683,36672,3300,36739,3971,208,1216,-573,-440,658,329,1266,3474,58,59,856,1723,1810,2020,2174,2069,1809,1850,1981
508684,36728,3376,36804,4036,569,1102,-583,-406,675,555,1109,3553,51,49,858,1723,1810,2020,2174,2069,1809,1850,1981
509685,36828,3448,36869,4101,-23,1145,-606,-377,686,745,1255,3428,39,61,856,1693,1783,1988,2144,2040,1782,1828,1957
510686,36900,3520,36934,4166,318,1136,-623,-351,700,554,1272,3501,50,46,856,1693,1783,1988,2144,2040,1782,1828,1957
511687,36980,3596,36999,4231,200,1073,-633,-324,708,378,1122,3356,37,56,858,1693,1783,1988,2144,2040,1782,1828,1957
512688,37036,3668,37064,4296,511,1114,-652,-310,719,505,1188,3356,54,56,855,1693,1783,1988,2144,2040,1782,1828,1957
513689,37092,3772,37129,4361,522,666,-671,-313,729,416,1169,3157,50,50,857,1693,1783,1988,2144,2040,1782,1828,1957
514690,37164,3872,37194,4426,313,675,-697,-315,740,270,830,3342,47,48,856,1693,1783,1988,2144,2040,1782,1828,1957
515691,37256,3952,37259,4491,31,906,-704,-292,778,299,928,3371,41,48,860,1705,1800,2004,2165,2014,1766,1818,1944
516692,37308,4044,37324,4556,547,724,-715,-296,801,466,918,2783,54,57,860,1705,1800,2004,2165,2014,1766,1818,1944
517693,37392,4128,37389,4621,124,800,-725,-319,806,228,693,3106,50,63,860,1705,1800,2004,2165,2014,1766,1818,1944
518694,37460,4220,37454,4686,320,668,-737,-342,830,-34,738,3257,40,47,859,1705,1800,2004,2165,2014,1766,1818,1944
519695,37524,4300,37519,4751,370,800,-756,-354,852,232,801,2799,47,48,860,1705,1800,2004,2165,2014,1766,1818,1944
520696,37612,4376,37584,4816,42,837,-767,-354,865,474,616,3175,51,58,860,1734,1831,2034,2195,2008,1763,1821,1943
521697,37688,4460,37649,4881,179,713,-766,-356,883,443,884,3105,41,48,859,1734,1831,2034,2195,2008,1763,1821,1943
522698,37744,4552,37714,4946,440,580,-760,-360,894,270,874,2834,49,62,861,1734,1831,2034,2195,2008,1763,1821,1943
523699,37812,4628,37779,5011,286,767,-760,-351,885,462,751,3230,57,61,861,1734,1831,2034,2195,2008,1763,1821,1943
524700,37892,4716,37844,5076,118,589,-764,-342,887,544,874,3043,41,53,860,1734,1831,2034,2195,2008,1763,1821,1943
525701,37976,4800,37909,5141,45,617,-765,-329,893,601,806,2978,40,59,860,1734,1831,2034,2195,2008,1763,1821,1943
526702,38072,4860,37974,5206,-143,923,-771,-300,902,647,723,3257,38,47,863,1749,1844,2035,2198,2005,1757,1821,1937
527703,38140,4956,38039,5271,203,435,-764,-285,902,538,897,3122,48,59,863,1749,1844,2035,2198,2005,1757,1821,1937
528704,38220,5040,38104,5336,35,562,-758,-271,889,559,756,3194,57,55,853,1749,1844,2035,2198,2005,1757,1821,1937
529705,38292,5120,38169,5401,126,594,-744,-267,889,583,746,3304,43,58,861,1749,1844,2035,2198,2005,1757,1821,1937
530706,38376,5212,38234,5466,-47,411,-708,-262,914,620,790,3140,38,57,862,1749,1844,2035,2198,2005,1757,1821,1937
531707,38468,5292,38299,5531,-180,542,-688,-265,911,766,726,3153,54,45,862,1737,1822,2005,2182,1989,1749,1811,1915
532708,38548,5380,38364,5596,-48,414,-678,-290,912,450,519,3286,39,56,864,1737,1822,2005,2182,1989,1749,1811,1915
533709,38660,5448,38429,5661,-505,661,-660,-302,929,275,606,3289,49,60,853,1737,1822,2005,2182,1989,1749,1811,1915
534710,38768,5516,38494,5726,-508,658,-644,-315,944,403,475,3199,37,51,864,1737,1822,2005,2182,1989,1749,1811,1915
535711,38872,5644,38559,5791,-506,-169,-623,-308,971,466,384,3364,42,51,862,1737,1822,2005,2182,1989,1749,1811,1915
536712,38980,5708,38624,5856,-608,632,-607,-322,999,421,391,3274,39,44,858,1737,1822,2005,2182,1989,1749,1811,1915
537713,39048,5796,38689,5921,-112,304,-596,-335,1000,275,552,3087,35,47,865,1712,1804,2004,2181,1973,1740,1804,1907
538714,39116,5872,38754,5986,-116,441,-584,-339,989,285,622,3322,47,58,862,1712,1804,2004,2181,1973,1740,1804,1907
539715,39192,5952,38819,6051,-230,372,-566,-317,990,462,433,3222,39,60,860,1712,1804,2004,2181,1973,1740,1804,1907
540716,39256,6032,38884,6116,-79,354,-552,-294,988,583,513,3067,36,48,859,1712,1804,2004,2181,1973,1740,1804,1907
541717,39324,6116,38949,6181,-132,281,-541,-284,972,438,513,2959,51,56,864,1712,1804,2004,2181,1973,1740,1804,1907
542718,39396,6196,39014,6246,-191,313,-532,-254,963,288,227,3146,50,60,862,1743,1840,2022,2199,1972,1737,1809,1916
543719,39464,6280,39079,6311,-144,239,-524,-209,977,447,210,3031,46,47,858,1743,1840,2022,2199,1972,1737,1809,1916
544720,39524,6376,39144,6376,-38,52,-525,-167,978,544,179,3034,51,60,854,1743,1840,2022,2199,1972,1737,1809,1916
545721,39592,6472,39209,6441,-143,14,-518,-132,979,470,220,3047,45,47,857,1743,1840,2022,2199,1972,1737,1809,1916
546722,39664,6556,39274,6506,-202,140,-509,-92,981,341,37,3029,34,56,864,1743,1840,2022,2199,1972,1737,1809,1916
547723,39724,6676,39339,6571,-45,-377,-502,-58,975,342,33,3193,39,46,857,1743,1840,2022,2199,1972,1737,1809,1916
548724,39804,6816,39404,6636,-314,-718,-489,-31,968,380,146,3178,49,42,853,1737,1831,2030,2208,1982,1750,1810,1913
549725,39860,6952,39469,6701,-3,-755,-461,-13,974,425,230,3105,37,48,864,1737,1831,2030,2208,1982,1750,1810,1913
550726,39916,7024,39534,6766,8,37,-436,-16,977,242,108,3206,49,47,860,1737,1831,2030,2208,1982,1750,1810,1913
551727,39992,7076,39599,6831,-256,302,-423,-55,934,-72,6,3427,42,41,860,1737,1831,2030,2208,1982,1750,1810,1913
552728,40048,7156,39664,6896,5,-67,-414,-79,904,51,16,3404,39,42,865,1737,1831,2030,2208,1982,1750,1810,1913
553729,40120,7228,39729,6961,-204,25,-411,-68,915,444,281,3444,53,39,864,1750,1835,2021,2212,1984,1758,1818,1910
554730,40184,7268,39794,7026,-103,455,-404,-55,917,519,252,3075,38,41,865,1750,1835,2021,2212,1984,1758,1818,1910
555731,40248,7340,39859,7091,-101,47,-410,-44,887,381,114,3434,46,37,854,1750,1835,2021,2212,1984,1758,1818,1910
556732,40316,7416,39924,7156,-155,-17,-412,-29,851,262,161,3389,44,45,859,1750,1835,2021,2212,1984,1758,1818,1910
557733,40404,7488,39989,7221,-433,25,-416,7,839,360,27,3318,50,41,861,1750,1835,2021,2212,1984,1758,1818,1910
558734,40460,7564,40054,7286,-23,-39,-423,66,833,780,4,3462,52,54,857,1750,1835,2021,2212,1984,1758,1818,1910
559735,40524,7640,40119,7351,-122,-52,-430,91,822,481,-28,3216,40,51,866,1726,1802,2019,2217,1993,1771,1823,1915
560736,40584,7708,40184,7416,-66,44,-422,78,812,78,-246,3314,38,43,865,1726,1802,2019,2217,1993,1771,1823,1915
561737,40668,7772,40249,7481,-389,95,-420,77,811,131,-337,3515,52,56,860,1726,1802,2019,2217,1993,1771,1823,1915
562738,40736,7848,40314,7546,-193,-69,-412,79,803,325,-230,3344,43,41,865,1726,1802,2019,2217,1993,1771,1823,1915
563739,40812,7932,40379,7611,-306,-192,-398,82,785,384,-233,3439,40,52,864,1726,1802,2019,2217,1993,1771,1823,1915
564740,40892,7996,40444,7676,-375,59,-395,77,774,-21,-383,3409,42,50,853,1745,1888,2048,2213,2014,1919,1846,1949
565741,40980,8084,40509,7741,-503,-269,-394,93,756,-43,-427,3688,54,45,865,1745,1888,2048,2213,2014,1919,1846,1949
566742,41056,8176,40574,7806,-367,-352,-400,83,742,36,-421,3300,57,52,865,1745,1888,2048,2213,2014,1919,1846,1949
567743,41116,8268,40639,7871,-161,-385,-377,56,766,-20,-526,3729,56,43,865,1745,1888,2048,2213,2014,1919,1846,1949
568744,41188,8328,40704,7936,-319,21,-373,7,766,-17,-368,3277,52,49,864,1745,1888,2048,2213,2014,1919,1846,1949
569745,41268,8396,40769,8001,-438,-84,-378,-33,735,-131,-557,3461,48,55,864,1745,1888,2048,2213,2014,1919,1846,1949
570746,41368,8476,40834,8066,-731,-252,-413,-25,717,86,-543,3547,47,42,866,1758,1854,2022,2230,2022,1790,1856,1961
571747,41440,8552,40899,8131,-390,-215,-442,7,707,406,-364,3547,54,42,865,1758,1854,2022,2230,2022,1790,1856,1961
572748,41520,8616,40964,8196,-508,-64,-475,-4,698,173,-296,3267,60,48,864,1758,1854,2022,2230,2022,1790,1856,1961
573749,41588,8688,41029,8261,-362,-173,-475,-28,663,-82,-288,3709,55,58,856,1758,1854,2022,2230,2022,1790,1856,1961
574750,41696,8752,41094,8326,-915,-72,-475,-46,636,102,-437,3744,61,45,865,1758,1854,2022,2230,2022,1790,1856,1961
575751,41764,8840,41159,8391,-419,-401,-480,-51,615,379,-494,3649,46,48,865,1780,1871,2051,2244,2025,1791,1862,1961
576752,41872,8920,41224,8456,-972,-319,-488,-47,587,443,-336,3661,61,43,865,1780,1871,2051,2244,2025,1791,1862,1961
577753,41968,8988,41289,8521,-859,-173,-500,-47,563,-28,-546,3772,55,49,860,1780,1871,2051,2244,2025,1791,1862,1961
578754,42060,9068,41354,8586,-842,-341,-532,-45,550,175,-743,3954,50,41,864,1780,1871,2051,2244,2025,1791,1862,1961
579755,42160,9144,41419,8651,-986,-304,-555,-32,555,300,-643,3881,50,44,865,1780,1871,2051,2244,2025,1791,1862,1961
580756,42244,9208,41484,8716,-809,-153,-576,-7,558,175,-612,4006,65,50,863,1780,1871,2051,2244,2025,1791,1862,1961
581757,42336,9292,41549,8781,-942,-427,-597,-10,574,-30,-865,3876,50,46,861,1779,1869,2046,2240,2033,1808,1872,1969
582758,42424,9364,41614,8846,-921,-286,-612,-41,582,-99,-830,3944,67,42,865,1779,1869,2046,2240,2033,1808,1872,1969
583759,42528,9436,41679,8911,-1169,-294,-620,-81,588,-258,-882,3908,52,45,864,1779,1869,2046,2240,2033,1808,1872,1969
584760,42616,9500,41744,8976,-997,-193,-629,-116,592,-202,-868,3932,52,42,864,1779,1869,2046,2240,2033,1808,1872,1969
585764,42724,9588,41809,9041,-1300,-521,-619,-144,605,-67,-1031,3751,51,43,864,1779,1869,2046,2240,2033,1808,1872,1969
586762,42816,9656,41874,9106,-1133,-276,-603,-194,594,-206,-923,3669,50,45,865,1763,1845,2041,2243,2066,1837,1881,1986
587763,42916,9732,41939,9171,-1276,-389,-584,-262,556,-232,-967,3767,52,56,863,1763,1845,2041,2243,2066,1837,1881,1986
588764,43008,9812,42004,9236,-1210,-458,-582,-353,530,-21,-892,3657,63,42,864,1763,1845,2041,2243,2066,1837,1881,1986
589765,43116,9884,42069,9301,-1463,-366,-592,-413,501,-177,-894,3674,69,51,863,1763,1845,2041,2243,2066,1837,1881,1986
590766,43212,9952,42134,9366,-1351,-321,-600,-426,467,-458,-795,3733,59,41,863,1763,1845,2041,2243,2066,1837,1881,1986
591767,43324,10028,42199,9431,-1609,-434,-607,-439,424,-230,-635,3830,63,45,864,1763,1845,2041,2243,2066,1837,1881,1986
592768,43436,10096,42264,9496,-1666,-338,-610,-459,391,372,-908,3621,71,55,864,1774,1860,2056,2244,2068,1832,1891,1986
593769,43544,10164,42329,9561,-1670,-342,-594,-556,379,529,-915,3463,70,41,863,1774,1860,2056,2244,2068,1832,1891,1986
594770,43680,10232,42394,9626,-2106,-345,-573,-625,339,43,-965,3881,71,40,864,1774,1860,2056,2244,2068,1832,1891,1986
595771,43788,10292,42459,9691,-1810,-240,-560,-534,328,-105,-1213,4194,59,43,864,1774,1860,2056,2244,2068,1832,1891,1986
596772,43904,10344,42524,9756,-1972,-124,-596,-408,373,730,-1271,4370,60,52,864,1774,1860,2056,2244,2068,1832,1891,1986
597773,44016,10416,42589,9821,-1980,-383,-667,-284,425,849,-1305,4198,65,39,863,1795,1893,2066,2271,2013,1783,1865,1952
598774,44124,10484,42654,9886,-1983,-336,-750,-218,471,259,-1102,4437,81,41,864,1795,1893,2066,2271,2013,1783,1865,1952
599775,44252,10540,42719,9951,-2311,-176,-831,-198,510,43,-1068,4475,63,40,864,1795,1893,2066,2271,2013,1783,1865,1952
600776,44352,10596,42784,10016,-2005,-166,-898,-276,546,73,-1072,3827,65,44,864,1795,1893,2066,2271,2013,1783,1865,1952
601777,44484,10660,42849,10081,-2486,-264,-927,-427,566,-634,-1149,4205,78,40,865,1795,1893,2066,2271,2013,1783,1865,1952
602778,44608,10728,42914,10146,-2459,-318,-924,-548,593,-374,-1191,4489,78,51,861,1795,1893,2066,2271,2013,1783,1865,1952
603779,44692,10804,42979,10211,-1983,-432,-906,-676,593,-262,-1188,3847,78,46,865,1810,1894,2112,2285,2035,1818,1887,1983
604780,44808,10872,43044,10276,-2446,-336,-907,-789,558,-652,-1453,4261,78,48,864,1810,1894,2112,2285,2035,1818,1887,1983
605781,44920,10940,43109,10341,-2454,-340,-929,-828,525,-419,-1688,4602,80,34,864,1810,1894,2112,2285,2035,1818,1887,1983
606782,45044,11000,43174,10406,-2676,-234,-935,-826,503,62,-1471,4080,70,36,856,1810,1894,2112,2285,2035,1818,1887,1983
607783,45164,11056,43239,10471,-2694,-173,-921,-799,481,488,-1833,4645,67,48,864,1810,1894,2112,2285,2035,1818,1887,1983
608784,45276,11092,43304,10536,-2653,112,-871,-709,446,1050,-1832,4855,79,32,865,1792,1877,2077,2280,2137,1894,1952,2052
609785,45396,11140,43369,10601,-2821,-17,-771,-583,380,1033,-1788,5002,74,39,865,1792,1877,2077,2280,2137,1894,1952,2052
610786,45536,11224,43434,10666,-3162,-491,-668,-399,312,895,-1730,5282,86,42,862,1792,1877,2077,2280,2137,1894,1952,2052
611787,45648,11264,43499,10731,-2871,90,-566,-293,257,1366,-1312,5239,68,43,866,1792,1877,2077,2280,2137,1894,1952,2052
612788,45760,11308,43564,10796,-2929,65,-484,-343,228,1119,-1179,4675,81,39,863,1792,1877,2077,2280,2137,1894,1952,2052
613789,45888,11380,43629,10861,-3207,-294,-459,-339,220,-213,-1381,4554,64,35,865,1792,1877,2077,2280,2137,1894,1952,2052
614790,46024,11436,43694,10926,-3395,-83,-448,-321,295,-82,-1344,5085,71,43,863,1814,1900,2102,2345,2112,1877,1939,1989
615791,46140,11504,43759,10991,-3208,-237,-497,-334,392,-141,-1291,4214,78,36,864,1814,1900,2102,2345,2112,1877,1939,1989
616792,46244,11556,43824,11056,-3107,-21,-618,-310,438,-472,-587,4108,63,46,865,1814,1900,2102,2345,2112,1877,1939,1989
617793,46344,11624,43889,11121,-3099,-225,-775,-244,508,-497,-1197,4323,75,41,865,1814,1900,2102,2345,2112,1877,1939,1989
618794,46480,11668,43954,11186,-3637,100,-952,-258,567,682,-1098,3526,78,44,865,1814,1900,2102,2345,2112,1877,1939,1989
619795,46588,11736,44019,11251,-3340,-204,-1063,-184,575,797,-1138,5257,79,39,865,1903,1979,2159,2459,1994,1807,1851,1918
620796,46708,11792,44084,11316,-3559,-43,-1097,-95,595,470,-1952,5220,79,38,865,1903,1979,2159,2459,1994,1807,1851,1918
621797,46820,11848,44149,11381,-3517,-32,-1037,-73,588,926,-2217,5127,74,49,865,1903,1979,2159,2459,1994,1807,1851,1918
622798,46936,11908,44214,11446,-3630,-75,-883,-14,555,1031,-2691,6350,68,46,865,1903,1979,2159,2459,1994,1807,1851,1918
623799,47040,11968,44279,11511,-3529,-70,-730,15,512,902,-3021,5470,56,43,865,1903,1979,2159,2459,1994,1807,1851,1918
624800,47152,12040,44344,11576,-3687,-229,-598,77,481,1021,-2897,5997,70,46,865,1903,1979,2159,2459,1994,1807,1851,1918
625801,47268,12088,44409,11641,-3800,92,-521,109,439,1589,-2417,5851,54,54,865,1854,1911,2118,2345,2061,1852,1896,1970
626802,47380,12164,44474,11706,-3800,-272,-463,178,353,1540,-2366,5925,57,39,864,1854,1911,2118,2345,2061,1852,1896,1970
627803,47456,12228,44539,11771,-3374,-120,-439,265,298,1584,-2597,5482,67,52,865,1854,1911,2118,2345,2061,1852,1896,1970
628804,47552,12284,44604,11836,-3663,-9,-420,318,228,2158,-2199,5396,61,32,865,1854,1911,2118,2345,2061,1852,1896,1970
629805,47636,12344,44669,11901,-3537,-54,-398,330,151,1782,-1955,5158,50,36,865,1854,1911,2118,2345,2061,1852,1896,1970
630806,47712,12404,44734,11966,-3452,-48,-395,309,91,1444,-1774,4398,57,45,866,1846,1932,2141,2407,2086,1868,1946,2002
631807,47804,12468,44799,12031,-3686,-97,-366,267,71,1091,-1715,4615,61,38,864,1846,1932,2141,2407,2086,1868,1946,2002
632808,47892,12536,44864,12096,-3665,-151,-353,202,72,1057,-1575,4268,52,51,864,1846,1932,2141,2407,2086,1868,1946,2002
633809,47984,12592,44929,12161,-3750,10,-359,156,73,1132,-1484,3957,56,43,865,1846,1932,2141,2407,2086,1868,1946,2002
634810,48068,12652,44994,12226,-3674,-35,-407,144,84,1123,-1553,4104,41,48,865,1846,1932,2141,2407,2086,1868,1946,2002
635812,48132,12708,45059,12291,-3424,26,-451,132,127,1241,-1640,4381,51,50,849,1846,1932,2141,2407,2086,1868,1946,2002
636812,48204,12764,45124,12356,-3533,37,-480,133,170,1509,-1576,4500,40,50,866,1924,2024,2180,2468,2068,1844,1954,2004
637813,48280,12836,45189,12421,-3598,-171,-459,155,202,1543,-1667,4957,45,47,866,1924,2024,2180,2468,2068,1844,1954,2004
638814,48340,12896,45254,12486,-3393,-15,-411,232,233,1470,-1852,5190,34,36,866,1924,2024,2180,2468,2068,1844,1954,2004
639815,48404,12948,45319,12551,-3443,101,-334,288,257,1341,-2313,5119,41,43,856,1924,2024,2180,2468,2068,1844,1954,2004
640816,48468,13012,45384,12616,-3443,-48,-259,293,242,1875,-2284,5015,25,38,866,1924,2024,2180,2468,2068,1844,1954,2004
641817,48508,13080,45449,12681,-3114,-103,-183,299,191,1783,-2274,5035,42,49,865,1880,1980,2124,2360,2044,1811,1897,1954
642818,48552,13148,45514,12746,-3139,-106,-117,274,135,1378,-2487,4732,39,43,866,1880,1980,2124,2360,2044,1811,1897,1954
643819,48600,13212,45579,12811,-3169,-55,-48,251,71,1606,-2502,4900,38,37,861,1880,1980,2124,2360,2044,1811,1897,1954
644820,48652,13276,45644,12876,-3204,-54,37,241,-13,1626,-2489,4994,36,40,865,1880,1980,2124,2360,2044,1811,1897,1954
645821,48692,13340,45709,12941,-3026,-53,118,213,-91,1611,-2545,4608,29,48,866,1880,1980,2124,2360,2044,1811,1897,1954
646822,48716,13388,45774,13006,-2777,168,168,152,-177,1576,-2301,4421,23,39,865,1880,1980,2124,2360,2044,1811,1897,1954
647823,48748,13444,45839,13071,-2838,78,178,82,-257,1374,-1962,4112,13,40,864,1825,1914,2094,2328,1985,1773,1842,1901
648824,48764,13504,45904,13136,-2579,34,164,25,-320,1393,-1697,3918,28,36,864,1825,1914,2094,2328,1985,1773,1842,1901
649825,48796,13560,45969,13201,-2739,95,144,-30,-352,1222,-1586,3756,16,35,864,1825,1914,2094,2328,1985,1773,1842,1901
650826,48812,13604,46034,13266,-2481,271,122,-85,-355,1083,-1579,3618,16,35,866,1825,1914,2094,2328,1985,1773,1842,1901
651827,48820,13672,46099,13331,-2312,-33,101,-152,-335,1050,-1350,3470,4,33,864,1825,1914,2094,2328,1985,1773,1842,1901
652828,48828,13736,46164,13396,-2243,18,82,-184,-314,1061,-1203,3408,5,42,865,1866,1932,2116,2386,1958,1762,1850,1900
653829,48824,13800,46229,13461,-2010,20,61,-154,-280,1182,-1243,3390,10,48,866,1866,1932,2116,2386,1958,1762,1850,1900
654830,48836,13864,46294,13526,-2147,20,44,-82,-233,1227,-1106,3490,18,38,866,1866,1932,2116,2386,1958,1762,1850,1900
655831,48836,13924,46359,13591,-1918,76,35,-30,-185,1068,-1162,3409,17,40,865,1866,1932,2116,2386,1958,1762,1850,1900
656832,48836,13980,46424,13656,-1840,137,58,9,-134,969,-1188,3527,13,37,866,1866,1932,2116,2386,1958,1762,1850,1900
657833,48840,14032,46489,13721,-1816,203,104,-6,-99,739,-1263,3339,12,43,865,1866,1932,2116,2386,1958,1762,1850,1900
658834,48836,14100,46554,13786,-1633,-1,183,-15,-79,483,-1303,3593,3,40,865,1844,1917,2080,2320,2004,1794,1871,1944
659835,48832,14148,46619,13851,-1550,270,269,-15,-68,510,-1283,3612,0,33,865,1844,1917,2080,2320,2004,1794,1871,1944
660836,48840,14200,46684,13916,-1631,236,367,-13,-68,531,-1307,3686,-2,47,866,1844,1917,2080,2320,2004,1794,1871,1944
661837,48832,14240,46749,13981,-1343,416,463,-21,-85,458,-1257,3679,5,45,865,1844,1917,2080,2320,2004,1794,1871,1944
662838,48832,14268,46814,14046,-1364,612,554,-36,-120,312,-1136,3721,5,35,865,1844,1917,2080,2320,2004,1794,1871,1944
663839,48824,14296,46879,14111,-1176,656,629,-42,-161,255,-1056,3680,5,49,864,1732,1835,2018,2227,2021,1783,1839,1919
664840,48840,14356,46944,14176,-1417,262,683,-42,-203,379,-891,3603,17,39,863,1732,1835,2018,2227,2021,1783,1839,1919
665841,48840,14448,47009,14241,-1139,-171,724,8,-235,509,-815,3539,9,51,861,1732,1835,2018,2227,2021,1783,1839,1919
666842,48824,14520,47074,14306,-840,70,752,79,-255,802,-657,3282,15,47,864,1732,1835,2018,2227,2021,1783,1839,1919
667843,48828,14600,47139,14371,-1016,-48,758,153,-279,525,-554,3509,7,39,865,1732,1835,2018,2227,2021,1783,1839,1919
668844,48824,14668,47204,14436,-833,98,740,199,-303,220,-504,3201,15,49,865,1732,1835,2018,2227,2021,1783,1839,1919
669845,48832,14736,47269,14501,-913,95,711,231,-300,259,-419,3163,3,38,866,1774,1848,2040,2276,1936,1709,1786,1848
670846,48836,14796,47334,14566,-790,201,691,266,-271,204,-351,3242,15,37,865,1774,1848,2040,2276,1936,1709,1786,1848
671847,48840,14856,47399,14631,-716,207,664,267,-235,189,-356,3111,17,51,865,1774,1848,2040,2276,1936,1709,1786,1848
672848,48824,14940,47464,14696,-368,-116,645,271,-198,-8,-271,3096,14,39,857,1774,1848,2040,2276,1936,1709,1786,1848
673849,48828,14996,47529,14761,-544,245,629,256,-143,-27,-267,2935,1,35,865,1774,1848,2040,2276,1936,1709,1786,1848
674850,48832,15076,47594,14826,-470,-75,633,238,-82,-145,-352,3124,4,40,865,1837,1893,2081,2337,1912,1727,1791,1856
675851,48828,15136,47659,14891,-286,181,659,220,-22,-85,-417,3175,9,37,865,1837,1893,2081,2337,1912,1727,1791,1856
676852,48824,15180,47724,14956,-202,407,712,209,48,48,-456,3329,-2,46,856,1837,1893,2081,2337,1912,1727,1791,1856
677853,48832,15236,47789,15021,-283,268,769,228,97,213,-359,3449,-2,37,865,1837,1893,2081,2337,1912,1727,1791,1856
678854,48828,15316,47854,15086,-49,-50,841,241,120,274,-338,3471,16,38,853,1837,1893,2081,2337,1912,1727,1791,1856
679855,48836,15380,47919,15151,-130,151,914,246,137,272,-264,3485,16,39,864,1837,1893,2081,2337,1912,1727,1791,1856
680856,48832,15440,47984,15216,104,207,988,266,159,326,-174,3577,1,31,866,1817,1875,2081,2310,1972,1753,1827,1919
681857,48820,15508,48049,15281,297,103,1055,281,168,442,27,3482,8,45,859,1817,1875,2081,2310,1972,1753,1827,1919
682858,48840,15572,48114,15346,-48,155,1119,327,150,439,109,3536,5,43,864,1817,1875,2081,2310,1972,1753,1827,1919
683859,48840,15644,48179,15411,282,46,1172,351,124,474,208,3558,6,37,863,1817,1875,2081,2310,1972,1753,1827,1919
684860,48832,15716,48244,15476,470,38,1221,387,100,434,300,3648,17,30,865,1817,1875,2081,2310,1972,1753,1827,1919
685861,48840,15776,48309,15541,339,193,1254,423,63,408,488,3688,18,43,865,1751,1871,2071,2287,2007,1774,1839,1925
686862,48844,15836,48374,15606,464,199,1271,447,43,348,439,3520,21,46,864,1751,1871,2071,2287,2007,1774,1839,1925
687863,48852,15884,48439,15671,483,369,1282,467,21,224,546,3778,23,45,864,1751,1871,2071,2287,2007,1774,1839,1925
688864,48856,15936,48504,15736,608,335,1278,484,17,178,456,3676,8,38,863,1751,1871,2071,2287,2007,1774,1839,1925
689865,48876,16008,48569,15801,462,77,1273,492,17,113,470,3763,17,34,862,1751,1871,2071,2287,2007,1774,1839,1925
690866,48892,16064,48634,15866,572,288,1272,493,31,-44,392,3813,29,44,861,1819,1895,2083,2306,1974,1753,1820,1903
691867,48924,16104,48699,15931,412,518,1266,492,62,-28,351,3807,15,38,863,1819,1895,2083,2306,1974,1753,1820,1903
692868,48940,16164,48764,15996,672,274,1268,479,94,-5,290,3818,23,32,861,1819,1895,2083,2306,1974,1753,1820,1903
693869,48964,16216,48829,16061,622,390,1262,447,142,-100,122,3799,16,42,861,1819,1895,2083,2306,1974,1753,1820,1903
694870,48988,16284,48894,16126,672,187,1261,408,192,-147,88,3734,37,50,861,1819,1895,2083,2306,1974,1753,1820,1903
695871,49036,16332,48959,16191,393,457,1271,399,225,75,-11,3960,36,45,861,1819,1895,2083,2306,1974,1753,1820,1903
696872,49068,16388,49024,16256,633,368,1267,360,260,269,60,3862,23,38,861,1815,1893,2097,2310,1997,1785,1839,1940
697873,49112,16452,49089,16321,508,270,1245,306,295,352,90,3788,33,46,861,1815,1893,2097,2310,1997,1785,1839,1940
698874,49156,16512,49288,16520,698,489,1222,280,305,382,205,4064,26,50,860,1815,1893,2097,2310,1997,1785,1839,1940
699875,49216,16576,49353,16585,504,440,1203,254,293,566,297,4051,28,38,861,1815,1893,2097,2310,1997,1785,1839,1940
700876,49268,16640,49418,16650,620,442,1174,225,288,763,204,3936,33,48,858,1815,1893,2097,2310,1997,1785,1839,1940
701877,49328,16692,49483,16715,526,608,1149,231,265,1131,380,4374,45,52,861,1804,1880,2099,2290,2080,1851,1895,2025
702878,49384,16772,49548,16780,587,239,1115,218,230,1012,445,4137,41,49,860,1804,1880,2099,2290,2080,1851,1895,2025
703879,49428,16836,49613,16845,762,440,1078,215,204,871,410,4307,46,42,860,1804,1880,2099,2290,2080,1851,1895,2025
704880,49500,16916,49678,16910,404,222,1060,222,158,1069,774,4456,45,54,862,1804,1880,2099,2290,2080,1851,1895,2025
705881,49580,16980,49743,16975,285,423,1032,183,108,799,770,4333,48,53,860,1804,1880,2099,2290,2080,1851,1895,2025
706882,49616,17060,49808,17040,871,205,977,125,63,436,956,4047,49,48,864,1804,1880,2099,2290,2080,1851,1895,2025
707883,49688,17128,49873,17105,412,351,926,33,46,134,966,4305,49,48,863,1773,1859,2081,2253,2181,1923,1960,2108
708884,49752,17200,49938,17170,515,293,862,-47,37,181,914,4220,58,46,860,1773,1859,2081,2253,2181,1923,1960,2108
709885,49836,17284,50003,17235,241,120,819,-84,35,141,729,4444,54,40,862,1773,1859,2081,2253,2181,1923,1960,2108
710886,49908,17344,50068,17300,383,425,816,-63,9,608,675,4522,50,41,862,1773,1859,2081,2253,2181,1923,1960,2108
711887,49984,17432,50133,17365,319,47,812,-108,-1,433,560,4099,39,45,864,1773,1859,2081,2253,2181,1923,1960,2108
712888,50044,17488,50198,17430,525,458,765,-197,21,-170,749,4019,53,47,862,1740,1849,2069,2224,2224,1944,1976,2125
713889,50120,17564,50263,17495,312,194,700,-225,28,-150,900,4267,53,40,864,1740,1849,2069,2224,2224,1944,1976,2125
714890,50184,17640,50328,17560,463,181,609,-201,43,286,949,4351,56,45,861,1740,1849,2069,2224,2224,1944,1976,2125
715891,50264,17692,50393,17625,245,497,511,-154,57,460,1035,4251,42,49,864,1740,1849,2069,2224,2224,1944,1976,2125
716892,50320,17756,50458,17690,556,348,430,-99,61,267,779,4503,39,44,862,1740,1849,2069,2224,2224,1944,1976,2125
717893,50388,17832,50523,17755,402,185,369,-57,57,500,658,4705,38,47,861,1740,1849,2069,2224,2224,1944,1976,2125
718894,50456,17900,50588,17820,399,281,323,-56,64,359,484,4402,57,50,861,1730,1846,2063,2214,2174,1903,1928,2070
719895,50508,17960,50653,17885,615,387,282,-19,53,588,515,4610,43,47,864,1730,1846,2063,2214,2174,1903,1928,2070
720896,50604,18036,50718,17950,27,174,233,-7,32,415,502,4240,40,47,863,1730,1846,2063,2214,2174,1903,1928,2070
721897,50676,18080,50783,18015,318,599,177,-13,-5,176,773,4373,45,51,861,1730,1846,2063,2214,2174,1903,1928,2070
722898,50724,18148,50848,18080,639,295,118,-48,-30,7,751,4182,43,51,865,1730,1846,2063,2214,2174,1903,1928,2070
723899,50792,18212,50913,18145,385,347,52,-97,-70,24,746,4019,54,42,861,1727,1819,2059,2235,2127,1883,1891,2012
724900,50864,18268,50978,18210,327,458,-18,-110,-102,256,869,4084,54,50,861,1727,1819,2059,2235,2127,1883,1891,2012
725901,50944,18364,51043,18275,208,-80,-65,-139,-132,399,1050,3975,39,50,862,1727,1819,2059,2235,2127,1883,1891,2012
726902,51020,18428,51108,18340,245,321,-102,-141,-162,62,920,4129,41,37,862,1727,1819,2059,2235,2127,1883,1891,2012
727903,51080,18496,51173,18405,451,267,-124,-101,-191,257,906,4068,51,38,865,1727,1819,2059,2235,2127,1883,1891,2012
728904,51144,18576,51238,18470,402,99,-135,-52,-194,530,745,3966,36,37,864,1727,1819,2059,2235,2127,1883,1891,2012
729905,51208,18636,51303,18535,403,355,-139,-10,-194,703,826,3890,51,37,862,1755,1828,2076,2273,2109,1881,1896,2000
730906,51280,18700,51368,18600,296,306,-142,37,-186,375,852,3711,39,48,864,1755,1828,2076,2273,2109,1881,1896,2000
731907,51360,18764,51433,18665,178,308,-158,71,-194,336,1020,3616,47,31,862,1755,1828,2076,2273,2109,1881,1896,2000
732908,51400,18828,51498,18730,708,309,-176,109,-183,202,991,3524,50,38,863,1755,1828,2076,2273,2109,1881,1896,2000
733909,51472,18892,51563,18795,300,310,-215,138,-162,285,1043,3452,33,44,862,1755,1828,2076,2273,2109,1881,1896,2000
734910,51544,18948,51628,18860,291,421,-256,212,-158,362,1143,3736,35,35,859,1780,1853,2083,2290,2054,1825,1861,1953
735911,51596,19012,51693,18925,557,322,-295,237,-161,157,1141,3371,49,45,864,1780,1853,2083,2290,2054,1825,1861,1953
736912,51656,19068,51758,18990,463,433,-320,271,-163,-168,1068,3836,46,39,862,1780,1853,2083,2290,2054,1825,1861,1953
737913,51716,19124,51823,19055,469,444,-315,282,-169,-223,1068,3454,32,42,862,1780,1853,2083,2290,2054,1825,1861,1953
738914,51764,19188,51888,19120,640,345,-318,255,-169,-110,824,3569,37,33,862,1780,1853,2083,2290,2054,1825,1861,1953
739915,51828,19232,51953,19185,441,621,-312,262,-169,-157,835,3920,37,42,861,1780,1853,2083,2290,2054,1825,1861,1953
740916,51884,19288,52018,19250,552,482,-288,280,-167,-286,703,3811,46,46,861,1767,1849,2057,2247,2007,1775,1821,1923
741917,51936,19360,52083,19315,618,273,-240,266,-161,-378,621,3898,32,47,860,1767,1849,2057,2247,2007,1775,1821,1923
742918,51992,19404,52148,19380,579,648,-189,238,-162,-291,558,3852,46,47,860,1767,1849,2057,2247,2007,1775,1821,1923
743919,52056,19468,52213,19445,480,399,-128,216,-150,-172,464,3998,48,42,862,1767,1849,2057,2247,2007,1775,1821,1923
744920,52100,19524,52278,19510,756,510,-96,227,-152,113,483,4041,43,49,859,1767,1849,2057,2247,2007,1775,1821,1923
745921,52172,19612,52343,19575,397,82,-57,264,-153,328,500,3818,34,42,861,1759,1846,2058,2250,1981,1756,1810,1915
746922,52220,19684,52408,19640,718,274,-18,296,-146,570,647,3741,52,42,859,1759,1846,2058,2250,1981,1756,1810,1915
747923,52264,19732,52473,19705,794,595,2,331,-133,378,560,3734,48,38,864,1759,1846,2058,2250,1981,1756,1810,1915
748924,52324,19804,52538,19770,600,286,-4,348,-123,362,764,3542,50,46,861,1759,1846,2058,2250,1981,1756,1810,1915
749925,52384,19872,52603,19835,606,332,-17,349,-119,430,873,3509,43,34,859,1759,1846,2058,2250,1981,1756,1810,1915
750926,52452,19936,52668,19900,503,384,-32,309,-110,390,918,3430,33,36,860,1759,1846,2058,2250,1981,1756,1810,1915
751927,52504,19988,52733,19965,719,549,-52,263,-108,218,865,3336,32,42,860,1836,1912,2118,2340,1974,1765,1830,1920
752928,52564,20036,52798,20030,625,620,-61,188,-104,137,868,3312,48,34,861,1836,1912,2118,2340,1974,1765,1830,1920
753929,52632,20112,52863,20095,521,257,-68,114,-96,160,881,3321,50,34,859,1836,1912,2118,2340,1974,1765,1830,1920
754930,52672,20160,52928,20160,902,628,-57,61,-86,152,773,3500,44,42,859,1836,1912,2118,2340,1974,1765,1830,1920
755931,52740,20220,52993,20225,548,484,-36,21,-73,252,626,3675,51,34,862,1836,1912,2118,2340,1974,1765,1830,1920
756932,52804,20288,53058,20290,600,380,1,-9,-53,182,522,3645,52,43,857,1874,1935,2137,2357,2014,1797,1857,1957
757933,52868,20344,53123,20355,601,541,45,-17,-34,184,400,3938,51,43,860,1874,1935,2137,2357,2014,1797,1857,1957
758934,52916,20396,53188,20420,822,607,99,-40,-13,192,317,3859,34,34,861,1874,1935,2137,2357,2014,1797,1857,1957
759935,52984,20468,53253,20485,568,348,147,-51,1,78,263,4082,42,49,860,1874,1935,2137,2357,2014,1797,1857,1957
760936,53036,20512,53318,20550,784,724,189,-35,26,136,198,4179,54,45,858,1874,1935,2137,2357,2014,1797,1857,1957
761937,53112,20580,53383,20615,471,420,222,3,47,288,144,4339,39,37,861,1874,1935,2137,2357,2014,1797,1857,1957
762938,53172,20644,53448,20680,677,471,251,32,68,239,59,4291,53,42,857,1816,1893,2094,2286,2040,1802,1860,1968
763939,53228,20712,53513,20745,738,418,263,53,88,149,87,4267,35,35,861,1816,1893,2094,2286,2040,1802,1860,1968
764940,53284,20756,53578,20810,749,743,268,62,103,83,204,4235,43,35,860,1816,1893,2094,2286,2040,1802,1860,1968
765941,53344,20808,53643,20875,705,659,253,64,116,14,202,4191,41,37,860,1816,1893,2094,2286,2040,1802,1860,1968
766942,53400,20872,53708,20940,766,511,248,73,128,-22,161,4148,35,44,857,1816,1893,2094,2286,2040,1802,1860,1968
767943,53452,20916,53773,21005,832,786,221,68,159,-6,258,3972,33,34,857,1786,1873,2073,2272,2034,1802,1859,1960
768944,53504,20980,53838,21070,848,537,195,52,158,215,255,3932,49,40,858,1786,1873,2073,2272,2034,1802,1859,1960
769945,53576,21040,53903,21135,590,593,168,14,166,217,244,3963,47,44,856,1786,1873,2073,2272,2034,1802,1859,1960
770946,53624,21108,53968,21200,911,491,171,-25,188,311,218,4018,34,48,858,1786,1873,2073,2272,2034,1802,1859,1960
771947,53672,21196,54033,21265,932,213,195,-43,215,427,266,4222,32,45,860,1786,1873,2073,2272,2034,1802,1859,1960
772948,53728,21272,54098,21330,843,349,208,-34,231,731,314,4234,53,53,858,1786,1873,2073,2272,2034,1802,1859,1960
773949,53804,21324,54163,21395,580,665,238,1,254,782,109,4443,36,44,860,1791,1873,2082,2294,2071,1841,1889,1991
774950,53868,21396,54228,21460,731,407,261,37,285,613,148,4364,39,34,859,1791,1873,2082,2294,2071,1841,1889,1991
775951,53912,21456,54293,21525,1007,563,264,110,291,829,135,4038,48,35,859,1791,1873,2082,2294,2071,1841,1889,1991
776952,53964,21516,54358,21590,922,569,246,180,287,1049,-74,3979,43,52,860,1791,1873,2082,2294,2071,1841,1889,1991
777953,54012,21576,54423,21655,993,575,235,219,298,880,-104,3949,48,48,857,1791,1873,2082,2294,2071,1841,1889,1991
778954,54080,21644,54488,21720,741,471,224,202,316,391,20,3864,47,52,857,1813,1887,2109,2325,2085,1856,1895,1990
779955,54144,21700,54553,21785,792,632,225,159,327,156,-25,3954,37,39,857,1813,1887,2109,2325,2085,1856,1895,1990
780956,54200,21784,54618,21850,903,259,217,123,332,344,-9,4142,40,52,859,1813,1887,2109,2325,2085,1856,1895,1990
781957,54252,21836,54683,21915,969,675,204,113,345,310,-149,4068,46,47,858,1813,1887,2109,2325,2085,1856,1895,1990
782958,54328,21924,54748,21980,655,197,187,123,354,297,4,4336,42,38,860,1813,1887,2109,2325,2085,1856,1895,1990
783959,54396,21968,54813,22045,752,772,165,92,357,375,17,4190,54,50,856,1813,1887,2109,2325,2085,1856,1895,1990
784960,54448,22012,54878,22110,968,798,176,70,368,36,44,4370,36,45,860,1812,1884,2102,2315,2064,1831,1876,1972
785961,54520,22084,54943,22175,710,440,161,54,387,105,160,4163,37,43,856,1812,1884,2102,2315,2064,1831,1876,1972
786962,54592,22160,55008,22240,701,376,169,60,407,320,-68,4235,41,45,856,1812,1884,2102,2315,2064,1831,1876,1972
787963,54660,22212,55073,22305,748,692,163,71,426,489,-38,4393,37,53,860,1812,1884,2102,2315,2064,1831,1876,1972
788964,54720,22284,55138,22370,854,433,191,115,445,474,35,4493,39,52,858,1812,1884,2102,2315,2064,1831,1876,1972
789965,54788,22340,55203,22435,750,644,190,186,469,408,37,4432,57,46,859,1798,1883,2087,2287,2054,1815,1874,1981
790966,54868,22424,55268,22500,583,271,209,240,478,538,30,4384,49,38,858,1798,1883,2087,2287,2054,1815,1874,1981
791967,54920,22476,55333,22565,949,687,203,276,491,519,-43,4297,39,42,861,1798,1883,2087,2287,2054,1815,1874,1981
792968,54992,22560,55398,22630,690,264,213,311,502,567,43,4286,44,48,856,1798,1883,2087,2287,2054,1815,1874,1981
793969,55056,22616,55463,22695,791,625,208,334,511,513,187,4112,38,49,861,1798,1883,2087,2287,2054,1815,1874,1981
794970,55120,22680,55528,22760,793,526,214,309,494,394,210,4018,36,48,858,1798,1883,2087,2287,2054,1815,1874,1981
795971,55172,22744,55593,22825,958,527,229,269,490,88,158,4177,39,47,859,1803,1893,2091,2298,2054,1822,1879,1977
796972,55252,22812,55658,22890,590,474,253,204,491,-119,201,3977,41,45,857,1803,1893,2091,2298,2054,1822,1879,1977
797973,55308,22876,55723,22955,902,525,268,144,489,-11,227,3817,56,41,861,1803,1893,2091,2298,2054,1822,1879,1977
798974,55368,22928,55788,23020,858,691,266,77,483,154,148,3832,50,45,858,1803,1893,2091,2298,2054,1822,1879,1977
799975,55436,23008,55853,23085,755,322,270,36,489,140,123,3704,50,40,857,1803,1893,2091,2298,2054,1822,1879,1977
800976,55496,23068,55918,23150,861,579,266,13,477,363,237,3866,56,45,859,1825,1904,2109,2329,2043,1817,1871,1965
801977,55568,23120,55983,23215,702,694,278,26,453,449,79,3920,41,43,856,1825,1904,2109,2329,2043,1817,1871,1965
802978,55616,23180,56048,23280,1023,601,281,63,452,519,130,4030,50,46,858,1825,1904,2109,2329,2043,1817,1871,1965
803979,55680,23244,56113,23345,825,552,290,90,452,716,255,3968,35,48,856,1825,1904,2109,2329,2043,1817,1871,1965
804980,55748,23296,56178,23410,771,718,290,83,459,429,98,4020,48,44,858,1825,1904,2109,2329,2043,1817,1871,1965
805981,55804,23364,56243,23475,932,514,302,94,459,302,168,4188,55,45,858,1825,1904,2109,2329,2043,1817,1871,1965
806982,55860,23412,56308,23540,943,786,305,111,466,492,206,4064,41,45,858,1822,1897,2101,2309,2015,1796,1846,1940
807983,55916,23496,56373,23605,954,313,320,106,463,491,157,4029,56,41,855,1822,1897,2101,2309,2015,1796,1846,1940
808984,55980,23540,56438,23670,856,838,334,93,478,276,215,4026,42,47,858,1822,1897,2101,2309,2015,1796,1846,1940
809985,56052,23584,56503,23735,748,864,348,197,479,435,272,3956,55,48,855,1822,1897,2101,2309,2015,1796,1846,1940
810988,56112,23652,56568,23800,904,560,344,103,469,216,106,3443,49,51,856,1822,1897,2101,2309,2015,1796,1846,1940
811987,56168,23716,56633,23865,965,611,355,58,465,-353,285,3955,38,51,857,1803,1882,2087,2295,2011,1793,1847,1941
812988,56224,23796,56698,23930,976,393,344,128,449,-69,362,4118,40,50,857,1803,1882,2087,2295,2011,1793,1847,1941
813989,56280,23868,56763,23995,987,485,352,167,427,387,305,3553,53,52,858,1803,1882,2087,2295,2011,1793,1847,1941
814990,56340,23916,56828,24060,943,805,362,130,407,372,294,3511,43,43,857,1803,1882,2087,2295,2011,1793,1847,1941
815991,56408,23980,56893,24125,841,607,377,75,388,-280,358,3829,55,44,855,1803,1882,2087,2295,2011,1793,1847,1941
816992,56456,24040,56958,24190,1111,663,369,35,358,-582,321,3687,38,52,857,1803,1882,2087,2295,2011,1793,1847,1941
817993,56528,24112,57023,24255,803,504,382,54,328,72,415,3924,36,38,854,1787,1869,2073,2281,2025,1801,1853,1949
818994,56576,24192,57088,24320,1124,386,388,90,325,488,347,3856,45,40,857,1787,1869,2073,2281,2025,1801,1853,1949
819995,56624,24256,57153,24385,1144,587,410,122,326,443,377,3847,33,52,856,1787,1869,2073,2281,2025,1801,1853,1949
820996,56684,24308,57218,24450,1001,753,424,139,314,275,381,3840,40,41,855,1787,1869,2073,2281,2025,1801,1853,1949
821997,56740,24388,57283,24515,1062,385,437,154,306,198,314,3829,54,49,855,1787,1869,2073,2281,2025,1801,1853,1949
822998,56792,24452,57348,24580,1128,586,449,190,314,396,357,4000,47,52,857,1781,1865,2071,2275,2034,1810,1862,1958
823999,56860,24508,57413,24645,925,697,469,213,314,476,366,3856,56,39,856,1781,1865,2071,2275,2034,1810,1862,1958
825000,56912,24572,57478,24710,1140,598,472,243,307,508,290,3979,39,43,856,1781,1865,2071,2275,2034,1810,1862,1958
826001,56972,24644,57543,24775,1048,489,484,244,297,428,331,3752,36,50,855,1781,1865,2071,2275,2034,1810,1862,1958
827002,57024,24708,57608,24840,1163,592,474,211,298,179,306,3819,47,39,856,1781,1865,2071,2275,2034,1810,1862,1958
828003,57088,24760,57673,24905,1015,758,472,196,296,220,208,3828,46,39,855,1781,1865,2071,2275,2034,1810,1862,1958
829004,57148,24812,57738,24970,1071,773,460,170,293,384,338,3760,58,50,855,1790,1871,2081,2293,2025,1807,1855,1950
830005,57228,24880,57803,25035,802,570,452,144,287,231,353,3954,57,52,854,1790,1871,2081,2293,2025,1807,1855,1950
831006,57276,24948,57868,25100,1224,566,434,144,275,127,276,3843,48,50,858,1790,1871,2081,2293,2025,1807,1855,1950
832007,57344,25020,57933,25165,970,508,428,146,261,426,287,3842,50,53,855,1790,1871,2081,2293,2025,1807,1855,1950
833008,57424,25076,57998,25230,802,718,417,135,257,330,254,3856,51,46,857,1790,1871,2081,2293,2025,1807,1855,1950
834009,57468,25144,58063,25295,1278,565,407,144,244,285,252,3899,56,38,856,1809,1887,2100,2308,2034,1813,1864,1964
835010,57540,25192,58128,25360,920,836,396,143,242,215,208,3791,39,48,854,1809,1887,2100,2308,2034,1813,1864,1964
836011,57576,25252,58193,25425,1406,692,394,151,238,97,240,3986,42,37,853,1809,1887,2100,2308,2034,1813,1864,1964
837012,57640,25332,58258,25490,1057,423,396,156,219,198,378,4008,45,39,851,1809,1887,2100,2308,2034,1813,1864,1964
838013,57700,25376,58323,25555,1113,899,407,154,213,170,175,3877,40,41,857,1809,1887,2100,2308,2034,1813,1864,1964
839014,57756,25428,58388,25620,1174,815,406,143,209,368,216,4024,50,48,853,1809,1887,2100,2308,2034,1813,1864,1964
840015,57816,25504,58453,25685,1131,501,406,142,206,235,269,4019,45,51,853,1795,1879,2094,2292,2056,1824,1876,1983
841016,57876,25568,58518,25750,1137,653,409,148,214,203,290,4043,39,41,856,1795,1879,2094,2292,2056,1824,1876,1983
842017,57928,25620,58583,25815,1253,819,415,139,214,203,374,4182,37,38,855,1795,1879,2094,2292,2056,1824,1876,1983
843018,57992,25704,58648,25880,1104,395,422,145,214,167,419,4135,35,52,852,1795,1879,2094,2292,2056,1824,1876,1983
844019,58044,25764,58713,25945,1271,702,425,140,225,253,336,4023,47,52,855,1795,1879,2094,2292,2056,1824,1876,1983
845020,58120,25832,58778,26010,958,599,423,135,232,302,393,4194,42,39,852,1782,1872,2075,2270,2060,1826,1880,1984
846021,58160,25892,58843,26075,1438,705,410,116,248,225,338,3962,38,52,857,1782,1872,2075,2270,2060,1826,1880,1984
847022,58216,25964,58908,26140,1249,546,391,119,250,349,441,4111,54,42,851,1782,1872,2075,2270,2060,1826,1880,1984
848023,58272,26036,58973,26205,1261,538,376,116,260,248,374,3875,56,53,854,1782,1872,2075,2270,2060,1826,1880,1984
849024,58340,26104,59038,26270,1108,584,355,111,274,303,415,4018,58,43,855,1782,1872,2075,2270,2060,1826,1880,1984
850025,58392,26156,59103,26335,1323,800,336,113,280,449,463,3973,44,45,855,1782,1872,2075,2270,2060,1826,1880,1984
851026,58436,26224,59168,26400,1450,596,310,89,301,283,318,3817,57,48,852,1790,1876,2086,2292,2064,1836,1880,1984
852027,58504,26276,59233,26465,1146,812,295,88,307,246,361,4079,46,53,851,1790,1876,2086,2292,2064,1836,1880,1984
853028,58560,26352,59298,26530,1307,499,294,83,308,336,337,3931,43,55,851,1790,1876,2086,2292,2064,1836,1880,1984
854029,58632,26432,59363,26595,1099,430,293,66,306,297,307,4063,41,54,854,1790,1876,2086,2292,2064,1836,1880,1984
855030,58684,26508,59428,26660,1366,467,294,74,299,314,264,4107,60,47,857,1790,1876,2086,2292,2064,1836,1880,1984
856031,58748,26572,59493,26725,1217,618,299,70,297,283,176,4081,45,42,854,1797,1875,2096,2297,2074,1844,1881,1987
857032,58800,26636,59558,26790,1383,619,304,73,304,164,148,4096,56,42,854,1797,1875,2096,2297,2074,1844,1881,1987
858033,58864,26696,59623,26855,1234,676,305,81,300,255,253,4201,40,57,853,1797,1875,2096,2297,2074,1844,1881,1987
859034,58924,26772,59688,26920,1291,462,313,81,293,175,280,4189,58,52,853,1797,1875,2096,2297,2074,1844,1881,1987
860035,58988,26848,59753,26985,1242,450,305,89,303,176,312,4134,48,46,854,1797,1875,2096,2297,2074,1844,1881,1987
861037,59040,26912,59818,27050,1408,601,308,99,304,286,440,4245,36,43,855,1797,1875,2096,2297,2074,1844,1881,1987
862037,59104,26988,59883,27115,1260,438,289,94,329,25,283,3980,36,52,852,1798,1877,2098,2300,2060,1829,1873,1972
863038,59156,27040,59948,27180,1426,753,277,102,339,162,534,4241,39,45,855,1798,1877,2098,2300,2060,1829,1873,1972
864039,59204,27112,60013,27245,1497,495,256,108,352,2,655,4048,37,47,851,1798,1877,2098,2300,2060,1829,1873,1972
865040,59268,27176,60078,27310,1299,596,244,96,359,150,681,4047,46,43,852,1798,1877,2098,2300,2060,1829,1873,1972
866041,59316,27248,60143,27375,1520,488,225,107,366,215,621,4021,45,45,853,1798,1877,2098,2300,2060,1829,1873,1972
867042,59364,27316,60208,27440,1541,534,225,118,370,237,780,4101,45,43,852,1805,1888,2097,2308,2047,1822,1874,1971
868043,59420,27404,60273,27505,1452,256,218,117,394,72,644,4046,49,55,851,1805,1888,2097,2308,2047,1822,1874,1971
869044,59472,27460,60338,27570,1519,667,220,136,396,287,739,4112,38,41,852,1805,1888,2097,2308,2047,1822,1874,1971
870045,59524,27520,60403,27635,1534,623,224,141,408,105,738,4064,37,38,850,1805,1888,2097,2308,2047,1822,1874,1971
871046,59580,27584,60468,27700,1495,574,233,136,403,211,702,4066,38,41,850,1805,1888,2097,2308,2047,1822,1874,1971
872047,59636,27628,60533,27765,1507,850,247,147,397,301,651,4119,54,38,851,1805,1888,2097,2308,2047,1822,1874,1971
873048,59712,27696,60598,27830,1244,546,276,157,380,410,751,4094,38,51,849,1808,1890,2104,2308,2053,1827,1873,1973
874049,59764,27748,60663,27895,1560,762,294,181,375,323,556,4182,42,50,854,1808,1890,2104,2308,2053,1827,1873,1973
875050,59816,27812,60728,27960,1577,613,320,221,356,537,612,4247,48,45,849,1808,1890,2104,2308,2053,1827,1873,1973
876051,59864,27868,60793,28025,1648,724,345,235,346,352,540,4047,48,40,850,1808,1890,2104,2308,2053,1827,1873,1973
877052,59908,27940,60858,28090,1723,516,362,231,336,365,529,4051,54,43,848,1808,1890,2104,2308,2053,1827,1873,1973
878053,59968,27984,60923,28155,1530,891,369,214,323,226,516,3839,49,54,849,1809,1889,2112,2317,2035,1815,1856,1950
879054,60036,28040,60988,28220,1427,752,374,201,304,79,711,3979,39,52,848,1809,1889,2112,2317,2035,1815,1856,1950
880055,60096,28104,61053,28285,1534,654,362,193,296,29,603,3965,53,47,850,1809,1889,2112,2317,2035,1815,1856,1950
881056,60148,28152,61118,28350,1650,875,359,182,301,86,732,3920,44,54,850,1809,1889,2112,2317,2035,1815,1856,1950
882057,60184,28224,61183,28415,1885,567,347,154,311,88,681,3815,53,42,847,1809,1889,2112,2317,2035,1815,1856,1950
883058,60256,28288,61248,28480,1427,668,330,132,310,103,792,3886,53,48,847,1809,1889,2112,2317,2035,1815,1856,1950
884059,60300,28356,61313,28545,1803,614,312,114,315,133,880,3769,51,50,851,1815,1899,2122,2336,2009,1798,1844,1932
885060,60360,28428,61378,28610,1609,556,312,130,310,211,978,4019,46,45,847,1815,1899,2122,2336,2009,1798,1844,1932
886061,60424,28480,61443,28675,1561,822,298,142,309,215,805,3998,42,50,850,1815,1899,2122,2336,2009,1798,1844,1932
887062,60496,28560,61508,28740,1453,453,301,165,301,453,857,4015,56,54,847,1815,1899,2122,2336,2009,1798,1844,1932
888063,60532,28640,61573,28805,1939,435,304,152,310,289,811,3952,42,45,851,1815,1899,2122,2336,2009,1798,1844,1932
889064,60588,28696,61638,28870,1700,746,314,157,308,268,788,3997,51,47,846,1809,1887,2099,2304,2022,1807,1857,1957
890065,60656,28780,61703,28935,1547,373,321,153,303,403,881,3965,47,53,847,1809,1887,2099,2304,2022,1807,1857,1957
891066,60704,28872,61768,29000,1818,240,350,177,280,585,1081,4092,40,58,852,1809,1887,2099,2304,2022,1807,1857,1957
892067,60764,28920,61833,29065,1674,811,373,202,276,397,824,4112,53,52,850,1809,1887,2099,2304,2022,1807,1857,1957
893068,60812,28976,61898,29130,1846,721,403,243,255,665,986,4259,57,43,847,1809,1887,2099,2304,2022,1807,1857,1957
894069,60872,29040,61963,29195,1702,623,429,255,232,461,974,4140,56,42,847,1809,1887,2099,2304,2022,1807,1857,1957
895070,60916,29108,62028,29260,1928,569,442,249,220,378,834,3956,55,55,849,1791,1876,2092,2288,2056,1830,1872,1978
896071,60972,29168,62093,29325,1790,676,453,231,201,400,856,3870,46,43,847,1791,1876,2092,2288,2056,1830,1872,1978
897072,61048,29240,62158,29390,1526,518,457,238,171,340,998,3952,39,57,847,1791,1876,2092,2288,2056,1830,1872,1978
898073,61100,29300,62223,29455,1843,674,454,229,158,268,815,3745,55,51,850,1791,1876,2092,2288,2056,1830,1872,1978
899074,61164,29352,62288,29520,1695,790,452,220,155,385,941,3861,48,56,847,1791,1876,2092,2288,2056,1830,1872,1978
900075,61224,29436,62353,29585,1752,366,437,204,157,161,872,3733,41,52,847,1800,1885,2110,2315,2054,1831,1867,1963
901076,61276,29472,62418,29650,1868,1002,423,192,146,249,902,3901,43,48,850,1800,1885,2110,2315,2054,1831,1867,1963
902077,61340,29540,62483,29715,1719,598,403,185,157,301,787,3755,56,52,844,1800,1885,2110,2315,2054,1831,1867,1963
903078,61404,29620,62548,29780,1721,430,388,195,164,464,902,3884,59,51,849,1800,1885,2110,2315,2054,1831,1867,1963
904079,61456,29696,62613,29845,1887,466,372,210,176,380,690,3803,42,48,849,1800,1885,2110,2315,2054,1831,1867,1963
905080,61532,29764,62678,29910,1574,563,357,226,189,444,904,3948,50,47,848,1812,1892,2117,2325,2054,1831,1867,1963
906081,61584,29828,62743,29975,1890,614,349,255,202,513,812,4025,41,47,850,1812,1892,2117,2325,2035,1819,1856,1952
907082,61636,29876,62808,30040,1907,835,332,290,200,691,832,4121,56,58,847,1812,1892,2117,2325,2035,1819,1856,1952
908083,61708,29944,62873,30105,1649,581,333,310,194,580,828,4084,41,59,845,1812,1892,2117,2325,2035,1819,1856,1952
909084,61760,30020,62938,30170,1914,468,322,326,185,506,824,4144,57,48,850,1812,1892,2117,2325,2035,1819,1856,1952
910085,61828,30100,63003,30235,1712,399,328,333,165,507,859,4065,42,47,847,1812,1892,2117,2325,2035,1819,1856,1952
911086,61876,30164,63068,30300,1983,601,323,335,152,450,906,3979,42,62,850,1792,1869,2095,2297,2045,1825,1860,1962
912087,61920,30224,63133,30365,2059,657,319,355,151,522,890,4134,55,53,846,1792,1869,2095,2297,2045,1825,1860,1962
913088,61984,30292,63198,30430,1810,553,319,359,141,595,1006,3947,35,51,845,1792,1869,2095,2297,2045,1825,1860,1962
914089,62044,30356,63263,30495,1868,605,322,359,132,433,1020,4057,40,58,848,1792,1869,2095,2297,2045,1825,1860,1962
915090,62088,30428,63328,30560,2093,497,311,369,126,401,1013,3867,41,56,847,1792,1869,2095,2297,2045,1825,1860,1962
916091,62132,30492,63393,30625,2120,598,313,369,130,371,988,3773,35,60,846,1781,1860,2090,2292,2066,1842,1876,1981
917092,62192,30556,63458,30690,1926,599,292,404,120,556,1073,3939,52,60,844,1781,1860,2090,2292,2066,1842,1876,1981
918093,62248,30604,63523,30755,1988,820,273,414,113,538,943,3652,47,48,847,1781,1860,2090,2292,2066,1842,1876,1981
919094,62316,30684,63588,30820,1834,402,257,416,103,660,1096,3813,57,56,845,1781,1860,2090,2292,2066,1842,1876,1981
920095,62360,30736,63653,30885,2161,767,236,397,101,351,1015,3743,51,52,849,1781,1860,2090,2292,2066,1842,1876,1981
921096,62428,30820,63718,30950,1857,344,215,422,97,348,931,3849,44,55,841,1781,1860,2090,2292,2066,1842,1876,1981
922097,62480,30880,63783,31015,2074,650,204,447,112,629,952,3931,57,50,849,1784,1868,2097,2297,2078,1849,1881,1989
923098,62552,30952,63848,31080,1816,492,190,487,115,649,998,4067,57,48,845,1784,1868,2097,2297,2078,1849,1881,1989
924099,62624,31028,63913,31145,1808,428,181,504,121,563,915,3937,48,48,848,1784,1868,2097,2297,2078,1849,1881,1989
925100,62696,31080,63978,31210,1799,744,170,494,122,548,982,3870,60,59,850,1784,1868,2097,2297,2078,1849,1881,1989
926101,62760,31156,64043,31275,1902,431,165,504,109,472,987,4014,55,44,848,1784,1868,2097,2297,2078,1849,1881,1989
927102,62840,31212,64108,31340,1683,692,148,512,116,447,844,3944,51,49,848,1776,1862,2096,2284,2068,1840,1868,1976
928103,62912,31288,64173,31405,1775,428,146,545,106,673,1011,4168,55,51,849,1776,1862,2096,2284,2068,1840,1868,1976
929104,62972,31348,64238,31470,1932,634,132,567,104,689,943,4034,58,60,850,1776,1862,2096,2284,2068,1840,1868,1976
930105,63040,31432,64303,31535,1828,311,118,570,99,591,989,4101,56,48,846,1776,1862,2096,2284,2068,1840,1868,1976
931106,63108,31480,64368,31600,1826,782,100,581,80,592,1090,3933,41,59,850,1776,1862,2096,2284,2068,1840,1868,1976
932107,63172,31552,64433,31665,1877,473,78,567,81,559,1012,3931,42,47,847,1776,1862,2096,2284,2068,1840,1868,1976
933108,63224,31636,64498,31730,2044,300,51,572,73,561,1317,4051,50,55,848,1776,1861,2093,2290,2056,1833,1864,1966
934109,63288,31676,64563,31795,1895,881,32,581,54,417,1188,3967,41,58,847,1776,1861,2093,2290,2056,1833,1864,1966
935110,63356,31740,64628,31860,1842,582,8,579,43,729,1226,3843,55,56,845,1776,1861,2093,2290,2056,1833,1864,1966
936111,63404,31824,64693,31925,2113,310,-16,572,33,553,1370,3745,40,51,848,1776,1861,2093,2290,2056,1833,1864,1966
937112,63468,31864,64758,31990,1915,890,-35,577,20,430,1189,3782,38,46,847,1776,1861,2093,2290,2056,1833,1864,1966
938113,63520,31920,64823,32055,2081,701,-60,609,3,633,1198,3891,55,55,844,1790,1872,2106,2308,2065,1844,1875,1980
939114,63576,32000,64888,32120,2043,383,-83,615,-14,665,1309,3785,40,60,844,1790,1872,2106,2308,2065,1844,1875,1980
940115,63640,32064,64953,32185,1944,584,-98,626,-30,584,1149,3865,43,52,846,1790,1872,2106,2308,2065,1844,1875,1980
941116,63708,32132,65018,32250,1892,531,-114,626,-41,592,1344,3873,40,50,847,1790,1872,2106,2308,2065,1844,1875,1980
942117,63764,32184,65083,32315,2053,746,-117,646,-62,514,1272,3968,56,47,847,1790,1872,2106,2308,2065,1844,1875,1980
943118,63840,32248,65148,32380,1790,598,-130,666,-70,711,1094,4048,51,52,845,1790,1872,2106,2308,2065,1844,1875,1980
944119,63896,32336,65213,32445,2051,270,-129,698,-78,668,1247,4067,44,53,848,1781,1865,2098,2292,2075,1849,1877,1986
945120,63956,32396,65278,32510,2008,626,-140,710,-97,492,1107,4028,61,47,848,1781,1865,2098,2292,2075,1849,1877,1986
946121,64028,32460,65343,32575,1850,577,-144,741,-116,654,1144,4020,56,45,846,1781,1865,2098,2292,2075,1849,1877,1986
947122,64104,32504,65408,32640,1787,853,-150,748,-131,557,1274,3937,61,48,848,1781,1865,2098,2292,2075,1849,1877,1986
948123,64176,32560,65473,32705,1829,714,-159,766,-147,334,1235,4138,44,60,846,1781,1865,2098,2292,2075,1849,1877,1986
949124,64240,32636,65672,32904,2095,614,-168,788,-158,470,1279,4046,53,61,847,1772,1860,2095,2286,2068,1844,1872,1976
950125,64296,32708,65737,32969,2206,655,-183,807,-164,491,1321,3996,51,60,846,1772,1860,2095,2286,2068,1844,1872,1976
951126,64364,32760,65802,33034,2053,921,-203,823,-184,504,1338,3957,60,52,844,1772,1860,2095,2286,2068,1844,1872,1976
952127,64440,32844,65867,33099,1939,498,-226,835,-212,522,1445,3797,44,69,843,1772,1860,2095,2286,2068,1844,1872,1976
953128,64512,32932,65932,33164,1982,421,-259,833,-244,379,1432,3871,61,56,847,1772,1860,2095,2286,2068,1844,1872,1976
954129,64576,32988,65997,33229,2083,832,-286,848,-282,333,1361,3900,52,53,847,1772,1860,2095,2286,2068,1844,1872,1976
955130,64652,33072,66062,33294,1921,458,-313,870,-313,509,1476,3765,46,60,843,1776,1862,2099,2299,2057,1838,1867,1970
956131,64724,33152,66127,33359,1963,490,-335,860,-333,583,1455,3859,46,68,848,1776,1862,2099,2299,2057,1838,1867,1970
957132,64796,33236,66192,33424,1955,417,-348,883,-359,466,1502,3915,65,58,848,1776,1862,2099,2299,2057,1838,1867,1970
958133,64860,33308,66257,33489,2057,558,-362,874,-383,393,1499,3831,64,58,848,1776,1862,2099,2299,2057,1838,1867,1970
959134,64936,33376,66322,33554,1893,605,-368,903,-404,493,1429,3940,59,63,846,1776,1862,2099,2299,2057,1838,1867,1970
960135,65008,33464,66387,33619,1936,327,-379,917,-425,603,1487,3935,54,62,848,1785,1866,2104,2301,2060,1840,1866,1974
961136,65076,33516,66452,33684,1982,793,-378,935,-454,595,1384,3906,55,54,849,1785,1866,2104,2301,2060,1840,1866,1974
962137,65156,33628,66517,33749,1815,-15,-380,950,-487,526,1466,4024,49,58,846,1785,1866,2104,2301,2060,1840,1866,1974
963138,65244,33700,66582,33814,1687,477,-383,971,-520,505,1388,3809,65,56,851,1785,1866,2104,2301,2060,1840,1866,1974
964139,65320,33764,66647,33879,1824,578,-387,982,-543,455,1438,3815,52,67,850,1785,1866,2104,2301,2060,1840,1866,1974
965140,65416,33844,66712,33944,1537,360,-385,988,-563,458,1591,3736,52,66,849,1785,1866,2104,2301,2060,1840,1866,1974
966141,65480,33932,66777,34009,1939,231,-394,983,-575,349,1488,3774,66,56,853,1776,1861,2098,2290,2053,1832,1859,1966
967142,65556,34008,66842,34074,1775,368,-395,998,-601,342,1543,3790,64,58,849,1776,1861,2098,2290,2053,1832,1859,1966
968143,65640,34088,66907,34139,1653,300,-424,1013,-609,341,1409,3731,58,55,850,1776,1861,2098,2290,2053,1832,1859,1966
969144,65700,34152,66972,34204,1959,501,-431,1000,-643,400,1870,3721,63,67,852,1776,1861,2098,2290,2053,1832,1859,1966
970145,65780,34248,67037,34269,1692,63,-450,959,-686,10,1694,3421,49,55,847,1776,1861,2098,2290,2053,1832,1859,1966
971146,65856,34328,67102,34334,1728,245,-480,949,-706,156,1442,3807,59,65,852,1776,1860,2092,2284,2032,1812,1845,1953
972147,65908,34396,67167,34399,2045,391,-502,977,-715,607,1570,3680,65,56,850,1776,1860,2092,2284,2032,1812,1845,1953
973148,66000,34476,67232,34464,1512,223,-519,966,-726,410,1611,3460,61,52,847,1776,1860,2092,2284,2032,1812,1845,1953
974149,66072,34552,67297,34529,1755,259,-530,921,-763,-12,1900,3460,61,59,854,1776,1860,2092,2284,2032,1812,1845,1953
975150,66152,34604,67362,34594,1637,575,-538,872,-785,-271,1522,3309,47,57,851,1776,1860,2092,2284,2032,1812,1845,1953
976151,66216,34688,67427,34659,1839,152,-552,881,-796,359,1287,3669,63,52,850,1776,1860,2092,2284,2032,1812,1845,1953
977152,66288,34752,67492,34724,1730,403,-573,922,-804,861,1311,3546,61,58,851,1768,1854,2080,2264,2032,1807,1844,1959
978153,66368,34852,67557,34789,1612,-89,-593,911,-831,464,1466,3251,49,64,851,1768,1854,2080,2264,2032,1807,1844,1959
979154,66440,34944,67622,34854,1704,-22,-600,856,-880,-78,1580,3195,63,57,853,1768,1854,2080,2264,2032,1807,1844,1959
980155,66496,35012,67687,34919,1915,274,-612,829,-902,-103,1351,3334,51,51,853,1768,1854,2080,2264,2032,1807,1844,1959
981156,66572,35076,67752,34984,1653,325,-620,870,-923,749,1294,3557,57,62,849,1768,1854,2080,2264,2032,1807,1844,1959
982157,66652,35140,67817,35049,1585,326,-631,873,-918,763,1368,3265,61,61,852,1756,1844,2068,2239,2040,1810,1844,1962
983158,66736,35216,67882,35114,1512,163,-636,840,-937,25,1586,3255,54,61,853,1756,1844,2068,2239,2040,1810,1844,1962
984159,66816,35284,67947,35179,1544,259,-638,781,-973,-282,1549,3211,62,52,854,1756,1844,2068,2239,2040,1810,1844,1962
985160,66892,35360,68012,35244,1582,146,-642,752,-999,26,1395,3202,56,57,853,1756,1844,2068,2239,2040,1810,1844,1962
986161,66972,35424,68077,35309,1513,297,-667,751,-1005,428,1198,3258,54,51,854,1756,1844,2068,2239,2040,1810,1844,1962
987162,67072,35492,68142,35374,1221,243,-697,747,-1017,416,1417,3211,57,54,854,1756,1844,2068,2239,2040,1810,1844,1962
988163,67160,35548,68207,35439,1344,404,-708,679,-1056,-256,1691,3043,53,57,857,1736,1823,2046,2223,2031,1803,1839,1953
989164,67244,35652,68272,35504,1370,-243,-719,627,-1080,-523,1416,3123,67,46,853,1736,1823,2046,2223,2031,1803,1839,1953
990165,67304,35708,68337,35569,1677,368,-739,634,-1077,160,1198,3513,50,48,855,1736,1823,2046,2223,2031,1803,1839,1953
991166,67396,35792,68402,35634,1245,-5,-757,645,-1071,416,1280,3144,60,58,852,1736,1823,2046,2223,2031,1803,1839,1953
992167,67488,35856,68467,35699,1212,246,-771,615,-1075,-204,1474,2978,57,51,857,1736,1823,2046,2223,2031,1803,1839,1953
993168,67580,35912,68532,35764,1180,357,-796,586,-1094,-296,1396,3116,54,45,856,1736,1822,2044,2224,2024,1797,1836,1952
994169,67684,35976,68597,35829,982,258,-816,568,-1090,-235,1146,3053,67,61,856,1736,1822,2044,2224,2024,1797,1836,1952
995170,67752,36056,68662,35894,1428,40,-835,577,-1094,299,1200,3151,55,63,859,1736,1822,2044,2224,2024,1797,1836,1952
996171,67820,36132,68727,35959,1426,75,-859,557,-1103,47,1324,3002,63,44,855,1736,1822,2044,2224,2024,1797,1836,1952
997172,67920,36204,68792,36024,983,117,-877,518,-1123,-346,1175,2916,52,49,856,1736,1822,2044,2224,2024,1797,1836,1952
998173,68004,36304,68857,36089,1160,-276,-898,507,-1141,-95,1023,3262,60,48,859,1736,1822,2044,2224,2024,1797,1836,1952
999174,68092,36364,68922,36154,1083,230,-924,513,-1158,244,1035,3033,60,45,856,1739,1825,2046,2224,2023,1795,1834,1951
1000175,68184,36440,68987,36219,1000,17,-932,496,-1175,-15,1040,2861,64,58,858,1739,1825,2046,2224,2023,1795,1834,1951
1001176,68272,36516,69052,36284,1022,3,-947,467,-1192,-358,1050,3044,68,52,859,1739,1825,2046,2224,2023,1795,1834,1951
1002177,68372,36572,69117,36349,830,264,-945,455,-1198,-307,1093,3130,67,58,859,1739,1825,2046,2224,2023,1795,1834,1951
1003178,68452,36628,69182,36414,1062,275,-956,435,-1197,21,1066,2877,54,47,860,1739,1825,2046,2224,2023,1795,1834,1951
1004179,68536,36704,69247,36479,988,12,-968,421,-1199,-139,1156,3071,64,45,858,1738,1820,2040,2217,2021,1791,1833,1949
1005180,68640,36764,69312,36544,691,218,-986,422,-1211,-218,1150,2958,58,60,860,1738,1820,2040,2217,2021,1791,1833,1949
1006181,68724,36852,69377,36609,919,-160,-996,428,-1229,-151,1067,2987,69,49,860,1738,1820,2040,2217,2021,1791,1833,1949
1007182,68820,36924,69442,36674,731,31,-1023,415,-1249,-322,877,2843,50,58,859,1738,1820,2040,2217,2021,1791,1833,1949
1008183,68908,36992,69507,36739,803,77,-1047,408,-1260,-261,952,2888,65,46,861,1738,1820,2040,2217,2021,1791,1833,1949
1009184,68992,37056,69572,36804,830,128,-1077,390,-1280,-402,961,2854,48,56,861,1738,1820,2040,2217,2021,1791,1833,1949
1010185,69076,37136,69637,36869,807,-90,-1085,377,-1299,-333,1077,2993,69,44,861,1731,1813,2026,2206,2007,1779,1825,1934
1011186,69180,37196,69702,36934,510,166,-1100,359,-1292,-537,880,2857,52,56,861,1731,1813,2026,2206,2007,1779,1825,1934
1012187,69264,37272,69767,36999,737,-48,-1104,351,-1284,-411,1003,3054,60,51,862,1731,1813,2026,2206,2007,1779,1825,1934
1013188,69364,37344,69832,37064,494,-6,-1113,331,-1271,-481,886,2926,54,51,861,1731,1813,2026,2206,2007,1779,1825,1934
1014189,69440,37400,69897,37129,780,205,-1119,311,-1258,-479,849,3141,56,50,863,1731,1813,2026,2206,2007,1779,1825,1934
1015190,69524,37468,69962,37194,658,51,-1142,255,-1245,-509,606,2669,43,53,860,1720,1804,2016,2192,2000,1774,1821,1933
1016191,69612,37552,70027,37259,580,-172,-1162,224,-1256,-494,741,3018,52,52,862,1720,1804,2016,2192,2000,1774,1821,1933
1017192,69704,37612,70092,37324,497,134,-1182,197,-1261,-549,648,2498,54,52,862,1720,1804,2016,2192,2000,1774,1821,1933
1018193,69784,37684,70157,37389,629,-26,-1198,193,-1265,-380,473,3027,45,42,863,1720,1804,2016,2192,2000,1774,1821,1933
1019194,69884,37756,70222,37454,336,-34,-1204,196,-1272,-92,661,2825,44,57,862,1720,1804,2016,2192,2000,1774,1821,1933
1020195,69964,37828,70287,37519,568,-43,-1205,180,-1281,-460,519,2793,48,43,864,1720,1804,2016,2192,2000,1774,1821,1933
1021196,70040,37888,70352,37584,604,113,-1216,162,-1280,-441,449,2874,47,55,863,1723,1806,2013,2192,2005,1773,1826,1943
1022197,70144,37964,70417,37649,208,-100,-1215,153,-1276,-455,599,3007,47,48,862,1723,1806,2013,2192,2005,1773,1826,1943
1023198,70220,38040,70482,37714,544,-113,-1211,163,-1281,-284,563,3105,61,48,863,1723,1806,2013,2192,2005,1773,1826,1943
1024199,70316,38112,70547,37779,256,-72,-1211,124,-1282,-369,467,2677,45,42,862,1723,1806,2013,2192,2005,1773,1826,1943
1025200,70404,38176,70612,37844,328,29,-1213,111,-1270,-660,388,2997,52,44,864,1723,1806,2013,2192,2005,1773,1826,1943
1026201,70476,38256,70677,37909,520,-190,-1225,94,-1263,-428,480,2873,40,54,864,1730,1813,2016,2197,2000,1766,1824,1935
1027202,70576,38320,70742,37974,127,11,-1232,86,-1261,-366,515,3049,56,46,862,1730,1813,2016,2197,2000,1766,1824,1935
1028203,70656,38404,70807,38039,359,-262,-1245,44,-1258,-508,392,2849,54,52,865,1730,1813,2016,2197,2000,1766,1824,1935
1029204,70748,38488,70872,38104,176,-285,-1253,20,-1243,-668,245,3056,47,58,863,1730,1813,2016,2197,2000,1766,1824,1935
1030205,70812,38556,70937,38169,527,-89,-1270,11,-1224,-600,265,2756,41,59,864,1730,1813,2016,2197,2000,1766,1824,1935
1031206,70900,38640,71002,38234,199,-312,-1279,-1,-1209,-379,344,3049,44,44,862,1730,1813,2016,2197,2000,1766,1824,1935
1032207,70992,38704,71067,38299,116,-61,-1286,-13,-1186,-547,218,2860,58,47,864,1744,1827,2023,2212,1992,1759,1822,1929
