%  Data file recorded 2016/3/13  20:10:36
%  Stride Frequency         = [7, 7]
%  Lead In /Lead Out        = 
%  Deltas (Fractional)      = [0.25, 0.25, 0.25],[0.25, 0.25, 0.25]
%  Phase                    = 32768
%  Experiment.py 
%  Motor Gains    = [100, 0, 100, 0, 0, 100, 0, 100, 0, 0]
% Columns: 
% time | Right Leg Pos | Left Leg Pos | Commanded Right Leg Pos | Commanded Left Leg Pos | DCR | DCL | GyroX | GyroY | GyroZ | AX | AY | AZ | RBEMF | LBEMF | VBatt | S1 | S2 | S3 | S4 | S5 | S6 | S7 | S8
449,33236,-14432,11700,11700,-526,662,-102,-66,34,220,-172,3925,4,5,867,1122,1235,780,1173,1347,1326,1993,1778
1450,33240,-14428,11700,11700,-551,612,-104,-63,32,227,-153,3909,6,5,867,1122,1235,780,1173,1347,1326,1993,1778
2451,33240,-14428,11700,11700,-526,637,-107,-64,35,229,-154,3896,-1,4,867,1122,1235,780,1173,1347,1326,1993,1778
3452,33244,-14424,11700,11700,-551,612,-108,-66,35,231,-151,3881,-4,-5,867,1122,1235,780,1173,1347,1326,1993,1778
4453,33232,-14440,11700,11700,-451,738,-107,-68,36,256,-146,3895,-3,-9,867,1122,1235,780,1173,1347,1326,1993,1778
5454,33236,-14432,11700,11700,-551,587,-104,-68,34,235,-157,3911,-6,-9,867,1123,1236,779,1172,1346,1325,1994,1779
6455,33244,-14432,11700,11700,-576,637,-105,-66,36,218,-146,3933,-7,-8,867,1123,1236,779,1172,1346,1325,1994,1779
7456,33232,-14432,11700,11700,-451,637,-104,-64,36,239,-133,3944,-1,-2,867,1123,1236,779,1172,1346,1325,1994,1779
8457,33244,-14440,11700,11700,-601,688,-102,-64,35,251,-157,3920,-6,1,867,1123,1236,779,1172,1346,1325,1994,1779
9458,33248,-14428,11700,11700,-552,562,-101,-66,30,268,-175,3929,-6,5,867,1123,1236,779,1172,1346,1325,1994,1779
10459,33236,-14440,11700,11700,-451,713,-104,-67,31,252,-139,3942,-1,-3,867,1123,1234,779,1172,1347,1326,1994,1779
11460,33244,-14432,11700,11700,-576,587,-107,-66,33,248,-143,3927,-2,-9,867,1123,1234,779,1172,1347,1326,1994,1779
12461,33240,-14432,11700,11700,-501,637,-105,-65,34,222,-135,3901,-1,-2,867,1123,1234,779,1172,1347,1326,1994,1779
13462,33244,-14420,11700,11700,-551,562,-102,-66,35,232,-139,3901,7,4,867,1123,1234,779,1172,1347,1326,1994,1779
14463,33232,-14436,11700,11700,-451,738,-103,-66,35,226,-147,3909,6,2,867,1123,1234,779,1172,1347,1326,1994,1779
15464,33248,-14432,11700,11700,-627,612,-104,-66,34,237,-159,3871,5,-7,867,1123,1234,779,1172,1347,1326,1994,1779
16465,33240,-14436,11700,11700,-476,663,-104,-66,34,258,-136,3912,6,-9,867,1122,1234,780,1173,1348,1326,1993,1778
17466,33240,-14428,11700,11700,-526,587,-101,-64,34,273,-135,3911,4,-8,867,1122,1234,780,1173,1348,1326,1993,1778
18467,33248,-14440,11700,11700,-577,713,-102,-62,33,251,-156,3916,5,-3,867,1122,1234,780,1173,1348,1326,1993,1778
19468,33244,-14436,11700,11700,-501,613,-104,-64,33,225,-150,3915,7,4,865,1122,1234,780,1173,1348,1326,1993,1778
20469,33240,-14432,11700,11700,-501,612,-104,-67,36,248,-139,3921,6,3,865,1122,1234,780,1173,1348,1326,1993,1778
21470,33236,-14424,11700,11700,-501,587,-102,-68,33,241,-131,3898,7,6,867,1122,1236,780,1172,1348,1326,1993,1778
22471,33244,-14428,11700,11700,-576,662,-102,-67,31,223,-145,3934,-2,3,867,1122,1236,780,1172,1348,1326,1993,1778
23472,33244,-14428,11700,11700,-526,637,-106,-65,33,265,-138,3884,-6,4,867,1122,1236,780,1172,1348,1326,1993,1778
24473,33240,-14428,11700,11700,-501,637,-108,-64,35,248,-136,3909,-8,-1,867,1122,1236,780,1172,1348,1326,1993,1778
25474,33252,-14428,11700,11700,-602,637,-106,-64,34,230,-143,3903,-6,-5,867,1122,1236,780,1172,1348,1326,1993,1778
26475,33236,-14432,11700,11700,-426,662,-104,-66,34,227,-148,3890,1,-1,867,1122,1236,780,1172,1348,1326,1993,1778
27476,33240,-14440,11700,11700,-551,688,-104,-65,34,231,-155,3886,6,-2,867,1122,1234,779,1172,1347,1327,1994,1779
28477,33244,-14432,11700,11700,-551,587,-105,-62,34,227,-161,3893,3,-2,867,1122,1234,779,1172,1347,1327,1994,1779
29478,33232,-14416,11700,11700,-451,537,-105,-64,33,251,-175,3914,-1,3,867,1122,1234,779,1172,1347,1327,1994,1779
30479,33248,-14432,11700,11700,-627,737,-104,-65,34,255,-146,3899,-4,2,867,1122,1234,779,1172,1347,1327,1994,1779
31480,33248,-14432,11700,11700,-527,637,-102,-64,35,237,-147,3881,-9,-5,867,1122,1234,779,1172,1347,1327,1994,1779
32481,33236,-14436,11700,11700,-451,663,-102,-63,34,233,-138,3906,-4,-6,867,1122,1234,779,1172,1347,1326,1993,1778
33482,33248,-14424,11700,11700,-602,562,-104,-63,32,246,-146,3892,4,-9,867,1122,1234,779,1172,1347,1326,1993,1778
34483,33248,-14440,11700,11700,-527,738,-106,-64,32,251,-163,3909,4,-4,867,1122,1234,779,1172,1347,1326,1993,1778
35484,33252,-14428,11700,11700,-552,562,-105,-62,32,234,-152,3877,-3,-2,867,1122,1234,779,1172,1347,1326,1993,1778
36485,33244,-14436,11700,11700,-476,688,-104,-63,33,237,-148,3883,-6,5,866,1122,1234,779,1172,1347,1326,1993,1778
37486,33248,-14424,11700,11700,-552,562,-103,-63,33,258,-140,3884,-9,-5,865,1122,1234,779,1172,1347,1326,1993,1778
38487,33252,-14416,11700,11700,-552,587,-101,-64,32,243,-144,3930,-9,-4,867,1121,1234,780,1172,1347,1326,1993,1777
39488,33248,-14436,11700,11700,-502,763,-101,-65,33,239,-155,3876,-9,-8,867,1121,1234,780,1172,1347,1326,1993,1777
40489,33252,-14432,11700,11700,-552,612,-100,-66,33,234,-164,3859,-2,-6,867,1121,1234,780,1172,1347,1326,1993,1777
41490,33228,-14428,11700,11700,-376,612,-101,-66,32,238,-142,3898,5,-6,867,1121,1234,780,1172,1347,1326,1993,1777
42491,33248,-14440,11700,11700,-652,713,-102,-65,35,237,-123,3911,7,3,867,1121,1234,780,1172,1347,1326,1993,1777
43492,33236,-14428,11700,11700,-451,562,-103,-65,34,234,-149,3930,2,5,867,1122,1234,779,1172,1347,1326,1993,1778
44493,33240,-14432,11700,11700,-551,662,-104,-63,33,232,-160,3922,-3,6,867,1122,1234,779,1172,1347,1326,1993,1778
45494,33236,-14432,11700,11700,-501,637,-103,-63,33,241,-157,3889,-6,2,867,1122,1234,779,1172,1347,1326,1993,1778
46495,33248,-14428,11700,11700,-602,612,-103,-63,32,251,-144,3889,-7,-4,867,1122,1234,779,1172,1347,1326,1993,1778
47496,33224,-14428,11700,11700,-376,637,-104,-64,33,241,-147,3899,-1,-2,867,1122,1234,779,1172,1347,1326,1993,1778
48497,33240,-14420,11700,11700,-626,587,-104,-63,34,231,-147,3904,4,-9,867,1122,1234,779,1172,1347,1326,1993,1778
49498,33244,-14424,11700,11700,-551,662,-105,-62,34,238,-129,3873,3,-5,867,1122,1234,779,1173,1347,1326,1992,1777
50499,33240,-14424,11700,11700,-501,637,-103,-62,34,240,-152,3863,-3,-5,867,1122,1234,779,1173,1347,1326,1992,1777
51500,33244,-14428,11700,11700,-551,662,-103,-63,35,246,-165,3867,-7,1,867,1122,1234,779,1173,1347,1326,1992,1777
52501,33236,-14440,11700,11700,-476,713,-103,-62,33,232,-145,3891,-9,5,867,1122,1234,779,1173,1347,1326,1992,1777
53502,33252,-14428,11700,11700,-627,562,-102,-62,32,240,-148,3884,-9,6,865,1122,1234,779,1173,1347,1326,1992,1777
54503,33236,-14432,11700,11700,-426,662,-102,-60,35,208,-155,3876,-8,3,866,1124,1236,780,1172,1346,1326,1993,1778
55504,33232,-14424,11700,11700,-501,587,-105,-62,35,214,-180,3883,3,-2,867,1124,1236,780,1172,1346,1326,1993,1778
56505,33232,-14436,11700,11700,-526,713,-106,-64,33,232,-158,3878,7,1,867,1124,1236,780,1172,1346,1326,1993,1778
57506,33248,-14432,11700,11700,-627,612,-102,-63,34,229,-163,3904,6,-2,867,1124,1236,780,1172,1346,1326,1993,1778
58507,33248,-14428,11700,11700,-527,612,-102,-62,36,217,-174,3913,0,-3,867,1124,1236,780,1172,1346,1326,1993,1778
59508,33244,-14428,11700,11700,-501,637,-103,-62,35,216,-171,3917,-3,0,867,1124,1236,780,1172,1346,1326,1993,1778
60509,33240,-14428,11700,11700,-501,637,-102,-63,32,238,-144,3942,-5,-3,867,1123,1234,779,1172,1346,1326,1993,1779
61510,33240,-14436,11700,11700,-526,688,-102,-65,34,216,-119,3925,-9,-4,867,1123,1234,779,1172,1346,1326,1993,1779
62511,33240,-14436,11700,11700,-526,638,-105,-65,34,212,-141,3921,-9,-3,867,1123,1234,779,1172,1346,1326,1993,1779
63512,33240,-14416,11700,11700,-526,512,-104,-65,32,228,-142,3952,-9,-7,867,1123,1234,779,1172,1346,1326,1993,1779
64513,33244,-14428,11700,11700,-551,712,-103,-64,35,236,-133,3935,-1,-8,867,1123,1234,779,1172,1346,1326,1993,1779
65514,33236,-14436,11700,11700,-476,688,-102,-63,37,225,-160,3914,0,-8,867,1123,1235,779,1173,1347,1327,1993,1778
66515,33256,-14436,11700,11700,-652,638,-102,-64,34,223,-154,3900,4,-8,867,1123,1235,779,1173,1347,1327,1993,1778
67516,33236,-14432,11700,11700,-401,612,-105,-65,32,228,-128,3913,7,-9,867,1123,1235,779,1173,1347,1327,1993,1778
68517,33240,-14432,11700,11700,-551,637,-104,-66,31,238,-131,3902,7,-5,867,1123,1235,779,1173,1347,1327,1993,1778
69518,33240,-14428,11700,11700,-526,612,-104,-65,35,226,-136,3899,6,-7,867,1123,1235,779,1173,1347,1327,1993,1778
70519,33240,-14444,11700,11700,-526,738,-101,-63,36,211,-128,3898,-2,-8,865,1123,1235,779,1173,1347,1327,1993,1778
71520,33252,-14436,11700,11700,-602,588,-102,-64,35,225,-151,3896,-4,-8,865,1124,1236,780,1173,1347,1325,1994,1779
72521,33240,-14432,11700,11700,-451,612,-104,-66,36,226,-150,3911,-7,-5,867,1124,1236,780,1173,1347,1325,1994,1779
73522,33236,-14424,11700,11700,-501,587,-103,-65,33,239,-134,3880,-5,1,867,1124,1236,780,1173,1347,1325,1994,1779
74523,33240,-14432,11700,11700,-551,687,-103,-65,31,220,-131,3884,-3,-4,867,1124,1236,780,1173,1347,1325,1994,1779
75525,33248,-14420,11700,11700,-577,562,-107,-67,31,248,-138,3917,0,3,867,1124,1236,780,1173,1347,1325,1994,1779
76525,33260,-14440,11700,11700,-602,763,-105,-70,32,243,-155,3937,6,5,867,1123,1234,780,1173,1347,1326,1995,1777
77526,33248,-14428,11700,11700,-452,562,-103,-70,32,241,-160,3916,5,6,867,1123,1234,780,1173,1347,1326,1995,1777
78527,33252,-14432,11700,11700,-552,662,-101,-66,34,229,-155,3892,2,4,867,1123,1234,780,1173,1347,1326,1995,1777
79528,33252,-14432,11700,11700,-527,637,-101,-62,34,228,-155,3900,3,-1,867,1123,1234,780,1173,1347,1326,1995,1777
80529,33248,-14432,11700,11700,-502,637,-105,-65,34,220,-147,3883,-1,1,867,1123,1234,780,1173,1347,1326,1995,1777
81530,33252,-14432,11700,11700,-552,637,-108,-65,34,240,-166,3876,-8,-5,867,1123,1234,780,1173,1347,1326,1995,1777
82531,33252,-14432,11700,11700,-527,637,-107,-67,33,250,-145,3865,-9,-7,867,1123,1235,780,1173,1348,1326,1993,1779
83532,33240,-14420,11700,11700,-451,562,-104,-68,33,232,-126,3879,-9,-3,867,1123,1235,780,1173,1348,1326,1993,1779
84533,33256,-14444,11700,11700,-627,788,-102,-66,33,225,-142,3883,-7,-8,867,1123,1235,780,1173,1348,1326,1993,1779
85534,33248,-14436,11700,11700,-477,588,-104,-65,33,232,-150,3910,-9,-8,867,1123,1235,780,1173,1348,1326,1993,1779
86535,33244,-14428,11700,11700,-501,587,-106,-69,34,272,-154,3922,-5,-8,867,1123,1235,780,1173,1348,1326,1993,1779
87536,33244,-14420,11700,11700,-526,587,-107,-70,35,278,-129,3914,-1,0,866,1124,1236,780,1172,1347,1326,1993,1778
88537,33244,-14432,11700,11700,-526,712,-108,-69,33,263,-152,3914,-3,6,865,1124,1236,780,1172,1347,1326,1993,1778
89538,33244,-14436,11700,11700,-526,663,-107,-67,30,242,-186,3916,-2,3,867,1124,1236,780,1172,1347,1326,1993,1778
90539,33244,-14440,11700,11700,-526,663,-106,-67,29,241,-159,3920,-5,5,867,1124,1236,780,1172,1347,1326,1993,1778
91540,33252,-14432,11700,11700,-577,587,-105,-66,31,246,-151,3913,-9,5,867,1124,1236,780,1172,1347,1326,1993,1778
92541,33244,-14432,11700,11700,-476,637,-106,-67,31,239,-151,3909,-9,5,867,1124,1236,780,1172,1347,1326,1993,1778
93542,33236,-14436,11700,11700,-476,663,-104,-67,32,220,-161,3885,-4,-3,867,1123,1234,779,1172,1347,1326,1993,1775
94543,33232,-14432,11700,11700,-501,612,-104,-67,33,205,-169,3849,5,-9,867,1123,1234,779,1172,1347,1326,1993,1775
95544,33252,-14436,11700,11700,-652,663,-105,-68,33,202,-166,3886,6,-9,867,1123,1234,779,1172,1347,1326,1993,1775
96545,33244,-14428,11700,11700,-476,587,-105,-65,34,225,-154,3900,7,-3,867,1123,1234,779,1172,1347,1326,1993,1775
97546,33232,-14436,11700,11700,-451,688,-106,-65,32,222,-157,3908,3,5,867,1123,1234,779,1172,1347,1326,1993,1775
98547,33240,-14424,11700,11700,-576,562,-106,-64,32,256,-155,3930,2,6,867,1123,1234,779,1173,1348,1326,1993,1778
99548,33236,-14432,11700,11700,-501,687,-105,-65,32,232,-146,3927,-1,3,867,1123,1234,779,1173,1348,1326,1993,1778
100549,33240,-14416,11700,11700,-551,537,-104,-68,34,232,-157,3872,-9,-4,867,1123,1234,779,1173,1348,1326,1993,1778
101550,33236,-14436,11700,11700,-501,763,-104,-66,34,261,-135,3867,-9,-8,867,1123,1234,779,1173,1348,1326,1993,1778
102551,33248,-14428,11700,11700,-602,587,-106,-64,33,252,-133,3890,-9,-7,867,1123,1234,779,1173,1348,1326,1993,1778
103552,33240,-14444,11700,11700,-476,738,-105,-63,35,232,-133,3883,-6,-3,867,1123,1234,779,1173,1348,1326,1993,1778
104553,33240,-14424,0,0,-526,512,-107,-62,34,256,-161,3897,-9,2,865,1124,1236,780,1172,1347,1326,1993,1778
105554,33244,-14428,468,468,-339,875,-106,-62,35,248,-175,3917,-4,5,865,1124,1236,780,1172,1347,1326,1993,1778
106555,33240,-14428,936,936,-277,862,-104,-63,35,249,-167,3923,-7,1,867,1124,1236,780,1172,1347,1326,1993,1778
107556,33252,-14404,1404,1404,-366,722,-103,-65,35,249,-183,3893,-9,-7,857,1124,1236,780,1172,1347,1326,1993,1778
108557,33244,-14360,1872,1872,-229,608,-99,-69,32,209,-209,3895,3,10,857,1124,1236,780,1172,1347,1326,1993,1778
109558,33244,-14312,2340,2340,-268,593,-96,-81,28,214,-173,3990,4,9,859,1123,1235,779,1172,1347,1325,1995,1777
110559,33232,-14256,2808,2808,-181,553,-96,-95,38,205,1,4032,1,0,860,1123,1235,779,1172,1347,1325,1995,1777
111560,33252,-14184,3276,3276,-370,463,-98,-90,50,263,-188,3968,3,16,860,1123,1235,779,1172,1347,1325,1995,1777
112561,33224,-14100,3744,3744,-58,397,-99,-74,34,191,-211,3835,3,6,861,1123,1235,779,1172,1347,1325,1995,1777
113562,33196,-14028,4212,4212,-46,482,-91,-79,22,91,-106,3755,1,15,861,1123,1235,779,1172,1347,1325,1995,1777
114563,33192,-13960,4680,4680,-185,517,-92,-96,19,264,-168,3936,0,3,864,1123,1235,779,1172,1347,1325,1995,1777
115564,33160,-13896,5148,5148,3,551,-106,-109,31,224,-288,3993,-11,16,863,1123,1236,779,1173,1346,1326,1994,1779
116565,33164,-13820,5616,5616,-211,486,-119,-92,32,171,-162,4014,4,15,862,1123,1236,779,1173,1346,1326,1994,1779
117566,33160,-13728,6084,6084,-150,395,-108,-84,11,153,-131,3840,-4,10,863,1123,1236,779,1173,1346,1326,1994,1779
118567,33140,-13652,6552,6552,-38,505,-87,-90,-9,199,-251,3889,-5,9,862,1123,1236,779,1173,1346,1326,1994,1779
119568,33140,-13568,7020,7020,-151,464,-83,-103,-9,194,-155,4054,1,18,864,1123,1236,779,1173,1346,1326,1994,1779
120569,33124,-13500,7488,7488,-39,574,-96,-114,-5,145,-121,4074,1,14,864,1125,1237,780,1172,1347,1325,1995,1781
121570,33136,-13404,7956,7956,-203,408,-92,-117,0,188,-280,3867,-8,10,860,1125,1237,780,1172,1347,1325,1995,1781
122571,33132,-13320,8424,8424,-92,492,-72,-128,1,83,-181,3853,-8,20,860,1125,1237,780,1172,1347,1325,1995,1781
123572,33136,-13236,8892,8892,-130,502,-61,-157,-4,93,-165,3998,-8,11,863,1125,1237,780,1172,1347,1325,1995,1781
124573,33128,-13152,9360,9360,-44,511,-83,-171,-2,180,-142,4095,-9,14,862,1125,1237,780,1172,1347,1325,1995,1781
125574,33120,-13088,9828,9828,-32,646,-99,-165,-4,214,-161,3999,-6,9,863,1125,1237,780,1172,1347,1325,1995,1781
126575,33136,-13008,10296,10296,-171,555,-96,-143,-8,166,-210,3896,-4,19,863,1125,1238,781,1173,1346,1325,1996,1783
127576,33140,-12912,10764,10764,-85,465,-86,-141,-11,168,-211,3946,-8,16,862,1125,1238,781,1173,1346,1325,1996,1783
128577,33136,-12816,11232,11232,-23,474,-91,-153,-16,163,-172,4049,1,7,862,1125,1238,781,1173,1346,1325,1996,1783
129578,33140,-12736,11700,11700,-62,583,-99,-182,-15,127,-98,4005,3,7,863,1125,1238,781,1173,1346,1325,1996,1783
130579,33140,-12664,12168,12168,-26,643,-96,-193,-15,152,-268,3983,-7,18,864,1125,1238,781,1173,1346,1325,1996,1783
131580,33152,-12584,12636,12636,-89,602,-94,-175,-29,147,-158,3958,3,14,862,1125,1240,780,1172,1347,1325,1998,1785
132581,33128,-12496,13104,13104,148,562,-86,-179,-38,106,-236,3931,-4,18,862,1125,1240,780,1172,1347,1325,1998,1785
133582,33136,-12432,13572,13572,-41,721,-85,-182,-40,80,-235,3997,-1,5,862,1125,1240,780,1172,1347,1325,1998,1785
134583,33128,-12356,14040,14040,70,656,-80,-206,-45,48,-195,3901,4,9,861,1125,1240,780,1172,1347,1325,1998,1785
135584,33128,-12268,14508,14508,32,590,-73,-224,-46,16,-254,4018,-7,19,861,1125,1240,780,1172,1347,1325,1998,1785
136585,33136,-12188,14976,14976,-7,650,-66,-230,-48,76,-203,4021,6,19,861,1125,1240,780,1172,1347,1325,1998,1785
137586,33132,-12120,15444,15444,80,734,-64,-245,-49,138,-209,3995,-1,18,862,1127,1240,780,1173,1347,1325,1997,1783
138587,33136,-12036,15912,15912,41,644,-63,-249,-49,156,-238,4003,-4,5,860,1127,1240,780,1173,1347,1325,1997,1783
139588,33136,-11944,16384,16384,2516,3041,-64,-246,-48,136,-207,3981,-8,16,858,1127,1240,780,1173,1347,1325,1997,1783
140589,33144,-11864,16852,16852,2477,3126,-63,-246,-42,112,-229,4046,-8,-88,861,1127,1240,780,1173,1347,1325,1997,1783
141590,33124,-11660,17320,17320,2664,2357,-61,-238,-36,161,-230,4085,-14,-59,792,1127,1240,780,1173,1347,1325,1997,1783
142591,33300,-11392,17788,17788,1446,1962,-12,-280,-30,53,-240,4096,20,30,791,1127,1240,780,1173,1341,1301,1966,1755
143592,33568,-11100,18256,18256,876,1816,38,-320,-24,-68,-293,5021,9,45,804,1127,1240,780,1173,1341,1301,1966,1755
144593,33892,-10768,18724,18724,529,1570,59,-302,12,212,-223,5030,46,49,831,1127,1240,780,1173,1341,1301,1966,1755
145594,34184,-10388,19192,19192,733,1272,64,-325,47,279,26,5250,55,59,840,1127,1240,780,1173,1341,1301,1966,1755
146595,34460,-10020,19660,19660,838,1349,59,-369,72,111,-259,5053,66,76,847,1127,1240,780,1173,1341,1301,1966,1755
147596,34760,-9672,20128,20128,692,1477,8,-392,73,21,14,5298,71,73,849,1127,1240,780,1173,1341,1301,1966,1755
148597,35060,-9344,20596,20596,696,1605,-39,-389,128,20,-485,5073,60,69,847,1132,1249,785,1183,1347,1330,2022,1804
149598,35412,-8988,21064,21064,374,1433,-73,-368,206,32,-421,4739,54,73,846,1132,1249,785,1183,1347,1330,2022,1804
150599,35732,-8616,21532,21532,578,1336,-78,-351,235,-140,-304,5009,61,73,846,1132,1249,785,1183,1347,1330,2022,1804
151600,36012,-8316,22000,22000,832,1790,-119,-348,261,-642,-648,4779,59,59,851,1132,1249,785,1183,1347,1330,2022,1804
152601,36260,-8024,22468,22468,1038,1844,-164,-353,288,-327,-920,4749,61,54,850,1132,1249,785,1183,1347,1330,2022,1804
153602,36508,-7716,22936,22936,1043,1748,-180,-318,301,401,-1349,4672,57,57,841,1160,1282,801,1208,1400,1377,2116,1875
154603,36808,-7396,23404,23404,722,1676,-118,-390,343,-62,-1274,4700,52,49,838,1160,1282,801,1208,1400,1377,2116,1875
155604,37076,-7116,23872,23872,927,1931,-4,-532,343,238,-753,5734,65,58,839,1160,1282,801,1208,1400,1377,2116,1875
156605,37348,-6836,24340,24340,907,1936,91,-629,386,181,-1108,5391,58,48,841,1160,1282,801,1208,1400,1377,2116,1875
157606,37616,-6564,24808,24808,937,1990,228,-794,431,109,-922,5709,62,49,839,1160,1282,801,1208,1400,1377,2116,1875
158607,37872,-6280,25276,25276,1017,1920,309,-959,427,1079,-129,6309,52,44,838,1160,1282,801,1208,1400,1377,2116,1875
159608,38168,-6016,25744,25744,771,2050,327,-1022,451,1289,-147,6057,58,35,837,1157,1284,800,1200,1411,1373,2116,1868
160609,38452,-5776,26212,26212,851,2205,363,-971,484,841,1004,6557,61,31,836,1157,1284,800,1200,1411,1373,2116,1868
161610,38704,-5552,26680,26680,1056,2311,413,-983,532,1090,210,5431,63,31,836,1157,1284,800,1200,1411,1373,2116,1868
162611,38964,-5356,27148,27148,1011,2493,421,-956,605,900,-507,5730,48,29,834,1157,1284,800,1200,1411,1373,2116,1868
163612,39208,-5128,27616,27616,1116,2299,418,-1032,675,468,551,5504,61,7,830,1157,1284,800,1200,1411,1373,2116,1868
164613,39476,-4912,28084,28084,971,2380,394,-972,727,1008,298,5788,50,14,828,1186,1340,808,1216,1329,1289,2024,1816
165614,39760,-4732,28552,28552,876,2612,437,-970,795,1063,522,5632,54,8,828,1186,1340,808,1216,1329,1289,2024,1816
166615,40008,-4556,29020,29020,1106,2644,479,-863,910,1084,-514,5195,52,-3,827,1186,1340,808,1216,1329,1289,2024,1816
167616,40272,-4360,29488,29488,1011,2526,573,-951,990,764,-143,5224,45,-3,824,1186,1340,808,1216,1329,1289,2024,1816
168617,40508,-4164,29956,29956,1192,2533,633,-915,1027,239,564,5868,49,4,817,1186,1340,808,1216,1329,1289,2024,1816
169618,40796,-4004,30424,30424,871,2765,711,-1012,998,307,-60,4973,61,4,825,1186,1340,808,1216,1329,1289,2024,1816
170619,41044,-3828,30892,30892,1127,2672,826,-996,943,193,583,5529,58,-30,823,1219,1376,817,1221,1315,1278,2008,1810
171620,41300,-3652,31360,31360,1082,2679,949,-1155,1000,331,102,4917,46,-3,821,1219,1376,817,1221,1315,1278,2008,1810
172621,41528,-3480,31828,31828,1263,2712,1000,-1199,1035,497,44,5895,42,-9,819,1219,1376,817,1221,1315,1278,2008,1810
173622,41776,-3308,32296,32296,1143,2719,1065,-1464,1007,59,559,4751,45,-20,819,1219,1376,817,1221,1315,1278,2008,1810
174623,42072,-3160,32768,32768,847,2877,1192,-1670,995,-23,495,5485,56,-16,816,1219,1376,817,1221,1315,1278,2008,1810
175624,42292,-2980,33236,33236,1328,2684,1308,-1821,959,963,830,5349,53,-29,816,1192,1331,807,1202,1339,1304,2016,1818
176625,42516,-2816,33704,33704,1309,2791,1403,-1830,983,927,919,6010,46,-11,817,1192,1331,807,1202,1339,1304,2016,1818
177626,42748,-2636,34172,34172,1265,2698,1438,-1689,1029,873,577,5669,42,-28,815,1192,1331,807,1202,1339,1304,2016,1818
178627,42984,-2504,34640,34640,1246,3006,1538,-1519,1015,1522,1208,4857,40,-26,814,1192,1331,807,1202,1339,1304,2016,1818
179628,43224,-2368,35108,35108,1226,2989,1625,-1403,1013,1197,1320,4766,41,-53,816,1192,1331,807,1202,1339,1304,2016,1818
180629,43456,-2180,35576,35576,1282,2671,1644,-1324,1010,1351,1688,4942,37,-66,811,1156,1294,794,1179,1332,1299,1998,1802
181630,43672,-2008,36044,36044,1388,2779,1615,-1361,1008,1422,2136,4515,51,-16,812,1156,1294,794,1179,1332,1299,1998,1802
182631,43872,-1812,36512,36512,1495,2635,1578,-1338,1007,1451,1772,4367,41,-17,816,1156,1294,794,1179,1332,1299,1998,1802
183632,44096,-1620,36980,36980,1351,2667,1502,-1086,1055,54,742,4937,46,-7,815,1156,1294,794,1179,1332,1299,1998,1802
184633,44376,-1404,37448,37448,1005,2523,1451,-885,1229,-2869,1200,3794,35,3,816,1156,1294,794,1179,1332,1299,1998,1802
185634,44596,-1212,37916,37916,1386,2680,1425,-959,1077,212,2278,3418,43,11,823,1156,1294,794,1179,1332,1299,1998,1802
186635,44824,-1016,38384,38384,1342,2661,1433,-1197,972,399,12,4749,50,0,816,1142,1268,787,1169,1346,1312,1994,1799
187636,45036,-828,38852,38852,1449,2718,1448,-1210,1055,-1387,-322,4717,38,-5,817,1142,1268,787,1169,1346,1312,1994,1799
188637,45256,-596,39320,39320,1405,2449,1518,-1154,1102,-2085,1318,4753,49,-6,815,1142,1268,787,1169,1346,1312,1994,1799
189638,45468,-344,39788,39788,1461,2329,1622,-1279,1019,-340,928,4346,33,19,819,1142,1268,787,1169,1346,1312,1994,1799
190639,45680,-116,40256,40256,1467,2485,1648,-1315,968,673,729,4553,31,8,822,1142,1268,787,1169,1346,1312,1994,1799
191640,45864,100,40724,40724,1649,2566,1602,-1150,941,1385,356,3788,45,4,818,1096,1216,775,1137,1375,1329,2000,1812
192641,46044,340,41192,41192,1681,2422,1538,-751,1009,-1704,658,4324,41,4,815,1096,1216,775,1137,1375,1329,2000,1812
193642,46252,600,41660,41660,1512,2302,1444,-383,849,-694,2042,3821,41,9,817,1096,1216,775,1137,1375,1329,2000,1812
194643,46488,836,42128,42128,1343,2458,1314,-223,735,716,-493,3080,34,14,821,1096,1216,775,1137,1375,1329,2000,1812
195644,46684,1072,42596,42596,1600,2463,1256,-324,760,1371,1477,2960,43,5,820,1096,1216,775,1137,1375,1329,2000,1812
196645,46868,1292,43064,43064,1682,2569,1172,-255,923,-678,1197,4846,40,11,815,1096,1216,775,1137,1375,1329,2000,1812
197646,47060,1540,43532,43532,1638,2400,1017,49,836,-211,1190,4798,28,11,815,1080,1200,756,1127,1353,1340,2011,1787
198647,47256,1772,44000,44000,1620,2505,1025,44,785,-692,2222,2805,39,15,819,1080,1200,756,1127,1353,1340,2011,1787
199648,47452,2040,44468,44468,1627,2285,1042,77,845,-834,836,3464,33,8,815,1080,1200,756,1127,1353,1340,2011,1787
200649,47624,2328,44936,44936,1784,2165,954,165,865,-1056,1880,3181,24,28,820,1080,1200,756,1127,1353,1340,2011,1787
201650,47792,2604,45404,45404,1816,2244,813,242,885,-440,1289,2605,33,39,820,1080,1200,756,1127,1353,1340,2011,1787
202651,47984,2920,45872,45872,1673,1998,722,259,934,-455,1093,2369,30,23,818,1084,1195,763,1137,1375,1348,2013,1803
203652,48156,3184,46340,46340,1805,2328,591,326,859,338,1132,2149,35,40,824,1084,1195,763,1137,1375,1348,2013,1803
204653,48376,3484,46808,46808,1511,2107,518,275,840,-1266,1828,2666,25,15,818,1084,1195,763,1137,1375,1348,2013,1803
205654,48536,3780,47276,47276,1894,2136,365,465,698,-957,1203,4330,26,35,822,1084,1195,763,1137,1375,1348,2013,1803
206655,48704,4108,47744,47744,1851,1940,325,476,621,-543,798,2954,31,31,818,1084,1195,763,1137,1375,1348,2013,1803
207656,48864,4420,48212,48212,1909,2044,390,440,633,487,-426,1984,30,34,823,1084,1195,763,1137,1375,1348,2013,1803
208657,49028,4696,48680,48680,1891,2273,515,175,701,-1749,675,2740,32,29,821,1062,1167,755,1109,1367,1332,1959,1767
209658,49196,5024,49152,49152,1873,1952,444,67,574,-1266,1030,3806,18,22,818,1062,1167,755,1109,1367,1332,1959,1767
210659,49372,5392,49620,49620,1831,1704,389,-55,492,-750,508,3219,36,28,823,1062,1167,755,1109,1367,1332,1959,1767
211660,49536,5736,50088,50088,1913,1857,381,53,484,397,853,2754,28,37,828,1062,1167,755,1109,1367,1332,1959,1767
212661,49720,6084,50556,50556,1795,1835,476,150,523,-562,999,2952,29,44,824,1062,1167,755,1109,1367,1332,1959,1767
213662,49892,6464,51024,51024,1877,1637,443,309,450,-336,1726,3865,18,51,826,1052,1164,751,1104,1315,1282,1904,1736
214663,50060,6832,51492,51492,1909,1715,386,314,383,1170,640,2666,28,57,827,1052,1164,751,1104,1315,1282,1904,1736
215664,50196,7252,51960,51960,2118,1391,322,341,413,2040,657,2684,24,55,825,1052,1164,751,1104,1315,1282,1904,1736
216665,50340,7644,52428,52428,2075,1568,239,144,514,1292,1419,2045,13,64,824,1052,1164,751,1104,1315,1282,1904,1736
217666,50472,8016,52896,52896,2159,1695,95,148,515,629,1755,3485,23,62,824,1052,1164,751,1104,1315,1282,1904,1736
218667,50624,8444,53364,53364,2041,1346,-38,299,480,658,1860,2426,27,60,822,1052,1164,751,1104,1315,1282,1904,1736
219668,50796,8956,53832,53832,1924,820,-62,596,472,1186,1357,2855,23,56,828,1100,1220,769,1149,1302,1287,1948,1756
220669,50932,9388,54300,54300,2157,1321,24,856,494,1310,1646,2029,11,71,836,1100,1220,769,1149,1302,1287,1948,1756
221670,51060,9816,54768,54768,2215,1347,170,973,483,843,624,1845,18,65,827,1100,1220,769,1149,1302,1287,1948,1756
222671,51200,10284,55236,55236,2148,1097,269,868,435,-439,1574,2042,5,55,824,1100,1220,769,1149,1302,1287,1948,1756
223672,51316,10776,55704,55704,2307,946,326,661,411,-811,1227,2471,7,58,828,1100,1220,769,1149,1302,1287,1948,1756
224673,51456,11220,56172,56172,2165,1247,351,623,391,140,1349,2463,19,71,828,1112,1222,773,1171,1333,1320,1965,1722
225674,51584,11700,56640,56640,2248,1022,408,728,331,454,605,1996,4,72,828,1112,1222,773,1171,1333,1320,1965,1722
226675,51712,12144,57108,57108,2256,1247,493,871,272,-59,194,1939,5,80,828,1112,1222,773,1171,1333,1320,1965,1722
227676,51844,12628,57576,57576,2239,997,579,951,236,239,69,1926,10,80,825,1112,1222,773,1171,1333,1320,1965,1722
228677,51988,13184,58044,58044,2172,545,664,923,223,351,-848,1578,19,74,829,1112,1222,773,1171,1333,1320,1965,1722
229678,52152,13664,58512,58512,2055,1019,721,835,204,344,97,1971,20,83,833,1112,1222,773,1171,1333,1320,1965,1722
230679,52300,14196,58980,58980,2163,693,754,873,183,694,-201,2577,9,92,832,1099,1190,767,1174,1272,1269,1838,1611
231680,52444,14740,59448,59448,2195,616,788,1030,195,925,-56,2646,18,90,833,1099,1190,767,1174,1272,1269,1838,1611
232681,52580,15280,59916,59916,2254,639,813,1271,200,943,466,3276,14,88,833,1099,1190,767,1174,1272,1269,1838,1611
233682,52740,15800,60384,60384,2111,763,821,1480,207,1164,332,3123,27,100,832,1099,1190,767,1174,1272,1269,1838,1611
234683,52896,16368,60852,60852,2144,461,830,1671,158,844,518,3346,16,99,833,1099,1190,767,1174,1272,1269,1838,1611
235684,53040,16900,61320,61320,2227,684,826,1758,94,210,594,3093,29,85,836,1084,1163,750,1161,1221,1237,1807,1602
236685,53184,17448,61788,61788,2235,582,811,1811,89,860,236,3451,16,93,833,1084,1163,750,1161,1221,1237,1807,1602
237686,53332,17940,62256,62256,2217,931,805,1828,95,718,70,2926,12,80,834,1084,1163,750,1161,1221,1237,1807,1602
238687,53488,18476,62724,62724,2175,655,826,2056,19,1084,-349,2999,19,86,832,1084,1163,750,1161,1221,1237,1807,1602
239688,53640,18948,63192,63192,2208,1055,952,2258,-45,923,-81,2061,12,100,833,1084,1163,750,1161,1221,1237,1807,1602
240689,53812,19504,63660,63660,2090,528,1093,2631,-153,1504,-205,2476,29,85,828,1084,1163,750,1161,1221,1237,1807,1602
241690,53988,20096,64128,64128,2072,300,1266,2818,-227,1369,233,1440,33,101,836,1088,1177,760,1174,1306,1314,1959,1719
242691,54164,20600,64596,64596,2079,849,1394,2984,-253,1338,200,2473,19,109,837,1088,1177,760,1174,1306,1314,1959,1719
243692,54336,21116,65064,65064,2111,772,1342,3099,-358,1120,1042,2249,33,99,834,1088,1177,760,1174,1306,1314,1959,1719
244693,54552,21588,65536,65536,1843,1047,1188,3391,-434,687,-7,2719,24,102,834,1088,1177,760,1174,1306,1314,1959,1719
246695,54936,22652,66472,66472,1856,944,973,3840,-264,413,-64,2775,34,102,834,1112,1212,774,1188,1335,1329,1989,1746
247696,55152,23216,66940,66940,1862,467,886,4049,-173,437,-347,2140,36,103,838,1112,1212,774,1188,1335,1329,1989,1746
248697,55392,23724,67408,67408,1718,816,801,4232,-49,445,-638,2868,49,87,842,1112,1212,774,1188,1335,1329,1989,1746
249698,55648,24268,67876,67876,1623,589,749,4279,-23,421,-1009,2308,46,98,842,1112,1212,774,1188,1335,1329,1989,1746
250701,55904,24764,68344,68344,1628,888,683,4079,-6,2,-656,2832,47,104,844,1112,1212,774,1188,1335,1329,1989,1746
251700,56152,25252,68812,68812,1684,938,586,3963,-71,745,-736,3910,56,91,842,1112,1212,774,1188,1335,1329,1989,1746
252701,56412,25712,69280,69280,1614,1113,533,3870,-212,1197,-1017,3429,52,85,841,1075,1165,751,1134,1370,1348,1996,1768
253702,56680,26188,69748,69748,1569,1013,558,3641,-323,63,-1042,3052,56,106,839,1075,1165,751,1134,1370,1348,1996,1768
254703,56960,26660,70216,70216,1498,1038,566,3638,-448,-172,-256,5558,46,91,842,1075,1165,751,1134,1370,1348,1996,1768
255704,57232,27084,70684,70684,1553,1339,520,3501,-644,791,-876,3724,50,90,843,1075,1165,751,1134,1370,1348,1996,1768
256705,57524,27532,71152,71152,1432,1189,453,3310,-722,740,-599,4969,66,69,839,1075,1165,751,1134,1370,1348,1996,1768
257706,57796,27980,71620,71620,1562,1190,218,3201,-782,2059,-536,4975,58,96,841,1026,1131,735,1087,1396,1361,2049,1861
258707,58104,28420,72088,72088,1341,1241,67,3048,-799,1879,-195,3965,59,81,839,1026,1131,735,1087,1396,1361,2049,1861
259708,58444,28820,72556,72556,1144,1492,-64,2873,-759,1946,-30,4141,60,80,842,1026,1131,735,1087,1396,1361,2049,1861
260709,58748,29224,73024,73024,1373,1469,-151,2706,-730,1447,143,4122,65,78,839,1026,1131,735,1087,1396,1361,2049,1861
261710,59024,29612,73492,73492,1553,1571,-314,2507,-676,1543,113,3365,66,73,840,1026,1131,735,1087,1396,1361,2049,1861
262711,59336,30028,73960,73960,1332,1397,-506,2436,-558,999,-377,4014,56,77,835,1026,1131,735,1087,1396,1361,2049,1861
263712,59648,30420,74428,74428,1335,1549,-651,2224,-449,518,-198,3346,65,74,841,1070,1219,762,1116,1422,1372,2154,2001
264713,60004,30772,74896,74896,1063,1802,-662,1912,-371,1205,224,2513,56,75,838,1070,1219,762,1116,1422,1372,2154,2001
265714,60328,31160,75364,75364,1267,1579,-642,1316,-240,242,901,2195,60,71,837,1070,1219,762,1116,1422,1372,2154,2001
266715,60632,31544,75832,75832,1396,1606,-693,1109,-206,278,200,3941,72,73,839,1070,1219,762,1116,1422,1372,2154,2001
267716,60964,31928,76300,76300,1224,1608,-696,982,-197,308,-353,2850,70,77,837,1070,1219,762,1116,1422,1372,2154,2001
268717,61300,32308,76768,76768,1202,1635,-541,769,-187,508,672,3278,70,66,839,1126,1310,787,1132,1420,1328,2116,1955
269718,61628,32692,77236,77236,1256,1612,-461,450,-193,608,1036,3299,58,71,839,1126,1310,787,1132,1420,1328,2116,1955
270719,61952,33048,77704,77704,1284,1790,-358,31,-192,486,495,3642,61,69,837,1126,1310,787,1132,1420,1328,2116,1955
271720,62292,33464,78172,78172,1187,1416,-323,-392,-189,674,1492,4250,61,63,835,1126,1310,787,1132,1420,1328,2116,1955
272721,62624,33816,78640,78640,1241,1819,-371,-590,-224,339,1062,5313,72,65,841,1126,1310,787,1132,1420,1328,2116,1955
273722,62952,34176,79108,79108,1269,1771,-453,-689,-273,674,2429,5200,61,66,835,1126,1310,787,1132,1420,1328,2116,1955
274723,63300,34552,79576,79576,1147,1674,-429,-1001,-280,1412,1602,3999,56,60,834,1153,1336,782,1127,1270,1197,1875,1747
275724,63668,34948,80044,80044,1024,1550,-395,-1273,-277,1078,1888,4926,62,70,838,1153,1336,782,1127,1270,1197,1875,1747
276725,63992,35308,80512,80512,1303,1778,-346,-1594,-208,219,1826,4105,74,64,841,1153,1336,782,1127,1270,1197,1875,1747
277726,64332,35668,80980,80980,1206,1781,-344,-1854,-108,815,1294,5222,60,73,835,1153,1336,782,1127,1270,1197,1875,1747
278727,64664,36036,81448,81448,1259,1733,-348,-2263,7,545,1724,4154,58,58,834,1153,1336,782,1127,1270,1197,1875,1747
279728,65044,36376,81920,81920,962,1911,-329,-2625,125,-148,1400,4856,61,53,835,1173,1329,787,1153,1246,1214,1881,1765
280729,65412,36780,82388,82388,1039,1513,-226,-2852,283,-295,700,4023,65,67,837,1173,1329,787,1153,1246,1214,1881,1765
281730,65756,37128,82856,82856,1192,1866,-35,-2961,426,374,578,4050,80,50,842,1173,1329,787,1153,1246,1214,1881,1765
282731,66124,37464,83324,83324,1044,1944,134,-2985,520,526,719,4950,71,71,835,1173,1329,787,1153,1246,1214,1881,1765
283732,66496,37816,83792,83792,1022,1847,337,-3037,657,586,959,4531,76,66,836,1173,1329,787,1153,1246,1214,1881,1765
284733,66880,38220,84260,84260,949,1524,491,-3048,796,-376,211,4822,77,64,837,1173,1329,787,1153,1246,1214,1881,1765
285734,67268,38568,84728,84728,926,1876,658,-3151,842,-982,1946,4537,67,64,842,1167,1312,796,1166,1340,1296,2012,1837
286735,67644,38900,85196,85196,1003,1980,798,-3350,981,-1214,-108,3961,83,58,838,1167,1312,796,1166,1340,1296,2012,1837
287736,68020,39276,85664,85664,1005,1707,911,-3602,1050,-864,2743,3563,81,61,836,1167,1312,796,1166,1340,1296,2012,1837
288737,68360,39660,86132,86132,1233,1659,937,-3752,1141,-1404,1251,3496,68,52,840,1167,1312,796,1166,1340,1296,2012,1837
289738,68776,40024,86600,86600,760,1787,902,-3739,1120,-929,2457,3924,67,69,837,1167,1312,796,1166,1340,1296,2012,1837
290739,69168,40388,87068,87068,912,1789,814,-3665,1135,-953,2668,3813,68,54,840,1172,1318,796,1182,1330,1270,1973,1773
291740,69552,40744,87536,87536,964,1842,721,-3576,1330,-1360,1571,4416,86,66,838,1172,1318,796,1182,1330,1270,1973,1773
292741,69904,41132,88004,88004,1166,1644,667,-3395,1465,-482,1612,5494,92,63,839,1172,1318,796,1182,1330,1270,1973,1773
293742,70312,41544,88472,88472,818,1495,673,-3251,1536,-520,1255,5259,81,62,840,1172,1318,796,1182,1330,1270,1973,1773
294743,70720,41920,88940,88940,819,1722,684,-3080,1658,-612,1867,6033,73,71,845,1172,1318,796,1182,1330,1270,1973,1773
295744,71124,42308,89408,89408,846,1649,710,-2844,1805,5,52,5039,72,73,841,1172,1318,796,1182,1330,1270,1973,1773
296745,71496,42700,89876,89876,1048,1626,692,-2467,1905,-346,1605,6742,72,56,842,1139,1267,773,1138,1326,1280,1956,1777
297746,71896,43200,90344,90344,875,950,650,-2094,2055,-286,638,4832,78,64,841,1139,1267,773,1138,1326,1280,1956,1777
298747,72300,43636,90812,90812,851,1351,627,-1519,2237,575,-611,5484,79,64,851,1139,1267,773,1138,1326,1280,1956,1777
299748,72712,44072,91280,91280,803,1352,612,-985,2302,673,124,3811,90,78,847,1139,1267,773,1138,1326,1280,1956,1777
300750,73152,44528,91748,91748,629,1227,659,-603,2294,429,-497,3485,85,75,847,1139,1267,773,1138,1326,1280,1956,1777
301750,73536,45056,92216,92216,981,776,590,-433,2314,-50,-429,2418,79,84,850,1095,1200,768,1144,1394,1370,2030,1780
302751,73900,45584,92684,92684,1108,774,499,-210,2311,-18,-960,2436,81,87,852,1095,1200,768,1144,1394,1370,2030,1780
303752,74312,46084,93152,93152,809,949,395,-5,2242,-99,-677,1539,75,91,851,1095,1200,768,1144,1394,1370,2030,1780
304753,74716,46624,93620,93620,861,697,310,56,2194,-794,-1935,1417,80,98,853,1095,1200,768,1144,1394,1370,2030,1780
305754,75136,47180,94088,94088,762,595,178,304,2146,-874,-423,2590,77,94,854,1095,1200,768,1144,1394,1370,2030,1780
306755,75552,47876,94556,94556,788,-286,137,507,2160,-899,187,2819,86,89,856,1095,1200,768,1144,1394,1370,2030,1780
307756,75972,48332,95024,95024,765,1214,98,673,2247,-497,1196,2631,83,102,858,1071,1141,754,1149,1386,1374,1989,1705
308757,76412,48828,95492,95492,640,964,31,799,2452,-497,765,2859,78,91,850,1071,1141,754,1149,1386,1374,1989,1705
309758,76784,49304,95960,95960,1068,1089,-130,1049,2631,-1828,1126,2931,75,100,853,1071,1141,754,1149,1386,1374,1989,1705
310759,77212,49948,96428,96428,719,34,-275,1458,2691,-2563,-337,2727,83,99,849,1071,1141,754,1149,1386,1374,1989,1705
311760,77584,50496,96896,96896,1071,632,-359,1968,2659,-2208,-125,2366,89,105,860,1071,1141,754,1149,1386,1374,1989,1705
312761,77988,51020,97364,97364,873,781,-428,2472,2605,-1502,222,4076,84,116,853,1016,1088,722,1113,1323,1312,1895,1647
313762,78404,51532,97832,97832,799,855,-512,2654,2633,-667,-219,3802,76,108,853,1016,1088,722,1113,1323,1312,1895,1647
314763,78820,52084,98304,98304,800,603,-665,3003,2737,-861,-855,4746,90,94,854,1016,1088,722,1113,1323,1312,1895,1647
315764,79264,52684,98772,98772,626,300,-669,3366,2828,-1374,-296,2941,75,118,856,1016,1088,722,1113,1323,1312,1895,1647
316765,79644,53212,99240,99240,1028,748,-472,3754,2797,-1132,759,2445,77,114,860,1016,1088,722,1113,1323,1312,1895,1647
317766,80012,53700,99708,99708,1105,998,-223,4152,2687,371,392,2315,79,112,854,1016,1088,722,1113,1323,1312,1895,1647
318767,80384,54228,100176,100176,1083,746,-186,4501,2596,722,-69,1391,70,109,850,1031,1114,741,1144,1312,1312,1890,1643
319768,80772,54804,100644,100644,985,444,-153,4706,2504,410,188,1346,83,103,852,1031,1114,741,1144,1312,1312,1890,1643
320769,81208,55328,101112,101112,685,767,-201,4990,2422,426,479,709,68,111,855,1031,1114,741,1144,1312,1312,1890,1643
321770,81584,55840,101580,101580,1063,841,-224,5234,2435,1024,93,1313,70,112,856,1031,1114,741,1144,1312,1312,1890,1643
322771,81944,56380,102048,102048,1165,664,-339,5496,2473,912,970,1355,89,109,853,1031,1114,741,1144,1312,1312,1890,1643
323772,82332,56972,102516,102516,992,336,-456,5754,2451,916,1158,1245,79,111,852,1143,1212,791,1241,1250,1271,1824,1587
324773,82708,57464,102984,102984,1070,961,-527,6008,2366,236,1149,1213,79,99,856,1143,1212,791,1241,1250,1271,1824,1587
325774,83112,57940,103452,103452,896,1061,-580,6298,2285,363,-229,1150,86,108,849,1143,1212,791,1241,1250,1271,1824,1587
326775,83500,58428,103920,103920,998,985,-540,6576,2051,1716,58,446,83,105,852,1143,1212,791,1241,1250,1271,1824,1587
327776,83880,58908,104388,104388,1050,1035,-484,6612,1907,-297,1796,855,75,114,852,1143,1212,791,1241,1250,1271,1824,1587
328777,84248,59448,104856,104856,1128,658,-561,6474,2022,-1573,-598,1494,82,97,850,1143,1212,791,1241,1250,1271,1824,1587
329778,84672,59900,105324,105324,779,1208,-724,6435,2025,-1088,2386,2850,80,96,852,1128,1180,765,1179,1250,1273,1830,1625
330779,85076,60328,105792,105792,905,1359,-979,6509,1904,-978,1425,2626,75,101,852,1128,1180,765,1179,1250,1273,1830,1625
331780,85412,60724,106260,106260,1333,1561,-1064,6443,1885,-1055,-93,2770,70,90,848,1128,1180,765,1179,1250,1273,1830,1625
332781,85756,61136,106728,106728,1287,1463,-1193,6065,1855,-1590,1071,3311,83,86,842,1128,1180,765,1179,1250,1273,1830,1625
333782,86140,61512,107196,107196,1039,1690,-1302,5558,1723,-2818,1194,4735,75,89,844,1128,1180,765,1179,1250,1273,1830,1625
334783,86556,61868,107664,107664,840,1818,-1392,4988,1560,-3427,-1027,4578,86,85,842,1000,1070,712,1064,1401,1408,2068,1884
335784,87008,62188,108132,108132,615,2046,-1392,4070,1435,-3698,-766,5619,74,84,842,1000,1070,712,1064,1401,1408,2068,1884
336785,87436,62512,108600,108600,766,2025,-1609,3451,1548,-3228,-1961,5702,79,64,840,1000,1070,712,1064,1401,1408,2068,1884
337786,87856,62768,109068,109068,817,2455,-1688,2424,1392,1718,-1030,3894,83,56,839,1000,1070,712,1064,1401,1408,2068,1884
338787,88312,63020,109536,109536,593,2485,-1680,1277,1501,-1361,-3192,3927,91,46,832,1000,1070,712,1064,1401,1408,2068,1884
339788,88808,63248,110004,110004,342,2641,-1583,395,1364,807,-2004,3522,95,25,833,1000,1070,712,1064,1401,1408,2068,1884
340789,89404,63480,110472,110472,-286,2622,-1481,-48,1054,-698,-2995,3595,85,14,831,979,1110,741,1066,1615,1548,2415,2280
341790,89940,63648,110940,110940,87,3029,-1396,-334,626,84,-995,3085,97,-5,829,979,1110,741,1066,1615,1548,2415,2280
342791,90384,63808,111408,111408,663,3087,-1432,-386,352,1869,-1075,4643,104,-6,819,979,1110,741,1066,1615,1548,2415,2280
343792,90804,63956,111876,111876,814,3169,-1604,-523,180,3226,148,3921,91,-58,817,979,1110,741,1066,1615,1548,2415,2280
344793,91268,64096,112344,112344,539,3227,-1909,-728,15,3752,458,4741,85,-58,813,979,1110,741,1066,1615,1548,2415,2280
345794,91792,64236,112812,112812,163,3235,-2252,-1186,-175,3399,1386,3949,90,-83,811,1193,1478,830,1171,1423,1321,2211,2207
346795,92280,64364,113280,113280,387,3319,-2622,-1613,-350,3400,2398,5025,100,-101,815,1193,1478,830,1171,1423,1321,2211,2207
347796,92784,64484,113748,113748,286,3377,-2909,-2050,-580,2957,3170,6248,104,-112,812,1193,1478,830,1171,1423,1321,2211,2207
348797,93292,64588,114216,114216,260,3486,-3145,-2425,-762,1889,3070,6046,93,-182,810,1193,1478,830,1171,1423,1321,2211,2207
349798,93768,64696,114688,114688,460,3470,-3288,-2944,-800,150,1859,6483,96,-225,808,1193,1478,830,1171,1423,1321,2211,2207
350799,94200,64792,115156,115156,736,3554,-3329,-3664,-686,-1482,-1479,4824,89,-285,800,1193,1478,830,1171,1423,1321,2211,2207
351800,94548,64888,115624,115624,1264,3563,-3173,-4394,-552,-2452,-1957,6171,115,-285,803,1307,1601,835,1191,1347,1282,2141,2108
352801,95112,65012,116092,116092,-88,3397,-2867,-5288,-516,-3728,-1840,4670,112,-280,798,1307,1601,835,1191,1347,1282,2141,2108
353802,95676,65100,116560,116560,-91,3631,-2454,-6060,-623,-3734,-1259,6747,97,-271,803,1307,1601,835,1191,1347,1282,2141,2108
354803,96168,65220,117028,117028,359,3439,-2033,-6979,-671,-4347,-2280,5410,106,-206,802,1307,1601,835,1191,1347,1282,2141,2108
355804,96752,65316,117496,117496,-219,3598,-1743,-7852,-700,-4108,-578,6602,117,-174,806,1307,1601,835,1191,1347,1282,2141,2108
356805,97256,65428,117964,117964,280,3507,-1455,-8718,-791,-3038,-256,5271,107,-235,803,1167,1367,795,1150,1354,1301,2008,1840
357806,97732,65548,118432,118432,455,3466,-1125,-9321,-897,-2017,-242,5023,93,-223,805,1167,1367,795,1150,1354,1301,2008,1840
358807,98232,65696,118900,118900,304,3298,-981,-9619,-935,-2134,32,4957,95,-267,806,1167,1367,795,1150,1354,1301,2008,1840
359808,98688,65876,119368,119368,579,3105,-936,-9575,-982,-1467,701,6153,109,-234,809,1167,1367,795,1150,1354,1301,2008,1840
360809,99228,66060,119836,119836,53,3087,-807,-9708,-1007,433,1035,2536,96,-122,812,1167,1367,795,1150,1354,1301,2008,1840
361810,99704,66260,120304,120304,452,2994,-609,-9920,-863,1029,537,2636,92,-83,817,1167,1367,795,1150,1354,1301,2008,1840
362811,100160,66468,120772,120772,578,2950,-577,-10042,-775,1263,2234,4785,97,-74,813,1205,1349,807,1233,1170,1176,1733,1551
363812,100644,66676,121240,121240,402,2957,-733,-10332,-730,506,2301,2648,96,-63,819,1205,1349,807,1233,1170,1176,1733,1551
364813,101132,66888,121708,121708,377,2938,-816,-10588,-652,-742,2353,3020,94,-43,820,1205,1349,807,1233,1170,1176,1733,1551
365814,101656,67144,122176,122176,150,2668,-866,-10962,-580,-1247,2431,1160,87,-31,822,1205,1349,807,1233,1170,1176,1733,1551
366815,102092,67440,122644,122644,701,2422,-761,-11299,-518,-1632,2042,2211,99,-22,827,1205,1349,807,1233,1170,1176,1733,1551
367816,102544,67800,123112,123112,602,2025,-567,-11545,-611,-717,1714,1160,108,6,829,1258,1339,810,1252,1172,1194,1752,1567
368817,102988,68116,123580,123580,652,2304,-208,-11622,-726,366,149,3024,98,21,837,1258,1339,810,1252,1172,1194,1752,1567
369818,103464,68448,124048,124048,452,2207,240,-11413,-551,-2771,-1770,3165,95,39,832,1258,1339,810,1252,1172,1194,1752,1567
370819,103996,68868,124516,124516,100,1658,622,-11060,-192,-7129,204,3557,90,41,836,1258,1339,810,1252,1172,1194,1752,1567
371820,104444,69304,124984,124984,626,1559,945,-11564,-508,-973,1608,-110,88,37,845,1258,1339,810,1252,1172,1194,1752,1567
372821,104908,69708,125452,125452,526,1760,1247,-12331,-549,401,-1491,2621,95,61,845,1258,1339,810,1252,1172,1194,1752,1567
373822,105388,70092,125920,125920,426,1887,1129,-11780,301,-2670,-2561,3941,94,54,843,1096,1170,748,1108,1267,1241,1809,1633
374823,105808,70584,126388,126388,802,1212,731,-10319,733,5456,-1359,4233,103,62,842,1096,1170,748,1108,1267,1241,1809,1633
375824,106328,71128,126856,126856,176,885,170,-8728,1012,6736,-949,10210,98,69,849,1096,1170,748,1108,1267,1241,1809,1633
376825,106732,71648,127324,127324,902,1034,-1060,-7999,1062,8760,3831,4505,88,85,855,1096,1170,748,1108,1267,1241,1809,1633
377826,107152,72116,127792,127792,803,1359,-2075,-7714,1315,2025,1648,7490,83,95,850,1096,1170,748,1108,1267,1241,1809,1633
378827,107524,72636,128260,128260,1106,1033,-2372,-6511,1056,5199,-546,9197,89,89,847,1006,1092,704,1019,1427,1403,2163,1938
379828,107944,73300,128728,128728,807,128,-2144,-5815,975,2722,-1662,5418,70,93,847,1006,1092,704,1019,1427,1403,2163,1938
380829,108308,73952,129196,129196,1159,198,-1912,-5555,1019,1744,-2122,6393,66,91,858,1006,1092,704,1019,1427,1403,2163,1938
381830,108636,74556,129664,129664,1388,495,-1595,-5442,991,-387,-2783,6819,72,104,854,1006,1092,704,1019,1427,1403,2163,1938
382831,108960,75228,130132,130132,1416,65,-1415,-5027,1182,-4147,-4351,6087,69,96,849,1006,1092,704,1019,1427,1403,2163,1938
383832,109268,75780,130600,130600,1520,813,-1152,-5078,1445,-4627,-5559,2675,61,100,851,1006,1092,704,1019,1427,1403,2163,1938
384833,109548,76476,131072,131072,1700,-93,-1020,-5034,1552,-5563,-2895,4177,67,90,845,925,996,730,1146,1977,2022,2770,2095
385834,109860,77140,131540,131540,1504,103,-1102,-4901,1548,-5011,-3258,5335,52,104,846,925,996,730,1146,1977,2022,2770,2095
386835,110128,77720,132008,132008,1784,625,-1422,-4360,1620,-2159,-952,6229,59,95,849,925,996,730,1146,1977,2022,2770,2095
387836,110372,78352,132476,132476,1939,296,-1669,-3752,1884,436,-1487,7406,50,90,843,925,996,730,1146,1977,2022,2770,2095
388837,110576,79004,132944,132944,2196,166,-2157,-2853,2111,1346,-1146,8092,44,103,842,925,996,730,1146,1977,2022,2770,2095
389838,110788,79516,133412,133412,2152,1040,-2660,-1925,2247,1223,-1027,8881,28,105,838,1124,1150,837,1466,1545,1632,2244,1678
390839,111004,80044,133880,133880,2133,939,-3191,-1123,2327,2261,-691,8199,36,104,832,1124,1150,837,1466,1545,1632,2244,1678
391840,111196,80644,134348,134348,2290,486,-3655,-513,2354,3512,-1235,7711,19,92,832,1124,1150,837,1466,1545,1632,2244,1678
392841,111368,81212,134816,134816,2422,683,-4045,71,2246,3991,-826,6630,18,102,832,1124,1150,837,1466,1545,1632,2244,1678
393842,111532,81916,135284,135284,2479,-173,-4206,762,2060,3161,-1537,6883,26,109,827,1124,1150,837,1466,1545,1632,2244,1678
394843,111696,82540,135752,135752,2487,324,-4150,1405,1791,2992,-2041,5455,16,94,830,1124,1150,837,1466,1545,1632,2244,1678
395844,111860,83020,136220,136220,2494,1223,-3875,2127,1570,2865,-2321,6804,2,94,829,1322,1317,871,1456,1351,1401,2032,1672
396845,112024,83596,136688,136688,2502,621,-3379,2656,1446,2343,-3103,5811,3,96,822,1322,1317,871,1456,1351,1401,2032,1672
397846,112180,84232,137156,137156,2559,242,-2853,3031,1342,1486,-2986,6552,4,111,827,1322,1317,871,1456,1351,1401,2032,1672
398847,112352,84712,137624,137624,2466,1216,-2349,3309,1251,1425,-2384,5931,7,100,829,1322,1317,871,1456,1351,1401,2032,1672
399848,112520,85364,138092,138092,2499,137,-1924,3698,1192,717,-3074,5082,-6,94,824,1322,1317,871,1456,1351,1401,2032,1672
400849,112716,85828,138560,138560,2330,1312,-1599,3970,1080,306,-1385,4717,15,103,831,1155,1235,782,1207,1258,1222,1824,1616
401850,112876,86468,139028,139028,2563,208,-1277,4212,1134,1359,-1346,4140,12,121,826,1155,1235,782,1207,1258,1222,1824,1616
402851,113028,86992,139496,139496,2621,931,-1047,4623,1298,2147,-697,5197,16,112,829,1155,1235,782,1207,1258,1222,1824,1616
403852,113176,87540,139964,139964,2654,779,-989,5176,1440,1555,396,5134,2,111,823,1155,1235,782,1207,1258,1222,1824,1616
404853,113344,88092,140432,140432,2536,752,-1004,5546,1551,2439,1158,5573,6,113,823,1155,1235,782,1207,1258,1222,1824,1616
405854,113548,88672,140900,140900,2317,575,-1108,5908,1672,2496,1131,4523,-10,111,825,1140,1264,748,1192,1059,1072,1637,1502
406855,113716,89288,141368,141368,2550,346,-1197,6110,1691,2907,2172,4012,13,108,831,1140,1264,748,1192,1059,1072,1637,1502
407856,113904,89872,141836,141836,2431,543,-1284,6335,1626,3347,1651,4313,27,111,828,1140,1264,748,1192,1059,1072,1637,1502
408857,114056,90392,142304,142304,2664,942,-1267,6445,1496,3523,1423,3208,-1,108,829,1140,1264,748,1192,1059,1072,1637,1502
409858,114256,90952,142772,142772,2371,690,-1132,6526,1308,3110,779,2893,5,102,821,1140,1264,748,1192,1059,1072,1637,1502
410859,114436,91500,143240,143240,2503,763,-857,6565,1067,3141,-326,1965,5,113,828,1140,1264,748,1192,1059,1072,1637,1502
411860,114616,92064,143708,143708,2510,660,-470,6504,775,2798,-734,1854,9,108,827,1209,1315,788,1272,1213,1267,1931,1672
412861,114808,92580,144176,144176,2441,959,-36,6396,433,2706,-1556,1443,17,112,828,1209,1315,788,1272,1213,1267,1931,1672
413862,115028,93140,144644,144644,2273,682,463,6222,119,1835,-1935,1618,15,101,828,1209,1315,788,1272,1213,1267,1931,1672
414863,115232,93724,145112,145112,2379,529,959,6063,-229,2016,-1806,1488,12,109,832,1209,1315,788,1272,1213,1267,1931,1672
415864,115452,94216,145580,145580,2285,1104,1423,5985,-534,1890,-2011,1973,26,108,831,1209,1315,788,1272,1213,1267,1931,1672
416865,115644,94716,146048,146048,2467,1053,1792,5880,-788,1935,-2229,1582,21,103,827,1186,1250,815,1287,1316,1343,1907,1620
417866,115820,95204,146516,146516,2574,1127,2110,5851,-953,1684,-1575,2465,24,98,825,1186,1250,815,1287,1316,1343,1907,1620
418867,116020,95744,146984,146984,2430,800,2331,5695,-1057,1031,-1151,1189,23,107,820,1186,1250,815,1287,1316,1343,1907,1620
419868,116220,96288,147456,147456,2437,774,2549,5485,-1196,166,-36,1907,5,103,827,1186,1250,815,1287,1316,1343,1907,1620
420869,116452,96872,147924,147924,2243,521,2692,5278,-1313,-137,509,1923,26,115,827,1186,1250,815,1287,1316,1343,1907,1620
421870,116660,97372,148392,148392,2399,1045,2760,5023,-1437,1396,1258,2677,11,118,834,1186,1250,815,1287,1316,1343,1907,1620
422871,116828,97908,148860,148860,2657,818,2752,5090,-1388,418,1061,4025,25,120,825,1162,1230,776,1224,1092,1100,1602,1465
423872,117008,98468,149328,149328,2589,666,2759,5355,-1296,398,1734,4050,23,99,824,1162,1230,776,1224,1092,1100,1602,1465
424873,117204,99020,149796,149796,2495,714,2746,5267,-1175,1846,172,3043,-5,121,827,1162,1230,776,1224,1092,1100,1602,1465
425874,117416,99560,150264,150264,2401,787,2747,5182,-1105,2094,2324,4541,12,111,827,1162,1230,776,1224,1092,1100,1602,1465
426875,117612,100148,150732,150732,2508,484,2730,5079,-1180,2488,1708,4256,24,112,829,1162,1230,776,1224,1092,1100,1602,1465
427876,117816,100756,151200,151200,2465,356,2829,5101,-1289,2110,1267,5192,15,116,827,1111,1231,734,1109,1129,1117,1769,1702
428877,118036,101348,151668,151668,2371,453,2997,5181,-1475,3207,1443,5382,26,120,831,1111,1231,734,1109,1129,1117,1769,1702
429878,118248,101876,152136,152136,2427,852,3223,5323,-1621,3447,710,4462,32,109,832,1111,1231,734,1109,1129,1117,1769,1702
430879,118472,102480,152604,152604,2358,373,3569,5286,-1843,4924,-53,3823,24,120,827,1111,1231,734,1109,1129,1117,1769,1702
431880,118704,102988,153072,153072,2314,972,3918,5423,-2071,5384,8,4375,36,99,833,1111,1231,734,1109,1129,1117,1769,1702
432881,118940,103624,153540,153540,2294,168,4271,6007,-1935,1423,-1148,5286,39,115,831,1111,1231,734,1109,1129,1117,1769,1702
433882,119184,104192,154008,154008,2250,591,4652,6153,-1898,3031,-1506,3052,38,99,836,1096,1276,772,1122,1425,1372,2205,1997
434883,119440,104756,154476,154476,2180,613,4984,5670,-1732,1370,-2157,3686,46,104,834,1096,1276,772,1122,1425,1372,2205,1997
435884,119720,105328,154944,154944,2034,561,5034,5038,-1661,2337,629,2991,43,106,835,1096,1276,772,1122,1425,1372,2205,1997
436885,120008,105896,155412,155412,1989,583,4947,4410,-1658,3030,1504,1917,37,104,838,1096,1276,772,1122,1425,1372,2205,1997
437886,120304,106420,155880,155880,1943,857,4699,4138,-1775,2692,2730,2459,39,90,839,1096,1276,772,1122,1425,1372,2205,1997
438887,120608,106944,156348,156348,1897,856,4322,4537,-1655,-85,2396,3817,55,98,838,1224,1378,842,1284,1410,1374,2125,1844
439888,120916,107496,156816,156816,1876,679,3896,4873,-1334,886,-55,3681,66,94,839,1224,1378,842,1284,1410,1374,2125,1844
440889,121292,108072,157284,157284,1453,526,3593,4676,-1062,438,2102,4023,70,92,841,1224,1378,842,1284,1410,1374,2125,1844
441890,121660,108624,157752,157752,1506,674,3375,4285,-821,-152,522,4729,58,94,847,1224,1378,842,1284,1410,1374,2125,1844
442891,122032,109172,158220,158220,1483,697,3227,3588,-484,-921,1293,2969,68,94,846,1224,1378,842,1284,1410,1374,2125,1844
443892,122420,109712,158688,158688,1385,745,3099,3229,-180,694,476,6338,68,94,847,1224,1378,842,1284,1410,1374,2125,1844
444893,122852,110236,159156,159156,1111,844,2900,3060,122,364,-409,5381,86,102,846,1168,1250,787,1158,1444,1403,2091,1871
445894,123344,110828,159624,159624,735,416,2700,3023,368,-800,50,6347,85,102,850,1168,1250,787,1158,1444,1403,2091,1871
446895,123816,111356,160092,160092,860,814,2668,3071,504,-656,-671,5709,87,95,857,1168,1250,787,1158,1444,1403,2091,1871
447896,124272,111896,160560,160560,960,738,2840,2971,631,-786,-1542,4653,94,103,854,1168,1250,787,1158,1444,1403,2091,1871
448897,124732,112452,161028,161028,936,635,3010,2807,699,-482,-1274,5731,100,98,853,1168,1250,787,1158,1444,1403,2091,1871
449898,125240,113064,161496,161496,635,282,3114,2651,794,176,-1183,5333,106,106,855,963,1071,708,977,1556,1427,2143,1973
450899,125776,113604,161964,161964,458,730,3054,2698,875,1243,-82,6269,103,97,860,963,1071,708,977,1556,1427,2143,1973
451900,126304,114128,162432,162432,507,829,2960,2884,941,1838,440,5545,105,99,858,963,1071,708,977,1556,1427,2143,1973
452901,126808,114696,162900,162900,656,551,2806,3095,960,1946,1208,3938,108,96,857,963,1071,708,977,1556,1427,2143,1973
453902,127304,115252,163368,163368,705,624,2665,3072,1015,1634,1588,3279,121,96,857,963,1071,708,977,1556,1427,2143,1973
454903,127824,115740,163840,163840,554,1049,2492,3065,1133,1380,1073,3249,119,97,857,963,1071,708,977,1556,1427,2143,1973
455904,128408,116252,164308,164308,151,898,2224,3027,1320,1527,2024,3163,102,110,854,1000,1157,738,1057,1437,1341,2078,1892
456905,128964,116760,164776,164776,324,922,1978,3065,1563,909,2472,3197,113,102,857,1000,1157,738,1057,1437,1341,2078,1892
457906,129456,117284,165244,165244,723,820,1666,3010,1820,270,2387,2760,118,108,856,1000,1157,738,1057,1437,1341,2078,1892
458907,129928,117872,165712,165712,848,417,1406,3100,2069,-47,2321,1461,113,94,856,1000,1157,738,1057,1437,1341,2078,1892
459908,130432,118368,166180,166180,647,992,1122,3073,2361,-17,1396,1191,96,109,857,1000,1157,738,1057,1437,1341,2078,1892
460909,130984,118860,166648,166648,345,1016,904,3033,2606,-158,1558,572,109,94,854,1172,1325,810,1207,1355,1318,2031,1836
461910,131476,119380,167116,167116,720,840,716,2896,2861,-576,805,649,117,94,853,1172,1325,810,1207,1355,1318,2031,1836
462911,131972,119916,167584,167584,694,738,740,2859,3076,-512,80,1272,103,106,855,1172,1325,810,1207,1355,1318,2031,1836
463912,132456,120424,168052,168052,769,912,821,2568,3320,-1581,-718,622,99,103,856,1172,1325,810,1207,1355,1318,2031,1836
464913,132944,120920,168520,168520,743,987,1055,2348,3427,-1153,50,1690,102,111,854,1172,1325,810,1207,1355,1318,2031,1836
465914,133488,121456,168988,168988,391,735,1308,2348,3359,-592,-711,2451,104,110,854,1172,1325,810,1207,1355,1318,2031,1836
466915,133948,121992,169456,169456,916,733,1513,2345,3296,-1386,595,1408,105,100,858,1123,1221,769,1117,1341,1280,1872,1684
467916,134428,122500,169924,169924,791,907,1650,2223,3247,-656,315,2144,96,107,854,1123,1221,769,1117,1341,1280,1872,1684
468917,134880,122992,170392,170392,966,1007,1657,2134,3177,796,435,426,97,108,854,1123,1221,769,1117,1341,1280,1872,1684
469918,135368,123416,170860,170860,741,1433,1490,2359,2971,938,1357,1939,102,105,852,1123,1221,769,1117,1341,1280,1872,1684
470919,135884,123876,171328,171328,565,1208,1436,2393,2814,-1551,2007,2077,109,102,848,1123,1221,769,1117,1341,1280,1872,1684
471920,136396,124360,171796,171796,589,1058,1294,2226,2697,-1258,1168,1921,103,100,852,1014,1103,704,1032,1176,1150,1661,1535
472921,136860,124796,172264,172264,889,1358,1148,2171,2704,-1031,1320,3877,106,99,853,1014,1103,704,1032,1176,1150,1661,1535
473922,137356,125212,172732,172732,688,1485,910,2108,2756,-1699,640,1904,112,100,849,1014,1103,704,1032,1176,1150,1661,1535
474923,137816,125600,173200,173200,913,1662,579,1850,2691,-2575,1587,2229,107,98,848,1014,1103,704,1032,1176,1150,1661,1535
475926,138336,126032,173668,173668,537,1387,209,1509,2547,-2679,1367,2239,106,95,844,1014,1103,704,1032,1176,1150,1661,1535
476925,138880,126368,174136,174136,385,1991,-63,1150,2437,-3095,-600,337,106,87,849,1014,1103,704,1032,1176,1150,1661,1535
477926,139328,126720,174604,174604,986,1894,-287,718,2455,-3274,-941,1515,111,80,842,1001,1094,709,1059,1290,1307,1956,1856
478927,139776,127044,175072,175072,986,2072,-303,571,2572,-1292,-2366,2264,107,71,839,1001,1094,709,1059,1290,1307,1956,1856
479928,140256,127380,175540,175540,786,2000,-366,611,2674,-56,-2840,2060,88,74,837,1001,1094,709,1059,1290,1307,1956,1856
480929,140692,127676,176008,176008,1062,2254,-403,883,2762,116,-1746,3890,86,54,838,1001,1094,709,1059,1290,1307,1956,1856
481930,141232,127972,176476,176476,410,2259,-444,964,2776,312,-2531,722,96,64,833,1001,1094,709,1059,1290,1307,1956,1856
482931,141716,128224,176944,176944,760,2539,-521,1002,2632,-835,-2190,-172,109,42,836,1026,1163,760,1093,1640,1595,2473,2249
483932,142180,128496,177412,177412,885,2419,-651,908,2386,-2040,-1173,152,92,49,827,1026,1163,760,1093,1640,1595,2473,2249
484933,142644,128780,177880,177880,885,2348,-826,776,2121,-1842,-265,-1272,88,18,831,1026,1163,760,1093,1640,1595,2473,2249
485934,143088,129036,178348,178348,1010,2528,-1117,725,1855,-1220,-897,1718,94,20,832,1026,1163,760,1093,1640,1595,2473,2249
486935,143592,129280,178816,178816,634,2609,-1505,361,1651,-2210,630,752,104,29,827,1026,1163,760,1093,1640,1595,2473,2249
487936,144092,129512,179284,179284,659,2690,-1867,-86,1460,-2860,618,2393,86,25,827,1026,1163,760,1093,1640,1595,2473,2249
488937,144580,129764,179752,179752,733,2570,-2232,-680,1278,-3026,518,1901,88,4,825,1073,1217,765,1114,1549,1486,2254,1998
489938,145068,129988,180224,180224,733,2751,-2645,-1145,1054,-3398,811,3482,88,9,823,1073,1217,765,1114,1549,1486,2254,1998
490939,145572,130216,180692,180692,632,2732,-3006,-1497,809,-3136,1748,3141,99,13,824,1073,1217,765,1114,1549,1486,2254,1998
491940,146104,130436,181160,181160,455,2788,-3397,-1742,651,-2038,1111,4150,102,-12,825,1073,1217,765,1114,1549,1486,2254,1998
492941,146592,130652,181628,181628,730,2819,-3688,-1829,609,-1181,930,3732,85,-10,821,1073,1217,765,1114,1549,1486,2254,1998
493942,147072,130856,182096,182096,780,2900,-3981,-1953,617,-586,1260,4383,88,-18,823,1008,1131,713,1024,1376,1338,1975,1873
494943,147568,131056,182564,182564,679,2932,-4254,-2011,559,-659,-751,4932,105,-24,820,1008,1131,713,1024,1376,1338,1975,1873
495944,148092,131240,183032,183032,503,3039,-4417,-2121,489,-1151,-718,4144,98,-27,817,1008,1131,713,1024,1376,1338,1975,1873
496945,148648,131432,183500,183500,300,2996,-4460,-2108,462,-545,-1533,5095,96,-30,817,1008,1131,713,1024,1376,1338,1975,1873
497946,149156,131608,183968,183968,599,3103,-4523,-2028,448,197,-1648,4985,98,-63,819,1008,1131,713,1024,1376,1338,1975,1873
498947,149704,131748,184436,184436,347,3336,-4496,-2075,406,-765,-791,4694,103,-59,814,1008,1131,713,1024,1376,1338,1975,1873
499948,150260,131848,184904,184904,295,3595,-4454,-2233,301,-874,-746,3276,102,-81,810,972,1093,723,1031,1446,1421,2087,1920
500949,150784,131976,185372,185372,494,3428,-4335,-2516,222,-1970,-1321,3362,111,-156,799,972,1093,723,1031,1446,1421,2087,1920
501950,151292,132096,185840,185840,593,3487,-4224,-2928,242,-4280,288,2711,99,-229,807,972,1093,723,1031,1446,1421,2087,1920
502951,151768,132232,186308,186308,793,3395,-4104,-3470,161,-3096,293,2298,109,-247,806,972,1093,723,1031,1446,1421,2087,1920
503952,152248,132364,186776,186776,767,3428,-4058,-3977,161,-4199,600,3093,108,-263,806,972,1093,723,1031,1446,1421,2087,1920
504953,152756,132508,187244,187244,591,3361,-4051,-4310,67,-4206,2263,3737,101,-224,805,1101,1217,797,1224,1395,1380,2065,1780
505954,153300,132644,187712,187712,365,3419,-4100,-4523,-18,-3577,2304,2698,101,-253,803,1101,1217,797,1224,1395,1380,2065,1780
506955,153892,132792,188180,188180,62,3352,-4115,-4698,-39,-3436,3629,3371,116,-173,805,1101,1217,797,1224,1395,1380,2065,1780
507956,154376,132876,188648,188648,736,3761,-4207,-4740,-97,-2884,4424,3143,114,-212,807,1101,1217,797,1224,1395,1380,2065,1780
508957,154876,132972,189116,189116,635,3695,-4246,-4752,-214,-2357,4572,3172,108,-165,792,1101,1217,797,1224,1395,1380,2065,1780
509958,155400,133152,189584,189584,484,3177,-4266,-4616,-441,-892,2132,2164,122,153,795,1101,1217,797,1224,1395,1380,2065,1780
511960,156516,133364,190520,190520,330,3445,-3936,-5220,96,-3645,3829,7523,109,-82,796,1295,1418,842,1319,1226,1223,1861,1650
512961,157120,133564,190988,190988,-24,3076,-4072,-4719,-254,-251,355,6522,114,242,802,1295,1418,842,1319,1226,1223,1861,1650
513962,157684,133832,191456,191456,224,2656,-3612,-5368,-263,-199,517,702,114,-197,817,1295,1418,842,1319,1226,1223,1861,1650
514963,158236,134176,191924,191924,297,2184,-2938,-6161,295,-3136,676,4506,122,-49,827,1295,1418,842,1319,1226,1223,1861,1650
515964,158848,134492,192392,192392,-82,2363,-2700,-6221,412,336,-155,8243,120,6,836,1230,1344,799,1183,1198,1175,1771,1666
516965,159488,134812,192860,192860,-261,2342,-2335,-6718,623,2378,-306,3090,106,45,833,1230,1344,799,1183,1198,1175,1771,1666
517966,160020,135100,193328,193328,413,2546,-1778,-7128,917,2498,-771,5206,121,21,832,1230,1344,799,1183,1198,1175,1771,1666
518967,160496,135436,193796,193796,762,2249,-1275,-7316,914,-463,1750,6401,117,20,828,1230,1344,799,1183,1198,1175,1771,1666
519968,161072,135776,194264,194264,135,2227,-948,-7348,857,-1759,-765,5972,98,8,830,1230,1344,799,1183,1198,1175,1771,1666
520969,161640,136092,194732,194732,182,2381,-668,-7365,830,115,315,4660,99,23,835,1230,1344,799,1183,1198,1175,1771,1666
521970,162280,136404,195200,195200,-272,2410,-296,-7409,1051,734,589,1901,110,36,834,1154,1314,781,1136,1181,1132,1761,1653
522971,162828,136696,195668,195668,301,2539,-67,-7460,1021,2614,2441,2343,111,29,832,1154,1314,781,1136,1181,1132,1761,1653
523972,163344,137048,196136,196136,500,2167,43,-7690,1051,-745,3624,2457,114,25,830,1154,1314,781,1136,1181,1132,1761,1653
524973,163880,137392,196608,196608,374,2220,-132,-7708,1049,-2639,3812,2772,97,7,835,1154,1314,781,1136,1181,1132,1761,1653
525974,164400,137744,197076,197076,472,2173,-115,-7715,1034,-1811,3938,1640,108,31,835,1154,1314,781,1136,1181,1132,1761,1653
526975,164980,138116,197544,197544,95,2050,50,-7762,1118,213,2692,655,114,37,835,1261,1433,809,1231,1167,1151,1820,1650
527976,165544,138544,198012,198012,192,1701,367,-7954,1263,-191,1979,1410,104,28,839,1261,1433,809,1231,1167,1151,1820,1650
528977,166028,139032,198480,198480,692,1326,700,-8097,1277,635,2712,2715,94,42,845,1261,1433,809,1231,1167,1151,1820,1650
529978,166512,139568,198948,198948,691,1024,812,-7718,1736,-3542,-27,1861,116,64,845,1261,1433,809,1231,1167,1151,1820,1650
530979,167112,140056,199416,199416,-37,1324,806,-6971,2206,-3814,2905,-991,109,79,851,1261,1433,809,1231,1167,1151,1820,1650
531980,167652,140636,199884,199884,336,746,811,-6628,2111,245,1075,-4049,109,79,851,1261,1433,809,1231,1167,1151,1820,1650
532981,168104,141212,200352,200352,887,768,739,-7059,1774,1674,-90,-3510,102,81,857,1201,1307,784,1203,1235,1251,1829,1606
533982,168616,141824,200820,200820,511,540,439,-7363,1623,1297,844,800,119,91,853,1201,1307,784,1203,1235,1251,1829,1606
534983,169136,142416,201288,201288,459,662,319,-7569,1573,1863,-233,-635,99,95,858,1201,1307,784,1203,1235,1251,1829,1606
535984,169652,143000,201756,201756,483,709,509,-7724,1449,2325,-2464,-11,113,85,858,1201,1307,784,1203,1235,1251,1829,1606
536985,170188,143560,202224,202224,357,857,871,-7769,1355,227,-2777,-53,103,90,858,1201,1307,784,1203,1235,1251,1829,1606
537986,170696,144136,202692,202692,531,754,1405,-8063,1237,-702,-3323,110,124,85,856,986,1016,692,1015,1308,1303,1742,1550
538987,171192,144676,203160,203160,605,977,1936,-8504,1159,-1613,-3728,1429,118,95,857,986,1016,692,1015,1308,1303,1742,1550
539988,171728,145208,203628,203628,353,1026,2342,-8770,1148,-726,-4191,3307,97,99,854,986,1016,692,1015,1308,1303,1742,1550
540989,172248,145836,204096,204096,452,422,2497,-8108,1485,3077,-5292,6616,121,105,855,986,1016,692,1015,1308,1303,1742,1550
541990,172784,146380,204564,204564,350,945,2017,-7401,2243,5085,-1848,5906,108,104,860,986,1016,692,1015,1308,1303,1742,1550
542991,173280,146928,205032,205032,600,918,1000,-7254,2808,5950,676,7860,94,98,857,986,1016,692,1015,1308,1303,1742,1550
543992,173712,147424,205500,205500,1001,1242,-226,-6025,3063,4371,1771,13283,100,103,854,883,947,654,980,1188,1178,1720,1597
544993,174136,148072,205968,205968,1052,288,-1228,-4628,3108,3700,2627,9472,89,98,849,883,947,654,980,1188,1178,1720,1597
545994,174516,148780,206436,206436,1329,-93,-1640,-3617,2937,5970,2426,7932,83,100,855,883,947,654,980,1188,1178,1720,1597
546995,174900,149388,206904,206904,1306,529,-1989,-2905,2845,5298,1085,7620,78,125,850,883,947,654,980,1188,1178,1720,1597
547996,175256,149912,207372,207372,1484,1052,-2301,-2201,2851,3257,-924,7735,63,107,850,883,947,654,980,1188,1178,1720,1597
548997,175584,150648,207840,207840,1662,-279,-2399,-1558,2941,-61,-2804,6651,74,109,843,1042,1159,776,1227,1908,1984,3168,2527
549998,175888,151216,208308,208308,1816,768,-2203,-1189,3033,153,-4414,3694,55,106,846,1042,1159,776,1227,1908,1984,3168,2527
550999,176164,151768,208776,208776,1996,866,-1763,-1208,3198,-1681,-3542,3303,53,113,841,1042,1159,776,1227,1908,1984,3168,2527
552000,176448,152332,209244,209244,1950,789,-1402,-1154,3116,-2806,-3342,3309,43,115,838,1042,1159,776,1227,1908,1984,3168,2527
553001,176668,152876,209712,209712,2356,912,-1203,-621,2799,-2220,-3154,4814,37,108,837,1042,1159,776,1227,1908,1984,3168,2527
554002,176880,153476,210180,210180,2412,559,-1020,58,2716,-254,-2664,5453,43,126,829,1042,1159,776,1227,1908,1984,3168,2527
555003,177068,154048,210648,210648,2569,731,-1036,657,2879,1678,-2480,6928,28,108,830,1244,1312,946,1588,2326,2346,3237,2234
556004,177236,154652,211116,211116,2702,528,-1320,1223,3112,1760,-1517,9425,12,121,825,1244,1312,946,1588,2326,2346,3237,2234
557005,177392,155248,211584,211584,2784,575,-1705,1676,3342,1573,-1226,9208,1,121,821,1244,1312,946,1588,2326,2346,3237,2234
558006,177556,155868,212052,212052,2742,421,-2114,2164,3531,3297,-505,9949,-8,122,821,1244,1312,946,1588,2326,2346,3237,2234
559007,177712,156464,212520,212520,2799,568,-2536,2713,3644,4982,196,10825,-21,118,822,1244,1312,946,1588,2326,2346,3237,2234
560008,177844,157000,212992,212992,2958,941,-3044,3399,3734,5880,699,11510,-7,110,818,1326,1297,877,1515,1306,1355,1824,1450
561009,178012,157540,213460,213460,2740,915,-3488,4039,3784,5168,84,11495,-34,118,816,1326,1297,877,1515,1306,1355,1824,1450
562010,178168,158096,213928,213928,2823,813,-3690,4589,3716,4253,-345,11338,-45,118,820,1326,1297,877,1515,1306,1355,1824,1450
563011,178324,158696,214396,214396,2830,534,-3574,4940,3663,3352,-1482,10610,-22,117,820,1326,1297,877,1515,1306,1355,1824,1450
564012,178472,159232,214864,214864,2888,933,-3220,5187,3624,2883,-3127,10472,-36,120,819,1326,1297,877,1515,1306,1355,1824,1450
565013,178620,159748,215332,215332,2896,1057,-2784,5358,3503,1949,-3056,9112,-23,114,817,1326,1297,877,1515,1306,1355,1824,1450
566014,178784,160324,215800,215800,2803,679,-2231,5379,3296,828,-3528,7215,-38,109,815,1117,1131,747,1175,1145,1169,1680,1514
567015,178968,160856,216268,216268,2685,952,-1634,5530,3046,548,-3550,6310,-32,102,820,1117,1131,747,1175,1145,1169,1680,1514
568016,179152,161404,216736,216736,2692,850,-995,5558,2819,542,-3425,4644,-22,110,821,1117,1131,747,1175,1145,1169,1680,1514
569017,179336,161896,217204,217204,2699,1200,-464,5673,2573,1589,-2164,5076,-7,106,821,1117,1131,747,1175,1145,1169,1680,1514
570018,179536,162420,217672,217672,2606,998,-3,5784,2384,2198,-1075,4396,-10,112,818,1117,1131,747,1175,1145,1169,1680,1514
571019,179748,162976,218140,218140,2537,796,292,5961,2283,3224,191,4662,7,109,822,1107,1255,772,1192,1186,1153,1849,1712
572020,179940,163492,218608,218608,2669,1045,385,6080,2276,3798,760,4088,-2,106,824,1107,1255,772,1192,1186,1153,1849,1712
573021,180144,163996,219076,219076,2600,1119,428,6158,2236,4284,2569,3374,16,108,821,1107,1255,772,1192,1186,1153,1849,1712
574022,180340,164496,219544,219544,2657,1143,453,6211,2216,4432,2992,2449,-9,107,822,1107,1255,772,1192,1186,1153,1849,1712
575023,180564,165048,220012,220012,2488,816,505,6102,2235,4310,3105,1631,9,103,822,1107,1255,772,1192,1186,1153,1849,1712
576024,180788,165556,220480,220480,2494,1090,452,6077,2164,4179,4045,2575,0,111,825,1107,1255,772,1192,1186,1153,1849,1712
577025,181004,166048,220948,220948,2550,1190,470,6035,2046,4249,3402,2497,15,110,824,1399,1643,866,1378,1148,1144,1898,1794
578026,181216,166548,221416,221416,2581,1139,613,5847,2003,4021,2163,2820,19,93,821,1399,1643,866,1378,1148,1144,1898,1794
579027,181416,167124,221884,221884,2662,661,889,5646,1941,3667,1448,3749,9,112,821,1399,1643,866,1378,1148,1144,1898,1794
580028,181616,167636,222352,222352,2669,1060,1257,5270,1861,2799,63,3479,6,104,823,1399,1643,866,1378,1148,1144,1898,1794
581029,181824,168128,222820,222820,2625,1185,1759,4740,1710,2190,68,4158,5,95,819,1399,1643,866,1378,1148,1144,1898,1794
582030,182068,168612,223288,223288,2406,1234,2412,4027,1527,1698,-1670,4642,13,94,818,1356,1534,842,1250,1236,1203,1877,1760
583031,182292,169092,223756,223756,2537,1259,3043,3279,1229,2101,-194,6299,9,98,824,1356,1534,842,1250,1236,1203,1877,1760
584032,182492,169628,224224,224224,2693,907,3614,2787,977,2008,-1436,7194,16,81,821,1356,1534,842,1250,1236,1203,1877,1760
585033,182672,170096,224692,224692,2825,1332,4115,2431,791,1464,-2294,6871,16,81,822,1356,1534,842,1250,1236,1203,1877,1760
586034,182892,170616,225160,225160,2581,1006,4487,2132,637,1455,-568,6628,-5,94,815,1356,1534,842,1250,1236,1203,1877,1760
587035,183140,171100,225628,225628,2412,1231,4851,1992,469,2835,-269,6671,-5,87,822,1356,1534,842,1250,1236,1203,1877,1760
588036,183356,171572,226096,226096,2618,1306,5124,1833,321,2351,-527,5051,12,80,823,1148,1300,779,1118,1158,1098,1676,1602
589037,183580,172052,226564,226564,2574,1255,5205,1802,244,1785,1696,6488,33,80,819,1148,1300,779,1118,1158,1098,1676,1602
590038,183804,172508,227032,227032,2580,1406,5127,1841,274,2691,1626,5793,7,84,820,1148,1300,779,1118,1158,1098,1676,1602
591039,184020,172976,227500,227500,2636,1331,4907,1969,288,2923,1814,5798,14,84,818,1148,1300,779,1118,1158,1098,1676,1602
592040,184292,173532,227968,227968,2291,779,4675,2223,271,2116,3607,5704,16,92,820,1148,1300,779,1118,1158,1098,1676,1602
593041,184560,174036,228436,228436,2321,1103,4563,2267,280,1797,1961,4395,10,83,831,1205,1382,795,1198,1163,1153,1871,1761
594042,184812,174576,228904,228904,2426,876,4510,2198,235,1144,3936,4459,47,89,828,1205,1382,795,1198,1163,1153,1871,1761
595043,185068,175116,229376,229376,2406,874,4507,2087,256,937,1148,4298,30,97,828,1205,1382,795,1198,1163,1153,1871,1761
596044,185332,175744,229844,229844,2361,320,4566,2089,230,1150,706,3443,42,91,828,1205,1382,795,1198,1163,1153,1871,1761
597045,185640,176260,230312,230312,2090,1019,4724,1921,33,2531,1409,2749,34,90,832,1205,1382,795,1198,1163,1153,1871,1761
598046,185928,176760,230780,230780,2220,1118,4993,2006,-76,2530,-261,2885,36,101,830,1205,1382,795,1198,1163,1153,1871,1761
599047,186216,177348,231248,231248,2224,565,5222,2615,-39,1002,-977,4261,46,101,831,1201,1356,815,1218,1533,1497,2407,2114
600048,186500,177940,231716,231716,2253,537,5357,3375,-49,1259,-2664,4273,46,110,835,1201,1356,815,1218,1533,1497,2407,2114
601049,186808,178536,232184,232184,2107,509,5597,3636,-69,1734,-1732,3531,58,97,835,1201,1356,815,1218,1533,1497,2407,2114
602050,187176,179080,232652,232652,1735,832,5769,3732,-194,3609,-741,3904,59,93,838,1201,1356,815,1218,1533,1497,2407,2114
603051,187544,179632,233120,233120,1737,780,5676,3621,-89,379,1033,3167,52,109,841,1201,1356,815,1218,1533,1497,2407,2114
604052,187928,180188,233588,233588,1639,753,5257,3827,31,298,1821,4319,68,102,841,1093,1201,779,1169,1487,1433,2081,1763
605053,188332,180864,234056,234056,1516,-2,4769,4147,184,-894,599,4249,68,109,844,1093,1201,779,1169,1487,1433,2081,1763
606054,188772,181400,234524,234524,1291,871,4282,4424,347,-1222,493,3856,78,110,850,1093,1201,779,1169,1487,1433,2081,1763
607055,189252,181972,234992,234992,1041,644,3912,4385,312,-1026,-311,3764,98,107,847,1093,1201,779,1169,1487,1433,2081,1763
608056,189756,182536,235460,235460,890,692,3413,4401,278,-1492,-660,4283,87,114,851,1093,1201,779,1169,1487,1433,2081,1763
609057,190328,183152,235928,235928,463,363,2964,4165,419,-1313,79,5563,98,116,853,1093,1201,779,1169,1487,1433,2081,1763
610058,190860,183748,236396,236396,711,485,2464,4178,644,-163,-738,5504,106,107,859,1009,1061,715,1075,1359,1349,1906,1696
611059,191384,184304,236864,236864,760,733,2196,4125,840,-306,-686,4112,120,113,857,1009,1061,715,1075,1359,1349,1906,1696
612060,191996,184836,237332,237332,206,881,2187,4340,884,486,-2444,3180,111,109,855,1009,1061,715,1075,1359,1349,1906,1696
613061,192520,185396,237800,237800,755,704,2347,4597,828,1309,-2930,1438,102,113,857,1009,1061,715,1075,1359,1349,1906,1696
614062,193044,185988,238268,238268,754,501,2541,4919,725,1878,-2665,2890,120,114,856,1009,1061,715,1075,1359,1349,1906,1696
615063,193584,186544,238736,238736,652,724,2673,5248,649,1800,-2301,2704,119,111,854,918,997,697,988,1545,1468,2121,1923
616064,194108,187080,239204,239204,750,847,2678,5590,577,1980,-2136,2855,118,108,856,918,997,697,988,1545,1468,2121,1923
617065,194776,187644,239672,239672,-154,670,2686,5861,514,1725,-337,2194,125,120,855,918,997,697,988,1545,1468,2121,1923
618066,195340,188240,240140,240140,493,467,2660,6098,525,1749,1137,552,118,123,859,918,997,697,988,1545,1468,2121,1923
619067,195904,188756,240608,240608,491,965,2528,6130,597,1807,1828,-170,132,105,859,918,997,697,988,1545,1468,2121,1923
620068,196492,189260,241076,241076,338,1040,2166,6401,571,2255,477,-659,120,119,856,918,997,697,988,1545,1468,2121,1923
621069,197048,189784,241544,241544,536,913,1696,6661,473,170,1852,-1563,131,121,856,1005,1135,742,1102,1372,1308,1976,1757
622070,197664,190324,242012,242012,157,811,1207,6423,465,-1811,2869,-1615,121,107,855,1005,1135,742,1102,1372,1308,1976,1757
623071,198204,190824,242480,242480,630,1061,666,6161,459,-1299,1908,285,103,104,858,1005,1135,742,1102,1372,1308,1976,1757
624072,198736,191280,242948,242948,679,1336,94,5899,409,-1479,2427,28,104,107,854,1005,1135,742,1102,1372,1308,1976,1757
625073,199260,191728,243416,243416,728,1386,-368,5695,409,-1902,1951,791,120,116,850,1005,1135,742,1102,1372,1308,1976,1757
626074,199768,192188,243884,243884,827,1312,-688,5207,507,-2075,519,964,107,99,849,1119,1247,757,1128,1265,1248,1904,1800
627075,200320,192624,244352,244352,550,1462,-872,4668,622,-1842,87,1780,102,99,849,1119,1247,757,1128,1265,1248,1904,1800
628076,200816,193016,244820,244820,899,1739,-1010,4167,777,-1305,-1917,1771,113,101,848,1119,1247,757,1128,1265,1248,1904,1800
629077,201340,193396,245288,245288,722,1816,-935,4049,847,-639,-2410,2912,123,85,843,1119,1247,757,1128,1265,1248,1904,1800
630078,201860,193752,245760,245760,746,1969,-762,3966,799,-243,-2985,2762,109,85,843,1119,1247,757,1128,1265,1248,1904,1800
631079,202392,194136,246228,246228,670,1796,-627,3882,575,-347,-3584,3442,117,66,839,963,1082,700,960,1463,1387,2076,2008
632080,202940,194452,246696,246696,568,2225,-677,4061,270,-256,-2619,5032,112,64,841,963,1082,700,960,1463,1387,2076,2008
633081,203480,194752,247164,247164,616,2329,-766,4024,61,629,-2530,2166,126,63,837,963,1082,700,960,1463,1387,2076,2008
634082,203992,195024,247632,247632,790,2509,-1041,4146,-179,2021,-1916,3650,103,55,833,963,1082,700,960,1463,1387,2076,2008
635083,204492,195316,248100,248100,864,2388,-1293,3956,-365,-282,162,1314,100,37,829,963,1082,700,960,1463,1387,2076,2008
636084,204976,195556,248568,248568,964,2719,-1687,3474,-561,-436,120,2409,106,33,827,963,1082,700,960,1463,1387,2076,2008
637085,205468,195804,249036,249036,913,2674,-2116,3004,-840,-1319,-185,2357,116,33,823,950,1093,711,1013,1482,1441,2175,2005
638086,205964,196060,249504,249504,887,2629,-2629,2540,-1082,-2730,1036,2700,105,12,824,950,1093,711,1013,1482,1441,2175,2005
639087,206480,196296,249972,249972,761,2760,-3067,2323,-1272,-2415,512,3315,101,10,824,950,1093,711,1013,1482,1441,2175,2005
640088,206944,196500,250440,250440,1086,2966,-3394,1908,-1352,-2431,1843,1889,109,13,821,950,1093,711,1013,1482,1441,2175,2005
641089,207488,196692,250908,250908,585,3048,-3665,1401,-1425,-2492,441,1750,97,-4,815,950,1093,711,1013,1482,1441,2175,2005
642090,207984,196896,251376,251376,884,2980,-4068,1063,-1486,-2630,1084,2652,87,-31,816,1050,1190,756,1123,1547,1543,2362,2124
643091,208460,197076,251844,251844,1009,3137,-4262,553,-1500,-2272,198,1188,91,-48,815,1050,1190,756,1123,1547,1543,2362,2124
644092,208948,197224,252312,252312,933,3344,-4430,427,-1496,-2642,-268,1815,98,-52,810,1050,1190,756,1123,1547,1543,2362,2124
645093,209440,197344,252780,252780,908,3528,-4325,272,-1430,-3761,467,2795,111,-73,805,1050,1190,756,1123,1547,1543,2362,2124
646094,209976,197464,253248,253248,631,3536,-4198,14,-1361,-3364,-1830,2948,100,-158,801,1050,1190,756,1123,1547,1543,2362,2124
647095,210520,197552,253716,253716,579,3746,-3936,-449,-1181,-4345,-1002,3893,104,-272,802,1050,1190,756,1123,1547,1543,2362,2124
648096,211104,197684,254184,254184,326,3479,-3689,-1061,-1064,-4170,-987,5017,109,-276,796,1084,1216,781,1143,1507,1457,2151,1913
649097,211596,197796,254652,254652,901,3613,-3438,-1456,-1067,-3607,-311,4505,105,99,804,1084,1216,781,1143,1507,1457,2151,1913
650098,212124,197928,255120,255120,674,3496,-3193,-1681,-1077,-3180,385,4953,98,-250,799,1084,1216,781,1143,1507,1457,2151,1913
651099,212640,198056,255588,255588,748,3529,-3154,-1456,-1180,-2305,1739,5755,94,-216,803,1084,1216,781,1143,1507,1457,2151,1913
652100,213160,198216,256056,256056,722,3337,-3208,-1287,-1283,-1974,1764,4625,114,-249,800,1084,1216,781,1143,1507,1457,2151,1913
653101,213756,198312,256524,256524,244,3746,-3394,-1083,-1362,-1769,2115,5082,119,-254,804,1176,1322,806,1212,1184,1162,1728,1564
654102,214304,198388,256992,256992,542,3800,-3491,-1169,-1392,-1905,2942,4421,111,-163,794,1176,1322,806,1212,1184,1162,1728,1564
655103,214856,198492,257460,257460,515,3714,-3623,-1262,-1484,-1324,1853,4599,106,74,792,1176,1322,806,1212,1184,1162,1728,1564
656104,215368,198568,257928,257928,764,3800,-3638,-1643,-1477,-2128,2532,3721,124,263,793,1176,1322,806,1212,1184,1162,1728,1564
657105,215980,198644,258396,258396,135,3800,-3654,-2179,-1331,-3168,3388,4885,118,5,789,1176,1322,806,1212,1184,1162,1728,1564
658106,216532,198756,258864,258864,508,3692,-3708,-2353,-1419,-2110,2622,5398,117,246,793,1176,1322,806,1212,1184,1162,1728,1564
659107,217004,198892,259332,259332,1008,3550,-3550,-2671,-1473,-2714,277,3092,115,276,795,1280,1376,822,1280,1191,1229,1857,1669
660108,217584,199056,259800,259800,330,3383,-3153,-3355,-1270,-4600,459,2718,127,-88,797,1280,1376,822,1280,1191,1229,1857,1669
661109,218136,199280,260268,260268,503,3013,-2732,-3840,-1053,-4900,984,4609,109,-237,807,1280,1376,822,1280,1191,1229,1857,1669
662110,218652,199536,260736,260736,727,2819,-2405,-4111,-917,-3044,-1112,5369,119,-189,817,1280,1376,822,1280,1191,1229,1857,1669
663111,219212,199784,261204,261204,450,2874,-1991,-4558,-745,-1347,-644,3900,109,-41,820,1280,1376,822,1280,1191,1229,1857,1669
664112,219808,200088,261672,261672,222,2528,-1436,-5211,-447,-2477,523,3577,119,-16,822,1202,1303,810,1222,1391,1390,2130,1894
665113,220388,200436,262144,262144,319,2256,-1042,-5383,-328,-1884,-634,4719,114,-21,828,1202,1303,810,1222,1391,1390,2130,1894
666114,220904,200788,262612,262612,718,2234,-711,-5648,-247,-1244,1189,1964,120,28,828,1202,1303,810,1222,1391,1390,2130,1894
667115,221408,201172,263080,263080,792,2036,-453,-5682,-82,748,583,3098,116,29,832,1202,1303,810,1222,1391,1390,2130,1894
668116,222032,201556,263548,263548,38,2038,-318,-5657,190,-569,2111,2292,112,34,835,1202,1303,810,1222,1391,1390,2130,1894
669117,222644,201976,264016,264016,110,1814,-410,-5236,151,647,3496,4562,109,41,839,1202,1303,810,1222,1391,1390,2130,1894
670118,223240,202400,264484,264484,206,1790,-555,-4968,147,-14,1806,713,115,56,843,1210,1368,807,1211,1269,1220,1894,1696
671119,223876,202840,264952,264952,-48,1691,-729,-4755,159,1270,3513,1957,118,54,844,1210,1368,807,1211,1269,1220,1894,1696
672120,224544,203264,265420,265420,-253,1792,-973,-4950,315,-869,3110,1199,116,58,845,1210,1368,807,1211,1269,1220,1894,1696
673121,225272,203736,265888,265888,-634,1492,-1370,-4944,391,-836,4339,2901,123,60,843,1210,1368,807,1211,1269,1220,1894,1696
674122,225840,204252,266356,266356,364,1216,-1597,-4922,227,109,2142,690,119,63,844,1210,1368,807,1211,1269,1220,1894,1696
675123,226336,204760,266824,266824,813,1265,-1529,-5152,25,-207,1728,315,106,68,851,1183,1288,770,1144,1233,1217,1796,1635
676124,226840,205308,267292,267292,762,1013,-1230,-5735,49,-1215,-1638,840,116,74,848,1183,1288,770,1144,1233,1217,1796,1635
677125,227328,205848,267760,267760,862,1061,-1025,-5838,117,-1401,-1624,4185,102,76,851,1183,1288,770,1144,1233,1217,1796,1635
678126,228020,206472,268228,268228,-419,532,-728,-5979,161,-980,-2792,1422,122,77,850,1183,1288,770,1144,1233,1217,1796,1635
679127,228600,207076,268696,268696,278,654,-341,-5716,366,-3431,-3373,2315,126,82,856,1183,1288,770,1144,1233,1217,1796,1635
680128,229180,207616,269164,269164,276,1052,95,-5748,376,-1416,-1974,-1037,116,85,858,1183,1288,770,1144,1233,1217,1796,1635
681129,229716,208188,269632,269632,549,850,335,-5764,444,1095,-1770,817,124,91,854,983,1051,712,1040,1312,1305,1807,1615
682130,230344,208820,270100,270100,-30,471,413,-5757,705,1552,-2618,198,125,94,855,983,1051,712,1040,1312,1305,1807,1615
683131,230956,209412,270568,270568,67,718,379,-5346,745,2519,42,2774,115,96,858,983,1051,712,1040,1312,1305,1807,1615
684132,231484,209980,271036,271036,590,865,269,-5082,688,2574,482,-566,112,101,859,983,1051,712,1040,1312,1305,1807,1615
685133,232064,210528,271504,271504,262,988,206,-5218,674,1117,1946,-855,114,105,856,983,1051,712,1040,1312,1305,1807,1615
686134,232632,211136,271972,271972,335,610,49,-5594,573,-1090,2245,-1556,111,104,855,995,1057,709,1102,1205,1223,1739,1530
687135,233188,211756,272440,272440,408,531,-208,-5885,367,-1675,2125,-394,107,106,858,995,1057,709,1102,1205,1223,1739,1530
688136,233732,212372,272908,272908,481,552,-445,-6043,224,-1200,1943,-1366,104,108,859,995,1057,709,1102,1205,1223,1739,1530
689137,234240,212928,273376,273376,705,925,-531,-5935,128,140,1699,-288,128,96,859,995,1057,709,1102,1205,1223,1739,1530
690138,234764,213500,273844,273844,604,823,-531,-5804,78,-690,1093,-856,119,107,854,995,1057,709,1102,1205,1223,1739,1530
691139,235340,214148,274312,274312,276,343,-458,-5889,31,-1728,539,-539,102,108,855,995,1057,709,1102,1205,1223,1739,1530
692140,235872,214680,274780,274780,549,1067,-375,-6053,-34,-1980,239,-511,125,93,860,1065,1148,733,1134,1247,1243,1852,1664
693141,236432,215304,275248,275248,372,488,-333,-6242,-86,-1076,-53,-937,130,122,854,1065,1148,733,1134,1247,1243,1852,1664
694142,236996,215884,275716,275716,345,760,-323,-6213,-68,-85,-701,-439,108,108,859,1065,1148,733,1134,1247,1243,1852,1664
695143,237544,216556,276184,276184,443,180,-314,-6089,-27,1049,-958,-1475,122,97,858,1065,1148,733,1134,1247,1243,1852,1664
696144,238112,217036,276652,276652,315,1380,-209,-5880,28,832,-1821,-1146,130,115,861,1065,1148,733,1134,1247,1243,1852,1664
697145,238628,217604,277120,277120,639,828,-122,-5603,45,927,-1864,-418,119,111,853,1072,1181,751,1098,1304,1261,1867,1733
698146,239268,218152,277588,277588,-140,951,-22,-5465,59,1099,-1602,62,117,102,855,1072,1181,751,1098,1304,1261,1867,1733
699147,239820,218732,278056,278056,408,748,13,-5244,47,1639,-1342,1265,119,111,857,1072,1181,751,1098,1304,1261,1867,1733
700148,240324,219320,278528,278528,707,695,3,-5154,36,1556,-400,83,123,122,856,1072,1181,751,1098,1304,1261,1867,1733
701150,240860,219980,278996,278996,506,240,-28,-5062,65,1249,-855,638,109,115,856,1072,1181,751,1098,1304,1261,1867,1733
702150,241388,220516,279464,279464,554,1014,-102,-5009,109,1139,25,-197,101,115,860,1072,1181,751,1098,1304,1261,1867,1733
703151,241992,221088,279932,279932,76,786,-178,-4920,122,1132,-314,507,118,114,855,1030,1135,723,1055,1251,1228,1788,1630
704152,242496,221656,280400,280400,700,809,-230,-5014,102,864,839,657,111,122,858,1030,1135,723,1055,1251,1228,1788,1630
705153,243012,222256,280868,280868,624,605,-284,-5030,41,1015,-332,123,100,105,855,1030,1135,723,1055,1251,1228,1788,1630
706154,243488,222776,281336,281336,874,1104,-179,-5031,-240,3256,785,1290,101,120,857,1030,1135,723,1055,1251,1228,1788,1630
707155,243988,223308,281804,281804,723,1028,-58,-4345,-138,-824,-1349,3316,105,118,852,1030,1135,723,1055,1251,1228,1788,1630
708156,244440,223920,282272,282272,1023,524,243,-4381,55,182,-2150,48,107,109,852,1003,1088,704,1071,1237,1244,1794,1570
709157,244808,224504,282740,282740,1551,696,536,-4064,45,3025,862,5867,83,107,853,1003,1088,704,1071,1237,1244,1794,1570
710158,245160,224992,283208,283208,1653,1296,348,-3214,348,1781,-3193,6335,84,117,846,1003,1088,704,1071,1237,1244,1794,1570
711159,245476,225572,283676,283676,1882,718,-25,-2232,604,4823,110,10507,63,118,839,1003,1088,704,1071,1237,1244,1794,1570
712160,245720,226092,284144,284144,2338,1092,-416,-1355,869,4290,-741,8679,45,105,840,1003,1088,704,1071,1237,1244,1794,1570
713161,245968,226744,284612,284612,2318,262,-722,-526,1148,4065,-2639,11250,42,117,830,1003,1088,704,1071,1237,1244,1794,1570
714162,246184,227304,285080,285080,2524,835,-1071,128,1289,3512,-1168,11420,33,115,834,1077,1140,761,1255,1347,1442,2131,1727
715163,246360,227848,285548,285548,2781,933,-1200,767,1229,1463,-977,11426,19,119,826,1077,1140,761,1255,1347,1442,2131,1727
716164,246504,228444,286016,286016,2989,605,-1027,1114,1136,-1648,-1534,9759,1,111,820,1077,1140,761,1255,1347,1442,2131,1727
717165,246636,229076,286484,286484,3072,376,-735,1385,1125,-1980,-2495,11282,-13,129,814,1077,1140,761,1255,1347,1442,2131,1727
718166,246744,229632,286952,286952,3231,849,-519,1706,1223,-1390,-3070,11842,-46,123,814,1077,1140,761,1255,1347,1442,2131,1727
719167,246836,230152,287420,287420,3340,1073,-325,1874,1418,-1673,-3036,11249,-87,118,808,1264,1277,914,1643,1911,2116,3054,2136
720168,246920,230704,287888,287888,3400,871,-92,1910,1643,-1667,-3674,9966,-159,114,803,1264,1277,914,1643,1911,2116,3054,2136
721169,247020,231292,288356,288356,3309,643,213,1838,1801,-1877,-1898,9388,-232,120,801,1264,1277,914,1643,1911,2116,3054,2136
722170,247108,231844,288824,288824,3393,866,452,1887,1912,-1052,-1697,10406,-269,106,799,1264,1277,914,1643,1911,2116,3054,2136
723171,247232,232404,289292,289292,3176,813,510,2023,2019,1038,-1622,11340,-194,121,802,1264,1277,914,1643,1911,2116,3054,2136
724172,247332,232908,289760,289760,3335,1162,409,2573,2166,2803,-914,13811,-249,105,807,1264,1277,914,1643,1911,2116,3054,2136
725173,247456,233464,290228,290228,3194,835,271,3375,2357,3806,-1075,13786,-112,107,801,1535,1519,1034,1878,1767,1861,2762,2001
726174,247540,233972,290696,290696,3453,1134,116,4263,2600,4335,-255,13503,-213,94,805,1535,1519,1034,1878,1767,1861,2762,2001
727175,247624,234500,291164,291164,3462,1008,31,4957,2832,4763,-272,13866,-135,109,798,1535,1519,1034,1878,1767,1861,2762,2001
728176,247704,235004,291632,291632,3497,1157,-134,5556,3038,4916,378,13233,-322,106,798,1535,1519,1034,1878,1767,1861,2762,2001
729177,247792,235512,292100,292100,3456,1131,-177,6013,3217,4429,-779,13523,-328,98,797,1535,1519,1034,1878,1767,1861,2762,2001
730178,247908,236076,292568,292568,3290,779,-130,6329,3338,3359,-365,12817,-322,98,798,1512,1565,925,1496,1376,1356,2104,1797
731179,248044,236612,293036,293036,3173,952,164,6454,3463,1868,-827,11866,-318,102,805,1512,1565,925,1496,1376,1356,2104,1797
732180,248172,237048,293504,293504,3231,1578,513,6464,3558,917,-1208,11238,-219,98,808,1512,1565,925,1496,1376,1356,2104,1797
733181,248388,237512,293972,293972,2687,1403,1006,6313,3573,-536,-1363,10363,-139,77,803,1512,1565,925,1496,1376,1356,2104,1797
734182,248544,238024,294440,294440,3070,1102,1500,5933,3575,-437,-854,10512,-152,85,811,1512,1565,925,1496,1376,1356,2104,1797
735183,248740,238520,294912,294912,2827,1201,1866,5559,3586,5,-1316,10069,-1,83,811,1512,1565,925,1496,1376,1356,2104,1797
736184,248944,239016,295380,295380,2783,1201,2089,5425,3544,-123,-79,10724,-56,92,814,1223,1382,791,1167,1230,1151,1846,1747
737185,249168,239492,295848,295848,2664,1325,2256,5516,3494,1502,231,9690,0,88,815,1223,1382,791,1167,1230,1151,1846,1747
738186,249412,240000,296316,296316,2545,1124,2490,5614,3451,2782,1105,9097,-3,93,816,1223,1382,791,1167,1230,1151,1846,1747
739187,249656,240564,296784,296784,2550,772,2722,5727,3515,3181,1294,8533,7,93,822,1223,1382,791,1167,1230,1151,1846,1747
740188,249912,241064,297252,297252,2480,1171,2917,5799,3521,3276,1437,7927,20,83,826,1223,1382,791,1167,1230,1151,1846,1747
741189,250184,241532,297720,297720,2385,1371,3171,5692,3536,1827,1835,6164,33,92,825,1234,1481,813,1187,1192,1140,1878,1831
742190,250476,242056,298188,298188,2264,1020,3430,5465,3613,1651,2387,4807,29,78,824,1234,1481,813,1187,1192,1140,1878,1831
743191,250792,242588,298656,298656,2118,968,3710,5152,3742,1958,1495,3929,51,93,828,1234,1481,813,1187,1192,1140,1878,1831
744192,251116,243116,299124,299124,2072,992,3935,4797,3761,2765,2567,2695,53,93,831,1234,1481,813,1187,1192,1140,1878,1831
745193,251420,243660,299592,299592,2201,890,4121,4541,3634,3426,3331,2432,59,103,833,1234,1481,813,1187,1192,1140,1878,1831
746194,251756,244184,300060,300060,2004,1014,4256,4611,3745,84,2188,2133,62,95,833,1234,1481,813,1187,1192,1140,1878,1831
747195,252092,244792,300528,300528,2007,485,4307,4849,3931,7,1745,2878,56,91,835,1389,1614,885,1330,1237,1214,1935,1797
748196,252508,245312,300996,300996,1508,1034,4397,4684,4053,244,2811,1883,60,104,839,1389,1614,885,1330,1237,1214,1935,1797
749197,252872,245860,301464,301464,1836,857,4429,4441,4226,-1113,1364,2943,72,103,841,1389,1614,885,1330,1237,1214,1935,1797
750198,253260,246372,301932,301932,1688,1081,4390,4064,4406,-1487,2085,572,75,99,840,1389,1614,885,1330,1237,1214,1935,1797
751199,253704,246876,302400,302400,1338,1130,4471,3605,4527,-1266,325,1787,85,94,838,1389,1614,885,1330,1237,1214,1935,1797
752200,254164,247480,302868,302868,1239,502,4552,3325,4535,-1542,43,1164,93,109,844,1259,1360,808,1186,1263,1235,1827,1663
753201,254676,248020,303336,303336,912,900,4657,2855,4542,-2276,423,1407,104,97,850,1259,1360,808,1186,1263,1235,1827,1663
754202,255156,248556,303804,303804,1112,923,4737,2633,4456,-1243,-677,3146,91,100,851,1259,1360,808,1186,1263,1235,1827,1663
755203,255648,249140,304272,304272,1037,620,4874,2455,4328,-1458,-44,2532,94,113,850,1259,1360,808,1186,1263,1235,1827,1663
756204,256160,249744,304740,304740,911,492,5107,2540,4174,-1191,-598,3711,92,106,852,1259,1360,808,1186,1263,1235,1827,1663
757205,256672,250256,305208,305208,909,1066,5332,2695,3972,-402,388,3033,108,114,854,1259,1360,808,1186,1263,1235,1827,1663
758206,257236,250836,305676,305676,582,638,5476,2880,3778,196,912,2395,117,103,851,971,1050,683,968,1269,1209,1743,1606
759207,257744,251368,306144,306144,931,937,5484,3177,3579,1456,70,2860,100,118,856,971,1050,683,968,1269,1209,1743,1606
760208,258276,251960,306612,306612,780,559,5505,3368,3445,774,-337,1378,105,123,852,971,1050,683,968,1269,1209,1743,1606
761209,258768,252524,307080,307080,1029,731,5465,3389,3343,982,431,1534,106,116,855,971,1050,683,968,1269,1209,1743,1606
762210,259296,253100,307548,307548,803,654,5505,3347,3368,860,9,880,111,122,853,971,1050,683,968,1269,1209,1743,1606
763211,259872,253664,308016,308016,500,726,5339,3183,3544,453,776,1330,107,124,854,940,1038,687,1033,1228,1223,1786,1626
764212,260400,254152,308484,308484,798,1201,5243,2919,3726,-942,885,629,92,108,856,940,1038,687,1033,1228,1223,1786,1626
765213,260904,254716,308952,308952,948,724,4967,2818,3805,-1599,1092,3,118,116,851,940,1038,687,1033,1228,1223,1786,1626
766214,261408,255224,309420,309420,947,1073,4703,2788,3820,-1790,1617,-994,97,111,852,940,1038,687,1033,1228,1223,1786,1626
767215,261932,255724,309888,309888,820,1122,4374,2641,3897,-2603,989,-1634,97,123,850,940,1038,687,1033,1228,1223,1786,1626
768216,262500,256212,310356,310356,543,1196,4107,2351,4031,-2451,420,-1887,93,105,848,940,1038,687,1033,1228,1223,1786,1626
769217,263004,256708,310824,310824,942,1146,3852,2263,4173,-1485,-862,-274,118,103,851,1107,1217,781,1211,1317,1336,2020,1839
770218,263524,257164,311296,311296,841,1396,3687,2257,4261,-741,-695,-105,101,96,850,1107,1217,781,1211,1317,1336,2020,1839
771219,264080,257588,311764,311764,614,1597,3591,2157,4258,458,-1168,1190,95,96,847,1107,1217,781,1211,1317,1336,2020,1839
772220,264588,258024,312232,312232,913,1523,3647,1894,4121,-70,-1211,549,107,101,845,1107,1217,781,1211,1317,1336,2020,1839
773221,265104,258476,312700,312700,862,1423,3682,1697,3913,-291,-227,963,110,91,846,1107,1217,781,1211,1317,1336,2020,1839
774222,265624,258868,313168,313168,835,1800,3683,1738,3687,1178,-1449,1341,102,96,846,1100,1211,774,1104,1489,1427,2140,1962
775223,266152,259248,313636,313636,784,1877,3676,1760,3460,1900,373,1459,113,82,841,1100,1211,774,1104,1489,1427,2140,1962
776224,266680,259624,314104,314104,782,1905,3521,1751,3266,1362,-539,1853,114,75,841,1100,1211,774,1104,1489,1427,2140,1962
777225,267220,259984,314572,314572,706,2007,3248,1894,3014,999,339,4129,128,84,841,1100,1211,774,1104,1489,1427,2140,1962
778226,267772,260392,315040,315040,629,1709,3053,1871,2764,849,1058,2993,117,71,840,1100,1211,774,1104,1489,1427,2140,1962
779227,268284,260700,315508,315508,877,2338,2947,1773,2659,551,361,3282,113,79,842,1100,1211,774,1104,1489,1427,2140,1962
780228,268844,261020,315976,315976,575,2266,2741,1660,2529,-844,1834,4671,116,64,835,975,1096,700,982,1388,1319,1967,1823
781229,269368,261340,316444,316444,799,2270,2308,1322,2361,-2493,1574,2077,109,52,834,975,1096,700,982,1388,1319,1967,1823
782230,269912,261664,316912,316912,672,2248,1752,955,2062,-2838,1467,3182,109,60,835,975,1096,700,982,1388,1319,1967,1823
783231,270500,261988,317380,317380,394,2252,1258,382,1837,-4379,1909,2323,109,56,832,975,1096,700,982,1388,1319,1967,1823
784232,271064,262272,317848,317848,542,2506,997,-226,1810,-3657,745,2680,123,46,835,975,1096,700,982,1388,1319,1967,1823
785233,271576,262540,318316,318316,866,2611,828,-646,1955,-1923,-744,3843,122,19,826,964,1085,704,1028,1421,1409,2120,2007
786234,272136,262852,318784,318784,563,2340,637,-674,2101,-1479,-1685,4430,130,9,826,964,1085,704,1028,1421,1409,2120,2007
787235,272720,263096,319252,319252,411,2770,496,-753,2138,-1437,-1379,2745,118,19,830,964,1085,704,1028,1421,1409,2120,2007
788236,273360,263324,319720,319720,56,2876,446,-1122,2125,-1249,-1024,331,107,-3,823,964,1085,704,1028,1421,1409,2120,2007
789237,273884,263524,320188,320188,780,3058,314,-1519,2111,-1495,-1680,-899,104,-27,825,964,1085,704,1028,1421,1409,2120,2007
790238,274432,263752,320656,320656,628,2889,-4,-1911,2075,-1420,-454,313,121,-40,819,964,1085,704,1028,1421,1409,2120,2007
791239,274980,264020,321124,321124,626,2644,-413,-2064,1979,-511,-293,1746,113,-12,815,1040,1184,776,1125,1577,1544,2349,2144
792240,275544,264260,321592,321592,524,2824,-744,-1993,1860,103,-24,2630,100,4,823,1040,1184,776,1125,1577,1544,2349,2144
793241,276164,264472,322060,322060,170,3005,-945,-2012,1835,-145,-75,1433,110,-13,822,1040,1184,776,1125,1577,1544,2349,2144
794242,276720,264692,322528,322528,568,2962,-1137,-2104,1756,-193,156,1661,109,-47,820,1040,1184,776,1125,1577,1544,2349,2144
795243,277272,264908,322996,322996,591,2993,-1411,-2417,1518,-1730,1227,2181,98,-38,812,1040,1184,776,1125,1577,1544,2349,2144
796244,277792,265128,323464,323464,790,2974,-1702,-2839,1173,-3015,1849,1457,105,-51,817,1099,1234,779,1118,1519,1451,2194,1959
797245,278332,265348,323932,323932,663,2980,-1988,-3146,834,-1928,2064,2550,112,-52,817,1099,1234,779,1118,1519,1451,2194,1959
798246,278940,265568,324400,324400,234,2986,-2239,-3409,686,-1539,1388,2768,113,-63,817,1099,1234,779,1118,1519,1451,2194,1959
799247,279476,265796,324868,324868,683,2942,-2360,-3637,645,-1093,1269,3048,101,-63,813,1099,1234,779,1118,1519,1451,2194,1959
800248,280028,265988,325336,325336,581,3173,-2508,-4002,627,-1629,700,3639,108,-56,818,1099,1234,779,1118,1519,1451,2194,1959
801249,280536,266188,325804,325804,855,3130,-2657,-4047,513,-2506,1577,5227,111,-75,814,1099,1234,779,1118,1519,1451,2194,1959
802250,281112,266380,326272,326272,427,3187,-2753,-4366,402,-1802,1262,3620,105,-65,810,1010,1118,714,1027,1390,1346,1967,1794
803251,281688,266628,326740,326740,424,2842,-2786,-4659,440,-1813,1023,3015,104,-71,812,1010,1118,714,1027,1390,1346,1967,1794
804252,282216,266856,327208,327208,723,2973,-2789,-4911,598,-1204,933,3109,108,-27,818,1010,1118,714,1027,1390,1346,1967,1794
805253,282688,267052,327680,327680,1073,3180,-2821,-5055,845,-457,495,3003,122,-59,816,1010,1118,714,1027,1390,1346,1967,1794
806254,283252,267240,328148,328148,496,3237,-2900,-5108,1080,-906,1112,3647,108,-79,810,1010,1118,714,1027,1390,1346,1967,1794
807255,283788,267456,328616,328616,669,3068,-2970,-5110,1184,-808,533,3480,107,-118,810,989,1091,723,1070,1351,1348,1942,1758
808256,284388,267664,329084,329084,266,3124,-2936,-5172,1236,-1017,198,2433,128,-77,813,989,1091,723,1070,1351,1348,1942,1758
809257,284984,267856,329552,329552,288,3231,-2873,-5335,1280,-1491,1375,2260,122,-78,815,989,1091,723,1070,1351,1348,1942,1758
810258,285564,268116,330020,330020,385,2811,-2905,-5520,1318,-545,1047,1171,106,-101,815,989,1091,723,1070,1351,1348,1942,1758
811259,286120,268356,330488,330488,533,2941,-3017,-5865,1415,-1285,2635,255,111,-12,819,989,1091,723,1070,1351,1348,1942,1758
812260,286656,268628,330956,330956,656,2746,-3290,-6055,1442,-1802,2520,1420,117,-28,819,989,1091,723,1070,1351,1348,1942,1758
813261,287252,268864,331424,331424,278,2977,-3523,-6260,1343,-1585,2679,948,124,-21,820,1119,1209,795,1224,1356,1365,1996,1740
814262,287892,269080,331892,331892,-1,3108,-3671,-6435,1233,-1988,1219,888,115,-41,819,1119,1209,795,1224,1356,1365,1996,1740
815263,288472,269372,332360,332360,371,2637,-3658,-6436,1126,-1624,2544,1252,128,-55,817,1119,1209,795,1224,1356,1365,1996,1740
816264,289052,269656,332828,332828,368,2692,-3606,-6565,1070,-741,614,344,134,5,823,1119,1209,795,1224,1356,1365,1996,1740
817265,289656,269972,333296,333296,215,2495,-3620,-6677,1139,-933,4068,681,107,13,826,1119,1209,795,1224,1356,1365,1996,1740
818266,290224,270400,333764,333764,437,1796,-3721,-6646,1016,-673,3460,3890,112,32,830,1159,1231,791,1185,1376,1359,1982,1755
819267,290800,270840,334232,334232,385,1722,-3899,-6691,698,1071,3122,1726,116,62,837,1159,1231,791,1185,1376,1359,1982,1755
820268,291376,271252,334700,334700,382,1899,-3854,-7249,873,-2192,667,-826,111,66,842,1159,1231,791,1185,1376,1359,1982,1755
821269,291992,271784,335168,335168,129,1147,-3965,-7102,1163,-1156,-2387,3945,116,53,842,1159,1231,791,1185,1376,1359,1982,1755
822270,292572,272340,335636,335636,351,995,-4008,-7095,1259,850,-394,1732,125,84,849,1159,1231,791,1185,1376,1359,1982,1755
823271,293224,272844,336104,336104,-104,1319,-3871,-6813,1337,1272,977,2901,130,91,854,1159,1231,791,1185,1376,1359,1982,1755
824272,293820,273404,336572,336572,243,967,-3673,-6648,1432,1473,-1617,1484,120,77,853,1015,1096,718,1033,1356,1321,1896,1729
825273,294384,274024,337040,337040,441,588,-3505,-6773,1543,748,-249,6,104,78,853,1015,1096,718,1033,1356,1321,1896,1729
826274,294936,274588,337508,337508,514,936,-3552,-6665,1561,1625,1450,2880,119,91,856,1015,1096,718,1033,1356,1321,1896,1729
827275,295504,275176,337976,337976,411,783,-3572,-6646,1596,1141,-175,663,115,90,856,1015,1096,718,1033,1356,1321,1896,1729
828278,296156,275732,338444,338444,-118,981,-3595,-6591,1645,1144,-519,306,106,103,856,1015,1096,718,1033,1356,1321,1896,1729
829277,296748,276352,338912,338912,254,577,-3534,-6608,1689,165,-757,597,117,102,856,959,1053,694,1030,1261,1243,1788,1600
830278,297284,276976,339380,339380,602,548,-3511,-6670,1730,328,545,732,112,106,857,959,1053,694,1030,1261,1243,1788,1600
831279,297816,277500,339848,339848,626,1172,-3612,-6739,1789,539,898,161,122,103,858,959,1053,694,1030,1261,1243,1788,1600
832280,298400,278056,340316,340316,298,970,-3760,-6728,1700,164,1812,-521,106,102,855,959,1053,694,1030,1261,1243,1788,1600
833281,298980,278616,340784,340784,320,942,-3833,-6694,1543,-159,901,-1906,115,98,853,959,1053,694,1030,1261,1243,1788,1600
834282,299512,279236,341252,341252,619,564,-3839,-6878,1499,-1337,180,-3074,117,109,856,959,1053,694,1030,1261,1243,1788,1600
835283,300024,279816,341720,341720,742,811,-3852,-6915,1476,-1563,182,-1037,115,119,856,1044,1134,729,1139,1196,1203,1749,1543
836284,300632,280392,342188,342188,139,833,-3838,-6757,1358,-197,-200,-306,109,111,854,1044,1134,729,1139,1196,1203,1749,1543
837285,301168,280956,342656,342656,587,906,-3775,-6598,1315,-287,-1014,-1722,130,106,855,1044,1134,729,1139,1196,1203,1749,1543
838286,301664,281576,343124,343124,837,552,-3724,-6557,1307,23,83,-139,111,107,856,1044,1134,729,1139,1196,1203,1749,1543
839287,302284,282160,343592,343592,58,774,-3712,-6688,1467,568,-2232,-1543,108,118,855,1044,1134,729,1139,1196,1203,1749,1543
840288,302812,282704,344064,344064,632,1023,-3904,-6589,1718,1853,-654,166,116,112,857,1087,1156,747,1142,1224,1232,1779,1614
841289,303364,283292,344532,344532,480,745,-4244,-6230,1982,2725,-1569,2855,112,115,856,1087,1156,747,1142,1224,1232,1779,1614
842290,303872,283872,345000,345000,754,792,-4722,-5516,2111,3628,-462,4724,103,107,855,1087,1156,747,1142,1224,1232,1779,1614
843291,304392,284472,345468,345468,677,664,-5041,-4621,2062,4125,285,5346,95,104,856,1087,1156,747,1142,1224,1232,1779,1614
844292,304932,284992,345936,345936,551,1162,-5088,-4197,1982,4111,16,5810,96,104,855,1087,1156,747,1142,1224,1232,1779,1614
845293,305388,285620,346404,346404,1076,483,-5131,-3466,1933,4374,162,7415,112,106,854,1087,1156,747,1142,1224,1232,1779,1614
846294,305840,286164,346872,346872,1101,1007,-5186,-3148,2021,2963,-1206,6378,89,123,853,1007,1080,720,1056,1477,1472,2171,1916
847295,306284,286768,347340,347340,1152,628,-5278,-3101,2014,5802,-2772,4632,95,109,851,1007,1080,720,1056,1477,1472,2171,1916
848296,306696,287324,347808,347808,1353,926,-5141,-2799,2023,4223,-1964,8183,79,118,849,1007,1080,720,1056,1477,1472,2171,1916
849297,307140,287864,348276,348276,1154,1024,-5124,-1617,2168,-594,-1504,6738,92,119,849,1007,1080,720,1056,1477,1472,2171,1916
850298,307504,288372,348744,348744,1656,1223,-4908,-1161,1920,-334,742,6489,72,127,847,1007,1080,720,1056,1477,1472,2171,1916
851299,307824,288936,349212,349212,1935,871,-4753,-771,1569,1033,-71,9132,70,111,844,984,1066,754,1178,1767,1791,2557,2008
852300,308120,289588,349680,349680,2089,317,-4723,-537,1623,-67,-1171,8545,54,111,838,984,1066,754,1178,1767,1791,2557,2008
853301,308360,290152,350148,350148,2445,864,-4720,15,1619,2496,-961,10187,44,128,836,984,1066,754,1178,1767,1791,2557,2008
854302,308580,290656,350616,350616,2576,1238,-4634,801,1626,-20,638,10245,13,117,832,984,1066,754,1178,1767,1791,2557,2008
855303,308760,291284,351084,351084,2833,459,-4586,1403,1593,339,-163,9294,3,118,824,984,1066,754,1178,1767,1791,2557,2008
856304,308928,291884,351552,351552,2915,631,-4644,1823,1610,1674,1072,9765,-20,135,820,1211,1251,879,1568,1507,1612,2288,1684
857305,309088,292472,352020,352020,2973,703,-4803,2169,1767,1664,1343,9209,-51,126,820,1211,1251,879,1568,1507,1612,2288,1684
858306,309236,293024,352488,352488,3055,926,-4939,2476,1757,2131,1204,8403,-64,112,817,1211,1251,879,1568,1507,1612,2288,1684
859307,309364,293656,352956,352956,3189,422,-4975,2891,1673,1563,1172,8627,-89,133,814,1211,1251,879,1568,1507,1612,2288,1684
860308,309456,294276,353424,353424,3423,494,-4930,3430,1601,2354,228,8396,-159,132,813,1211,1251,879,1568,1507,1612,2288,1684
861309,309548,294832,353892,353892,3432,891,-4714,3979,1605,2635,-458,8911,-326,116,809,1211,1251,879,1568,1507,1612,2288,1684
862310,309640,295400,354360,354360,3441,814,-4425,4571,1583,2731,-1273,8637,-330,117,803,1541,1485,968,1783,1270,1376,1974,1542
863311,309752,295968,354828,354828,3325,812,-3987,5042,1465,2498,-865,8201,-302,134,799,1541,1485,968,1783,1270,1376,1974,1542
864312,309848,296640,355296,355296,3434,157,-3492,5592,1365,3099,-2792,7815,-215,127,802,1541,1485,968,1783,1270,1376,1974,1542
865313,309940,297252,355764,355764,3468,528,-2968,5947,1358,3245,-2600,7931,-287,119,804,1541,1485,968,1783,1270,1376,1974,1542
866314,310084,297824,356232,356232,3151,775,-2525,6284,1384,3604,-3089,8431,-291,127,804,1541,1485,968,1783,1270,1376,1974,1542
867315,310212,298464,356700,356700,3259,346,-2083,6733,1370,3664,-2689,9457,-98,122,805,1428,1422,878,1472,1140,1181,1732,1475
868316,310324,299176,357168,357168,3368,-110,-1651,7386,1320,3267,-2438,8761,-163,131,810,1428,1422,878,1472,1140,1181,1732,1475
869317,310472,299736,357636,357636,3151,838,-1097,8100,1215,3680,-2256,9828,-234,122,807,1428,1422,878,1472,1140,1181,1732,1475
870318,310580,300400,358104,358104,3410,183,-701,8947,1094,4125,-1359,9377,-85,115,804,1428,1422,878,1472,1140,1181,1732,1475
871319,310724,301044,358572,358572,3193,304,-301,9485,1008,3875,-484,9770,-251,115,807,1428,1422,878,1472,1140,1181,1732,1475
872320,310868,301776,359040,359040,3201,-252,5,9978,932,3531,332,8682,-102,127,808,1428,1422,878,1472,1140,1181,1732,1475
873321,311012,302436,359508,359508,3208,193,291,10109,826,2726,174,7177,-145,111,808,1244,1322,782,1291,1097,1141,1748,1506
874322,311216,303048,359976,359976,2840,489,547,10292,714,2524,1300,7041,-127,108,813,1244,1322,782,1291,1097,1141,1748,1506
875323,311404,303700,360448,360448,2947,235,829,10352,650,1978,498,4918,-23,117,818,1244,1322,782,1291,1097,1141,1748,1506
876324,311628,304348,360916,360916,2728,256,1084,10474,562,1717,1574,4323,-22,112,822,1244,1322,782,1291,1097,1141,1748,1506
877325,311864,305060,361384,361384,2658,-150,1378,10452,463,1424,561,3515,-4,121,823,1244,1322,782,1291,1097,1141,1748,1506
878326,312084,305748,361852,361852,2765,-6,1614,10528,374,1246,661,3456,17,109,825,1270,1352,815,1387,1222,1290,1970,1656
879327,312328,306516,362320,362320,2620,-513,1854,10561,322,1550,-495,2863,-6,125,825,1270,1352,815,1387,1222,1290,1970,1656
880328,312564,307164,362788,362788,2676,233,2112,10796,349,1652,-1279,3188,15,101,825,1270,1352,815,1387,1222,1290,1970,1656
881329,312784,307680,363256,363256,2782,1056,2325,10936,451,1035,-1492,1065,11,97,823,1270,1352,815,1387,1222,1290,1970,1656
882330,313040,308256,363724,363724,2562,679,2720,10488,442,2241,-818,707,12,118,826,1270,1352,815,1387,1222,1290,1970,1656
883331,313304,308888,364192,364192,2517,325,3167,10060,573,907,-3204,3232,23,113,819,1270,1352,815,1387,1222,1290,1970,1656
884332,313580,309472,364660,364660,2447,622,3729,9960,505,2680,-2109,3242,26,108,826,1278,1326,844,1357,1269,1301,1843,1588
885333,313844,310168,365128,365128,2527,-84,4355,10079,289,3176,-3933,3525,27,113,831,1278,1326,844,1357,1269,1301,1843,1588
886334,314096,310776,365596,365596,2607,463,5012,9712,34,1428,-5048,3996,22,105,829,1278,1326,844,1357,1269,1301,1843,1588
887335,314384,311352,366064,366064,2386,660,5357,9134,-366,-230,-1037,6431,17,112,829,1278,1326,844,1357,1269,1301,1843,1588
888336,314652,311960,366532,366532,2516,457,5553,8705,-617,2687,-1109,6603,34,99,828,1278,1326,844,1357,1269,1301,1843,1588
889337,314964,312556,367000,367000,2245,529,5672,8504,-710,4204,-1285,5141,31,107,831,1160,1230,773,1181,1064,1053,1538,1447
890338,315244,313172,367468,367468,2450,400,5826,8533,-1060,4548,595,5565,60,114,830,1160,1230,773,1181,1064,1053,1538,1447
891339,315568,313716,367936,367936,2178,848,5822,8953,-1408,5612,2550,7188,39,99,835,1160,1230,773,1181,1064,1053,1538,1447
892340,315900,314360,368404,368404,2131,219,5687,9754,-1326,4646,2253,6302,53,115,833,1160,1230,773,1181,1064,1053,1538,1447
893341,316220,314932,368872,368872,2210,666,5650,10169,-1109,3087,1346,5453,58,120,834,1160,1230,773,1181,1064,1053,1538,1447
894342,316604,315444,369340,369340,1812,1040,5580,10362,-1043,449,154,5702,67,104,838,1160,1230,773,1181,1064,1053,1538,1447
895343,316980,315960,369808,369808,1864,1014,5513,9969,-1289,-909,1322,3745,66,109,834,1160,1309,755,1150,1127,1142,1840,1764
896344,317356,316504,370276,370276,1866,837,5289,9012,-1558,-851,4174,898,81,121,838,1160,1309,755,1150,1127,1142,1840,1764
897345,317748,317072,370744,370744,1768,685,4762,8141,-1648,-2336,827,3664,89,114,839,1160,1309,755,1150,1127,1142,1840,1764
898346,318200,317660,371212,371212,1394,557,4018,7797,-1642,-5415,2159,2976,87,100,840,1160,1309,755,1150,1127,1142,1840,1764
899347,318720,318180,371680,371680,967,981,3703,7106,-1646,-3698,1442,4777,96,115,843,1160,1309,755,1150,1127,1142,1840,1764
900348,319204,318700,372148,372148,1192,979,3696,6772,-1174,-3532,-3149,4648,95,112,848,1131,1286,789,1128,1826,1799,2950,2757
901349,319668,319156,372616,372616,1317,1380,4009,5775,-961,3767,-6260,816,109,98,850,1131,1286,789,1128,1826,1799,2950,2757
902350,320252,319556,373084,373084,564,1731,4413,4491,-735,-487,-7298,2714,96,89,847,1131,1286,789,1128,1826,1799,2950,2757
903351,320772,319992,373552,373552,963,1507,4449,3936,-856,500,-5005,3154,113,91,842,1131,1286,789,1128,1826,1799,2950,2757
904352,321376,320396,374020,374020,435,1709,4468,3321,-1347,3558,-6501,1130,113,91,843,1131,1286,789,1128,1826,1799,2950,2757
905353,321896,320744,374488,374488,958,2062,4194,2933,-1821,996,-1882,5640,113,77,843,1131,1286,789,1128,1826,1799,2950,2757
906354,322440,321088,374956,374956,807,2090,3698,2364,-2383,1454,-934,7496,114,57,844,987,1166,762,992,2004,1776,2740,2574
907355,322972,321468,375424,375424,880,1867,2999,2001,-2788,2256,-711,9053,105,65,835,987,1166,762,992,2004,1776,2740,2574
908356,323548,321764,375892,375892,602,2396,2388,1588,-3035,2445,-1085,9118,115,63,836,987,1166,762,992,2004,1776,2740,2574
909357,324172,322048,376360,376360,299,2475,1805,1375,-3260,2278,905,9448,127,49,839,987,1166,762,992,2004,1776,2740,2574
910358,324744,322332,376832,376832,621,2480,1220,1219,-3536,2233,472,7275,105,43,833,987,1166,762,992,2004,1776,2740,2574
911359,325316,322600,377300,377300,619,2585,699,1121,-3854,1109,777,7062,104,39,832,982,1184,724,987,1524,1416,2240,2205
912360,325864,322836,377768,377768,767,2791,125,745,-3976,-1207,2025,6895,114,27,829,982,1184,724,987,1524,1416,2240,2205
913361,326388,323088,378236,378236,915,2696,-463,128,-3881,-911,2387,6844,103,0,828,982,1184,724,987,1524,1416,2240,2205
914362,326976,323320,378704,378704,512,2827,-1006,-615,-3547,-1887,472,5356,115,19,822,982,1184,724,987,1524,1416,2240,2205
915363,327500,323552,379172,379172,911,2832,-1154,-1442,-3297,-3063,-85,2700,100,-10,824,982,1184,724,987,1524,1416,2240,2205
916364,328032,323812,379640,379640,859,2662,-991,-2131,-3067,-4859,-2244,1410,120,-11,821,982,1184,724,987,1524,1416,2240,2205
917365,328552,324028,380108,380108,933,2944,-703,-2650,-2931,-4514,-1931,1383,118,18,821,1075,1272,779,1136,1539,1496,2355,2139
918366,329096,324244,380576,380576,781,2950,-569,-2963,-2828,-5088,-1535,1220,100,-15,823,1075,1272,779,1136,1539,1496,2355,2139
919367,329736,324476,381044,381044,177,2856,-497,-3554,-2805,-4294,-667,1235,113,-19,817,1075,1272,779,1136,1539,1496,2355,2139
920368,330328,324724,381512,381512,474,2761,-543,-3983,-2871,-4115,-478,1097,114,-18,818,1075,1272,779,1136,1539,1496,2355,2139
921369,330872,324940,381980,381980,772,2967,-566,-4582,-2973,-3531,-385,-345,109,2,821,1075,1272,779,1136,1539,1496,2355,2139
922370,331400,325152,382448,382448,871,2998,-685,-4968,-3039,-1378,22,693,106,-27,823,1196,1343,828,1244,1348,1321,1952,1699
923371,331928,325368,382916,382916,869,2979,-949,-5144,-3128,845,-217,2028,127,-44,818,1196,1343,828,1244,1348,1321,1952,1699
924372,332544,325624,383384,383384,316,2735,-1258,-5244,-3145,467,137,2028,123,-32,817,1196,1343,828,1244,1348,1321,1952,1699
925373,333080,325844,383852,383852,814,2966,-1431,-5217,-3221,695,371,4170,115,3,815,1196,1343,828,1244,1348,1321,1952,1699
926375,333588,326056,384320,384320,988,3022,-1431,-4933,-3330,737,417,3465,100,-38,824,1196,1343,828,1244,1348,1321,1952,1699
927375,334108,326248,384788,384788,912,3154,-1290,-4858,-3417,1937,632,3725,117,-44,816,1196,1343,828,1244,1348,1321,1952,1699
928376,334640,326464,385256,385256,835,3010,-1139,-4825,-3385,629,-288,3590,117,-63,813,1160,1236,764,1149,1205,1217,1731,1523
929377,335228,326684,385724,385724,482,2991,-1039,-4930,-3360,-1925,445,3810,106,-37,811,1160,1236,764,1149,1205,1217,1731,1523
930378,335736,326908,386192,386192,981,2972,-887,-4980,-3367,-2720,-167,1900,126,-45,812,1160,1236,764,1149,1205,1217,1731,1523
931379,336268,327156,386660,386660,830,2827,-625,-5308,-3260,-2586,-716,2163,107,-29,819,1160,1236,764,1149,1205,1217,1731,1523
932380,336792,327384,387128,387128,878,2958,-352,-5550,-2950,-3843,-326,2723,102,-10,814,1160,1236,764,1149,1205,1217,1731,1523
933381,337296,327644,387596,387596,1003,2763,-119,-6042,-2685,-3188,-367,2783,113,-30,818,1035,1082,721,1112,1249,1279,1811,1574
934382,337888,327908,388064,388064,450,2743,-63,-6253,-2328,-2952,-596,3920,105,-5,816,1035,1082,721,1112,1249,1279,1811,1574
935383,338444,328200,388532,388532,672,2572,97,-6501,-1861,-5015,1543,2045,118,-4,820,1035,1082,721,1112,1249,1279,1811,1574
936384,338976,328532,389000,389000,821,2326,154,-6350,-1324,-7664,-1268,1682,106,13,823,1035,1082,721,1112,1249,1279,1811,1574
937385,339524,328860,389468,389468,719,2354,211,-6631,-854,-7933,4440,-2064,104,34,826,1035,1082,721,1112,1249,1279,1811,1574
938386,340056,329180,389936,389936,817,2408,292,-7935,-1185,5688,1658,-3480,113,37,829,1035,1082,721,1112,1249,1279,1811,1574
939387,340660,329520,390404,390404,364,2286,327,-9037,-1164,1954,-2085,467,118,48,830,1085,1167,768,1200,1314,1314,1953,1729
940388,341220,329896,390872,390872,637,2063,135,-8361,-1069,-3127,1727,4530,107,57,829,1085,1167,768,1200,1314,1314,1953,1729
941389,341792,330364,391340,391340,559,1488,16,-7199,-1465,-354,541,139,107,56,834,1085,1167,768,1200,1314,1314,1953,1729
942390,342340,330832,391808,391808,707,1488,137,-6586,-1793,2554,2923,-1156,124,73,834,1085,1167,768,1200,1314,1314,1953,1729
943391,342876,331288,392276,392276,781,1563,86,-6354,-1825,3525,1529,-220,104,86,846,1085,1167,768,1200,1314,1314,1953,1729
944392,343492,331748,392744,392744,277,1539,-241,-6202,-1846,3105,568,-121,111,78,844,1176,1304,795,1168,1316,1282,1952,1799
945393,343984,332224,393216,393216,1051,1439,-547,-6046,-1975,3537,1533,583,127,82,844,1176,1304,795,1168,1316,1282,1952,1799
946394,344572,332816,393684,393684,449,711,-693,-5863,-1943,1965,-187,488,117,89,847,1176,1304,795,1168,1316,1282,1952,1799
947395,345128,333364,394152,394152,646,984,-736,-5311,-1937,2475,-812,2640,105,87,843,1176,1304,795,1168,1316,1282,1952,1799
948396,345680,333896,394620,394620,669,1082,-523,-5038,-1832,1307,-81,2860,118,98,856,1176,1304,795,1168,1316,1282,1952,1799
949397,346256,334416,395088,395088,517,1156,-295,-4916,-1604,234,-1108,3781,108,83,853,1176,1304,795,1168,1316,1282,1952,1799
950398,346844,335028,395556,395556,439,577,-134,-4974,-1344,-1995,-519,3709,115,97,851,1036,1125,723,1051,1355,1343,1926,1718
951399,347344,335588,396024,396024,988,900,-35,-5180,-1135,-2509,183,2902,104,98,850,1036,1125,723,1051,1355,1343,1926,1718
952400,347860,336180,396492,396492,887,697,72,-5483,-945,-1940,-17,1825,106,104,857,1036,1125,723,1051,1355,1343,1926,1718
953401,348352,336812,396960,396960,1036,443,125,-5618,-794,-1824,-584,2524,114,96,851,1036,1125,723,1051,1355,1343,1926,1718
954402,348964,337476,397428,397428,283,238,139,-5698,-759,-2026,331,1753,114,97,853,1036,1125,723,1051,1355,1343,1926,1718
955403,349508,338124,397896,397896,706,334,43,-5536,-827,-1631,1331,2589,107,91,852,954,1017,698,1088,1293,1311,1826,1550
956404,350068,338716,398364,398364,604,681,-20,-5621,-957,-1624,521,500,117,97,859,954,1017,698,1088,1293,1311,1826,1550
957405,350596,339284,398832,398832,802,828,-137,-5758,-1150,-832,2226,7,117,93,858,954,1017,698,1088,1293,1311,1826,1550
958406,351204,339800,399300,399300,299,1152,-146,-5802,-1345,906,1584,1353,117,96,856,954,1017,698,1088,1293,1311,1826,1550
959407,351848,340424,399768,399768,69,473,-268,-5606,-1593,1934,1546,-66,110,103,853,954,1017,698,1088,1293,1311,1826,1550
960408,352400,341032,400236,400236,642,570,-451,-5537,-1844,628,1029,-255,124,115,853,954,1017,698,1088,1293,1311,1826,1550
961409,352960,341608,400704,400704,590,767,-634,-5442,-2144,-303,884,-591,129,106,860,1084,1136,760,1221,1251,1280,1824,1564
962410,353556,342256,401172,401172,362,313,-699,-5274,-2383,-39,263,-914,124,104,856,1084,1136,760,1221,1251,1280,1824,1564
963411,354260,342840,401640,401640,-319,710,-678,-5169,-2452,24,-339,-754,135,111,855,1084,1136,760,1221,1251,1280,1824,1564
964412,354940,343480,402108,402108,-174,356,-709,-5031,-2505,238,-172,866,119,111,860,1084,1136,760,1221,1251,1280,1824,1564
965413,355520,344088,402576,402576,448,552,-626,-5156,-2414,-772,-1352,-1287,113,105,857,1084,1136,760,1221,1251,1280,1824,1564
966414,356100,344656,403044,403044,446,800,-592,-5221,-2261,-780,-1081,-869,117,102,860,1145,1203,785,1199,1294,1299,1885,1708
967415,356768,345268,403512,403512,-109,521,-449,-5165,-2099,-254,-1394,-1247,135,108,858,1145,1203,785,1199,1294,1299,1885,1708
968416,357396,345848,403980,403980,137,719,-322,-4966,-1964,1028,-531,354,125,112,856,1145,1203,785,1199,1294,1299,1885,1708
969417,358004,346416,404448,404448,258,791,-200,-4690,-1911,1226,-623,1503,123,116,859,1145,1203,785,1199,1294,1299,1885,1708
970418,358544,347000,404916,404916,682,688,-157,-4363,-1827,1033,502,1790,123,100,858,1145,1203,785,1199,1294,1299,1885,1708
971419,359076,347600,405384,405384,730,585,-141,-4163,-1631,-142,-699,690,117,122,857,1145,1203,785,1199,1294,1299,1885,1708
972420,359652,348200,405852,405852,452,582,-227,-4091,-1498,883,-213,1165,112,123,854,1026,1128,716,1044,1255,1217,1798,1674
973421,360268,348780,406320,406320,199,704,-341,-4036,-1447,423,286,350,123,117,855,1026,1128,716,1044,1255,1217,1798,1674
974422,360912,349312,406788,406788,20,1003,-436,-3728,-1431,829,460,984,122,119,858,1026,1128,716,1044,1255,1217,1798,1674
975423,361548,349880,407256,407256,65,775,-491,-3395,-1515,1887,892,686,126,110,858,1026,1128,716,1044,1255,1217,1798,1674
976424,362136,350472,407724,407724,362,622,-551,-3251,-1638,1101,1636,2053,114,107,857,1026,1128,716,1044,1255,1217,1798,1674
977425,362660,351076,408192,408192,761,544,-683,-3268,-1847,1183,1418,1755,135,106,858,977,1090,685,1014,1253,1222,1827,1654
978426,363280,351652,408660,408660,157,716,-769,-3351,-2042,859,1757,2233,117,110,858,977,1090,685,1014,1253,1222,1827,1654
980428,364492,352748,409600,409600,601,987,-732,-3640,-2321,-1092,89,-541,108,102,858,977,1090,685,1014,1253,1222,1827,1654
981429,365012,353328,410068,410068,775,685,-694,-3787,-2529,-336,-93,-963,123,118,858,977,1090,685,1014,1253,1222,1827,1654
982430,365560,353840,410536,410536,598,1109,-555,-3968,-2666,192,-346,-1735,126,123,854,977,1090,685,1014,1253,1222,1827,1654
983431,366112,354392,411004,411004,570,857,-477,-3722,-2682,654,-2183,1248,117,106,855,1035,1125,739,1132,1324,1322,1900,1666
984432,366700,354924,411472,411472,343,980,-398,-3412,-2336,2600,-4656,1265,115,118,852,1035,1125,739,1132,1324,1322,1900,1666
985433,367216,355568,411940,411940,791,276,-681,-2901,-1709,4687,-1675,2852,117,112,855,1035,1125,739,1132,1324,1322,1900,1666
986434,367708,356136,412408,412408,941,748,-1464,-1996,-1130,6208,-923,7119,110,125,856,1035,1125,739,1132,1324,1322,1900,1666
