%  Data file recorded 2016/3/13  20:25:54
%  Stride Frequency         = [7, 7]
%  Lead In /Lead Out        = 
%  Deltas (Fractional)      = [0.25, 0.25, 0.25],[0.25, 0.25, 0.25]
%  Phase                    = 32768
%  Experiment.py 
%  Motor Gains    = [100, 0, 100, 0, 0, 100, 0, 100, 0, 0]
% Columns: 
% time | Right Leg Pos | Left Leg Pos | Commanded Right Leg Pos | Commanded Left Leg Pos | DCR | DCL | GyroX | GyroY | GyroZ | AX | AY | AZ | RBEMF | LBEMF | VBatt | S1 | S2 | S3 | S4 | S5 | S6 | S7 | S8
174,32988,-21528,11700,11700,-570,811,-101,-64,33,517,-406,3867,-6,-2,812,1131,1249,771,1142,1300,1269,1935,1752
1175,32984,-21532,11700,11700,-495,836,-98,-62,34,490,-416,3846,7,0,811,1131,1249,771,1142,1300,1269,1935,1752
2176,32984,-21536,11700,11700,-520,836,-99,-61,35,498,-400,3841,0,-6,811,1131,1249,771,1142,1300,1269,1935,1752
3177,32992,-21532,11700,11700,-570,786,-100,-63,35,493,-411,3863,-8,-4,811,1131,1249,771,1142,1300,1269,1935,1752
4178,32988,-21532,11700,11700,-495,811,-102,-66,33,517,-400,3861,-1,1,811,1131,1250,772,1143,1301,1270,1935,1753
5179,32988,-21528,11700,11700,-520,786,-102,-64,34,534,-390,3882,6,-1,811,1131,1250,772,1143,1301,1270,1935,1753
6180,32992,-21540,11700,11700,-545,886,-102,-63,35,529,-401,3877,2,3,811,1131,1250,772,1143,1301,1270,1935,1753
7181,33000,-21532,11700,11700,-571,761,-103,-62,34,529,-401,3868,-8,5,811,1131,1250,772,1143,1301,1270,1935,1753
8182,32988,-21524,11700,11700,-445,761,-101,-62,33,505,-389,3878,6,-2,811,1131,1250,772,1143,1301,1270,1935,1753
9187,32984,-21532,11700,11700,-495,861,-101,-63,33,525,-364,3892,2,1,811,1131,1250,772,1143,1301,1270,1935,1753
10184,32984,-21528,11700,11700,-520,786,-101,-64,35,520,-383,3878,-7,4,811,1130,1250,771,1139,1299,1270,1935,1754
11185,32988,-21540,11700,11700,-545,886,-100,-62,34,502,-404,3878,3,1,811,1130,1250,771,1139,1299,1270,1935,1754
12186,32996,-21536,11700,11700,-570,786,-101,-62,34,493,-415,3901,3,4,811,1130,1250,771,1139,1299,1270,1935,1754
13187,32980,-21524,11700,11700,-420,736,-101,-62,33,490,-412,3928,-9,5,811,1130,1250,771,1139,1299,1270,1935,1754
14188,32972,-21528,11700,11700,-470,836,-103,-67,30,512,-383,3909,-2,1,811,1130,1250,771,1139,1299,1270,1935,1754
15189,32984,-21536,11700,11700,-595,861,-102,-68,32,526,-384,3863,6,5,812,1131,1250,771,1142,1300,1269,1934,1751
16190,32996,-21532,11700,11700,-595,786,-100,-67,32,506,-391,3851,-2,6,811,1131,1250,771,1142,1300,1269,1934,1751
17191,32992,-21528,11700,11700,-495,786,-100,-66,33,509,-402,3862,-9,5,811,1131,1250,771,1142,1300,1269,1934,1751
18192,32996,-21540,11700,11700,-545,886,-102,-68,31,509,-386,3877,-7,2,811,1131,1250,771,1142,1300,1269,1934,1751
19193,32992,-21524,11700,11700,-495,711,-104,-69,30,515,-400,3879,7,-8,809,1131,1250,771,1142,1300,1269,1934,1751
20194,32980,-21524,11700,11700,-445,811,-102,-66,32,538,-397,3899,-1,-8,810,1132,1250,772,1144,1301,1269,1934,1751
21195,32996,-21532,11700,11700,-620,861,-102,-64,30,503,-406,3873,-9,-9,811,1132,1250,772,1144,1301,1269,1936,1752
22196,32996,-21528,11700,11700,-520,786,-101,-63,31,510,-400,3842,7,-6,811,1132,1250,772,1144,1301,1269,1936,1752
23197,32988,-21540,11700,11700,-470,886,-102,-66,32,488,-415,3868,-5,-7,811,1132,1250,772,1144,1301,1269,1936,1752
24198,32988,-21528,11700,11700,-520,736,-104,-67,33,517,-431,3886,-8,-3,811,1132,1250,772,1144,1301,1269,1936,1752
25199,32984,-21524,11700,11700,-495,786,-104,-66,33,530,-432,3902,7,-1,811,1132,1250,772,1144,1301,1269,1936,1752
26200,32996,-21528,11700,11700,-595,836,-105,-65,32,524,-411,3881,-6,-4,811,1130,1249,770,1141,1300,1269,1935,1752
27201,33004,-21540,11700,11700,-571,886,-104,-65,30,532,-413,3895,-6,-1,811,1130,1249,770,1141,1300,1269,1935,1752
28202,32988,-21524,11700,11700,-420,711,-103,-65,31,522,-402,3883,6,2,811,1130,1249,770,1141,1300,1269,1935,1752
29203,32992,-21540,11700,11700,-545,911,-105,-65,34,528,-408,3885,-9,-3,811,1130,1249,770,1141,1300,1269,1935,1752
30204,32992,-21532,11700,11700,-520,761,-108,-66,34,535,-410,3891,-3,-3,811,1130,1249,770,1141,1300,1269,1935,1752
31205,32988,-21528,11700,11700,-495,786,-109,-67,33,543,-392,3856,2,1,811,1130,1250,771,1142,1300,1270,1935,1752
32206,32988,-21536,11700,11700,-520,861,-106,-67,33,516,-387,3889,-9,-1,811,1130,1250,771,1142,1300,1270,1935,1752
33207,32996,-21532,11700,11700,-570,786,-104,-67,31,525,-406,3855,-2,0,811,1130,1250,771,1142,1300,1270,1935,1752
34208,32992,-21528,11700,11700,-495,786,-105,-69,31,522,-431,3886,5,4,811,1130,1250,771,1142,1300,1270,1935,1752
35209,32984,-21532,11700,11700,-470,836,-107,-69,32,520,-428,3881,-9,3,811,1130,1250,771,1142,1300,1270,1935,1752
36210,32984,-21532,11700,11700,-520,811,-106,-66,34,505,-405,3894,-8,5,809,1130,1250,771,1142,1300,1270,1935,1752
37211,32992,-21528,11700,11700,-570,786,-104,-66,32,487,-380,3901,5,-3,810,1131,1251,771,1141,1301,1270,1938,1754
38212,32996,-21528,11700,11700,-545,811,-105,-65,34,521,-403,3905,6,-2,811,1131,1251,771,1141,1301,1270,1938,1754
39213,32984,-21528,11700,11700,-445,811,-107,-66,34,508,-411,3918,-6,-7,811,1131,1251,771,1141,1301,1270,1938,1754
40214,32984,-21528,11700,11700,-520,811,-107,-68,35,531,-401,3880,-4,-8,811,1131,1251,771,1141,1301,1270,1938,1754
41215,32996,-21540,11700,11700,-595,886,-108,-66,34,518,-393,3896,7,-8,811,1131,1251,771,1141,1301,1270,1938,1754
42216,32988,-21540,11700,11700,-470,811,-107,-61,32,512,-384,3871,0,-8,811,1131,1250,771,1142,1299,1269,1936,1751
43217,32984,-21528,11700,11700,-495,736,-104,-64,35,503,-411,3884,-9,-3,811,1131,1250,771,1142,1299,1269,1936,1751
44218,32992,-21532,11700,11700,-570,836,-104,-66,35,536,-413,3907,2,-3,811,1131,1250,771,1142,1299,1269,1936,1751
45219,32984,-21536,11700,11700,-470,836,-105,-65,34,519,-393,3872,5,2,811,1131,1250,771,1142,1299,1269,1936,1751
46220,32980,-21536,11700,11700,-495,811,-105,-63,34,505,-399,3900,-9,5,811,1131,1250,771,1142,1299,1269,1936,1751
47221,32996,-21524,11700,11700,-620,736,-106,-60,34,509,-391,3877,-2,6,811,1131,1250,771,1142,1299,1269,1936,1751
48222,32984,-21524,11700,11700,-445,811,-105,-59,35,525,-405,3871,7,-1,811,1132,1252,772,1143,1300,1270,1935,1752
49223,32996,-21532,11700,11700,-595,861,-106,-61,36,520,-385,3877,-9,-8,812,1132,1252,772,1143,1300,1270,1935,1752
50224,32988,-21520,11700,11700,-470,736,-106,-62,35,504,-406,3907,1,-9,811,1132,1252,772,1143,1300,1270,1935,1752
51225,32988,-21536,11700,11700,-520,911,-102,-63,34,521,-387,3877,5,-2,811,1132,1252,772,1143,1300,1270,1935,1752
52226,32992,-21528,11700,11700,-545,761,-102,-64,35,523,-398,3894,-9,5,811,1132,1252,772,1143,1300,1270,1935,1752
53227,32988,-21532,11700,11700,-495,836,-104,-62,36,518,-412,3885,4,4,810,1130,1250,771,1143,1301,1270,1935,1749
54228,32992,-21528,11700,11700,-545,786,-104,-64,37,501,-414,3909,3,-7,810,1130,1250,771,1143,1301,1270,1935,1749
55229,32988,-21520,11700,11700,-495,761,-105,-64,35,488,-418,3884,-1,-9,811,1130,1250,771,1143,1301,1270,1935,1749
56230,32992,-21532,11700,11700,-545,886,-102,-62,35,502,-408,3888,4,-9,811,1130,1250,771,1143,1301,1270,1935,1749
57232,32972,-21532,11700,11700,-395,811,-101,-61,35,509,-406,3884,-9,-5,811,1130,1250,771,1143,1301,1270,1935,1749
58232,32992,-21520,11700,11700,-645,736,-101,-62,36,512,-401,3903,7,2,811,1130,1250,771,1143,1301,1270,1935,1749
59233,32992,-21532,11700,11700,-520,886,-103,-65,38,500,-380,3876,-8,0,811,1131,1250,771,1142,1299,1269,1935,1751
60234,32988,-21536,11700,11700,-495,836,-102,-63,36,534,-413,3842,-4,5,811,1131,1250,771,1142,1299,1269,1935,1751
61235,33000,-21532,11700,11700,-596,786,-102,-62,37,529,-423,3891,4,6,811,1131,1250,771,1142,1299,1269,1935,1751
62236,33000,-21540,11700,11700,-521,861,-100,-61,38,513,-418,3904,-9,5,811,1131,1250,771,1142,1299,1269,1935,1751
63237,32988,-21532,11700,11700,-445,761,-100,-62,37,495,-404,3876,-7,5,811,1131,1250,771,1142,1299,1269,1935,1751
64238,32988,-21532,11700,11700,-520,811,-101,-61,37,497,-398,3873,7,-1,811,1132,1251,771,1143,1300,1270,1936,1752
66240,32992,-21528,11700,11700,-520,786,-103,-63,36,504,-405,3872,-9,-7,811,1132,1251,771,1143,1300,1270,1936,1752
67241,32988,-21524,11700,11700,-495,786,-103,-65,35,527,-417,3906,7,-9,811,1132,1251,771,1143,1300,1270,1936,1752
68242,32996,-21532,11700,11700,-570,861,-102,-64,37,522,-428,3912,-4,-9,811,1132,1251,771,1143,1300,1270,1936,1752
69243,32988,-21532,11700,11700,-470,811,-101,-63,36,533,-432,3873,-9,-6,811,1132,1251,771,1143,1300,1270,1936,1752
70244,32984,-21540,11700,11700,-495,861,-102,-61,34,542,-391,3898,5,3,810,1130,1249,771,1143,1301,1270,1935,1752
71245,32988,-21524,11700,11700,-545,711,-102,-61,35,525,-408,3911,2,3,809,1130,1249,771,1143,1301,1270,1935,1752
72246,32980,-21536,11700,11700,-470,886,-100,-63,36,484,-415,3889,-9,6,811,1130,1249,771,1143,1301,1270,1935,1752
73247,32992,-21528,11700,11700,-595,761,-99,-65,36,481,-424,3918,4,2,811,1130,1249,771,1143,1301,1270,1935,1752
74248,32984,-21528,11700,11700,-470,811,-100,-64,35,504,-403,3902,7,3,811,1130,1249,771,1143,1301,1270,1935,1752
75249,33000,-21536,11700,11700,-621,861,-100,-63,34,507,-390,3893,-4,-2,811,1131,1250,770,1142,1299,1270,1935,1752
76250,32996,-21532,11700,11700,-495,786,-103,-63,35,501,-405,3873,-1,-8,811,1131,1250,770,1142,1299,1270,1935,1752
77251,32988,-21528,11700,11700,-470,786,-103,-65,36,515,-405,3874,5,-8,811,1131,1250,770,1142,1299,1270,1935,1752
78252,33000,-21528,11700,11700,-596,811,-103,-65,37,501,-409,3884,-9,-8,811,1131,1250,770,1142,1299,1270,1935,1752
79253,32996,-21536,11700,11700,-495,861,-102,-65,37,512,-412,3889,7,-7,811,1131,1250,770,1142,1299,1270,1935,1752
80254,32988,-21536,11700,11700,-470,811,-99,-66,35,509,-403,3916,-8,-8,811,1131,1250,770,1142,1299,1270,1935,1752
81255,32996,-21528,11700,11700,-570,761,-100,-67,34,508,-410,3884,1,-7,811,1127,1247,770,1143,1302,1270,1936,1752
82256,32988,-21532,11700,11700,-470,836,-101,-66,32,518,-401,3871,-2,-1,811,1127,1247,770,1143,1302,1270,1936,1752
83257,32992,-21532,11700,11700,-545,811,-101,-64,32,508,-405,3820,-9,1,811,1127,1247,770,1143,1302,1270,1936,1752
84258,32996,-21532,11700,11700,-545,811,-103,-64,36,525,-402,3858,-4,5,811,1127,1247,770,1143,1302,1270,1936,1752
85259,32992,-21528,11700,11700,-495,786,-102,-65,35,516,-383,3869,3,4,811,1127,1247,770,1143,1302,1270,1936,1752
86260,32980,-21544,11700,11700,-445,911,-101,-64,35,523,-385,3883,-9,6,811,1130,1249,771,1143,1301,1270,1935,1752
87261,33004,-21532,11700,11700,-671,736,-102,-64,34,507,-412,3889,-6,2,809,1130,1249,771,1143,1301,1270,1935,1752
88262,32980,-21532,11700,11700,-370,811,-104,-65,34,496,-402,3886,6,-6,809,1130,1249,771,1143,1301,1270,1935,1752
89263,32996,-21532,11700,11700,-620,811,-105,-65,34,508,-398,3888,-1,-5,811,1130,1249,771,1143,1301,1270,1935,1752
90264,32988,-21532,11700,11700,-470,811,-103,-64,35,516,-401,3895,-9,-9,811,1130,1249,771,1143,1301,1270,1935,1752
91265,33004,-21532,11700,11700,-621,811,-103,-64,33,504,-398,3894,7,-7,811,1130,1249,771,1143,1301,1270,1935,1752
92266,32996,-21532,11700,11700,-470,811,-104,-66,31,500,-386,3863,-3,-9,811,1130,1249,771,1142,1299,1270,1935,1753
93267,32992,-21532,11700,11700,-495,811,-105,-66,32,500,-396,3863,-9,-9,811,1130,1249,771,1142,1299,1270,1935,1753
94268,32988,-21524,11700,11700,-495,761,-103,-63,32,505,-379,3845,4,-9,811,1130,1249,771,1142,1299,1270,1935,1753
95269,32996,-21532,11700,11700,-570,861,-100,-63,32,511,-404,3873,6,-8,811,1130,1249,771,1142,1299,1270,1935,1753
96270,32988,-21532,11700,11700,-470,811,-101,-62,32,499,-406,3861,-3,-9,811,1130,1249,771,1142,1299,1270,1935,1753
97271,32988,-21532,11700,11700,-520,811,-102,-64,33,495,-406,3833,-8,-6,811,1130,1250,771,1142,1300,1267,1931,1751
98272,33000,-21532,11700,11700,-596,811,-105,-65,33,468,-411,3875,0,-9,811,1130,1250,771,1142,1300,1267,1931,1751
99273,32992,-21532,11700,11700,-470,811,-106,-66,32,508,-379,3872,7,-9,811,1130,1250,771,1142,1300,1267,1931,1751
100274,32996,-21532,11700,11700,-545,811,-106,-65,33,528,-393,3884,-5,-8,811,1130,1250,771,1142,1300,1267,1931,1751
101275,32988,-21528,11700,11700,-470,786,-103,-64,31,498,-406,3905,-9,-9,811,1130,1250,771,1142,1300,1267,1931,1751
102276,32992,-21540,11700,11700,-545,886,-103,-63,32,505,-386,3913,5,-8,811,1130,1250,771,1142,1300,1267,1931,1751
103277,32984,-21520,11700,11700,-470,686,-103,-65,34,507,-398,3922,-2,-8,811,1130,1250,771,1144,1301,1270,1935,1752
104278,32988,-21532,11700,11700,-545,886,-104,-64,31,494,-410,3934,-9,-9,809,1130,1250,771,1144,1301,1270,1935,1752
105279,32980,-21532,468,468,-257,1024,-104,-62,29,507,-398,3905,-9,-8,809,1130,1250,771,1144,1301,1270,1935,1752
106280,32996,-21532,936,936,-396,1035,-105,-64,30,504,-389,3906,0,2,811,1130,1250,771,1144,1301,1270,1935,1752
107281,32980,-21496,1404,1404,-184,821,-106,-63,30,523,-390,3867,-9,-6,801,1130,1250,771,1144,1301,1270,1935,1752
108282,32980,-21436,1872,1872,-273,681,-107,-65,26,524,-473,3827,-9,13,799,1129,1250,772,1144,1301,1258,1920,1736
109283,32984,-21364,2340,2340,-287,615,-106,-72,9,544,-539,3855,-5,17,803,1129,1250,772,1144,1301,1258,1920,1736
110284,32972,-21280,2808,2808,-175,550,-101,-91,11,519,-327,3959,5,10,804,1129,1250,772,1144,1301,1258,1920,1736
111285,32988,-21192,3276,3276,-339,534,-115,-79,15,668,-412,3906,-8,20,805,1129,1250,772,1144,1301,1258,1920,1736
112286,32980,-21068,3744,3744,-177,317,-128,-44,-10,635,-427,3739,-7,22,806,1129,1250,772,1144,1301,1258,1920,1736
113287,32988,-20972,4212,4212,-266,501,-127,-41,-24,431,-294,3747,-8,16,805,1129,1250,772,1144,1301,1258,1920,1736
114288,33004,-20868,4680,4680,-305,460,-136,-45,-23,577,-360,3857,2,24,808,1122,1240,763,1131,1291,1263,1919,1743
115289,32984,-20752,5148,5148,-68,394,-154,-30,-18,656,-399,3834,-11,24,806,1122,1240,763,1131,1291,1263,1919,1743
116290,32972,-20668,5616,5616,-106,603,-144,-21,-10,622,-341,3583,-3,14,806,1122,1240,763,1131,1291,1263,1919,1743
117291,32972,-20560,6084,6084,-170,462,-124,4,0,636,-394,3606,5,28,807,1122,1240,763,1131,1291,1263,1919,1743
118292,32964,-20404,6552,6552,-108,170,-102,6,1,413,-389,3645,-11,25,806,1122,1240,763,1131,1291,1263,1919,1743
119293,32972,-20268,7020,7020,-197,303,-94,-17,1,388,-393,3797,1,27,807,1129,1249,771,1141,1299,1269,1929,1745
120294,32972,-20116,7488,7488,-136,210,-93,-38,5,493,-344,3887,-10,29,809,1129,1249,771,1141,1299,1269,1929,1745
121295,32960,-19948,7956,7956,-49,118,-104,-15,3,549,-417,3889,-11,17,806,1129,1249,771,1141,1299,1269,1929,1745
122296,32948,-19808,8424,8424,-37,301,-90,-40,-4,445,-499,3798,2,29,807,1129,1249,771,1141,1299,1269,1929,1745
123297,32924,-19668,8892,8892,50,309,-113,-28,-29,379,-376,4025,-9,27,810,1129,1249,771,1141,1299,1269,1929,1745
124298,32928,-19528,9360,9360,-114,317,-119,-67,-52,827,-502,3936,5,16,809,1129,1249,771,1141,1299,1269,1929,1745
125299,32924,-19396,9828,9828,-52,375,-125,-75,-48,898,-504,4075,-7,29,809,1125,1243,765,1140,1293,1262,1922,1744
126300,32916,-19248,10296,10296,-16,283,-107,-16,-53,682,-331,4090,0,29,808,1125,1243,765,1140,1293,1262,1922,1744
127301,32916,-19128,10764,10764,-54,466,-80,51,-39,756,-361,3843,7,31,808,1125,1243,765,1140,1293,1262,1922,1744
128302,32920,-18976,11232,11232,-68,274,-58,34,-5,580,-260,3577,4,28,809,1125,1243,765,1140,1293,1262,1922,1744
129303,32916,-18848,11700,11700,-6,432,-43,4,29,458,-391,3733,2,26,808,1125,1243,765,1140,1293,1262,1922,1744
130304,32916,-18700,12168,12168,-20,315,-32,10,54,474,-186,3741,8,14,809,1131,1251,771,1144,1295,1265,1929,1746
131305,32912,-18560,12636,12636,16,373,-17,47,80,477,-379,3561,0,22,808,1131,1251,771,1144,1295,1265,1929,1746
132306,32904,-18408,13104,13104,53,306,-8,99,93,461,-173,3597,-7,14,809,1131,1251,771,1144,1295,1265,1929,1746
133307,32904,-18276,13572,13572,15,439,-11,92,89,500,-237,3483,8,22,808,1131,1251,771,1144,1295,1265,1929,1746
134308,32912,-18148,14040,14040,-24,472,-17,70,101,523,-341,3599,-4,16,809,1131,1251,771,1144,1295,1265,1929,1746
135309,32912,-18016,14508,14508,37,456,-27,39,100,573,-261,3584,3,27,808,1131,1251,771,1144,1295,1265,1929,1746
136310,32908,-17900,14976,14976,74,564,-36,28,93,587,-393,3834,-7,24,807,1138,1257,773,1148,1291,1259,1920,1739
137311,32916,-17772,15444,15444,10,497,-36,12,91,642,-387,4074,2,20,808,1138,1257,773,1148,1291,1259,1920,1739
138312,32912,-17656,15912,15912,96,581,-31,3,98,631,-488,4190,5,27,804,1138,1257,773,1148,1291,1259,1920,1739
139313,32904,-17500,16384,16384,2571,2777,-27,11,95,577,-566,4313,-4,12,805,1138,1257,773,1148,1291,1259,1920,1739
140314,32920,-17348,16852,16852,2432,2809,-15,32,97,647,-565,4247,-41,-28,806,1138,1257,773,1148,1291,1259,1920,1739
141315,32904,-17092,17320,17320,2644,2165,18,22,123,636,-669,4106,7,4,750,1127,1246,768,1133,1298,1265,1929,1707
142316,33068,-16828,17788,17788,1526,2120,76,2,139,488,-721,4187,6,42,752,1127,1246,768,1133,1298,1265,1929,1707
143317,33332,-16512,18256,18256,906,1798,118,21,162,536,-506,4944,62,55,757,1127,1246,768,1133,1298,1265,1929,1707
144318,33616,-16112,18724,18724,786,1275,142,120,194,1146,-888,5007,51,53,772,1127,1246,768,1133,1298,1265,1929,1707
145319,33932,-15688,19192,19192,590,1126,142,207,228,1105,-456,5064,53,70,784,1127,1246,768,1133,1298,1265,1929,1707
146320,34168,-15288,19660,19660,1095,1278,111,221,231,683,69,4942,51,66,791,1127,1246,768,1133,1298,1265,1929,1707
147321,34444,-14904,20128,20128,850,1380,53,224,236,855,-25,4730,52,83,797,1112,1239,756,1136,1292,1260,1931,1744
148322,34720,-14492,20596,20596,855,1206,-72,431,246,1472,-315,4056,59,73,790,1112,1239,756,1136,1292,1260,1931,1744
149323,35000,-14024,21064,21064,834,856,-185,729,257,1463,-1155,3448,61,82,791,1112,1239,756,1136,1292,1260,1931,1744
150324,35336,-13584,21532,21532,487,1032,-276,991,219,1521,-511,2605,65,75,794,1112,1239,756,1136,1292,1260,1931,1744
151325,35616,-13172,22000,22000,842,1208,-296,1111,212,1276,-651,3006,61,84,797,1112,1239,756,1136,1292,1260,1931,1744
152326,35880,-12760,22468,22468,947,1210,-307,1066,236,1277,-847,3134,61,85,799,1171,1280,781,1170,1344,1288,1984,1790
153327,36128,-12288,22936,22936,1052,834,-277,937,265,-102,-1458,3796,58,75,795,1171,1280,781,1170,1344,1288,1984,1790
154328,36368,-11908,23404,23404,1108,1412,-231,823,238,-725,-807,4605,49,82,793,1171,1280,781,1170,1344,1288,1984,1790
155329,36632,-11496,23872,23872,963,1213,-158,777,276,-768,-1630,4568,52,77,793,1171,1280,781,1170,1344,1288,1984,1790
156330,36868,-11096,24340,24340,1144,1290,-14,803,301,-737,-1455,5512,63,76,787,1171,1280,781,1170,1344,1288,1984,1790
157331,37120,-10700,24808,24808,1049,1316,103,725,258,-870,-616,6285,54,83,794,1171,1280,781,1170,1344,1288,1984,1790
158332,37364,-10292,25276,25276,1104,1243,228,646,279,-429,-676,6260,58,70,791,1119,1227,767,1147,1333,1295,1951,1741
159333,37620,-9908,25744,25744,1035,1395,307,479,353,-185,-1326,6653,47,76,790,1119,1227,767,1147,1333,1295,1951,1741
160334,37864,-9540,26212,26212,1115,1497,353,420,345,-20,84,6750,47,62,791,1119,1227,767,1147,1333,1295,1951,1741
161335,38156,-9188,26680,26680,819,1600,328,509,289,953,-70,7218,45,75,790,1119,1227,767,1147,1333,1295,1951,1741
162336,38412,-8812,27148,27148,1050,1452,320,672,297,1315,-106,6766,61,66,787,1119,1227,767,1147,1333,1295,1951,1741
163337,38632,-8484,27616,27616,1281,1756,271,812,298,1805,67,6324,44,71,789,1133,1260,779,1169,1263,1234,1909,1746
164338,38892,-8168,28084,28084,1036,1835,207,874,277,1491,-416,5989,54,55,789,1133,1260,779,1169,1263,1234,1909,1746
165339,39128,-7864,28552,28552,1191,1914,119,960,211,1142,228,5585,64,53,782,1133,1260,779,1169,1263,1234,1909,1746
166340,39372,-7580,29020,29020,1147,2043,127,913,187,1410,415,4921,60,53,781,1133,1260,779,1169,1263,1234,1909,1746
167341,39640,-7268,29488,29488,1002,1872,149,859,192,1115,386,5240,47,46,780,1133,1260,779,1169,1263,1234,1909,1746
168342,39860,-6984,29956,29956,1308,2051,130,792,218,555,-698,5055,46,49,779,1133,1260,779,1169,1263,1234,1909,1746
169343,40104,-6736,30424,30424,1163,2282,137,753,251,280,-14,4939,53,49,783,1242,1388,829,1232,1319,1289,2060,1877
170344,40372,-6480,30892,30892,1018,2237,274,733,224,734,-817,4767,53,33,776,1242,1388,829,1232,1319,1289,2060,1877
171345,40640,-6240,31360,31360,1023,2342,452,688,161,-129,-827,4721,52,44,773,1242,1388,829,1232,1319,1289,2060,1877
172346,40880,-5996,31828,31828,1204,2323,603,565,141,-402,-219,5328,48,24,774,1242,1388,829,1232,1319,1289,2060,1877
173347,41116,-5772,32296,32296,1234,2454,697,458,168,342,-528,5446,49,21,772,1242,1388,829,1232,1319,1289,2060,1877
174348,41336,-5576,32768,32768,1340,2636,811,435,165,575,-728,4850,51,14,773,1212,1368,795,1168,1341,1264,1999,1835
175349,41568,-5384,33236,33236,1271,2667,904,456,89,452,43,5814,61,15,769,1212,1368,795,1168,1341,1264,1999,1835
176350,41836,-5180,33704,33704,1051,2599,955,602,-11,771,166,5921,55,6,764,1212,1368,795,1168,1341,1264,1999,1835
177351,42076,-4996,34172,34172,1232,2731,971,759,-32,1019,-196,5620,60,13,762,1212,1368,795,1168,1341,1264,1999,1835
178352,42332,-4812,34640,34640,1137,2738,1048,658,-56,1518,986,5448,55,6,766,1212,1368,795,1168,1341,1264,1999,1835
179353,42540,-4648,35108,35108,1443,2870,1106,325,-54,1558,62,5290,59,5,761,1212,1368,795,1168,1341,1264,1999,1835
180354,42732,-4444,35576,35576,1550,2627,1114,-131,18,-187,397,5950,48,-7,762,1115,1275,749,1087,1229,1178,1819,1684
181355,42964,-4260,36044,36044,1306,2758,1102,-483,9,-39,656,6032,47,9,755,1115,1275,749,1087,1229,1178,1819,1684
182356,43176,-4060,36512,36512,1437,2665,1162,-720,-19,191,631,5380,62,1,761,1115,1275,749,1087,1229,1178,1819,1684
183357,43388,-3856,36980,36980,1443,2646,1296,-868,1,506,361,5509,49,-2,761,1115,1275,749,1087,1229,1178,1819,1684
184360,43624,-3700,37448,37448,1299,2954,1438,-1073,7,692,875,5110,47,17,759,1115,1275,749,1087,1229,1178,1819,1684
185359,43820,-3488,37916,37916,1555,2610,1555,-1269,-24,1011,313,4617,51,-27,762,1080,1232,728,1088,1192,1146,1800,1672
186360,44008,-3288,38384,38384,1612,2692,1675,-1415,-40,955,521,4689,48,22,755,1080,1232,728,1088,1192,1146,1800,1672
187361,44232,-3092,38852,38852,1393,2724,1784,-1489,-76,1354,185,4357,55,14,760,1080,1232,728,1088,1192,1146,1800,1672
188362,44468,-2896,39320,39320,1324,2730,1878,-1464,-174,1458,657,4898,59,8,757,1080,1232,728,1088,1192,1146,1800,1672
189363,44648,-2732,39788,39788,1681,2938,1924,-1359,-247,1942,-65,4385,55,3,757,1080,1232,728,1088,1192,1146,1800,1672
190364,44868,-2540,40256,40256,1437,2769,1975,-1302,-279,3061,128,3776,37,-15,758,1080,1232,728,1088,1192,1146,1800,1672
191365,45048,-2320,40724,40724,1694,2600,1990,-1176,-193,1959,-530,4380,42,3,750,1211,1371,807,1175,1275,1215,1951,1791
192366,45204,-2152,41192,41192,1852,2933,1948,-946,-186,934,663,4068,32,17,759,1211,1371,807,1175,1275,1215,1951,1791
193367,45380,-1904,41660,41660,1734,2438,1917,-783,-208,372,-891,3647,47,-10,759,1211,1371,807,1175,1275,1215,1951,1791
194368,45600,-1724,42128,42128,1465,2870,1906,-750,-160,-888,-824,3363,50,34,751,1211,1371,807,1175,1275,1215,1951,1791
195369,45724,-1508,42596,42596,2073,2651,1984,-1033,-166,-25,1195,3769,36,1,760,1211,1371,807,1175,1275,1215,1951,1791
196370,45908,-1284,43064,43064,1705,2607,2020,-1179,25,-1062,-1140,5093,33,11,756,1223,1359,819,1175,1327,1283,2011,1811
197371,46092,-1080,43532,43532,1712,2739,2070,-1269,98,-1135,518,4473,49,10,752,1223,1359,819,1175,1327,1283,2011,1811
198372,46228,-852,44000,44000,2020,2595,2236,-1612,160,-1805,1535,4068,39,12,755,1223,1359,819,1175,1327,1283,2011,1811
199373,46380,-632,44468,44468,1928,2651,2281,-1668,225,-689,-306,5322,32,22,754,1223,1359,819,1175,1327,1283,2011,1811
200374,46612,-400,44936,44936,1434,2581,2301,-1637,311,-1544,931,5134,37,14,755,1223,1359,819,1175,1327,1283,2011,1811
201375,46748,-108,45404,45404,2042,2211,2299,-1440,303,-257,1085,5106,31,14,755,1223,1359,819,1175,1327,1283,2011,1811
202376,46908,120,45872,45872,1899,2616,2320,-1330,353,828,-369,3678,30,34,763,1076,1190,735,1074,1284,1243,1881,1700
203377,47108,372,46340,46340,1656,2472,2298,-1355,489,267,1546,4856,28,31,762,1076,1190,735,1074,1284,1243,1881,1700
204378,47252,664,46808,46808,2014,2226,2106,-1214,524,157,844,6401,31,25,753,1076,1190,735,1074,1284,1243,1881,1700
205379,47364,916,47276,47276,2222,2481,1885,-887,427,-47,483,6221,29,37,762,1076,1190,735,1074,1284,1243,1881,1700
206380,47592,1232,47744,47744,1503,2085,1802,-756,433,184,-276,3705,24,42,761,1076,1190,735,1074,1284,1243,1881,1700
207381,47712,1500,48212,48212,2187,2390,1837,-835,520,1691,-682,3465,26,55,751,1040,1147,727,1065,1274,1227,1848,1675
208382,47820,1748,48680,48680,2270,2520,1799,-791,662,-131,629,4402,36,39,770,1040,1147,727,1065,1274,1227,1848,1675
209383,48000,2064,49152,49152,1828,2099,1639,-450,618,278,-489,5102,24,30,757,1040,1147,727,1065,1274,1227,1848,1675
210384,48164,2392,49620,49620,1935,2028,1527,-121,540,534,-1491,3046,36,61,754,1040,1147,727,1065,1274,1227,1848,1675
211385,48308,2776,50088,50088,2068,1680,1538,0,587,-231,-897,1533,29,53,765,1040,1147,727,1065,1274,1227,1848,1675
212386,48496,3108,50556,50556,1800,2008,1542,89,677,-925,278,2936,41,64,764,1040,1147,727,1065,1274,1227,1848,1675
213387,48648,3472,51024,51024,2033,1810,1313,268,642,950,-1168,2578,29,50,767,1056,1167,742,1056,1313,1270,1912,1740
214388,48752,3872,51492,51492,2341,1587,1041,434,688,-213,-1124,2328,23,69,768,1056,1167,742,1056,1313,1270,1912,1740
215389,48908,4248,51960,51960,2024,1739,869,385,789,-1306,86,1830,33,71,766,1056,1167,742,1056,1313,1270,1912,1740
216390,49080,4680,52428,52428,1931,1390,715,398,863,-423,-983,3064,14,77,765,1056,1167,742,1056,1313,1270,1912,1740
217391,49216,5136,52896,52896,2164,1241,606,381,934,-987,328,2768,39,66,767,1056,1167,742,1056,1313,1270,1912,1740
218392,49408,5568,53364,53364,1821,1391,556,297,992,-1831,565,2625,24,72,774,1046,1140,720,1029,1312,1263,1935,1768
219393,49572,6032,53832,53832,2004,1191,565,322,1048,-1048,560,3473,20,73,773,1046,1140,720,1029,1312,1263,1935,1768
220394,49732,6496,54300,54300,2036,1192,577,515,1112,-278,370,2972,36,84,775,1046,1140,720,1029,1312,1263,1935,1768
221395,49876,6976,54768,54768,2144,1091,598,757,1122,-528,1040,2805,22,80,775,1046,1140,720,1029,1312,1263,1935,1768
222396,50056,7460,55236,55236,1926,1066,622,811,1072,-55,518,2667,19,69,775,1046,1140,720,1029,1312,1263,1935,1768
223397,50180,7904,55704,55704,2284,1316,556,1028,1039,638,815,3669,16,80,771,1046,1140,720,1029,1312,1263,1935,1768
224398,50324,8368,56172,56172,2167,1192,469,1101,1017,1272,1371,2654,33,73,776,962,1072,690,1016,1292,1240,1869,1687
225399,50460,8872,56640,56640,2225,941,413,1286,980,1179,742,3224,21,82,769,962,1072,690,1016,1292,1240,1869,1687
226400,50560,9504,57108,57108,2459,137,397,1463,902,1083,547,2438,13,87,772,962,1072,690,1016,1292,1240,1869,1687
227401,50720,10008,57576,57576,2092,936,413,1676,858,1023,234,2360,25,84,773,962,1072,690,1016,1292,1240,1869,1687
228402,50876,10600,58044,58044,2125,383,441,1811,787,1214,84,2164,6,77,774,962,1072,690,1016,1292,1240,1869,1687
229403,51008,11136,58512,58512,2283,731,425,1911,660,992,387,1828,22,85,776,1028,1132,712,1071,1195,1188,1755,1582
230404,51128,11636,58980,58980,2366,955,430,2006,576,477,440,1425,20,90,780,1028,1132,712,1071,1195,1188,1755,1582
231405,51244,12184,59448,59448,2400,653,434,2109,549,558,-57,1786,5,79,775,1028,1132,712,1071,1195,1188,1755,1582
232406,51352,12740,59916,59916,2459,601,367,2370,519,622,-586,1923,0,83,771,1028,1132,712,1071,1195,1188,1755,1582
233407,51488,13272,60384,60384,2292,750,420,2421,566,243,-449,892,7,95,773,1028,1132,712,1071,1195,1188,1755,1582
234412,51612,13812,60852,60852,2375,698,490,2580,674,-50,-1235,1361,5,93,773,1028,1132,712,1071,1195,1188,1755,1582
235409,51728,14412,61320,61320,2434,320,638,2502,635,193,-291,531,16,87,775,1123,1224,782,1175,1173,1164,1738,1578
236410,51852,14972,61788,61788,2392,567,730,2481,524,56,-182,628,3,88,772,1123,1224,782,1175,1173,1164,1738,1578
237411,52000,15476,62256,62256,2250,917,808,2551,428,113,238,822,14,102,774,1123,1224,782,1175,1173,1164,1738,1578
238412,52132,16060,62724,62724,2358,414,865,2695,333,328,897,819,8,91,773,1123,1224,782,1175,1173,1164,1738,1578
239413,52296,16660,63192,63192,2166,311,948,2730,164,454,749,847,12,87,774,1123,1224,782,1175,1173,1164,1738,1578
240414,52416,17176,63660,63660,2449,834,1036,2866,50,448,1109,1610,10,104,773,1131,1220,757,1147,1191,1183,1767,1607
241415,52560,17652,64128,64128,2307,1084,1170,3106,15,1033,785,2290,23,91,777,1131,1220,757,1147,1191,1183,1767,1607
242416,52716,18176,64596,64596,2240,783,1289,3280,-57,517,274,2030,9,96,770,1131,1220,757,1147,1191,1183,1767,1607
243417,52852,18692,65064,65064,2373,832,1422,3414,-150,709,1180,2967,16,97,771,1131,1220,757,1147,1191,1183,1767,1607
244418,52988,19312,65536,65536,2381,178,1571,3509,-177,1363,805,2495,18,93,775,1131,1220,757,1147,1191,1183,1767,1607
245419,53140,19860,66004,66004,2289,626,1657,3681,-161,1280,233,2626,20,108,772,1044,1148,716,1071,1176,1183,1767,1607
246420,53272,20332,66472,66472,2422,1101,1703,3915,-195,1127,1888,2645,8,98,776,1044,1148,716,1071,1176,1164,1736,1579
247421,53432,20876,66940,66940,2254,649,1760,3963,-225,927,143,2328,10,105,776,1044,1148,716,1071,1176,1164,1736,1579
248422,53584,21384,67408,67408,2312,873,1770,3871,-289,540,818,1913,22,98,770,1044,1148,716,1071,1176,1164,1736,1579
249423,53744,21932,67876,67876,2270,621,1804,3792,-441,908,488,2776,26,96,777,1044,1148,716,1071,1176,1164,1736,1579
250424,53932,22460,68344,68344,2101,745,1865,3716,-564,581,-423,2346,17,106,774,1044,1148,716,1071,1176,1164,1736,1579
251425,54096,22932,68812,68812,2259,1095,1928,3646,-575,-575,-1134,3349,26,102,777,1063,1163,731,1099,1204,1189,1772,1630
252426,54252,23444,69280,69280,2316,844,1968,3554,-606,-537,-1053,3787,24,92,778,1063,1163,731,1099,1204,1189,1772,1630
253427,54424,23992,69748,69748,2224,617,1997,3274,-706,405,-600,3217,26,93,773,1063,1163,731,1099,1204,1189,1772,1630
254428,54572,24492,70216,70216,2381,916,1942,3103,-787,1459,-1020,3931,12,111,773,1063,1163,731,1099,1204,1189,1772,1630
255429,54748,24872,70684,70684,2214,1668,1828,3119,-893,2386,-762,3200,15,88,776,1063,1163,731,1099,1204,1189,1772,1630
256430,54908,25332,71152,71152,2321,1168,1622,3299,-1033,2313,-418,3733,20,91,771,1111,1222,760,1123,1276,1243,1920,1772
257431,55056,25748,71620,71620,2404,1444,1516,3213,-1139,2057,-614,2050,33,100,764,1111,1222,760,1123,1276,1243,1920,1772
258432,55232,26184,72088,72088,2236,1320,1365,3272,-1146,1400,-1644,3588,29,95,769,1111,1222,760,1123,1276,1243,1920,1772
259433,55412,26612,72556,72556,2218,1371,1310,3116,-1151,1106,-932,3841,24,81,766,1111,1222,760,1123,1276,1243,1920,1772
260434,55576,26996,73024,73024,2325,1648,1252,3020,-1172,1068,-1267,4919,23,80,771,1111,1222,760,1123,1276,1243,1920,1772
261435,55772,27372,73492,73492,2132,1700,1197,2744,-1222,873,661,4308,20,78,771,1111,1222,760,1123,1276,1243,1920,1772
262436,55936,27756,73960,73960,2340,1653,1068,2689,-1210,826,-952,6116,24,77,766,1105,1242,746,1088,1404,1332,2160,1984
263437,56108,28132,74428,74428,2297,1705,916,2608,-1221,1273,557,5058,42,68,769,1105,1242,746,1088,1404,1332,2160,1984
264438,56304,28492,74896,74896,2153,1807,838,2325,-1218,724,508,5971,24,67,765,1105,1242,746,1088,1404,1332,2160,1984
265439,56512,28828,75364,75364,2085,1961,788,2001,-1275,-301,288,5184,26,69,765,1105,1242,746,1088,1404,1332,2160,1984
266440,56680,29156,75832,75832,2342,2014,803,1541,-1308,-586,648,5757,33,59,766,1105,1242,746,1088,1404,1332,2160,1984
267441,56892,29500,76300,76300,2073,1917,818,1239,-1359,752,307,6327,39,58,763,1048,1216,728,1064,1467,1371,2230,2023
268442,57048,29856,76768,76768,2431,1845,824,873,-1398,616,321,6000,35,76,759,1048,1216,728,1064,1467,1371,2230,2023
269443,57188,30192,77236,77236,2539,1973,765,719,-1434,834,-302,6983,41,67,765,1048,1216,728,1064,1467,1371,2230,2023
270444,57376,30512,77704,77704,2246,2077,683,586,-1467,1148,241,6234,28,57,761,1048,1216,728,1064,1467,1371,2230,2023
271445,57544,30824,78172,78172,2378,2130,684,526,-1514,1869,127,6858,19,64,758,1048,1216,728,1064,1467,1371,2230,2023
272446,57720,31208,78640,78640,2335,1683,714,347,-1527,1791,181,5650,38,66,762,1048,1216,728,1064,1467,1371,2230,2023
273447,57904,31588,79108,79108,2292,1710,666,308,-1450,1235,-216,7072,37,78,758,1127,1303,783,1135,1343,1271,2015,1847
274448,58120,31924,79576,79576,2098,1988,531,209,-1352,626,133,5157,26,78,763,1127,1303,783,1135,1343,1271,2015,1847
275449,58308,32296,80044,80044,2280,1765,424,-56,-1263,426,158,5048,42,77,763,1127,1303,783,1135,1343,1271,2015,1847
276450,58532,32628,80512,80512,2061,2019,283,-267,-1141,4,274,4814,35,80,764,1127,1303,783,1135,1343,1271,2015,1847
277451,58780,32996,80980,80980,1916,1796,201,-471,-1048,1033,-107,4301,35,65,765,1127,1303,783,1135,1343,1271,2015,1847
278452,59040,33396,81448,81448,1847,1598,160,-671,-880,931,77,4550,47,83,763,1255,1407,839,1223,1279,1243,1935,1775
279453,59316,33756,81920,81920,1751,1850,122,-842,-800,1216,285,4726,53,77,772,1255,1407,839,1223,1279,1243,1935,1775
280454,59616,34136,82388,82388,1605,1728,145,-1050,-746,220,496,5071,65,67,774,1255,1407,839,1223,1279,1243,1935,1775
281455,59908,34476,82856,82856,1660,1981,267,-1253,-663,-98,695,4928,61,72,773,1255,1407,839,1223,1279,1243,1935,1775
282456,60192,34892,83324,83324,1714,1507,425,-1582,-656,54,374,4969,64,74,775,1255,1407,839,1223,1279,1243,1935,1775
283457,60464,35236,83792,83792,1794,1960,598,-1781,-628,-1194,1059,5573,58,67,772,1255,1407,839,1223,1279,1243,1935,1775
284458,60788,35572,84260,84260,1473,2013,765,-1925,-656,267,545,5530,51,66,777,1182,1311,786,1137,1312,1264,1948,1768
285459,61084,35948,84728,84728,1652,1765,935,-2138,-679,300,1373,4907,53,57,771,1182,1311,786,1137,1312,1264,1948,1768
286460,61396,36268,85196,85196,1556,2119,1078,-2229,-685,233,2203,6020,74,70,773,1182,1311,786,1137,1312,1264,1948,1768
287461,61680,36676,85664,85664,1735,1570,1140,-2260,-608,-543,1615,5112,58,61,775,1182,1311,786,1137,1312,1264,1948,1768
288462,61988,37012,86132,86132,1589,2024,1200,-2292,-472,-21,1808,5429,58,63,772,1182,1311,786,1137,1312,1264,1948,1768
289463,62332,37336,86600,86600,1367,2102,1264,-2355,-345,75,1120,4571,68,68,776,1101,1250,751,1097,1264,1211,1872,1713
290464,62696,37700,87068,87068,1245,1855,1324,-2487,-196,301,3203,4595,63,62,773,1101,1250,751,1097,1264,1211,1872,1713
291465,63044,38056,87536,87536,1347,1908,1308,-2442,10,757,1151,4619,78,74,772,1101,1250,751,1097,1264,1211,1872,1713
292466,63404,38472,88004,88004,1275,1534,1268,-2509,210,-604,1918,3642,67,70,776,1101,1250,751,1097,1264,1211,1872,1713
293467,63752,38824,88472,88472,1353,1937,1233,-2511,342,-344,1514,4353,73,70,777,1101,1250,751,1097,1264,1211,1872,1713
294468,64104,39172,88940,88940,1331,1965,1256,-2573,493,-804,1269,2605,71,68,782,1101,1250,751,1097,1264,1211,1872,1713
295469,64496,39540,89408,89408,1083,1842,1328,-2576,605,78,1403,3278,75,55,775,1132,1280,774,1133,1229,1191,1828,1698
296470,64852,39924,89876,89876,1310,1744,1404,-2622,764,-505,38,2491,66,70,777,1132,1280,774,1133,1229,1191,1828,1698
297471,65228,40292,90344,90344,1188,1846,1467,-2675,830,-586,780,3109,70,71,781,1132,1280,774,1133,1229,1191,1828,1698
298472,65604,40648,90812,90812,1190,1924,1557,-2778,882,-295,181,2660,74,59,780,1132,1280,774,1133,1229,1191,1828,1698
299473,65968,41016,91280,91280,1267,1852,1683,-2800,945,-45,259,2802,86,50,779,1132,1280,774,1133,1229,1191,1828,1698
300474,66400,41392,91748,91748,843,1804,1784,-2834,961,27,-153,2494,86,61,778,1139,1280,776,1103,1235,1183,1789,1648
301475,66792,41792,92216,92216,1095,1656,1898,-2731,978,-422,1188,3426,73,66,780,1139,1280,776,1103,1235,1183,1789,1648
302476,67192,42224,92684,92684,1047,1456,1928,-2325,978,966,1214,2981,73,72,783,1139,1280,776,1103,1235,1183,1789,1648
303477,67584,42644,93152,93152,1099,1533,1894,-1619,953,1125,722,3751,88,80,783,1139,1280,776,1103,1235,1183,1789,1648
304478,67964,43128,93620,93620,1176,1132,1858,-1002,823,1348,3034,1404,83,81,786,1139,1280,776,1103,1235,1183,1789,1648
305479,68340,43620,94088,94088,1203,1082,1814,-598,692,2863,1476,1560,88,76,790,1139,1280,776,1103,1235,1183,1789,1648
306480,68772,44164,94556,94556,854,755,1687,-513,598,2694,1282,528,74,82,791,1073,1192,722,1054,1217,1184,1776,1628
307481,69184,44640,95024,95024,980,1180,1476,-709,568,305,451,1178,82,84,794,1073,1192,722,1054,1217,1184,1776,1628
308482,69592,45168,95492,95492,1007,853,1252,-856,478,883,184,1724,82,94,789,1073,1192,722,1054,1217,1184,1776,1628
309483,69964,45720,95960,95960,1234,701,1194,-993,497,473,-551,1423,87,87,795,1073,1192,722,1054,1217,1184,1776,1628
310484,70384,46420,96428,96428,935,-230,1187,-1079,557,-737,-809,2471,81,107,794,1073,1192,722,1054,1217,1184,1776,1628
311485,70868,46980,96896,96896,535,643,1218,-1216,667,-1665,-212,3197,82,96,799,984,1092,702,1015,1263,1271,1879,1691
312486,71260,47500,97364,97364,1112,892,1248,-1154,939,-456,1086,3640,88,91,801,984,1092,702,1015,1263,1271,1879,1691
313487,71688,48056,97832,97832,888,665,1293,-883,1271,230,-828,2437,95,105,795,984,1092,702,1015,1263,1271,1879,1691
314488,72136,48580,98304,98304,763,863,1389,-869,1406,-2836,1028,3129,101,111,799,984,1092,702,1015,1263,1271,1879,1691
315489,72564,49120,98772,98772,889,762,1386,-1098,1501,-5830,325,3101,91,99,798,984,1092,702,1015,1263,1271,1879,1691
316490,73052,49612,99240,99240,514,1061,1154,-762,1558,-1631,1009,2964,88,107,798,984,1092,702,1015,1263,1271,1879,1691
317491,73468,50128,99708,99708,965,910,1094,-221,1766,-371,-263,369,87,112,798,973,1069,719,1086,1336,1304,1952,1728
318492,73896,50672,100176,100176,891,733,1110,232,1875,-217,-139,688,92,114,797,973,1069,719,1086,1336,1304,1952,1728
319493,74332,51280,100644,100644,842,330,942,695,1663,187,-583,1383,98,117,798,973,1069,719,1086,1336,1304,1952,1728
320494,74772,51836,101112,101112,818,653,744,1086,1438,-521,-514,980,85,115,801,973,1069,719,1086,1336,1304,1952,1728
321495,75228,52412,101580,101580,718,525,642,1305,1332,1381,-296,-58,87,117,800,973,1069,719,1086,1336,1304,1952,1728
322496,75672,52952,102048,102048,793,748,614,1543,1287,1770,339,844,95,119,802,1113,1210,775,1167,1287,1261,1848,1631
323497,76116,53460,102516,102516,794,947,616,1795,1164,1157,1226,1246,91,101,799,1113,1210,775,1167,1287,1261,1848,1631
324498,76552,54052,102984,102984,845,419,532,1836,1022,1441,860,1934,97,108,796,1113,1210,775,1167,1287,1261,1848,1631
325499,76952,54560,103452,103452,1071,943,444,2025,885,1348,425,1482,80,108,799,1113,1210,775,1167,1287,1261,1848,1631
326500,77372,55080,103920,103920,948,867,411,2419,784,133,-55,2730,93,114,795,1113,1210,775,1167,1287,1261,1848,1631
327501,77824,55592,104388,104388,748,916,442,2860,787,-282,27,1525,87,114,797,1113,1210,775,1167,1287,1261,1848,1631
328502,78232,56196,104856,104856,1025,337,470,3186,776,307,520,3359,82,115,798,1123,1188,758,1139,1225,1221,1755,1574
329503,78648,56748,105324,105324,976,660,475,3441,840,-765,59,2549,76,103,799,1123,1188,758,1139,1225,1221,1755,1574
330504,79088,57248,105792,105792,826,985,502,3568,987,-656,201,3041,85,108,798,1123,1188,758,1139,1225,1221,1755,1574
331505,79532,57748,106260,106260,802,984,457,3750,1199,2,389,3353,88,111,797,1123,1188,758,1139,1225,1221,1755,1574
332506,79944,58264,106728,106728,1003,883,387,3948,1395,227,1048,2183,79,117,797,1123,1188,758,1139,1225,1221,1755,1574
333507,80328,58804,107196,107196,1180,731,367,4162,1488,-73,-51,2192,76,114,796,1042,1115,720,1091,1229,1232,1805,1625
334508,80720,59268,107664,107664,1132,1206,325,4610,1380,-407,482,1079,75,111,795,1042,1115,720,1091,1229,1232,1805,1625
335509,81112,59768,108132,108132,1134,980,440,4693,1433,-2660,2178,584,83,109,792,1042,1115,720,1091,1229,1232,1805,1625
336510,81520,60184,108600,108600,1036,1507,410,4754,1495,-1530,-730,619,83,99,794,1042,1115,720,1091,1229,1232,1805,1625
337511,81944,60668,109068,109068,937,1081,341,4884,1434,-2571,1969,1476,83,92,790,1042,1115,720,1091,1229,1232,1805,1625
338512,82352,61048,109536,109536,1038,1733,243,5023,1203,-1702,554,1264,79,95,795,1042,1115,720,1091,1229,1232,1805,1625
339513,82748,61444,110004,110004,1115,1635,216,4581,1059,-1905,482,-276,74,89,787,1033,1119,723,1094,1289,1275,1880,1674
340514,83144,61808,110472,110472,1117,1838,52,4235,965,-866,-1188,2347,81,87,786,1033,1119,723,1094,1289,1275,1880,1674
341515,83584,62184,110940,110940,842,1765,-157,4186,850,-733,671,2561,83,74,782,1033,1119,723,1094,1289,1275,1880,1674
342516,84024,62568,111408,111408,843,1717,-304,4244,677,171,860,2961,81,77,785,1033,1119,723,1094,1289,1275,1880,1674
343517,84444,62884,111876,111876,969,2146,-301,4398,435,832,-562,3282,83,76,787,1033,1119,723,1094,1289,1275,1880,1674
344518,84864,63184,112344,112344,970,2250,-420,4530,225,795,423,3528,75,59,781,1048,1146,736,1069,1304,1294,1927,1783
345519,85248,63492,112812,112812,1197,2204,-591,4546,79,1288,874,4697,87,50,779,1048,1146,736,1069,1304,1294,1927,1783
346520,85644,63812,113280,113280,1124,2132,-720,4505,10,769,61,4152,76,61,776,1048,1146,736,1069,1304,1294,1927,1783
347521,86052,64088,113748,113748,1051,2412,-767,4128,-59,-454,1392,3755,83,47,778,1048,1146,736,1069,1304,1294,1927,1783
348522,86476,64344,114216,114216,952,2542,-837,3939,-173,-426,882,5724,86,37,770,1048,1146,736,1069,1304,1294,1927,1783
349523,86896,64608,114688,114688,978,2497,-1029,3527,-230,-1919,-360,4341,91,38,771,1048,1146,736,1069,1304,1294,1927,1783
350524,87308,64852,115156,115156,1029,2628,-1340,3005,-231,-3274,221,5153,82,36,772,1060,1175,738,1081,1372,1348,2067,1936
351525,87756,65128,115624,115624,805,2432,-1758,2421,-208,-2483,1123,5334,91,10,770,1060,1175,738,1081,1372,1348,2067,1936
352526,88196,65352,116092,116092,856,2763,-2155,2026,-116,-1503,1174,3717,89,27,773,1060,1175,738,1081,1372,1348,2067,1936
353527,88688,65556,116560,116560,530,2895,-2461,1744,-17,-1004,268,3159,86,2,765,1060,1175,738,1081,1372,1348,2067,1936
354528,89212,65752,117028,117028,329,2951,-2670,1401,23,-2461,418,2200,97,-26,766,1060,1175,738,1081,1372,1348,2067,1936
355529,89740,65928,117496,117496,302,3083,-2905,901,-74,-2780,752,2964,92,-28,765,1096,1264,776,1092,1512,1440,2320,2215
356530,90304,66092,117964,117964,75,3166,-3129,433,-196,-2030,203,3232,113,-48,758,1096,1264,776,1092,1512,1440,2320,2215
357531,90788,66200,118432,118432,574,3525,-3343,66,-331,-1258,896,3755,101,-72,762,1096,1264,776,1092,1512,1440,2320,2215
358532,91296,66308,118900,118900,423,3533,-3401,-248,-424,-1019,-674,4155,105,-247,749,1096,1264,776,1092,1512,1440,2320,2215
359533,91804,66412,119368,119368,422,3567,-3268,-822,-467,-2015,-103,4380,100,-243,749,1096,1264,776,1092,1512,1440,2320,2215
360534,92312,66528,119836,119836,421,3501,-3070,-1473,-605,-1478,720,5881,122,-225,747,1096,1264,776,1092,1512,1440,2320,2215
361535,92816,66644,120304,120304,446,3510,-2890,-2057,-864,-523,1755,6946,123,-245,751,1060,1243,753,1019,1516,1376,2157,2051
362536,93284,66748,120772,120772,671,3593,-2707,-2563,-1154,-1105,2128,7899,117,-256,751,1060,1243,753,1019,1516,1376,2157,2051
363537,93728,66868,121240,121240,821,3502,-2673,-2831,-1370,-1430,2522,7265,97,-221,741,1060,1243,753,1019,1516,1376,2157,2051
364538,94160,66964,121708,121708,897,3661,-2773,-3020,-1411,-1113,666,6294,113,-245,746,1060,1243,753,1019,1516,1376,2157,2051
365539,94656,67092,122176,122176,496,3469,-2944,-3213,-1309,-936,1001,6023,121,-115,737,1060,1243,753,1019,1516,1376,2157,2051
366540,95216,67168,122644,122644,94,3800,-3114,-3442,-1221,-935,1706,4702,122,-225,750,1086,1298,749,1058,1167,1111,1703,1647
367541,95768,67244,123112,123112,142,3800,-3252,-3665,-1205,-180,2048,5470,104,233,760,1086,1298,749,1058,1167,1111,1703,1647
368542,96380,67312,123580,123580,-236,3800,-3429,-4105,-1152,-1213,1914,5233,118,238,760,1086,1298,749,1058,1167,1111,1703,1647
369543,96908,67408,124048,124048,287,3707,-3611,-4654,-1032,-2578,3413,4966,124,258,758,1086,1298,749,1058,1167,1111,1703,1647
370544,97440,67484,124516,124516,261,3800,-3653,-5156,-950,-2532,1958,5105,100,-18,746,1086,1298,749,1058,1167,1111,1703,1647
371545,97956,67572,124984,124984,359,3776,-3482,-5631,-830,-2870,1261,3262,104,258,760,1086,1298,749,1058,1167,1111,1703,1647
372546,98412,67640,125452,125452,735,3800,-3110,-6088,-556,-4065,32,2180,119,170,756,1250,1407,803,1202,1156,1152,1801,1674
373547,98932,67736,125920,125920,333,3745,-2846,-6345,-318,-3189,177,4536,108,248,758,1250,1407,803,1202,1156,1152,1801,1674
374548,99452,67856,126388,126388,332,3604,-2635,-6402,-321,-1759,6,4465,116,105,754,1250,1407,803,1202,1156,1152,1801,1674
375549,99956,67992,126856,126856,431,3512,-2292,-6726,-363,-1333,-1036,2205,112,-207,742,1250,1407,803,1202,1156,1152,1801,1674
376550,100488,68136,127324,127324,255,3470,-1878,-7330,-275,-3169,364,2501,124,-223,750,1250,1407,803,1202,1156,1152,1801,1674
377551,100972,68308,127792,127792,554,3302,-1694,-7704,-340,-2903,1547,4193,109,-217,752,1225,1325,795,1192,1220,1209,1845,1645
378552,101520,68512,128260,128260,152,3108,-1672,-8201,-429,-1938,768,2707,102,-125,749,1225,1325,795,1192,1220,1209,1845,1645
379553,102008,68724,128728,128728,527,3064,-1529,-8824,-388,-1556,2352,3360,97,-63,759,1225,1325,795,1192,1220,1209,1845,1645
380554,102464,69012,129196,129196,727,2594,-1430,-9477,-318,-345,-23,1523,108,-49,758,1225,1325,795,1192,1220,1209,1845,1645
381555,102912,69256,129664,129664,778,2874,-1210,-9967,-272,-1307,2455,3442,104,8,767,1225,1325,795,1192,1220,1209,1845,1645
382556,103420,69504,130132,130132,402,2855,-1049,-9948,-130,-3013,2677,4012,97,-9,762,1225,1325,795,1192,1220,1209,1845,1645
383557,103924,69788,130600,130600,426,2634,-959,-9828,-294,1713,1445,3925,99,-19,765,1143,1241,749,1103,1174,1141,1719,1571
384558,104424,70108,131072,131072,450,2413,-754,-9741,-184,-584,2805,4340,110,6,767,1143,1241,749,1103,1174,1141,1719,1571
385559,104880,70472,131540,131540,725,2140,-572,-9626,174,-2470,1663,3140,117,1,772,1143,1241,749,1103,1174,1141,1719,1571
386560,105376,70804,132008,132008,475,2344,-453,-9638,246,-40,5451,2848,104,39,774,1143,1241,749,1103,1174,1141,1719,1571
387561,105928,71124,132476,132476,123,2422,-299,-9754,331,2332,-1004,2524,96,20,775,1143,1241,749,1103,1174,1141,1719,1571
388562,106408,71464,132944,132944,572,2300,-530,-8976,1147,-2929,-667,3566,109,33,776,1084,1204,727,1069,1143,1115,1679,1580
389563,106880,71884,133412,133412,622,1802,-923,-8524,1298,5574,1654,2760,101,34,776,1084,1204,727,1069,1143,1115,1679,1580
390564,107368,72308,133880,133880,522,1778,-1531,-7981,1590,2035,-135,5746,92,52,783,1084,1204,727,1069,1143,1115,1679,1580
391565,107820,72800,134348,134348,747,1352,-2278,-7189,1803,1023,1043,6083,92,64,785,1084,1204,727,1069,1143,1115,1679,1580
392566,108332,73276,134816,134816,371,1452,-2741,-6058,1417,6497,1323,8396,98,77,789,1084,1204,727,1069,1143,1115,1679,1580
393567,108736,73796,135284,135284,1048,1176,-3094,-5861,1324,5118,814,2921,96,86,790,1084,1204,727,1069,1143,1115,1679,1580
394568,109136,74404,135752,135752,1074,622,-3321,-6339,1646,-13,-2584,1957,82,77,789,1066,1143,736,1072,1471,1481,2196,1968
395569,109516,75012,136220,136220,1201,619,-3269,-6205,1655,-423,-3548,5687,74,82,794,1066,1143,736,1072,1471,1481,2196,1968
396570,109900,75608,136688,136688,1179,691,-2942,-6055,1490,264,-4302,2145,72,81,793,1066,1143,736,1072,1471,1481,2196,1968
397571,110344,76240,137156,137156,804,462,-2591,-6241,1693,-1798,-6426,1135,81,96,794,1066,1143,736,1072,1471,1481,2196,1968
398572,110732,76968,137624,137624,1156,-145,-2293,-6166,1610,625,-2571,4267,89,93,799,1066,1143,736,1072,1471,1481,2196,1968
399573,111056,77604,138092,138092,1560,426,-2243,-5535,1681,-2789,-2880,4964,73,89,796,965,1008,728,1094,1874,1856,2532,1976
400574,111364,78236,138560,138560,1663,447,-2233,-5407,1866,-3498,-1962,3893,73,97,790,965,1008,728,1094,1874,1856,2532,1976
401575,111648,78792,139028,139028,1818,920,-2463,-5163,1850,115,1353,6943,52,91,788,965,1008,728,1094,1874,1856,2532,1976
402576,111924,79232,139496,139496,1873,1646,-2848,-4693,1931,740,916,7477,47,103,782,965,1008,728,1094,1874,1856,2532,1976
403577,112228,79840,139964,139964,1702,592,-3319,-3754,2012,706,2455,7393,49,104,773,965,1008,728,1094,1874,1856,2532,1976
404578,112456,80424,140432,140432,2183,740,-3684,-2751,1981,2327,738,8422,48,88,785,965,1008,728,1094,1874,1856,2532,1976
405579,112672,81000,140900,140900,2264,787,-4098,-1975,2082,1912,1260,7899,35,96,778,1037,1079,753,1251,1381,1419,1955,1551
406580,112852,81580,141368,141368,2496,759,-4501,-1460,2167,2885,1516,8949,37,108,775,1037,1079,753,1251,1381,1419,1955,1551
407581,112992,82168,141836,141836,2754,706,-4760,-878,2189,2779,489,8610,21,111,771,1037,1079,753,1251,1381,1419,1955,1551
408582,113136,82740,142304,142304,2737,804,-4926,-296,2108,1891,193,7524,-4,99,764,1037,1079,753,1251,1381,1419,1955,1551
409585,113236,83340,142772,142772,3021,625,-4848,231,1929,1370,-623,7126,-22,104,764,1037,1079,753,1251,1381,1419,1955,1551
410584,113372,83876,143240,143240,2804,1024,-4633,629,1754,1050,-1931,5340,-16,108,756,1212,1234,821,1371,1268,1320,1918,1592
411585,113504,84464,143708,143708,2837,696,-4282,855,1610,802,-2484,4968,-50,103,761,1212,1234,821,1371,1268,1320,1918,1592
412586,113616,85112,144176,144176,2971,316,-3830,1018,1470,403,-2926,4283,-24,111,764,1212,1234,821,1371,1268,1320,1918,1592
413587,113708,85696,144644,144644,3105,714,-3343,1257,1323,323,-3556,3964,-21,117,761,1212,1234,821,1371,1268,1320,1918,1592
414588,113852,86188,145112,145112,2788,1288,-2904,1623,1232,1148,-4243,3584,-51,125,757,1212,1234,821,1371,1268,1320,1918,1592
415589,113920,86748,145580,145580,3272,861,-2528,1967,1209,2165,-2737,3658,-80,119,758,1212,1234,821,1371,1268,1320,1918,1592
416590,113984,87220,146048,146048,3307,1411,-2323,2449,1261,2358,-3021,4090,-16,116,749,1256,1336,832,1325,1180,1159,1792,1552
417591,114116,87896,146516,146516,2891,131,-2245,3079,1331,3048,-2066,4718,-143,121,742,1256,1336,832,1325,1180,1159,1792,1552
418592,114192,88392,146984,146984,3250,1255,-2166,3603,1400,3450,-1127,4928,-154,123,763,1256,1336,832,1325,1180,1159,1792,1552
419593,114292,89020,147456,147456,3109,426,-2025,4062,1399,3750,-380,4765,-43,126,747,1256,1336,832,1325,1180,1159,1792,1552
420594,114396,89540,147924,147924,3093,1100,-1927,4581,1376,2910,86,5644,-119,124,760,1256,1336,832,1325,1180,1159,1792,1552
421595,114496,90192,148392,148392,3127,270,-1876,5076,1299,3609,822,6164,-94,133,755,1231,1323,748,1196,1043,1026,1590,1474
422596,114608,90696,148860,148860,3061,1195,-1793,5311,1192,3506,1743,5835,-88,112,761,1231,1323,748,1196,1043,1026,1590,1474
423597,114764,91372,149328,149328,2793,114,-1657,5608,1093,3252,545,5830,-97,126,754,1231,1323,748,1196,1043,1026,1590,1474
424598,114932,91912,149796,149796,2726,963,-1373,5854,972,2756,1307,5760,-61,119,768,1231,1323,748,1196,1043,1026,1590,1474
425599,115096,92420,150264,150264,2758,1162,-1045,5982,838,2426,461,5761,-9,118,763,1231,1323,748,1196,1043,1026,1590,1474
426600,115256,93080,150732,150732,2791,207,-659,6060,670,2164,264,5927,-13,111,761,1231,1323,748,1196,1043,1026,1590,1474
427601,115380,93676,151200,151200,3024,604,-311,6062,526,1600,-781,5474,-12,124,765,1111,1213,696,1118,1129,1157,1763,1556
428602,115508,94228,151668,151668,3007,877,104,6050,382,1168,-1275,4438,-5,118,757,1111,1213,696,1118,1129,1157,1763,1556
429603,115648,94796,152136,152136,2940,774,565,5867,206,802,-2382,3406,-48,129,755,1111,1213,696,1118,1129,1157,1763,1556
430604,115776,95388,152604,152604,3024,621,1011,5695,63,309,-1407,3714,-31,126,759,1111,1213,696,1118,1129,1157,1763,1556
431605,115948,95956,153072,153072,2756,769,1408,5344,-22,655,-2735,2802,-26,129,757,1111,1213,696,1118,1129,1157,1763,1556
432606,116100,96572,153540,153540,2889,465,1748,5014,-140,208,-1848,2692,-38,110,764,1178,1259,794,1290,1198,1239,1837,1573
433607,116264,97104,154008,154008,2821,989,2031,4587,-263,-472,-2800,2199,2,112,764,1178,1259,794,1290,1198,1239,1837,1573
434608,116436,97660,154476,154476,2778,837,2300,4339,-386,602,-1881,2684,-13,123,761,1178,1259,794,1290,1198,1239,1837,1573
435609,116612,98176,154944,154944,2760,1085,2497,4287,-459,1544,-1451,2363,-14,116,764,1178,1259,794,1290,1198,1239,1837,1573
436610,116772,98744,155412,155412,2868,758,2644,4368,-555,2661,-851,2991,-16,113,762,1178,1259,794,1290,1198,1239,1837,1573
437611,116952,99284,155880,155880,2750,931,2751,4339,-581,2699,-740,1999,-12,121,765,1178,1259,794,1290,1198,1239,1837,1573
438612,117120,99824,156348,156348,2832,929,2840,4260,-595,2949,-564,3107,-23,127,764,1355,1439,868,1362,1101,1109,1695,1551
439613,117284,100360,156816,156816,2865,953,2980,4027,-648,2549,-96,3178,-12,110,761,1355,1439,868,1362,1101,1109,1695,1551
440614,117452,100900,157284,157284,2847,926,3076,3987,-742,2963,278,5384,-9,112,762,1355,1439,868,1362,1101,1109,1695,1551
441615,117644,101484,157752,157752,2704,648,3158,3957,-784,3133,1062,5530,-12,117,763,1355,1439,868,1362,1101,1109,1695,1551
442616,117856,102000,158220,158220,2585,1072,3294,4028,-765,3503,1166,6194,-10,111,766,1355,1439,868,1362,1101,1109,1695,1551
443617,118060,102528,158688,158688,2641,996,3426,4046,-794,3713,1147,6093,15,101,767,1242,1375,775,1134,1119,1095,1743,1707
444618,118284,103056,159156,159156,2522,994,3643,4044,-887,3329,1576,6371,28,119,764,1242,1375,775,1134,1119,1095,1743,1707
445619,118480,103572,159624,159624,2704,1068,3942,3884,-950,3000,607,6239,20,116,767,1242,1375,775,1134,1119,1095,1743,1707
446620,118688,104152,160092,160092,2635,665,4244,3716,-1003,2841,1569,6747,35,108,764,1242,1375,775,1134,1119,1095,1743,1707
447621,118956,104668,160560,160560,2265,1064,4516,3473,-1029,2193,174,6750,16,100,769,1242,1375,775,1134,1119,1095,1743,1707
448622,119188,105208,161028,161028,2496,912,4762,3242,-1074,1974,1498,5843,20,99,773,1242,1375,775,1134,1119,1095,1743,1707
449623,119436,105700,161496,161496,2401,1212,4995,3131,-1030,2138,346,5917,43,93,770,1049,1232,717,1019,1293,1218,2018,1912
450624,119708,106196,161964,161964,2256,1186,5214,3141,-980,2159,-324,4504,28,86,768,1049,1232,717,1019,1293,1218,2018,1912
451625,119960,106740,162432,162432,2386,884,5391,3110,-951,1570,1467,4438,48,82,771,1049,1232,717,1019,1293,1218,2018,1912
452626,120196,107264,162900,162900,2492,1008,5443,2990,-935,2395,791,3836,36,100,771,1049,1232,717,1019,1293,1218,2018,1912
453627,120500,107772,163368,163368,2071,1107,5388,2711,-878,2650,232,3167,41,94,769,1049,1232,717,1019,1293,1218,2018,1912
454628,120764,108252,163840,163840,2326,1282,5246,2883,-715,2929,447,4864,29,88,776,1155,1352,805,1188,1348,1302,2046,1827
455629,121036,108848,164308,164308,2281,554,5008,3375,-344,729,606,5024,45,83,771,1155,1352,805,1188,1348,1302,2046,1827
456630,121300,109376,164776,164776,2336,977,4918,3408,-60,2054,-1136,3591,42,98,776,1155,1352,805,1188,1348,1302,2046,1827
457631,121572,109920,165244,165244,2291,875,4719,3124,160,1441,-833,4057,55,105,773,1155,1352,805,1188,1348,1302,2046,1827
458632,121932,110404,165712,165712,1743,1250,4536,2643,191,2378,1185,3257,51,101,775,1155,1352,805,1188,1348,1302,2046,1827
459637,122248,110976,166180,166180,2022,697,4272,2563,187,1860,1121,3727,50,88,779,1155,1352,805,1188,1348,1302,2046,1827
460634,122596,111564,166648,166648,1825,594,3926,3055,273,1795,-393,5093,73,93,782,1235,1330,839,1248,1348,1336,1969,1724
461635,122956,112092,167116,167116,1753,968,3685,3620,420,1383,-1735,5404,66,95,785,1235,1330,839,1248,1348,1336,1969,1724
462636,123352,112756,167584,167584,1529,113,3668,3620,471,1045,-1756,4491,83,96,783,1235,1330,839,1248,1348,1336,1969,1724
463637,123788,113320,168052,168052,1280,736,3741,3542,480,759,-1546,5233,72,97,792,1235,1330,839,1248,1348,1336,1969,1724
464638,124220,113896,168520,168520,1306,658,3783,3403,508,764,220,4331,75,95,792,1235,1330,839,1248,1348,1336,1969,1724
465639,124680,114424,168988,168988,1131,957,3633,3742,563,2020,-525,5514,82,118,793,1026,1088,725,1052,1454,1419,2051,1779
466640,125168,114960,169456,169456,956,905,3417,3913,711,956,328,4007,91,105,793,1026,1088,725,1052,1454,1419,2051,1779
467641,125700,115556,169924,169924,679,527,3205,3959,811,-314,-77,3083,109,107,795,1026,1088,725,1052,1454,1419,2051,1779
468642,126184,116124,170392,170392,979,699,3038,3772,891,-1697,-219,2328,95,120,800,1026,1088,725,1052,1454,1419,2051,1779
469643,126748,116696,170860,170860,476,672,2825,3579,924,-1941,44,2170,94,115,797,1026,1088,725,1052,1454,1419,2051,1779
470644,127244,117260,171328,171328,901,720,2558,3408,1032,-1433,-329,2694,105,116,801,909,992,671,986,1471,1400,2070,1779
471645,127792,117836,171796,171796,574,642,2220,3545,1249,-63,-234,3752,109,118,798,909,992,671,986,1471,1400,2070,1844
472646,128300,118420,172264,172264,823,589,1965,3764,1481,205,-518,3305,102,105,801,909,992,671,986,1471,1400,2070,1844
473647,128788,118996,172732,172732,947,636,1811,4024,1633,515,551,2804,118,113,799,909,992,671,986,1471,1400,2070,1844
474648,129392,119540,173200,173200,219,835,1683,4300,1711,1433,942,2858,125,104,799,909,992,671,986,1471,1400,2070,1844
475649,129928,120084,173668,173668,642,833,1488,4604,1800,1806,597,1574,118,124,802,909,992,671,986,1471,1400,2070,1844
476650,130484,120596,174136,174136,515,1032,1398,4763,1828,1499,9,262,119,113,799,971,1108,721,1051,1396,1323,1983,1821
477651,131024,121132,174604,174604,613,880,1250,5040,1834,1991,-431,-137,109,104,799,971,1108,721,1051,1396,1323,1983,1821
478652,131548,121756,175072,175072,712,326,1137,5166,1956,2553,-805,235,108,120,797,971,1108,721,1051,1396,1323,1983,1821
479653,132104,122340,175540,175540,510,573,954,5451,2116,2367,-600,314,114,108,802,971,1108,721,1051,1396,1323,1983,1821
480654,132628,122820,176008,176008,709,1223,806,5489,2189,923,-751,-6,109,112,802,971,1108,721,1051,1396,1323,1983,1821
481655,133136,123320,176476,176476,808,1097,770,5567,2156,958,590,479,102,110,796,1126,1249,781,1140,1242,1196,1752,1602
482656,133636,123884,176944,176944,857,695,681,5482,2110,2734,-1406,-662,102,108,796,1126,1249,781,1140,1242,1196,1752,1602
483657,134116,124380,177412,177412,982,1119,652,5284,1996,1141,107,-505,115,123,799,1126,1249,781,1140,1242,1196,1752,1602
484658,134644,124860,177880,177880,680,1219,547,4715,1829,-1511,1053,-561,109,113,794,1126,1249,781,1140,1242,1196,1752,1602
485659,135140,125356,178348,178348,879,1118,272,4161,1645,-2348,634,-560,98,109,796,1126,1249,781,1140,1242,1196,1752,1602
486660,135628,125800,178816,178816,929,1444,-90,3821,1466,-2912,651,232,109,114,795,1126,1249,781,1140,1242,1196,1752,1602
487661,136124,126272,179284,179284,878,1269,-477,3623,1352,-2730,1142,1620,118,108,790,1096,1183,733,1065,1161,1139,1693,1611
488662,136616,126708,179752,179752,903,1495,-791,3352,1373,-1876,875,2728,110,102,791,1096,1183,733,1065,1161,1139,1693,1611
489663,137172,127108,180224,180224,501,1721,-1048,2841,1495,-1644,507,4431,96,101,791,1096,1183,733,1065,1161,1139,1693,1611
490664,137688,127500,180692,180692,749,1773,-1223,2592,1543,-1518,-614,4593,108,99,791,1096,1183,733,1065,1161,1139,1693,1611
491665,138200,127896,181160,181160,773,1750,-1218,2201,1485,-2483,-701,3235,104,79,787,1096,1183,733,1065,1161,1139,1693,1611
492666,138712,128248,181628,181628,772,2028,-1210,2007,1381,-1584,-1253,2818,95,83,787,934,1047,667,928,1391,1341,2075,2066
493667,139152,128580,182096,182096,1223,2156,-1269,1939,1277,-329,-2160,2665,118,68,782,934,1047,667,928,1391,1341,2075,2066
494668,139660,128872,182564,182564,797,2410,-1410,2090,1233,426,-1178,3023,111,76,777,934,1047,667,928,1391,1341,2075,2066
495669,140196,129168,183032,183032,620,2390,-1562,2185,1267,1068,-968,2581,111,65,772,934,1047,667,928,1391,1341,2075,2066
496670,140628,129460,183500,183500,1271,2419,-1717,2253,1185,1193,-1625,3039,92,45,775,934,1047,667,928,1391,1341,2075,2066
497671,141132,129704,183968,183968,820,2724,-1811,2236,1032,-558,-228,1688,98,35,771,934,1047,667,928,1391,1341,2075,2066
498672,141628,129936,184436,184436,870,2805,-1973,1993,843,-480,-136,1566,113,41,763,955,1134,712,989,1552,1459,2324,2182
499673,142104,130152,184904,184904,994,2911,-2190,1859,614,-806,-513,656,103,15,765,955,1134,712,989,1552,1459,2324,2182
500674,142620,130372,185372,185372,743,2892,-2562,1433,473,-2643,618,435,99,-7,764,955,1134,712,989,1552,1459,2324,2182
501675,143080,130596,185840,185840,1093,2873,-3001,1310,319,-2601,140,2046,92,-20,763,955,1134,712,989,1552,1459,2324,2182
502676,143552,130776,186308,186308,1018,3155,-3331,916,219,-2737,979,206,97,-13,763,955,1134,712,989,1552,1459,2324,2182
503677,144052,130944,186776,186776,843,3238,-3697,701,119,-3067,606,2779,96,-11,757,1111,1290,775,1122,1382,1321,2042,1851
504678,144580,131052,187244,187244,666,3621,-3935,429,25,-5338,430,1776,96,-66,754,1111,1290,775,1122,1382,1321,2042,1851
505679,145088,131180,187712,187712,790,3505,-4045,-392,-106,-4711,390,2413,110,-73,739,1111,1290,775,1122,1382,1321,2042,1851
506680,145680,131280,188180,188180,262,3689,-4044,-1289,-78,-4450,-626,4032,112,-173,749,1111,1290,775,1122,1382,1321,2042,1851
507681,146180,131380,188648,188648,836,3698,-3978,-1970,-17,-4059,-501,5900,117,-233,744,1111,1290,775,1122,1382,1321,2042,1851
508682,146632,131464,189116,189116,1137,3800,-3829,-2300,33,-4955,82,6177,104,-62,744,1111,1290,775,1122,1382,1321,2042,1851
509683,147184,131524,189584,189584,510,3800,-3628,-2360,-14,-3312,-249,6721,112,-56,756,1093,1205,739,1067,1213,1172,1738,1639
510684,147680,131608,190052,190052,859,3800,-3459,-2360,-15,-1975,496,6548,110,237,760,1093,1205,739,1067,1213,1172,1738,1639
511685,148260,131684,190520,190520,331,3800,-3332,-2357,46,-1422,-84,6389,106,242,758,1093,1205,739,1067,1213,1172,1738,1639
512686,148804,131748,190988,190988,554,3800,-3296,-2350,98,-906,1248,7044,104,261,768,1093,1205,739,1067,1213,1172,1738,1639
513687,149340,131816,191456,191456,603,3800,-3209,-2336,126,-964,1024,5232,116,224,760,1093,1205,739,1067,1213,1172,1738,1639
514688,149848,131904,191924,191924,777,3800,-3131,-2252,134,-239,1952,5744,126,257,760,1082,1236,743,1092,1122,1119,1705,1609
515689,150436,131992,192392,192392,274,3800,-3108,-2162,100,-798,3278,5063,116,238,758,1082,1236,743,1092,1122,1119,1705,1609
516690,150964,132104,192860,192860,647,3708,-3068,-2116,92,-1845,2472,3778,112,262,760,1082,1236,743,1092,1122,1119,1705,1609
517691,151452,132196,193328,193328,897,3800,-2972,-2193,84,-2653,2529,2914,123,256,744,1082,1236,743,1092,1122,1119,1705,1609
518692,151976,132312,193796,193796,670,3701,-2792,-2447,115,-3191,1801,2425,128,-19,756,1082,1236,743,1092,1122,1119,1705,1609
519693,152540,132428,194264,194264,418,3709,-2575,-2821,161,-3663,2547,2868,128,260,744,1082,1236,743,1092,1122,1119,1705,1609
520694,153084,132528,194732,194732,541,3800,-2318,-3264,213,-4367,2214,3156,118,-34,744,1226,1356,808,1242,1210,1218,1904,1668
521695,153612,132632,195200,195200,640,3800,-2048,-3706,301,-5076,1447,3190,124,-34,760,1226,1356,808,1242,1210,1218,1904,1668
522696,154164,132688,195668,195668,488,3800,-1678,-4059,421,-5467,1944,3063,134,232,760,1226,1356,808,1242,1210,1218,1904,1668
523697,154764,132788,196136,196136,185,3800,-1322,-4206,348,-4692,2191,2816,112,266,760,1226,1356,808,1242,1210,1218,1904,1668
524698,155372,132936,196608,196608,131,3554,-1082,-4242,99,-3329,411,2499,112,253,760,1226,1356,808,1242,1210,1218,1904,1668
525699,155880,133032,197076,197076,755,3800,-703,-5381,425,-5805,1816,-1267,124,250,746,1258,1367,807,1231,1183,1167,1759,1569
526700,156404,133240,197544,197544,654,3194,-773,-5662,686,-4080,2688,7774,123,-213,758,1258,1367,807,1231,1183,1167,1759,1569
527701,157024,133492,198012,198012,50,2925,-1048,-5105,448,-172,-581,6637,114,238,755,1258,1367,807,1231,1183,1167,1759,1569
528702,157680,133764,198480,198480,-179,2804,-636,-5865,583,-1447,885,585,111,-39,763,1258,1367,807,1231,1183,1167,1759,1569
529703,158292,134052,198948,198948,92,2709,-320,-6357,901,-1314,831,6480,127,-13,766,1258,1367,807,1231,1183,1167,1759,1569
530704,158904,134368,199416,199416,89,2538,-262,-6046,977,2156,569,7547,117,-6,768,1258,1367,807,1231,1183,1167,1759,1569
531705,159484,134712,199884,199884,286,2366,-134,-5790,1192,3913,616,4670,107,16,772,1136,1224,756,1090,1140,1113,1686,1618
532706,160056,134992,200352,200352,333,2770,258,-5676,1331,4819,1035,2985,116,34,775,1136,1224,756,1090,1140,1113,1686,1618
533707,160556,135316,200820,200820,783,2499,608,-5358,1511,-64,1645,5482,112,39,767,1136,1224,756,1090,1140,1113,1686,1618
534708,161056,135672,201288,201288,782,2301,716,-5695,1219,1378,2700,2165,125,10,770,1136,1224,756,1090,1140,1113,1686,1618
535709,161800,136028,201756,201756,-750,2304,780,-5838,1189,-6,-892,5548,115,23,774,1136,1224,756,1090,1140,1113,1686,1618
536710,162376,136356,202224,202224,297,2483,853,-5970,1475,-764,2031,1286,122,35,772,1118,1261,754,1075,1183,1150,1772,1652
537711,162996,136644,202692,202692,19,2737,1024,-5900,1626,-2177,229,2228,113,27,774,1118,1261,754,1075,1183,1150,1772,1652
538712,163500,137008,203160,203160,743,2265,1157,-6182,1600,-3971,5120,1352,102,26,769,1118,1261,754,1075,1183,1150,1772,1652
539713,163984,137364,203628,203628,867,2317,1057,-6751,1477,-3697,2125,727,110,9,775,1118,1261,754,1075,1183,1150,1772,1652
540714,164628,137760,204096,204096,-137,2069,1028,-7178,1432,-2531,2476,498,118,42,773,1118,1261,754,1075,1183,1150,1772,1652
541715,165200,138120,204564,204564,311,2297,1075,-7450,1636,-1981,1240,217,105,37,781,1118,1261,754,1075,1183,1150,1772,1652
542716,165752,138480,205032,205032,433,2299,1199,-7490,1822,-1708,487,1501,115,40,777,1117,1237,744,1120,1237,1206,1835,1654
543717,166284,138936,205500,205500,557,1700,1297,-7509,1821,-668,3075,2285,124,45,778,1117,1237,744,1120,1237,1206,1835,1654
544718,166852,139492,205968,205968,329,1072,1330,-7141,2003,-2905,809,3708,110,50,785,1117,1237,744,1120,1237,1206,1835,1654
545719,167396,139952,206436,206436,478,1673,1267,-6709,2373,-5156,3070,-1111,100,73,795,1117,1237,744,1120,1237,1206,1835,1654
546720,167960,140448,206904,206904,350,1447,1310,-7111,2141,3631,924,-2878,117,75,785,1117,1237,744,1120,1237,1206,1835,1654
547721,168468,141028,207372,207372,699,919,1279,-7562,2102,2464,-2286,-931,110,66,792,1088,1180,742,1097,1265,1253,1805,1631
548722,169008,141616,207840,207840,498,866,1030,-7169,2107,751,224,2685,103,78,795,1088,1180,742,1097,1265,1253,1805,1631
549723,169524,142268,208308,208308,646,462,895,-6905,1781,2813,-379,44,112,84,798,1088,1180,742,1097,1265,1253,1805,1631
550724,170044,142912,208776,208776,620,508,1050,-7014,1668,1260,-1822,-964,116,96,800,1088,1180,742,1097,1265,1253,1805,1631
551725,170656,143428,209244,209244,42,1306,1368,-7356,1674,384,-941,-380,113,95,801,1088,1180,742,1097,1265,1253,1805,1631
552726,171192,143984,209712,209712,515,1054,1596,-7649,1586,165,-677,938,108,94,796,1088,1180,742,1097,1265,1253,1805,1631
553727,171708,144628,210180,210180,639,500,1779,-7964,1534,546,-1617,430,105,97,797,996,1060,701,1017,1229,1207,1688,1545
554728,172276,145228,210648,210648,311,772,1914,-8132,1629,-9,-1376,589,119,109,801,996,1060,701,1017,1229,1207,1688,1545
555729,172860,145856,211116,211116,208,593,2041,-8103,1752,48,-1417,1627,112,108,801,996,1060,701,1017,1229,1207,1688,1545
556730,173416,146424,211584,211584,381,965,2041,-7692,1795,1339,-418,2035,103,105,803,996,1060,701,1017,1229,1207,1688,1545
557731,173984,146916,212052,212052,304,1440,1978,-7467,1824,588,96,579,119,101,799,996,1060,701,1017,1229,1207,1688,1545
558732,174496,147592,212520,212520,653,285,1898,-7573,1787,-758,2336,1099,121,117,795,967,1069,684,1034,1108,1098,1619,1503
559733,175044,148188,212992,212992,426,782,1623,-7542,1809,-412,1767,1882,102,104,802,967,1069,684,1034,1108,1098,1619,1503
560734,175560,148724,213460,213460,625,1155,1078,-7327,2200,2179,806,-75,101,107,801,967,1069,684,1034,1108,1098,1619,1503
561735,176152,149352,213928,213928,147,576,289,-6679,2734,4353,770,1608,113,110,796,967,1069,684,1034,1108,1098,1619,1503
562736,176604,150004,214396,214396,1022,422,-632,-5575,2989,5970,256,5925,115,103,803,967,1069,684,1034,1108,1098,1619,1503
563737,177100,150620,214864,214864,746,643,-1523,-4225,3009,4996,1313,5958,100,105,797,967,1069,684,1034,1108,1098,1619,1503
564738,177524,151196,215332,215332,1198,890,-2032,-3695,2913,2999,1157,5509,95,103,799,1064,1180,723,1078,1366,1368,2156,1959
565739,177940,151776,215800,215800,1249,863,-2099,-2764,2621,2513,363,7294,81,111,793,1064,1180,723,1078,1366,1368,2156,1959
566740,178388,152392,216268,216268,1049,634,-1932,-2610,2510,515,-2854,5385,92,111,793,1064,1180,723,1078,1366,1368,2156,1959
567741,178748,152996,216736,216736,1602,706,-1826,-2443,2409,2772,-5573,6117,83,111,796,1064,1180,723,1078,1366,1368,2156,1959
568742,179092,153588,217204,217204,1705,778,-1579,-2050,2399,1615,-4753,6650,68,124,789,1064,1180,723,1078,1366,1368,2156,1959
569743,179376,154152,217672,217672,2084,950,-1330,-1664,2613,-3511,-4123,2684,55,119,786,997,1083,770,1143,2184,2159,2999,2334
570744,179660,154756,218140,218140,2089,697,-1037,-1368,2560,-2010,-3730,5753,64,119,778,997,1083,770,1143,2184,2159,2999,2334
571745,179916,155396,218608,218608,2269,468,-1028,-1078,2482,53,-2720,6696,47,125,779,997,1083,770,1143,2184,2159,2999,2334
572746,180140,155920,219076,219076,2475,1191,-1291,-614,2593,1351,-1224,8236,39,129,779,997,1083,770,1143,2184,2159,2999,2334
573747,180344,156476,219544,219544,2607,989,-1638,-42,2777,3119,-2326,8795,24,106,769,997,1083,770,1143,2184,2159,2999,2334
574748,180516,157040,220012,220012,2814,937,-2030,568,3112,1985,-516,9348,31,121,769,997,1083,770,1143,2184,2159,2999,2334
575749,180700,157580,220480,220480,2746,1085,-2507,1047,3316,2453,852,9209,7,112,765,1072,1109,816,1344,1654,1698,2243,1679
576750,180864,158188,220948,220948,2878,657,-3018,1745,3308,2875,1549,10752,-18,129,762,1072,1109,816,1344,1654,1698,2243,1679
577751,181000,158820,221416,221416,3061,503,-3559,2217,3329,2777,1731,10080,3,115,764,1072,1109,816,1344,1654,1698,2243,1679
578752,181132,159380,221884,221884,3094,950,-4085,2657,3413,3734,807,10719,-25,136,758,1072,1109,816,1344,1654,1698,2243,1679
579753,181208,159912,222352,222352,3454,1124,-4492,3078,3487,3525,1300,10727,-51,126,755,1072,1109,816,1344,1654,1698,2243,1679
580754,181280,160472,222820,222820,3489,947,-4590,3365,3444,2381,91,8753,-76,118,747,1175,1176,792,1344,1248,1344,1920,1572
581755,181392,161176,223288,223288,3247,41,-4409,3641,3304,1105,-979,7817,-262,142,748,1175,1176,792,1344,1248,1344,1920,1572
582756,181484,161660,223756,223756,3382,1416,-4034,3888,3117,584,-613,7200,-271,138,755,1175,1176,792,1344,1248,1344,1920,1572
583757,181604,162280,224224,224224,3215,562,-3601,4132,2877,919,-1833,6442,-127,124,740,1175,1176,792,1344,1248,1344,1920,1572
584758,181752,162812,224692,224692,3048,1110,-3163,4331,2689,1451,-1950,6283,-208,121,755,1175,1176,792,1344,1248,1344,1920,1572
585759,181868,163388,225160,225160,3256,833,-2684,4560,2604,1597,-2463,6128,-104,127,753,1175,1176,792,1344,1248,1344,1920,1572
586760,181972,164012,225628,225628,3340,529,-2203,4902,2511,1661,-2360,4927,-52,122,749,1187,1267,803,1244,1224,1178,1848,1652
587761,182100,164548,226096,226096,3199,1077,-1731,5271,2405,1910,-1942,5044,-164,136,747,1187,1267,803,1244,1224,1178,1848,1652
588762,182204,165104,226564,226564,3358,950,-1328,5803,2322,2779,-962,5202,-226,134,753,1187,1267,803,1244,1224,1178,1848,1652
589763,182296,165676,227032,227032,3442,847,-1143,6336,2350,4086,-1090,5906,-143,128,744,1187,1267,803,1244,1224,1178,1848,1652
590764,182440,166288,227500,227500,3125,594,-1056,6684,2442,4767,1059,6028,-224,126,750,1187,1267,803,1244,1224,1178,1848,1652
591765,182580,166952,227968,227968,3158,264,-1042,6870,2512,4295,1977,6596,-288,142,759,1246,1430,785,1187,1000,972,1537,1493
592766,182712,167564,228436,228436,3216,586,-1085,6897,2541,3992,2884,6223,-94,124,761,1246,1430,785,1187,1000,972,1537,1493
593767,182884,168152,228904,228904,2973,733,-1047,6835,2531,3904,2901,6392,-107,121,755,1246,1430,785,1187,1000,972,1537,1493
594768,183080,168752,229376,229376,2830,655,-1031,6776,2525,4164,3089,5918,-107,123,759,1246,1430,785,1187,1000,972,1537,1493
595769,183244,169372,229844,229844,3037,526,-891,6488,2503,3805,2699,5601,-33,129,763,1246,1430,785,1187,1000,972,1537,1493
596770,183432,170012,230312,230312,2894,397,-646,6228,2390,3097,1913,5582,-6,119,758,1246,1430,785,1187,1000,972,1537,1493
597771,183612,170636,230780,230780,2951,493,-261,5861,2182,2147,1099,5223,-40,121,762,1271,1447,774,1184,1073,1075,1743,1670
598772,183812,171228,231248,231248,2833,690,191,5499,1938,2362,861,5152,-9,123,761,1271,1447,774,1184,1073,1075,1743,1670
599773,184016,171772,231716,231716,2814,988,750,5059,1720,2446,-780,4825,-18,109,763,1271,1447,774,1184,1073,1075,1743,1670
600774,184252,172352,232184,232184,2620,760,1312,4565,1446,1681,52,5110,-6,110,763,1271,1447,774,1184,1073,1075,1743,1670
601775,184456,172912,232652,232652,2826,883,1827,4140,1244,1369,-979,4982,-6,107,767,1271,1447,774,1184,1073,1075,1743,1670
602776,184668,173464,233120,233120,2782,931,2294,3812,1060,1847,-826,4228,16,106,764,1223,1389,813,1202,1282,1259,1998,1816
603777,184912,174020,233588,233588,2588,904,2718,3741,923,1693,-848,4253,7,102,763,1223,1389,813,1202,1282,1259,1998,1816
604778,185124,174624,234056,234056,2794,600,3128,3783,821,2338,-1329,3918,7,102,767,1223,1389,813,1202,1282,1259,1998,1816
605779,185392,175248,234524,234524,2449,472,3515,3688,797,1301,369,3371,21,115,765,1223,1389,813,1202,1282,1259,1998,1816
606780,185612,175800,234992,234992,2755,920,3832,3534,739,1383,238,4047,-1,113,771,1223,1389,813,1202,1282,1259,1998,1816
607781,185812,176328,235460,235460,2887,1068,4050,3348,729,532,1256,3318,33,97,763,1223,1389,813,1202,1282,1259,1998,1816
608782,186036,176892,235928,235928,2743,841,4091,3374,843,867,1340,4685,18,91,759,1279,1455,845,1261,1151,1119,1727,1591
609783,186276,177468,236396,236396,2648,763,4016,3511,901,2105,2836,4322,0,112,764,1279,1455,845,1261,1151,1119,1727,1591
610784,186512,178132,236864,236864,2679,208,3930,3394,843,1642,3254,4141,8,102,767,1279,1455,845,1261,1151,1119,1727,1591
611785,186788,178708,237332,237332,2433,756,3884,3237,772,1317,3225,4918,31,109,770,1279,1455,845,1261,1151,1119,1727,1591
612786,187016,179276,237800,237800,2739,803,3753,3201,693,1749,2529,5289,15,113,771,1279,1455,845,1261,1151,1119,1727,1591
613787,187288,179820,238268,238268,2469,951,3808,3131,549,2463,2792,5432,48,102,765,1236,1361,777,1171,1081,1085,1685,1583
614788,187596,180412,238736,238736,2248,648,3935,3294,409,4088,2514,5781,17,100,768,1236,1361,777,1171,1081,1085,1685,1583
615789,187888,181004,239204,239204,2352,645,4068,4118,540,653,-12,7307,37,116,775,1236,1361,777,1171,1081,1085,1685,1583
616790,188192,181520,239672,239672,2281,1119,4429,4483,404,2608,-1659,3972,42,102,775,1236,1361,777,1171,1081,1085,1685,1583
617791,188508,182096,240140,240140,2210,742,4875,4123,238,1541,-1363,3859,43,111,773,1236,1361,777,1171,1081,1085,1685,1583
618792,188812,182672,240608,240608,2289,739,5288,3788,110,2452,-1075,4407,50,115,778,1236,1361,777,1171,1081,1085,1685,1583
619793,189156,183300,241076,241076,2042,410,5432,3544,-3,1917,-31,3648,50,111,776,1064,1175,737,1090,1303,1280,1930,1740
620794,189516,183860,241544,241544,1945,833,5510,3628,-280,2198,997,4239,57,118,782,1064,1175,737,1090,1303,1280,1930,1740
621795,189928,184400,242012,242012,1621,956,5519,4104,-435,679,1082,3127,60,110,781,1064,1175,737,1090,1303,1280,1930,1740
622796,190340,184972,242480,242480,1622,754,5435,4802,-398,125,234,3237,77,109,785,1064,1175,737,1090,1303,1280,1930,1740
623797,190804,185592,242948,242948,1298,450,5341,5063,-183,-887,-262,1123,81,106,788,1064,1175,737,1090,1303,1280,1930,1740
624798,191296,186136,243416,243416,1122,923,5118,4997,-13,-429,319,2661,89,124,793,1067,1190,765,1158,1335,1325,1959,1735
625799,191860,186692,243884,243884,670,846,4676,4761,116,621,300,1408,85,110,792,1067,1190,765,1158,1335,1325,1959,1735
626800,192344,187272,244352,244352,1169,693,4088,4609,343,657,-143,597,98,109,796,1067,1190,765,1158,1335,1325,1959,1735
627801,192908,187840,244820,244820,667,766,3533,4746,729,-1353,292,967,100,125,794,1067,1190,765,1158,1335,1325,1959,1735
628802,193452,188356,245288,245288,790,1089,3137,4994,885,-424,-1355,978,122,115,798,1067,1190,765,1158,1335,1325,1959,1735
629803,194008,188856,245760,245760,713,1189,2900,5009,803,-1206,-2265,1904,105,118,794,1067,1190,765,1158,1335,1325,1959,1735
630804,194572,189376,246228,246228,661,1062,2706,5010,544,-1146,-1362,1316,107,100,795,1068,1134,743,1083,1425,1390,2023,1828
631805,195128,189868,246696,246696,708,1237,2601,4555,219,-1329,-2218,2863,119,125,794,1068,1134,743,1083,1425,1390,2023,1828
632806,195704,190416,247164,247164,581,885,2316,3886,-11,-1907,-1222,4551,114,115,793,1068,1134,743,1083,1425,1390,2023,1828
633807,196240,190876,247632,247632,829,1435,1917,3269,0,-1459,414,6155,111,111,797,1068,1134,743,1083,1425,1390,2023,1828
635809,197388,191748,248568,248568,799,1662,1414,3379,-62,920,-1660,6701,134,107,793,902,999,674,915,1586,1481,2240,2120
636810,197976,192144,249036,249036,496,1838,1366,3768,-247,804,-1597,5822,125,88,788,902,999,674,915,1586,1481,2240,2120
637811,198616,192584,249504,249504,167,1564,1403,3957,-498,1453,-1655,4113,108,99,788,902,999,674,915,1586,1481,2240,2120
638812,199164,192968,249972,249972,740,1916,1278,3674,-590,1071,-1670,1519,119,86,792,902,999,674,915,1586,1481,2240,2120
639813,199700,193324,250440,250440,813,2094,835,3332,-706,1491,332,3610,118,97,785,902,999,674,915,1586,1481,2240,2120
640814,200228,193664,250908,250908,862,2197,220,3087,-786,904,1191,1207,116,75,781,902,999,674,915,1586,1481,2240,2120
641815,200752,194048,251376,251376,885,1924,-439,2987,-801,904,1140,1337,106,64,779,933,1107,715,991,1526,1409,2222,2164
642816,201324,194348,251844,251844,583,2453,-1013,2942,-807,-522,1632,2200,128,62,783,933,1107,715,991,1526,1409,2222,2164
643817,201860,194684,252312,252312,806,2231,-1420,2904,-833,-1020,699,2238,127,58,776,933,1107,715,991,1526,1409,2222,2164
644818,202392,194952,252780,252780,830,2661,-1740,2678,-850,-1759,-1252,995,117,51,777,933,1107,715,991,1526,1409,2222,2164
645819,202928,195216,253248,253248,803,2691,-1941,2436,-872,-3637,-621,1272,114,52,769,933,1107,715,991,1526,1409,2222,2164
646820,203468,195484,253716,253716,776,2671,-2265,2013,-886,-3391,275,-73,131,31,764,1111,1319,783,1104,1418,1339,2127,2039
647821,204020,195736,254184,254184,699,2776,-2658,1511,-951,-1992,-665,689,111,18,767,1111,1319,783,1104,1418,1339,2127,2039
648822,204580,195980,254652,254652,647,2832,-3100,1007,-1071,-2758,333,670,120,12,766,1111,1319,783,1104,1418,1339,2127,2039
649823,205132,196204,255120,255120,695,2963,-3526,616,-1231,-1916,-807,2771,112,13,766,1111,1319,783,1104,1418,1339,2127,2039
650824,205628,196420,255588,255588,1044,3019,-3840,776,-1346,-421,-965,3677,119,-3,761,1111,1319,783,1104,1418,1339,2127,2039
651825,206116,196628,256056,256056,1094,3075,-3911,761,-1460,-346,-1201,2209,111,-24,756,1111,1319,783,1104,1418,1339,2127,2039
652826,206660,196816,256524,256524,742,3207,-4109,801,-1612,-801,-1475,5119,106,-30,755,1064,1214,734,1013,1337,1288,1948,1841
653827,207220,196976,256992,256992,640,3390,-4276,370,-1634,-2657,-48,3924,120,-31,756,1064,1214,734,1013,1337,1288,1948,1841
654828,207736,197116,257460,257460,913,3523,-4290,-446,-1721,-2235,-665,3972,108,-69,747,1064,1214,734,1013,1337,1288,1948,1841
655829,208236,197256,257928,257928,1013,3531,-4122,-1313,-1769,-3664,-827,4519,103,-159,747,1064,1214,734,1013,1337,1288,1948,1841
656830,208680,197392,258396,258396,1363,3564,-3789,-1913,-1905,-2993,-1640,5312,102,-239,743,1064,1214,734,1013,1337,1288,1948,1841
657831,209216,197528,258864,258864,787,3572,-3387,-2281,-2022,-3552,-1450,5188,119,-233,739,928,1024,662,944,1296,1284,1872,1704
658832,209712,197676,259332,259332,1036,3505,-3151,-2562,-2078,-2367,71,6735,123,-215,743,928,1024,662,944,1296,1284,1872,1704
659833,210280,197804,259800,259800,583,3638,-2962,-2572,-2125,-1881,-305,5203,116,-237,747,928,1024,662,944,1296,1284,1872,1704
660834,210800,197972,260268,260268,882,3395,-2940,-2644,-2141,-1977,1210,4147,110,-245,740,928,1024,662,944,1296,1284,1872,1704
661835,211304,198136,260736,260736,981,3428,-2913,-2758,-2212,-528,1650,2253,112,-136,746,928,1024,662,944,1296,1284,1872,1704
662836,211788,198288,261204,261204,1106,3511,-2991,-3175,-2051,-1467,2913,1209,104,-158,745,928,1024,662,944,1296,1284,1872,1704
663837,212296,198444,261672,261672,955,3493,-3205,-3213,-1891,-1204,3284,2355,102,-188,743,1097,1242,760,1178,1152,1150,1751,1562
664838,212844,198564,262144,262144,703,3727,-3441,-3163,-1781,-1013,3992,1828,119,-224,747,1097,1242,760,1178,1152,1150,1751,1562
665839,213408,198672,262612,262612,601,3800,-3445,-3217,-1617,-1724,1446,279,125,-225,752,1097,1242,760,1178,1152,1150,1751,1562
666840,214000,198760,263080,263080,423,3800,-3230,-3146,-1404,-2647,1981,1214,112,21,760,1097,1242,760,1178,1152,1150,1751,1562
667841,214552,198912,263548,263548,671,3553,-3075,-3015,-1318,-2361,2762,3299,120,270,760,1097,1242,760,1178,1152,1150,1751,1562
668842,215152,199096,264016,264016,367,3359,-3008,-2832,-1430,-2011,-1282,1578,104,258,741,1355,1483,832,1293,1109,1110,1713,1552
669843,215752,199280,264484,264484,364,3366,-2654,-3669,-1047,-6117,2440,56,131,-208,747,1355,1483,832,1293,1109,1110,1713,1552
670844,216308,199544,264952,264952,637,2871,-2528,-4149,-667,-5572,13,4204,127,-127,749,1355,1483,832,1293,1109,1110,1713,1552
671845,216848,199884,265420,265420,735,2400,-2501,-4343,-580,-3560,-38,5093,126,-130,761,1355,1483,832,1293,1109,1110,1713,1552
672846,217380,200196,265888,265888,784,2578,-2100,-4959,-349,-2782,-716,2130,119,-2,771,1355,1483,832,1293,1109,1110,1713,1552
673847,217908,200468,266356,266356,807,2833,-1475,-5556,-52,-2379,-1315,3934,115,33,767,1355,1483,832,1293,1109,1110,1713,1552
674848,218484,200788,266824,266824,505,2537,-874,-5791,79,-1698,-895,7237,123,27,763,1211,1300,776,1129,1202,1167,1773,1643
675849,219032,201160,267292,267292,678,2214,-404,-5731,163,-535,-797,7496,117,-5,770,1211,1300,776,1129,1202,1167,1773,1643
676850,219668,201476,267760,267760,124,2568,40,-5582,267,232,-42,6641,137,24,775,1211,1300,776,1129,1202,1167,1773,1643
677851,220264,201816,268228,268228,370,2421,410,-5278,404,124,3460,5090,113,41,770,1211,1300,776,1129,1202,1167,1773,1643
678852,220844,202148,268696,268696,468,2474,498,-4913,305,2581,3187,3760,121,13,774,1211,1300,776,1129,1202,1167,1773,1643
679853,221392,202480,269164,269164,666,2478,324,-4701,274,1667,3497,1466,118,22,773,1077,1226,737,1090,1169,1154,1754,1588
680854,221908,202848,269632,269632,865,2255,47,-4678,332,-75,3695,1058,126,28,770,1077,1226,737,1090,1169,1154,1754,1588
681855,222484,203232,270100,270100,487,2157,-310,-4538,108,1263,3979,1514,113,28,774,1077,1226,737,1090,1169,1154,1754,1588
682856,223148,203664,270568,270568,-68,1858,-462,-4558,-151,87,5819,1403,133,49,776,1077,1226,737,1090,1169,1154,1754,1588
683857,223776,204132,271036,271036,153,1633,-572,-4363,-161,-2037,2204,1666,124,60,783,1077,1226,737,1090,1169,1154,1754,1588
684861,224532,204680,271504,271504,-654,1131,-668,-4317,-95,-347,1385,-1442,130,67,789,1077,1226,737,1090,1169,1154,1754,1588
685859,225120,205236,271972,271972,393,1079,-593,-4950,46,625,1228,-2550,130,74,790,1168,1264,781,1195,1239,1257,1881,1683
686860,225616,205788,272440,272440,968,1102,-502,-5688,272,-2024,-1705,-859,120,78,795,1168,1264,781,1195,1239,1257,1881,1683
687861,226276,206444,272908,272908,-62,447,-457,-6031,376,-3488,-1030,1211,112,87,791,1168,1264,781,1195,1239,1257,1881,1683
688862,226904,207080,273376,273376,134,568,-183,-6041,457,-2985,-3504,330,111,93,802,1168,1264,781,1195,1239,1257,1881,1683
689863,227464,207668,273844,273844,557,865,202,-5864,678,-1738,-4150,233,109,92,802,1168,1264,781,1195,1239,1257,1881,1683
690864,228084,208288,274312,274312,178,661,506,-5774,961,-628,-3038,397,132,107,798,1055,1123,741,1071,1331,1289,1830,1675
691865,228712,208940,274780,274780,124,457,716,-5823,1060,827,-1891,-1104,117,102,801,1055,1123,741,1071,1331,1289,1830,1675
692866,229344,209520,275248,275248,95,904,913,-5767,1018,1867,-1227,979,111,103,803,1055,1123,741,1071,1331,1289,1830,1675
693867,229912,210044,275716,275716,493,1253,959,-5574,973,1385,-907,463,128,92,800,1055,1123,741,1071,1331,1289,1830,1675
694868,230516,210624,276184,276184,264,900,843,-5376,838,640,812,1276,110,95,795,1055,1123,741,1071,1331,1289,1830,1675
695869,231076,211260,276652,276652,537,546,667,-5162,597,816,1254,2388,109,101,799,977,1070,687,1012,1131,1098,1590,1457
696870,231704,211808,277120,277120,108,1094,441,-5082,426,401,495,137,108,111,801,977,1070,687,1012,1131,1098,1590,1457
697871,232320,212432,277588,277588,180,615,277,-5060,302,413,3662,1720,127,116,799,977,1070,687,1012,1131,1098,1590,1457
698872,232900,213084,278056,278056,402,436,37,-5260,204,612,2494,338,111,112,802,977,1070,687,1012,1131,1098,1590,1457
699873,233404,213668,278528,278528,876,858,-234,-5244,73,456,2670,819,123,114,800,977,1070,687,1012,1131,1098,1590,1457
700874,233960,214280,278996,278996,549,679,-421,-5163,-59,100,1940,-493,130,101,797,977,1070,687,1012,1131,1098,1590,1457
701875,234532,214884,279464,279464,446,726,-434,-5017,-164,348,531,-914,113,121,800,1045,1142,707,1085,1146,1158,1744,1597
702876,235152,215476,279932,279932,143,798,-294,-4867,-214,66,-80,-766,123,117,800,1045,1142,707,1085,1146,1158,1744,1597
703877,235688,216152,280400,280400,666,268,-94,-5013,-217,-293,-214,-1349,109,104,801,1045,1142,707,1085,1146,1158,1744,1597
704878,236228,216704,280868,280868,639,1041,-12,-5158,-139,-360,-645,-803,119,120,802,1045,1142,707,1085,1146,1158,1744,1597
705879,236804,217296,281336,281336,412,788,87,-5321,-24,-63,-1368,-1539,119,114,797,1045,1142,707,1085,1146,1158,1744,1597
706880,237344,217872,281804,281804,635,885,243,-5272,97,365,-1679,-1598,116,104,800,1083,1185,754,1124,1312,1294,1912,1742
707881,237968,218500,282272,282272,106,556,381,-5184,171,532,-2082,-2094,124,116,798,1083,1185,754,1124,1312,1294,1912,1742
708882,238588,219100,282740,282740,127,728,504,-5154,252,-186,-2270,-1464,130,118,803,1083,1185,754,1124,1312,1294,1912,1742
709883,239160,219676,283208,283208,425,876,555,-5072,272,-4,-1787,-309,113,113,802,1083,1185,754,1124,1312,1294,1912,1742
710884,239732,220228,283676,283676,422,1024,571,-5101,260,-400,-1173,-494,117,107,799,1083,1185,754,1124,1312,1294,1912,1742
711885,240284,220800,284144,284144,545,896,578,-4940,164,464,178,1080,118,110,799,1083,1185,754,1124,1312,1294,1912,1742
712886,240816,221404,284612,284612,669,693,550,-5011,125,729,325,-851,125,129,799,1069,1168,738,1075,1216,1173,1708,1569
713887,241440,222004,285080,285080,90,714,394,-4803,177,2855,-310,3121,111,117,799,1069,1168,738,1075,1216,1173,1708,1569
714888,241976,222540,285548,285548,638,1113,-52,-4474,585,4309,-1838,873,109,113,802,1069,1168,738,1075,1216,1173,1708,1569
715889,242444,223112,286016,286016,1063,885,-832,-3308,1008,5703,24,7619,109,116,797,1069,1168,738,1075,1216,1173,1708,1569
716890,242948,223676,286484,286484,837,933,-1812,-2120,1219,6309,53,7847,110,113,793,1069,1168,738,1075,1216,1173,1708,1569
717891,243376,224268,286952,286952,1313,755,-2523,-1335,1026,7899,2069,9738,95,117,796,1007,1093,687,1004,1281,1278,1932,1750
718892,243816,224852,287420,287420,1239,802,-3176,-76,1199,1756,1148,13568,91,130,793,1007,1093,687,1004,1281,1278,1932,1750
719893,244156,225392,287888,287888,1867,1075,-3406,603,1212,316,38,9307,81,117,793,1007,1093,687,1004,1281,1278,1932,1750
720894,244476,225932,288356,288356,1996,1074,-3245,402,926,2703,-2231,7912,72,117,782,1007,1093,687,1004,1281,1278,1932,1750
721895,244732,226604,288824,288824,2401,244,-2838,-115,1010,-835,-1847,9077,64,125,779,1007,1093,687,1004,1281,1278,1932,1750
722896,245000,227192,289292,289292,2331,766,-2553,-99,1246,-2566,-4941,8744,48,131,776,1007,1093,687,1004,1281,1278,1932,1750
723897,245204,227812,289760,289760,2737,562,-2103,-54,1259,-1882,-6798,8474,38,119,774,936,1004,731,1176,2134,2190,3118,2335
724898,245396,228376,290228,290228,2819,910,-1656,14,1305,-3821,-3574,9877,35,119,766,936,1004,731,1176,2134,2190,3118,2335
725899,245512,228976,290696,290696,3303,681,-1329,145,1366,-1465,-4878,9615,-5,128,764,936,1004,731,1176,2134,2190,3118,2335
726900,245636,229476,291164,291164,3261,1306,-1285,468,1598,166,-3306,9767,-22,115,750,936,1004,731,1176,2134,2190,3118,2335
727901,245764,229996,291632,291632,3244,1179,-1442,983,1815,1189,-1533,10607,-199,123,747,936,1004,731,1176,2134,2190,3118,2335
728902,245880,230544,292100,292100,3328,1002,-1814,1508,2040,2238,-424,10088,-167,119,751,1277,1343,959,1687,1771,1815,2675,1903
729903,246008,231024,292568,292568,3261,1427,-2346,2179,2282,3657,148,10489,-155,114,745,1277,1343,959,1687,1771,1815,2675,1903
730904,246116,231620,293036,293036,3395,699,-2985,2905,2524,3975,1588,10796,-217,119,745,1277,1343,959,1687,1771,1815,2675,1903
731905,246188,232112,293504,293504,3630,1348,-3563,3491,2709,3965,1436,10346,-182,107,748,1277,1343,959,1687,1771,1815,2675,1903
732906,246272,232648,293972,293972,3564,1072,-3975,4055,2859,3681,1700,10777,-285,110,733,1277,1343,959,1687,1771,1815,2675,1903
733907,246360,233172,294440,294440,3548,1145,-4080,4379,2971,2983,81,10430,-181,122,739,1277,1343,959,1687,1771,1815,2675,1903
734908,246456,233660,294912,294912,3508,1370,-3926,4316,3063,1108,-347,11479,-239,108,739,1660,1666,972,1662,1263,1290,1952,1600
735909,246516,234208,295380,295380,3742,993,-3547,3949,3073,842,-2405,12046,-247,99,743,1660,1666,972,1662,1263,1290,1952,1600
736910,246616,234676,295848,295848,3501,1493,-3055,3527,3089,-292,-2290,13034,-293,111,752,1660,1666,972,1662,1263,1290,1952,1600
737911,246704,235176,296316,296316,3586,1292,-2369,3353,3144,-162,-3008,12558,78,109,740,1660,1666,972,1662,1263,1290,1952,1600
738912,246780,235620,296784,296784,3670,1643,-1550,3393,3104,996,-3908,12174,-282,91,735,1660,1666,972,1662,1263,1290,1952,1600
739913,246868,236080,297252,297252,3605,1543,-637,3531,3083,1280,-3010,11446,-229,96,736,1278,1401,794,1162,1145,1065,1705,1607
740914,247016,236556,297720,297720,3237,1443,194,3666,3045,1950,-2197,10835,-101,106,732,1278,1401,794,1162,1145,1065,1705,1607
741915,247156,237008,298188,298188,3295,1593,810,3961,2967,2893,-1247,10852,-195,105,743,1278,1401,794,1162,1145,1065,1705,1607
742916,247288,237404,298656,298656,3354,1945,1221,4373,2878,3672,201,10638,-93,96,739,1278,1401,794,1162,1145,1065,1705,1607
743917,247488,237828,299124,299124,2935,1771,1471,4934,2904,4660,1870,10264,-131,91,733,1278,1401,794,1162,1145,1065,1705,1607
744918,247664,238260,299592,299592,3092,1722,1575,5421,3045,5170,2468,8804,-158,81,749,1278,1401,794,1162,1145,1065,1705,1607
745919,247776,238696,300060,300060,3501,1698,1554,5658,3170,4143,3518,8516,-31,88,748,1228,1480,767,1152,953,907,1516,1504
746920,247952,239156,300528,300528,3108,1548,1465,5716,3312,3213,3633,6868,-53,86,740,1228,1480,767,1152,953,907,1516,1504
747921,248172,239576,300996,300996,2839,1799,1428,5389,3474,1700,2516,6249,-271,83,749,1228,1480,767,1152,953,907,1516,1504
748922,248336,240044,301464,301464,3197,1499,1489,4757,3543,160,4261,5232,-66,91,753,1228,1480,767,1152,953,907,1516,1504
749923,248536,240520,301932,301932,2978,1449,1636,4050,3585,-588,1957,5038,5,89,750,1228,1480,767,1152,953,907,1516,1504
750924,248788,240960,302400,302400,2658,1675,1897,3267,3550,-1055,1445,4306,-75,83,750,1412,1620,828,1319,1137,1146,1952,1821
751925,249016,241436,302868,302868,2814,1449,2312,2463,3571,-1895,119,4133,-10,85,756,1412,1620,828,1319,1137,1146,1952,1821
752926,249220,241932,303336,303336,2971,1324,2781,1881,3525,-609,-80,4492,34,78,756,1412,1620,828,1319,1137,1146,1952,1821
753927,249520,242400,303804,303804,2375,1499,3367,1379,3441,-99,-1230,3553,8,80,753,1412,1620,828,1319,1137,1146,1952,1821
754928,249772,242900,304272,304272,2680,1298,4027,1144,3258,1415,-1534,3672,-5,99,765,1412,1620,828,1319,1137,1146,1952,1821
755929,250004,243440,304740,304740,2811,1046,4731,984,3019,1944,-1325,4006,42,91,761,1412,1620,828,1319,1137,1146,1952,1821
756930,250296,244004,305208,305208,2440,894,5259,1078,2782,3314,-1590,3838,20,90,762,1304,1460,832,1208,1344,1274,1992,1818
757931,250564,244572,305676,305676,2595,866,5714,1518,2660,3674,-935,4404,21,89,768,1304,1460,832,1208,1344,1274,1992,1818
758932,250828,245076,306144,306144,2625,1265,6004,2423,2597,3831,-74,5099,39,89,767,1304,1460,832,1208,1344,1274,1992,1818
759933,251156,245616,306612,306612,2228,1039,6114,3100,2574,3820,-1325,3378,42,104,763,1304,1460,832,1208,1344,1274,1992,1818
760934,251432,246164,307080,307080,2558,987,6089,3205,2429,3055,1897,3351,35,102,771,1304,1460,832,1208,1344,1274,1992,1818
761935,251708,246752,307548,307548,2563,734,5859,3223,2328,1227,1316,3924,45,107,768,1157,1289,751,1117,1056,1034,1544,1392
762936,252016,247296,308016,308016,2367,1007,5573,3158,2245,2712,2378,4237,47,109,771,1157,1289,751,1117,1056,1034,1544,1392
763937,252328,247860,308484,308484,2345,880,5192,3382,2351,39,3193,4741,49,122,772,1157,1289,751,1117,1056,1034,1544,1392
764938,252692,248416,308952,308952,2023,927,4874,3419,2319,-538,1604,5310,48,98,773,1157,1289,751,1117,1056,1034,1544,1392
765939,253028,249008,309420,309420,2201,699,4624,2820,2276,-3112,2640,4442,52,107,777,1157,1289,751,1117,1056,1034,1544,1392
766940,253392,249628,309888,309888,2029,521,4476,2588,2278,-2769,1744,5697,68,112,777,1157,1289,751,1117,1056,1034,1544,1392
767941,253780,250148,310356,310356,1881,1144,4584,2503,2437,-3448,134,3168,76,120,780,1040,1108,697,1071,1167,1194,1791,1643
768942,254204,250744,310824,310824,1657,666,4808,2490,2542,-3315,-569,3219,87,120,780,1040,1108,697,1071,1167,1194,1791,1643
769943,254648,251312,311296,311296,1533,839,5103,2384,2568,-3460,-1463,1001,82,116,786,1040,1108,697,1071,1167,1194,1791,1643
770944,255164,251932,311764,311764,1081,510,5384,2407,2551,-2498,-1819,2139,82,122,787,1040,1108,697,1071,1167,1194,1791,1643
771945,255652,252516,312232,312232,1256,732,5655,2478,2562,-1405,-2448,-522,85,106,794,1040,1108,697,1071,1167,1194,1791,1643
772946,256204,253084,312700,312700,854,830,5894,2564,2601,17,-2135,446,105,124,793,986,1076,731,1092,1489,1459,2133,1902
773947,256744,253652,313168,313168,927,828,5983,2646,2677,272,-1527,-557,108,123,795,986,1076,731,1092,1489,1459,2133,1902
774948,257332,254156,313636,313636,624,1227,5861,2728,2619,1620,-588,-504,116,112,794,986,1076,731,1092,1489,1459,2133,1902
775949,257912,254736,314104,314104,671,749,5605,3140,2557,2640,-125,44,103,103,793,986,1076,731,1092,1489,1459,2133,1902
776950,258452,255272,314572,314572,920,1022,5401,3616,2583,3661,-1402,-2302,120,127,797,986,1076,731,1092,1489,1459,2133,1902
777951,258980,255816,315040,315040,993,970,5206,4093,2558,3584,-419,2,125,113,794,986,1076,731,1092,1489,1459,2133,1902
778952,259516,256368,315508,315508,941,918,4877,4438,2487,3252,174,1061,114,123,794,1112,1215,781,1137,1311,1257,1831,1659
779953,260104,256904,315976,315976,614,1017,4609,4631,2392,3192,675,1747,117,106,795,1112,1215,781,1137,1311,1257,1831,1659
780954,260796,257416,316444,316444,-42,1166,4279,4812,2135,3346,7,1760,134,116,796,1112,1215,781,1137,1311,1257,1831,1659
781955,261344,257884,316912,316912,856,1441,4013,4906,1882,-385,3333,2993,121,115,797,1112,1215,781,1137,1311,1257,1831,1659
782956,261944,258348,317380,317380,528,1466,3761,4643,1688,-840,799,1827,113,98,790,1112,1215,781,1137,1311,1257,1831,1659
783957,262520,258836,317848,317848,675,1315,3371,4584,1646,-1072,1689,3168,116,105,792,1046,1139,709,1020,1197,1154,1726,1632
784958,263104,259280,318316,318316,622,1591,3171,4427,1633,-1365,366,1993,126,96,791,1046,1139,709,1020,1197,1154,1726,1632
785959,263740,259704,318784,318784,293,1717,2985,4269,1693,-2877,553,2828,112,103,790,1046,1139,709,1020,1197,1154,1726,1632
786960,264316,260092,319252,319252,666,1944,2857,3891,1749,-2282,-1181,3262,111,101,790,1046,1139,709,1020,1197,1154,1726,1632
787961,264840,260488,319720,319720,989,1896,2622,3482,1872,-2790,202,3199,116,90,786,1046,1139,709,1020,1197,1154,1726,1632
788962,265352,260892,320188,320188,1063,1847,2447,3037,2031,-3352,-1201,2196,108,81,782,1046,1139,709,1020,1197,1154,1726,1632
789963,265920,261244,320656,320656,711,2175,2277,2775,2059,-3082,-779,2190,110,88,782,932,1052,678,962,1389,1335,2063,2009
790964,266508,261612,321124,321124,583,2077,2155,2617,2033,-2612,-369,1170,107,76,780,932,1052,678,962,1389,1335,2063,2009
791965,267052,261952,321592,321592,856,2256,2061,2371,1996,-1392,-1883,1270,119,79,781,932,1052,678,962,1389,1335,2063,2009
792966,267584,262288,322060,322060,929,2284,1958,2268,1852,-850,-676,2961,119,73,777,932,1052,678,962,1389,1335,2063,2009
793967,268104,262620,322528,322528,1003,2312,1796,2108,1690,-707,-329,2214,108,66,774,932,1052,678,962,1389,1335,2063,2009
794968,268688,262916,322996,322996,600,2541,1474,1968,1467,210,-1339,1988,119,49,774,947,1142,729,1016,1560,1463,2298,2201
795969,269276,263188,323464,323464,572,2696,1062,1958,1116,248,556,2414,123,46,772,947,1142,729,1016,1560,1463,2298,2201
796970,269856,263440,323932,323932,620,2826,670,1639,832,-69,2189,960,118,20,769,947,1142,729,1016,1560,1463,2298,2201
797971,270400,263700,324400,324400,843,2781,82,1522,522,1197,527,1857,116,13,767,947,1142,729,1016,1560,1463,2298,2201
798972,270932,263940,324868,324868,916,2912,-538,1472,175,-264,816,3372,124,2,763,947,1142,729,1016,1560,1463,2298,2201
799973,271472,264184,325336,325336,865,2892,-1071,1253,-103,-1805,270,1315,123,14,762,947,1142,729,1016,1560,1463,2298,2201
800974,272016,264424,325804,325804,838,2923,-1522,993,-379,-1259,341,3839,125,-3,762,1091,1267,771,1076,1471,1396,2147,2071
801975,272620,264632,326272,326272,459,3129,-1871,576,-573,-2291,1264,2898,129,-17,759,1091,1267,771,1076,1471,1396,2147,2071
802976,273192,264840,326740,326740,657,3136,-2299,204,-810,-2653,969,3930,123,-25,755,1091,1267,771,1076,1471,1396,2147,2071
803977,273708,265044,327208,327208,1006,3167,-2746,-230,-965,-3420,94,4025,110,-56,757,1091,1267,771,1076,1471,1396,2147,2071
804978,274204,265256,327680,327680,1130,3124,-3067,-619,-1035,-3056,-540,3381,118,-55,756,1091,1267,771,1076,1471,1396,2147,2071
805979,274772,265452,328148,328148,678,3230,-3397,-811,-1078,-2437,-991,4291,114,-82,756,1008,1144,714,973,1457,1362,2087,2056
806980,275288,265656,328616,328616,1001,3187,-3526,-1001,-1119,-2755,275,4799,118,-70,751,1008,1144,714,973,1457,1362,2087,2056
807981,275872,265868,329084,329084,574,3143,-3620,-1060,-1172,-2514,-1359,3799,110,-93,755,1008,1144,714,973,1457,1362,2087,2056
808982,276420,266056,329552,329552,797,3300,-3686,-1274,-1208,-2885,-1004,4840,101,-77,758,1008,1144,714,973,1457,1362,2087,2056
809985,276924,266244,330020,330020,1071,3307,-3770,-1508,-1204,-3206,354,3859,121,-65,747,1008,1144,714,973,1457,1362,2087,2056
810984,277440,266392,330488,330488,995,3564,-3879,-1906,-1212,-2278,-38,3287,122,-107,743,1008,1144,714,973,1457,1362,2087,2056
811985,277996,266584,330956,330956,742,3296,-3992,-2073,-1250,-2679,1098,3364,118,-92,741,931,1077,699,967,1423,1343,2007,1871
812986,278484,266784,331424,331424,1167,3253,-4172,-2263,-1372,-2825,1607,2972,119,-209,746,931,1077,699,967,1423,1343,2007,1871
813987,279116,266968,331892,331892,263,3360,-4307,-2324,-1466,-2681,845,2357,124,-106,747,931,1077,699,967,1423,1343,2007,1871
814988,279660,267128,332360,332360,811,3517,-4464,-2406,-1492,-2021,2307,2447,109,-93,747,931,1077,699,967,1423,1343,2007,1871
815989,280196,267300,332828,332828,859,3449,-4777,-2545,-1671,-1614,2419,2448,110,-135,747,931,1077,699,967,1423,1343,2007,1871
816990,280720,267432,333296,333296,933,3708,-4893,-2657,-1819,-1998,4117,1397,115,-221,744,992,1140,723,1071,1224,1213,1790,1574
817991,281320,267640,333764,333764,455,3239,-5073,-2429,-2037,-1185,3031,2308,134,-214,746,992,1140,723,1071,1224,1213,1790,1574
818992,281924,267916,334232,334232,427,2819,-5202,-2439,-2129,-339,1471,-1599,116,9,751,992,1140,723,1071,1224,1213,1790,1574
819993,282460,268280,334700,334700,850,2271,-5288,-2902,-1931,-825,1662,-2096,111,-65,765,992,1140,723,1071,1224,1213,1790,1574
820994,283048,268668,335168,335168,522,2123,-5544,-3330,-1725,37,790,-371,124,17,772,992,1140,723,1071,1224,1213,1790,1574
821995,283532,269112,335636,335636,1172,1774,-5906,-3607,-1550,27,1053,1416,130,53,777,992,1140,723,1071,1224,1213,1790,1574
822996,284092,269608,336104,336104,694,1448,-6204,-3773,-1506,-630,112,2211,104,58,777,1148,1214,752,1164,1189,1203,1745,1580
823997,284752,270084,336572,336572,65,1573,-6272,-3884,-1567,-1321,-283,1316,114,74,786,1148,1214,752,1164,1189,1203,1745,1580
824998,285344,270640,337040,337040,487,1071,-6153,-3985,-1639,-595,-1132,1289,117,83,789,1148,1214,752,1164,1189,1203,1745,1580
825999,285940,271160,337508,337508,458,1294,-5988,-3950,-1670,1256,-1040,1374,117,87,794,1148,1214,752,1164,1189,1203,1745,1580
827000,286532,271752,337976,337976,480,841,-5776,-3924,-1597,1891,-2343,1022,110,90,790,1148,1214,752,1164,1189,1203,1745,1580
828001,287116,272428,338444,338444,528,311,-5566,-3828,-1525,1207,-1884,2038,122,82,796,1040,1112,729,1040,1337,1300,1877,1731
829002,287732,272964,338912,338912,324,1185,-5364,-3693,-1498,322,-1619,2828,124,95,800,1040,1112,729,1040,1337,1300,1877,1731
830003,288344,273552,339380,339380,345,857,-5182,-3514,-1485,551,-948,2500,116,103,796,1040,1112,729,1040,1337,1300,1877,1731
831004,288948,274172,339848,339848,392,653,-5061,-3244,-1464,935,-27,1340,125,99,798,1040,1112,729,1040,1337,1300,1877,1731
832005,289596,274764,340316,340316,113,825,-4901,-3216,-1496,1024,2739,2111,131,99,799,1040,1112,729,1040,1337,1300,1877,1731
833006,290232,275268,340784,340784,184,1374,-4791,-3280,-1627,1190,3287,1069,133,98,799,1040,1112,729,1040,1337,1300,1877,1731
834007,290760,275824,341252,341252,857,1047,-5029,-3128,-1698,-310,2061,-230,118,111,794,943,1050,682,1000,1265,1212,1786,1600
835008,291364,276424,341720,341720,379,769,-5347,-3039,-1506,-2652,-518,-1857,128,101,794,943,1050,682,1000,1265,1212,1786,1600
836009,292016,277056,342188,342188,74,565,-5546,-3049,-1393,-2459,298,61,121,103,797,943,1050,682,1000,1265,1212,1786,1600
837010,292664,277652,342656,342656,95,787,-5815,-2914,-1422,-1972,814,-1277,129,99,801,943,1050,682,1000,1265,1212,1786,1600
838011,293300,278240,343124,343124,166,834,-5984,-2903,-1450,-611,2744,-1188,126,114,801,943,1050,682,1000,1265,1212,1786,1600
839012,293908,278792,343592,343592,337,1057,-6107,-2922,-1531,96,1875,-2334,122,112,800,1055,1150,716,1129,1136,1149,1695,1519
840013,294620,279384,344064,344064,-318,804,-6149,-3037,-1594,-987,727,-1846,121,101,797,1055,1150,716,1129,1136,1149,1695,1519
841014,295216,280008,344532,344532,404,600,-6225,-3072,-1616,-823,-1327,-1250,121,111,799,1055,1150,716,1129,1136,1149,1695,1519
842015,295784,280620,345000,345000,576,671,-6175,-2974,-1549,186,-1103,-130,138,114,801,1055,1150,716,1129,1136,1149,1695,1519
843016,296396,281216,345468,345468,298,768,-6055,-2833,-1621,2208,-663,879,128,114,800,1055,1150,716,1129,1136,1149,1695,1519
844017,296976,281844,345936,345936,495,564,-5765,-2828,-1723,855,-2283,1182,121,117,800,1055,1150,716,1129,1136,1149,1695,1519
845018,297580,282432,346404,346404,341,811,-5469,-2728,-1831,776,-1681,554,120,118,801,1082,1153,749,1123,1218,1223,1751,1610
846019,298240,283044,346872,346872,-13,658,-5277,-2625,-1820,886,-3288,682,119,117,800,1082,1153,749,1123,1218,1223,1751,1610
847020,298780,283608,347340,347340,735,955,-5240,-2533,-1792,1720,-1861,-201,114,113,802,1082,1153,749,1123,1218,1223,1751,1610
848021,299332,284184,347808,347808,658,878,-5151,-2417,-1853,1814,-1952,583,115,122,798,1082,1153,749,1123,1218,1223,1751,1610
849022,299872,284764,348276,348276,731,850,-5115,-2399,-1966,743,-1370,-504,135,125,798,1082,1153,749,1123,1218,1223,1751,1610
850023,300476,285380,348744,348744,328,621,-5137,-2472,-2079,-98,-352,542,112,118,798,1039,1131,734,1072,1218,1200,1748,1604
851024,301104,285972,349212,349212,174,768,-5209,-2590,-2187,90,181,-307,113,119,801,1039,1131,734,1072,1218,1200,1748,1604
852025,301648,286536,349680,349680,697,941,-5357,-2780,-2233,301,1343,-6,130,121,801,1039,1131,734,1072,1218,1200,1748,1604
853026,302196,287072,350148,350148,670,1114,-5552,-2941,-2254,176,1415,-277,119,129,795,1039,1131,734,1072,1218,1200,1748,1604
854027,302804,287704,350616,350616,292,510,-5719,-3249,-2288,-976,713,-714,115,106,796,1039,1131,734,1072,1218,1200,1748,1604
855028,303372,288212,351084,351084,539,1284,-5795,-3534,-2285,-1724,690,-441,111,122,802,1039,1131,734,1072,1218,1200,1748,1604
856029,304004,288792,351552,351552,135,832,-5769,-3746,-2189,-1428,485,1359,133,126,796,1035,1141,707,1042,1194,1159,1756,1638
857030,304600,289336,352020,352020,357,1055,-5688,-4032,-2078,-456,-665,689,122,122,800,1035,1141,707,1042,1194,1159,1756,1638
858031,305144,289928,352488,352488,680,752,-5505,-3717,-1973,49,-1558,5562,113,120,799,1035,1141,707,1042,1194,1159,1756,1638
859032,305696,290536,352956,352956,628,648,-5321,-3476,-1775,-2194,2143,1750,125,116,799,1035,1141,707,1042,1194,1159,1756,1638
860033,306196,291064,353424,353424,953,1147,-4828,-3856,-1906,1223,905,1539,107,113,800,1035,1141,707,1042,1194,1159,1756,1638
861034,306752,291568,353892,353892,600,1296,-4329,-3601,-1873,3421,-3307,4799,103,114,793,1000,1133,700,1025,1253,1211,1845,1714
862035,307216,292072,354360,354360,1175,1295,-3984,-3009,-1302,736,-2837,3626,94,107,794,1000,1133,700,1025,1253,1211,1845,1714
863036,307648,292564,354828,354828,1376,1370,-3525,-2768,-1067,2352,-4678,5983,107,115,790,1000,1133,700,1025,1253,1211,1845,1714
864037,308016,293032,355296,355296,1779,1520,-3002,-2460,-1000,-25,-4928,6372,85,108,786,1000,1133,700,1025,1253,1211,1845,1714
865038,308348,293548,355764,355764,2007,1218,-2413,-2348,-926,-34,-4718,8153,80,106,779,1000,1133,700,1025,1253,1211,1845,1714
866039,308620,294040,356232,356232,2387,1368,-2123,-2092,-888,645,-4345,7588,52,108,777,1000,1133,700,1025,1253,1211,1845,1714
867040,308852,294508,356700,356700,2643,1518,-1822,-2124,-694,-58,-1778,7392,51,96,768,1167,1315,800,1264,1135,1142,1719,1470
868041,309020,294988,357168,357168,3050,1443,-1685,-2330,-441,-34,-2640,6103,27,91,762,1167,1315,800,1264,1135,1142,1719,1470
869042,309152,295428,357636,357636,3283,1693,-1466,-2630,-262,-1994,-1496,7336,13,81,752,1167,1315,800,1264,1135,1142,1719,1470
870043,309320,295860,358104,358104,3066,1744,-1264,-2829,-141,-3646,-1448,6781,-64,100,742,1167,1315,800,1264,1135,1142,1719,1470
871044,309408,296280,358572,358572,3575,1820,-964,-3226,-14,-3490,-1363,6630,-175,105,746,1167,1315,800,1264,1135,1142,1719,1470
872045,309484,296680,359040,359040,3659,1947,-596,-3723,155,-3624,-2006,7628,-68,94,733,1552,1661,907,1694,1017,1094,1728,1383
873046,309576,297116,359508,359508,3569,1723,-146,-3983,249,-3141,-1310,8615,-233,92,728,1552,1661,907,1694,1017,1094,1728,1383
874047,309652,297520,359976,359976,3678,1924,324,-3939,356,-1573,-2177,10404,-120,96,731,1552,1661,907,1694,1017,1094,1728,1383
875048,309716,297948,360448,360448,3763,1775,946,-3830,542,-419,-2313,9877,-247,99,736,1552,1661,907,1694,1017,1094,1728,1383
876049,309788,298300,360916,360916,3723,2253,1689,-3766,817,-665,-4226,11625,-82,82,744,1552,1661,907,1694,1017,1094,1728,1383
877050,309912,298660,361384,361384,3406,2206,2482,-3572,1025,452,-4432,12355,152,70,736,1552,1661,907,1694,1017,1094,1728,1383
878051,309988,299040,361852,361852,3716,2083,3371,-3371,1228,718,-5344,13021,16,78,732,1664,1704,880,1560,1108,1168,1896,1568
879052,310040,299380,362320,362320,3800,2336,4275,-2940,1427,684,-4854,13971,-244,70,736,1664,1704,880,1560,1108,1168,1896,1568
880053,310116,299712,362788,362788,3735,2389,5033,-2403,1716,1695,-4821,14167,8,66,744,1664,1704,880,1560,1108,1168,1896,1568
881054,310224,300072,363256,363256,3544,2217,5620,-1920,2039,2557,-6237,13975,244,50,736,1664,1704,880,1560,1108,1168,1896,1568
882055,310272,300392,363724,363724,3800,2471,6015,-1351,2429,2324,-4573,13548,72,62,727,1664,1704,880,1560,1108,1168,1896,1568
883056,310300,300732,364192,364192,3800,2349,6227,-829,2899,2745,-5803,12787,-262,71,744,1511,1663,863,1459,1126,1151,1899,1615
884057,310364,301064,364660,364660,3800,2402,6269,-400,3300,1590,-2774,12719,263,60,744,1511,1663,863,1459,1126,1151,1899,1615
885058,310444,301452,365128,365128,3760,2054,6139,-14,3618,990,-3233,13012,250,54,744,1511,1663,863,1459,1126,1151,1899,1615
886059,310512,301812,365596,365596,3800,2232,5861,116,3894,763,-2734,11696,265,68,740,1511,1663,863,1459,1126,1151,1899,1615
887060,310540,302192,366064,366064,3800,2109,5665,-62,4076,585,-2258,11220,108,62,749,1511,1663,863,1459,1126,1151,1899,1615
888061,310612,302568,366532,366532,3800,2136,5597,-284,4231,-185,-2802,11100,264,76,746,1511,1663,863,1459,1126,1151,1899,1615
889062,310744,302956,367000,367000,3473,2063,5722,-620,4378,-1303,-4198,10620,267,76,746,1533,1646,888,1503,1247,1291,2175,1767
890063,310840,303364,367468,367468,3707,1940,5978,-1001,4464,-1609,-5148,9763,251,74,730,1533,1646,888,1503,1247,1291,2175,1767
891064,310916,303824,367936,367936,3800,1615,6369,-1373,4561,-1353,-6387,9897,-267,77,736,1533,1646,888,1503,1247,1291,2175,1767
892065,311036,304264,368404,368404,3575,1740,6783,-1501,4738,104,-6657,10056,-16,86,752,1533,1646,888,1503,1247,1291,2175,1767
893066,311216,304704,368872,368872,3207,1741,7175,-1315,4841,1832,-7374,10329,240,94,730,1533,1646,888,1503,1247,1291,2175,1767
894067,311408,305140,369340,369340,3139,1767,7489,-830,4884,2327,-5249,10573,-246,99,742,1255,1351,843,1279,1647,1639,2559,2079
895068,311576,305632,369808,369808,3296,1416,7711,-143,5023,4033,-6275,10432,-107,87,746,1255,1351,843,1279,1647,1639,2559,2079
896069,311800,306140,370276,370276,2952,1315,7810,667,5131,4304,-4768,10294,-64,86,740,1255,1351,843,1279,1647,1639,2559,2079
897070,312020,306652,370744,370744,2983,1289,7823,1465,5252,3206,-3749,10562,-165,104,750,1255,1351,843,1279,1647,1639,2559,2079
898071,312176,307128,371212,371212,3391,1514,7696,2118,5444,3392,-2805,10013,-15,92,750,1255,1351,843,1279,1647,1639,2559,2079
899072,312356,307640,371680,371680,3248,1288,7402,2556,5774,3498,-2075,9624,-22,103,742,1255,1351,843,1279,1647,1639,2559,2079
900073,312628,308128,372148,372148,2678,1437,6984,2714,6075,2816,-700,7594,-188,100,743,1100,1199,758,1152,1442,1400,2090,1748
901074,312840,308672,372616,372616,3059,1086,6476,2881,6166,1814,769,8104,-79,103,753,1100,1199,758,1152,1442,1400,2090,1748
902075,313076,309252,373084,373084,2915,858,5965,3075,6228,435,-33,5778,18,107,753,1100,1199,758,1152,1442,1400,2090,1748
903076,313364,309828,373552,373552,2594,880,5554,3220,6259,649,372,5550,-9,94,759,1100,1199,758,1152,1442,1400,2090,1748
904077,313628,310384,374020,374020,2749,1003,5154,3166,6136,2165,979,3818,8,97,763,1100,1199,758,1152,1442,1400,2090,1748
905078,313868,310932,374488,374488,2904,1051,4925,2953,5962,2347,-902,3518,26,101,763,1092,1186,733,1136,1271,1274,1936,1705
906079,314180,311540,374956,374956,2458,673,4709,3209,5984,-524,-329,4732,13,106,760,1092,1186,733,1136,1271,1274,1936,1705
907080,314444,312120,375424,375424,2763,845,4685,3465,6021,624,-2235,3485,51,112,766,1092,1186,733,1136,1271,1274,1936,1705
908081,314720,312644,375892,375892,2693,1194,4692,3825,6244,-941,-4807,3969,16,109,765,1092,1186,733,1136,1271,1274,1936,1705
909082,315000,313212,376360,376360,2673,916,4976,3631,6254,667,-5316,2094,42,111,762,1092,1186,733,1136,1271,1274,1936,1705
910085,315272,313780,376832,376832,2727,914,5223,3667,6308,-305,-4916,5605,44,117,764,1092,1186,733,1136,1271,1274,1936,1705
911084,315612,314428,377300,377300,2306,409,5451,3800,6356,1412,-3853,4313,26,112,765,1035,1130,721,1055,1448,1368,2016,1824
912085,315928,315032,377768,377768,2459,681,5572,4467,6455,1481,-2408,5549,47,113,773,1035,1130,721,1055,1448,1368,2016,1824
913086,316244,315544,378236,378236,2463,1255,5622,5206,6528,2596,-2479,3564,59,119,772,1035,1130,721,1055,1448,1368,2016,1824
914087,316580,316144,378704,378704,2341,702,5582,6014,6511,2967,134,3043,46,109,768,1035,1130,721,1055,1448,1368,2016,1824
915088,316924,316692,379172,379172,2294,1025,5462,6360,6364,2704,1488,1324,53,111,771,1035,1130,721,1055,1448,1368,2016,1824
916089,317284,317328,379640,379640,2197,471,5157,6746,6348,1207,1015,2681,68,118,774,1007,1143,730,1061,1269,1197,1775,1622
917090,317680,317912,380108,380108,1974,793,4774,6999,6325,2243,2442,1207,79,111,777,1007,1143,730,1061,1269,1197,1775,1622
918091,318076,318504,380576,380576,1975,740,4427,7168,6449,771,1729,1740,82,114,779,1007,1143,730,1061,1269,1197,1775,1622
919092,318468,319100,381044,381044,2002,712,4211,7001,6498,563,2716,59,72,117,780,1007,1143,730,1061,1269,1197,1775,1622
920093,318908,319700,381512,381512,1703,684,3991,6673,6456,-532,3699,-60,81,120,780,1007,1143,730,1061,1269,1197,1775,1622
921094,319352,320224,381980,381980,1679,1157,3752,6700,6356,-794,1684,-1019,105,126,783,1101,1197,733,1132,1149,1197,1775,1622
922095,319872,320792,382448,382448,1202,880,3754,6353,6285,-2234,1475,-1837,112,130,784,1101,1197,733,1132,1149,1151,1702,1539
923096,320388,321344,382916,382916,1226,978,3732,6117,6276,-1334,136,-897,95,107,788,1101,1197,733,1132,1149,1151,1702,1539
924097,320872,321948,383384,383384,1426,649,3861,5815,6315,-1357,-799,-358,107,113,789,1101,1197,733,1132,1149,1151,1702,1539
925098,321424,322528,383852,383852,999,797,3932,5702,6398,-262,-634,995,113,125,790,1101,1197,733,1132,1149,1151,1702,1539
926099,321968,323084,384320,384320,1047,945,4045,5768,6397,537,-284,895,119,110,793,1101,1197,733,1132,1149,1151,1702,1539
927100,322528,323572,384788,384788,945,1369,4168,6033,6342,2258,-3954,648,113,119,793,1056,1112,710,1036,1216,1179,1717,1600
928101,323112,324068,385256,385256,792,1318,4179,6590,6077,2936,149,325,104,119,789,1056,1112,710,1036,1216,1179,1717,1600
929102,323636,324596,385724,385724,1165,1117,4290,6460,6073,-192,-2261,884,120,115,791,1056,1112,710,1036,1216,1179,1717,1600
930103,324196,325088,386192,386192,938,1341,4064,6528,6119,1299,-1886,2049,107,115,791,1056,1112,710,1036,1216,1179,1717,1600
931104,324756,325564,386660,386660,936,1441,3837,6576,6088,1524,138,2867,106,99,789,1056,1112,710,1036,1216,1179,1717,1600
932105,325364,326008,387128,387128,632,1642,3543,6851,6054,1005,-523,2531,108,112,789,999,1110,711,1002,1237,1183,1759,1707
933106,325956,326440,387596,387596,729,1718,3295,6591,6037,-281,470,516,125,94,788,999,1110,711,1002,1237,1183,1759,1707
934107,326492,326896,388064,388064,1078,1568,2927,6207,5962,-1645,1291,2481,110,86,787,999,1110,711,1002,1237,1183,1759,1707
935108,327060,327324,388532,388532,875,1744,2559,5754,5839,-2522,955,582,100,98,785,999,1110,711,1002,1237,1183,1759,1707
936109,327612,327736,389000,389000,973,1845,2196,5276,5778,-2734,265,524,126,95,785,999,1110,711,1002,1237,1183,1759,1707
937110,328224,328128,389468,389468,595,1972,1954,4911,5722,-1970,1535,2265,116,80,783,999,1110,711,1002,1237,1183,1759,1707
938111,328828,328572,389936,389936,641,1648,1707,4736,5660,-1016,-277,1788,110,70,781,1005,1137,718,1030,1365,1336,2084,1983
939112,329408,328944,390404,390404,789,2100,1502,4615,5550,-1420,964,2862,121,81,785,1005,1137,718,1030,1365,1336,2084,1983
940113,329964,329280,390872,390872,937,2328,1363,4360,5452,-1490,1556,2554,117,58,782,1005,1137,718,1030,1365,1336,2084,1983
941114,330460,329600,391340,391340,1311,2432,1119,4157,5272,-1392,-503,1685,116,59,776,1005,1137,718,1030,1365,1336,2084,1983
942115,331052,329960,391808,391808,708,2184,872,3857,5054,-1686,1744,2127,112,56,770,1005,1137,718,1030,1365,1336,2084,1983
943116,331616,330304,392276,392276,880,2287,531,3270,5007,-1896,693,699,123,58,774,1017,1176,741,1043,1545,1472,2275,2139
944117,332220,330592,392744,392744,627,2642,232,3058,4926,-656,-342,2519,127,38,774,1017,1176,741,1043,1545,1472,2275,2139
945118,332804,330864,393216,393216,749,2747,-51,3090,4801,-1750,-1311,1853,115,18,771,1017,1176,741,1043,1545,1472,2275,2139
946119,333340,331144,393684,393684,1048,2701,-395,3075,4564,-1843,-543,3042,113,0,767,1017,1176,741,1043,1545,1472,2275,2139
947120,333924,331388,394152,394152,745,2932,-782,2783,4354,-1663,599,2502,138,16,761,1017,1176,741,1043,1545,1472,2275,2139
948121,334528,331640,394620,394620,617,2887,-1169,2273,4165,-1349,4,1452,131,-17,763,1017,1176,741,1043,1545,1472,2275,2139
949122,335104,331876,395088,395088,789,2993,-1652,1920,3985,-1560,982,3667,117,-4,762,1030,1187,730,992,1427,1314,2040,1950
950123,335640,332120,395556,395556,1037,2948,-2082,1488,3819,-1787,-63,2725,134,-17,758,1030,1187,730,992,1427,1314,2040,1950
951124,336168,332376,396024,396024,1086,2878,-2531,1354,3685,-1468,-578,4550,129,-17,758,1030,1187,730,992,1427,1314,2040,1950
952125,336688,332648,396492,396492,1135,2783,-2798,1193,3585,-2504,248,4180,122,-25,758,1030,1187,730,992,1427,1314,2040,1950
953126,337208,332864,396960,396960,1133,3139,-2976,1111,3476,-1905,18,5100,108,-4,758,1030,1187,730,992,1427,1314,2040,1950
954127,337796,333080,397428,397428,705,3145,-3150,844,3395,-2159,-188,4349,116,-68,756,971,1109,697,942,1374,1285,1950,1897
955128,338336,333280,397896,397896,1004,3252,-3300,427,3376,-2718,1023,4212,110,-62,755,971,1109,697,942,1374,1285,1950,1897
956129,338880,333472,398364,398364,977,3309,-3517,199,3385,-2340,193,3867,113,-96,751,971,1109,697,942,1374,1285,1950,1897
957130,339388,333756,398832,398832,1201,2738,-3684,-42,3407,-1910,1486,4079,108,-131,746,971,1109,697,942,1374,1285,1950,1897
958131,339920,333976,399300,399300,1049,3144,-3755,-39,3400,-2202,629,2020,116,-15,754,971,1109,697,942,1374,1285,1950,1897
959132,340512,334212,399768,399768,671,3050,-3833,-180,3303,-2274,2410,3896,112,-52,758,971,1109,697,942,1374,1285,1950,1897
960133,341092,334408,400236,400236,743,3307,-3882,-228,3234,-2228,1239,1517,107,-48,752,954,1092,690,985,1367,1319,1996,1840
961134,341660,334624,400704,400704,816,3188,-4008,-481,3229,-1976,2606,2481,131,-102,749,954,1092,690,985,1367,1319,1996,1840
962135,342204,334804,401172,401172,964,3420,-4140,-605,3156,-2694,3580,1837,129,-54,753,954,1092,690,985,1367,1319,1996,1840
963136,342760,335028,401640,401640,887,3151,-4269,-643,3020,-2082,2357,677,119,-146,748,954,1092,690,985,1367,1319,1996,1840
964137,343352,335356,402108,402108,659,2504,-4267,-1025,2963,-791,1389,-2693,109,-33,752,954,1092,690,985,1367,1319,1996,1840
965138,343972,335756,402576,402576,480,2056,-4287,-1540,3234,-1334,2684,-2462,119,35,762,1077,1189,751,1141,1278,1251,1853,1637
966139,344544,336188,403044,403044,778,1857,-4652,-1928,3474,-495,1337,621,115,57,772,1077,1189,751,1141,1278,1251,1853,1637
967140,345128,336676,403512,403512,700,1506,-5076,-2038,3519,214,2162,1387,105,60,779,1077,1189,751,1141,1278,1251,1853,1637
968141,345724,337148,403980,403980,622,1606,-5353,-2245,3470,-682,163,320,120,62,782,1077,1189,751,1141,1278,1251,1853,1637
969142,346332,337672,404448,404448,543,1280,-5445,-2393,3362,-1208,1203,1236,130,54,786,1077,1189,751,1141,1278,1251,1853,1637
970143,347032,338148,404916,404916,-37,1580,-5543,-2391,3262,-190,135,1791,113,64,788,1077,1189,751,1141,1278,1251,1853,1637
971144,347624,338696,405384,405384,635,1128,-5569,-2259,3238,1796,-525,1313,116,82,790,1140,1206,770,1137,1248,1235,1778,1626
972145,348144,339224,405852,405852,1083,1251,-5499,-2174,3280,1578,-2375,998,133,82,790,1140,1206,770,1137,1248,1235,1778,1626
973146,348748,339748,406320,406320,555,1275,-5371,-2139,3233,716,-1517,2073,133,80,790,1140,1206,770,1137,1248,1235,1778,1626
974147,349316,340284,406788,406788,778,1198,-5190,-2035,3180,120,-2509,2464,116,90,790,1140,1206,770,1137,1248,1235,1778,1626
975148,349872,340844,407256,407256,850,1046,-4977,-1867,3154,524,-1936,2099,122,102,791,1140,1206,770,1137,1248,1235,1778,1626
976149,350536,341520,407724,407724,171,316,-4782,-1781,3153,465,-1594,2114,128,111,792,987,1065,700,995,1286,1253,1801,1646
977150,351152,342112,408192,408192,467,838,-4554,-1927,3244,61,-525,1088,126,103,797,987,1065,700,995,1286,1253,1801,1646
978151,351780,342668,408660,408660,388,1061,-4456,-2017,3370,369,296,1511,121,96,799,987,1065,700,995,1286,1253,1801,1646
979152,352396,343236,409128,409128,460,983,-4608,-1668,3424,615,523,549,133,103,797,987,1065,700,995,1286,1253,1801,1646
980153,353008,343904,409600,409600,481,353,-4638,-1427,3421,-362,697,29,126,115,797,987,1065,700,995,1286,1253,1801,1646
981154,353688,344436,410068,410068,51,1202,-4690,-1248,3357,-1603,1496,421,121,109,799,987,1065,700,995,1286,1253,1801,1646
982155,354344,345020,410536,410536,196,874,-4815,-1135,3283,-586,2431,198,134,100,799,977,1075,693,1066,1199,1200,1761,1560
983156,354988,345548,411004,411004,267,1223,-5043,-1162,3353,-216,2269,-1158,134,110,798,977,1075,693,1066,1199,1200,1761,1560
