%  Data file recorded 2016/3/13  20:17:5
%  Stride Frequency         = [7, 7]
%  Lead In /Lead Out        = 
%  Deltas (Fractional)      = [0.25, 0.25, 0.25],[0.25, 0.25, 0.25]
%  Phase                    = 32768
%  Experiment.py 
%  Motor Gains    = [100, 0, 100, 0, 0, 100, 0, 100, 0, 0]
% Columns: 
% time | Right Leg Pos | Left Leg Pos | Commanded Right Leg Pos | Commanded Left Leg Pos | DCR | DCL | GyroX | GyroY | GyroZ | AX | AY | AZ | RBEMF | LBEMF | VBatt | S1 | S2 | S3 | S4 | S5 | S6 | S7 | S8
50,32648,-13936,11700,11700,-612,650,-105,-64,34,349,-223,3903,-2,-5,842,1113,1241,774,1154,1317,1285,1950,1766
1051,32632,-13940,11700,11700,-412,650,-106,-64,34,359,-232,3938,-7,-5,843,1113,1241,774,1154,1317,1285,1950,1766
2052,32628,-13944,11700,11700,-486,651,-106,-61,34,358,-234,3913,4,-6,842,1113,1241,774,1154,1317,1285,1950,1766
3053,32636,-13940,11700,11700,-562,600,-105,-61,36,333,-242,3880,-3,-8,842,1113,1241,774,1154,1317,1285,1950,1766
4055,32628,-13944,11700,11700,-461,651,-105,-64,37,356,-242,3900,-7,-9,842,1113,1241,774,1154,1317,1285,1950,1766
5055,32624,-13936,11700,11700,-486,575,-106,-64,36,340,-234,3923,3,-7,842,1113,1241,774,1154,1317,1285,1950,1766
6056,32616,-13948,11700,11700,-461,701,-107,-62,36,340,-222,3926,3,4,842,1114,1242,775,1154,1317,1285,1950,1766
7057,32632,-13940,11700,11700,-612,575,-106,-63,34,330,-222,3886,-9,5,842,1114,1242,775,1154,1317,1285,1950,1766
8058,32628,-13936,11700,11700,-486,600,-106,-64,33,327,-238,3924,-6,6,842,1114,1242,775,1154,1317,1285,1950,1766
9059,32640,-13940,11700,11700,-587,650,-105,-64,37,343,-239,3932,5,-3,842,1114,1242,775,1154,1317,1285,1950,1766
10060,32636,-13940,11700,11700,-487,625,-105,-63,38,354,-244,3926,6,-9,842,1114,1242,775,1154,1317,1285,1950,1766
11061,32632,-13940,11700,11700,-487,625,-105,-63,36,362,-232,3909,3,-8,842,1114,1243,776,1153,1315,1283,1951,1767
12062,32620,-13940,11700,11700,-436,625,-105,-64,35,331,-227,3893,-9,2,842,1114,1243,776,1153,1315,1283,1951,1767
13063,32624,-13944,11700,11700,-536,651,-105,-65,35,350,-229,3881,1,5,842,1114,1243,776,1153,1315,1283,1951,1767
14064,32624,-13932,11700,11700,-511,550,-106,-67,35,364,-241,3885,7,6,842,1114,1243,776,1153,1315,1283,1951,1767
15065,32632,-13936,11700,11700,-562,650,-105,-65,35,354,-236,3919,0,-1,843,1114,1243,776,1153,1315,1283,1951,1767
16066,32624,-13940,11700,11700,-461,650,-105,-65,33,346,-239,3929,-9,1,842,1114,1243,776,1153,1315,1283,1951,1767
17067,32632,-13936,11700,11700,-562,600,-104,-66,35,345,-235,3916,-5,-3,842,1114,1242,774,1154,1316,1285,1950,1767
18068,32632,-13940,11700,11700,-512,650,-103,-66,38,357,-257,3914,6,-9,842,1114,1242,774,1154,1316,1285,1950,1767
19069,32628,-13944,11700,11700,-486,651,-101,-63,36,352,-253,3891,-9,-9,840,1114,1242,774,1154,1316,1285,1950,1767
20070,32636,-13940,11700,11700,-562,600,-104,-63,31,385,-258,3886,3,-8,840,1114,1242,774,1154,1316,1285,1950,1767
21071,32628,-13936,11700,11700,-461,600,-107,-64,32,356,-256,3882,-1,0,842,1114,1242,774,1154,1316,1285,1950,1767
22072,32636,-13940,11700,11700,-562,650,-105,-65,36,344,-246,3867,-8,3,842,1116,1244,776,1155,1317,1285,1950,1765
23073,32628,-13936,11700,11700,-461,600,-103,-64,37,366,-257,3928,4,6,843,1116,1244,776,1155,1317,1285,1950,1765
24074,32636,-13944,11700,11700,-562,676,-104,-65,33,378,-250,3926,2,-1,842,1116,1244,776,1155,1317,1285,1950,1765
25075,32620,-13948,11700,11700,-411,651,-105,-66,31,360,-232,3913,-9,-6,842,1116,1244,776,1155,1317,1285,1950,1765
26076,32636,-13932,11700,11700,-612,525,-105,-67,33,365,-254,3915,-1,-9,842,1116,1244,776,1155,1317,1285,1950,1765
27077,32628,-13944,11700,11700,-461,701,-101,-65,32,342,-243,3928,6,2,842,1116,1244,776,1155,1317,1285,1950,1765
28078,32624,-13940,11700,11700,-486,600,-102,-65,31,357,-249,3920,-9,5,842,1114,1243,775,1155,1318,1285,1950,1765
29079,32620,-13944,11700,11700,-486,651,-102,-66,33,357,-245,3880,-7,4,842,1114,1243,775,1155,1318,1285,1950,1765
30080,32628,-13944,11700,11700,-561,626,-102,-64,32,357,-239,3890,7,-8,842,1114,1243,775,1155,1318,1285,1950,1765
31081,32624,-13940,11700,11700,-486,600,-102,-66,31,361,-223,3926,-9,-9,842,1114,1243,775,1155,1318,1285,1950,1765
32082,32628,-13948,11700,11700,-536,676,-103,-66,30,376,-253,3898,1,-6,842,1114,1243,775,1155,1318,1285,1950,1765
33083,32636,-13944,11700,11700,-562,601,-102,-64,33,359,-231,3882,4,5,843,1114,1242,774,1154,1317,1285,1951,1765
34084,32632,-13944,11700,11700,-487,626,-103,-65,31,382,-232,3902,-8,4,842,1114,1242,774,1154,1317,1285,1951,1765
35085,32620,-13944,11700,11700,-436,626,-103,-66,31,365,-215,3902,3,-1,842,1114,1242,774,1154,1317,1285,1951,1765
36086,32624,-13940,11700,11700,-536,600,-102,-68,32,365,-241,3899,4,-8,841,1114,1242,774,1154,1317,1285,1951,1765
37087,32636,-13952,11700,11700,-587,701,-102,-66,33,350,-267,3896,-10,-9,840,1114,1242,774,1154,1317,1285,1951,1765
38088,32616,-13944,11700,11700,-386,576,-103,-64,32,355,-242,3891,-5,-7,842,1114,1242,774,1154,1317,1285,1951,1765
39089,32620,-13940,11700,11700,-536,600,-103,-63,33,367,-241,3900,7,5,842,1111,1239,774,1155,1319,1286,1952,1765
40090,32640,-13948,11700,11700,-637,676,-102,-62,32,383,-241,3902,-8,5,842,1111,1239,774,1155,1319,1286,1952,1765
41091,32632,-13944,11700,11700,-462,601,-103,-65,31,383,-241,3938,-4,1,842,1111,1239,774,1155,1319,1286,1952,1765
42092,32632,-13940,11700,11700,-512,600,-102,-65,31,374,-222,3935,0,-7,842,1111,1239,774,1155,1319,1286,1952,1765
43093,32632,-13952,11700,11700,-512,701,-101,-66,32,382,-218,3981,0,-9,842,1111,1239,774,1155,1319,1286,1952,1765
44094,32636,-13940,11700,11700,-537,550,-102,-65,33,350,-232,3892,5,-7,842,1113,1241,775,1155,1318,1286,1951,1766
45095,32632,-13940,11700,11700,-487,625,-102,-65,33,364,-225,3876,-9,6,842,1113,1241,775,1155,1318,1286,1951,1766
46097,32636,-13936,11700,11700,-537,600,-102,-67,32,356,-249,3901,7,5,842,1113,1241,775,1155,1318,1286,1951,1766
47097,32620,-13948,11700,11700,-411,701,-102,-65,32,329,-228,3892,-7,-5,842,1113,1241,775,1155,1318,1286,1951,1766
48098,32632,-13944,11700,11700,-587,601,-103,-64,35,359,-221,3899,6,-6,842,1113,1241,775,1155,1318,1286,1951,1766
49099,32632,-13944,11700,11700,-512,626,-102,-63,34,358,-201,3924,-5,5,842,1113,1241,775,1155,1318,1286,1951,1766
50100,32628,-13940,11700,11700,-486,600,-104,-62,33,354,-220,3923,-4,2,842,1114,1242,775,1155,1317,1285,1951,1766
51101,32624,-13944,11700,11700,-486,651,-103,-63,33,348,-238,3913,4,-8,842,1114,1242,775,1155,1317,1285,1951,1766
52102,32620,-13936,11700,11700,-486,575,-103,-63,34,362,-219,3894,-9,-9,841,1114,1242,775,1155,1317,1285,1951,1766
53103,32628,-13940,11700,11700,-561,650,-103,-63,32,373,-220,3924,3,-8,841,1114,1242,775,1155,1317,1285,1951,1766
54104,32624,-13940,11700,11700,-486,625,-105,-66,31,361,-225,3927,-4,-2,842,1114,1242,775,1155,1317,1285,1951,1766
55105,32636,-13944,11700,11700,-587,651,-105,-64,33,356,-245,3889,-7,3,842,1115,1242,776,1155,1317,1285,1951,1763
56106,32624,-13944,11700,11700,-436,626,-105,-64,32,359,-242,3897,6,6,842,1115,1242,776,1155,1317,1285,1951,1763
57107,32632,-13936,11700,11700,-562,575,-104,-65,33,365,-226,3927,-5,2,842,1115,1242,776,1155,1317,1285,1951,1763
58108,32636,-13932,11700,11700,-537,600,-105,-64,34,354,-226,3911,1,-5,842,1115,1242,776,1155,1317,1285,1951,1763
59109,32624,-13936,11700,11700,-436,650,-105,-63,36,355,-231,3915,4,-8,842,1115,1242,776,1155,1317,1285,1951,1763
60110,32632,-13936,11700,11700,-562,625,-106,-61,35,370,-231,3910,-8,-4,842,1115,1242,776,1155,1317,1285,1951,1763
61111,32632,-13944,11700,11700,-512,676,-105,-62,34,376,-215,3908,3,-1,842,1114,1242,776,1155,1318,1285,1950,1765
62112,32616,-13936,11700,11700,-411,575,-104,-63,36,368,-228,3887,7,1,842,1114,1242,776,1155,1318,1285,1950,1765
63113,32628,-13936,11700,11700,-586,625,-103,-64,33,373,-221,3896,-8,6,842,1114,1242,776,1155,1318,1285,1950,1765
64114,32616,-13944,11700,11700,-436,676,-105,-62,33,377,-224,3895,0,5,842,1114,1242,776,1155,1318,1285,1950,1765
65115,32628,-13940,11700,11700,-586,600,-106,-63,35,358,-224,3931,5,4,842,1114,1242,776,1155,1318,1285,1950,1765
66116,32628,-13944,11700,11700,-511,651,-106,-62,37,375,-230,3931,-9,-6,842,1115,1244,776,1156,1317,1285,1952,1765
67117,32632,-13948,11700,11700,-537,651,-104,-64,37,363,-244,3905,4,-7,842,1115,1244,776,1156,1317,1285,1952,1765
68118,32636,-13932,11700,11700,-537,525,-105,-64,38,383,-264,3934,6,-7,842,1115,1244,776,1156,1317,1285,1952,1765
69119,32616,-13944,11700,11700,-386,701,-104,-65,37,348,-247,3898,-7,-9,841,1115,1244,776,1156,1317,1285,1952,1765
70120,32632,-13936,11700,11700,-612,575,-102,-63,37,352,-250,3876,-8,-9,841,1115,1244,776,1156,1317,1285,1952,1765
71121,32620,-13944,11700,11700,-436,676,-102,-64,35,356,-229,3901,1,-8,842,1115,1244,776,1156,1317,1285,1952,1765
72122,32624,-13944,11700,11700,-536,626,-104,-65,34,381,-245,3899,1,-8,842,1115,1243,775,1154,1317,1285,1950,1766
73123,32636,-13948,11700,11700,-587,651,-103,-64,36,349,-236,3894,-10,-7,842,1115,1243,775,1154,1317,1285,1950,1766
74124,32620,-13936,11700,11700,-411,550,-103,-62,33,361,-266,3897,-5,-7,842,1115,1243,775,1154,1317,1285,1950,1766
75125,32628,-13936,11700,11700,-561,625,-105,-63,33,383,-274,3942,7,3,842,1115,1243,775,1154,1317,1285,1950,1766
76126,32624,-13940,11700,11700,-486,650,-105,-66,34,365,-219,3908,-8,3,842,1115,1243,775,1154,1317,1285,1950,1766
77127,32632,-13944,11700,11700,-562,651,-104,-64,35,347,-230,3918,-8,6,842,1114,1242,775,1155,1318,1286,1950,1766
78128,32620,-13944,11700,11700,-436,626,-105,-64,35,358,-251,3893,6,2,842,1114,1242,775,1155,1318,1286,1950,1766
79129,32628,-13944,11700,11700,-561,626,-106,-64,37,365,-227,3903,-2,-1,842,1114,1242,775,1155,1318,1286,1950,1766
80130,32632,-13932,11700,11700,-537,550,-103,-61,37,365,-237,3887,-9,-5,842,1114,1242,775,1155,1318,1286,1950,1766
81131,32628,-13940,11700,11700,-486,675,-103,-64,35,376,-258,3889,6,-8,842,1114,1242,775,1155,1318,1286,1950,1766
82132,32628,-13944,11700,11700,-511,651,-104,-65,33,356,-247,3894,-7,-3,842,1114,1242,775,1155,1318,1286,1950,1766
83133,32624,-13944,11700,11700,-486,626,-104,-63,33,347,-272,3902,-7,3,842,1113,1239,774,1155,1318,1286,1952,1765
84134,32636,-13952,11700,11700,-587,676,-105,-60,32,362,-228,3894,7,5,842,1113,1239,774,1155,1318,1286,1952,1765
85135,32628,-13940,11700,11700,-461,550,-107,-62,32,366,-247,3897,-2,3,842,1113,1239,774,1155,1318,1286,1952,1765
86136,32636,-13932,11700,11700,-562,575,-105,-65,33,370,-242,3914,-9,-2,841,1113,1239,774,1155,1318,1286,1952,1765
87137,32632,-13940,11700,11700,-487,675,-102,-67,34,368,-254,3927,4,-7,840,1113,1239,774,1155,1318,1286,1952,1765
88138,32628,-13948,11700,11700,-486,676,-102,-65,33,362,-243,3911,-3,-5,842,1115,1242,775,1154,1317,1285,1950,1765
89139,32632,-13940,11700,11700,-537,575,-104,-63,33,335,-226,3920,-9,-8,842,1115,1242,775,1154,1317,1285,1950,1765
90140,32628,-13936,11700,11700,-486,600,-103,-63,32,334,-228,3939,3,-5,842,1115,1242,775,1154,1317,1285,1950,1765
91141,32620,-13948,11700,11700,-461,701,-101,-62,32,322,-243,3888,1,-1,842,1115,1242,775,1154,1317,1285,1950,1765
92142,32632,-13936,11700,11700,-587,550,-105,-62,33,352,-245,3857,-6,5,842,1115,1242,775,1154,1317,1285,1950,1765
93143,32628,-13948,11700,11700,-486,701,-104,-66,32,357,-242,3886,-7,-2,842,1115,1242,775,1154,1317,1285,1950,1765
94144,32632,-13940,11700,11700,-537,575,-106,-65,31,348,-242,3918,5,-7,842,1114,1242,775,1155,1318,1286,1952,1766
95145,32628,-13932,11700,11700,-486,575,-107,-65,32,362,-239,3894,2,-9,842,1114,1242,775,1155,1318,1286,1952,1766
96146,32632,-13936,11700,11700,-537,650,-105,-65,33,372,-203,3916,-9,-1,842,1114,1242,775,1155,1318,1286,1952,1766
97147,32624,-13956,11700,11700,-461,751,-104,-63,32,362,-224,3930,2,2,842,1114,1242,775,1155,1318,1286,1952,1766
98148,32624,-13944,11700,11700,-511,551,-104,-65,32,372,-257,3937,7,3,842,1114,1242,775,1155,1318,1286,1952,1766
99149,32624,-13936,11700,11700,-511,575,-105,-67,33,355,-257,3908,-6,6,842,1115,1241,771,1154,1318,1286,1952,1768
100150,32628,-13936,11700,11700,-536,625,-104,-67,31,369,-245,3887,-4,4,842,1115,1241,771,1154,1318,1286,1952,1768
101151,32644,-13940,11700,11700,-612,650,-103,-65,30,348,-258,3919,4,3,842,1115,1241,771,1154,1318,1286,1952,1768
102152,32636,-13952,11700,11700,-462,701,-105,-66,31,372,-237,3875,3,-3,842,1115,1241,771,1154,1318,1286,1952,1768
103153,32640,-13932,11700,11700,-537,500,-104,-66,33,362,-227,3883,-9,-2,841,1115,1241,771,1154,1318,1286,1952,1768
104155,32636,-13940,0,0,-487,675,-105,-67,31,352,-233,3906,-5,1,840,1115,1241,771,1154,1318,1286,1952,1768
105155,32632,-13940,468,468,-274,838,-105,-67,31,357,-237,3908,6,-3,842,1115,1242,775,1154,1317,1285,1951,1766
106156,32636,-13940,936,936,-312,850,-103,-66,31,368,-236,3929,-7,3,833,1115,1242,775,1154,1317,1285,1951,1766
107157,32620,-13936,1404,1404,-176,836,-102,-66,33,381,-228,3913,4,3,833,1115,1242,775,1154,1317,1285,1951,1766
108158,32632,-13932,1872,1872,-339,847,-99,-68,36,348,-241,3941,6,9,833,1115,1242,775,1154,1317,1285,1951,1766
109159,32632,-13932,2340,2340,-253,884,-98,-70,35,349,-239,3915,1,11,832,1115,1242,775,1154,1317,1285,1951,1766
110160,32628,-13932,2808,2808,-217,895,-102,-63,35,377,-246,3885,-10,7,833,1115,1241,775,1155,1318,1285,1951,1766
111161,32632,-13908,3276,3276,-255,756,-102,-58,32,348,-235,3883,-6,14,833,1115,1241,775,1155,1318,1285,1951,1766
112162,32636,-13800,3744,3744,-244,240,-99,-58,33,363,-204,3889,4,9,834,1115,1241,775,1155,1318,1285,1951,1766
113163,32636,-13668,4212,4212,-207,98,-86,-89,31,309,-340,3913,-8,26,839,1115,1241,775,1155,1318,1285,1951,1766
114164,32628,-13564,4680,4680,-146,282,-88,-128,42,184,-2,4214,6,19,840,1115,1241,775,1155,1318,1285,1951,1766
115165,32632,-13464,5148,5148,-209,316,-94,-136,65,295,-134,4151,-9,23,839,1115,1243,775,1155,1318,1285,1951,1766
116166,32628,-13340,5616,5616,-148,174,-104,-98,54,417,-374,3819,6,10,839,1115,1243,773,1151,1315,1284,1951,1768
117167,32612,-13232,6084,6084,-61,283,-87,-103,32,159,-346,3817,-10,24,840,1115,1243,773,1151,1315,1284,1951,1768
118168,32616,-13140,6552,6552,-175,392,-78,-119,28,249,-250,3877,-8,25,840,1115,1243,773,1151,1315,1284,1951,1768
119169,32604,-13052,7020,7020,-63,427,-84,-128,40,367,-353,3857,3,17,838,1115,1243,773,1151,1315,1284,1951,1768
120170,32604,-12944,7488,7488,-127,310,-94,-118,39,319,-277,4019,0,20,838,1115,1243,773,1151,1315,1284,1951,1768
121171,32604,-12852,7956,7956,-115,420,-82,-101,31,175,-322,4040,-1,8,838,1118,1246,776,1155,1317,1285,1952,1769
122172,32588,-12768,8424,8424,-3,479,-86,-100,18,135,-306,4188,-8,16,838,1118,1246,776,1155,1317,1285,1952,1769
123173,32588,-12680,8892,8892,-92,463,-92,-116,20,254,-158,4064,-2,7,839,1118,1246,776,1155,1317,1285,1952,1769
124174,32604,-12580,9360,9360,-181,397,-84,-114,30,434,-437,3911,-5,16,838,1118,1246,776,1155,1317,1285,1952,1769
125175,32596,-12516,9828,9828,-19,632,-54,-120,25,116,-224,3834,4,11,838,1118,1246,776,1155,1317,1285,1952,1769
126176,32592,-12436,10296,10296,-33,541,-47,-145,20,76,-282,3937,4,4,836,1119,1247,776,1156,1317,1285,1954,1771
127177,32588,-12372,10764,10764,-21,651,-62,-163,20,387,-186,4077,4,18,837,1119,1247,776,1156,1317,1285,1954,1771
128178,32584,-12280,11232,11232,-10,486,-78,-166,27,379,-298,3974,6,16,836,1119,1247,776,1156,1317,1285,1954,1771
129179,32580,-12208,11700,11700,2,620,-83,-156,26,297,-203,3983,5,13,838,1119,1247,776,1156,1317,1285,1954,1771
130180,32588,-12128,12168,12168,-62,580,-78,-158,26,209,-173,3985,3,5,837,1119,1247,776,1156,1317,1285,1954,1771
131183,32588,-12052,12636,12636,-1,614,-76,-162,21,293,-262,3992,5,14,837,1119,1247,776,1156,1317,1285,1954,1771
132182,32588,-11988,13104,13104,11,699,-69,-162,12,364,-278,3984,5,16,837,1119,1248,776,1155,1316,1285,1951,1771
133183,32592,-11916,13572,13572,-3,659,-61,-166,14,366,-337,3971,4,9,836,1119,1248,776,1155,1316,1285,1951,1771
134184,32584,-11840,14040,14040,84,643,-56,-166,13,235,-295,4003,6,13,836,1119,1248,776,1155,1316,1285,1951,1771
135185,32584,-11768,14508,14508,45,678,-52,-175,10,218,-388,3986,5,5,836,1119,1248,776,1155,1316,1285,1951,1771
136186,32588,-11676,14976,14976,32,562,-48,-187,8,264,-321,3933,7,6,836,1119,1248,776,1155,1316,1285,1951,1771
137187,32600,-11600,15444,15444,-7,672,-45,-203,8,265,-359,3939,7,17,836,1119,1250,777,1154,1318,1283,1954,1771
138188,32592,-11528,15912,15912,129,706,-40,-218,4,221,-361,3969,-6,18,834,1119,1250,777,1154,1318,1283,1954,1771
139189,32592,-11452,16384,16384,2529,3129,-41,-216,-5,215,-309,4028,-6,12,835,1119,1250,777,1154,1318,1283,1954,1771
140190,32604,-11348,16852,16852,2465,2963,-36,-218,5,360,-275,3957,7,12,769,1119,1250,777,1154,1318,1283,1954,1771
141191,32592,-11184,17320,17320,2627,2595,-33,-202,6,298,-352,3999,-1,-67,775,1119,1250,777,1154,1318,1283,1954,1771
142192,32732,-10940,17788,17788,1685,2101,-8,-268,4,82,-292,3843,8,-31,781,1119,1250,777,1154,1318,1283,1954,1771
143193,32988,-10648,18256,18256,965,1805,57,-267,10,145,-89,4697,11,17,802,1119,1249,776,1155,1258,1228,1880,1703
144194,33300,-10320,18724,18724,619,1584,68,-279,61,616,-588,5117,62,53,814,1119,1249,776,1155,1258,1228,1880,1703
145195,33624,-9956,19192,19192,547,1361,112,-214,86,683,109,5303,53,63,820,1119,1249,776,1155,1258,1228,1880,1703
146196,33924,-9616,19660,19660,701,1514,81,-193,51,699,188,5409,64,59,824,1119,1249,776,1155,1258,1228,1880,1703
147197,34184,-9288,20128,20128,956,1593,97,-193,64,153,-297,5268,48,73,821,1119,1249,776,1155,1258,1228,1880,1703
148198,34460,-8948,20596,20596,861,1521,54,-206,130,267,126,5009,48,72,819,1121,1259,783,1171,1324,1294,1985,1790
149199,34752,-8588,21064,21064,765,1398,31,-191,203,154,-462,5220,51,69,822,1121,1259,783,1171,1324,1294,1985,1790
150200,35048,-8288,21532,21532,745,1778,-45,-140,241,-251,-492,4774,63,67,823,1121,1259,783,1171,1324,1294,1985,1790
151201,35348,-7992,22000,22000,724,1807,-61,-134,239,12,-253,4851,54,63,818,1121,1259,783,1171,1324,1294,1985,1790
152202,35648,-7700,22468,22468,728,1836,-44,-132,234,565,-695,4555,47,51,818,1121,1259,783,1171,1324,1294,1985,1790
153203,35872,-7416,22936,22936,1209,1891,-11,-229,245,287,-560,5272,45,45,818,1121,1259,783,1171,1324,1294,1985,1790
154204,36140,-7108,23404,23404,939,1744,20,-308,312,-9,-970,5624,45,48,812,1157,1291,802,1201,1377,1346,2078,1855
155205,36388,-6832,23872,23872,1069,1949,108,-467,385,-44,-739,5479,43,56,815,1157,1291,802,1201,1377,1346,2078,1855
156206,36620,-6596,24340,24340,1175,2205,209,-509,421,143,-607,5905,47,54,812,1157,1291,802,1201,1377,1346,2078,1855
157207,36872,-6344,24808,24808,1055,2110,272,-436,424,516,-572,5856,56,46,806,1157,1291,802,1201,1377,1346,2078,1855
158208,37116,-6084,25276,25276,1110,2065,331,-384,444,211,-1012,5426,57,33,809,1157,1291,802,1201,1377,1346,2078,1855
159209,37364,-5880,25744,25744,1091,2422,398,-451,487,109,-615,5498,54,33,809,1144,1303,800,1194,1367,1315,2052,1839
160210,37648,-5680,26212,26212,870,2453,417,-412,566,770,-343,5974,51,35,803,1144,1303,800,1194,1367,1315,2052,1839
161211,37884,-5488,26680,26680,1176,2510,439,-307,645,1262,-689,6041,58,19,805,1144,1303,800,1194,1367,1315,2052,1839
162212,38148,-5292,27148,27148,1006,2491,488,-295,683,921,71,5957,52,6,801,1144,1303,800,1194,1367,1315,2052,1839
163213,38408,-5100,27616,27616,1036,2523,514,-308,708,974,140,5970,59,1,799,1144,1303,800,1194,1367,1315,2052,1839
164214,38656,-4912,28084,28084,1116,2555,535,-392,777,840,106,5930,48,-1,801,1144,1303,800,1194,1367,1315,2052,1839
165215,38896,-4752,28552,28552,1172,2738,517,-346,879,766,566,5969,48,11,799,1199,1359,808,1212,1323,1279,2011,1819
166216,39156,-4608,29020,29020,1052,2845,546,-334,925,709,44,5130,51,5,795,1199,1359,808,1212,1323,1279,2011,1819
167217,39420,-4444,29488,29488,1032,2728,602,-331,892,196,678,4953,55,-13,793,1199,1359,808,1212,1323,1279,2011,1819
168218,39664,-4268,29956,29956,1162,2660,663,-399,865,272,524,5015,62,-23,795,1199,1359,808,1212,1323,1279,2011,1819
169219,39920,-4108,30424,30424,1093,2768,741,-495,878,91,300,5032,49,-7,796,1199,1359,808,1212,1323,1279,2011,1819
170220,40180,-3960,30892,30892,1073,2850,814,-752,943,-225,14,4773,44,-22,795,1198,1355,806,1199,1302,1259,1970,1794
171221,40468,-3792,31360,31360,902,2733,886,-861,970,-39,221,5324,44,-21,794,1198,1355,806,1199,1302,1259,1970,1794
172222,40716,-3628,31828,31828,1158,2765,1020,-976,1003,-45,-152,4893,60,-37,797,1198,1355,806,1199,1302,1259,1970,1794
173223,40984,-3488,32296,32296,1037,2923,1164,-1061,1041,302,477,5585,62,-16,795,1198,1355,806,1199,1302,1259,1970,1794
174224,41212,-3332,32768,32768,1293,2831,1255,-1107,1061,1119,-93,5399,56,-24,792,1198,1355,806,1199,1302,1259,1970,1794
175225,41448,-3180,33236,33236,1249,2864,1366,-1187,1103,818,-511,4668,43,-46,790,1198,1355,806,1199,1302,1259,1970,1794
176226,41724,-3004,33704,33704,1004,2721,1455,-1258,1106,846,794,5065,44,-30,790,1161,1315,795,1163,1300,1249,1940,1794
177227,41972,-2864,34172,34172,1184,2954,1495,-1218,1075,1279,382,5216,42,-38,795,1161,1315,795,1163,1300,1249,1940,1794
178228,42208,-2712,34640,34640,1265,2886,1501,-1184,1084,1014,967,5005,48,-14,786,1161,1315,795,1163,1300,1249,1940,1794
179230,42460,-2572,35108,35108,1170,2969,1557,-1220,1067,1375,1679,4938,41,-48,790,1161,1315,795,1163,1300,1249,1940,1794
180230,42688,-2404,35576,35576,1326,2802,1551,-1245,1042,1282,974,5019,45,-33,783,1161,1315,795,1163,1300,1249,1940,1794
181231,42920,-2244,36044,36044,1307,2859,1585,-1361,1010,1507,2184,4761,56,-57,791,1145,1305,789,1151,1301,1250,1946,1791
182232,43144,-2076,36512,36512,1363,2817,1535,-1218,1024,610,1048,5315,41,-31,791,1145,1305,789,1151,1301,1250,1946,1791
183233,43368,-1884,36980,36980,1369,2673,1507,-898,924,124,1752,3877,45,-29,791,1145,1305,789,1151,1301,1250,1946,1791
184234,43592,-1676,37448,37448,1375,2580,1461,-692,849,-402,1406,3485,51,-20,793,1145,1305,789,1151,1301,1250,1946,1791
185235,43812,-1488,37916,37916,1406,2712,1389,-812,795,720,1516,3426,42,5,795,1145,1305,789,1151,1301,1250,1946,1791
186236,44064,-1280,38384,38384,1211,2593,1345,-1066,824,245,309,3438,47,-1,792,1145,1305,789,1151,1301,1250,1946,1791
187237,44284,-1088,38852,38852,1417,2700,1356,-1168,835,-616,-306,3862,42,-11,797,1128,1276,782,1142,1332,1288,1983,1823
188238,44508,-900,39320,39320,1398,2731,1428,-1154,794,-1181,1012,5363,40,-6,792,1128,1276,782,1142,1332,1288,1983,1823
189239,44740,-640,39788,39788,1354,2287,1485,-1093,791,-1379,-21,4883,50,5,791,1128,1276,782,1142,1332,1288,1983,1823
190240,44936,-412,40256,40256,1585,2492,1566,-1288,785,-634,382,4162,45,-3,802,1128,1276,782,1142,1332,1288,1983,1823
191241,45180,-196,40724,40724,1291,2574,1607,-1426,833,-761,716,4670,32,26,795,1128,1276,782,1142,1332,1288,1983,1823
192242,45364,28,41192,41192,1673,2529,1569,-1185,837,-509,1029,4938,46,11,798,1074,1206,760,1111,1343,1303,1979,1787
193243,45560,276,41660,41660,1604,2385,1472,-885,751,709,-286,3720,47,8,793,1074,1206,760,1111,1343,1303,1979,1787
194244,45748,504,42128,42128,1661,2516,1437,-907,782,263,1371,3265,36,18,795,1074,1206,760,1111,1343,1303,1979,1787
195245,45940,740,42596,42596,1643,2471,1259,-853,747,1279,1452,4747,33,11,792,1074,1206,760,1111,1343,1303,1979,1787
196246,46156,972,43064,43064,1499,2502,1028,-638,634,397,1592,4948,33,16,793,1074,1206,760,1111,1343,1303,1979,1787
197247,46344,1224,43532,43532,1681,2382,938,-580,473,1412,2031,3090,37,14,794,1074,1206,760,1111,1343,1303,1979,1787
198248,46536,1472,44000,44000,1663,2413,910,-389,489,309,432,4419,39,3,795,1092,1230,760,1120,1340,1292,1976,1808
199249,46692,1708,44468,44468,1895,2493,775,-91,504,-340,1578,4374,32,26,794,1092,1230,760,1120,1340,1292,1976,1808
200250,46892,1988,44936,44936,1627,2223,585,94,466,-140,475,3561,37,14,792,1092,1230,760,1120,1340,1292,1976,1808
201251,47088,2268,45404,45404,1658,2228,463,46,461,-849,793,2744,41,27,798,1092,1230,760,1120,1340,1292,1976,1808
202252,47276,2588,45872,45872,1715,1981,354,63,441,-1301,1326,3289,42,28,799,1092,1230,760,1120,1340,1292,1976,1808
203253,47424,2864,46340,46340,1973,2261,267,77,359,370,275,2178,41,37,802,1091,1221,773,1122,1384,1342,2035,1855
204254,47588,3136,46808,46808,1880,2291,280,-36,390,-239,485,2280,37,29,794,1091,1221,773,1122,1384,1342,2035,1855
205255,47760,3472,47276,47276,1838,1894,288,-161,406,-1153,923,3364,20,28,795,1091,1221,773,1122,1384,1342,2035,1855
206256,47904,3860,47744,47744,2021,1571,269,-38,305,-514,-444,3863,21,41,799,1091,1221,773,1122,1384,1342,2035,1855
207257,48084,4188,48212,48212,1803,1949,311,125,359,-1329,-327,3221,35,58,803,1091,1221,773,1122,1384,1342,2035,1855
208258,48244,4532,48680,48680,1935,1852,409,81,524,-1263,214,2813,18,51,801,1091,1221,773,1122,1384,1342,2035,1855
209259,48388,4896,49152,49152,2043,1730,372,281,500,113,93,4471,24,54,800,1035,1161,747,1083,1355,1299,1945,1773
210260,48528,5284,49620,49620,2076,1582,264,271,496,-429,705,2634,28,58,799,1035,1161,747,1083,1355,1299,1945,1773
211261,48700,5708,50088,50088,1883,1358,128,321,484,304,905,3490,15,63,800,1035,1161,747,1083,1355,1299,1945,1773
212262,48848,6100,50556,50556,2041,1560,-11,359,504,896,1428,2488,15,67,808,1035,1161,747,1083,1355,1299,1945,1773
213263,48988,6512,51024,51024,2099,1436,-171,582,443,1327,1099,2918,29,62,804,1035,1161,747,1083,1355,1299,1945,1773
214264,49120,6872,51492,51492,2157,1764,-260,738,406,-98,2168,2446,20,62,804,1049,1176,744,1100,1273,1246,1869,1696
215265,49276,7340,51960,51960,2015,1089,-356,793,294,713,909,2071,13,62,799,1049,1176,744,1100,1273,1246,1869,1696
216266,49428,7768,52428,52428,2048,1340,-405,891,201,1172,1225,2442,29,61,808,1049,1176,744,1100,1273,1246,1869,1696
217267,49596,8196,52896,52896,1955,1341,-348,789,220,131,1372,1713,21,64,805,1049,1176,744,1100,1273,1246,1869,1696
218268,49748,8700,53364,53364,2063,865,-297,837,153,473,706,2755,16,70,807,1049,1176,744,1100,1273,1246,1869,1696
219269,49880,9180,53832,53832,2196,1015,-284,1060,40,637,276,2528,21,78,810,1049,1176,744,1100,1273,1246,1869,1696
220270,50032,9756,54300,54300,2079,412,-218,1067,73,299,475,2163,12,70,804,1068,1184,756,1126,1276,1256,1868,1688
221271,50148,10272,54768,54768,2312,786,-154,1070,94,1516,-659,2263,4,70,812,1068,1184,756,1126,1276,1256,1868,1688
223273,50392,11252,55704,55704,2304,1060,73,1028,72,78,-575,950,13,80,805,1068,1184,756,1126,1276,1256,1868,1688
224274,50508,11852,56172,56172,2338,257,193,1103,147,690,-768,2000,7,88,804,1068,1184,756,1126,1276,1256,1868,1688
225275,50636,12336,56640,56640,2271,981,216,1127,152,561,-391,1363,1,74,809,1084,1196,762,1150,1254,1235,1831,1638
226276,50764,12852,57108,57108,2279,780,187,1292,117,691,176,1887,1,76,805,1084,1196,762,1150,1254,1235,1831,1638
227277,50904,13388,57576,57576,2212,653,170,1489,61,1333,418,1831,18,78,807,1084,1196,762,1150,1254,1235,1831,1638
228278,51020,13892,58044,58044,2371,852,192,1673,-29,1091,411,1938,9,95,810,1084,1196,762,1150,1254,1235,1831,1638
229279,51116,14492,58512,58512,2505,249,218,1862,-158,964,765,2145,11,93,805,1084,1196,762,1150,1254,1235,1831,1638
230280,51200,15000,58980,58980,2589,823,252,1962,-217,437,283,2438,4,95,806,1084,1196,762,1150,1254,1235,1831,1638
231281,51300,15508,59448,59448,2498,822,304,2040,-267,657,498,2215,-1,84,801,1087,1199,746,1150,1210,1202,1776,1600
232282,51416,16056,59916,59916,2407,570,381,2120,-319,584,1004,2739,-8,101,804,1087,1199,746,1150,1210,1202,1776,1600
233283,51528,16608,60384,60384,2441,543,470,2220,-433,959,446,2307,0,100,807,1087,1199,746,1150,1210,1202,1776,1600
234284,51636,17128,60852,60852,2475,742,557,2370,-503,574,409,2498,9,94,806,1087,1199,746,1150,1210,1202,1776,1600
235285,51760,17628,61320,61320,2383,866,688,2435,-539,914,80,2388,-3,87,803,1087,1199,746,1150,1210,1202,1776,1600
236286,51864,18128,61788,61788,2517,865,744,2572,-622,1038,87,2601,5,91,804,1076,1181,747,1148,1230,1231,1830,1636
237287,51984,18676,62256,62256,2425,563,855,2730,-659,1056,-269,2494,13,105,801,1076,1181,747,1148,1230,1231,1830,1636
238288,52120,19232,62724,62724,2333,511,971,2952,-688,1645,-304,2497,5,99,805,1076,1181,747,1148,1230,1231,1830,1636
239289,52240,19756,63192,63192,2442,710,1067,3204,-746,1504,-354,2216,0,95,808,1076,1181,747,1148,1230,1231,1830,1636
240290,52392,20208,63660,63660,2250,1160,1140,3405,-787,1453,-498,2323,3,108,803,1076,1181,747,1148,1230,1231,1830,1636
241291,52524,20732,64128,64128,2383,709,1227,3498,-812,1449,-443,2163,0,94,803,1076,1181,747,1148,1230,1231,1830,1636
242292,52664,21308,64596,64596,2341,381,1208,3642,-897,1270,-380,2422,19,90,805,1096,1202,765,1173,1249,1248,1851,1650
243293,52800,21764,65064,65064,2374,1132,1263,3649,-916,715,-867,2407,16,88,808,1096,1202,765,1173,1249,1248,1851,1650
244294,52936,22296,65536,65536,2382,655,1321,3627,-959,700,438,2944,19,102,803,1096,1202,765,1173,1249,1248,1851,1650
245295,53064,22772,66004,66004,2440,1005,1339,3497,-1062,661,-1202,3133,16,99,807,1096,1202,765,1173,1249,1248,1851,1650
246296,53204,23356,66472,66472,2373,327,1269,3443,-1141,1100,245,3577,1,102,803,1096,1202,765,1173,1249,1248,1851,1650
247297,53340,23840,66940,66940,2407,952,1225,3237,-1140,93,-273,3201,12,94,809,1106,1216,769,1178,1279,1258,1901,1727
248298,53492,24332,67408,67408,2314,901,1205,2966,-1239,-80,-689,3139,16,97,805,1106,1216,769,1178,1279,1258,1901,1727
249299,53656,24780,67876,67876,2247,1177,1218,2840,-1451,1263,-319,4928,6,102,807,1106,1216,769,1178,1279,1258,1901,1727
250300,53792,25280,68344,68344,2430,851,1226,2994,-1624,2087,-741,3938,10,96,804,1106,1216,769,1178,1279,1258,1901,1727
251301,53936,25700,68812,68812,2388,1352,1278,2957,-1725,1811,-399,3612,24,89,804,1106,1216,769,1178,1279,1258,1901,1727
252302,54092,26128,69280,69280,2320,1303,1350,2962,-1826,2033,-500,4345,12,90,798,1106,1216,769,1178,1279,1258,1901,1727
253303,54236,26548,69748,69748,2403,1354,1433,2846,-1915,2637,134,3603,6,84,801,1088,1223,759,1124,1344,1304,2031,1868
254304,54368,26932,70216,70216,2486,1581,1424,2826,-2001,2754,221,4714,18,84,798,1088,1223,759,1124,1344,1304,2031,1868
255305,54480,27388,70684,70684,2620,1132,1361,2942,-2052,2061,-432,5425,-1,86,794,1088,1223,759,1124,1344,1304,2031,1868
256306,54600,27796,71152,71152,2579,1433,1278,3113,-1988,1161,-259,5324,-2,75,797,1088,1223,759,1124,1344,1304,2031,1868
257307,54736,28200,71620,71620,2487,1460,1208,3260,-1919,1290,-850,5740,0,70,793,1088,1223,759,1124,1344,1304,2031,1868
258308,54880,28556,72088,72088,2445,1762,1259,2910,-1897,924,429,4460,5,63,794,1093,1258,765,1126,1351,1318,2079,1909
259309,55044,28924,72556,72556,2327,1690,1213,2448,-1885,64,242,4707,12,62,793,1093,1258,765,1126,1351,1318,2079,1909
260310,55172,29292,73024,73024,2560,1692,1157,1966,-1844,-65,780,4795,9,64,795,1093,1258,765,1126,1351,1318,2079,1909
261311,55312,29644,73492,73492,2493,1795,1038,1563,-1854,1130,219,5304,6,72,793,1093,1258,765,1126,1351,1318,2079,1909
262312,55460,30016,73960,73960,2451,1672,907,1277,-1890,264,-394,5222,-6,68,791,1093,1258,765,1126,1351,1318,2079,1909
263313,55624,30380,74428,74428,2359,1725,843,1040,-2035,-152,917,5242,6,58,795,1093,1258,765,1126,1351,1318,2079,1909
264314,55768,30752,74896,74896,2491,1677,928,740,-2174,-116,-544,5191,13,72,794,1132,1305,788,1161,1373,1321,2087,1919
265315,55932,31100,75364,75364,2374,1830,1064,461,-2202,914,-679,5632,6,57,792,1132,1305,788,1161,1373,1321,2087,1919
266316,56068,31472,75832,75832,2557,1683,1167,196,-2206,1326,144,5934,3,73,793,1132,1305,788,1161,1373,1321,2087,1919
267317,56232,31824,76300,76300,2389,1810,1191,103,-2251,1541,-800,5926,10,72,792,1132,1305,788,1161,1373,1321,2087,1919
268318,56416,32196,76768,76768,2271,1688,1244,-10,-2283,1662,96,5568,2,63,794,1132,1305,788,1161,1373,1321,2087,1919
269319,56584,32532,77236,77236,2379,1916,1254,24,-2251,2021,58,6735,24,68,797,1161,1335,799,1162,1350,1271,2015,1865
270320,56764,32892,77704,77704,2311,1769,1232,128,-2240,2277,320,6764,26,68,792,1161,1335,799,1162,1350,1271,2015,1865
271321,56916,33264,78172,78172,2493,1696,1238,200,-2188,2219,698,7025,24,66,793,1161,1335,799,1162,1350,1271,2015,1865
272322,57068,33608,78640,78640,2501,1874,1237,172,-2075,1520,337,6617,11,72,794,1161,1335,799,1162,1350,1271,2015,1865
273323,57244,33984,79108,79108,2358,1676,1149,173,-1950,12,601,7301,0,72,792,1161,1335,799,1162,1350,1271,2015,1865
274324,57456,34332,79576,79576,2140,1854,1063,-30,-1786,-1487,1802,5819,13,62,795,1161,1335,799,1162,1350,1271,2015,1865
275325,57700,34672,80044,80044,1945,1907,965,-525,-1703,-189,297,5235,24,62,798,1156,1320,784,1170,1316,1275,2009,1804
276326,57936,34988,80512,80512,2001,2061,843,-1082,-1624,-1053,1650,5233,29,54,801,1156,1320,784,1170,1316,1275,2009,1804
277327,58192,35380,80980,80980,1881,1588,701,-1374,-1563,448,528,5818,47,64,798,1156,1320,784,1170,1316,1275,2009,1804
278328,58460,35720,81448,81448,1811,1916,670,-1541,-1451,468,100,5514,53,63,806,1156,1320,784,1170,1316,1275,2009,1804
279329,58748,36048,81920,81920,1690,1994,776,-1604,-1396,-195,706,6117,50,59,801,1156,1320,784,1170,1316,1275,2009,1804
280330,59036,36400,82388,82388,1695,1847,893,-1751,-1311,-891,282,6043,47,56,803,1162,1311,793,1170,1439,1378,2184,1971
281331,59320,36776,82856,82856,1724,1700,996,-1872,-1174,-189,386,6339,63,62,806,1162,1311,793,1170,1439,1378,2184,1971
282332,59600,37108,83324,83324,1754,1978,1141,-1948,-1012,360,22,6074,49,59,807,1162,1311,793,1170,1439,1378,2184,1971
283333,59932,37444,83792,83792,1432,1956,1320,-1906,-905,589,-578,6040,61,56,803,1162,1311,793,1170,1439,1378,2184,1971
284334,60260,37788,84260,84260,1460,1909,1476,-1655,-752,212,1550,5848,50,64,807,1162,1311,793,1170,1439,1378,2184,1971
285335,60556,38152,84728,84728,1665,1787,1586,-1285,-614,1095,-508,5712,53,57,807,1162,1311,793,1170,1439,1378,2184,1971
286336,60868,38540,85196,85196,1568,1639,1592,-1187,-524,222,1196,4272,51,51,806,1130,1287,795,1157,1411,1333,2059,1845
287337,61200,38892,85664,85664,1447,1866,1480,-1140,-407,-228,1225,5284,67,59,809,1130,1287,795,1157,1411,1333,2059,1845
288338,61552,39232,86132,86132,1325,1945,1292,-1241,-292,65,1225,3363,64,55,808,1130,1287,795,1157,1411,1333,2059,1845
289339,61936,39588,86600,86600,1127,1847,1120,-1700,-171,553,1498,2444,74,53,810,1130,1287,795,1157,1411,1333,2059,1845
290340,62312,39992,87068,87068,1179,1549,868,-1970,-23,73,571,3833,66,53,814,1130,1287,795,1157,1411,1333,2059,1845
291341,62692,40352,87536,87536,1156,1826,617,-2110,91,-1422,1664,3204,77,66,814,1167,1303,791,1171,1271,1224,1865,1715
292342,63088,40720,88004,88004,1058,1779,506,-2188,199,-1593,1282,2980,75,56,812,1167,1303,791,1171,1271,1224,1865,1715
293343,63476,41080,88472,88472,1110,1832,498,-2211,261,-527,1418,2920,84,52,815,1167,1303,791,1171,1271,1224,1865,1715
294344,63904,41472,88940,88940,861,1633,574,-2138,337,-255,413,3396,81,60,815,1167,1303,791,1171,1271,1224,1865,1715
295345,64288,41952,89408,89408,1138,1083,666,-1873,415,-41,1751,3634,70,70,819,1167,1303,791,1171,1271,1224,1865,1715
296346,64684,42396,89876,89876,1065,1309,788,-1364,471,1595,-171,2666,70,78,823,1167,1303,791,1171,1271,1224,1865,1715
297347,65100,42844,90344,90344,941,1284,1014,-1032,401,2637,333,2410,72,77,821,1083,1209,743,1059,1314,1245,1887,1775
298348,65496,43344,90812,90812,1068,958,1151,-689,320,2550,1410,2263,83,75,823,1083,1209,743,1059,1314,1245,1887,1775
299349,65892,43888,91280,91280,1069,682,1135,-440,332,3165,-1301,1216,82,84,826,1083,1209,743,1059,1314,1245,1887,1775
300350,66300,44420,91748,91748,996,755,1122,-279,258,2179,-592,1209,77,87,827,1083,1209,743,1059,1314,1245,1887,1775
301351,66708,45004,92216,92216,997,427,1068,-376,107,889,-891,1408,76,86,828,1083,1209,743,1059,1314,1245,1887,1775
302352,67116,45576,92684,92684,999,500,998,-401,44,528,-407,1247,83,84,830,1013,1138,720,1042,1278,1229,1831,1675
303353,67548,46136,93152,93152,850,572,886,-498,103,69,-493,914,80,91,830,1013,1138,720,1042,1278,1229,1831,1675
304354,67956,46668,93620,93620,1001,746,791,-503,240,-445,1495,2019,83,93,832,1013,1138,720,1042,1278,1229,1831,1675
305355,68364,47192,94088,94088,1003,794,711,-484,497,-66,1771,1141,84,87,829,1013,1138,720,1042,1278,1229,1831,1675
306359,68764,47684,94556,94556,1054,994,560,-360,661,409,1609,2017,92,95,828,1013,1138,720,1042,1278,1229,1831,1675
307357,69188,48232,95024,95024,905,642,408,-459,763,-3117,2110,575,78,104,827,1013,1138,720,1042,1278,1229,1831,1675
308358,69596,48916,95492,95492,1007,-213,310,-1028,832,-4798,2068,722,80,106,829,1014,1118,716,1096,1245,1238,1834,1640
309359,70040,49500,95960,95960,782,409,160,-1473,994,-4339,738,1568,94,113,832,1014,1118,716,1096,1245,1238,1834,1640
310360,70512,49956,96428,96428,607,1209,60,-1454,1157,-2036,-332,933,100,99,833,1014,1118,716,1096,1245,1238,1834,1640
311361,70936,50420,96896,96896,908,1159,-64,-880,1180,219,-90,1389,90,98,829,1014,1118,716,1096,1245,1238,1834,1640
312362,71348,51004,97364,97364,985,406,-17,-561,1091,1485,90,352,90,112,827,1014,1118,716,1096,1245,1238,1834,1640
313363,71796,51556,97832,97832,760,604,105,-535,1040,884,-610,754,107,101,832,1046,1145,745,1117,1319,1304,1912,1710
314364,72228,52156,98304,98304,861,301,246,-551,995,1158,-948,568,95,97,832,1046,1145,745,1117,1319,1304,1912,1710
315365,72712,52740,98772,98772,536,398,239,-196,821,2804,-457,1552,91,125,833,1046,1145,745,1117,1319,1304,1912,1710
316366,73176,53252,99240,99240,661,847,290,124,675,1654,-300,551,102,113,835,1046,1145,745,1117,1319,1304,1912,1710
317367,73584,53848,99708,99708,1012,319,369,292,519,2163,533,816,92,105,831,1046,1145,745,1117,1319,1304,1912,1710
318368,74028,54372,100176,100176,788,768,369,615,487,2047,-912,1715,102,113,833,1046,1145,745,1117,1319,1304,1912,1710
319369,74472,54916,100644,100644,788,641,386,816,487,210,46,668,99,103,831,1071,1167,754,1120,1283,1252,1817,1629
320370,74924,55448,101112,101112,739,714,385,1125,361,97,459,1922,97,115,832,1071,1167,754,1120,1283,1252,1817,1629
321371,75364,56028,101580,101580,815,412,328,1264,318,-35,-38,1449,92,111,832,1071,1167,754,1120,1283,1252,1817,1629
322372,75812,56576,102048,102048,765,610,215,1374,347,99,1865,2021,107,109,834,1071,1167,754,1120,1283,1252,1817,1629
323373,76260,57060,102516,102516,766,1009,86,1213,449,-179,1108,1222,102,113,833,1071,1167,754,1120,1283,1252,1817,1629
324374,76712,57592,102984,102984,741,708,-99,1318,565,-537,1329,2577,97,113,829,1068,1160,734,1118,1195,1193,1758,1595
325375,77160,58124,103452,103452,766,706,-172,1469,673,-616,1697,560,89,100,831,1068,1160,734,1118,1195,1193,1758,1595
326376,77568,58628,103920,103920,1018,880,-196,1676,812,-409,307,2052,94,103,832,1068,1160,734,1118,1195,1193,1758,1595
327377,77976,59148,104388,104388,1019,779,-205,1980,938,-631,953,1544,87,115,828,1068,1160,734,1118,1195,1193,1758,1595
328378,78424,59644,104856,104856,770,928,-196,2374,1018,-468,665,1927,81,109,828,1068,1160,734,1118,1195,1193,1758,1595
329379,78852,60104,105324,105324,896,1154,-125,2692,1064,-298,-869,977,80,109,830,1068,1160,734,1118,1195,1193,1758,1595
330380,79296,60612,105792,105792,796,853,-24,3100,978,-46,-1088,695,78,109,826,1028,1128,724,1098,1277,1271,1880,1676
331381,79700,61032,106260,106260,1048,1404,99,3112,956,-1826,614,939,85,99,830,1028,1128,724,1098,1277,1271,1880,1676
332382,80128,61448,106728,106728,899,1430,106,2927,885,-1363,-343,873,83,98,823,1028,1128,724,1098,1277,1271,1880,1676
333383,80544,61852,107196,107196,975,1507,31,2898,776,-1876,761,2208,73,87,823,1028,1128,724,1098,1277,1271,1880,1676
334384,80932,62284,107664,107664,1152,1332,-46,2988,590,-1152,290,1415,82,98,821,1028,1128,724,1098,1277,1271,1880,1676
335385,81352,62648,108132,108132,953,1760,-114,2926,473,-792,543,1252,70,92,821,1038,1125,744,1138,1337,1337,1933,1688
336386,81716,63004,108600,108600,1306,1813,-266,2915,381,-156,-370,2946,74,77,818,1038,1125,744,1138,1337,1337,1933,1688
337387,82128,63368,109068,109068,1007,1765,-474,3030,182,-359,904,2781,90,71,815,1038,1125,744,1138,1337,1337,1933,1688
338388,82572,63716,109536,109536,808,1868,-613,3076,-31,-400,1163,3607,86,82,818,1038,1125,744,1138,1337,1337,1933,1688
339389,82952,64064,110004,110004,1210,1871,-650,3086,-196,357,142,3701,78,75,817,1038,1125,744,1138,1337,1337,1933,1688
340390,83368,64368,110472,110472,986,2150,-753,3134,-309,495,399,4741,84,60,813,1066,1140,744,1138,1337,1337,1933,1688
341391,83756,64656,110940,110940,1163,2254,-871,3022,-375,287,2083,4745,67,57,811,1066,1140,757,1153,1354,1373,1984,1769
342392,84132,64972,111408,111408,1240,2083,-1080,3020,-442,34,518,4423,75,45,807,1066,1140,757,1153,1354,1373,1984,1769
343393,84560,65292,111876,111876,916,2062,-1263,3034,-459,-1113,1037,3828,77,49,810,1066,1140,757,1153,1354,1373,1984,1769
344394,84984,65548,112344,112344,942,2467,-1455,3014,-446,-835,1306,3392,76,56,812,1066,1140,757,1153,1354,1373,1984,1769
345395,85432,65808,112812,112812,793,2447,-1631,3094,-433,-459,626,2966,78,37,802,1066,1140,757,1153,1354,1373,1984,1769
346396,85800,66064,113280,113280,1295,2477,-1825,2965,-435,-1999,382,3385,77,22,806,1078,1179,771,1157,1423,1423,2131,1938
347397,86236,66320,113748,113748,871,2482,-1989,2665,-503,-2909,1639,2950,94,22,801,1078,1179,771,1157,1423,1423,2131,1938
348398,86692,66532,114216,114216,746,2764,-2129,2368,-567,-3150,1177,4796,84,21,803,1078,1179,771,1157,1423,1423,2131,1938
349399,87136,66716,114688,114688,822,2946,-2352,2135,-637,-2746,-136,4512,97,14,800,1078,1179,771,1157,1423,1423,2131,1938
350400,87604,66880,115156,115156,672,3078,-2569,2108,-759,-2175,967,5481,101,-11,796,1078,1179,771,1157,1423,1423,2131,1938
351401,88140,67028,115624,115624,245,3186,-2733,1990,-906,-2125,1093,5098,106,-52,794,1055,1191,763,1103,1530,1477,2277,2082
352402,88576,67192,116092,116092,871,3093,-2831,1925,-1141,-952,1870,5645,104,-59,790,1055,1191,763,1103,1530,1477,2277,2082
353403,89076,67348,116560,116560,470,3151,-2858,1786,-1265,-1556,1519,5197,100,-66,790,1055,1191,763,1103,1530,1477,2277,2082
354404,89560,67480,117028,117028,570,3309,-2819,1218,-1317,-1852,1321,5795,101,-66,791,1055,1191,763,1103,1530,1477,2277,2082
355405,90028,67616,117496,117496,670,3292,-2659,311,-1374,-2472,1083,5421,99,-83,786,1055,1191,763,1103,1530,1477,2277,2082
356407,90572,67732,117964,117964,193,3426,-2535,-720,-1490,-2876,-66,5346,115,-134,786,1055,1191,763,1103,1530,1477,2277,2082
357407,91060,67856,118432,118432,543,3384,-2412,-1385,-1633,-2140,568,8364,111,-133,782,1068,1231,778,1118,1477,1403,2157,1988
358408,91568,67976,118900,118900,417,3418,-2417,-1791,-1735,-1549,1062,6366,110,-210,778,1068,1231,778,1118,1477,1403,2157,1988
359409,92084,68112,119368,119368,366,3326,-2485,-2031,-1761,-1242,1534,7043,112,-179,784,1068,1231,778,1118,1477,1403,2157,1988
360410,92612,68240,119836,119836,289,3384,-2567,-2421,-1748,-878,2718,3890,116,-214,783,1068,1231,778,1118,1477,1403,2157,1988
361411,93160,68352,120304,120304,162,3493,-2756,-2677,-1753,554,3170,5061,100,-177,781,1068,1231,778,1118,1477,1403,2157,1988
362412,93632,68440,120772,120772,637,3652,-2989,-2866,-1877,1849,4565,4708,92,-246,787,1236,1456,839,1235,1274,1226,1943,1873
363413,94100,68516,121240,121240,662,3737,-3222,-3253,-1847,1233,2239,2905,87,-295,763,1236,1456,839,1235,1274,1226,1943,1873
364414,94648,68592,121708,121708,160,3746,-3366,-3619,-1697,574,1142,3813,107,-137,761,1236,1456,839,1235,1274,1226,1943,1873
365415,95188,68676,122176,122176,208,3706,-3373,-3856,-1544,30,1172,4882,108,68,768,1236,1456,839,1235,1274,1226,1943,1873
366416,95740,68788,122644,122644,131,3539,-3201,-3984,-1466,-248,1191,4184,115,69,752,1236,1456,839,1235,1274,1226,1943,1873
367417,96276,68940,123112,123112,230,3297,-2891,-3901,-1487,-648,956,6671,111,-26,785,1236,1456,839,1235,1274,1226,1943,1873
368418,96796,69088,123580,123580,328,3330,-2542,-4145,-1464,-1797,976,4676,102,-285,786,1275,1474,823,1187,1280,1224,1928,1832
369419,97312,69236,124048,124048,352,3338,-2213,-4559,-1292,-1731,1466,5427,114,-155,781,1275,1474,823,1187,1280,1224,1928,1832
370420,97776,69344,124516,124516,677,3596,-1906,-5093,-1226,-2071,1315,5580,111,-161,780,1275,1474,823,1187,1280,1224,1928,1832
371421,98364,69412,124984,124984,-101,3800,-1622,-5708,-1296,-3686,1392,4554,108,-173,767,1275,1474,823,1187,1280,1224,1928,1832
372422,98856,69560,125452,125452,499,3364,-1307,-6204,-1411,-4124,423,4758,107,-217,768,1275,1474,823,1187,1280,1224,1928,1832
373423,99380,69760,125920,125920,297,3046,-962,-6934,-1428,-2364,18,984,111,245,781,1149,1302,783,1151,1247,1209,1814,1627
374424,99820,69988,126388,126388,823,2876,-778,-7741,-1176,-3634,2983,5124,104,-162,792,1149,1302,783,1151,1247,1209,1814,1627
375425,100340,70252,126856,126856,322,2656,-892,-8028,-1075,-2744,1844,5741,99,-46,794,1149,1302,783,1151,1247,1209,1814,1627
376426,100852,70532,127324,127324,371,2561,-955,-8441,-1138,-1707,3774,4346,106,-27,799,1149,1302,783,1151,1247,1209,1814,1627
377427,101400,70804,127792,127792,144,2616,-796,-9069,-1054,-1756,1425,2265,105,2,804,1149,1302,783,1151,1247,1209,1814,1627
378428,101908,71144,128260,128260,393,2194,-720,-9292,-937,-1374,3127,4313,103,11,805,1149,1302,783,1151,1247,1209,1814,1627
379429,102364,71516,128728,128728,718,1996,-687,-9251,-820,-48,2315,3754,90,14,812,1162,1281,781,1181,1179,1178,1760,1621
380430,102796,71896,129196,129196,869,1948,-691,-9008,-641,462,737,2955,96,28,812,1162,1281,781,1181,1179,1178,1760,1621
381431,103288,72312,129664,129664,493,1725,-548,-8786,-442,-369,1872,1611,103,40,812,1162,1281,781,1181,1179,1178,1760,1621
382432,103776,72760,130132,130132,518,1525,-445,-8432,-107,-2286,103,1165,87,51,818,1162,1281,781,1181,1179,1178,1760,1621
383433,104280,73188,130600,130600,417,1651,-518,-8382,-45,-603,882,-1162,93,58,821,1162,1281,781,1181,1179,1178,1760,1621
384434,104780,73628,131072,131072,441,1577,-526,-8874,-306,3626,1548,-2005,115,65,822,1173,1279,791,1182,1278,1280,1881,1701
385435,105280,74112,131540,131540,441,1302,-664,-9230,-307,2663,-1073,-300,102,76,821,1173,1279,791,1182,1278,1280,1881,1701
386436,105784,74588,132008,132008,415,1351,-807,-9102,-302,1539,-232,71,96,69,826,1173,1279,791,1182,1278,1280,1881,1701
387437,106268,75156,132476,132476,539,774,-753,-8771,-306,2243,-1467,71,94,71,826,1173,1279,791,1182,1278,1280,1881,1701
388438,106760,75784,132944,132944,489,395,-750,-8343,-62,4752,-4105,-513,115,87,831,1173,1279,791,1182,1278,1280,1881,1701
389439,107224,76280,133412,133412,664,1219,-926,-7335,231,5190,-1487,7748,110,95,835,1173,1279,791,1182,1278,1280,1881,1701
390440,107716,76832,133880,133880,488,867,-1494,-6388,319,5605,-228,6848,87,95,827,1021,1096,712,1026,1333,1293,1870,1688
391441,108180,77420,134348,134348,663,639,-2217,-6479,493,1294,-169,4334,81,82,831,1021,1096,712,1026,1333,1293,1870,1688
392442,108616,77988,134816,134816,839,762,-2481,-6489,509,-52,-353,7718,85,91,832,1021,1096,712,1026,1333,1293,1870,1688
393443,109016,78572,135284,135284,1066,659,-2563,-6507,474,-2032,720,6541,81,103,828,1021,1096,712,1026,1333,1293,1870,1688
394444,109360,79180,135752,135752,1419,506,-2591,-6142,287,1647,-1676,7878,77,101,828,1021,1096,712,1026,1333,1293,1870,1688
395445,109724,79808,136220,136220,1296,377,-2770,-5026,789,-3282,-3497,9847,71,92,825,864,941,652,977,1552,1543,2240,1897
396446,110076,80448,136688,136688,1374,298,-2725,-4570,1161,-3306,-3090,4547,62,93,827,864,941,652,977,1552,1543,2240,1897
397447,110460,80992,137156,137156,1176,896,-2619,-4708,1117,-2687,-1777,6045,63,96,827,864,941,652,977,1552,1543,2240,1897
398448,110768,81604,137624,137624,1655,467,-2772,-4813,1062,-1663,-2209,5003,71,101,825,864,941,652,977,1552,1543,2240,1897
399449,111052,82180,138092,138092,1810,690,-3052,-4497,1170,-1251,-2580,5042,70,101,821,864,941,652,977,1552,1543,2240,1897
400450,111296,82780,138560,138560,2065,536,-3328,-3573,1273,1216,-1720,6022,46,100,817,864,941,652,977,1552,1543,2240,1897
401451,111540,83332,139028,139028,2071,834,-3461,-2737,1488,2090,-2941,5312,52,101,814,998,1075,781,1299,1728,1795,2571,1958
402452,111752,83868,139496,139496,2277,933,-3637,-1870,1646,2002,-2688,6371,36,109,811,998,1075,781,1299,1728,1795,2571,1958
403453,111928,84400,139964,139964,2509,956,-3792,-1088,1676,1622,-3043,6141,23,101,806,998,1075,781,1299,1728,1795,2571,1958
404455,112100,85016,140432,140432,2541,427,-3985,-519,1730,2125,-3178,5580,26,103,801,998,1075,781,1299,1728,1795,2571,1958
405455,112220,85576,140900,140900,2875,775,-4172,-35,1792,3324,-2794,5244,8,101,804,998,1075,781,1299,1728,1795,2571,1958
406456,112400,86108,141368,141368,2507,949,-4374,489,1841,3260,-2049,5156,10,112,797,1340,1372,930,1592,1501,1562,2246,1724
407457,112572,86680,141836,141836,2564,696,-4508,944,1816,2422,-2080,5532,-27,108,801,1340,1372,930,1592,1501,1562,2246,1724
408458,112692,87144,142304,142304,2897,1371,-4587,1487,1644,2489,-1389,5589,2,107,802,1340,1372,930,1592,1501,1562,2246,1724
409459,112820,87756,142772,142772,2856,443,-4506,1968,1532,2326,-2633,5705,-11,101,791,1340,1372,930,1592,1501,1562,2246,1724
410460,112908,88252,143240,143240,3115,1167,-4241,2269,1459,2067,-2140,6457,-49,108,797,1340,1372,930,1592,1501,1562,2246,1724
411461,112992,88820,143708,143708,3149,715,-3965,2713,1405,1164,-2648,7528,-38,105,786,1340,1372,930,1592,1501,1562,2246,1724
412462,113100,89368,144176,144176,3008,838,-3646,3092,1312,1274,-2709,7785,-109,93,786,1303,1327,826,1330,1218,1215,1767,1513
413463,113208,89996,144644,144644,3017,334,-3318,3419,1234,877,-2235,7730,-110,117,790,1303,1327,826,1330,1218,1215,1767,1513
414464,113316,90520,145112,145112,3026,982,-2899,3742,1174,897,-2137,8300,-67,115,793,1303,1327,826,1330,1218,1215,1767,1513
415465,113444,91088,145580,145580,2909,705,-2483,4145,1123,1951,-1713,8582,-67,121,789,1303,1327,826,1330,1218,1215,1767,1513
416466,113588,91624,146048,146048,2817,903,-2155,4593,1169,2182,-1352,8417,-67,114,794,1303,1327,826,1330,1218,1215,1767,1513
417467,113736,92180,146516,146516,2800,776,-1874,5054,1233,2656,-1510,8184,-35,120,794,1099,1196,722,1140,1037,1038,1572,1453
418468,113872,92776,146984,146984,2883,523,-1645,5571,1318,2737,-883,7603,-18,105,794,1099,1196,722,1140,1037,1038,1572,1453
419469,113976,93320,147456,147456,3092,846,-1452,6010,1410,2854,-958,6466,-21,105,795,1099,1196,722,1140,1037,1038,1572,1453
420470,114068,93904,147924,147924,3176,593,-1292,6444,1512,2606,-478,6403,-43,122,787,1099,1196,722,1140,1037,1038,1572,1453
421471,114204,94416,148392,148392,2909,1042,-1214,6799,1563,3065,-415,4757,-80,115,789,1099,1196,722,1140,1037,1038,1572,1453
422472,114352,94996,148860,148860,2842,615,-1072,7058,1566,3277,-125,3922,-94,112,791,1099,1196,722,1140,1037,1038,1572,1453
423473,114496,95536,149328,149328,2875,863,-919,7376,1503,3010,86,2836,-47,114,796,1217,1347,796,1327,1123,1186,1862,1631
424474,114656,96088,149796,149796,2782,786,-693,7366,1408,2448,-788,1883,-28,125,794,1217,1347,796,1327,1123,1186,1862,1631
425475,114804,96608,150264,150264,2865,984,-395,7253,1233,1823,-592,1654,-39,112,797,1217,1347,796,1327,1123,1186,1862,1631
426476,114988,97176,150732,150732,2647,682,37,6879,994,1578,-1483,1030,-19,107,795,1217,1347,796,1327,1123,1186,1862,1631
427477,115212,97768,151200,151200,2403,529,593,6313,785,674,-959,1921,-25,120,799,1217,1347,796,1327,1123,1186,1862,1631
428478,115404,98284,151668,151668,2610,1003,1130,5828,520,851,-1106,2862,12,111,805,1377,1451,885,1474,1323,1376,2047,1697
429479,115580,98804,152136,152136,2717,977,1642,5458,250,1184,-1591,3148,11,115,799,1377,1451,885,1474,1323,1376,2047,1697
430480,115748,99344,152604,152604,2774,850,2085,5212,123,773,-1044,4159,-1,109,797,1377,1451,885,1474,1323,1376,2047,1697
431481,115900,99912,153072,153072,2882,672,2517,5067,-35,2233,-1416,4491,-2,124,796,1377,1451,885,1474,1323,1376,2047,1697
432482,116100,100444,153540,153540,2589,896,2912,4791,-239,1667,-750,4068,-16,108,795,1377,1451,885,1474,1323,1376,2047,1697
433483,116320,100960,154008,154008,2470,995,3322,4437,-455,1463,58,5155,-12,102,799,1377,1451,885,1474,1323,1376,2047,1697
434484,116516,101488,154476,154476,2626,918,3600,4151,-639,2005,-717,5561,4,104,799,1276,1356,823,1279,1126,1111,1635,1495
435485,116688,102048,154944,154944,2783,716,3788,3879,-802,2230,1006,6618,13,92,800,1276,1356,823,1279,1126,1111,1635,1495
436486,116888,102560,155412,155412,2615,1015,3871,3832,-935,3111,1017,7349,-4,94,797,1276,1356,823,1279,1126,1111,1635,1495
437487,117068,103040,155880,155880,2747,1215,3965,3823,-907,2816,402,5800,-18,103,800,1276,1356,823,1279,1126,1111,1635,1495
438488,117280,103508,156348,156348,2553,1290,4076,3748,-837,2457,887,5762,9,96,796,1276,1356,823,1279,1126,1111,1635,1495
439489,117488,104012,156816,156816,2585,1064,4236,3692,-773,2370,1587,5305,-13,85,797,1172,1334,756,1120,1026,996,1586,1609
440490,117716,104544,157284,157284,2466,887,4371,3654,-657,2979,186,5333,16,83,799,1172,1334,756,1120,1026,996,1586,1609
441491,117952,105048,157752,157752,2421,1061,4473,3601,-557,2774,1432,5436,11,99,803,1172,1334,756,1120,1026,996,1586,1609
442492,118184,105552,158220,158220,2452,1060,4617,3778,-498,2773,1614,5500,29,86,803,1172,1334,756,1120,1026,996,1586,1609
443493,118448,105996,158688,158688,2257,1436,4795,3867,-485,2979,1051,4659,27,85,801,1172,1334,756,1120,1026,996,1586,1609
444494,118688,106524,159156,159156,2412,909,5098,4053,-518,2360,960,4777,24,90,801,1172,1334,756,1120,1026,996,1586,1609
445495,118956,107000,159624,159624,2242,1234,5405,3968,-584,2895,1342,3776,36,89,805,1146,1377,778,1122,1277,1222,2068,1986
446496,119220,107480,160092,160092,2272,1209,5738,3843,-604,3237,-149,3282,30,102,805,1146,1377,778,1122,1277,1222,2068,1986
447497,119492,108032,160560,160560,2227,757,6001,4164,-554,550,1361,4440,38,97,805,1146,1377,778,1122,1277,1222,2068,1986
448498,119804,108588,161028,161028,1981,730,6193,4531,-434,-253,-2296,2522,50,88,809,1146,1377,778,1122,1277,1222,2068,1986
449499,120116,109132,161496,161496,1985,803,6403,4325,-423,-26,8,2025,39,78,813,1146,1377,778,1122,1277,1222,2068,1986
450500,120400,109672,161964,161964,2164,826,6476,3590,-559,1441,858,1444,50,93,813,1206,1405,839,1256,1479,1422,2189,1875
451501,120720,110212,162432,162432,1943,824,6405,2703,-694,1204,315,1008,59,105,811,1206,1405,839,1256,1479,1422,2189,1875
452502,121064,110772,162900,162900,1796,697,6097,2393,-890,1666,2910,2945,64,101,814,1206,1405,839,1256,1479,1422,2189,1875
453503,121452,111408,163368,163368,1523,218,5621,2884,-897,455,2832,4384,74,100,817,1206,1405,839,1256,1479,1422,2189,1875
454504,121828,112024,163840,163840,1600,340,5161,3612,-794,1820,-171,4614,77,103,824,1206,1405,839,1256,1479,1422,2189,1875
455505,122212,112640,164308,164308,1552,336,4894,3744,-658,1387,139,4237,75,114,823,1206,1405,839,1256,1479,1422,2189,1875
456506,122636,113136,164776,164776,1303,1085,4720,3558,-517,706,641,4864,74,106,823,1156,1223,780,1169,1356,1350,1911,1675
457507,123064,113776,165244,165244,1279,181,4581,3272,-342,606,-584,3626,82,111,822,1156,1223,780,1169,1356,1350,1911,1675
458508,123616,114348,165712,165712,502,604,4322,3241,-135,677,24,4411,105,116,828,1156,1223,780,1169,1356,1350,1911,1675
459509,124120,114908,166180,166180,801,676,3985,3446,53,523,-579,6356,108,105,833,1156,1223,780,1169,1356,1350,1911,1675
460510,124636,115440,166648,166648,725,850,3621,3949,276,89,-2221,4600,110,115,831,1156,1223,780,1169,1356,1350,1911,1675
461511,125156,115960,167116,167116,699,923,3511,4232,370,245,-2517,3807,97,102,828,930,989,683,976,1441,1391,1977,1800
462512,125680,116564,167584,167584,673,395,3492,4359,375,-688,-2893,3723,121,105,830,930,989,683,976,1441,1391,1977,1800
463513,126284,117124,168052,168052,169,668,3473,4360,405,-689,-1732,3510,114,118,834,930,989,683,976,1441,1391,1977,1800
464514,126792,117708,168520,168520,768,515,3329,4304,493,-389,-1968,3523,118,114,835,930,989,683,976,1441,1391,1977,1800
465515,127292,118288,168988,168988,817,537,3139,4396,518,-294,-1381,2886,117,114,833,930,989,683,976,1441,1391,1977,1800
466516,127796,118868,169456,169456,792,535,2964,4713,477,-651,-378,2990,127,126,832,930,989,683,976,1441,1391,1977,1800
467517,128380,119432,169924,169924,289,632,2857,4932,489,-472,-9,2505,122,106,833,879,989,685,991,1564,1464,2198,1954
468518,129028,119996,170392,170392,-116,630,2674,5157,519,425,1547,2292,107,108,835,879,989,685,991,1564,1464,2198,1954
469519,129576,120536,170860,170860,507,778,2477,5206,566,269,1870,1111,122,112,835,879,989,685,991,1564,1464,2198,1954
470520,130124,121112,171328,171328,505,550,2152,5371,599,769,1635,941,126,113,833,879,989,685,991,1564,1464,2198,1954
471521,130680,121656,171796,171796,453,749,1748,5449,665,2269,1165,8,118,116,834,879,989,685,991,1564,1464,2198,1954
472522,131240,122196,172264,172264,426,772,1310,5540,758,2356,1131,-323,120,121,834,1057,1206,773,1168,1414,1367,2082,1836
473523,131808,122628,172732,172732,374,1448,825,5474,793,1159,1415,-654,125,119,833,1057,1206,773,1168,1414,1367,2082,1836
474524,132324,123132,173200,173200,697,997,451,5483,767,-637,833,-380,106,112,827,1057,1206,773,1168,1414,1367,2082,1836
475525,132856,123660,173668,173668,596,845,-12,5538,679,220,949,1107,111,98,830,1057,1206,773,1168,1414,1367,2082,1836
476526,133400,124144,174136,174136,519,1120,-386,5272,650,556,690,2070,110,105,832,1057,1206,773,1168,1414,1367,2082,1836
477527,133864,124600,174604,174604,1019,1295,-787,4684,825,125,958,2846,108,102,829,1057,1206,773,1168,1414,1367,2082,1836
478528,134404,125052,175072,175072,542,1321,-944,4140,1017,4,-729,3944,118,101,822,1123,1231,768,1109,1345,1307,1942,1832
479529,134924,125524,175540,175540,666,1196,-999,4101,981,-376,-1794,3383,96,103,827,1123,1231,768,1109,1345,1307,1942,1832
480530,135408,125932,176008,176008,891,1597,-765,4068,815,-1253,-2138,1555,121,99,828,1123,1231,768,1109,1345,1307,1942,1832
481531,135904,126312,176476,176476,815,1774,-540,3975,598,-693,-3303,2286,121,95,821,1123,1231,768,1109,1345,1307,1942,1832
482532,136384,126672,176944,176944,915,1902,-490,3792,375,-482,-2809,2592,113,89,819,1123,1231,768,1109,1345,1307,1942,1832
483533,136884,127064,177412,177412,789,1704,-693,3372,258,-643,-931,2741,95,88,816,949,1068,696,951,1367,1282,1895,1835
484534,137424,127408,177880,177880,537,2007,-904,3132,153,-186,-1415,3804,119,82,818,949,1068,696,951,1367,1282,1895,1835
485535,137932,127740,178348,178348,736,2085,-1272,2783,52,-1471,782,2701,108,80,817,949,1068,696,951,1367,1282,1895,1835
486536,138440,128048,178816,178816,735,2239,-1625,2545,-115,-1553,1111,4464,110,70,814,949,1068,696,951,1367,1282,1895,1835
487537,138916,128352,179284,179284,935,2268,-2084,2447,-281,-1421,129,2053,110,68,811,949,1068,696,951,1367,1282,1895,1835
488538,139392,128660,179752,179752,935,2247,-2534,2314,-432,-1713,989,3118,116,47,810,949,1068,696,951,1367,1282,1895,1835
489539,139932,128940,180224,180224,533,2427,-2977,2308,-448,-1007,972,2841,108,44,810,952,1109,695,991,1363,1318,2064,2005
490540,140388,129196,180692,180692,1058,2582,-3321,2001,-474,-720,97,1613,92,54,807,952,1109,695,991,1363,1318,2064,2005
491541,140852,129436,181160,181160,1009,2687,-3635,1800,-567,-1606,785,3213,89,26,801,952,1109,695,991,1363,1318,2064,2005
492542,141328,129692,181628,181628,933,2592,-3789,1354,-619,-2011,621,1837,104,11,799,952,1109,695,991,1363,1318,2064,2005
493543,141820,129892,182096,182096,833,2949,-3951,1176,-602,-1756,247,1443,108,7,800,952,1109,695,991,1363,1318,2064,2005
494544,142344,130104,182564,182564,631,2880,-4038,981,-628,-1891,-853,1579,88,16,795,1039,1209,754,1106,1581,1550,2429,2199
495545,142820,130276,183032,183032,931,3137,-4045,773,-596,-2412,-535,140,99,-30,796,1039,1209,754,1106,1581,1550,2429,2199
496546,143284,130420,183500,183500,1006,3320,-4029,715,-539,-2121,-1449,1658,93,-31,790,1039,1209,754,1106,1581,1550,2429,2199
497547,143772,130580,183968,183968,856,3228,-3869,408,-465,-2660,-859,343,100,-73,783,1039,1209,754,1106,1581,1550,2429,2199
498548,144280,130716,184436,184436,730,3386,-3574,-214,-480,-3396,-467,2213,92,-159,787,1039,1209,754,1106,1581,1550,2429,2199
499549,144864,130856,184904,184904,252,3369,-3282,-829,-566,-3735,-1747,3110,90,-96,781,1039,1209,754,1106,1581,1550,2429,2199
500550,145348,130956,185372,185372,877,3628,-3077,-1484,-592,-4443,-265,3872,92,-169,783,1104,1236,791,1172,1414,1368,1976,1720
501551,145868,131088,185840,185840,650,3436,-2956,-1913,-699,-4005,506,5143,98,-167,765,1104,1236,791,1172,1414,1368,1976,1720
502552,146356,131208,186308,186308,850,3520,-3002,-2267,-860,-3682,1594,4927,103,-169,780,1104,1236,791,1172,1414,1368,1976,1720
503553,146856,131324,186776,186776,774,3553,-3072,-2318,-1071,-2136,1496,5079,103,-211,782,1104,1236,791,1172,1414,1368,1976,1720
504554,147416,131432,187244,187244,397,3612,-3270,-2499,-1181,-1756,2716,3610,97,-261,775,1104,1236,791,1172,1414,1368,1976,1720
505555,147944,131516,187712,187712,595,3771,-3479,-2710,-1172,-1788,1622,4163,105,-257,767,1189,1306,791,1199,1055,1056,1536,1440
506556,148496,131592,188180,188180,443,3800,-3683,-2933,-1123,-561,1530,4124,107,-189,768,1189,1306,791,1199,1055,1056,1536,1440
507557,149008,131708,188648,188648,692,3590,-3885,-3347,-1035,218,1332,5545,108,174,768,1189,1306,791,1199,1055,1056,1536,1440
508558,149564,131852,189116,189116,415,3423,-3922,-3717,-871,-1123,461,5252,103,240,767,1189,1306,791,1199,1055,1056,1536,1440
509559,150144,131992,189584,189584,262,3456,-3715,-4122,-630,-1991,1350,4781,117,-225,782,1189,1306,791,1199,1055,1056,1536,1440
510560,150720,132172,190052,190052,285,3213,-3334,-4370,-427,-875,-72,4819,118,-217,784,1189,1306,791,1199,1055,1056,1536,1440
511561,151260,132372,190520,190520,508,3094,-2874,-4613,-208,-975,-980,4083,101,-242,790,1204,1322,786,1172,1210,1217,1902,1811
512562,151764,132556,190988,190988,732,3201,-2328,-4922,133,-2332,-475,3589,97,-96,789,1204,1322,786,1172,1210,1217,1902,1811
513563,152268,132752,191456,191456,731,3133,-1815,-5045,472,-2545,-346,4782,114,-72,788,1204,1322,786,1172,1210,1217,1902,1811
514564,152856,132944,191924,191924,203,3164,-1298,-5051,694,-1920,44,4312,117,-82,787,1204,1322,786,1172,1210,1217,1902,1811
515565,153360,133096,192392,192392,727,3422,-723,-5075,861,-2267,876,3588,107,-70,789,1204,1322,786,1172,1210,1217,1902,1811
516566,153856,133228,192860,192860,777,3555,-170,-5131,945,-1696,1289,2758,112,-93,780,1175,1358,804,1198,1387,1329,2122,1851
517567,154392,133360,193328,193328,525,3564,226,-5180,971,-1704,2841,1958,122,-206,779,1175,1358,804,1198,1387,1329,2122,1851
518568,154928,133516,193796,193796,523,3421,417,-5400,967,-2307,4001,1566,118,-237,775,1175,1358,804,1198,1387,1329,2122,1851
519569,155524,133656,194264,194264,145,3529,420,-5572,950,-3001,5124,1203,113,-237,780,1175,1358,804,1198,1387,1329,2122,1851
520570,156056,133904,194732,194732,544,2860,281,-5566,868,-3542,5452,2675,118,-192,784,1175,1358,804,1198,1387,1329,2122,1851
521571,156556,134220,195200,195200,743,2438,113,-5646,725,-1752,1959,251,113,-255,797,1175,1358,804,1198,1387,1329,2122,1851
522572,157156,134528,195668,195668,115,2492,39,-6149,841,-2389,3702,415,122,-7,801,1316,1465,834,1313,1134,1123,1682,1473
523573,157812,134924,196136,196136,-240,1944,-31,-6764,1267,-4266,4268,3484,107,24,807,1316,1465,834,1313,1134,1123,1682,1473
524574,158428,135272,196608,196608,7,2247,-366,-7045,1396,-1453,1040,5132,124,26,814,1316,1465,834,1313,1134,1123,1682,1473
525575,159080,135672,197076,197076,-223,1924,-539,-7489,1468,-1242,2187,2606,125,50,812,1316,1465,834,1313,1134,1123,1682,1473
526576,159704,136076,197544,197544,-52,1900,-399,-8206,1504,1721,-1540,1003,114,37,815,1316,1465,834,1313,1134,1123,1682,1473
527577,160316,136540,198012,198012,20,1525,-96,-8412,1319,4234,-187,5495,128,59,816,1191,1244,776,1137,1184,1192,1708,1629
528578,160812,136956,198480,198480,744,1827,290,-7893,1481,35,-2397,6378,123,51,824,1191,1244,776,1137,1184,1192,1708,1629
529579,161260,137444,198948,198948,1045,1376,618,-7072,1409,758,-2304,4293,111,75,816,1191,1244,776,1137,1184,1192,1708,1629
530580,161900,137888,199416,199416,-160,1652,1185,-6968,1491,-935,-4062,1224,114,55,820,1191,1244,776,1137,1184,1192,1708,1629
531583,162476,138376,199884,199884,238,1376,1560,-7215,1668,1427,-1707,2272,126,69,822,1191,1244,776,1137,1184,1192,1708,1629
532582,163068,138896,200352,200352,135,1175,1605,-7453,1813,1222,-1756,1234,120,73,825,1191,1244,776,1137,1184,1192,1708,1629
533583,163624,139476,200820,200820,358,797,1429,-7281,1776,1238,351,900,103,77,829,972,1061,709,1004,1357,1321,1920,1766
534584,164192,140020,201288,201288,280,1020,1262,-7325,1775,181,182,-2559,114,82,832,972,1061,709,1004,1357,1321,1920,1766
535585,164812,140580,201756,201756,-49,918,1136,-7403,1780,-651,1421,-1744,119,92,830,972,1061,709,1004,1357,1321,1920,1766
536586,165372,141260,202224,202224,324,163,1029,-7599,1701,-987,2774,-779,115,96,832,972,1061,709,1004,1357,1321,1920,1766
537587,165952,141832,202692,202692,196,835,781,-7819,1707,-1203,1921,-335,120,100,836,972,1061,709,1004,1357,1321,1920,1766
538588,166444,142420,203160,203160,746,732,626,-7961,1714,-1262,3691,922,125,108,834,990,1107,702,1059,1312,1275,1929,1703
539589,167052,142996,203628,203628,17,805,623,-8082,1654,-1656,2543,-440,106,90,831,990,1107,702,1059,1312,1275,1929,1703
540590,167644,143576,204096,204096,114,777,691,-8120,1637,-2282,1567,-649,101,89,833,990,1107,702,1059,1312,1275,1929,1703
541591,168124,144236,204564,204564,814,272,765,-8179,1680,-1178,974,-489,103,103,834,990,1107,702,1059,1312,1275,1929,1703
542592,168620,144820,205032,205032,713,745,786,-8131,1739,-415,528,-750,109,110,833,990,1107,702,1059,1312,1275,1929,1703
543593,169164,145420,205500,205500,412,641,813,-7876,1650,910,825,364,113,111,831,990,1107,702,1059,1312,1275,1929,1703
544594,169704,145984,205968,205968,435,864,842,-7617,1503,1185,389,207,119,93,834,1024,1142,714,1091,1208,1183,1734,1556
545595,170252,146628,206436,206436,383,360,840,-7700,1445,457,179,-1244,105,106,832,1024,1142,714,1091,1208,1183,1734,1556
546596,170800,147268,206904,206904,381,380,723,-7811,1376,860,517,-4,113,112,834,1024,1142,714,1091,1208,1183,1734,1556
547597,171304,147828,207372,207372,655,878,637,-7880,1341,1244,-793,-366,113,104,836,1024,1142,714,1091,1208,1183,1734,1556
548598,171892,148348,207840,207840,127,1127,581,-7690,1325,2344,-1197,-324,113,105,831,1024,1142,714,1091,1208,1183,1734,1556
549599,172404,148996,208308,208308,601,323,702,-7553,1387,1784,-2459,-589,125,98,832,1070,1152,744,1113,1155,1157,1630,1515
550600,173024,149532,208776,208776,-78,1021,785,-7337,1408,1734,-2568,258,121,101,834,1070,1152,744,1113,1155,1157,1630,1515
551601,173576,150136,209244,209244,345,593,892,-7103,1405,1471,-2409,358,102,115,832,1070,1152,744,1113,1155,1157,1630,1515
552602,174104,150748,209712,209712,494,539,1036,-6945,1443,2203,-2706,1878,117,113,834,1070,1152,744,1113,1155,1157,1630,1515
553603,174612,151336,210180,210180,618,686,918,-6712,1852,3946,-3690,1266,108,116,835,1070,1152,744,1113,1155,1157,1630,1515
554604,175080,151908,210648,210648,868,784,500,-6095,2444,4608,-1393,4813,110,115,833,1070,1152,744,1113,1155,1157,1630,1515
555605,175612,152468,211116,211116,466,856,-353,-4948,2761,5974,-512,8298,92,112,830,1038,1103,727,1079,1220,1230,1790,1636
556606,176044,153036,211584,211584,1092,804,-1298,-4326,2832,4599,2030,6527,102,104,832,1038,1103,727,1079,1220,1230,1790,1636
557607,176452,153584,212052,212052,1244,927,-2037,-3779,2836,1814,2057,8437,101,123,828,1038,1103,727,1079,1220,1230,1790,1636
558608,176848,154220,212520,212520,1320,373,-2380,-3335,2341,4412,1994,8016,83,100,824,1038,1103,727,1079,1220,1230,1790,1636
559609,177212,154776,212992,212992,1523,871,-2583,-2150,2271,210,-1073,11771,73,102,827,1038,1103,727,1079,1220,1230,1790,1636
560610,177580,155316,213460,213460,1500,969,-2513,-1356,2448,-1880,-1883,7684,73,102,821,954,1035,704,1062,1864,1882,2864,2335
561611,177884,155912,213928,213928,1904,616,-2349,-1251,2293,-576,-354,7309,70,113,819,954,1035,704,1062,1864,1882,2864,2335
562612,178168,156436,214396,214396,2034,1065,-2124,-1445,2110,-1320,-1008,7579,50,104,817,954,1035,704,1062,1864,1882,2864,2335
563613,178404,156984,214864,214864,2340,913,-2021,-1283,2170,-2173,-2618,6810,55,105,810,954,1035,704,1062,1864,1882,2864,2335
564614,178600,157536,215332,215332,2596,886,-1946,-855,2121,449,-1832,8659,44,116,807,954,1035,704,1062,1864,1882,2864,2335
565615,178788,158008,215800,215800,2653,1385,-1916,-90,2184,679,-1464,9215,16,105,801,1000,1077,808,1326,2249,1882,2864,2335
566616,178956,158628,216268,216268,2785,457,-1914,643,2373,816,-1890,8934,-1,104,795,1000,1077,808,1326,2249,2271,3122,2245
567617,179092,159236,216736,216736,2994,528,-2071,1547,2580,1798,-1656,10871,-1,101,796,1000,1077,808,1326,2249,2271,3122,2245
568618,179200,159752,217204,217204,3177,1102,-2350,2367,2850,2898,-594,9912,-19,130,794,1000,1077,808,1326,2249,2271,3122,2245
569619,179328,160284,217672,217672,3061,1001,-2763,2973,3120,4718,-1120,9696,-58,106,786,1000,1077,808,1326,2249,2271,3122,2245
570620,179452,160852,218140,218140,3094,773,-3316,3622,3349,4822,21,9351,-108,119,786,1000,1077,808,1326,2249,2271,3122,2245
571621,179556,161460,218608,218608,3228,520,-3783,4154,3445,3925,1432,8411,-69,124,787,1367,1370,955,1713,1435,1520,2104,1568
572622,179644,161952,219076,219076,3337,1244,-4116,4780,3381,3963,-336,7918,-81,118,787,1367,1370,955,1713,1435,1520,2104,1568
573623,179716,162492,219544,219544,3447,942,-4265,5156,3298,3576,-26,7933,-134,120,774,1367,1370,955,1713,1435,1520,2104,1568
574624,179824,163080,220012,220012,3231,639,-4303,5396,3273,2303,-1298,8951,-204,120,784,1367,1370,955,1713,1435,1520,2104,1568
575625,179936,163692,220480,220480,3214,486,-4173,5369,3250,1618,-1950,9031,-290,123,787,1367,1370,955,1713,1435,1520,2104,1568
576626,180076,164236,220948,220948,3047,909,-3805,5043,3134,0,-1476,8048,-153,121,790,1400,1377,883,1429,1186,1199,1731,1515
577627,180204,164804,221416,221416,3131,757,-3235,4827,2819,-435,-1087,9278,-157,118,789,1400,1377,883,1429,1186,1199,1731,1515
578628,180348,165372,221884,221884,3039,754,-2496,4668,2471,-394,-984,7608,-60,109,789,1400,1377,883,1429,1186,1199,1731,1515
579629,180516,165892,222352,222352,2896,1053,-1850,4805,2323,1468,-3214,8472,-108,106,791,1400,1377,883,1429,1186,1199,1731,1515
580630,180676,166500,222820,222820,2953,500,-1314,5141,2265,4190,-1657,9003,-68,110,791,1400,1377,883,1429,1186,1199,1731,1515
581632,180876,167036,223288,223288,2710,948,-782,5551,2199,4268,-219,9064,-39,107,794,1400,1377,883,1429,1186,1199,1731,1515
582632,181028,167556,223756,223756,3018,1047,-325,6079,2136,4886,-565,8678,-30,102,795,1146,1288,752,1109,1075,1022,1622,1600
583633,181180,168076,224224,224224,3025,1045,-2,6504,2030,5130,1961,8702,-14,96,788,1146,1288,752,1109,1075,1022,1622,1600
584634,181320,168636,224692,224692,3108,793,116,7004,1980,5457,1992,8645,-53,104,787,1146,1288,752,1109,1075,1022,1622,1600
585635,181492,169108,225160,225160,2916,1343,243,7109,2038,5871,2660,7649,-54,99,788,1146,1288,752,1109,1075,1022,1622,1600
586636,181700,169648,225628,225628,2697,916,255,7140,2135,5327,4376,6344,-66,88,788,1146,1288,752,1109,1075,1022,1622,1600
587637,181900,170092,226096,226096,2754,1517,325,6951,2195,2948,3349,5086,-17,87,795,1240,1506,789,1229,1095,1084,1839,1789
588638,182112,170600,226564,226564,2685,1116,390,6706,2180,1575,3622,3997,2,82,791,1240,1506,789,1229,1095,1084,1839,1789
589639,182280,171136,227032,227032,2967,939,633,6377,2181,2597,3726,2874,-14,93,795,1240,1506,789,1229,1095,1084,1839,1789
590640,182484,171580,227500,227500,2749,1515,938,6057,2244,2494,1594,2802,-8,85,793,1240,1506,789,1229,1095,1084,1839,1789
591641,182696,172052,227968,227968,2705,1340,1292,5560,2248,-376,1020,1946,-47,84,791,1240,1506,789,1229,1095,1084,1839,1789
592642,182896,172504,228436,228436,2786,1465,1679,5014,2192,-350,1145,2885,-11,73,790,1240,1506,789,1229,1095,1084,1839,1789
593643,183112,173036,228904,228904,2692,963,2138,4629,2139,936,-1347,2186,-6,96,791,1422,1663,907,1380,1312,1290,2079,1887
594644,183312,173532,229376,229376,2799,1188,2632,3926,2021,640,-973,1584,1,85,795,1422,1663,907,1380,1312,1290,2079,1887
595645,183540,174024,229844,229844,2630,1212,3123,3222,1846,407,-1534,4021,4,81,794,1422,1663,907,1380,1312,1290,2079,1887
596646,183788,174540,230312,230312,2510,1061,3587,2558,1609,196,-1368,3632,-8,86,796,1422,1663,907,1380,1312,1290,2079,1887
597647,184008,175140,230780,230780,2691,533,4050,2250,1383,302,-1389,6175,12,80,798,1422,1663,907,1380,1312,1290,2079,1887
598648,184244,175632,231248,231248,2597,1207,4478,2098,1163,1752,-1728,5816,31,95,802,1295,1441,847,1221,1205,1139,1698,1592
599649,184496,176132,231716,231716,2502,1157,4859,1942,993,1934,86,6657,15,83,799,1295,1441,847,1221,1205,1139,1698,1592
600650,184752,176640,232184,232184,2483,1106,5048,1812,887,2450,491,6941,23,84,800,1295,1441,847,1221,1205,1139,1698,1592
601651,185036,177156,232652,232652,2312,1054,5185,1725,825,2483,1685,7316,34,92,801,1295,1441,847,1221,1205,1139,1698,1592
602652,185292,177740,233120,233120,2492,627,5214,1835,792,2760,1178,7686,42,102,803,1295,1441,847,1221,1205,1139,1698,1592
603653,185552,178272,233588,233588,2472,950,5137,2021,743,2242,3042,8365,31,98,804,1295,1441,847,1221,1205,1139,1698,1592
604654,185804,178804,234056,234056,2528,948,5039,2141,649,2785,3845,8411,27,98,802,1142,1279,747,1096,1050,1031,1594,1558
605655,186064,179364,234524,234524,2483,771,4928,2094,670,1556,3225,7364,39,88,801,1142,1279,747,1096,1050,1031,1594,1558
606656,186340,179932,234992,234992,2387,719,4862,1987,666,2704,3561,7349,26,101,805,1142,1279,747,1096,1050,1031,1594,1558
607657,186652,180440,235460,235460,2166,1093,4860,2136,806,209,3235,6876,28,94,807,1142,1279,747,1096,1050,1031,1594,1558
608658,186948,180968,235928,235928,2270,966,4976,2574,914,98,2309,6031,51,92,807,1142,1279,747,1096,1050,1031,1594,1558
609659,187260,181456,236396,236396,2174,1216,5203,2611,1156,-1442,-59,3421,59,95,807,1111,1287,767,1164,1369,1358,2242,2021
610660,187580,182000,236864,236864,2128,864,5422,2228,1267,-1210,919,2374,52,103,807,1111,1287,767,1164,1369,1358,2242,2021
611661,187944,182564,237332,237332,1855,737,5553,1910,1115,-537,2430,386,66,103,810,1111,1287,767,1164,1369,1358,2242,2021
612662,188376,183108,237800,237800,1431,860,5605,2031,760,2768,466,-198,55,104,815,1111,1287,767,1164,1369,1358,2242,2021
613663,188792,183676,238268,238268,1532,707,5500,2955,571,773,1954,-779,71,95,821,1111,1287,767,1164,1369,1358,2242,2021
614664,189260,184208,238736,238736,1207,931,5358,4028,642,-104,-2556,1019,91,99,819,1111,1287,767,1164,1369,1358,2242,2021
615665,189728,184804,239204,239204,1207,528,5288,4085,872,981,-3615,-592,82,105,822,1190,1347,841,1238,1600,1524,2298,1972
616666,190268,185352,239672,239672,756,826,5284,3327,973,2304,-2049,663,89,102,826,1190,1347,841,1238,1600,1524,2298,1972
617667,190832,185892,240140,240140,603,874,5092,2863,1121,-602,-2490,1145,89,113,829,1190,1347,841,1238,1600,1524,2298,1972
618668,191340,186428,240608,240608,952,897,4752,2913,1249,-2238,-531,2325,102,108,830,1190,1347,841,1238,1600,1524,2298,1972
619669,191904,187020,241076,241076,600,544,4385,3281,1323,-567,-962,4229,101,107,828,1190,1347,841,1238,1600,1524,2298,1972
620670,192444,187584,241544,241544,748,717,3949,3658,1487,479,-1208,4009,102,119,832,1027,1091,726,1046,1348,1289,1786,1595
621671,192988,188132,242012,242012,721,815,3686,3886,1509,491,-271,4248,106,109,831,1027,1091,726,1046,1348,1289,1786,1595
622672,193612,188612,242480,242480,218,1240,3533,4056,1470,-478,-429,5174,117,105,830,1027,1091,726,1046,1348,1289,1786,1595
623673,194156,189112,242948,242948,716,1114,3435,4097,1447,885,-446,5023,110,101,829,1027,1091,726,1046,1348,1289,1786,1595
624674,194700,189656,243416,243416,714,837,3336,4253,1364,2198,-761,4688,120,114,828,1027,1091,726,1046,1348,1289,1786,1595
625675,195312,190132,243884,243884,285,1262,3253,4372,1102,1761,1291,4933,120,109,830,1027,1091,726,1046,1348,1289,1786,1595
626676,195864,190616,244352,244352,658,1211,3129,4234,954,-460,1098,2772,128,100,829,867,933,641,934,1282,1252,1779,1629
627677,196504,191076,244820,244820,104,1362,2818,3864,774,-1434,1074,2147,128,99,827,867,933,641,934,1282,1252,1779,1629
628678,197112,191580,245288,245288,301,1086,2329,3627,620,-2587,1515,2320,116,117,828,867,933,641,934,1282,1252,1779,1629
629679,197676,192016,245760,245760,573,1512,1847,3326,645,-2452,-244,1617,120,103,830,867,933,641,934,1282,1252,1779,1629
630680,198260,192432,246228,246228,446,1638,1176,3025,1000,-408,-1044,2881,124,103,825,867,933,641,934,1282,1252,1779,1629
631681,198840,192872,246696,246696,468,1489,948,2905,1181,-509,-1275,1831,109,98,822,955,1077,721,1064,1473,1444,2257,2136
632682,199400,193284,247164,247164,591,1665,839,2877,1199,25,-817,492,127,90,825,955,1077,721,1064,1473,1444,2257,2136
633683,199924,193740,247632,247632,814,1390,863,2887,1141,719,-1761,-1575,118,100,821,955,1077,721,1064,1473,1444,2257,2136
634684,200460,194120,248100,248100,738,1867,814,2918,993,1666,-1656,-2320,108,95,822,955,1077,721,1064,1473,1444,2257,2136
635685,200984,194476,248568,248568,811,2020,650,3030,891,1020,-405,-830,107,85,819,955,1077,721,1064,1473,1444,2257,2136
636686,201500,194844,249036,249036,860,1948,326,3097,797,944,-1324,-1453,125,85,817,955,1077,721,1064,1473,1444,2257,2136
637687,202060,195200,249504,249504,583,2025,-35,3371,594,-26,-64,633,112,75,815,1122,1329,814,1139,1579,1455,2335,2194
638688,202608,195512,249972,249972,656,2304,-421,3491,383,-722,1754,1063,111,61,815,1122,1329,814,1139,1579,1455,2335,2194
639689,203136,195832,250440,250440,779,2258,-861,3254,210,-1069,506,1209,116,68,812,1122,1329,814,1139,1579,1455,2335,2194
640690,203676,196144,250908,250908,703,2312,-1390,2946,-16,-1657,2252,3972,111,45,811,1122,1329,814,1139,1579,1455,2335,2194
641691,204244,196452,251376,251376,525,2340,-1879,2413,-168,-2923,1897,2868,120,42,810,1122,1329,814,1139,1579,1455,2335,2194
642692,204792,196724,251844,251844,648,2570,-2293,2117,-303,-2221,-228,4964,117,50,809,1074,1239,731,1020,1333,1254,1904,1839
643693,205288,196992,252312,252312,973,2600,-2652,1807,-457,-3138,-49,4640,107,41,803,1074,1239,731,1020,1333,1254,1904,1839
644694,205800,197240,252780,252780,871,2730,-2891,1645,-696,-2802,445,5837,101,15,801,1074,1239,731,1020,1333,1254,1904,1839
645695,206288,197464,253248,253248,1021,2886,-3117,1215,-800,-2091,-95,5285,97,3,797,1074,1239,731,1020,1333,1254,1904,1839
646696,206804,197680,253716,253716,845,2943,-3361,855,-818,-1245,-222,5607,94,-12,794,1074,1239,731,1020,1333,1254,1904,1839
647697,207304,197868,254184,254184,944,3124,-3582,563,-850,-1180,-815,5657,106,-36,794,1074,1239,731,1020,1333,1254,1904,1839
648698,207848,198052,254652,254652,667,3156,-3724,77,-874,-1439,-797,3757,97,-58,789,898,1014,660,916,1400,1363,2004,1939
649699,208320,198244,255120,255120,1117,3113,-3792,105,-948,-537,-1950,5099,89,-75,790,898,1014,660,916,1400,1363,2004,1939
650700,208816,198492,255588,255588,966,2768,-3746,-53,-996,-1234,-2008,1768,101,-49,786,898,1014,660,916,1400,1363,2004,1939
651701,209292,198704,256056,256056,1091,3000,-3680,38,-1103,-1020,-821,3045,107,-7,793,898,1014,660,916,1400,1363,2004,1939
652702,209800,198912,256524,256524,890,3031,-3594,-162,-1188,-1405,-1498,997,93,-45,789,898,1014,660,916,1400,1363,2004,1939
653703,210376,199076,256992,256992,463,3313,-3731,-364,-1292,-1736,-562,1307,92,-51,789,940,1074,732,1071,1575,1536,2272,2031
654704,210884,199256,257460,257460,887,3220,-3898,-769,-1425,-2554,1439,275,97,-121,787,940,1074,732,1071,1575,1536,2272,2031
655705,211380,199424,257928,257928,961,3303,-4215,-1189,-1542,-2535,1620,-301,98,-81,782,940,1074,732,1071,1575,1536,2272,2031
656706,211900,199616,258396,258396,810,3160,-4433,-1440,-1672,-3175,2620,-714,108,-121,784,940,1074,732,1071,1575,1536,2272,2031
657707,212420,199816,258864,258864,808,3116,-4738,-1541,-1773,-3313,2972,-1053,102,-95,787,940,1074,732,1071,1575,1536,2272,2031
658708,213004,199992,259332,259332,406,3273,-5032,-1610,-1807,-3071,3721,224,101,-88,788,940,1074,732,1071,1575,1536,2272,2031
659709,213528,200164,259800,259800,779,3305,-5290,-1506,-1860,-2792,2394,417,99,-137,781,1200,1332,837,1286,1358,1331,1999,1740
660710,214124,200352,260268,260268,326,3212,-5487,-1307,-2057,-2229,2945,1456,103,-144,786,1200,1332,837,1286,1358,1331,1999,1740
661711,214688,200548,260736,260736,524,3169,-5611,-1397,-2048,-2598,1932,492,115,-75,787,1200,1332,837,1286,1358,1331,1999,1740
662712,215288,200780,261204,261204,295,2950,-5794,-1675,-1936,-2181,1706,1203,111,-56,790,1200,1332,837,1286,1358,1331,1999,1740
663713,215892,201180,261672,261672,267,1901,-6060,-1968,-1834,-1147,2387,2925,103,-16,796,1200,1332,837,1286,1358,1331,1999,1740
664714,216408,201536,262144,262144,816,2179,-6216,-2347,-1553,-1824,903,3940,101,46,810,1162,1252,765,1125,1204,1187,1725,1617
665715,216920,201908,262612,262612,840,2082,-6199,-2457,-1451,575,-395,4924,99,44,809,1162,1252,765,1125,1204,1187,1725,1617
666716,217428,202292,263080,263080,864,2009,-5812,-2842,-1314,-67,-3151,3222,123,53,811,1162,1252,765,1125,1204,1187,1725,1617
667717,217988,202688,263548,263548,537,1935,-5171,-3456,-1156,-306,-2306,6233,108,51,812,1162,1252,765,1125,1204,1187,1725,1617
668718,218620,203116,264016,264016,83,1736,-4588,-3761,-1037,-154,-2653,8180,118,64,814,1162,1252,765,1125,1204,1187,1725,1617
669719,219136,203540,264484,264484,807,1762,-4058,-3782,-1045,1221,-967,7685,120,55,819,1162,1252,765,1125,1204,1187,1725,1617
670720,219684,203936,264952,264952,605,1939,-3527,-3714,-1016,754,51,5097,110,63,818,934,1029,681,952,1294,1238,1807,1715
671721,220264,204368,265420,265420,402,1715,-3170,-3768,-1013,1063,591,3590,113,55,816,934,1029,681,952,1294,1238,1807,1715
672722,220832,204908,265888,265888,475,1038,-3116,-3815,-1129,2422,1495,2516,111,74,819,934,1029,681,952,1294,1238,1807,1715
673723,221420,205396,266356,266356,347,1363,-3203,-3860,-1026,1060,2320,1667,125,64,826,934,1029,681,952,1294,1238,1807,1715
674724,221968,205836,266824,266824,595,1663,-3289,-3832,-1012,1601,2554,-48,127,60,825,934,1029,681,952,1294,1238,1807,1715
675725,222588,206316,267292,267292,141,1413,-3365,-3794,-1101,-112,3166,409,115,57,821,1110,1290,786,1218,1189,1167,1836,1628
676726,223164,206836,267760,267760,413,1162,-3486,-3830,-1050,-2961,4893,247,119,70,824,1110,1290,786,1218,1189,1167,1836,1628
677727,223788,207300,268228,268228,109,1512,-3597,-3988,-839,-1434,4804,-2084,118,72,827,1110,1290,786,1218,1189,1167,1836,1628
678728,224612,207756,268696,268696,-1149,1562,-3746,-4077,-694,1186,2725,-1380,114,80,825,1110,1290,786,1218,1189,1167,1836,1628
679729,225196,208232,269164,269164,348,1437,-3961,-4044,-628,-1302,3385,-2366,118,74,815,1110,1290,786,1218,1189,1167,1836,1628
680730,225680,208732,269632,269632,973,1286,-4041,-3816,-655,-2857,2008,-1170,117,86,821,1110,1290,786,1218,1189,1167,1836,1628
681731,226212,209268,270100,270100,671,1060,-4016,-3572,-736,-2536,1625,-2050,108,82,822,1452,1592,881,1417,1177,1189,1839,1619
682732,226836,209780,270568,270568,92,1209,-3977,-3364,-695,-1952,-1623,24,116,100,824,1452,1592,881,1417,1177,1189,1839,1619
683733,227440,210336,271036,271036,214,931,-3764,-3310,-569,-550,-1536,1110,121,86,828,1452,1592,881,1417,1177,1189,1839,1619
684734,228040,210912,271504,271504,236,804,-3496,-3337,-350,-985,-3057,659,113,90,831,1452,1592,881,1417,1177,1189,1839,1619
685735,228636,211552,271972,271972,258,400,-3126,-3426,-411,20,-2126,555,110,92,832,1452,1592,881,1417,1177,1189,1839,1619
686736,229184,212112,272440,272440,556,897,-2775,-3507,-469,-771,-3724,1300,111,104,834,1113,1161,738,1065,1274,1249,1733,1597
687737,229788,212732,272908,272908,202,519,-2376,-3629,-539,686,-3458,2133,119,110,833,1113,1161,738,1065,1274,1249,1733,1597
688738,230396,213288,273376,273376,174,916,-2155,-3425,-522,1800,-2084,3585,114,107,833,1113,1161,738,1065,1274,1249,1733,1597
689739,230948,213848,273844,273844,522,889,-1874,-3534,-465,2131,-1906,3878,105,100,833,1113,1161,738,1065,1274,1249,1733,1597
690740,231536,214444,274312,274312,294,661,-1669,-3651,-408,1092,-1123,3954,113,113,831,1113,1161,738,1065,1274,1249,1733,1597
691741,232120,215020,274780,274780,316,783,-1536,-3798,-460,103,-799,3050,110,99,833,1113,1161,738,1065,1274,1249,1733,1597
692742,232692,215588,275248,275248,388,831,-1649,-3940,-471,-894,437,1942,113,108,833,843,907,631,914,1178,1157,1589,1464
693743,233212,216144,275716,275716,712,904,-1885,-3971,-531,-37,2039,1274,106,100,833,843,907,631,914,1178,1157,1589,1464
694744,233752,216736,276184,276184,585,676,-2182,-3917,-582,-488,1535,42,110,111,832,843,907,631,914,1178,1157,1589,1464
695745,234348,217296,276652,276652,232,874,-2489,-3902,-707,-332,2450,-540,110,102,831,843,907,631,914,1178,1157,1589,1464
696746,234828,217848,277120,277120,957,922,-2845,-4100,-812,-1344,1939,-1675,115,115,832,843,907,631,914,1178,1157,1589,1464
697747,235400,218384,277588,277588,379,1020,-3105,-4265,-931,-1212,2106,-2021,119,108,830,995,1105,714,1122,1174,1187,1819,1653
698748,235944,218964,278056,278056,553,742,-3265,-4349,-1055,329,1379,-2890,118,124,830,995,1105,714,1122,1174,1187,1819,1653
699749,236548,219568,278528,278528,174,589,-3363,-4377,-1074,859,-5,-3659,117,118,830,995,1105,714,1122,1174,1187,1819,1653
700750,237120,220144,278996,278996,372,761,-3332,-4368,-1057,1253,-186,-3876,120,117,833,995,1105,714,1122,1174,1187,1819,1653
701751,237660,220692,279464,279464,570,934,-3253,-4167,-1035,1192,-1417,-3502,124,121,834,995,1105,714,1122,1174,1187,1819,1653
702752,238236,221204,279932,279932,342,1158,-3000,-4208,-962,-2,-1426,-2188,111,115,832,995,1105,714,1122,1174,1187,1819,1653
703753,238768,221804,280400,280400,616,605,-2882,-4017,-899,392,-1734,-1003,117,116,830,1211,1355,821,1231,1391,1354,2112,1915
704754,239352,222348,280868,280868,288,953,-2602,-4259,-894,1397,-3021,-1286,103,117,830,1211,1355,821,1231,1391,1354,2112,1915
705755,239860,222876,281336,281336,762,1052,-2373,-3760,-778,326,-2438,3931,115,122,833,1211,1355,821,1231,1391,1354,2112,1915
706759,240404,223400,281804,281804,535,1075,-2017,-3807,-587,-1681,-676,256,118,105,830,1211,1355,821,1231,1391,1354,2112,1915
707757,240880,223944,282272,282272,960,949,-1592,-4012,-724,1189,-1580,4062,100,99,829,1211,1355,821,1231,1391,1354,2112,1915
708758,241380,224508,282740,282740,809,821,-1195,-3689,-772,1626,-2194,6772,107,121,828,1078,1201,739,1059,1246,1188,1724,1576
709759,241880,225036,283208,283208,808,1045,-982,-3261,-509,396,-3160,7194,90,113,828,1078,1201,739,1059,1246,1188,1724,1576
710760,242288,225544,283676,283676,1385,1169,-644,-2884,-387,1494,-2229,9285,76,99,828,1078,1201,739,1059,1246,1188,1724,1576
711761,242636,226028,284144,284144,1763,1318,-293,-2750,-229,269,-2867,9444,66,108,823,1078,1201,739,1059,1246,1188,1724,1576
712762,242928,226604,284612,284612,2117,741,50,-2806,-46,-647,-2435,9699,53,106,817,1078,1201,739,1059,1246,1188,1724,1576
713763,243216,227088,285080,285080,2147,1315,347,-3037,85,-1645,-1847,9882,48,104,812,1078,1201,739,1059,1246,1188,1724,1576
714764,243480,227552,285548,285548,2302,1440,611,-3315,167,-1758,-1007,9073,29,98,808,1033,1133,712,1137,1030,1065,1550,1352
715765,243684,228036,286016,286016,2683,1315,856,-3568,290,-1314,-505,8847,23,91,804,1033,1133,712,1137,1030,1065,1550,1352
716766,243860,228520,286484,286484,2865,1315,993,-3184,358,-807,-451,9836,-15,96,797,1033,1133,712,1137,1030,1065,1550,1352
717767,244000,228956,286952,286952,3098,1615,1217,-3154,381,-837,-272,7985,-32,93,793,1033,1133,712,1137,1030,1065,1550,1352
718768,244120,229360,287420,287420,3232,1817,1366,-3049,639,-1298,-1933,6912,-96,88,785,1033,1133,712,1137,1030,1065,1550,1352
719769,244236,229776,287888,287888,3265,1743,1612,-2900,895,175,-1940,6647,-146,90,778,1426,1517,903,1690,1154,1280,2053,1612
720770,244356,230200,288356,288356,3249,1694,1806,-2479,1136,-146,-2725,7674,-164,95,774,1426,1517,903,1690,1154,1280,2053,1612
721771,244460,230692,288824,288824,3358,1269,2011,-2025,1157,522,-863,8700,-143,92,775,1426,1517,903,1690,1154,1280,2053,1612
722772,244548,231120,289292,289292,3467,1670,2369,-1630,1163,-645,-2752,8832,-211,89,772,1426,1517,903,1690,1154,1280,2053,1612
723773,244640,231564,289760,289760,3451,1570,2864,-1577,1257,-1026,-4227,9242,-292,73,778,1426,1517,903,1690,1154,1280,2053,1612
724774,244740,231972,290228,290228,3410,1797,3426,-1382,1346,-223,-4136,11986,-292,76,774,1426,1517,903,1690,1154,1280,2053,1612
725775,244808,232460,290696,290696,3620,1296,3912,-952,1544,-495,-5857,13329,-257,90,768,1858,1888,1056,1932,1500,1614,2635,1994
726776,244880,232836,291164,291164,3604,1999,4335,-402,1914,-942,-5878,15093,-195,79,759,1858,1888,1056,1932,1500,1614,2635,1994
727777,244924,233252,291632,291632,3790,1750,4470,356,2315,909,-5247,17177,-217,79,755,1858,1888,1056,1932,1500,1614,2635,1994
728778,244976,233644,292100,292100,3750,1902,4455,1013,2742,1365,-5145,17383,199,82,752,1858,1888,1056,1932,1500,1614,2635,1994
729779,245060,234036,292568,292568,3559,1904,4447,1425,3145,355,-3519,16857,136,88,744,1858,1888,1056,1932,1500,1614,2635,1994
730780,245128,234484,293036,293036,3669,1554,4556,1681,3478,719,-3707,17047,-278,69,757,1567,1618,928,1571,1551,1553,2543,2007
731781,245240,234872,293504,293504,3403,1931,4647,1851,3798,254,-3774,17595,-125,83,748,1567,1618,928,1571,1551,1553,2543,2007
732782,245336,235292,293972,293972,3512,1732,4680,1772,4143,-829,-3797,16803,-242,78,758,1567,1618,928,1571,1551,1553,2543,2007
733783,245432,235688,294440,294440,3521,1884,4645,1606,4355,-749,-3634,16784,-303,79,763,1567,1618,928,1571,1551,1553,2543,2007
734784,245592,236116,294912,294912,3129,1685,4677,1338,4488,-886,-3597,14779,-315,72,767,1567,1618,928,1571,1551,1553,2543,2007
735785,245780,236564,295380,295380,2960,1560,4729,1232,4517,-559,-3861,14281,-80,71,767,1567,1618,928,1571,1551,1553,2543,2007
736786,245944,236948,295848,295848,3118,1962,4807,1351,4483,11,-2819,13438,-44,72,780,1279,1391,852,1359,1623,1615,2614,2139
737787,246160,237364,296316,296316,2799,1764,4908,1549,4542,1550,-3621,12416,-80,62,782,1279,1391,852,1359,1623,1615,2614,2139
738788,246364,237776,296784,296784,2880,1790,5006,1796,4621,3134,-3148,11394,0,83,776,1279,1391,852,1359,1623,1615,2614,2139
739789,246564,238268,297252,297252,2912,1290,5062,2053,4680,3081,-3516,10766,-9,80,784,1279,1391,852,1359,1623,1615,2614,2139
740790,246796,238760,297720,297720,2718,1289,5067,2395,4774,2545,-2798,9350,-29,93,782,1279,1391,852,1359,1623,1615,2614,2139
741791,247004,239208,298188,298188,2874,1564,5058,2723,4817,3501,-3448,8217,7,77,788,1279,1453,870,1335,1615,1538,2519,2153
742792,247216,239680,298656,298656,2855,1414,5065,2923,4877,2503,-1328,6337,-13,88,790,1279,1453,870,1335,1615,1538,2519,2153
743793,247480,240220,299124,299124,2535,988,5056,3179,4986,2129,-2013,6384,-8,88,787,1279,1453,870,1335,1615,1538,2519,2153
744794,247732,240748,299592,299592,2616,1061,5017,3220,4982,1899,-925,5457,25,100,791,1279,1453,870,1335,1615,1538,2519,2153
745795,248012,241252,300060,300060,2445,1210,5068,3082,4794,1458,2176,5052,13,95,800,1279,1453,870,1335,1615,1538,2519,2153
746796,248276,241736,300528,300528,2550,1335,5145,2945,4741,275,235,4228,26,92,799,1279,1453,870,1335,1615,1538,2519,2153
747797,248508,242248,300996,300996,2756,1159,5318,2801,4851,-518,1332,3223,26,90,798,1340,1521,869,1294,1342,1267,1992,1788
748798,248796,242800,301464,301464,2410,907,5396,2641,5025,-1479,-385,2280,9,90,797,1340,1521,869,1294,1342,1267,1992,1788
749799,249072,243368,301932,301932,2490,804,5352,2682,5225,-1575,465,4345,33,91,796,1340,1521,869,1294,1342,1267,1992,1788
750800,249348,243888,302400,302400,2495,1103,5291,2681,5419,7,-174,3202,33,96,802,1340,1521,869,1294,1342,1267,1992,1788
751801,249696,244420,302868,302868,2048,1026,5123,3099,5731,215,560,5564,52,89,802,1340,1521,869,1294,1342,1267,1992,1788
752802,250016,245024,303336,303336,2226,573,4963,3626,5887,2420,1201,4187,67,108,802,1165,1310,760,1096,1101,1050,1580,1531
753803,250348,245580,303804,303804,2155,871,4899,3929,5875,1897,1364,3111,63,97,811,1165,1310,760,1096,1101,1050,1580,1531
754804,250688,246112,304272,304272,2108,1019,4873,4352,5765,1717,883,4806,55,97,811,1165,1310,760,1096,1101,1050,1580,1531
755805,251040,246648,304740,304740,2036,993,4900,4678,5624,2252,436,4383,61,104,809,1165,1310,760,1096,1101,1050,1580,1531
756807,251464,247180,305208,305208,1587,1016,4983,4728,5523,1470,-173,2554,65,110,809,1165,1310,760,1096,1101,1050,1580,1531
757807,251836,247804,305676,305676,1914,437,5283,4310,5455,-485,-2501,2211,74,102,812,1165,1310,760,1096,1101,1050,1580,1531
758808,252240,248364,306144,306144,1716,835,5463,3779,5318,-1024,-554,1451,90,101,817,970,1077,680,975,1203,1184,1741,1632
759809,252656,248932,306612,306612,1642,783,5612,3254,5274,-1435,-1480,2032,81,104,818,970,1077,680,975,1203,1184,1741,1632
760810,253100,249512,307080,307080,1467,705,5696,3127,5317,-1278,-908,-51,82,110,818,970,1077,680,975,1203,1184,1741,1632
761811,253620,250124,307548,307548,991,501,5806,3224,5242,-1413,-781,-350,91,101,819,970,1077,680,975,1203,1184,1741,1632
762812,254076,250672,308016,308016,1391,900,5894,3400,5094,-1279,-901,-2031,114,111,823,970,1077,680,975,1203,1184,1741,1632
763813,254548,251228,308484,308484,1291,847,5918,3368,5008,-198,-402,-2978,105,121,829,978,1074,727,1101,1377,1361,1989,1740
764814,255032,251796,308952,308952,1216,770,5813,3401,4960,826,407,-1738,96,112,822,978,1074,727,1101,1377,1361,1989,1740
765815,255552,252352,309420,309420,990,843,5687,3372,4933,774,1752,-1607,101,118,824,978,1074,727,1101,1377,1361,1989,1740
766816,256104,252972,309888,309888,788,439,5549,3471,4883,386,1822,-1625,113,129,825,978,1074,727,1101,1377,1361,1989,1740
767817,256600,253552,310356,310356,1137,686,5400,3583,4870,275,2141,-857,98,130,826,978,1074,727,1101,1377,1361,1989,1740
768818,257088,254072,310824,310824,1186,1060,5248,3718,4896,342,2460,-1393,105,121,830,978,1074,727,1101,1377,1361,1989,1740
769819,257588,254588,311296,311296,1111,1084,5088,3830,4960,647,932,-262,104,113,826,1135,1231,783,1209,1237,1224,1785,1590
770820,258084,255176,311764,311764,1135,631,5019,3902,5038,42,1045,276,106,116,824,1135,1231,783,1209,1237,1224,1785,1590
771821,258632,255704,312232,312232,808,1005,4859,3886,5133,-480,1104,379,102,113,824,1135,1231,783,1209,1237,1224,1785,1590
772822,259120,256264,312700,312700,1183,802,4779,3899,5307,-561,-789,2396,92,115,827,1135,1231,783,1209,1237,1224,1785,1590
773823,259660,256768,313168,313168,856,1151,4662,3988,5321,895,-274,2337,107,127,827,1135,1231,783,1209,1237,1224,1785,1590
774824,260152,257332,313636,313636,1155,774,4545,4294,5217,817,-706,2394,114,118,826,1072,1161,720,1062,1142,1111,1634,1564
775825,260656,257812,314104,314104,1079,1299,4603,4330,5153,-588,39,2160,97,117,825,1072,1161,720,1062,1142,1111,1634,1564
776826,261204,258300,314572,314572,802,1248,4498,4094,5015,167,554,2283,98,108,825,1072,1161,720,1062,1142,1111,1634,1564
777827,261704,258744,315040,315040,1102,1524,4519,3963,4996,-366,-1553,1622,95,113,822,1072,1161,720,1062,1142,1111,1634,1564
778828,262216,259184,315508,315508,1026,1550,4290,4111,4915,984,-39,3836,115,91,825,1072,1161,720,1062,1142,1111,1634,1564
779829,262724,259656,315976,315976,1050,1350,4141,4039,4819,869,28,1509,104,88,819,1072,1161,720,1062,1142,1111,1634,1564
780830,263260,260068,316444,316444,873,1726,3963,3893,4699,-801,-1588,2953,93,93,819,952,1065,683,972,1299,1255,1896,1818
781831,263824,260484,316912,316912,696,1702,3792,3753,4511,-1631,387,2102,111,98,821,952,1065,683,972,1299,1255,1896,1818
782832,264344,260880,317380,317380,969,1829,3539,3473,4308,-608,-137,2859,114,86,818,952,1065,683,972,1299,1255,1896,1818
783833,264868,261288,317848,317848,943,1755,3264,3209,4147,-800,1067,1823,106,75,819,952,1065,683,972,1299,1255,1896,1818
784834,265392,261676,318316,318316,942,1882,2996,2559,4039,-1602,125,1273,109,79,814,952,1065,683,972,1299,1255,1896,1818
785835,265888,262040,318784,318784,1116,2035,2667,2222,3871,-2144,144,1272,109,80,816,965,1096,725,1051,1572,1545,2369,2163
786836,266468,262380,319252,319252,588,2188,2348,1809,3677,-2032,883,1510,121,58,815,965,1096,725,1051,1572,1545,2369,2163
787837,267024,262724,319720,319720,736,2166,2003,1680,3465,-910,-284,1076,123,63,811,965,1096,725,1051,1572,1545,2369,2163
788838,267536,263088,320188,320188,1010,2044,1637,1431,3250,-1741,-46,2235,122,42,811,965,1096,725,1051,1572,1545,2369,2163
789839,268056,263384,320656,320656,959,2473,1305,1043,3104,-1987,1639,2470,111,48,811,965,1096,725,1051,1572,1545,2369,2163
790840,268624,263644,321124,321124,656,2703,798,785,3066,-1607,-203,2377,125,38,812,1051,1202,774,1051,1572,1545,2369,2163
791841,269212,263916,321592,321592,528,2633,296,325,2936,-2069,1397,2430,110,20,803,1051,1202,774,1113,1626,1560,2392,2240
792842,269760,264216,322060,322060,776,2462,-219,114,2783,-2233,837,3271,125,11,798,1051,1202,774,1113,1626,1560,2392,2240
793843,270316,264492,322528,322528,724,2616,-671,-112,2669,-1522,567,2870,125,17,803,1051,1202,774,1113,1626,1560,2392,2240
794844,270852,264744,322996,322996,848,2772,-1071,-137,2534,-1133,256,4828,125,15,804,1051,1202,774,1113,1626,1560,2392,2240
795845,271420,264980,323464,323464,645,2877,-1408,-87,2378,-1587,-739,4690,110,-16,801,1051,1202,774,1113,1626,1560,2392,2240
796846,272016,265240,323932,323932,467,2732,-1752,-222,2199,-1761,312,5041,118,-22,796,1035,1196,751,1020,1508,1402,2149,2113
797847,272596,265484,324400,324400,564,2838,-2110,-410,1963,-1880,343,5073,119,-15,797,1035,1196,751,1020,1508,1402,2149,2113
798848,273172,265708,324868,324868,587,2969,-2466,-716,1800,-2279,753,4144,106,-26,801,1035,1196,751,1020,1508,1402,2149,2113
799849,273712,265928,325336,325336,810,3000,-2780,-940,1625,-1277,511,4539,115,-49,794,1035,1196,751,1020,1508,1402,2149,2113
800850,274232,266140,325804,325804,934,3056,-3062,-1035,1457,-1620,-600,3950,109,-49,795,1035,1196,751,1020,1508,1402,2149,2113
801851,274796,266392,326272,326272,656,2811,-3158,-1246,1303,-2465,1168,3916,112,-43,790,950,1106,705,957,1479,1387,2103,2014
802852,275420,266624,326740,326740,277,2942,-3316,-1366,1145,-1776,-10,4350,104,-12,787,950,1106,705,957,1479,1387,2103,2014
803853,275972,266848,327208,327208,725,2998,-3476,-1590,1118,-2255,614,4162,102,-33,796,950,1106,705,957,1479,1387,2103,2014
804854,276516,267084,327680,327680,774,2929,-3704,-1801,1102,-2170,1536,3947,116,-56,795,950,1106,705,957,1479,1387,2103,2014
805855,277060,267292,328148,328148,772,3110,-3769,-2186,1064,-2490,2088,2026,113,-40,791,950,1106,705,957,1479,1387,2103,2014
806856,277560,267504,328616,328616,1046,3091,-3854,-2423,1014,-2321,1563,1352,104,-58,793,950,1106,705,957,1479,1387,2103,2014
807857,278140,267700,329084,329084,543,3198,-3946,-2628,966,-2048,2234,1715,111,-71,788,975,1113,726,1058,1440,1412,2081,1852
808858,278668,267916,329552,329552,867,3079,-4038,-2831,1004,-1982,2033,5,106,-101,788,975,1113,726,1058,1440,1412,2081,1852
809859,279216,268116,330020,330020,740,3186,-4203,-2913,1054,-1891,2184,2426,102,-66,789,975,1113,726,1058,1440,1412,2081,1852
810860,279748,268376,330488,330488,838,2816,-4326,-2786,955,-2875,2102,1324,113,-77,790,975,1113,726,1058,1440,1412,2081,1852
811861,280288,268660,330956,330956,787,2670,-4370,-2900,761,-788,1815,-49,106,1,788,975,1113,726,1058,1440,1412,2081,1852
812862,280892,268992,331424,331424,383,2374,-4307,-3344,860,-986,1383,-1987,121,10,796,1118,1217,779,1211,1290,1295,1855,1615
813863,281456,269340,331892,331892,631,2277,-4440,-3743,1112,-429,1001,-494,116,28,799,1118,1217,779,1211,1290,1295,1855,1615
814864,281980,269736,332360,332360,879,1978,-4773,-4053,1346,-278,1897,774,96,44,804,1118,1217,779,1211,1290,1295,1855,1615
815865,282504,270172,332828,332828,878,1729,-5159,-4161,1406,-342,1079,1800,109,52,808,1118,1217,779,1211,1290,1295,1855,1615
816866,283028,270660,333296,333296,877,1404,-5399,-4193,1291,-716,177,1190,128,75,813,1118,1217,779,1211,1290,1295,1855,1615
817867,283624,271164,333764,333764,424,1303,-5360,-4185,1176,-877,91,1308,105,66,816,1118,1217,779,1211,1290,1295,1855,1615
818868,284208,271704,334232,334232,496,1076,-5242,-4109,1118,-399,-793,2416,114,72,818,1137,1189,766,1144,1232,1222,1752,1608
819869,284816,272244,334700,334700,342,1074,-5162,-3971,1058,700,-1158,3162,126,74,823,1137,1189,766,1144,1232,1222,1752,1608
820870,285392,272756,335168,335168,540,1248,-5029,-3928,1059,1147,-435,2251,125,86,828,1137,1189,766,1144,1232,1222,1752,1608
821871,285940,273232,335636,335636,713,1473,-4791,-3920,1135,1163,-1511,1052,120,77,828,1137,1189,766,1144,1232,1222,1752,1608
822872,286540,273836,336104,336104,385,670,-4626,-3782,1154,1045,-1647,1763,127,78,826,1137,1189,766,1144,1232,1222,1752,1608
823873,287132,274428,336572,336572,432,742,-4529,-3655,1160,270,-1042,1536,126,89,822,978,1064,699,1004,1312,1267,1856,1699
824874,287740,275004,337040,337040,328,839,-4434,-3470,1181,468,-861,1161,114,101,832,978,1064,699,1004,1312,1267,1856,1699
825875,288360,275572,337508,337508,249,887,-4254,-3379,1280,952,103,319,127,95,832,978,1064,699,1004,1312,1267,1856,1699
826876,289016,276124,337976,337976,20,985,-4243,-3225,1407,1252,2088,1140,126,101,832,978,1064,699,1004,1312,1267,1856,1699
827877,289752,276756,338444,338444,-487,481,-4418,-3014,1276,1379,3373,737,133,95,832,978,1064,699,1004,1312,1267,1856,1699
828878,290372,277336,338912,338912,235,803,-4472,-3106,1070,-780,3165,-1092,114,105,832,978,1064,699,1004,1312,1267,1856,1699
829879,290880,277888,339380,339380,934,976,-4651,-3274,1078,-2748,1918,-1291,121,112,832,978,1088,701,1078,1251,1243,1837,1622
830880,291376,278464,339848,339848,1008,823,-4888,-3328,1297,-2996,-413,-995,113,104,833,978,1088,701,1078,1251,1243,1837,1622
831881,292008,279004,340316,340316,154,1046,-5122,-3210,1344,-40,442,-785,128,105,826,978,1088,701,1078,1251,1243,1837,1622
832882,292712,279644,340784,340784,-302,417,-5172,-3135,1412,-380,-587,-2745,132,101,827,978,1088,701,1078,1251,1243,1837,1622
833883,293312,280204,341252,341252,345,915,-5164,-2947,1473,-482,-50,-842,131,110,831,978,1088,701,1078,1251,1243,1837,1622
834884,293948,280796,341720,341720,116,712,-5104,-3153,1382,-952,1042,-2549,124,100,834,1075,1160,739,1152,1215,1229,1778,1586
835885,294580,281376,342188,342188,137,784,-5105,-3193,1222,-309,53,401,118,113,829,1075,1160,739,1152,1215,1229,1778,1586
836886,295136,282032,342656,342656,610,305,-5071,-3164,1173,626,-2440,211,132,115,832,1075,1160,739,1152,1215,1229,1778,1586
837887,295796,282568,343124,343124,-45,1053,-5020,-2938,1204,1359,-1355,1090,112,120,833,1075,1160,739,1152,1215,1229,1778,1586
838888,296356,283152,343592,343592,578,750,-4812,-2886,1028,1979,-1131,1699,110,104,834,1075,1160,739,1152,1215,1229,1778,1586
839889,296952,283684,344064,344064,350,1074,-4597,-2740,844,590,-2157,1719,115,110,832,1075,1160,739,1152,1215,1229,1778,1586
840890,297524,284320,344532,344532,497,420,-4446,-2789,792,-14,-2194,1101,126,110,832,1054,1125,736,1090,1224,1205,1716,1576
841891,298084,284868,345000,345000,570,968,-4426,-2819,755,320,-1437,620,118,112,831,1054,1125,736,1090,1224,1205,1716,1576
842892,298692,285464,345468,345468,266,664,-4439,-2865,666,1254,-725,495,109,106,835,1054,1125,736,1090,1224,1205,1716,1576
843893,299228,286020,345936,345936,715,912,-4481,-2720,554,1562,59,-30,133,105,830,1054,1125,736,1090,1224,1205,1716,1576
844894,299796,286588,346404,346404,512,835,-4565,-2621,538,851,97,323,117,121,834,1054,1125,736,1090,1224,1205,1716,1576
845895,300344,287156,346872,346872,635,832,-4644,-2633,518,114,340,-437,127,104,829,1036,1128,723,1073,1206,1183,1752,1612
846896,300904,287732,347340,347340,558,780,-4701,-2812,525,-1208,422,-137,117,108,831,1036,1128,723,1073,1206,1183,1752,1612
847897,301444,288264,347808,347808,681,1053,-4751,-3016,526,-392,1548,-164,123,117,831,1036,1128,723,1073,1206,1183,1752,1612
848898,302072,288844,348276,348276,128,750,-4804,-3183,596,-312,1041,-666,127,121,832,1036,1128,723,1073,1206,1183,1752,1612
849899,302640,289460,348744,348744,500,522,-4847,-3282,696,-855,979,-1086,113,125,828,1036,1128,723,1073,1206,1183,1752,1612
850900,303252,290052,349212,349212,222,669,-4832,-3251,780,-673,437,-595,137,123,834,1036,1128,723,1073,1206,1183,1752,1612
851901,303856,290568,349680,349680,268,1143,-4823,-3073,836,414,-138,-568,129,120,834,1022,1135,712,1062,1262,1239,1868,1714
852902,304428,291164,350148,350148,466,640,-4710,-2964,922,433,111,247,114,124,833,1022,1135,712,1062,1262,1239,1868,1714
853903,305080,291684,350616,350616,-39,1113,-4624,-2891,975,655,912,435,112,125,827,1022,1135,712,1062,1262,1239,1868,1714
854904,305644,292320,351084,351084,509,384,-4618,-2914,960,914,361,452,129,120,833,1022,1135,712,1062,1262,1239,1868,1714
855905,306192,292904,351552,351552,607,706,-4621,-2944,927,547,528,61,122,117,831,1022,1135,712,1062,1262,1239,1868,1714
856906,306752,293432,352020,352020,530,1055,-4631,-3015,910,647,25,-952,108,115,835,1008,1123,714,1060,1274,1246,1824,1658
857907,307288,294016,352488,352488,678,702,-4587,-3003,963,297,-1236,342,116,130,832,1008,1123,714,1060,1274,1246,1824,1658
858908,307896,294632,352956,352956,225,498,-4593,-3121,852,1712,-1231,-469,113,116,830,1008,1123,714,1060,1274,1246,1824,1658
859909,308424,295168,353424,353424,723,997,-4329,-2874,511,2957,-988,2973,114,111,831,1008,1123,714,1060,1274,1246,1824,1658
860910,308900,295712,353892,353892,1048,945,-4145,-2291,532,-353,-2100,1712,108,123,835,1008,1123,714,1060,1274,1246,1824,1658
861911,309392,296284,354360,354360,947,767,-3650,-2516,399,2544,-3179,902,106,119,829,1008,1123,714,1060,1274,1246,1824,1658
862912,309796,296936,354828,354828,1499,263,-3242,-2347,225,2563,-663,6315,88,129,826,1044,1138,738,1104,1201,1188,1702,1521
863913,310180,297504,355296,355296,1626,785,-2830,-2276,264,1899,-3487,5307,81,138,828,1044,1138,738,1104,1201,1188,1702,1521
864914,310480,298156,355764,355764,2155,256,-2442,-1959,248,2421,-3395,6642,58,120,824,1044,1138,738,1104,1201,1188,1702,1521
865915,310736,298740,356232,356232,2435,678,-2000,-1265,231,1377,-1760,7453,48,132,818,1044,1138,738,1104,1201,1188,1702,1521
866916,310940,299392,356700,356700,2767,249,-1486,-1006,225,637,-2214,6295,21,134,813,1044,1138,738,1104,1201,1188,1702,1521
867917,311092,300112,357168,357168,3099,-183,-1176,-513,161,1716,-634,7957,-4,130,806,1159,1242,793,1321,1085,1142,1677,1405
868918,311252,300776,357636,357636,3057,163,-906,-244,286,818,-798,7597,-80,115,801,1159,1242,793,1321,1085,1142,1677,1405
869919,311384,301424,358104,358104,3240,258,-847,248,445,2393,1514,8620,-77,124,792,1159,1242,793,1321,1085,1142,1677,1405
870920,311496,302140,358572,358572,3374,-173,-914,811,602,2646,-1118,8196,-193,129,792,1159,1242,793,1321,1085,1142,1677,1405
871921,311608,302824,359040,359040,3383,22,-1060,1313,686,2537,2568,8993,-281,110,791,1159,1242,793,1321,1085,1142,1677,1405
872922,311692,303444,359508,359508,3567,418,-897,1589,673,1404,338,6587,-306,121,782,1159,1242,793,1321,1085,1142,1677,1405
873923,311756,304112,359976,359976,3702,113,-589,2164,584,684,1464,5990,-263,119,784,1497,1511,908,1745,1151,1303,2007,1543
874924,311800,304772,360448,360448,3800,159,-189,2629,640,-306,-2443,8314,-34,128,775,1497,1511,908,1745,1151,1303,2007,1543
875925,311816,305436,360916,360916,3800,129,54,3303,757,356,-814,8390,254,124,759,1497,1511,908,1745,1151,1303,2007,1543
876926,311844,306148,361384,361384,3800,-177,439,3779,891,2782,-3347,10182,256,124,764,1497,1511,908,1745,1151,1303,2007,1543
877927,311892,306812,361852,361852,3800,118,885,4421,1086,2839,-3195,9760,239,118,764,1497,1511,908,1745,1151,1303,2007,1543
878928,311936,307448,362320,362320,3800,289,1495,4929,1214,2707,-4325,9602,244,118,764,1563,1504,948,1758,1478,1655,2464,1787
879929,312012,308048,362788,362788,3689,511,2071,5515,1330,1942,-4206,10239,270,106,768,1563,1504,948,1758,1478,1655,2464,1787
880930,312092,308652,363256,363256,3674,483,2531,6176,1525,1792,-4745,11179,-83,127,768,1563,1504,948,1758,1478,1655,2464,1787
881931,312136,309172,363724,363724,3800,1006,2777,7079,1746,2609,-3875,10290,-126,119,758,1563,1504,948,1758,1478,1655,2464,1787
882932,312176,309764,364192,364192,3800,553,3141,7271,1810,5549,-5930,8209,264,106,757,1563,1504,948,1758,1478,1655,2464,1787
883936,312200,310312,364660,364660,3800,826,3441,7210,1957,4121,-7404,11528,250,113,757,1563,1504,948,1758,1478,1655,2464,1787
884934,312248,310876,365128,365128,3800,724,3640,7169,2076,3257,-6129,12554,236,128,762,1335,1309,880,1543,1410,1509,2068,1558
885935,312300,311532,365596,365596,3800,144,3635,7494,2118,2958,-5113,14410,264,108,760,1335,1309,880,1543,1410,1509,2068,1558
886936,312384,312140,366064,366064,3710,441,3481,7939,2196,2260,-3029,12657,271,108,760,1335,1309,880,1543,1410,1509,2068,1558
887937,312516,312680,366532,366532,3418,864,3395,7929,2246,3332,-2932,11110,-17,132,768,1335,1309,880,1543,1410,1509,2068,1558
888938,312656,313252,367000,367000,3376,662,3272,8025,2334,4434,-327,12165,-252,107,755,1335,1309,880,1543,1410,1509,2068,1558
889939,312836,313868,367468,367468,3133,383,3177,7874,2323,3730,-1105,10494,-206,114,780,1215,1242,804,1367,1251,1317,1969,1638
890940,312996,314468,367936,367936,3266,480,2922,8255,2300,3159,-1032,13042,-72,104,778,1215,1242,804,1367,1251,1317,1969,1638
891941,313160,315016,368404,368404,3248,803,2810,8503,2399,3488,-2323,9055,-173,115,789,1215,1242,804,1367,1251,1317,1969,1638
892942,313308,315556,368872,368872,3356,851,2904,8612,2571,3347,-3487,8958,-162,106,787,1215,1242,804,1367,1251,1317,1969,1638
893943,313480,316140,369340,369340,3213,573,3216,8332,2755,3428,-2026,7867,-249,115,787,1215,1242,804,1367,1251,1317,1969,1638
894944,313684,316652,369808,369808,3020,1022,3466,7916,2836,3250,-3220,6976,-129,112,781,1215,1242,804,1367,1251,1317,1969,1638
895945,313896,317172,370276,370276,2976,971,3732,7190,2649,2596,-2108,7591,-48,113,790,1226,1350,830,1292,1507,1485,2435,2155
896946,314104,317696,370744,370744,3007,945,3880,6365,2391,2594,-3108,4391,-29,96,789,1226,1350,830,1292,1507,1485,2435,2155
897947,314340,318188,371212,371212,2838,1144,3946,5496,2226,436,-2730,6864,-33,99,791,1226,1350,830,1292,1507,1485,2435,2155
898948,314572,318712,371680,371680,2869,943,3507,5118,2112,2963,197,9454,7,106,792,1226,1350,830,1292,1507,1485,2435,2155
899949,314828,319140,372148,372148,2724,1544,3170,3994,2037,8589,-1290,7644,1,100,792,1226,1350,830,1292,1507,1485,2435,2155
900950,315048,319544,372616,372616,2955,1695,2992,3893,2231,9561,-2406,12395,4,88,793,1257,1515,859,1205,1567,1421,2467,2511
901951,315268,319936,373084,373084,2961,1772,3026,4977,2595,4140,-3058,12630,-15,77,791,1257,1515,859,1205,1567,1421,2467,2511
902952,315500,320344,373552,373552,2892,1674,3126,5511,2547,3009,-3829,7725,-31,89,785,1257,1515,859,1205,1567,1421,2467,2511
903953,315716,320712,374020,374020,2998,1926,3103,4997,2466,3765,-2348,8371,-15,81,782,1257,1515,859,1205,1567,1421,2467,2511
904954,315992,321032,374488,374488,2628,2230,2885,3838,2298,5737,-454,7102,-15,59,783,1257,1515,859,1205,1567,1421,2467,2511
905955,316236,321340,374956,374956,2833,2308,2390,3206,2040,3112,1520,9450,31,52,780,1257,1515,859,1205,1567,1421,2467,2511
906956,316464,321652,375424,375424,2939,2287,2018,3241,1659,3516,1360,10351,0,46,782,1193,1517,821,1089,1471,1316,2286,2332
907957,316700,321956,375892,375892,2895,2341,1795,3235,1528,343,1419,9630,-19,44,776,1193,1517,821,1089,1471,1316,2286,2332
908958,316920,322200,376360,376360,3001,2722,1838,2163,1157,3226,-987,7623,-11,42,775,1193,1517,821,1089,1471,1316,2286,2332
909959,317200,322480,376832,376832,2630,2501,2211,724,627,1570,2255,8409,-14,12,775,1193,1517,821,1089,1471,1316,2286,2332
910960,317432,322712,377300,377300,2936,2807,2662,520,288,-4762,74,8911,22,24,769,1193,1517,821,1089,1471,1316,2286,2332
911961,317664,322964,377768,377768,2942,2687,3062,805,-60,-4062,-1222,4785,-4,-3,779,1115,1373,785,1105,1459,1357,2208,2053
912962,317936,323184,378236,378236,2697,2894,3193,156,-96,-3265,-338,1083,8,9,771,1115,1373,785,1105,1459,1357,2208,2053
913963,318236,323416,378704,378704,2526,2824,2902,-1218,-188,360,3079,2208,34,-12,770,1115,1373,785,1105,1459,1357,2208,2053
914964,318484,323660,379172,379172,2856,2755,2546,-2554,-516,984,4329,2961,50,-5,770,1115,1373,785,1105,1459,1357,2208,2053
915965,318840,323884,379640,379640,2184,2886,2302,-2690,-999,1093,3642,4218,26,0,775,1115,1373,785,1105,1459,1357,2208,2053
916966,319156,324156,380108,380108,2438,2591,2341,-2004,-1294,-117,2897,4913,55,-5,772,1115,1373,785,1105,1459,1357,2208,2053
917967,319440,324412,380576,380576,2642,2696,2443,-1808,-1418,1791,1095,4621,54,14,779,1167,1335,789,1216,1200,1201,1755,1619
918968,319752,324692,381044,381044,2471,2550,2499,-1867,-1272,2061,-1875,9109,34,20,781,1167,1335,789,1216,1200,1201,1755,1619
919969,320084,324972,381512,381512,2349,2555,2535,-1968,-904,-2901,-123,7834,44,31,776,1167,1335,789,1216,1200,1201,1755,1619
920970,320436,325264,381980,381980,2227,2484,2570,-1992,-739,-6028,-125,5531,48,36,780,1167,1335,789,1216,1200,1201,1755,1619
921971,320820,325568,382448,382448,2029,2413,2593,-2412,-780,-5060,2931,920,60,29,779,1167,1335,789,1216,1200,1201,1755,1619
922972,321216,325840,382916,382916,1956,2618,2515,-3093,-872,299,-467,466,73,28,786,1131,1256,780,1168,1136,1163,1696,1560
923973,321640,326132,383384,383384,1782,2497,2332,-3555,-936,1136,162,1490,79,13,791,1131,1256,780,1168,1136,1163,1696,1560
924974,322096,326384,383852,383852,1582,2753,2140,-3522,-1173,-397,1460,1908,93,22,789,1131,1256,780,1168,1136,1163,1696,1560
925975,322564,326648,384320,384320,1507,2683,2148,-3129,-1510,-1355,671,1688,85,1,792,1131,1256,780,1168,1136,1163,1696,1560
926976,323108,326916,384788,384788,1030,2662,2337,-2910,-1914,-1279,228,1064,97,17,790,1131,1256,780,1168,1136,1163,1696,1560
927977,323612,327196,385256,385256,1279,2592,2526,-3109,-2031,-3299,280,1123,101,20,791,1131,1256,780,1168,1136,1163,1696,1560
928978,324132,327488,385724,385724,1178,2521,2487,-3176,-2114,-3951,556,3463,102,36,798,1059,1128,727,1072,1324,1296,1908,1708
929979,324700,327824,386192,386192,876,2250,2427,-3097,-2427,-1113,520,1705,96,31,799,1059,1128,727,1072,1324,1296,1908,1708
930980,325212,328184,386660,386660,1225,2102,2579,-3221,-2535,-1005,327,-129,111,59,801,1059,1128,727,1072,1324,1296,1908,1708
931983,325860,328556,387128,387128,370,2029,2787,-3525,-2508,-802,2030,1579,115,53,807,1059,1128,727,1072,1324,1296,1908,1708
932982,326440,328924,387596,387596,793,2057,2694,-3756,-2562,50,1761,1755,119,62,807,1059,1128,727,1072,1324,1296,1908,1708
933983,326960,329264,388064,388064,1166,2235,2512,-4104,-2517,-676,3411,2062,109,56,814,964,1063,697,1030,1381,1335,1967,1781
934984,327540,329648,388532,388532,789,1962,2350,-4037,-2529,1408,946,1543,111,59,812,964,1063,697,1030,1381,1335,1967,1781
935985,328080,330020,389000,389000,1037,2039,2300,-3756,-2482,940,1765,1462,117,67,807,964,1063,697,1030,1381,1335,1967,1781
936986,328692,330372,389468,389468,583,2167,2269,-3679,-2438,1068,2094,2450,110,57,812,964,1063,697,1030,1381,1335,1967,1781
937987,329304,330728,389936,389936,580,2145,2175,-3482,-2346,1699,428,1218,114,58,808,964,1063,697,1030,1381,1335,1967,1781
938988,329856,331092,390404,390404,953,2098,2088,-3783,-2106,321,1940,1052,122,48,806,964,1063,697,1030,1381,1335,1967,1781
939989,330392,331472,390872,390872,1051,2000,1872,-3773,-1983,454,949,1894,114,48,812,1019,1141,726,1081,1292,1272,1873,1733
940990,330928,331828,391340,391340,1049,2152,1614,-3927,-1825,250,1214,-296,121,64,810,1019,1141,726,1081,1292,1272,1873,1733
941991,331548,332160,391808,391808,521,2306,1398,-4011,-1582,-689,1573,671,109,55,811,1019,1141,726,1081,1292,1272,1873,1733
942992,332112,332548,392276,392276,868,1958,1128,-3850,-1582,-81,-588,431,133,51,808,1019,1141,726,1081,1292,1272,1873,1733
943993,332668,333008,392744,392744,916,1508,1026,-3879,-1592,-966,-152,-147,131,54,809,1019,1141,726,1081,1292,1272,1873,1733
944994,333208,333396,393216,393216,1015,1960,1023,-4123,-1423,-2060,261,1329,108,71,812,1111,1234,778,1143,1287,1254,1878,1733
945995,333776,333768,393684,393684,837,2062,961,-4261,-1442,-819,427,3028,135,57,819,1111,1234,778,1143,1287,1254,1878,1733
946996,334408,334196,394152,394152,433,1713,805,-4124,-1567,-816,-1193,1532,117,51,812,1111,1234,778,1143,1287,1254,1878,1733
947997,335012,334636,394620,394620,605,1639,815,-4283,-1651,-1542,-11,-86,116,70,810,1111,1234,778,1143,1287,1254,1878,1733
948998,335556,335028,395088,395088,978,1941,955,-4587,-1730,-1343,765,-98,108,69,818,1111,1234,778,1143,1287,1254,1878,1733
949999,336108,335404,395556,395556,926,2043,964,-4599,-1888,-146,-173,2514,120,58,819,1111,1234,778,1143,1287,1254,1878,1733
951000,336652,335820,396024,396024,974,1794,837,-4473,-2050,341,14,1496,111,55,812,1067,1167,748,1082,1356,1309,1930,1733
952001,337248,336312,396492,396492,646,1319,842,-4424,-2201,761,38,1050,116,73,812,1067,1167,748,1082,1356,1309,1930,1733
953002,337832,336844,396960,396960,718,1067,995,-4633,-2193,-900,2377,708,123,83,815,1067,1167,748,1082,1356,1309,1930,1733
954003,338392,337312,397428,397428,866,1467,949,-4763,-2164,322,2268,2956,107,68,823,1067,1167,748,1082,1356,1309,1930,1733
955004,338932,337872,397896,397896,989,890,630,-4577,-2131,1421,622,2671,119,81,823,1067,1167,748,1082,1356,1309,1930,1733
956005,339452,338420,398364,398364,1113,963,536,-4394,-2030,766,2343,1214,113,78,818,1002,1090,708,1060,1304,1301,1880,1668
957006,340016,338968,398832,398832,835,961,631,-4021,-1961,726,146,334,106,89,826,1002,1090,708,1060,1304,1301,1880,1668
958007,340592,339536,399300,399300,758,834,681,-3775,-1897,836,1304,2546,109,82,824,1002,1090,708,1060,1304,1301,1880,1668
959008,341108,340076,399768,399768,1132,1007,665,-3564,-1756,1180,-63,1396,98,95,826,1002,1090,708,1060,1304,1301,1880,1668
960009,341652,340620,400236,400236,955,980,503,-3361,-1566,961,-133,2915,92,90,828,1002,1090,708,1060,1304,1301,1880,1668
961010,342148,341348,400704,400704,1254,-176,471,-3096,-1484,20,330,1397,100,106,824,1002,1090,708,1060,1304,1301,1880,1668
962011,342700,341880,401172,401172,902,1047,561,-2816,-1407,-349,-678,-500,108,96,825,1020,1105,725,1125,1254,1274,1826,1599
963012,343192,342444,401640,401640,1276,845,642,-2901,-1321,191,12,299,91,83,828,1020,1105,725,1125,1254,1274,1826,1599
964013,343708,343004,402108,402108,1125,867,627,-2806,-1359,-812,-544,841,98,97,825,1020,1105,725,1125,1254,1274,1826,1599
965014,344204,343592,402576,402576,1250,690,448,-3099,-1462,-3759,-349,-755,114,100,824,1020,1105,725,1125,1254,1274,1826,1599
966015,344740,344196,403044,403044,998,586,330,-3266,-1674,-2531,-449,-481,113,111,825,1020,1105,725,1125,1254,1274,1826,1599
967016,345252,344752,403512,403512,1147,884,334,-3277,-1790,-889,-1385,-572,109,93,825,1103,1173,769,1212,1240,1252,1799,1559
968017,345840,345320,403980,403980,669,807,321,-3152,-1812,-421,-993,-353,110,112,828,1103,1173,769,1212,1240,1252,1799,1559
969018,346332,345880,404448,404448,1268,854,431,-2968,-1996,-931,185,1413,107,110,825,1103,1173,769,1212,1240,1252,1799,1559
970019,346916,346472,404916,404916,691,651,463,-2468,-2259,732,323,2408,110,97,830,1103,1173,769,1212,1240,1252,1799,1559
971020,347408,347104,405384,405384,1265,397,634,-2102,-2377,1512,553,2034,99,106,824,1103,1173,769,1212,1240,1252,1799,1559
972021,347896,347676,405852,405852,1289,770,639,-1490,-2456,1817,154,3915,122,105,829,1103,1173,769,1212,1240,1252,1799,1559
973022,348484,348176,406320,406320,662,1219,734,-1109,-2548,1076,1416,3116,129,102,826,1090,1152,750,1153,1254,1266,1818,1604
974023,349012,348732,406788,406788,1035,867,795,-742,-2585,818,944,3354,106,113,825,1090,1152,750,1153,1254,1266,1818,1604
975024,349580,349328,407256,407256,783,614,766,-396,-2575,910,-97,4127,116,108,826,1090,1152,750,1153,1254,1266,1818,1604
976025,350128,349888,407724,407724,906,837,746,-244,-2507,473,1367,2148,130,118,827,1090,1152,750,1153,1254,1266,1818,1604
977026,350712,350420,408192,408192,678,1010,668,-245,-2406,-574,1224,1898,114,117,831,1090,1152,750,1153,1254,1266,1818,1604
978027,351332,351008,408660,408660,449,657,562,-456,-2268,-1406,1359,285,125,114,828,1048,1115,736,1161,1284,1327,1911,1658
979028,351900,351608,409128,409128,772,579,466,-538,-2216,-1217,1186,223,133,110,828,1048,1115,736,1161,1284,1327,1911,1658
980029,352492,352164,409600,409600,619,852,399,-680,-2210,-483,123,-508,140,123,833,1048,1115,736,1161,1284,1327,1911,1658
981030,353100,352704,410068,410068,515,950,434,-779,-2207,-449,-111,-741,115,117,832,1048,1115,736,1161,1284,1327,1911,1658
982031,353764,353268,410536,410536,161,798,537,-820,-2222,-939,-652,-763,117,104,830,1048,1115,736,1161,1284,1327,1911,1658
983032,354432,353804,411004,411004,131,971,624,-960,-2287,-1076,279,-163,125,126,830,1048,1115,736,1161,1284,1327,1911,1658
