%  Data file recorded 2017/4/10  9:2:56
%  Stride Frequency         = [1, 1]
%  Lead In /Lead Out        = 
%  Deltas (Fractional)      = [0.25, 0.25, 0.25],[0.25, 0.25, 0.25]
%  Phase                    = 32768
%  Experiment.py 
%  Motor Gains    = [5000, 400, 200, 0, 300, 5000, 400, 200, 0, 300]
% Columns: 
% time | Right Leg Pos | Left Leg Pos | Commanded Right Leg Pos | Commanded Left Leg Pos | DCR | DCL | GyroX | GyroY | GyroZ | AX | AY | AZ | RBEMF | LBEMF | VBatt | S1 | S2 | S3 | S4 | S5 | S6 | S7 | S8
856,17396,-47472,0,0,-3800,3800,24,0,10,157,377,3854,-2,-7,858,1825,1925,2148,2316,2154,1881,1949,2122
1857,17384,-47460,0,0,-3800,3800,24,1,9,148,382,3879,5,3,859,1825,1925,2148,2316,2154,1881,1949,2122
2858,17392,-47468,0,0,-3800,3800,25,1,9,154,380,3908,-9,3,859,1825,1925,2148,2316,2154,1881,1949,2122
3859,17376,-47464,0,0,-3800,3800,27,4,9,176,365,3907,2,-7,859,1825,1925,2148,2316,2154,1881,1949,2122
4860,17384,-47456,0,0,-3800,3800,27,5,10,154,387,3884,-9,-9,859,1825,1926,2148,2315,2156,1883,1950,2123
5861,17392,-47476,0,0,-3800,3800,25,3,9,145,410,3884,8,0,858,1825,1926,2148,2315,2156,1883,1950,2123
6862,17396,-47468,0,0,-3800,3800,27,3,9,147,428,3903,-9,6,858,1825,1926,2148,2315,2156,1883,1950,2123
7863,17396,-47456,0,0,-3800,3800,27,3,10,132,423,3876,4,1,858,1825,1926,2148,2315,2156,1883,1950,2123
8864,17388,-47468,0,0,-3800,3800,25,4,10,129,408,3870,-4,-9,858,1825,1926,2148,2315,2156,1883,1950,2123
9865,17392,-47456,0,0,-3800,3800,25,4,10,130,386,3889,6,3,859,1825,1926,2148,2315,2156,1883,1950,2123
10866,17392,-47464,0,0,-3800,3800,25,2,11,117,404,3869,2,-8,859,1825,1925,2148,2317,2158,1885,1951,2126
11867,17388,-47464,0,0,-3800,3800,23,3,12,120,399,3876,-10,3,859,1825,1925,2148,2317,2158,1885,1951,2126
12868,17396,-47464,0,0,-3800,3800,23,3,12,151,393,3900,8,-3,858,1825,1925,2148,2317,2158,1885,1951,2126
13869,17384,-47464,0,0,-3800,3800,24,3,9,141,334,3878,0,1,859,1825,1925,2148,2317,2158,1885,1951,2126
14870,17388,-47464,0,0,-3800,3800,25,4,8,127,340,3876,-10,2,858,1825,1925,2148,2317,2158,1885,1951,2126
15871,17384,-47464,0,0,-3800,3800,25,1,8,160,361,3878,8,-9,859,1826,1927,2149,2317,2155,1884,1952,2124
16872,17388,-47464,0,0,-3800,3800,26,1,8,186,377,3895,-3,5,859,1826,1927,2149,2317,2155,1884,1952,2124
17873,17388,-47448,0,0,-3800,3800,26,1,9,157,370,3902,-4,-4,859,1826,1927,2149,2317,2155,1884,1952,2124
18874,17392,-47460,0,0,-3800,3800,27,3,10,125,362,3886,3,-1,859,1826,1927,2149,2317,2155,1884,1952,2124
19875,17408,-47452,0,0,-3800,3800,27,6,10,124,376,3895,-10,5,857,1826,1927,2149,2317,2155,1884,1952,2124
20876,17392,-47460,0,0,-3800,3800,26,5,11,123,398,3889,8,5,859,1826,1927,2149,2317,2155,1884,1952,2124
21877,17392,-47464,0,0,-3800,3800,26,2,10,127,386,3863,-1,-7,859,1827,1929,2147,2319,2158,1883,1951,2123
22878,17388,-47464,0,0,-3800,3800,26,0,9,124,416,3906,2,-8,859,1827,1929,2147,2319,2158,1883,1951,2123
23879,17376,-47464,0,0,-3800,3800,25,3,8,131,406,3868,-10,6,859,1827,1929,2147,2319,2158,1883,1951,2123
24880,17384,-47460,0,0,-3800,3800,23,4,7,137,383,3896,8,-5,859,1827,1929,2147,2319,2158,1883,1951,2123
25881,17392,-47464,0,0,-3800,3800,24,3,9,146,384,3891,-9,5,859,1827,1929,2147,2319,2158,1883,1951,2123
26882,17380,-47456,0,0,-3800,3800,25,2,8,132,382,3908,-5,-8,859,1825,1928,2148,2316,2156,1883,1951,2122
27883,17380,-47472,0,0,-3800,3800,23,1,6,138,364,3904,7,2,859,1825,1928,2148,2316,2156,1883,1951,2122
28884,17388,-47464,0,0,-3800,3800,22,1,7,164,364,3872,-8,-8,859,1825,1928,2148,2316,2156,1883,1951,2122
29885,17380,-47452,0,0,-3800,3800,23,0,8,143,382,3874,-7,5,859,1825,1928,2148,2316,2156,1883,1951,2122
30888,17384,-47464,0,0,-3800,3800,23,1,8,126,396,3913,7,-3,859,1825,1928,2148,2316,2156,1883,1951,2122
31887,17388,-47472,0,0,-3800,3800,25,4,9,153,374,3912,-9,4,858,1825,1928,2148,2316,2156,1883,1951,2122
32888,17380,-47460,0,0,-3800,3800,26,6,9,152,350,3946,3,-2,859,1825,1925,2147,2315,2155,1882,1950,2123
33889,17384,-47464,0,0,-3800,3800,28,4,11,136,365,3916,-6,4,858,1825,1925,2147,2315,2155,1882,1950,2123
34890,17396,-47456,0,0,-3800,3800,27,2,10,145,349,3893,-1,-5,859,1825,1925,2147,2315,2155,1882,1950,2123
35891,17388,-47464,0,0,-3800,3800,24,1,9,146,374,3878,2,-5,859,1825,1925,2147,2315,2155,1882,1950,2123
36892,17404,-47464,0,0,-3800,3800,25,1,10,160,366,3879,-2,6,857,1825,1925,2147,2315,2155,1882,1950,2123
37893,17384,-47456,0,0,-3800,3800,25,3,10,122,362,3926,-3,-6,858,1827,1927,2149,2317,2157,1883,1952,2124
38894,17392,-47440,0,0,-3800,3800,27,4,8,140,377,3910,2,-4,859,1827,1927,2149,2317,2157,1883,1952,2124
39895,17392,-47464,0,0,-3800,3800,28,4,9,149,379,3913,-1,6,859,1827,1927,2149,2317,2157,1883,1952,2124
40896,17396,-47456,0,0,-3800,3800,26,3,10,147,392,3891,-9,3,859,1827,1927,2149,2317,2157,1883,1952,2124
41897,17384,-47460,0,0,-3800,3800,27,2,10,132,363,3907,8,-8,859,1827,1927,2149,2317,2157,1883,1952,2124
42898,17380,-47456,0,0,-3800,3800,27,3,9,120,361,3897,-10,3,859,1827,1927,2149,2317,2157,1883,1952,2124
43899,17384,-47468,0,0,-3800,3800,26,2,10,130,375,3892,7,5,859,1827,1926,2149,2317,2159,1886,1951,2127
44900,17392,-47452,0,0,-3800,3800,27,2,10,136,376,3892,-7,-9,859,1827,1926,2149,2317,2159,1886,1951,2127
45901,17388,-47460,0,0,-3800,3800,27,3,8,145,379,3909,8,5,859,1827,1926,2149,2317,2159,1886,1951,2127
46902,17388,-47440,0,0,-3800,3800,26,3,9,128,403,3867,-8,-7,859,1827,1926,2149,2317,2159,1886,1951,2127
47903,17388,-47460,0,0,-3800,3800,24,1,8,108,398,3894,-2,5,859,1827,1926,2149,2317,2159,1886,1951,2127
48904,17392,-47456,0,0,-3800,3800,24,2,9,130,396,3924,-6,-8,859,1826,1926,2150,2317,2155,1886,1952,2124
49905,17388,-47464,0,0,-3800,3800,24,2,10,147,401,3917,0,4,859,1826,1926,2150,2317,2155,1886,1952,2124
50906,17380,-47468,0,0,-3800,3800,26,2,8,129,387,3912,2,-3,859,1826,1926,2150,2317,2155,1886,1952,2124
51907,17384,-47468,0,0,-3800,3800,26,1,11,126,401,3937,-7,-7,859,1826,1926,2150,2317,2155,1886,1952,2124
52908,17388,-47468,0,0,-3800,3800,26,2,10,140,396,3937,8,2,858,1826,1926,2150,2317,2155,1886,1952,2124
53909,17388,-47452,0,0,-3800,3800,24,2,12,155,378,3921,-9,-8,857,1826,1926,2150,2317,2155,1886,1952,2124
54910,17380,-47444,0,0,-3800,3800,23,4,12,137,352,3912,8,-1,859,1826,1928,2147,2318,2158,1882,1950,2123
55911,17384,-47464,0,0,-3800,3800,24,1,10,135,367,3874,-7,6,858,1826,1928,2147,2318,2158,1882,1950,2123
56912,17388,-47464,0,0,-3800,3800,23,0,9,144,395,3896,5,-9,859,1826,1928,2147,2318,2158,1882,1950,2123
57913,17388,-47460,0,0,-3800,3800,25,3,10,152,385,3879,-1,5,859,1826,1928,2147,2318,2158,1882,1950,2123
58914,17388,-47468,0,0,-3800,3800,27,4,10,125,378,3872,3,-6,859,1826,1928,2147,2318,2158,1882,1950,2123
59915,17388,-47452,0,0,-3800,3800,25,3,10,114,377,3920,-8,3,859,1825,1923,2148,2316,2156,1883,1951,2124
60916,17388,-47464,0,0,-3800,3800,24,2,10,139,376,3867,2,6,859,1825,1923,2148,2316,2156,1883,1951,2124
61917,17384,-47464,0,0,-3800,3800,25,-1,10,144,369,3908,1,1,859,1825,1923,2148,2316,2156,1883,1951,2124
62918,17388,-47460,0,0,-3800,3800,26,2,9,139,399,3933,-3,-5,858,1825,1923,2148,2316,2156,1883,1951,2124
63919,17388,-47460,0,0,-3800,3800,26,5,10,167,375,3923,8,-7,859,1825,1923,2148,2316,2156,1883,1951,2124
64920,17388,-47460,0,0,-3800,3800,28,4,10,164,361,3902,-6,-5,859,1827,1928,2148,2316,2156,1883,1950,2123
65921,17380,-47464,0,0,-3800,3800,28,3,8,171,353,3905,-1,-8,859,1827,1928,2148,2316,2156,1883,1950,2123
66922,17392,-47472,0,0,-3800,3800,24,3,10,163,386,3888,4,0,858,1827,1928,2148,2316,2156,1883,1950,2123
67923,17384,-47444,0,0,-3800,3800,24,3,9,152,401,3884,-10,-8,858,1827,1928,2148,2316,2156,1883,1950,2123
68924,17392,-47468,0,0,-3800,3800,24,-1,10,158,394,3893,0,-6,858,1827,1928,2148,2316,2156,1883,1950,2123
69925,17396,-47472,0,0,-3800,3800,25,-1,11,163,399,3896,1,-2,859,1827,1928,2148,2316,2156,1883,1950,2123
70926,17380,-47456,0,0,-3800,3800,26,1,8,158,363,3894,-9,5,857,1827,1928,2150,2320,2157,1883,1951,2124
71927,17384,-47464,0,0,-3800,3800,27,2,9,145,373,3880,6,-3,858,1827,1928,2150,2320,2157,1883,1951,2124
72928,17396,-47460,0,0,-3800,3800,26,2,9,165,367,3889,5,-8,859,1827,1928,2150,2320,2157,1883,1951,2124
73929,17384,-47452,0,0,-3800,3800,25,2,10,147,368,3898,-3,5,859,1827,1928,2150,2320,2157,1883,1951,2124
74930,17384,-47452,0,0,-3800,3800,25,2,9,125,366,3907,-6,-6,859,1827,1928,2150,2320,2157,1883,1951,2124
75931,17396,-47464,0,0,-3800,3800,26,3,10,124,377,3879,1,2,859,1828,1927,2149,2317,2157,1885,1952,2123
76932,17388,-47460,0,0,-3800,3800,26,4,8,125,378,3908,-7,-8,858,1828,1927,2149,2317,2157,1885,1952,2123
77933,17384,-47464,0,0,-3800,3800,26,3,7,140,386,3894,8,0,858,1828,1927,2149,2317,2157,1885,1952,2123
78934,17392,-47460,0,0,-3800,3800,26,3,7,184,382,3870,-9,-5,858,1828,1927,2149,2317,2157,1885,1952,2123
79935,17384,-47464,0,0,-3800,3800,26,3,8,181,376,3846,8,3,859,1828,1927,2149,2317,2157,1885,1952,2123
80936,17384,-47456,0,0,-3800,3800,26,3,6,164,364,3875,-9,-8,859,1828,1927,2149,2317,2157,1885,1952,2123
81937,17384,-47456,0,0,-3800,3800,26,2,7,140,393,3894,8,6,859,1826,1925,2148,2315,2156,1881,1950,2124
82938,17388,-47464,0,0,-3800,3800,26,3,10,145,398,3910,-10,-4,859,1826,1925,2148,2315,2156,1881,1950,2124
83939,17380,-47464,0,0,-3800,3800,28,2,9,134,382,3892,8,4,858,1826,1925,2148,2315,2156,1881,1950,2124
84940,17392,-47444,0,0,-3800,3800,28,2,7,123,375,3918,-10,-7,859,1826,1925,2148,2315,2156,1881,1950,2124
85941,17384,-47468,0,0,-3800,3800,25,3,7,140,414,3924,8,-6,859,1826,1925,2148,2315,2156,1881,1950,2124
86942,17392,-47464,0,0,-3800,3800,25,3,9,146,392,3882,-6,4,859,1826,1925,2149,2316,2155,1884,1952,2123
87943,17388,-47464,0,0,-3800,3800,22,1,8,155,368,3882,-2,5,858,1826,1925,2149,2316,2155,1884,1952,2123
88944,17388,-47460,0,0,-3800,3800,21,1,7,133,372,3919,-3,-9,859,1826,1925,2149,2316,2155,1884,1952,2123
89945,17380,-47460,0,0,-3800,3800,24,1,8,126,364,3916,1,0,859,1826,1925,2149,2316,2155,1884,1952,2123
90946,17392,-47464,0,0,-3800,3800,28,3,11,127,360,3918,-8,5,859,1826,1925,2149,2316,2155,1884,1952,2123
91947,17396,-47456,0,0,-3800,3800,26,3,9,140,351,3952,8,-8,859,1826,1925,2149,2316,2155,1884,1952,2123
92948,17384,-47456,0,0,-3800,3800,26,3,9,166,371,3915,-10,6,859,1825,1925,2147,2318,2157,1884,1952,2125
93949,17380,-47460,0,0,-3800,3800,27,4,10,122,371,3910,8,-6,859,1825,1925,2147,2318,2157,1884,1952,2125
94950,17380,-47456,0,0,-3800,3800,28,6,9,122,370,3874,-8,0,858,1825,1925,2147,2318,2157,1884,1952,2125
95951,17392,-47460,0,0,-3800,3800,28,5,9,122,373,3901,8,-3,859,1825,1925,2147,2318,2157,1884,1952,2125
96952,17388,-47464,0,0,-3800,3800,25,5,11,124,381,3882,-7,-4,859,1825,1925,2147,2318,2157,1884,1952,2125
97953,17384,-47472,0,0,-3800,3800,25,5,12,139,390,3885,-6,-8,859,1825,1927,2150,2317,2157,1884,1951,2124
98954,17388,-47456,0,0,-3800,3800,24,7,10,135,381,3849,5,3,859,1825,1927,2150,2317,2157,1884,1951,2124
99955,17380,-47456,65,65,-3800,3800,24,4,11,133,378,3873,-9,-9,859,1825,1927,2150,2317,2157,1884,1951,2124
100956,17396,-47460,130,130,-3800,3800,23,2,11,143,383,3889,5,290,828,1825,1927,2150,2317,2157,1884,1951,2124
101957,17388,-47372,195,195,-3800,3800,20,5,5,155,397,3910,17,301,808,1825,1927,2150,2317,2157,1884,1951,2124
102958,17388,-47260,260,260,-3800,3800,20,0,9,219,386,3870,2,304,814,1825,1927,2150,2317,2157,1884,1951,2124
103959,17384,-47068,325,325,-3800,3800,21,20,21,710,350,3806,18,295,817,1828,1928,2151,2318,2158,1858,1950,2123
104960,17388,-46860,390,390,-3800,3800,33,27,30,630,282,3899,19,308,820,1828,1928,2151,2318,2158,1858,1950,2123
105961,17400,-46624,455,455,-3800,3800,35,33,21,607,313,3956,19,299,822,1828,1928,2151,2318,2158,1858,1950,2123
106962,17392,-46344,520,520,-3800,3800,48,48,20,374,239,3872,17,310,827,1828,1928,2151,2318,2158,1858,1950,2123
107963,17388,-45980,585,585,-3800,3800,49,52,6,330,415,3935,17,293,829,1828,1928,2151,2318,2158,1858,1950,2123
108964,17396,-45632,650,650,-3800,3800,38,46,-6,92,542,3971,12,313,831,1827,1925,2131,2318,2154,1880,1949,2119
109965,17400,-45260,715,715,-3800,3800,16,16,-2,268,558,3648,18,302,833,1827,1925,2131,2318,2154,1880,1949,2119
110966,17388,-44856,780,780,-3800,3800,23,33,-19,-992,418,4156,14,318,835,1827,1925,2131,2318,2154,1880,1949,2119
111967,17400,-44432,845,845,-3800,3800,11,-21,-10,-633,335,3741,17,266,837,1827,1925,2131,2318,2154,1880,1949,2119
112968,17388,-43940,910,910,-3800,3800,14,-10,-1,-206,412,4290,16,322,838,1827,1925,2131,2318,2154,1880,1949,2119
113969,17396,-43456,975,975,-3800,3800,38,15,-31,-964,234,3364,18,337,839,1827,1925,2131,2318,2154,1880,1949,2119
114970,17400,-43016,1040,1040,-3800,3800,25,-53,-4,878,246,4106,5,315,841,1824,1925,2147,2316,2156,1883,1949,2119
115971,17392,-42448,1105,1105,-3800,3800,45,14,-15,302,585,4300,15,313,840,1824,1925,2147,2316,2156,1883,1949,2119
116972,17396,-41952,1170,1170,-3800,3800,19,-36,4,-373,258,3202,19,340,842,1824,1925,2147,2316,2156,1883,1949,2119
117973,17380,-41440,1235,1235,-3800,3800,45,34,5,1565,410,4581,12,333,843,1824,1925,2147,2316,2156,1883,1949,2119
118974,17396,-40808,1300,1300,-3800,3800,37,-24,24,-189,196,3291,20,340,831,1824,1925,2147,2316,2156,1883,1949,2119
119975,17392,-40264,1365,1365,-3800,3800,34,30,18,569,622,4622,7,329,846,1827,1863,2148,2314,2154,1882,1952,2127
120976,17404,-39660,1430,1430,-3800,3800,18,-23,43,-484,293,3048,11,330,846,1827,1863,2148,2314,2154,1882,1952,2127
121977,17400,-39076,1495,1495,-3800,3800,30,23,11,550,582,4874,4,338,844,1827,1863,2148,2314,2154,1882,1952,2127
122978,17392,-38476,1560,1560,-3800,3800,25,-8,-3,41,182,2726,10,348,837,1827,1863,2148,2314,2154,1882,1952,2127
123979,17396,-37796,1625,1625,-3800,3800,19,9,11,134,618,5131,20,349,847,1827,1863,2148,2314,2154,1882,1952,2127
124980,17396,-37196,1690,1690,-3800,3800,-6,-59,-20,-1343,350,2644,19,315,848,1827,1863,2148,2314,2154,1882,1952,2127
125981,17408,-36576,1755,1755,-3800,3800,34,32,-9,679,343,5333,16,347,847,1828,1926,2147,2313,2159,1884,1945,2129
126982,17408,-36000,1820,1820,-3800,3800,13,-57,-11,12,199,2228,3,347,846,1828,1926,2147,2313,2159,1884,1945,2129
127983,17412,-35376,1885,1885,-3800,3800,60,7,-2,-915,344,5354,12,340,850,1828,1926,2147,2313,2159,1884,1945,2129
128984,17412,-34784,1950,1950,-3800,3800,8,-67,43,-2,326,2708,20,336,851,1828,1926,2147,2313,2159,1884,1945,2129
129985,17408,-34124,2015,2015,-3800,3800,34,-2,66,1214,645,4265,3,353,851,1828,1926,2147,2313,2159,1884,1945,2129
130986,17404,-33504,2080,2080,-3800,3800,-39,-22,100,959,839,3852,3,337,847,1828,1928,2148,2310,2156,1883,1952,2130
131987,17408,-32908,2145,2145,-3800,3800,-60,-43,14,-1200,661,3183,-10,344,850,1828,1928,2148,2310,2156,1883,1952,2130
132988,17416,-32300,2210,2210,-3800,3800,-64,-9,-24,-240,380,4635,5,329,849,1828,1928,2148,2310,2156,1883,1952,2130
133989,17408,-31700,2275,2275,-3800,3800,-70,-87,-18,687,23,2854,4,353,849,1828,1928,2148,2310,2156,1883,1952,2130
134990,17408,-31048,2340,2340,-3800,3800,62,28,-20,1564,-238,5203,5,352,851,1828,1928,2148,2310,2156,1883,1952,2130
135991,17408,-30464,2405,2405,-3800,3800,40,-21,17,495,-84,3349,20,319,852,1828,1928,2148,2310,2156,1883,1952,2130
136992,17408,-29876,2470,2470,-3800,3800,142,48,4,-102,-4,4358,9,346,852,1819,1919,2144,2308,2166,1872,1953,2123
137993,17408,-29288,2535,2535,-3800,3800,79,27,34,1006,290,3774,4,330,851,1819,1919,2144,2308,2166,1872,1953,2123
138994,17408,-28732,2600,2600,-3800,3800,99,-9,8,-751,567,3361,4,354,849,1819,1919,2144,2308,2166,1872,1953,2123
139995,17412,-28168,2665,2665,-3800,3800,64,41,29,574,609,4582,15,344,851,1819,1919,2144,2308,2166,1872,1953,2123
140996,17412,-27592,2730,2730,-3800,3800,-1,-101,53,-785,807,2579,19,354,852,1819,1919,2144,2308,2166,1872,1953,2123
141997,17412,-27000,2795,2795,-3800,3800,32,66,9,-1078,723,5454,6,342,853,1831,1929,2135,2335,2137,1872,1942,2102
142998,17416,-26444,2860,2860,-3800,3800,-58,-55,27,-479,537,2365,16,343,851,1831,1929,2135,2335,2137,1872,1942,2102
143999,17408,-25900,2925,2925,-3800,3800,23,-14,-1,693,397,4521,9,335,851,1831,1929,2135,2335,2137,1872,1942,2102
145000,17420,-25348,2990,2990,-3800,3800,-24,-29,-9,-99,684,4093,19,349,853,1831,1929,2135,2335,2137,1872,1942,2102
146001,17420,-24740,3055,3055,-3800,3800,-17,-126,-38,-835,2,2981,18,345,853,1831,1929,2135,2335,2137,1872,1942,2102
147002,17416,-24148,3120,3120,-3800,3800,40,8,-15,1537,369,4984,13,345,853,1831,1929,2135,2335,2137,1872,1942,2102
148003,17420,-23668,3185,3185,-3800,3800,-28,-46,8,1511,377,3288,14,333,852,1837,1933,2155,2331,2146,1879,1947,2115
149004,17420,-23104,3250,3250,-3800,3800,46,26,17,808,240,4126,6,355,852,1837,1933,2155,2331,2146,1879,1947,2115
150005,17416,-22500,3315,3315,-3800,3800,-5,18,46,1087,429,3931,11,351,853,1837,1933,2155,2331,2146,1879,1947,2115
151006,17420,-22028,3380,3380,-3800,3800,19,-21,73,31,23,3296,20,341,854,1837,1933,2155,2331,2146,1879,1947,2115
152007,17424,-21368,3445,3445,-3800,3800,29,125,60,469,687,5151,13,332,847,1837,1933,2155,2331,2146,1879,1947,2115
153008,17420,-20828,3510,3510,-3800,3800,-39,-49,63,-126,174,2197,2,350,853,1831,1928,2156,2319,2166,1893,1955,2135
154009,17420,-20228,3575,3575,-3800,3800,69,42,31,-386,376,5157,7,350,852,1831,1928,2156,2319,2166,1893,1955,2135
155010,17428,-19652,3640,3640,-3800,3800,14,31,26,474,510,3266,19,330,852,1831,1928,2156,2319,2166,1893,1955,2135
156011,17420,-19116,3705,3705,-3800,3800,15,-36,-10,-1169,228,3255,14,327,846,1831,1928,2156,2319,2166,1893,1955,2135
157012,17428,-18468,3770,3770,-3800,3800,75,96,-17,-187,472,4338,16,326,854,1831,1928,2156,2319,2166,1893,1955,2135
158013,17420,-17888,3835,3835,-3800,3800,-7,-17,-6,771,359,2665,2,334,854,1831,1928,2156,2319,2166,1893,1955,2135
159014,17428,-17292,3900,3900,-3800,3800,73,7,-4,-766,57,4270,6,344,853,1818,1919,2144,2305,2171,1893,1944,2136
160015,17428,-16668,3965,3965,-3800,3800,59,88,-6,1204,447,3909,12,337,847,1818,1919,2144,2305,2171,1893,1944,2136
161016,17416,-16116,4030,4030,-3800,3800,23,-23,13,912,192,2982,7,328,853,1818,1919,2144,2305,2171,1893,1944,2136
162017,17428,-15492,4095,4095,-3800,3800,97,116,-3,169,623,4924,15,343,853,1818,1919,2144,2305,2171,1893,1944,2136
163018,17420,-14800,4160,4160,-3800,3800,7,65,-16,1001,466,3193,4,343,854,1818,1919,2144,2305,2171,1893,1944,2136
164019,17428,-14172,4225,4225,-3800,3800,22,-8,8,-631,123,3928,5,357,853,1826,1925,2141,2306,2152,1879,1949,2114
165020,17420,-13540,4290,4290,-3800,3800,61,93,-22,-745,750,4637,18,348,854,1826,1925,2141,2306,2152,1879,1949,2114
166021,17432,-12920,4355,4355,-3800,3800,-6,-15,-25,-576,275,2687,6,347,855,1826,1925,2141,2306,2152,1879,1949,2114
167022,17424,-12292,4420,4420,-3800,3800,63,-52,14,-333,183,4370,3,326,855,1826,1925,2141,2306,2152,1879,1949,2114
168023,17424,-11616,4485,4485,-3800,3800,26,62,16,-21,870,4000,20,349,853,1826,1925,2141,2306,2152,1879,1949,2114
169024,17424,-10956,4550,4550,-3800,3800,-38,-97,73,-821,49,2953,19,356,854,1826,1925,2141,2306,2152,1879,1949,2114
170025,17428,-10280,4615,4615,-3800,3800,55,17,44,64,623,4914,4,356,854,1830,1928,2146,2323,2141,1874,1945,2112
171026,17420,-9624,4680,4680,-3800,3800,-24,26,50,469,588,3481,15,360,854,1830,1928,2146,2323,2141,1874,1945,2112
172027,17408,-9012,4745,4745,-3800,3800,-25,-82,78,219,265,3602,15,353,854,1830,1928,2146,2323,2141,1874,1945,2112
173028,17416,-8308,4810,4810,-3800,3800,26,59,54,-348,631,4853,20,352,854,1830,1928,2146,2323,2141,1874,1945,2112
174029,17408,-7580,4875,4875,-3800,3800,-42,-92,40,377,230,2993,2,352,854,1830,1928,2146,2323,2141,1874,1945,2112
175030,17412,-6936,4940,4940,-3800,3800,45,-63,-7,95,201,4059,11,346,854,1833,1923,2119,2318,2154,1883,1946,2125
176031,17412,-6248,5005,5005,-3800,3800,42,34,-27,-249,329,4911,17,346,853,1833,1923,2119,2318,2154,1883,1946,2125
177032,17408,-5548,5070,5070,-3800,3800,11,-125,-29,179,-15,2194,4,347,854,1833,1923,2119,2318,2154,1883,1946,2125
178033,17408,-4888,5135,5135,-3800,3800,117,40,-48,406,167,5225,14,337,854,1833,1923,2119,2318,2154,1883,1946,2125
179034,17408,-4152,5200,5200,-3800,3577,62,22,-52,205,459,3601,2,341,853,1833,1923,2119,2318,2154,1883,1946,2125
180035,17408,-3500,5265,5265,-3800,3800,68,-28,-45,274,36,3050,14,298,854,1833,1923,2119,2318,2154,1883,1946,2125
181036,17408,-2820,5330,5330,-3800,2816,111,122,-21,1647,803,5119,9,326,855,1832,1931,2159,2317,2157,1882,1949,2116
182037,17404,-2144,5395,5395,-3800,2123,-10,61,-3,-951,664,2795,4,325,854,1832,1931,2159,2317,2157,1882,1949,2116
183038,17408,-1484,5460,5460,-3800,1600,29,-14,4,-1222,514,3868,4,339,855,1832,1931,2159,2317,2157,1882,1949,2116
184039,17404,-824,5525,5525,-3800,877,13,56,-7,269,928,4240,11,325,856,1832,1931,2159,2317,2157,1882,1949,2116
185040,17400,-148,5590,5590,-3800,-67,-45,-74,8,-894,251,3225,21,326,847,1832,1931,2159,2317,2157,1882,1949,2116
186041,17396,496,5655,5655,-3800,-371,27,4,-12,-832,382,4310,22,320,858,1831,1928,2149,2324,2152,1891,1955,2122
187042,17404,1136,5720,5720,-3800,-1021,-13,-47,-8,205,296,3736,20,321,857,1831,1928,2149,2324,2152,1891,1955,2122
188043,17384,1720,5785,5785,-3800,-953,5,-145,6,-357,78,3444,0,315,855,1831,1928,2149,2324,2152,1891,1955,2122
189044,17384,2348,5850,5850,-3800,-2189,68,-30,-11,918,474,4833,13,287,840,1831,1928,2149,2324,2152,1891,1955,2122
190045,17400,2920,5915,5915,-3800,-2106,6,-96,-27,1439,139,3014,-2,287,846,1831,1928,2149,2324,2152,1891,1955,2122
191046,17404,3484,5980,5980,-3800,-2615,78,-52,-1,1515,152,4191,-11,259,821,1831,1928,2149,2324,2152,1891,1955,2122
192047,17388,3908,6045,6045,-3800,-1302,32,-23,-19,999,638,4225,-2,241,824,1819,1914,2139,2307,2162,1888,1936,2139
193048,17384,4320,6110,6110,-3800,-1574,46,-6,-19,531,100,2884,5,178,812,1819,1914,2139,2307,2162,1888,1936,2139
194049,17396,4644,6175,6175,-3800,-790,20,44,-54,2266,705,4473,-3,197,842,1819,1914,2139,2307,2162,1888,1936,2139
195050,17392,4952,6240,6240,-3800,-886,19,32,-45,-665,298,3543,2,172,837,1819,1914,2139,2307,2162,1888,1936,2139
196051,17384,5324,6305,6305,-3800,-2060,18,10,-43,85,532,3911,-3,163,850,1819,1914,2139,2307,2162,1888,1936,2139
197052,17388,5592,6370,6370,-3800,-1008,23,16,-13,458,403,4199,8,163,847,1821,1921,2142,2286,2162,1884,1952,2127
198053,17392,5832,6435,6435,-3800,-871,31,19,1,-997,259,3662,-7,129,830,1821,1921,2142,2286,2162,1884,1952,2127
199054,17396,6088,6500,6500,-3800,-1304,47,-24,9,243,167,3790,12,126,847,1821,1921,2142,2286,2162,1884,1952,2127
200055,17392,6296,6565,6565,-3800,-878,54,-39,53,52,333,4182,-7,118,849,1821,1921,2142,2286,2162,1884,1952,2127
201056,17392,6520,6630,6630,-3800,-1272,61,-16,59,-559,472,3683,-4,117,843,1821,1921,2142,2286,2162,1884,1952,2127
202057,17392,6664,6695,6695,-3800,-369,47,-31,59,653,405,3736,-7,101,850,1821,1921,2142,2286,2162,1884,1952,2127
203058,17388,6804,6760,6760,-3800,-410,43,-19,53,796,428,4306,-2,95,845,1812,1926,2154,2319,2159,1883,1945,2118
204059,17384,7004,6825,6825,-3800,-1325,24,-14,24,285,667,3626,7,83,855,1812,1926,2154,2319,2159,1883,1945,2118
205060,17388,7176,6890,6890,-3800,-1106,8,14,20,699,456,3865,-9,79,854,1812,1926,2154,2319,2159,1883,1945,2118
206064,17388,7320,6955,6955,-3800,-852,2,52,25,759,567,3891,-9,61,844,1812,1926,2154,2319,2159,1883,1945,2118
207062,17388,7464,7020,7020,-3800,-948,-14,33,2,103,258,4003,-7,63,846,1812,1926,2154,2319,2159,1883,1945,2118
208063,17396,7588,7085,7085,-3800,-772,-1,32,-5,503,243,3827,-10,62,850,1838,1932,2160,2328,2163,1889,1952,2126
209064,17380,7688,7150,7150,-3800,-514,20,30,10,194,249,3986,7,49,849,1838,1932,2160,2328,2163,1889,1952,2126
210065,17384,7788,7215,7215,-3800,-557,30,30,11,-279,389,3848,0,46,851,1838,1932,2160,2328,2163,1889,1952,2126
211066,17380,7864,7280,7280,-3800,-270,31,42,7,-209,335,4093,1,54,854,1838,1932,2160,2328,2163,1889,1952,2126
212067,17388,7956,7345,7345,-3800,-503,30,33,2,-95,471,3669,-1,39,854,1838,1932,2160,2328,2163,1889,1952,2126
213068,17396,8040,7410,7410,-3800,-428,27,30,12,-39,346,3958,-9,35,856,1838,1932,2160,2328,2163,1889,1952,2126
214069,17388,8104,7475,7475,-3800,-176,26,22,7,239,528,3917,7,33,879,1835,1925,2155,2332,2162,1894,1956,2112
215070,17396,8172,7540,7540,-3800,-230,27,16,32,-154,371,3846,9,32,856,1835,1925,2155,2332,2162,1894,1956,2112
216071,17380,8232,7605,7605,-3800,-124,16,20,43,79,491,3844,8,43,857,1835,1925,2155,2332,2162,1894,1956,2112
217072,17388,8296,7670,7670,-3800,-174,7,20,53,69,311,3911,9,30,856,1835,1925,2155,2332,2162,1894,1956,2112
218073,17392,8316,7735,7735,-3800,431,8,24,51,246,369,3949,-1,40,848,1835,1925,2155,2332,2162,1894,1956,2112
219074,17396,8328,7800,7800,-3800,596,14,24,48,238,296,3858,4,44,857,1826,1919,2142,2312,2150,1888,1956,2126
220075,17396,8364,7865,7865,-3800,331,20,21,38,-59,339,3920,2,36,856,1826,1919,2142,2312,2150,1888,1956,2126
221076,17380,8416,7930,7930,-3800,147,18,14,28,-188,368,3864,-3,33,855,1826,1919,2142,2312,2150,1888,1956,2126
222077,17380,8480,7995,7995,-3800,-3,16,15,13,-128,380,3851,-6,34,851,1826,1919,2142,2312,2150,1888,1956,2126
223078,17388,8532,8060,8060,-3800,163,26,6,5,-13,352,3962,10,33,857,1826,1919,2142,2312,2150,1888,1956,2126
224079,17380,8600,8125,8125,-3800,-40,32,9,1,-127,322,3909,-7,31,856,1826,1919,2142,2312,2150,1888,1956,2126
225080,17388,8676,8190,8190,-3800,-154,35,-8,6,-165,270,3919,-7,32,856,1819,1918,2135,2303,2152,1874,1948,2124
226081,17384,8740,8255,8255,-3800,-3,39,2,5,99,365,3963,7,38,855,1819,1918,2135,2303,2152,1874,1948,2124
227082,17392,8804,8320,8320,-3800,-2,41,-11,0,157,361,3868,22,41,857,1819,1918,2135,2303,2152,1874,1948,2124
228083,17384,8876,8385,8385,-3800,-111,44,-15,-4,73,389,3918,5,35,858,1819,1918,2135,2303,2152,1874,1948,2124
229084,17392,8948,8450,8450,-3800,-119,40,-18,-3,181,423,3832,10,37,858,1819,1918,2135,2303,2152,1874,1948,2124
230085,17376,9024,8515,8515,-3800,-183,29,-23,-5,226,414,3846,6,30,856,1826,1930,2148,2286,2148,1873,1943,2119
231086,17388,9116,8580,8580,-3800,-416,24,-19,-11,183,432,3916,-5,33,858,1826,1930,2148,2286,2148,1873,1943,2119
232087,17384,9196,8645,8645,-3800,-285,26,-16,-2,208,414,3809,-7,24,857,1826,1930,2148,2286,2148,1873,1943,2119
233088,17380,9268,8710,8710,-3800,-194,26,-14,8,278,422,3895,8,25,856,1826,1930,2148,2286,2148,1873,1943,2119
234089,17392,9332,8775,8775,-3800,-92,23,-20,5,281,371,3902,-8,35,856,1826,1930,2148,2286,2148,1873,1943,2119
235090,17396,9396,8840,8840,-3800,-91,22,-20,4,191,373,3883,-4,32,857,1826,1930,2148,2286,2148,1873,1943,2119
236091,17384,9460,8905,8905,-3800,-90,29,-21,9,92,390,3926,4,24,857,1828,1937,2161,2330,2158,1886,1952,2125
237092,17384,9512,8970,8970,-3800,75,31,-5,15,165,452,3856,-8,19,857,1828,1937,2161,2330,2158,1886,1952,2125
238093,17384,9564,9035,9035,-3800,91,24,-13,6,189,453,3909,-8,20,857,1828,1937,2161,2330,2158,1886,1952,2125
239094,17396,9616,9100,9100,-3800,107,20,-4,-4,179,396,3899,10,33,857,1828,1937,2161,2330,2158,1886,1952,2125
240095,17384,9640,9165,9165,-3800,507,22,-9,-5,177,404,3887,7,27,857,1828,1937,2161,2330,2158,1886,1952,2125
241096,17392,9648,9230,9230,-3800,776,23,-4,2,162,372,3944,3,21,857,1837,1929,2159,2333,2168,1894,1957,2125
242097,17380,9700,9295,9295,-3800,241,27,-4,7,221,362,3881,-7,26,854,1837,1929,2159,2333,2168,1894,1957,2125
243098,17396,9708,9360,9360,-3800,861,23,3,7,251,372,3960,4,25,853,1837,1929,2159,2333,2168,1894,1957,2125
244099,17388,9740,9425,9425,-3800,601,19,5,8,202,358,3913,10,36,857,1837,1929,2159,2333,2168,1894,1957,2125
245100,17388,9800,9490,9490,-3800,257,26,23,13,282,314,3965,-5,46,853,1837,1929,2159,2333,2168,1894,1957,2125
246101,17392,9884,9555,9555,-3800,-66,30,22,24,436,341,3778,10,34,855,1837,1929,2159,2333,2168,1894,1957,2125
247102,17384,9936,9620,9620,-3800,350,34,23,24,243,350,3935,0,44,856,1828,1920,2145,2318,2165,1893,1956,2104
248103,17396,9996,9685,9685,-3800,256,34,15,33,131,334,3882,10,45,857,1828,1920,2145,2318,2165,1893,1956,2104
249104,17392,10080,9750,9750,-3800,-67,30,20,39,383,420,3855,0,37,856,1828,1920,2145,2318,2165,1893,1956,2104
250105,17384,10124,9815,9815,-3800,457,30,23,41,-100,398,3875,10,43,857,1828,1920,2145,2318,2165,1893,1956,2104
251106,17380,10184,9880,9880,-3800,263,27,26,37,48,406,3879,3,34,850,1828,1920,2145,2318,2165,1893,1956,2104
252107,17392,10260,9945,9945,-3800,50,21,28,27,237,392,3921,1,49,856,1814,1916,2136,2303,2146,1881,1949,2124
253108,17392,10332,10010,10010,-3800,91,23,24,25,-3,318,3968,-7,33,857,1814,1916,2136,2303,2146,1881,1949,2124
254109,17384,10420,10075,10075,-3800,-137,27,21,18,-31,350,3860,-7,30,858,1814,1916,2136,2303,2146,1881,1949,2124
255110,17384,10500,10140,10140,-3800,-55,25,18,11,-76,378,3895,10,44,854,1814,1916,2136,2303,2146,1881,1949,2124
256113,17380,10576,10205,10205,-3800,-18,20,6,4,-139,380,3890,6,41,857,1814,1916,2136,2303,2146,1881,1949,2124
257112,17388,10652,10270,10270,-3800,-33,22,6,4,66,375,3849,1,39,858,1814,1916,2136,2303,2146,1881,1949,2124
258113,17384,10728,10335,10335,-3800,-46,23,3,-1,120,344,3919,-1,40,856,1819,1919,2141,2301,2149,1874,1948,2128
259114,17380,10800,10400,10400,-3800,-5,32,1,-1,75,317,3945,-5,31,854,1819,1919,2141,2301,2149,1874,1948,2128
260115,17392,10856,10465,10465,-3800,206,30,8,-6,240,403,3880,11,31,858,1819,1919,2141,2301,2149,1874,1948,2128
261116,17380,10936,10530,10530,-3800,-112,29,5,1,166,323,3867,7,31,858,1819,1919,2141,2301,2149,1874,1948,2128
262117,17380,10984,10595,10595,-3800,309,32,-1,8,261,418,3937,-8,36,857,1819,1919,2141,2301,2149,1874,1948,2128
263118,17384,11044,10660,10660,-3800,165,33,-4,5,62,405,3834,-7,27,857,1833,1937,2156,2368,2150,1877,1947,2126
264119,17388,11100,10725,10725,-3800,225,31,-12,4,9,440,3962,11,31,857,1833,1937,2156,2368,2150,1877,1947,2126
265120,17404,11156,10790,10790,-3800,236,19,-5,5,139,496,3872,-8,43,857,1833,1937,2156,2368,2150,1877,1947,2126
266121,17384,11204,10855,10855,-3800,356,13,-5,10,-80,466,3855,10,41,857,1833,1937,2156,2368,2150,1877,1947,2126
267122,17380,11272,10920,10920,-3800,103,13,-7,5,-138,409,3875,0,37,856,1833,1937,2156,2368,2150,1877,1947,2126
268123,17388,11316,10985,10985,-3800,428,17,-16,5,59,374,3846,-5,40,856,1833,1937,2156,2368,2150,1877,1947,2126
269124,17384,11360,11050,11050,-3800,454,15,-18,9,-2,372,3925,5,42,857,1826,1940,2163,2334,2157,1889,1955,2123
270125,17384,11428,11115,11115,-3800,150,20,-24,12,89,333,3823,4,42,856,1826,1940,2163,2334,2157,1889,1955,2123
271126,17380,11484,11180,11180,-3800,310,26,-17,12,271,313,3939,-6,38,856,1826,1940,2163,2334,2157,1889,1955,2123
272127,17392,11560,11245,11245,-3800,47,32,-12,11,318,312,3905,10,41,858,1826,1940,2163,2334,2157,1889,1955,2123
273128,17388,11624,11310,11310,-3800,198,34,4,9,327,329,3847,10,32,857,1826,1940,2163,2334,2157,1889,1955,2123
274129,17396,11696,11375,11375,-3800,90,33,-2,15,229,308,3887,10,35,858,1833,1925,2151,2323,2160,1886,1950,2118
275130,17380,11744,11440,11440,-3800,410,30,8,12,296,434,3959,-2,34,855,1833,1925,2151,2323,2160,1886,1950,2118
276131,17388,11820,11505,11505,-3800,47,30,3,1,217,408,3724,-6,29,856,1833,1925,2151,2323,2160,1886,1950,2118
277132,17392,11868,11570,11570,-3800,418,27,2,-2,38,391,4031,9,33,856,1833,1925,2151,2323,2160,1886,1950,2118
278133,17388,11952,11635,11635,-3800,-55,18,-2,-4,227,421,3788,10,41,858,1833,1925,2151,2323,2160,1886,1950,2118
279134,17384,12036,11700,11700,-3800,-79,19,-3,1,30,323,3880,1,45,856,1833,1925,2151,2323,2160,1886,1950,2118
280135,17380,12108,11765,11765,-3800,62,27,2,0,143,355,3959,10,45,847,1822,1916,2139,2311,2157,1884,1949,2102
281136,17388,12156,11830,11830,-3800,383,32,10,5,195,276,3871,10,34,858,1822,1916,2139,2311,2157,1884,1949,2102
282137,17392,12224,11895,11895,-3800,129,35,14,20,300,344,3897,-8,41,858,1822,1916,2139,2311,2157,1884,1949,2102
283138,17380,12288,11960,11960,-3800,180,36,13,26,149,349,3884,-7,30,856,1822,1916,2139,2311,2157,1884,1949,2102
284139,17380,12340,12025,12025,-3800,346,37,14,26,186,375,3992,2,42,851,1822,1916,2139,2311,2157,1884,1949,2102
285140,17388,12408,12090,12090,-3800,142,36,6,22,189,418,3822,-6,37,857,1815,1917,2138,2302,2140,1880,1951,2128
286141,17392,12488,12155,12155,-3800,-26,29,9,26,213,418,3887,-1,37,856,1815,1917,2138,2302,2140,1880,1951,2128
287142,17376,12536,12220,12220,-3800,395,23,13,30,165,398,3867,-7,33,858,1815,1917,2138,2302,2140,1880,1951,2128
288143,17392,12600,12285,12285,-3800,195,16,20,22,159,452,3916,8,46,854,1815,1917,2138,2302,2140,1880,1951,2128
289144,17388,12672,12350,12350,-3800,86,22,21,11,128,379,3777,10,40,856,1815,1917,2138,2302,2140,1880,1951,2128
290145,17380,12744,12415,12415,-3800,78,27,10,16,199,389,3989,-7,32,857,1828,1924,2150,2314,2159,1882,1953,2128
291146,17380,12812,12480,12480,-3800,124,19,9,17,139,378,3824,4,32,858,1828,1924,2150,2314,2159,1882,1953,2134
292147,17388,12884,12545,12545,-3800,66,24,5,11,88,388,3881,5,31,855,1828,1924,2150,2314,2159,1882,1953,2134
293148,17384,12960,12610,12610,-3800,2,23,9,-1,109,397,3892,-5,41,856,1828,1924,2150,2314,2159,1882,1953,2134
294149,17376,13028,12675,12675,-3800,99,27,10,5,158,380,3859,4,31,858,1828,1924,2150,2314,2159,1882,1953,2134
295150,17380,13112,12740,12740,-3800,-126,22,15,9,256,401,3925,-2,31,858,1828,1924,2150,2314,2159,1882,1953,2134
296151,17392,13164,12805,12805,-3800,290,21,10,5,141,368,3857,-7,26,857,1835,1940,2160,2326,2160,1888,1952,2125
297152,17388,13228,12870,12870,-3800,141,25,3,7,232,372,3947,3,27,858,1835,1940,2160,2326,2160,1888,1952,2125
298153,17380,13288,12935,12935,-3800,198,29,4,4,-7,404,3886,1,31,857,1835,1940,2160,2326,2160,1888,1952,2125
299154,17380,13356,13000,13000,-3800,94,24,-2,12,-33,377,3868,7,35,857,1835,1940,2160,2326,2160,1888,1952,2125
300155,17380,13396,13065,13065,-3800,474,20,6,13,25,397,3909,7,26,857,1835,1940,2160,2326,2160,1888,1952,2125
301156,17388,13448,13130,13130,-3800,340,17,-10,4,-191,382,3884,5,38,858,1821,1930,2151,2325,2151,1886,1950,2120
302157,17388,13516,13195,13195,-3800,137,17,-6,2,-78,387,3903,-3,30,856,1821,1930,2151,2325,2151,1886,1950,2120
303158,17388,13572,13260,13260,-3800,297,15,-14,6,27,392,3841,4,40,857,1821,1930,2151,2325,2151,1886,1950,2120
304159,17384,13632,13325,13325,-3800,253,18,-12,8,60,369,3981,-6,27,857,1821,1930,2151,2325,2151,1886,1950,2120
305160,17384,13712,13390,13390,-3800,-16,17,-10,0,163,374,3922,9,37,857,1821,1930,2151,2325,2151,1886,1950,2120
306161,17384,13780,13455,13455,-3800,131,25,-15,8,235,332,3809,-8,29,857,1821,1930,2151,2325,2151,1886,1950,2120
307162,17384,13828,13520,13520,-3800,402,30,3,7,296,373,4039,-6,26,858,1826,1919,2142,2314,2151,1873,1946,2114
308163,17404,13884,13585,13585,-3800,313,27,4,11,132,301,3763,-6,28,857,1826,1919,2142,2314,2151,1873,1946,2114
309164,17388,13960,13650,13650,-3800,49,25,9,7,299,371,3975,-7,29,855,1826,1919,2142,2314,2151,1873,1946,2114
310165,17388,14012,13715,13715,-3800,365,25,6,9,288,398,3816,-5,34,856,1826,1919,2142,2314,2151,1873,1946,2114
311166,17388,14072,13780,13780,-3800,270,30,8,12,120,368,3941,7,40,858,1826,1919,2142,2314,2151,1873,1946,2114
312167,17388,14136,13845,13845,-3800,221,37,1,13,50,373,3889,10,42,857,1823,1921,2138,2309,2154,1880,1949,2123
313168,17384,14192,13910,13910,-3800,332,35,0,14,94,334,3941,-7,42,847,1823,1921,2138,2309,2154,1880,1949,2123
314169,17380,14268,13975,13975,-3800,69,34,-1,10,179,403,3911,-1,31,857,1823,1921,2138,2309,2154,1880,1949,2123
315170,17380,14336,14040,14040,-3800,165,35,10,14,37,398,3914,-8,37,856,1823,1921,2138,2309,2154,1880,1949,2123
316171,17384,14428,14105,14105,-3800,-168,32,6,15,116,374,3904,-5,29,858,1823,1921,2138,2309,2154,1880,1949,2123
317172,17396,14488,14170,14170,-3800,238,34,5,7,184,386,3935,-7,29,852,1823,1921,2138,2309,2154,1880,1949,2123
318173,17392,14568,14235,14235,-3800,-30,29,4,7,262,408,3905,-7,32,857,1828,1928,2149,2314,2137,1884,1955,2132
319174,17392,14624,14300,14300,-3800,280,29,0,11,191,407,3912,2,30,857,1828,1928,2149,2314,2137,1884,1955,2132
320175,17380,14704,14365,14365,-3800,-38,26,3,15,195,396,3911,-8,41,858,1828,1928,2149,2314,2137,1884,1955,2132
321176,17384,14748,14430,14430,-3800,437,23,3,10,221,424,3854,10,39,854,1828,1928,2149,2314,2137,1884,1955,2132
322177,17392,14816,14495,14495,-3800,134,21,7,7,142,409,3936,0,40,858,1828,1928,2149,2314,2137,1884,1955,2132
323178,17392,14880,14560,14560,-3800,185,19,1,5,117,336,3909,-7,31,856,1831,1919,2158,2322,2164,1889,1957,2133
324179,17396,14936,14625,14625,-3800,296,25,-5,14,271,375,3915,4,37,857,1831,1919,2158,2322,2164,1889,1957,2133
325180,17388,15004,14690,14690,-3633,142,28,7,12,262,416,3832,9,30,856,1831,1919,2158,2322,2164,1889,1957,2133
326181,17388,15064,14755,14755,-3655,248,24,1,14,69,406,3879,0,36,855,1831,1919,2158,2322,2164,1889,1957,2133
327182,17380,15140,14820,14820,-3466,34,22,4,9,166,400,3932,9,30,856,1831,1919,2158,2322,2164,1889,1957,2133
328183,17396,15180,14885,14885,-3708,514,23,9,16,140,374,3868,2,41,857,1831,1919,2158,2322,2164,1889,1957,2133
329184,17380,15248,14950,14950,-3210,161,23,12,14,121,405,3953,9,32,857,1831,1927,2154,2324,2160,1888,1947,2120
330185,17388,15304,15015,15015,-3441,322,23,5,4,-47,351,3831,-6,36,855,1831,1927,2154,2324,2160,1888,1947,2120
331186,17380,15368,15080,15080,-3153,223,19,0,4,10,385,3950,0,43,858,1831,1927,2154,2324,2160,1888,1947,2120
332187,17388,15460,15145,15145,-3284,-160,15,-4,10,171,361,3778,-4,42,857,1831,1927,2154,2324,2160,1888,1947,2120
333188,17372,15532,15210,15210,-2886,81,23,1,8,106,354,3943,-1,32,857,1831,1927,2154,2324,2160,1888,1947,2120
334189,17388,15600,15275,15275,-3227,128,23,-4,3,31,294,3824,-3,31,857,1825,1919,2144,2311,2151,1882,1948,2116
335190,17380,15668,15340,15340,-2839,123,28,5,0,321,360,4023,-8,31,858,1825,1919,2144,2311,2151,1882,1948,2116
336191,17388,15736,15405,15405,-2970,119,24,9,6,142,319,3846,-7,27,858,1825,1919,2144,2311,2151,1882,1948,2116
337192,17388,15796,15470,15470,-2791,226,26,2,11,200,368,3937,-5,39,857,1825,1919,2144,2311,2151,1882,1948,2116
338193,17392,15856,15535,15535,-2767,232,28,7,3,144,409,3884,-6,42,858,1825,1919,2144,2311,2151,1882,1948,2116
339194,17380,15924,15600,15600,-2474,128,23,-3,2,-56,434,3924,10,41,857,1825,1919,2144,2311,2151,1882,1948,2116
340195,17388,15984,15665,15665,-2656,234,20,-1,6,102,411,3828,7,34,857,1824,1920,2139,2310,2149,1866,1946,2117
341196,17392,16048,15730,15730,-2531,185,20,-6,13,229,383,3956,1,37,858,1824,1920,2139,2310,2149,1866,1946,2117
342197,17388,16096,15795,15795,-2348,406,25,4,8,134,390,3903,-6,39,857,1824,1920,2139,2310,2149,1866,1946,2117
343198,17384,16164,15860,15860,-2265,151,30,2,16,-8,306,3859,6,34,856,1824,1920,2139,2310,2149,1866,1946,2117
344199,17372,16236,15925,15925,-2071,93,29,6,16,171,356,3956,4,28,855,1824,1920,2139,2310,2149,1866,1946,2117
345200,17384,16292,15990,15990,-2307,304,32,4,20,218,348,3877,-2,32,858,1830,1929,2138,2316,2156,1881,1952,2128
346201,17388,16348,16055,16055,-2133,315,33,7,20,182,399,3932,0,30,848,1830,1929,2138,2316,2156,1881,1952,2128
347202,17392,16432,16120,16120,-2059,-58,31,-3,13,83,396,3835,-7,34,857,1830,1929,2138,2316,2156,1881,1952,2128
348203,17388,16492,16185,16185,-1875,248,23,-2,11,302,465,3923,2,37,857,1830,1929,2138,2316,2156,1881,1952,2128
349204,17400,16552,16384,16384,-1161,1104,22,4,9,162,437,3873,7,29,858,1830,1929,2138,2316,2156,1881,1952,2128
350205,17388,16612,16449,16449,-767,1111,22,7,1,223,407,3920,-6,29,853,1830,1929,2138,2316,2156,1881,1952,2128
351206,17392,16708,16514,16514,-892,623,27,5,-3,231,403,3920,-1,39,851,1837,1937,2157,2322,2160,1886,1955,2131
352207,17380,16772,16579,16579,-599,1024,26,2,4,152,384,3931,-1,48,851,1837,1937,2157,2322,2160,1886,1955,2131
353208,17388,16888,16644,16644,-780,311,23,9,12,179,340,3856,12,41,854,1837,1937,2157,2322,2160,1886,1955,2131
354209,17384,16984,16709,16709,-545,523,27,10,12,300,369,3919,-4,61,848,1837,1937,2157,2322,2160,1886,1955,2131
355210,17384,17088,16774,16774,-517,375,36,2,16,123,323,3925,7,46,857,1837,1937,2157,2322,2160,1886,1955,2131
356211,17380,17188,16839,16839,-383,382,38,11,18,244,446,3986,4,60,856,1833,1895,2155,2324,2160,1888,1952,2123
357212,17376,17296,16904,16904,-299,230,25,7,23,100,365,3888,10,60,856,1833,1895,2155,2324,2160,1888,1952,2123
358213,17392,17396,16969,16969,-489,287,29,6,12,-42,448,3993,12,61,854,1833,1895,2155,2324,2160,1888,1952,2123
359214,17384,17496,17034,17034,-100,245,26,3,12,91,389,3802,-5,49,857,1833,1895,2155,2324,2160,1888,1952,2123
360215,17380,17632,17099,17099,-67,-292,23,2,5,113,436,3937,-6,48,856,1833,1895,2155,2324,2160,1888,1952,2123
361216,17380,17712,17164,17164,-37,389,15,2,5,-214,352,3799,2,45,852,1833,1895,2155,2324,2160,1888,1952,2123
362217,17384,17816,17229,17229,-13,41,19,-5,3,74,357,3986,0,54,855,1825,1919,2143,2316,2156,1886,1948,2118
363218,17384,17904,17294,17294,117,213,23,-4,4,123,315,3885,9,55,856,1825,1919,2143,2316,2156,1886,1948,2118
364219,17392,17996,17359,17359,86,130,29,-7,1,-21,364,3956,8,60,858,1825,1919,2143,2316,2156,1886,1948,2118
365220,17384,18104,17424,17424,375,-124,27,0,0,177,376,3838,-3,48,857,1825,1919,2143,2316,2156,1886,1948,2118
366221,17388,18208,17489,17489,300,-121,22,-1,4,327,369,3960,12,57,857,1825,1919,2143,2316,2156,1886,1948,2118
367222,17384,18308,17554,17554,484,-114,23,10,6,397,402,3895,-3,45,856,1821,1911,2138,2308,2153,1882,1950,2122
368223,17388,18396,17619,17619,458,8,21,7,14,361,359,3874,3,48,856,1821,1911,2138,2308,2153,1882,1950,2122
369224,17404,18496,17684,17684,368,-186,20,9,17,321,380,3964,14,46,855,1821,1911,2138,2308,2153,1882,1950,2122
370225,17420,18596,17749,17749,428,-228,21,11,21,82,377,3854,2,51,856,1821,1911,2138,2308,2153,1882,1950,2122
371226,17436,18688,17814,17814,489,-161,22,14,19,141,354,3862,7,40,855,1821,1911,2138,2308,2153,1882,1950,2122
372227,17460,18756,17879,17879,439,134,28,11,14,62,386,3914,20,38,855,1821,1911,2138,2308,2153,1882,1950,2122
373228,17472,18848,17944,17944,654,-199,28,7,10,-76,370,3949,23,50,855,1828,1924,2145,2313,2156,1881,1951,2128
374229,17484,18920,18009,18009,718,42,30,1,4,-4,350,3892,8,46,855,1828,1924,2145,2313,2156,1881,1951,2128
375230,17512,18992,18074,18074,564,33,30,0,0,143,389,3928,14,43,853,1828,1924,2145,2313,2156,1881,1951,2128
376231,17564,19080,18139,18139,279,-195,29,0,-5,-45,370,3842,23,38,854,1828,1924,2145,2313,2156,1881,1951,2128
377232,17592,19140,18204,18204,626,161,26,-6,-1,-115,405,3904,17,37,853,1828,1924,2145,2313,2156,1881,1951,2128
378233,17644,19220,18269,18269,341,-108,21,-3,5,108,407,3866,23,47,855,1836,1936,2156,2323,2159,1884,1952,2127
379234,17676,19280,18334,18334,632,148,19,-9,12,178,405,3881,21,45,854,1836,1936,2156,2323,2159,1884,1952,2127
380235,17720,19376,18399,18399,507,-341,17,-12,15,251,403,3868,34,34,856,1836,1936,2156,2323,2159,1884,1952,2127
381236,17772,19440,18464,18464,424,60,21,-9,11,208,394,3957,27,33,854,1836,1936,2156,2323,2159,1884,1952,2127
382237,17812,19504,18529,18529,605,61,20,-4,17,411,320,3702,37,29,854,1836,1936,2156,2323,2159,1884,1952,2127
383238,17888,19588,18594,18594,141,-213,29,4,12,415,359,4087,36,41,856,1836,1936,2156,2323,2159,1884,1952,2127
384239,17932,19648,18659,18659,567,93,22,9,4,44,358,3846,29,27,855,1838,1936,2157,2323,2156,1883,1951,2125
385240,17992,19704,18724,18724,374,154,24,4,7,173,345,3900,36,39,856,1838,1936,2157,2323,2156,1883,1951,2125
386241,18048,19764,18789,18789,435,109,29,3,12,199,371,3870,33,27,854,1838,1936,2157,2323,2156,1883,1951,2125
387242,18112,19836,18854,18854,336,-49,28,-3,7,-90,386,3881,35,33,856,1838,1936,2157,2323,2156,1883,1951,2125
388243,18172,19880,18919,18919,393,325,26,8,14,266,358,3906,37,29,855,1838,1936,2157,2323,2156,1883,1951,2125
389244,18228,19932,18984,18984,454,241,28,-3,18,237,393,3856,39,27,857,1830,1925,2147,2316,2153,1882,1947,2116
390245,18308,20000,19049,19049,136,38,29,17,12,-100,416,4002,47,36,855,1830,1925,2147,2316,2153,1882,1947,2116
391246,18372,20056,19114,19114,337,198,25,0,12,48,334,3728,31,35,855,1830,1925,2147,2316,2153,1882,1947,2116
392247,18444,20096,19179,19179,230,428,27,-4,9,333,426,3976,39,40,857,1830,1925,2147,2316,2153,1882,1947,2116
393248,18512,20152,19244,19244,276,239,29,4,11,93,375,3870,46,40,856,1830,1925,2147,2316,2153,1882,1947,2116
394249,18576,20216,19309,19309,327,139,23,1,7,41,360,3908,35,41,855,1830,1925,2147,2316,2153,1882,1947,2116
395250,18648,20276,19374,19374,220,195,25,3,4,275,347,3951,41,26,854,1822,1917,2142,2312,2153,1883,1947,2118
396251,18700,20340,19439,19439,486,147,22,8,15,348,350,3818,37,32,856,1822,1917,2142,2312,2153,1883,1947,2118
397252,18772,20408,19504,19504,227,92,29,11,17,148,349,4017,37,33,856,1822,1917,2142,2312,2153,1883,1947,2118
398253,18824,20468,19569,19569,493,198,25,8,17,75,409,3797,35,32,855,1822,1917,2142,2312,2153,1883,1947,2118
399254,18904,20540,19634,19634,126,40,31,15,11,90,358,4004,41,40,857,1822,1917,2142,2312,2153,1883,1947,2118
400255,18972,20580,19699,19699,272,469,28,14,13,137,376,3872,37,26,855,1823,1918,2142,2310,2156,1883,1952,2125
401256,19060,20632,19764,19764,-6,335,32,18,7,43,371,3846,37,30,858,1823,1918,2142,2310,2156,1883,1952,2125
402257,19124,20696,19829,19829,295,186,30,8,8,14,355,3976,37,29,855,1823,1918,2142,2310,2156,1883,1952,2125
403258,19200,20744,19894,19894,133,406,33,7,8,-18,363,3827,45,42,857,1823,1918,2142,2310,2156,1883,1952,2125
404259,19264,20804,19959,19959,284,262,33,5,1,111,362,3958,38,41,856,1823,1918,2142,2310,2156,1883,1952,2125
405260,19332,20868,20024,20024,230,213,30,4,-9,63,418,3879,32,30,856,1823,1918,2142,2310,2156,1883,1952,2125
406261,19420,20944,20089,20089,-47,49,25,1,2,149,439,3886,37,36,856,1832,1933,2153,2318,2161,1883,1955,2134
407262,19460,21004,20154,20154,584,255,25,0,7,327,380,3997,37,27,857,1832,1933,2153,2318,2161,1883,1955,2134
408263,19544,21076,20219,20219,10,96,24,9,16,273,364,3758,49,40,858,1832,1933,2153,2318,2161,1883,1955,2134
409264,19616,21148,20284,20284,152,87,24,6,13,353,418,3946,41,27,854,1832,1933,2153,2318,2161,1883,1955,2134
410265,19692,21200,20349,20349,90,353,26,4,7,112,346,3884,44,29,858,1832,1933,2153,2318,2161,1883,1955,2134
411266,19760,21260,20414,20414,186,259,26,0,13,75,335,3965,48,39,856,1834,1936,2156,2320,2157,1883,1954,2125
412267,19832,21336,20479,20479,127,44,24,-5,12,87,483,3900,34,28,855,1834,1936,2156,2320,2157,1883,1954,2125
413268,19892,21388,20544,20544,283,360,22,-6,16,81,415,3888,33,26,856,1834,1936,2156,2320,2157,1883,1954,2125
414269,19960,21452,20609,20609,181,211,17,-4,12,118,382,3909,45,34,858,1834,1936,2156,2320,2157,1883,1954,2125
415270,20032,21516,20674,20674,122,212,19,-4,4,60,407,3896,36,32,855,1834,1936,2156,2320,2157,1883,1954,2125
416271,20088,21576,20739,20739,333,268,19,1,3,263,387,3905,39,34,856,1834,1936,2156,2320,2157,1883,1954,2125
417272,20172,21656,20804,20804,-40,-1,23,-7,10,29,330,3824,31,29,857,1833,1930,2151,2315,2156,1882,1948,2119
418273,20236,21712,20869,20869,211,309,22,-4,7,-7,365,3946,38,32,855,1833,1930,2151,2315,2156,1882,1948,2119
419274,20296,21772,20934,20934,268,266,24,0,7,243,315,3891,38,30,858,1833,1930,2151,2315,2156,1882,1948,2119
420275,20360,21836,20999,20999,220,217,24,-2,7,184,336,3874,42,41,856,1833,1930,2151,2315,2156,1882,1948,2119
421276,20424,21896,21064,21064,221,272,29,1,4,185,397,3951,45,32,856,1833,1930,2151,2315,2156,1882,1948,2119
422277,20484,21948,21129,21129,277,388,27,2,9,244,351,3900,45,33,856,1827,1919,2146,2314,2152,1882,1947,2116
423278,20556,22012,21194,21194,119,239,24,0,14,154,361,3880,48,35,856,1827,1919,2146,2314,2152,1882,1947,2116
424279,20636,22064,21259,21259,1,404,23,1,10,139,387,3943,42,40,855,1827,1919,2146,2314,2152,1882,1947,2116
425280,20684,22128,21324,21324,422,255,25,12,5,271,395,3885,33,34,856,1827,1919,2146,2314,2152,1882,1947,2116
426281,20752,22204,21389,21389,168,92,24,6,11,221,373,3792,40,41,856,1827,1919,2146,2314,2152,1882,1947,2116
427282,20812,22256,21454,21454,275,406,22,15,12,145,376,4104,31,34,855,1827,1919,2146,2314,2152,1882,1947,2116
428283,20884,22316,21519,21519,117,313,25,8,18,84,365,3701,33,42,855,1826,1920,2145,2315,2155,1885,1950,2122
429284,20932,22376,21584,21584,437,319,26,6,12,80,440,3971,32,30,853,1826,1920,2145,2315,2155,1885,1950,2122
430285,20992,22460,21649,21649,294,-5,29,9,11,104,350,3938,43,37,856,1826,1920,2145,2315,2155,1885,1950,2122
431289,21072,22528,21714,21714,26,191,28,11,10,80,366,3812,47,30,855,1826,1920,2145,2315,2155,1885,1950,2122
432287,21120,22588,21779,21779,447,297,28,13,15,134,376,3836,48,40,857,1826,1920,2145,2315,2155,1885,1950,2122
433288,21188,22664,21844,21844,193,84,27,7,10,54,378,3973,41,28,857,1828,1927,2149,2317,2159,1884,1953,2131
434289,21248,22732,21909,21909,299,179,31,11,11,142,336,3943,40,42,854,1828,1927,2149,2317,2159,1884,1953,2131
435290,21308,22796,21974,21974,306,230,32,11,6,121,349,3857,27,36,857,1828,1927,2149,2317,2159,1884,1953,2131
436291,21368,22860,22039,22039,313,231,32,9,12,8,352,3922,46,39,856,1828,1927,2149,2317,2159,1884,1953,2131
437292,21412,22944,22104,22104,538,-43,29,6,4,84,409,3962,45,41,856,1828,1927,2149,2317,2159,1884,1953,2131
438293,21488,23004,22169,22169,125,263,30,9,-1,139,404,3768,46,42,856,1828,1927,2149,2317,2159,1884,1953,2131
439294,21552,23080,22234,22234,277,50,26,-2,-4,100,319,3958,49,37,855,1835,1935,2155,2320,2159,1883,1954,2129
440295,21624,23116,22299,22299,168,584,27,-11,-2,26,442,3856,42,37,856,1835,1935,2155,2320,2159,1883,1954,2129
441296,21696,23196,22364,22364,160,16,27,-11,12,320,321,3910,29,25,857,1835,1935,2155,2320,2159,1883,1954,2129
442297,21748,23252,22429,22429,426,327,35,9,11,603,384,3962,47,41,854,1835,1935,2155,2320,2159,1883,1954,2129
443298,21836,23328,22494,22494,-51,62,30,8,23,91,375,3865,36,26,857,1835,1935,2155,2320,2159,1883,1954,2129
444299,21892,23376,22559,22559,360,433,28,5,24,120,399,3950,30,35,855,1835,1932,2151,2319,2156,1881,1950,2119
445300,21952,23436,22624,22624,316,289,28,4,22,-9,401,3830,42,34,857,1835,1932,2151,2319,2156,1881,1950,2119
446301,22000,23512,22689,22689,487,75,28,0,19,60,433,3940,50,39,852,1835,1932,2151,2319,2156,1881,1950,2119
447302,22076,23568,22754,22754,124,336,21,-3,20,-45,362,3816,48,40,856,1835,1932,2151,2319,2156,1881,1950,2119
448303,22156,23636,22819,22819,56,182,26,3,7,167,354,3982,41,30,855,1835,1932,2151,2319,2156,1881,1950,2119
449304,22216,23708,22884,22884,312,123,28,-5,-1,33,336,3778,33,40,856,1835,1932,2151,2319,2156,1881,1950,2119
450305,22284,23760,22949,22949,208,389,32,-8,0,-66,364,4060,40,31,857,1826,1920,2143,2314,2149,1877,1948,2116
451306,22356,23820,23014,23014,151,295,27,-5,2,195,398,3790,47,33,856,1826,1920,2143,2314,2149,1877,1948,2116
452307,22432,23884,23079,23079,87,246,28,-2,5,253,399,3900,46,35,855,1826,1920,2143,2314,2149,1877,1948,2116
453308,22472,23948,23144,23144,568,246,24,1,8,178,413,3875,46,28,856,1826,1920,2143,2314,2149,1877,1948,2116
454309,22544,24008,23209,23209,159,302,27,5,7,140,346,3893,45,39,856,1826,1920,2143,2314,2149,1877,1948,2116
455310,22616,24088,23274,23274,152,34,26,-1,8,312,338,3881,50,36,854,1826,1920,2144,2315,2156,1886,1952,2120
456311,22688,24160,23339,23339,143,124,28,4,15,422,372,3952,47,27,856,1826,1920,2144,2315,2156,1886,1952,2120
457312,22740,24208,23404,23404,409,445,28,4,16,245,387,3905,39,25,857,1826,1920,2144,2315,2156,1886,1952,2120
458313,22808,24264,23469,23469,205,356,31,8,24,85,335,3963,41,36,857,1826,1920,2144,2315,2156,1886,1952,2120
459314,22876,24308,23534,23534,203,531,28,14,20,148,393,3986,45,27,854,1826,1920,2144,2315,2156,1886,1952,2120
460315,22944,24368,23599,23599,199,337,32,11,30,-69,325,3798,36,40,856,1826,1920,2144,2315,2156,1886,1952,2120
461316,22996,24436,23664,23664,415,233,26,-1,28,54,440,3907,39,29,854,1828,1925,2147,2319,2164,1888,1954,2129
462317,23068,24508,23729,23729,156,174,27,10,15,21,328,3880,37,29,854,1828,1925,2147,2319,2164,1888,1954,2129
463318,23136,24592,23794,23794,204,0,28,-2,6,67,382,3855,37,34,854,1828,1925,2147,2319,2164,1888,1954,2129
464319,23208,24648,23859,23859,145,361,32,3,-2,41,400,3913,46,29,857,1828,1925,2147,2319,2164,1888,1954,2129
465320,23252,24724,23924,23924,521,98,29,7,-15,148,417,3953,32,32,857,1828,1925,2147,2319,2164,1888,1954,2129
466321,23344,24772,23989,23989,-112,468,29,8,-19,173,428,3840,45,41,856,1832,1927,2154,2320,2160,1885,1954,2131
467322,23408,24840,24054,24054,240,214,23,-5,-7,276,431,3887,35,34,855,1832,1927,2154,2320,2160,1885,1954,2131
468323,23460,24912,24119,24119,406,155,22,-1,0,42,392,3941,32,38,850,1832,1927,2154,2320,2160,1885,1954,2131
469324,23520,24980,24184,24184,312,201,14,5,7,237,429,3874,32,32,856,1832,1927,2154,2320,2160,1885,1954,2131
470325,23608,25040,24249,24249,-66,307,14,4,17,336,365,3855,42,35,856,1832,1927,2154,2320,2160,1885,1954,2131
471326,23664,25116,24314,24314,346,93,17,9,26,224,365,3902,50,28,856,1832,1927,2154,2320,2160,1885,1954,2131
472327,23744,25164,24379,24379,28,463,18,0,25,230,378,3902,29,31,856,1834,1934,2152,2314,2156,1882,1951,2126
473328,23776,25212,24444,24444,668,484,21,4,20,239,330,3949,45,30,856,1834,1934,2152,2314,2156,1882,1951,2126
474329,23844,25288,24509,24509,214,121,23,10,14,128,395,3919,31,44,856,1834,1934,2152,2314,2156,1882,1951,2126
475330,23916,25364,24574,24574,157,107,19,9,3,84,391,3816,44,41,852,1834,1934,2152,2314,2156,1882,1951,2126
476331,23988,25444,24639,24639,148,38,26,11,-4,-3,393,3941,34,42,857,1834,1934,2152,2314,2156,1882,1951,2126
477332,24072,25508,24704,24704,-25,239,30,-1,-4,26,361,3803,45,38,857,1828,1924,2145,2313,2155,1881,1947,2118
478333,24136,25580,24769,24769,226,131,32,-10,2,27,345,3976,48,40,858,1828,1924,2145,2313,2155,1881,1947,2118
479334,24192,25644,24834,24834,338,231,31,0,3,5,402,4025,32,28,856,1828,1924,2145,2313,2155,1881,1947,2118
480335,24260,25712,24899,24899,185,177,24,-1,9,-101,431,3726,30,37,856,1828,1924,2145,2313,2155,1881,1947,2118
481337,24324,25792,24964,24964,236,9,22,-2,15,123,404,3965,40,32,856,1828,1924,2145,2313,2155,1881,1947,2118
482337,24388,25848,25029,25029,237,319,22,-3,19,55,377,3868,35,30,856,1828,1924,2145,2313,2155,1881,1947,2118
483338,24460,25912,25094,25094,129,220,17,-15,25,112,390,3845,34,26,857,1827,1923,2145,2316,2152,1881,1947,2117
484339,24552,25964,25159,25159,-154,386,23,-6,21,248,384,3956,33,36,856,1827,1923,2145,2316,2152,1881,1947,2117
485340,24596,26036,25224,25224,472,126,23,-9,13,213,373,3976,39,30,857,1827,1923,2145,2316,2152,1881,1947,2117
486341,24664,26120,25289,25289,168,-47,25,-1,5,195,383,3954,29,29,847,1827,1923,2145,2316,2152,1881,1947,2117
487342,24740,26148,25354,25354,56,698,26,11,6,366,390,3862,47,35,855,1827,1923,2145,2316,2152,1881,1947,2117
488343,24800,26228,25419,25419,262,29,26,12,2,216,363,3873,30,31,858,1831,1925,2150,2303,2143,1884,1951,2123
489344,24844,26284,25484,25484,488,340,28,5,7,137,343,3852,43,33,854,1831,1925,2150,2303,2143,1884,1951,2123
490346,24904,26356,25549,25549,294,131,27,5,11,109,379,3913,41,26,854,1831,1925,2150,2303,2143,1884,1951,2123
491346,24976,26396,25614,25614,135,562,29,4,10,166,391,3915,45,30,856,1831,1925,2150,2303,2143,1884,1951,2123
492347,25044,26472,25679,25679,183,97,28,5,6,83,354,3828,34,40,855,1831,1925,2150,2303,2143,1884,1951,2123
493348,25104,26524,25744,25744,289,413,31,3,11,113,369,3924,43,35,857,1831,1925,2150,2303,2143,1884,1951,2123
494349,25168,26596,25809,25809,240,155,31,7,14,188,375,3882,27,28,854,1834,1928,2152,2319,2158,1884,1952,2126
495350,25220,26652,25874,25874,406,365,30,14,7,196,412,3940,37,39,856,1834,1928,2152,2319,2158,1884,1952,2126
496351,25276,26716,25939,25939,368,266,20,6,9,111,444,3836,35,27,853,1834,1928,2152,2319,2158,1884,1952,2126
497352,25328,26768,26004,26004,434,432,19,1,14,118,442,3959,31,39,855,1834,1928,2152,2319,2158,1884,1952,2126
498353,25388,26844,26069,26069,340,117,22,1,13,71,352,3833,46,38,854,1834,1928,2152,2319,2158,1884,1952,2126
499354,25456,26912,26134,26134,236,214,24,4,9,77,393,3949,34,33,856,1832,1930,2150,2315,2157,1881,1950,2126
500355,25524,26952,26199,26199,233,594,26,0,11,105,335,3844,37,35,856,1832,1930,2150,2315,2157,1881,1950,2126
501356,25604,27024,26264,26264,65,186,26,1,11,74,322,3917,38,38,854,1832,1930,2150,2315,2157,1881,1950,2126
502357,25652,27084,26329,26329,486,341,32,-1,7,154,375,3908,32,35,857,1832,1930,2150,2315,2157,1881,1950,2126
503358,25720,27168,26394,26394,232,18,30,1,8,129,377,3966,33,33,854,1832,1930,2150,2315,2157,1881,1950,2126
504359,25792,27216,26459,26459,175,488,26,0,5,109,428,3867,49,32,857,1832,1930,2150,2315,2157,1881,1950,2126
505360,25860,27288,26524,26524,221,179,27,-1,3,130,396,3894,38,41,855,1828,1926,2146,2312,2155,1880,1949,2122
506361,25920,27356,26589,26589,327,225,30,4,4,148,404,3927,49,41,856,1828,1926,2146,2312,2155,1880,1949,2122
507362,26000,27436,26654,26654,59,57,24,1,8,185,413,3833,39,42,855,1828,1926,2146,2312,2155,1880,1949,2122
508363,26064,27496,26719,26719,261,312,27,10,9,239,367,3985,35,41,857,1828,1926,2146,2312,2155,1880,1949,2122
509364,26128,27560,26784,26784,262,263,26,0,11,159,407,3935,46,40,856,1828,1926,2146,2312,2155,1880,1949,2122
510365,26196,27616,26849,26849,209,374,20,8,9,241,425,3832,36,40,856,1827,1922,2144,2313,2153,1884,1950,2121
511366,26260,27708,26914,26914,260,-109,20,4,13,164,387,3897,45,26,855,1827,1922,2144,2313,2153,1884,1950,2121
512367,26316,27764,26979,26979,372,351,18,4,11,66,372,3953,33,36,855,1827,1922,2144,2313,2153,1884,1950,2121
513368,26392,27824,27044,27044,108,307,21,9,12,99,367,3955,34,35,853,1827,1922,2144,2313,2153,1884,1950,2121
514369,26452,27900,27109,27109,315,94,24,4,11,56,378,3885,49,31,856,1827,1922,2144,2313,2153,1884,1950,2121
515370,26520,27964,27174,27174,211,244,24,3,6,50,384,3944,33,37,856,1828,1922,2147,2317,2157,1884,1950,2121
516371,26604,28020,27239,27239,-11,355,19,0,9,-40,368,3940,47,35,856,1828,1922,2147,2317,2157,1886,1947,2125
517372,26668,28076,27304,27304,240,366,21,5,6,74,401,3781,48,36,856,1828,1922,2147,2317,2157,1886,1947,2125
518373,26748,28120,27369,27369,22,541,24,-4,13,50,354,3976,43,34,855,1828,1922,2147,2317,2157,1886,1947,2125
519374,26824,28180,27434,27434,58,347,23,1,11,71,417,3937,30,30,855,1828,1922,2147,2317,2157,1886,1947,2125
520375,26876,28260,27499,27499,375,79,23,-4,18,86,324,3820,32,30,856,1828,1922,2147,2317,2157,1886,1947,2125
521376,26936,28316,27564,27564,281,390,26,-2,18,278,361,3980,46,33,856,1833,1929,2153,2321,2158,1886,1954,2128
522377,27008,28356,27629,27629,123,619,23,-4,17,118,375,3859,31,30,855,1833,1929,2153,2321,2158,1886,1954,2128
523378,27076,28420,27694,27694,169,320,25,2,13,71,356,3874,31,33,854,1833,1929,2153,2321,2158,1886,1954,2128
524379,27120,28480,27759,27759,496,376,25,9,9,317,362,3831,45,27,856,1833,1929,2153,2321,2158,1886,1954,2128
525380,27220,28548,27824,27824,-247,272,24,-1,6,346,349,3893,34,35,854,1833,1929,2153,2321,2158,1886,1954,2128
526381,27276,28600,27889,27889,314,488,29,1,-4,105,377,3950,41,30,856,1834,1932,2153,2318,2158,1882,1953,2127
527382,27340,28676,27954,27954,215,174,32,7,3,131,375,3851,46,33,855,1834,1932,2153,2318,2158,1882,1953,2127
528383,27408,28736,28019,28019,161,380,28,3,14,303,382,3919,46,39,856,1834,1932,2153,2318,2158,1882,1953,2127
529384,27476,28808,28084,28084,159,221,26,9,12,229,412,3848,32,30,854,1834,1932,2153,2318,2158,1882,1953,2127
530385,27536,28876,28149,28149,265,267,24,4,22,204,368,3808,33,41,855,1834,1932,2153,2318,2158,1882,1953,2127
531386,27600,28948,28214,28214,216,209,20,9,28,23,379,3914,39,40,855,1834,1932,2153,2318,2158,1882,1953,2127
532387,27644,29012,28279,28279,492,310,18,6,23,150,414,3910,45,30,856,1830,1929,2148,2312,2149,1877,1947,2119
533388,27724,29064,28344,28344,24,475,18,7,20,137,377,3839,28,27,854,1830,1929,2148,2312,2149,1877,1947,2119
534389,27776,29112,28409,28409,390,545,23,-1,18,223,388,3927,45,28,856,1830,1929,2148,2312,2149,1877,1947,2119
535390,27836,29200,28474,28474,296,17,23,7,0,215,450,3886,46,30,853,1830,1929,2148,2312,2149,1877,1947,2119
536391,27896,29256,28539,28539,302,427,20,-1,-9,-36,418,3921,48,38,856,1830,1929,2148,2312,2149,1877,1947,2119
537392,27964,29328,28604,28604,200,219,18,-2,-10,108,385,3908,32,42,855,1826,1924,2144,2310,2155,1881,1948,2120
538393,28032,29396,28669,28669,196,265,25,4,-3,238,304,3818,39,30,856,1826,1924,2144,2310,2155,1881,1948,2120
539394,28108,29456,28734,28734,83,371,30,3,3,158,313,4001,30,38,856,1826,1924,2144,2310,2155,1881,1948,2120
540395,28152,29528,28799,28799,508,212,37,4,18,138,289,3811,30,29,856,1826,1924,2144,2310,2155,1881,1948,2120
541396,28236,29584,28864,28864,-14,423,42,11,25,117,338,4015,28,41,854,1826,1924,2144,2310,2155,1881,1948,2120
542397,28304,29644,28929,28929,182,379,43,9,27,167,304,3820,50,32,856,1826,1924,2144,2310,2155,1881,1948,2120
543398,28384,29724,28994,28994,14,109,40,10,20,354,450,3900,47,30,856,1826,1921,2145,2316,2155,1885,1951,2121
544399,28452,29772,29059,29059,160,530,35,4,17,53,376,3896,47,33,857,1826,1921,2145,2316,2155,1885,1951,2121
545400,28524,29848,29124,29124,102,167,34,6,5,-15,529,4015,26,29,854,1826,1921,2145,2316,2155,1885,1951,2121
546401,28592,29920,29189,29189,149,208,18,3,-1,-18,548,3784,34,33,856,1826,1921,2145,2316,2155,1885,1951,2121
547402,28660,29992,29254,29254,146,199,11,6,4,-115,450,4016,35,44,855,1826,1921,2145,2316,2155,1885,1951,2121
548403,28720,30044,29319,29319,252,464,10,1,0,6,406,3832,35,41,856,1833,1927,2151,2322,2157,1885,1953,2126
549404,28784,30120,29384,29384,203,151,13,-1,-3,61,322,3869,40,37,854,1833,1927,2151,2322,2157,1885,1953,2126
550405,28836,30184,29449,29449,370,302,20,3,-6,181,309,3960,31,42,856,1833,1927,2151,2322,2157,1885,1953,2126
551406,28900,30256,29514,29514,221,193,23,-2,4,397,357,3859,44,26,855,1833,1927,2151,2322,2157,1885,1953,2126
552407,28968,30324,29579,29579,167,239,26,9,1,374,342,3943,31,39,856,1833,1927,2151,2322,2157,1885,1953,2126
553408,29008,30372,29644,29644,548,510,27,4,5,120,327,3944,37,25,856,1833,1927,2151,2322,2157,1885,1953,2126
554409,29064,30444,29709,29709,360,200,27,10,10,307,396,3935,26,33,852,1834,1930,2151,2316,2158,1884,1951,2123
555410,29144,30504,29774,29774,42,356,26,14,13,189,353,3912,31,33,855,1834,1930,2151,2316,2158,1884,1951,2123
556411,29192,30568,29839,29839,462,308,26,7,15,34,347,3824,36,36,856,1834,1930,2151,2316,2158,1884,1951,2123
557412,29276,30628,29904,29904,-11,364,26,8,17,102,340,3971,26,25,854,1834,1930,2151,2316,2158,1884,1951,2123
558413,29348,30680,29969,29969,132,479,28,4,18,-66,322,3768,29,27,856,1834,1930,2151,2316,2158,1884,1951,2123
559414,29408,30740,30034,30034,288,385,29,-2,15,-47,412,4017,43,36,855,1830,1927,2146,2312,2153,1875,1950,2122
560415,29464,30772,30099,30099,349,775,29,2,13,-40,391,3861,35,38,854,1830,1927,2146,2312,2153,1875,1950,2122
561416,29528,30852,30164,30164,250,156,23,-5,13,30,464,3875,36,35,851,1830,1927,2146,2312,2153,1875,1950,2122
562417,29584,30908,30229,30229,361,467,21,-5,6,133,457,3805,44,36,856,1830,1927,2146,2312,2153,1875,1950,2122
563418,29664,30980,30294,30294,44,258,16,-9,0,269,421,3987,43,40,853,1830,1927,2146,2312,2153,1875,1950,2122
564419,29732,31032,30359,30359,190,524,20,-8,-8,235,415,3860,42,28,856,1830,1927,2146,2312,2153,1875,1950,2122
565420,29792,31088,30424,30424,296,484,19,-2,-7,296,386,3910,41,30,854,1829,1926,2147,2317,2152,1880,1948,2120
566421,29848,31148,30489,30489,357,440,21,-1,-5,294,311,3893,32,37,854,1829,1926,2147,2317,2152,1880,1948,2120
567422,29916,31216,30554,30554,204,336,26,18,-3,194,405,3983,28,41,853,1829,1926,2147,2317,2152,1880,1948,2120
568423,29968,31280,30619,30619,420,388,20,4,14,229,279,3787,30,35,855,1829,1926,2147,2317,2152,1880,1948,2120
569424,30040,31344,30684,30684,162,388,27,-1,15,232,306,3950,27,35,854,1829,1926,2147,2317,2152,1880,1948,2120
570425,30100,31412,30749,30749,318,334,26,12,20,126,335,3965,30,45,855,1827,1926,2148,2318,2157,1887,1951,2122
571426,30160,31488,30814,30814,325,221,27,9,19,100,371,3859,34,31,854,1827,1926,2148,2318,2157,1887,1951,2122
572427,30216,31552,30879,30879,386,372,28,14,11,2,352,3907,41,42,855,1827,1926,2148,2318,2157,1887,1951,2122
573428,30276,31644,30944,30944,342,-12,30,4,7,87,396,3870,30,29,854,1827,1926,2148,2318,2157,1887,1951,2122
574429,30336,31700,31009,31009,348,449,26,5,4,104,424,3889,31,30,856,1827,1926,2148,2318,2157,1887,1951,2122
575430,30408,31752,31074,31074,190,515,22,-8,1,-46,396,3899,48,40,854,1827,1926,2148,2318,2157,1887,1951,2122
576431,30472,31820,31139,31139,292,311,25,3,4,192,390,3891,44,28,854,1832,1925,2149,2320,2156,1885,1952,2124
577432,30532,31892,31204,31204,348,252,25,6,19,167,436,3880,31,31,854,1832,1925,2149,2320,2156,1885,1952,2124
578433,30600,31968,31269,31269,244,188,17,1,23,-15,369,3893,28,41,854,1832,1925,2149,2320,2156,1885,1952,2124
579434,30652,32024,31334,31334,461,449,27,3,14,196,371,3935,45,45,856,1832,1925,2149,2320,2156,1885,1952,2124
580435,30712,32080,31399,31399,367,459,22,7,11,280,394,3942,31,44,852,1832,1925,2149,2320,2156,1885,1952,2124
581436,30772,32160,31464,31464,373,141,25,8,2,100,425,3907,35,42,853,1831,1927,2150,2318,2156,1882,1950,2125
582437,30832,32212,31529,31529,379,507,27,4,-1,148,346,3871,48,46,855,1831,1927,2150,2318,2156,1882,1950,2125
583438,30908,32284,31594,31594,167,248,27,9,1,211,365,3993,42,36,853,1831,1927,2150,2318,2156,1882,1950,2125
584439,30980,32332,31659,31659,208,568,29,10,9,24,336,3820,50,30,856,1831,1927,2150,2318,2156,1882,1950,2125
585440,31056,32408,31724,31724,145,205,31,10,19,72,318,3942,38,39,853,1831,1927,2150,2318,2156,1882,1950,2125
586441,31120,32468,31789,31789,296,411,27,3,19,169,372,3883,31,32,856,1831,1927,2150,2318,2156,1882,1950,2125
587442,31176,32540,31854,31854,408,252,30,7,24,140,404,3880,44,44,854,1830,1930,2149,2315,2154,1879,1948,2123
588443,31256,32604,31919,31919,90,352,26,1,22,192,409,3884,31,44,855,1830,1930,2149,2315,2154,1879,1948,2123
589444,31328,32672,31984,31984,181,299,28,2,13,325,455,3912,35,31,855,1830,1930,2149,2315,2154,1879,1948,2123
590445,31388,32752,32049,32049,337,130,25,0,2,198,449,3874,34,30,855,1830,1930,2149,2315,2154,1879,1948,2123
591446,31464,32804,32114,32114,125,496,18,4,-9,123,490,3854,49,28,856,1830,1930,2149,2315,2154,1879,1948,2123
592447,31532,32864,32179,32179,221,401,17,0,-10,137,371,3916,32,31,855,1830,1926,2145,2311,2151,1879,1949,2119
593448,31588,32904,32244,32244,382,682,21,7,-6,144,396,3870,43,39,855,1830,1926,2145,2311,2151,1879,1949,2119
594449,31672,32984,32309,32309,9,164,17,-2,11,64,326,3848,36,42,852,1830,1926,2145,2311,2151,1879,1949,2119
595450,31728,33040,32374,32374,371,475,27,5,18,-10,363,3995,33,42,857,1830,1926,2145,2311,2151,1879,1949,2119
596451,31792,33128,32439,32439,272,45,26,10,19,29,285,3762,44,32,854,1830,1926,2145,2311,2151,1879,1949,2119
597452,31856,33204,32504,32504,274,182,30,10,13,255,364,4014,44,47,856,1830,1926,2145,2311,2151,1879,1949,2119
598453,31936,33268,32569,32569,55,333,29,-4,14,80,344,3762,49,37,854,1827,1923,2145,2314,2154,1882,1950,2120
599454,32000,33328,32768,32768,421,552,33,-6,5,154,417,4032,46,39,856,1827,1923,2145,2314,2154,1882,1950,2120
600455,32076,33392,32833,32833,258,503,31,4,11,88,362,3822,29,29,853,1827,1923,2145,2314,2154,1882,1950,2120
601456,32148,33480,32898,32898,299,175,29,0,12,290,452,3875,31,38,854,1827,1923,2145,2314,2154,1882,1950,2120
602457,32208,33520,32963,32963,456,806,25,4,19,41,437,3886,37,36,856,1827,1923,2145,2314,2154,1882,1950,2120
603458,32268,33588,33028,33028,462,452,20,-1,16,104,436,3807,43,43,851,1830,1925,2149,2319,2158,1886,1952,2122
604459,32340,33672,33093,33093,304,228,19,4,15,168,392,3905,37,50,853,1830,1925,2149,2319,2158,1886,1952,2122
605460,32412,33740,33158,33158,295,424,25,8,3,202,405,3998,40,49,856,1830,1925,2149,2319,2158,1886,1952,2122
606461,32496,33816,33223,33223,123,311,24,8,-14,101,372,3848,36,38,854,1830,1925,2149,2319,2158,1886,1952,2122
607462,32560,33892,33288,33288,374,297,31,-3,-13,170,355,3847,40,47,856,1830,1925,2149,2319,2158,1886,1952,2122
608466,32640,33956,33353,33353,156,447,30,5,-13,248,366,4004,41,45,855,1830,1925,2149,2319,2158,1886,1952,2122
609464,32720,34020,33418,33418,138,449,26,4,-3,61,305,3865,43,33,855,1834,1927,2151,2321,2157,1885,1952,2124
610465,32772,34112,33483,33483,504,66,25,8,11,219,391,3848,41,46,855,1834,1927,2151,2321,2157,1885,1952,2124
611466,32844,34176,33548,33548,246,417,20,5,30,175,354,3889,47,47,855,1834,1927,2151,2321,2157,1885,1952,2124
612467,32908,34252,33613,33613,347,252,21,9,33,114,408,3889,46,46,855,1834,1927,2151,2321,2157,1885,1952,2124
613468,32992,34312,33678,33678,75,459,15,1,29,134,411,3805,42,39,855,1834,1927,2151,2321,2157,1885,1952,2124
614469,33064,34384,33743,33743,216,300,23,5,20,287,392,3970,42,39,856,1831,1928,2148,2315,2154,1879,1946,2120
615470,33156,34456,33808,33808,-67,291,25,13,10,75,333,3931,32,45,854,1831,1928,2148,2315,2154,1879,1946,2120
616471,33244,34536,33873,33873,-45,173,35,5,-1,16,339,3886,34,46,856,1831,1928,2148,2315,2154,1879,1946,2120
617472,33320,34592,33938,33938,93,483,37,8,-1,217,410,3869,29,44,857,1831,1928,2148,2315,2154,1879,1946,2120
618473,33376,34652,34003,34003,354,439,32,-2,-2,8,359,3823,38,44,855,1831,1928,2148,2315,2154,1879,1946,2120
619474,33448,34740,34068,34068,145,61,28,7,2,90,401,4000,32,35,855,1831,1928,2148,2315,2154,1879,1946,2120
620475,33524,34800,34133,34133,82,416,21,0,2,145,445,3770,48,46,857,1830,1928,2147,2315,2153,1880,1947,2121
621476,33572,34876,34198,34198,453,203,19,-2,-2,62,406,4021,46,42,856,1830,1928,2147,2315,2153,1880,1947,2121
622477,33632,34960,34263,34263,310,80,18,-7,1,313,379,3901,32,41,855,1830,1928,2147,2315,2153,1880,1947,2121
623478,33708,35000,34328,34328,96,660,22,11,-2,197,391,3873,43,44,856,1830,1928,2147,2315,2153,1880,1947,2121
624479,33772,35076,34393,34393,248,196,20,-8,14,102,353,3897,48,35,854,1830,1928,2147,2315,2153,1880,1947,2121
625480,33844,35140,34458,34458,139,347,26,1,19,140,337,3920,29,34,856,1829,1926,2145,2313,2153,1882,1949,2123
626481,33912,35208,34523,34523,186,293,22,0,25,86,287,3943,34,35,856,1829,1926,2145,2313,2153,1882,1949,2123
627482,33964,35280,34588,34588,402,235,28,5,17,70,339,3895,47,36,856,1829,1926,2145,2313,2153,1882,1949,2123
628483,34032,35356,34653,34653,199,170,32,-1,17,194,306,3842,33,29,855,1829,1926,2145,2313,2153,1882,1949,2123
629484,34104,35412,34718,34718,140,431,34,3,12,261,376,4029,33,41,856,1829,1926,2145,2313,2153,1882,1949,2123
630485,34152,35460,34783,34783,462,552,28,-1,3,-16,421,3910,46,30,855,1829,1926,2145,2313,2153,1882,1949,2123
631486,34232,35520,34848,34848,43,408,30,7,-3,96,406,3901,36,39,853,1830,1925,2148,2318,2155,1884,1950,2122
632487,34304,35596,34913,34913,135,194,24,-5,3,89,411,3882,30,43,855,1830,1925,2148,2318,2155,1884,1950,2122
633488,34364,35668,34978,34978,291,235,31,-2,1,78,466,3924,41,40,857,1830,1925,2148,2318,2155,1884,1950,2122
634489,34424,35724,35043,35043,297,446,18,-1,2,112,363,3867,42,38,856,1830,1925,2148,2318,2155,1884,1950,2122
635490,34496,35788,35108,35108,140,347,21,5,-1,242,373,3877,46,39,855,1830,1925,2148,2318,2155,1884,1950,2122
636491,34564,35848,35173,35173,186,403,24,-4,2,208,345,3923,41,42,856,1831,1926,2150,2319,2158,1886,1952,2121
637492,34632,35904,35238,35238,182,464,25,1,5,181,369,4007,33,30,855,1831,1926,2150,2319,2158,1886,1952,2121
638493,34692,35964,35303,35303,288,420,29,10,9,146,371,3962,28,39,855,1831,1926,2150,2319,2158,1886,1952,2121
639494,34764,36036,35368,35368,131,261,22,-1,16,195,355,3771,34,39,854,1831,1926,2150,2319,2158,1886,1952,2121
640495,34816,36096,35433,35433,397,416,30,7,21,216,352,3965,36,34,856,1831,1926,2150,2319,2158,1886,1952,2121
641496,34892,36172,35498,35498,83,203,20,4,28,136,400,3823,31,34,854,1831,1926,2150,2319,2158,1886,1952,2121
642497,34964,36232,35563,35563,125,409,24,2,16,119,437,3863,48,42,857,1831,1927,2150,2318,2153,1881,1949,2123
643498,35020,36296,35628,35628,337,359,25,1,13,134,372,3869,32,35,855,1831,1927,2150,2318,2153,1881,1949,2123
644499,35084,36356,35693,35693,238,415,24,2,4,262,390,3990,44,45,855,1831,1927,2150,2318,2153,1881,1949,2123
645500,35148,36428,35758,35758,239,257,31,4,3,38,364,3835,35,46,855,1831,1927,2150,2318,2153,1881,1949,2123
646501,35208,36496,35823,35823,295,303,24,-1,-3,117,440,3910,28,42,856,1831,1927,2150,2318,2153,1881,1949,2123
647502,35280,36556,35888,35888,137,408,24,11,4,114,351,3859,33,44,856,1832,1928,2147,2314,2154,1881,1948,2121
648503,35336,36620,35953,35953,349,359,29,-2,14,118,383,3900,45,44,855,1832,1928,2147,2314,2154,1881,1948,2121
649504,35416,36688,36018,36018,30,306,24,-4,18,66,383,3882,31,46,854,1832,1928,2147,2314,2154,1881,1948,2121
650505,35480,36752,36083,36083,232,357,23,-2,13,123,378,3914,48,39,857,1832,1928,2147,2314,2154,1881,1948,2121
651506,35548,36824,36148,36148,178,247,20,5,10,253,381,3835,43,38,856,1832,1928,2147,2314,2154,1881,1948,2121
652507,35608,36896,36213,36213,285,239,31,20,5,263,347,4068,30,36,857,1832,1928,2147,2314,2154,1881,1948,2121
653508,35688,36952,36278,36278,17,450,30,8,1,181,382,3685,26,42,856,1831,1927,2149,2318,2156,1884,1952,2124
654509,35732,37028,36343,36343,492,186,34,10,-5,131,369,4032,28,47,856,1831,1927,2149,2318,2156,1884,1952,2124
655510,35820,37100,36408,36408,-86,227,33,11,-2,107,393,3867,27,42,855,1831,1927,2149,2318,2156,1884,1952,2124
656514,35868,37168,36473,36473,436,273,34,12,-2,192,431,3911,46,52,855,1831,1927,2149,2318,2156,1884,1952,2124
657512,35948,37232,36538,36538,18,324,28,11,10,16,327,3826,35,43,855,1831,1927,2149,2318,2156,1884,1952,2124
658513,36008,37308,36603,36603,274,161,38,7,23,150,398,3980,35,49,857,1831,1926,2148,2317,2154,1883,1952,2123
659514,36072,37360,36668,36668,225,476,32,11,22,-21,394,3912,29,35,856,1831,1926,2148,2317,2154,1883,1952,2123
660515,36144,37436,36733,36733,116,162,31,5,15,142,340,3879,33,41,855,1831,1926,2148,2317,2154,1883,1952,2123
661516,36204,37512,36798,36798,274,149,32,11,21,161,344,3929,31,42,857,1831,1926,2148,2317,2154,1883,1952,2123
662517,36284,37572,36863,36863,5,354,35,4,17,31,388,3938,41,39,857,1831,1926,2148,2317,2154,1883,1952,2123
663518,36340,37624,36928,36928,316,470,28,13,7,46,355,3877,38,50,857,1831,1926,2148,2317,2154,1883,1952,2123
664519,36416,37720,36993,36993,53,-118,34,7,3,246,431,3857,32,38,855,1832,1926,2149,2319,2156,1885,1947,2123
665520,36484,37776,37058,37058,150,393,26,11,2,104,376,3906,37,51,857,1832,1926,2149,2319,2156,1885,1947,2123
666521,36552,37856,37123,37123,147,74,30,3,-12,118,361,3900,43,36,854,1832,1926,2149,2319,2156,1885,1947,2123
667522,36620,37920,37188,37188,143,275,31,1,-11,123,404,3875,33,51,857,1832,1926,2149,2319,2156,1885,1947,2123
668523,36668,38004,37253,37253,414,2,26,0,1,197,372,3873,27,38,857,1832,1926,2149,2319,2156,1885,1947,2123
669524,36724,38072,37318,37318,325,198,30,2,0,182,363,3923,42,43,856,1832,1927,2150,2319,2155,1882,1951,2122
670525,36804,38144,37383,37383,7,139,29,5,8,27,404,3952,27,42,856,1832,1927,2150,2319,2155,1882,1951,2122
671526,36868,38212,37448,37448,209,185,25,9,16,207,395,3804,31,39,857,1832,1927,2150,2319,2155,1882,1951,2122
672527,36912,38288,37513,37513,484,71,24,10,23,162,320,3911,31,35,856,1832,1927,2150,2319,2155,1882,1951,2122
673528,36980,38356,37578,37578,180,167,30,9,24,168,423,3958,30,42,855,1832,1927,2150,2319,2155,1882,1951,2122
674529,37040,38416,37643,37643,288,273,25,-2,17,76,399,3763,46,39,857,1832,1927,2150,2319,2155,1882,1951,2122
675530,37116,38500,37708,37708,74,-50,28,7,6,163,324,4011,32,41,856,1831,1927,2147,2315,2154,1881,1948,2123
676531,37188,38576,37773,37773,116,35,30,11,1,311,415,3768,35,42,858,1831,1927,2147,2315,2154,1881,1948,2123
677532,37240,38652,37838,37838,381,22,34,10,-5,110,375,3939,43,49,858,1831,1927,2147,2315,2154,1881,1948,2123
678533,37304,38736,37903,37903,233,-101,34,13,-4,134,352,3908,42,36,856,1831,1927,2147,2315,2154,1881,1948,2123
679534,37364,38792,37968,37968,290,260,35,12,8,166,370,3897,31,42,857,1831,1927,2147,2315,2154,1881,1948,2123
680535,37440,38856,38033,38033,76,160,28,9,11,69,431,3938,41,42,856,1831,1927,2147,2318,2156,1881,1949,2122
681536,37504,38908,38098,38098,228,326,26,7,17,58,375,3817,39,33,857,1831,1927,2147,2318,2156,1881,1949,2122
682537,37540,38960,38163,38163,613,342,24,9,27,243,402,3905,34,36,856,1831,1927,2147,2318,2156,1881,1949,2122
683538,37628,39032,38228,38228,-64,82,24,4,21,136,411,3960,30,34,852,1831,1927,2147,2318,2156,1881,1949,2122
684539,37688,39096,38293,38293,292,183,26,-1,15,26,428,3795,43,47,857,1831,1927,2147,2318,2156,1881,1949,2122
685540,37752,39160,38358,38358,243,184,26,2,10,110,353,3919,37,47,856,1831,1927,2147,2318,2156,1881,1949,2122
686541,37820,39224,38423,38423,190,185,29,10,1,210,392,3938,44,49,856,1827,1927,2150,2320,2159,1886,1953,2125
687542,37892,39280,38488,38488,131,296,28,2,-5,167,419,3794,29,42,857,1827,1927,2150,2320,2159,1886,1953,2125
688543,37952,39352,38553,38553,288,87,25,-2,-3,191,375,3923,28,45,856,1827,1927,2150,2320,2159,1886,1953,2125
689544,38020,39424,38618,38618,184,78,24,9,0,111,367,3988,29,33,857,1827,1927,2150,2320,2159,1886,1953,2125
690545,38088,39484,38683,38683,181,234,26,7,5,103,359,3800,37,37,857,1827,1927,2150,2320,2159,1886,1953,2125
691546,38160,39548,38748,38748,122,185,25,1,12,97,347,3887,31,32,856,1832,1926,2149,2319,2157,1886,1951,2123
692547,38224,39616,38813,38813,224,130,30,11,15,206,370,3911,28,49,857,1832,1926,2149,2319,2157,1886,1951,2123
693548,38284,39672,38878,38878,281,291,27,16,15,54,366,3826,43,47,857,1832,1926,2149,2319,2157,1886,1951,2123
694549,38364,39736,38943,38943,12,192,25,3,16,0,351,3861,29,32,856,1832,1926,2149,2319,2157,1886,1951,2123
695550,38420,39820,39008,39008,323,-81,29,4,16,316,378,3940,37,33,857,1832,1926,2149,2319,2157,1886,1951,2123
696551,38488,39888,39073,39073,170,115,28,-2,11,190,422,3790,41,45,856,1832,1926,2149,2319,2157,1886,1951,2123
697552,38544,39952,39138,39138,332,166,20,1,5,46,448,3922,41,36,857,1832,1927,2147,2316,2153,1881,1950,2121
698553,38604,40012,39203,39203,288,222,18,8,5,144,420,3913,35,31,856,1832,1927,2147,2316,2153,1881,1950,2121
699554,38676,40088,39268,39268,129,8,19,3,7,217,415,3853,39,35,856,1832,1927,2147,2316,2153,1881,1950,2121
700555,38720,40144,39333,39333,505,269,16,2,5,222,400,3852,45,46,856,1832,1927,2147,2316,2153,1881,1950,2121
701556,38792,40192,39398,39398,147,389,21,2,11,53,309,3961,35,35,855,1832,1927,2147,2316,2153,1881,1950,2121
702557,38852,40252,39463,39463,303,244,27,9,8,225,340,3871,29,34,856,1830,1926,2147,2315,2156,1883,1951,2125
703558,38928,40328,39528,39528,90,31,23,4,7,174,377,3887,32,43,856,1830,1926,2147,2315,2156,1883,1951,2125
704559,38992,40388,39593,39593,241,237,25,5,12,101,350,3952,45,43,858,1830,1926,2147,2315,2156,1883,1951,2125
705560,39060,40456,39658,39658,187,132,29,4,11,170,371,3779,43,43,856,1830,1926,2147,2315,2156,1883,1951,2125
706562,39108,40516,39723,39723,459,238,30,6,7,198,402,3942,37,47,857,1830,1926,2147,2315,2156,1883,1951,2125
707562,39180,40584,39788,39788,151,135,29,5,1,66,410,3903,31,35,855,1830,1926,2147,2315,2156,1883,1951,2125
708563,39248,40652,39853,39853,197,131,29,4,2,90,366,3906,31,41,857,1830,1926,2147,2316,2154,1882,1952,2123
709564,39320,40712,39918,39918,138,236,34,6,6,211,361,3946,33,37,857,1830,1926,2147,2316,2154,1882,1952,2123
710565,39396,40780,39983,39983,76,133,33,7,6,20,404,3902,43,36,857,1830,1926,2147,2316,2154,1882,1952,2123
711566,39460,40852,40048,40048,227,74,28,-1,5,-50,433,3784,32,42,857,1830,1926,2147,2316,2154,1882,1952,2123
712567,39520,40920,40113,40113,283,119,27,4,8,99,342,3976,39,32,857,1830,1926,2147,2316,2154,1882,1952,2123
713568,39572,40972,40178,40178,399,335,26,-1,11,217,413,3837,32,36,857,1833,1931,2150,2324,2156,1883,1951,2122
714569,39652,41020,40243,40243,32,406,21,-3,16,150,458,3858,45,37,855,1833,1931,2150,2324,2156,1883,1951,2122
715570,39732,41104,40308,40308,14,-68,25,1,10,107,361,4026,46,36,856,1833,1931,2150,2324,2156,1883,1951,2122
716571,39788,41164,40373,40373,325,238,28,1,6,174,348,3871,32,34,857,1833,1931,2150,2324,2156,1883,1951,2122
717572,39856,41216,40438,40438,171,354,27,6,7,367,440,3762,27,39,854,1833,1931,2150,2324,2156,1883,1951,2122
718573,39904,41280,40503,40503,442,204,24,4,6,314,352,3887,36,44,856,1833,1931,2150,2324,2156,1883,1951,2122
719574,39980,41332,40568,40568,79,370,21,11,1,79,397,3973,28,38,856,1836,1928,2150,2321,2157,1886,1952,2123
720575,40044,41400,40633,40633,230,166,24,12,5,82,393,3850,30,49,856,1836,1928,2150,2321,2157,1886,1952,2123
721576,40112,41460,40698,40698,177,272,28,10,11,253,374,3999,43,47,857,1836,1928,2150,2321,2157,1886,1952,2123
722577,40172,41536,40763,40763,283,58,27,10,2,86,417,3924,39,42,856,1836,1928,2150,2321,2157,1886,1952,2123
723578,40252,41600,40828,40828,16,209,22,5,0,-48,392,3920,46,41,857,1836,1928,2150,2321,2157,1886,1952,2123
724579,40312,41668,40893,40893,272,155,23,5,4,16,393,3871,34,49,857,1831,1925,2148,2317,2157,1884,1950,2123
725580,40388,41712,40958,40958,58,480,24,3,9,101,349,3935,37,49,856,1831,1925,2148,2317,2157,1884,1950,2123
726581,40444,41792,41023,41023,319,12,22,0,4,141,436,3877,29,41,856,1831,1925,2148,2317,2157,1884,1950,2123
727582,40520,41856,41088,41088,56,213,21,-3,9,-45,374,3926,29,48,857,1831,1925,2148,2317,2157,1884,1950,2123
728583,40584,41936,41153,41153,208,-5,22,-1,9,48,377,3843,37,51,857,1831,1925,2148,2317,2157,1884,1950,2123
729584,40664,41992,41218,41218,-10,305,25,-2,12,133,357,3946,27,46,857,1831,1925,2148,2317,2157,1884,1950,2123
730585,40720,42056,41283,41283,301,206,29,3,15,276,339,3869,35,41,857,1830,1925,2148,2314,2159,1884,1952,2123
731586,40800,42124,41348,41348,-18,152,29,0,16,244,399,3902,40,38,856,1830,1925,2148,2314,2159,1884,1952,2123
732587,40856,42180,41413,41413,293,312,23,1,18,3,398,3882,41,51,857,1830,1925,2148,2314,2159,1884,1952,2123
733588,40936,42260,41478,41478,-24,-6,23,11,15,205,361,3914,31,36,856,1830,1925,2148,2314,2159,1884,1952,2123
734589,40992,42332,41543,41543,287,85,22,8,16,349,412,3887,42,40,858,1830,1925,2148,2314,2159,1884,1952,2123
735590,41056,42400,41608,41608,188,131,21,5,10,152,423,3909,43,47,857,1831,1927,2148,2316,2159,1883,1956,2128
736591,41124,42468,41673,41673,135,127,19,0,4,35,341,3860,46,49,857,1831,1927,2148,2316,2159,1883,1956,2128
737592,41180,42536,41738,41738,296,123,25,-2,1,186,346,3978,28,45,857,1831,1927,2148,2316,2159,1883,1956,2128
738593,41244,42620,41803,41803,198,-100,23,1,-3,136,385,3857,42,37,856,1831,1927,2148,2316,2159,1883,1956,2128
739594,41304,42708,41868,41868,254,-179,25,-4,0,-131,369,3915,42,39,857,1831,1927,2148,2316,2159,1883,1956,2128
740595,41364,42768,41933,41933,260,177,25,-2,10,100,332,3973,29,37,856,1832,1928,2149,2319,2160,1884,1952,2122
741596,41448,42840,41998,41998,-63,19,33,0,16,175,293,3871,47,39,856,1832,1928,2149,2319,2160,1884,1952,2122
742597,41512,42904,42063,42063,189,119,33,0,17,161,366,3858,32,46,857,1832,1928,2149,2319,2160,1884,1952,2122
743598,41572,42984,42128,42128,245,-99,28,0,16,258,401,3857,44,47,857,1832,1928,2149,2319,2160,1884,1952,2122
744599,41636,43028,42193,42193,196,376,24,4,17,143,364,3942,43,34,857,1832,1928,2149,2319,2160,1884,1952,2122
745600,41716,43072,42258,42258,-22,401,27,4,16,278,419,3926,36,46,856,1832,1928,2149,2319,2160,1884,1952,2122
746601,41776,43144,42323,42323,234,42,27,7,13,329,367,3868,31,38,856,1834,1932,2152,2321,2153,1882,1950,2119
747602,41848,43196,42388,42388,77,308,26,3,9,157,397,3916,35,49,857,1834,1932,2152,2321,2153,1882,1950,2119
748603,41916,43272,42453,42453,123,-6,20,1,5,24,412,3923,47,46,857,1834,1932,2152,2321,2153,1882,1950,2119
749604,42004,43348,42518,42518,-155,-20,19,-1,9,-24,311,3886,35,35,858,1834,1932,2152,2321,2153,1882,1950,2119
750605,42076,43412,42583,42583,36,132,26,8,9,135,313,3934,42,39,849,1834,1932,2152,2321,2153,1882,1950,2119
751606,42148,43484,42648,42648,28,22,25,-1,16,87,370,3803,43,46,856,1833,1926,2149,2319,2154,1884,1944,2112
752607,42216,43580,42713,42713,75,-316,28,-1,16,124,408,3920,41,41,858,1833,1926,2149,2319,2154,1884,1944,2112
753608,42268,43660,42778,42778,291,-134,24,-1,12,-63,388,3976,37,34,856,1833,1926,2149,2319,2154,1884,1944,2112
754609,42336,43708,42843,42843,87,286,20,5,10,135,348,3932,42,44,856,1833,1926,2149,2319,2154,1884,1944,2112
755610,42412,43748,42908,42908,-26,416,29,7,12,453,318,3851,39,40,856,1833,1926,2149,2319,2154,1884,1944,2112
756611,42472,43812,42973,42973,180,117,30,5,9,263,416,3980,29,32,856,1833,1926,2149,2319,2154,1884,1944,2112
757612,42536,43880,43038,43038,131,63,25,-1,4,-100,397,3778,34,47,857,1832,1925,2148,2315,2156,1883,1949,2123
758613,42608,43932,43103,43103,24,279,27,8,11,105,367,3970,35,32,857,1832,1925,2148,2315,2156,1883,1949,2123
759614,42672,44012,43168,43168,125,-90,27,8,12,247,367,3924,36,33,857,1832,1925,2148,2315,2156,1883,1949,2123
760615,42728,44076,43233,43233,236,110,23,-1,11,66,420,3758,27,34,857,1832,1925,2148,2315,2156,1883,1949,2123
761616,42796,44128,43298,43298,82,276,22,0,5,6,360,3917,37,33,857,1832,1925,2148,2315,2156,1883,1949,2123
762617,42848,44204,43363,43363,298,-37,23,-3,6,184,321,3940,27,33,857,1830,1927,2149,2314,2159,1884,1952,2127
763618,42924,44264,43428,43428,-14,168,25,-2,6,142,373,3873,45,35,857,1830,1927,2149,2314,2159,1884,1952,2127
764619,42988,44336,43493,43493,137,9,26,-1,4,126,381,3853,47,41,857,1830,1927,2149,2314,2159,1884,1952,2127
765620,43060,44388,43558,43558,28,275,26,3,9,269,407,3946,31,42,858,1830,1927,2149,2314,2159,1884,1952,2127
766621,43132,44444,43623,43623,20,235,21,3,8,206,419,3822,38,30,857,1830,1927,2149,2314,2159,1884,1952,2127
767622,43196,44520,43688,43688,121,-28,18,-4,11,53,366,3859,43,42,857,1830,1927,2149,2314,2159,1884,1952,2127
768623,43260,44572,43753,43753,123,288,16,0,7,233,408,3914,30,33,856,1831,1927,2147,2315,2159,1885,1953,2127
769624,43352,44636,43818,43818,-260,139,15,0,9,152,388,3819,41,42,857,1831,1927,2147,2315,2159,1885,1953,2127
770625,43432,44696,43883,43883,-128,194,13,9,8,137,356,4068,41,35,856,1831,1927,2147,2315,2159,1885,1953,2127
771626,43480,44744,43948,43948,293,365,18,5,12,208,346,3781,46,34,857,1831,1927,2147,2315,2159,1885,1953,2127
772627,43544,44796,44013,44013,94,331,19,-2,6,31,451,3915,40,46,856,1831,1927,2147,2315,2159,1885,1953,2127
773628,43644,44864,44078,44078,-399,126,21,5,7,-128,339,4015,28,44,857,1832,1927,2130,2317,2157,1884,1950,2124
774629,43736,44916,44143,44143,-331,342,27,4,16,131,240,3999,43,33,855,1832,1927,2130,2317,2157,1884,1950,2124
775630,43816,44984,44208,44208,-199,138,34,6,12,310,336,3815,32,38,857,1832,1927,2130,2317,2157,1884,1950,2124
776631,43892,45044,44273,44273,-162,243,27,-9,15,-7,465,3766,41,36,858,1832,1927,2130,2317,2157,1884,1950,2124
777632,43968,45120,44338,44338,-176,30,18,-3,18,-157,431,3946,38,46,849,1832,1927,2130,2317,2157,1884,1950,2124
778633,44032,45184,44403,44403,-25,181,22,-1,17,249,378,4096,42,43,848,1832,1927,2130,2317,2157,1884,1950,2124
779634,44112,45248,44468,44468,-243,181,14,-3,2,54,464,3695,29,41,857,1834,1926,2149,2319,2152,1920,1984,2176
780635,44152,45324,44533,44533,288,18,16,-10,2,268,357,3919,25,48,857,1834,1926,2149,2319,2152,1920,1984,2176
781636,44224,45412,44598,44598,-120,-160,21,-8,-5,352,390,4010,25,35,858,1834,1926,2149,2319,2152,1920,1984,2176
782637,44300,45484,44663,44663,-183,31,22,-8,-3,-93,347,3877,34,36,852,1834,1926,2149,2319,2152,1920,1984,2176
783638,44344,45536,44728,44728,242,296,25,0,3,60,330,3934,25,32,847,1834,1926,2149,2319,2152,1920,1984,2176
784639,44396,45612,44793,44793,158,-17,25,6,16,407,378,3835,24,33,856,1831,1927,2126,2320,2152,1882,1949,2110
785640,44448,45672,44858,44858,174,189,16,-6,22,343,390,3821,27,32,856,1831,1927,2126,2320,2152,1882,1949,2110
786641,44508,45732,44923,44923,80,194,19,0,24,114,396,3908,24,47,857,1831,1927,2126,2320,2152,1882,1949,2110
787642,44556,45804,44988,44988,251,35,25,6,26,273,371,4033,41,48,857,1831,1927,2126,2320,2152,1882,1949,2110
788643,44628,45852,45053,45053,-57,356,24,12,24,522,338,3696,42,42,857,1831,1927,2126,2320,2152,1882,1949,2110
789644,44688,45900,45118,45118,99,376,20,6,16,366,417,3991,43,40,856,1831,1927,2126,2320,2152,1882,1949,2110
790645,44748,45968,45183,45183,106,122,20,13,12,14,395,3930,26,40,856,1832,1927,2147,2318,2156,1883,1951,2123
791646,44796,46004,45248,45248,276,558,18,11,9,116,394,3982,35,35,857,1832,1927,2147,2318,2156,1883,1951,2123
792647,44856,46072,45313,45313,132,154,24,3,4,-165,379,3693,42,34,854,1832,1927,2147,2318,2156,1883,1951,2123
793648,44884,46148,45378,45378,578,40,25,-3,-1,-214,352,4134,42,51,857,1832,1927,2147,2318,2156,1883,1951,2123
794649,44956,46232,45443,45443,20,-84,28,5,-2,-61,278,3918,24,40,855,1832,1927,2147,2318,2156,1883,1951,2123
795650,45020,46300,45508,45508,121,113,31,-10,1,-127,289,3774,42,49,857,1829,1928,2148,2315,2161,1886,1953,2126
796651,45072,46372,45573,45573,287,53,37,-9,1,131,401,3952,35,37,857,1829,1928,2148,2315,2161,1886,1953,2126
797652,45136,46440,45638,45638,138,99,25,-12,5,123,439,3728,45,45,857,1829,1928,2148,2315,2161,1886,1953,2126
798653,45212,46508,45703,45703,-25,96,21,-8,10,316,426,3994,32,39,857,1829,1928,2148,2315,2161,1886,1953,2126
799654,45276,46576,45768,45768,127,91,21,-3,14,378,366,3864,30,45,858,1829,1928,2148,2315,2161,1886,1953,2126
800655,45352,46640,45833,45833,-36,142,22,-6,19,334,374,3853,44,47,857,1829,1928,2148,2315,2161,1886,1953,2126
801656,45420,46708,45898,45898,60,89,15,-2,15,449,435,3903,45,35,858,1832,1927,2149,2317,2156,1885,1952,2126
802657,45500,46780,45963,45963,-108,29,13,3,12,316,351,3938,33,32,856,1832,1927,2149,2317,2156,1885,1952,2126
803658,45572,46848,46028,46028,-17,76,12,7,7,261,405,3802,37,44,853,1832,1927,2149,2317,2156,1885,1952,2126
804659,45632,46916,46093,46093,139,72,17,4,5,238,299,3878,29,35,858,1832,1927,2149,2317,2156,1885,1952,2126
805660,45700,46992,46158,46158,37,-43,20,4,8,180,345,4060,37,44,857,1832,1927,2149,2317,2156,1885,1952,2126
806661,45760,47072,46223,46223,143,-111,22,7,7,36,305,3790,37,38,858,1834,1926,2148,2316,2155,1884,1948,2121
807662,45832,47124,46288,46288,-16,255,26,3,11,-102,331,4071,25,47,857,1834,1926,2148,2316,2155,1884,1948,2121
808663,45888,47188,46353,46353,195,106,24,3,11,-143,407,3877,32,43,857,1834,1926,2148,2316,2155,1884,1948,2121
809664,45960,47244,46418,46418,-13,216,20,2,12,-31,397,3820,43,32,857,1834,1926,2148,2316,2155,1884,1948,2121
810665,46036,47304,46483,46483,-77,172,11,-10,10,-30,430,3881,26,32,857,1834,1926,2148,2316,2155,1884,1948,2121
811666,46096,47348,46548,46548,130,398,9,-8,12,-98,405,3908,36,33,856,1834,1926,2148,2316,2155,1884,1948,2121
812667,46156,47400,46613,46613,136,313,12,-11,9,164,347,3838,35,33,856,1832,1926,2149,2318,2155,1882,1947,2119
813668,46228,47468,46678,46678,-22,109,19,-16,5,137,396,4014,42,42,856,1832,1926,2149,2318,2155,1882,1947,2119
814669,46268,47528,46743,46743,408,215,16,-9,1,14,361,3863,36,32,858,1832,1926,2149,2318,2155,1882,1947,2119
815670,46320,47592,46808,46808,274,165,18,-8,4,289,326,3814,26,48,856,1832,1926,2149,2318,2155,1882,1947,2119
816671,46372,47656,46873,46873,291,167,21,-5,1,326,393,3971,29,49,856,1832,1926,2149,2318,2155,1882,1947,2119
817672,46424,47716,46938,46938,307,223,19,-6,4,86,405,3914,45,37,856,1831,1926,2148,2317,2151,1883,1951,2125
818673,46484,47788,47003,47003,213,63,15,-5,9,210,375,3814,34,35,856,1831,1926,2148,2317,2151,1883,1951,2125
819674,46552,47860,47068,47068,109,55,17,-8,8,300,335,3944,47,49,856,1831,1926,2148,2317,2151,1883,1951,2125
820675,46616,47928,47133,47133,161,101,19,-4,5,289,384,3962,44,36,858,1831,1926,2148,2317,2151,1883,1951,2125
821676,46684,47984,47198,47198,107,262,17,-3,10,153,390,3836,40,47,857,1831,1926,2148,2317,2151,1883,1951,2125
822677,46744,48056,47263,47263,214,52,22,-2,13,167,414,3903,46,39,857,1831,1926,2148,2317,2151,1883,1951,2125
823678,46812,48132,47328,47328,110,-11,22,0,10,124,404,3969,44,50,857,1835,1931,2147,2319,2157,1884,1953,2126
824679,46892,48232,47393,47393,-58,-354,26,4,12,29,367,3941,36,34,858,1835,1931,2147,2319,2157,1884,1953,2126
825680,46972,48316,47458,47458,-76,-178,23,-1,17,34,372,3796,36,37,856,1835,1931,2147,2319,2157,1884,1953,2126
826681,47044,48376,47523,47523,15,128,26,-9,12,-20,353,4023,41,45,855,1835,1931,2147,2319,2157,1884,1953,2126
827682,47104,48444,47588,47588,172,25,30,1,13,205,354,3822,36,30,858,1835,1931,2147,2319,2157,1884,1953,2126
828683,47156,48516,47653,47653,288,-35,27,-5,14,247,364,3826,30,38,857,1831,1930,2152,2317,2158,1885,1952,2124
829684,47232,48580,47718,47718,-25,66,21,-1,13,-21,357,3938,45,42,857,1831,1930,2152,2317,2158,1885,1952,2124
830685,47296,48640,47783,47783,126,122,27,8,10,442,350,3861,39,46,858,1831,1930,2152,2317,2158,1885,1952,2124
831686,47368,48712,47848,47848,17,-37,27,12,15,463,440,3935,28,35,857,1831,1930,2152,2317,2158,1885,1952,2124
832687,47436,48776,47913,47913,65,64,26,11,10,157,437,3836,44,31,858,1831,1930,2152,2317,2158,1885,1952,2124
833691,47504,48820,47978,47978,61,340,25,9,12,-27,375,3979,39,33,858,1831,1930,2152,2317,2158,1885,1952,2124
834689,47576,48888,48043,48043,3,35,30,8,9,128,346,3824,28,31,856,1832,1925,2148,2317,2156,1884,1949,2121
835690,47628,48940,48108,48108,268,251,26,0,9,1,408,3832,29,31,858,1832,1925,2148,2317,2156,1884,1949,2121
836691,47700,48992,48173,48173,10,267,27,4,2,-158,347,3999,33,41,855,1832,1925,2148,2317,2156,1884,1949,2121
837692,47764,49044,48238,48238,111,282,31,-1,5,-50,323,3865,30,41,857,1832,1925,2148,2317,2156,1884,1949,2121
838693,47808,49112,48303,48303,388,78,34,-2,6,140,406,3782,44,33,857,1832,1925,2148,2317,2156,1884,1949,2121
839694,47892,49168,48368,48368,-135,239,32,-6,4,154,429,3900,40,42,856,1830,1924,2149,2317,2155,1882,1948,2117
840695,47956,49208,48433,48433,116,468,24,-3,2,113,408,4022,31,46,850,1830,1924,2149,2317,2155,1882,1948,2117
841696,48036,49288,48498,48498,-103,-50,19,3,14,292,367,3767,37,33,855,1830,1924,2149,2317,2155,1882,1948,2117
842697,48112,49336,48563,48563,-66,371,21,-3,9,348,437,3880,34,42,854,1830,1924,2149,2317,2155,1882,1948,2117
843698,48156,49432,48628,48628,360,-267,16,11,8,189,354,3989,28,33,855,1830,1924,2149,2317,2155,1882,1948,2117
844699,48228,49496,48693,48693,2,133,17,8,12,179,341,3795,37,40,856,1830,1924,2149,2317,2155,1882,1948,2117
845700,48300,49584,48758,48758,-6,-195,16,1,14,172,363,3903,47,47,858,1828,1922,2149,2317,2156,1884,1951,2125
846701,48364,49656,48823,48823,95,-3,20,5,16,4,313,3945,39,48,857,1828,1922,2149,2317,2156,1884,1951,2125
847702,48432,49720,48888,48888,41,97,26,3,14,258,333,3883,43,31,858,1828,1922,2149,2317,2156,1884,1951,2125
848703,48496,49792,48953,48953,92,-12,30,2,14,-71,363,3937,38,44,858,1828,1922,2149,2317,2156,1884,1951,2125
849704,48572,49852,49152,49152,94,308,34,10,12,-35,460,3914,33,42,858,1828,1922,2149,2317,2156,1884,1951,2125
850705,48616,49916,49217,49217,519,258,23,-6,10,400,371,3767,33,31,857,1830,1926,2146,2314,2157,1883,1952,2128
851706,48672,49996,49282,49282,380,40,27,-5,14,102,358,3942,41,35,855,1830,1926,2146,2314,2157,1883,1952,2128
852707,48756,50060,49347,49347,7,241,18,-5,14,-89,456,4021,41,49,857,1830,1926,2146,2314,2157,1883,1952,2128
853708,48836,50128,49412,49412,39,187,23,10,15,-70,318,3879,40,34,856,1830,1926,2146,2314,2157,1883,1952,2128
854709,48912,50192,49477,49477,76,238,19,-3,12,358,354,3843,44,30,857,1830,1926,2146,2314,2157,1883,1952,2128
855710,48976,50252,49542,49542,227,294,23,-2,9,382,339,3982,34,46,857,1830,1926,2146,2314,2157,1883,1952,2128
856711,49048,50316,49607,49607,119,245,23,-4,5,214,379,3816,40,42,856,1833,1927,2149,2318,2158,1884,1952,2124
857712,49120,50396,49672,49672,110,26,30,0,5,-16,331,3858,40,33,857,1833,1927,2149,2318,2158,1884,1952,2124
858713,49184,50480,49737,49737,212,-47,35,10,5,130,364,4146,35,47,858,1833,1927,2149,2318,2158,1884,1952,2124
859714,49252,50520,49802,49802,159,533,31,8,5,-35,360,3713,32,47,857,1833,1927,2149,2318,2158,1884,1952,2124
860715,49336,50604,49867,49867,-64,-40,28,0,1,-5,406,3802,47,42,855,1833,1927,2149,2318,2158,1884,1952,2124
861716,49396,50644,49932,49932,242,539,24,-16,2,134,434,3981,35,37,857,1831,1926,2152,2320,2155,1882,1947,2117
862717,49472,50744,49997,49997,28,-253,27,-9,4,209,467,3794,30,42,855,1831,1926,2152,2320,2155,1882,1947,2117
863718,49528,50792,50062,50062,289,417,26,-1,12,120,375,4020,35,39,857,1831,1926,2152,2320,2155,1882,1947,2117
864719,49584,50868,50127,50127,301,53,15,-4,11,32,412,3753,44,36,855,1831,1926,2152,2320,2155,1882,1947,2117
865720,49676,50944,50192,50192,-182,40,22,-3,19,197,351,4028,40,39,857,1831,1926,2152,2320,2155,1882,1947,2117
866721,49748,51040,50257,50257,60,-248,26,6,12,431,414,4004,44,37,847,1831,1926,2152,2320,2155,1882,1947,2117
867722,49816,51092,50322,50322,106,318,27,3,21,246,381,3704,33,48,857,1836,1926,2150,2318,2154,1883,1948,2121
868723,49892,51164,50387,50387,-7,58,24,6,15,86,413,3935,32,33,856,1836,1926,2150,2318,2154,1883,1948,2121
869724,49952,51232,50452,50452,200,104,22,3,11,183,389,3906,31,36,858,1836,1926,2150,2318,2154,1883,1948,2121
870725,50008,51300,50517,50517,261,101,21,11,10,480,343,3889,46,42,855,1836,1926,2150,2318,2154,1883,1948,2121
871726,50080,51376,50582,50582,52,-14,27,10,10,-9,314,3879,38,46,856,1836,1926,2150,2318,2154,1883,1948,2121
872727,50152,51452,50647,50647,44,-27,29,4,9,-49,382,3895,36,33,858,1834,1928,2148,2316,2155,1883,1950,2121
873728,50212,51532,50712,50712,200,-95,26,13,6,116,415,3903,45,29,858,1834,1928,2148,2316,2155,1883,1950,2121
874729,50280,51624,50777,50777,97,-279,22,-1,6,-40,349,3844,36,34,857,1834,1928,2148,2316,2155,1883,1950,2121
875730,50348,51688,50842,50842,94,72,25,1,4,-104,419,3981,31,45,856,1834,1928,2148,2316,2155,1883,1950,2121
876731,50416,51752,50907,50907,90,73,26,-2,11,197,363,3709,39,40,857,1834,1928,2148,2316,2155,1883,1950,2121
877732,50492,51812,50972,50972,-24,128,26,4,10,54,364,3984,46,38,857,1834,1928,2148,2316,2155,1883,1950,2121
878733,50552,51864,51037,51037,183,244,25,2,8,125,393,3906,36,43,858,1829,1924,2146,2315,2158,1884,1951,2125
879734,50632,51944,51102,51102,-85,-124,26,2,13,352,382,3855,28,29,857,1829,1924,2146,2315,2158,1884,1951,2125
880735,50672,52012,51167,51167,446,22,23,6,12,445,399,3901,32,38,855,1829,1924,2146,2315,2158,1884,1951,2125
881739,50752,52052,51232,51232,-73,402,24,10,20,36,332,3845,36,36,856,1829,1924,2146,2315,2158,1884,1951,2125
882737,50828,52132,51297,51297,-36,-117,24,11,17,267,420,4007,33,32,855,1829,1924,2146,2315,2158,1884,1951,2125
883738,50884,52168,51362,51362,225,469,24,10,14,256,355,3840,32,41,857,1831,1926,2145,2313,2154,1881,1950,2123
884739,50952,52240,51427,51427,71,9,22,6,15,97,329,3830,33,33,855,1831,1926,2145,2313,2154,1881,1950,2123
885740,51040,52308,51492,51492,-206,55,25,8,15,-42,377,3975,37,31,858,1831,1926,2145,2313,2154,1881,1950,2123
886741,51104,52368,51557,51557,95,162,27,2,16,24,352,3927,39,42,846,1831,1926,2145,2313,2154,1881,1950,2123
887742,51164,52432,51622,51622,152,112,32,-5,12,44,369,3852,33,42,856,1831,1926,2145,2313,2154,1881,1950,2123
888743,51228,52504,51687,51687,103,3,34,-9,14,-72,363,3944,33,35,857,1831,1926,2145,2313,2154,1881,1950,2123
889744,51288,52572,51752,51752,159,50,27,-5,8,35,414,3907,42,35,858,1831,1926,2147,2316,2127,1856,1949,2119
890745,51372,52632,51817,51817,-164,155,23,-7,5,150,435,3865,32,35,857,1831,1926,2147,2316,2127,1856,1949,2119
891746,51424,52684,51882,51882,253,270,18,-5,2,260,427,3906,48,34,848,1831,1926,2147,2316,2127,1856,1949,2119
892747,51504,52760,51947,51947,-116,-43,24,-7,1,348,370,3933,30,42,856,1831,1926,2147,2316,2127,1856,1949,2119
893748,51576,52800,52012,52012,-24,437,22,4,3,323,377,3944,41,44,853,1831,1926,2147,2316,2127,1856,1949,2119
894749,51640,52868,52077,52077,77,83,22,2,5,235,356,3915,37,40,856,1834,1927,2151,2308,2142,1884,1949,2121
895750,51692,52928,52142,52142,243,189,25,10,10,139,396,3872,43,44,857,1834,1927,2151,2308,2142,1884,1949,2121
896751,51764,53016,52207,52207,-16,-189,29,1,13,94,344,3970,43,39,856,1834,1927,2151,2308,2142,1884,1949,2121
897752,51828,53068,52272,52272,86,276,30,11,16,65,364,3947,31,45,857,1834,1927,2151,2308,2142,1884,1949,2121
898753,51888,53144,52337,52337,143,-38,25,4,18,-7,377,3847,28,33,857,1834,1927,2151,2308,2142,1884,1949,2121
899754,51972,53208,52402,52402,-181,114,26,-3,19,7,318,3851,43,36,858,1834,1927,2151,2308,2142,1884,1949,2121
900755,52044,53288,52467,52467,-39,-106,29,2,15,227,455,3964,33,42,847,1833,1927,2150,2319,2155,1883,1951,2121
901756,52116,53372,52532,52532,-48,-179,23,-2,13,48,361,3860,44,45,857,1833,1927,2150,2319,2155,1883,1951,2121
902757,52176,53448,52597,52597,108,-92,24,-2,8,121,371,3928,29,40,857,1833,1927,2150,2319,2155,1883,1951,2121
903758,52216,53488,52662,52662,390,387,21,-5,3,169,378,3859,26,32,857,1833,1927,2150,2319,2155,1883,1951,2121
904759,52272,53560,52727,52727,201,-21,25,-1,5,270,323,4016,43,34,853,1833,1927,2150,2319,2155,1883,1951,2121
905760,52348,53644,52792,52792,-63,-195,22,5,4,287,404,3908,36,37,857,1823,1926,2146,2318,2157,1884,1950,2123
906761,52408,53700,52857,52857,144,165,20,5,8,126,341,3865,36,33,856,1823,1926,2146,2318,2157,1884,1950,2123
907762,52456,53780,52922,52922,314,-153,26,7,10,208,343,3914,44,33,857,1823,1926,2146,2318,2157,1884,1950,2123
908763,52544,53828,52987,52987,-214,268,23,12,10,241,352,3936,38,38,856,1823,1926,2146,2318,2157,1884,1950,2123
909764,52600,53900,53052,53052,198,-42,24,7,8,-8,339,3876,45,29,845,1823,1926,2146,2318,2157,1884,1950,2123
910765,52680,53964,53117,53117,-120,60,28,6,7,19,361,3895,43,31,857,1823,1926,2146,2318,2157,1884,1950,2123
911766,52752,54024,53182,53182,-29,116,33,12,5,94,356,4034,42,42,852,1828,1924,2145,2313,2159,1885,1932,2099
912767,52800,54088,53247,53247,292,66,34,-4,11,-44,380,3703,41,39,857,1828,1924,2145,2313,2159,1885,1932,2099
913768,52888,54132,53312,53312,-236,342,31,0,12,-69,407,4015,45,42,857,1828,1924,2145,2313,2159,1885,1932,2099
914769,52932,54200,53377,53377,340,38,26,-3,7,230,401,3844,33,40,850,1828,1924,2145,2313,2159,1885,1932,2099
915770,52980,54236,53442,53442,311,472,26,-7,15,85,332,3860,35,34,858,1828,1924,2145,2313,2159,1885,1932,2099
916771,53036,54288,53507,53507,222,288,25,-8,5,295,479,3889,43,32,855,1827,1926,2148,2314,2154,1852,1949,2123
917772,53124,54328,53572,53572,-206,469,28,0,11,135,395,3884,46,36,856,1827,1926,2148,2314,2154,1852,1949,2123
918773,53192,54396,53637,53637,41,115,25,8,4,337,440,4017,42,31,844,1827,1926,2148,2314,2154,1852,1949,2123
919774,53252,54468,53702,53702,147,55,21,2,13,268,368,3791,37,38,857,1827,1926,2148,2314,2154,1852,1949,2123
920775,53312,54536,53767,53767,153,102,17,2,8,227,397,3894,33,33,857,1827,1926,2148,2314,2154,1852,1949,2123
921776,53388,54584,53832,53832,-60,373,25,3,17,-9,323,3908,42,46,855,1827,1926,2148,2314,2154,1852,1949,2123
922777,53472,54672,53897,53897,-183,-157,31,6,15,103,352,3960,45,41,856,1833,1929,2124,2288,2156,1883,1949,2122
923778,53528,54740,53962,53962,178,90,30,1,20,95,333,3869,35,37,847,1833,1929,2124,2288,2156,1883,1949,2122
924779,53580,54800,54027,54027,244,196,30,-14,17,-26,388,3887,41,35,857,1833,1929,2124,2288,2156,1883,1949,2122
925780,53648,54876,54092,54092,40,-19,31,-2,10,146,399,4007,39,31,856,1833,1929,2124,2288,2156,1883,1949,2122
926781,53724,54960,54157,54157,-73,-142,25,-7,9,136,398,3719,30,41,858,1833,1929,2124,2288,2156,1883,1949,2122
927782,53792,55032,54222,54222,24,0,25,-8,12,121,395,4041,44,40,856,1831,1912,2132,2320,2155,1883,1949,2120
928783,53864,55104,54287,54287,-34,-9,22,4,-1,176,420,4036,37,32,858,1831,1912,2132,2320,2155,1883,1949,2120
929784,53916,55168,54352,54352,232,91,21,2,4,24,354,3717,31,44,858,1831,1912,2132,2320,2155,1883,1949,2120
930785,53976,55236,54417,54417,138,38,14,-3,3,314,424,3933,31,44,857,1831,1912,2132,2320,2155,1883,1949,2120
931787,54036,55308,54482,54482,144,-21,19,8,7,247,326,3946,27,44,857,1831,1912,2132,2320,2155,1883,1949,2120
932787,54092,55396,54547,54547,205,-250,18,3,8,180,340,3922,27,30,857,1831,1912,2132,2320,2155,1883,1949,2120
933788,54148,55456,54612,54612,217,106,26,4,13,80,298,3852,33,32,856,1832,1924,2146,2315,2155,1882,1949,2121
934789,54220,55520,54677,54677,8,57,23,6,12,192,413,4033,28,40,857,1832,1924,2146,2315,2155,1882,1949,2121
935790,54288,55564,54742,54742,55,332,28,14,10,164,327,3816,38,40,858,1832,1924,2146,2315,2155,1882,1949,2121
936791,54364,55644,54807,54807,-59,-136,28,11,12,133,411,3917,44,29,856,1832,1924,2146,2315,2155,1882,1949,2121
937792,54420,55680,54872,54872,202,449,28,2,14,90,382,3906,35,28,857,1832,1924,2146,2315,2155,1882,1949,2121
938793,54476,55756,54937,54937,213,-65,22,6,7,239,432,3819,43,34,854,1831,1925,2146,2314,2155,1883,1951,2124
939794,54532,55816,55002,55002,225,141,27,-2,13,-248,330,4016,26,28,857,1831,1925,2146,2314,2155,1883,1951,2124
940795,54592,55876,55067,55067,181,147,21,-5,12,148,373,3776,38,40,857,1831,1925,2146,2314,2155,1883,1951,2124
941796,54668,55944,55132,55132,-32,42,32,-3,12,297,369,4001,36,28,857,1831,1925,2146,2314,2155,1883,1951,2124
942797,54716,55992,55197,55197,339,313,29,5,14,72,410,3935,27,29,858,1831,1925,2146,2314,2155,1883,1951,2124
943798,54792,56056,55262,55262,-25,114,29,-5,9,153,387,3802,36,35,855,1831,1925,2146,2314,2155,1883,1951,2124
944799,54852,56112,55327,55327,181,224,23,3,6,262,458,4062,46,29,857,1830,1925,2147,2315,2156,1883,1951,2126
945800,54900,56180,55392,55392,353,71,22,-1,6,252,396,3800,34,37,856,1830,1925,2147,2315,2156,1883,1951,2126
946801,54972,56228,55457,55457,45,341,23,0,4,108,334,3959,29,42,856,1830,1925,2147,2315,2156,1883,1951,2126
947802,55060,56296,55522,55522,-184,88,27,-3,4,128,320,3952,31,30,857,1830,1925,2147,2315,2156,1883,1951,2126
948803,55104,56348,55587,55587,392,303,29,11,4,243,382,3930,42,34,847,1830,1925,2147,2315,2156,1883,1951,2126
949804,55160,56424,55652,55652,253,-11,34,6,7,155,323,3810,28,41,855,1834,1928,2150,2317,2158,1884,1949,2112
950805,55228,56476,55717,55717,100,305,30,4,3,10,432,3957,34,29,857,1834,1928,2150,2317,2158,1884,1949,2112
951806,55280,56540,55782,55782,316,155,25,2,10,-40,374,3872,45,37,856,1834,1928,2150,2317,2158,1884,1949,2112
952807,55368,56620,55847,55847,-162,-63,24,-3,9,174,444,3833,30,33,856,1834,1928,2150,2317,2158,1884,1949,2112
953808,55424,56680,55912,55912,249,193,22,3,7,161,348,3916,44,35,849,1834,1928,2150,2317,2158,1884,1949,2112
954809,55488,56744,55977,55977,150,144,26,6,9,13,378,3897,40,30,856,1834,1928,2150,2317,2158,1884,1949,2112
955810,55556,56812,56042,56042,97,90,22,-2,7,146,388,3938,34,34,856,1834,1929,2151,2320,2155,1883,1939,2112
956811,55616,56876,56107,56107,204,141,21,3,9,184,350,3877,31,30,857,1834,1929,2151,2320,2155,1883,1939,2112
957812,55668,56932,56172,56172,320,252,22,5,8,165,352,3892,40,27,857,1834,1929,2151,2320,2155,1883,1939,2112
958813,55748,56984,56237,56237,-49,317,22,4,13,183,381,3921,32,36,856,1834,1929,2151,2320,2155,1883,1939,2112
959814,55808,57064,56302,56302,208,-52,25,0,14,315,383,3821,42,34,857,1834,1929,2151,2320,2155,1883,1939,2112
960815,55876,57120,56367,56367,104,259,29,-3,12,207,362,3917,39,28,857,1832,1923,2147,2318,2156,1885,1950,2121
961816,55932,57212,56432,56432,266,-225,27,4,9,60,362,3974,31,41,856,1832,1923,2147,2318,2156,1885,1950,2121
962817,56012,57244,56497,56497,-52,566,28,6,4,31,371,3861,32,32,856,1832,1923,2147,2318,2156,1885,1950,2121
963818,56076,57308,56562,56562,149,167,22,7,7,152,329,3926,42,30,855,1832,1923,2147,2318,2156,1885,1950,2121
964819,56128,57384,56627,56627,315,3,28,2,8,228,378,3919,46,40,857,1832,1923,2147,2318,2156,1885,1950,2121
965820,56204,57464,56692,56692,1,-66,24,1,10,-32,349,3997,32,35,857,1832,1925,2145,2314,2155,1882,1949,2121
966821,56284,57528,56757,56757,-66,135,25,5,8,192,376,3771,47,43,858,1832,1925,2145,2314,2155,1882,1949,2121
967822,56348,57588,56822,56822,135,191,24,2,5,63,387,3965,45,41,857,1832,1925,2145,2314,2155,1882,1949,2121
968823,56404,57652,56887,56887,246,142,26,0,8,129,339,3859,40,33,857,1832,1925,2145,2314,2155,1882,1949,2121
969824,56472,57724,56952,56952,92,33,26,-7,7,150,422,3862,47,36,856,1832,1925,2145,2314,2155,1882,1949,2121
970825,56556,57772,57017,57017,-131,354,23,-4,7,161,381,3962,34,31,858,1832,1925,2145,2314,2155,1882,1949,2121
971826,56612,57856,57082,57082,230,-119,23,0,7,242,376,3844,38,28,850,1832,1926,2148,2315,2155,1883,1950,2123
972827,56676,57908,57147,57147,132,296,28,7,11,191,416,3911,33,29,855,1832,1926,2148,2315,2155,1883,1950,2123
973828,56744,57972,57212,57212,79,147,22,4,12,95,368,3798,29,33,856,1832,1926,2148,2315,2155,1883,1950,2123
974829,56820,58032,57277,57277,-35,203,24,-4,7,303,380,3926,32,27,857,1832,1926,2148,2315,2155,1883,1950,2123
975830,56876,58104,57342,57342,226,43,30,3,14,262,387,3930,30,26,857,1832,1926,2148,2315,2155,1883,1950,2123
976831,56960,58164,57407,57407,-147,199,30,8,16,117,395,3807,46,40,857,1832,1927,2149,2317,2156,1884,1949,2121
977832,57016,58208,57472,57472,214,425,27,9,13,154,374,3876,30,28,850,1832,1927,2149,2317,2156,1884,1949,2121
978833,57072,58276,57537,57537,226,120,28,10,13,227,369,3833,31,37,855,1832,1927,2149,2317,2156,1884,1949,2121
979834,57116,58348,57602,57602,402,62,26,3,15,141,403,3867,35,31,857,1832,1927,2149,2317,2156,1884,1949,2121
980835,57192,58408,57667,57667,-12,218,27,8,11,199,379,3979,32,30,856,1832,1927,2149,2317,2156,1884,1949,2121
981836,57244,58476,57732,57732,304,114,23,17,5,183,433,3958,30,42,857,1832,1927,2149,2317,2156,1884,1949,2121
982837,57308,58532,57797,57797,155,274,22,8,6,-16,349,3794,44,30,856,1791,1922,2147,2317,2154,1880,1946,2117
983838,57372,58596,57862,57862,158,176,20,3,5,251,433,3948,40,35,856,1791,1922,2147,2317,2154,1880,1946,2117
984839,57448,58668,57927,57927,-6,67,21,9,4,63,379,3881,41,39,857,1791,1922,2147,2317,2154,1880,1946,2117
985840,57492,58716,57992,57992,420,387,24,6,6,-190,360,3871,31,31,857,1791,1922,2147,2317,2154,1880,1946,2117
986841,57572,58760,58057,58057,-48,462,20,0,0,149,345,3871,37,36,854,1791,1922,2147,2317,2154,1880,1946,2117
987842,57624,58848,58122,58122,317,-116,27,1,4,116,325,3987,37,33,855,1832,1925,2147,2318,2154,1881,1950,2122
988843,57700,58900,58187,58187,4,350,30,-2,9,24,379,3954,41,29,856,1832,1925,2147,2318,2154,1881,1950,2122
989844,57740,58972,58252,58252,486,91,31,3,6,38,420,3787,42,32,855,1832,1925,2147,2318,2154,1881,1950,2122
990845,57812,59056,58317,58317,77,-83,23,6,9,216,403,3926,47,44,855,1832,1925,2147,2318,2154,1881,1950,2122
991846,57872,59108,58382,58382,233,333,23,7,11,207,405,3896,46,31,857,1832,1925,2147,2318,2154,1881,1950,2122
992847,57944,59168,58447,58447,75,239,23,15,15,148,346,3927,32,27,856,1832,1925,2147,2318,2154,1881,1950,2122
993848,57992,59228,58512,58512,395,244,24,14,13,291,356,3939,28,31,856,1831,1924,2146,2316,2155,1886,1952,2124
994849,58056,59300,58577,58577,197,86,23,12,17,185,319,3942,45,30,855,1831,1924,2146,2316,2155,1886,1952,2124
995850,58120,59360,58642,58642,199,242,28,15,12,128,427,3883,34,30,857,1831,1924,2146,2316,2155,1886,1952,2124
996851,58176,59440,58707,58707,310,-27,26,11,14,191,353,3922,31,42,856,1831,1924,2146,2316,2155,1886,1952,2124
997852,58228,59496,58772,58772,376,284,29,2,5,186,364,3901,39,31,856,1831,1924,2146,2316,2155,1886,1952,2124
998853,58300,59560,58837,58837,117,185,30,7,7,20,378,3896,46,30,855,1833,1923,2148,2315,2156,1883,1949,2124
999854,58352,59624,58902,58902,384,186,28,2,-2,97,442,3914,42,32,857,1833,1923,2148,2315,2156,1883,1949,2124
1000855,58408,59680,58967,58967,345,296,32,9,-5,42,379,3960,47,38,855,1833,1923,2148,2315,2156,1883,1949,2124
1001856,58484,59752,59032,59032,81,88,28,-1,0,77,352,3859,46,42,855,1833,1923,2148,2315,2156,1883,1949,2124
1002857,58552,59816,59097,59097,178,189,27,2,0,156,402,3819,44,29,857,1833,1923,2148,2315,2156,1883,1949,2124
1003858,58628,59892,59162,59162,64,24,27,0,4,94,367,3994,40,40,857,1833,1923,2148,2315,2156,1883,1949,2124
1004859,58680,59956,59227,59227,381,176,28,5,9,91,320,3765,30,36,857,1834,1929,2151,2317,2156,1883,1949,2123
1005860,58748,60024,59292,59292,178,122,25,5,6,112,399,3991,33,40,856,1834,1929,2151,2317,2156,1883,1949,2123
1006861,58820,60088,59357,59357,119,173,25,3,10,217,323,3805,45,35,856,1834,1929,2151,2317,2156,1883,1949,2123
1007862,58888,60148,59422,59422,165,228,29,11,10,285,383,3994,41,28,857,1834,1929,2151,2317,2156,1883,1949,2123
1008863,58952,60216,59487,59487,217,125,27,7,7,49,377,3880,35,28,857,1834,1929,2151,2317,2156,1883,1949,2123
1009864,59020,60280,59552,59552,164,176,27,6,11,197,366,3859,34,37,857,1834,1929,2150,2317,2155,1884,1950,2123
1010865,59080,60328,59617,59617,270,397,23,4,3,182,373,3988,28,26,857,1834,1929,2150,2317,2155,1884,1950,2123
1011866,59136,60384,59682,59682,331,307,28,7,-1,137,330,3888,39,35,855,1834,1929,2150,2317,2155,1884,1950,2123
1012867,59204,60444,59747,59747,177,263,25,2,3,244,419,3913,41,38,855,1834,1929,2150,2317,2155,1884,1950,2123
1013868,59268,60488,59812,59812,229,488,30,13,1,133,357,3933,44,34,856,1834,1929,2150,2317,2155,1884,1950,2123
1014869,59324,60560,59877,59877,341,129,32,17,11,98,323,3943,37,42,855,1834,1929,2150,2317,2155,1884,1950,2123
1015870,59392,60620,59942,59942,187,285,32,6,12,162,417,3758,43,34,856,1833,1925,2148,2317,2154,1885,1947,2122
1016871,59452,60676,60007,60007,293,346,25,14,10,101,400,3964,37,28,856,1833,1925,2148,2317,2154,1885,1947,2122
1017872,59508,60740,60072,60072,354,247,25,6,9,69,387,3889,29,27,855,1833,1925,2148,2317,2154,1885,1947,2122
1018873,59564,60800,60137,60137,365,302,25,-2,14,48,440,3789,43,30,856,1833,1925,2148,2317,2154,1885,1947,2122
1019874,59624,60860,60202,60202,322,308,22,-2,14,49,422,3889,33,36,855,1833,1925,2148,2317,2154,1885,1947,2122
1020875,59696,60908,60267,60267,164,479,19,3,7,257,375,3966,39,35,855,1832,1926,2149,2317,2158,1886,1952,2122
1021876,59776,60976,60332,60332,45,225,26,11,-1,87,331,3849,36,38,855,1832,1926,2149,2317,2158,1886,1952,2122
1022877,59820,61036,60397,60397,521,330,28,-2,3,104,345,3818,47,42,857,1832,1926,2149,2317,2158,1886,1952,2122
1023878,59888,61104,60462,60462,218,227,32,13,-1,359,428,4052,42,42,853,1832,1926,2149,2317,2158,1886,1952,2122
1024879,59960,61172,60527,60527,160,223,27,13,6,45,328,3829,46,33,856,1832,1926,2149,2317,2158,1886,1952,2122
1025880,60016,61228,60592,60592,371,384,32,14,9,106,358,3927,28,41,856,1832,1926,2149,2317,2158,1886,1952,2122
1026881,60076,61292,60657,60657,327,284,28,14,13,306,399,3916,37,35,855,1830,1921,2148,2316,2160,1884,1951,2125
1027882,60156,61360,60722,60722,58,231,33,5,11,-61,373,3867,29,30,855,1830,1921,2148,2316,2160,1884,1951,2125
1028883,60220,61432,60787,60787,261,172,30,4,8,82,442,3952,32,35,857,1830,1921,2148,2316,2160,1884,1951,2125
1029884,60272,61500,60852,60852,427,218,29,12,11,235,336,3778,36,41,856,1830,1921,2148,2316,2160,1884,1951,2125
1030885,60324,61572,60917,60917,442,159,27,4,15,146,451,3959,41,27,855,1830,1921,2148,2316,2160,1884,1951,2125
1031886,60396,61636,60982,60982,184,260,26,13,2,38,367,3918,36,45,855,1834,1928,2149,2316,2156,1883,1951,2123
1032887,60472,61684,61047,61047,121,481,26,9,10,183,401,3870,46,38,856,1834,1928,2149,2316,2156,1883,1951,2123
1033888,60520,61748,61112,61112,492,282,21,13,13,283,361,3904,28,34,856,1834,1928,2149,2316,2156,1883,1951,2123
1034889,60580,61840,61177,61177,348,-102,32,13,9,157,284,3950,31,41,854,1834,1928,2149,2316,2156,1883,1951,2123
1035890,60648,61888,61242,61242,245,469,30,4,15,89,361,3945,30,44,856,1834,1928,2149,2316,2156,1883,1951,2123
1036891,60696,61944,61307,61307,515,380,30,16,16,191,378,3868,35,42,855,1834,1928,2149,2316,2156,1883,1951,2123
1037892,60764,62028,61372,61372,263,7,30,10,8,194,362,3949,38,42,854,1834,1929,2151,2317,2156,1882,1949,2121
1038893,60820,62080,61437,61437,424,422,32,10,1,-34,394,3892,30,35,857,1834,1929,2151,2317,2156,1882,1949,2121
1039894,60880,62136,61502,61502,380,383,34,3,4,87,366,3780,45,38,854,1834,1929,2151,2317,2156,1882,1949,2121
1040895,60960,62216,61567,61567,111,64,33,12,-1,105,338,4036,31,44,853,1834,1929,2151,2317,2156,1882,1949,2121
1041896,60996,62280,61632,61632,698,265,34,6,6,139,387,3747,46,44,857,1834,1929,2151,2317,2156,1882,1949,2121
1042897,61076,62340,61697,61697,130,321,35,3,10,205,422,3930,45,43,853,1833,1926,2148,2318,2154,1883,1949,2120
1043898,61152,62400,61762,61762,166,327,32,-1,0,90,464,4009,35,45,856,1833,1926,2148,2318,2154,1883,1949,2120
1044899,61208,62468,61827,61827,427,223,28,13,-5,158,363,3824,45,43,856,1833,1926,2148,2318,2154,1883,1949,2120
1045900,61276,62540,61892,61892,274,164,26,-4,-5,227,389,3830,39,40,855,1833,1926,2148,2318,2154,1883,1949,2120
1046901,61336,62596,61957,61957,381,374,29,4,0,179,323,3968,41,34,856,1833,1926,2148,2318,2154,1883,1949,2120
1047902,61408,62664,62022,62022,222,221,27,4,7,358,358,3922,46,32,855,1833,1926,2148,2318,2154,1883,1949,2120
1048903,61484,62740,62087,62087,159,107,34,19,9,169,358,3884,32,31,856,1832,1925,2147,2317,2155,1884,1947,2123
1049904,61556,62808,62152,62152,200,204,35,25,23,167,333,3940,43,42,857,1832,1925,2147,2317,2155,1884,1947,2123
1050905,61604,62872,62217,62217,522,254,38,15,24,202,383,3873,38,41,857,1832,1925,2147,2317,2155,1884,1947,2123
1051906,61672,62928,62282,62282,268,365,33,8,15,106,372,3908,27,39,854,1832,1925,2147,2317,2155,1884,1947,2123
1052907,61720,63000,62347,62347,539,156,40,23,14,177,368,3860,43,38,855,1832,1925,2147,2317,2155,1884,1947,2123
1053908,61792,63060,62412,62412,230,312,35,13,12,8,350,3888,36,28,855,1831,1926,2150,2318,2159,1885,1951,2124
1054909,61856,63112,62477,62477,333,427,36,7,8,-89,434,3992,46,30,856,1831,1926,2150,2318,2159,1885,1951,2124
1055910,61928,63180,62542,62542,224,224,35,9,8,257,505,3865,39,39,855,1831,1926,2150,2318,2159,1885,1951,2124
1056911,61992,63236,62607,62607,325,385,21,2,2,-10,404,3924,39,40,856,1831,1926,2150,2318,2159,1885,1951,2124
1057912,62032,63300,62672,62672,656,286,21,-7,-4,-49,368,3835,35,38,854,1831,1926,2150,2318,2159,1885,1951,2124
1058915,62116,63360,62737,62737,84,341,23,-4,-3,70,321,3978,42,29,853,1831,1926,2150,2318,2159,1885,1951,2124
1059914,62200,63428,62802,62802,60,237,25,4,1,169,362,3989,36,35,856,1832,1926,2149,2315,2159,1888,1954,2129
1060915,62244,63488,62867,62867,586,343,28,9,7,257,317,3841,43,27,857,1832,1926,2149,2315,2159,1888,1954,2129
1061916,62316,63560,62932,62932,227,185,33,14,15,218,347,3901,42,41,854,1832,1926,2149,2315,2159,1888,1954,2129
1062917,62384,63604,62997,62997,274,560,31,9,19,201,385,3884,34,33,856,1832,1926,2149,2315,2159,1888,1954,2129
1063918,62460,63664,63062,63062,161,366,32,2,19,191,387,3908,42,36,854,1832,1926,2149,2315,2159,1888,1954,2129
1064919,62520,63744,63127,63127,367,97,33,14,13,121,399,3889,42,37,856,1828,1923,2147,2312,2156,1883,1949,2122
1065920,62580,63804,63192,63192,374,353,34,4,19,154,372,3804,24,39,856,1828,1923,2147,2312,2156,1883,1949,2122
1066921,62636,63884,63257,63257,435,85,26,6,17,136,461,3979,30,44,855,1828,1923,2147,2312,2156,1883,1949,2122
1067922,62680,63932,63322,63322,611,505,22,3,13,-6,388,3804,27,36,856,1828,1923,2147,2312,2156,1883,1949,2122
1068923,62740,63996,63387,63387,417,306,21,9,13,48,374,3983,42,33,852,1828,1923,2147,2312,2156,1883,1949,2122
1069924,62812,64056,63452,63452,259,362,21,1,8,61,335,3803,41,37,854,1828,1923,2147,2312,2156,1883,1949,2122
1070925,62868,64144,63517,63517,470,-16,20,3,-1,161,375,3929,30,46,855,1831,1926,2148,2315,2157,1885,1950,2121
1071926,62936,64212,63582,63582,317,229,25,2,0,77,332,3901,46,38,855,1831,1926,2148,2315,2157,1885,1950,2121
1072927,63000,64276,63647,63647,368,281,28,0,2,155,355,3906,35,33,856,1831,1926,2148,2315,2157,1885,1950,2121
1073928,63080,64340,63712,63712,150,282,33,10,2,154,318,3946,41,42,855,1831,1926,2148,2315,2157,1885,1950,2121
1074929,63124,64396,63777,63777,626,393,33,-2,1,41,364,3860,29,34,854,1831,1926,2148,2315,2157,1885,1950,2121
1075930,63188,64464,63842,63842,378,238,32,2,-2,164,401,3876,29,34,853,1832,1923,2146,2316,2154,1884,1949,2121
1076931,63272,64536,63907,63907,105,180,24,-1,10,110,376,3925,44,42,855,1832,1923,2146,2316,2154,1884,1949,2121
1077932,63328,64604,63972,63972,466,226,25,1,6,73,458,3930,32,42,857,1832,1923,2146,2316,2154,1884,1949,2121
1078933,63392,64676,64037,64037,367,167,19,1,12,67,375,3848,45,41,855,1832,1923,2146,2316,2154,1884,1949,2121
1079934,63492,64728,64102,64102,-125,432,21,2,13,210,382,3910,33,30,855,1832,1923,2146,2316,2154,1884,1949,2121
1080935,63524,64804,64167,64167,765,119,22,1,18,187,349,3861,41,40,851,1832,1923,2146,2316,2154,1884,1949,2121
1081936,63608,64860,64232,64232,92,380,27,-2,16,252,371,3906,29,35,852,1833,1925,2149,2318,2156,1884,1950,2123
1082937,63668,64928,64297,64297,398,226,23,-6,19,134,305,3942,47,34,856,1833,1925,2149,2318,2156,1884,1950,2123
1083938,63744,65000,64362,64362,185,167,29,5,9,119,376,3933,30,34,855,1833,1925,2149,2318,2156,1884,1950,2123
1084939,63788,65044,64427,64427,612,542,28,11,4,185,329,3894,39,38,857,1833,1925,2149,2318,2156,1884,1950,2123
1085940,63856,65108,64492,64492,308,294,34,3,3,218,343,3881,28,32,853,1833,1925,2149,2318,2156,1884,1950,2123
1086941,63916,65172,64557,64557,414,295,27,3,4,75,370,3913,40,45,854,1833,1926,2151,2319,2159,1886,1952,2124
1087942,64004,65256,64622,64622,36,21,36,13,1,153,388,3935,44,37,854,1833,1926,2151,2319,2159,1886,1952,2124
1088943,64076,65324,64687,64687,228,217,34,8,2,52,383,3901,32,35,857,1833,1926,2151,2319,2159,1886,1952,2124
1089944,64116,65384,64752,64752,659,323,37,0,11,-36,354,3821,30,44,857,1833,1926,2151,2319,2159,1886,1952,2124
