%  Data file recorded 2017/4/10  8:55:50
%  Stride Frequency         = [1, 1]
%  Lead In /Lead Out        = 
%  Deltas (Fractional)      = [0.25, 0.25, 0.25],[0.25, 0.25, 0.25]
%  Phase                    = 32768
%  Experiment.py 
%  Motor Gains    = [5000, 400, 200, 0, 300, 5000, 400, 200, 0, 300]
% Columns: 
% time | Right Leg Pos | Left Leg Pos | Commanded Right Leg Pos | Commanded Left Leg Pos | DCR | DCL | GyroX | GyroY | GyroZ | AX | AY | AZ | RBEMF | LBEMF | VBatt | S1 | S2 | S3 | S4 | S5 | S6 | S7 | S8
216,17780,-47380,0,0,-3800,3800,-8,-3,2,148,390,3911,-9,6,822,1854,1916,2160,2356,2186,1927,1973,2124
1217,17788,-47384,0,0,-3800,3800,-8,-6,-2,158,367,3889,-2,7,823,1854,1916,2160,2356,2186,1927,1973,2124
2218,17788,-47380,0,0,-3800,3800,-6,-8,-3,158,394,3879,2,-1,823,1854,1916,2160,2356,2186,1927,1973,2124
3219,17792,-47384,0,0,-3800,3800,-4,-6,2,159,373,3919,8,1,823,1854,1916,2160,2356,2186,1927,1973,2124
4220,17792,-47380,0,0,-3800,3800,-6,-5,0,161,385,3914,-9,-3,822,1854,1916,2160,2356,2186,1927,1973,2124
5221,17780,-47384,0,0,-3800,3800,-7,-3,0,150,388,3928,8,7,822,1855,1916,2158,2355,2186,1929,1974,2124
6222,17796,-47384,0,0,-3800,3800,-8,-2,2,143,367,3882,-6,8,823,1855,1916,2158,2355,2186,1929,1974,2124
7223,17788,-47372,0,0,-3800,3800,-7,0,-1,135,388,3866,0,-3,823,1855,1916,2158,2355,2186,1929,1974,2124
8224,17780,-47388,0,0,-3800,3800,-8,-1,-1,139,388,3862,-1,1,822,1855,1916,2158,2355,2186,1929,1974,2124
9225,17788,-47368,0,0,-3800,3800,-7,-5,1,129,371,3843,-9,-5,823,1855,1916,2158,2355,2186,1929,1974,2124
10226,17784,-47376,0,0,-3800,3800,-7,-9,3,113,394,3863,8,-6,823,1855,1916,2158,2355,2186,1929,1974,2124
11227,17772,-47372,0,0,-3800,3800,-6,-4,4,135,380,3884,-8,-6,822,1856,1917,2160,2358,2186,1929,1974,2124
12228,17796,-47372,0,0,-3800,3800,-5,-1,2,152,388,3881,-2,-7,823,1856,1917,2160,2358,2186,1929,1974,2124
13229,17788,-47368,0,0,-3800,3800,-5,-3,-2,140,396,3865,1,-5,822,1856,1917,2160,2358,2186,1929,1974,2124
14230,17788,-47380,0,0,-3800,3800,-7,-4,-1,144,386,3899,-8,4,822,1856,1917,2160,2358,2186,1929,1974,2124
15231,17800,-47380,0,0,-3800,3800,-7,-2,2,164,370,3906,4,8,822,1856,1917,2160,2358,2186,1929,1974,2124
16232,17780,-47380,0,0,-3800,3800,-10,0,2,156,367,3854,-3,3,822,1857,1917,2161,2358,2188,1930,1973,2127
17233,17780,-47380,0,0,-3800,3800,-9,-3,0,117,383,3844,-7,6,823,1857,1917,2161,2358,2188,1930,1973,2127
18234,17788,-47380,0,0,-3800,3800,-7,-4,1,129,401,3878,2,-7,822,1857,1917,2161,2358,2188,1930,1973,2127
19235,17788,-47376,0,0,-3800,3800,-5,-6,2,136,404,3878,7,-5,820,1857,1917,2161,2358,2188,1930,1973,2127
20236,17780,-47360,0,0,-3800,3800,-4,-6,1,158,400,3884,-8,1,821,1857,1917,2161,2358,2188,1930,1973,2127
21237,17784,-47384,0,0,-3800,3800,-4,-4,2,148,377,3892,6,-5,822,1854,1916,2159,2356,2183,1930,1974,2124
22238,17776,-47372,0,0,-3800,3800,-7,-5,1,164,391,3887,-9,-7,822,1854,1916,2159,2356,2183,1930,1974,2124
23239,17792,-47376,0,0,-3800,3800,-9,-6,3,173,387,3861,6,-4,822,1854,1916,2159,2356,2183,1930,1974,2124
24240,17776,-47376,0,0,-3800,3800,-6,-5,1,157,344,3896,-5,5,822,1854,1916,2159,2356,2183,1930,1974,2124
25241,17784,-47372,0,0,-3800,3800,-4,-3,1,152,391,3875,3,3,822,1854,1916,2159,2356,2183,1930,1974,2124
26242,17772,-47368,0,0,-3800,3800,-6,-2,2,160,409,3857,-4,6,822,1854,1916,2159,2356,2183,1930,1974,2124
27243,17784,-47380,0,0,-3800,3800,-9,-2,3,152,379,3888,-6,-4,823,1854,1916,2155,2357,2185,1926,1972,2122
28244,17780,-47380,0,0,-3800,3800,-8,-1,2,158,368,3887,3,1,822,1854,1916,2155,2357,2185,1926,1972,2122
29245,17784,-47388,0,0,-3800,3800,-6,-2,2,140,400,3864,-1,7,822,1854,1916,2155,2357,2185,1926,1972,2122
30246,17788,-47376,0,0,-3800,3800,-5,-4,3,135,408,3889,-1,0,822,1854,1916,2155,2357,2185,1926,1972,2122
31247,17792,-47380,0,0,-3800,3800,-6,-4,2,131,386,3870,1,3,822,1854,1916,2155,2357,2185,1926,1972,2122
32248,17788,-47368,0,0,-3800,3800,-5,-1,0,135,392,3833,-5,7,822,1853,1918,2160,2356,2186,1927,1973,2123
33249,17788,-47380,0,0,-3800,3800,-8,0,0,137,407,3872,-4,-1,822,1853,1918,2160,2356,2186,1927,1973,2123
34250,17784,-47380,0,0,-3800,3800,-8,-4,0,146,385,3870,-2,1,822,1853,1918,2160,2356,2186,1927,1973,2123
35251,17776,-47368,0,0,-3800,3800,-8,-4,2,152,382,3889,5,6,823,1853,1918,2160,2356,2186,1927,1973,2123
36252,17776,-47380,0,0,-3800,3800,-9,-4,2,147,372,3892,8,-4,820,1853,1918,2160,2356,2186,1927,1973,2123
37253,17784,-47376,0,0,-3800,3800,-10,-3,1,144,365,3880,7,-6,820,1853,1918,2160,2356,2186,1927,1973,2123
38254,17784,-47380,0,0,-3800,3800,-8,-1,1,143,344,3886,-7,-5,822,1856,1917,2159,2357,2187,1929,1974,2126
39255,17784,-47368,0,0,-3800,3800,-7,-3,1,131,365,3922,-6,2,822,1856,1917,2159,2357,2187,1929,1974,2126
40256,17780,-47380,0,0,-3800,3800,-6,-8,3,150,353,3896,6,-7,822,1856,1917,2159,2357,2187,1929,1974,2126
41257,17792,-47376,0,0,-3800,3800,-5,-7,2,164,355,3890,-6,-6,822,1856,1917,2159,2357,2187,1929,1974,2126
42258,17784,-47380,0,0,-3800,3800,-5,-3,2,166,375,3907,6,-7,823,1856,1917,2159,2357,2187,1929,1974,2126
43259,17784,-47360,0,0,-3800,3800,-6,-2,1,163,396,3933,-8,-2,823,1857,1917,2161,2358,2188,1929,1974,2124
44260,17788,-47376,0,0,-3800,3800,-6,-5,2,123,411,3903,2,-5,823,1857,1917,2161,2358,2188,1929,1974,2124
45261,17776,-47380,0,0,-3800,3800,-9,-5,2,123,405,3875,-9,2,823,1857,1917,2161,2358,2188,1929,1974,2124
46262,17792,-47368,0,0,-3800,3800,-9,-3,0,142,414,3857,6,4,823,1857,1917,2161,2358,2188,1929,1974,2124
47264,17792,-47376,0,0,-3800,3800,-7,-3,0,113,390,3879,-4,-6,823,1857,1917,2161,2358,2188,1929,1974,2124
48264,17792,-47368,0,0,-3800,3800,-7,-8,1,133,370,3903,5,-5,823,1857,1917,2161,2358,2188,1929,1974,2124
49265,17800,-47376,0,0,-3800,3800,-9,-6,0,127,387,3880,-4,-7,823,1856,1917,2161,2358,2187,1928,1974,2126
50266,17788,-47380,0,0,-3800,3800,-8,-5,0,133,372,3900,-7,-6,822,1856,1917,2161,2358,2187,1928,1974,2126
51267,17792,-47384,0,0,-3800,3800,-8,-3,1,162,361,3932,8,2,823,1856,1917,2161,2358,2187,1928,1974,2126
52268,17796,-47368,0,0,-3800,3800,-6,-5,2,148,370,3928,-4,4,823,1856,1917,2161,2358,2187,1928,1974,2126
53269,17780,-47372,0,0,-3800,3800,-7,-4,0,135,368,3904,1,4,821,1856,1917,2161,2358,2187,1928,1974,2126
54270,17788,-47380,0,0,-3800,3800,-7,-4,0,140,377,3912,7,7,820,1853,1916,2158,2353,2187,1928,1972,2123
55271,17780,-47376,0,0,-3800,3800,-4,-3,0,141,396,3879,-7,6,822,1853,1916,2158,2353,2187,1928,1972,2123
56272,17780,-47380,0,0,-3800,3800,-6,-2,3,135,386,3860,1,4,822,1853,1916,2158,2353,2187,1928,1972,2123
57273,17780,-47372,0,0,-3800,3800,-7,-4,2,144,409,3845,-4,-7,822,1853,1916,2158,2353,2187,1928,1972,2123
58274,17780,-47372,0,0,-3800,3800,-8,-5,2,147,411,3846,1,2,822,1853,1916,2158,2353,2187,1928,1972,2123
59275,17792,-47384,0,0,-3800,3800,-9,-3,2,132,398,3866,3,-7,822,1853,1916,2158,2353,2187,1928,1972,2123
60276,17784,-47376,0,0,-3800,3800,-10,-3,4,104,390,3880,-8,-5,822,1854,1915,2159,2356,2185,1927,1972,2122
61277,17792,-47376,0,0,-3800,3800,-8,-4,3,129,379,3877,7,-2,822,1854,1915,2159,2356,2185,1927,1972,2122
62278,17784,-47380,0,0,-3800,3800,-7,-5,3,149,363,3867,-2,7,822,1854,1915,2159,2356,2185,1927,1972,2122
63279,17784,-47376,0,0,-3800,3800,-7,-5,3,126,388,3850,5,7,823,1854,1915,2159,2356,2185,1927,1972,2122
64280,17792,-47380,0,0,-3800,3800,-8,-3,3,173,379,3858,-5,4,822,1854,1915,2159,2356,2185,1927,1972,2122
65281,17788,-47380,0,0,-3800,3800,-8,-1,2,175,364,3860,-3,7,823,1855,1918,2160,2357,2186,1929,1973,2123
66282,17776,-47372,0,0,-3800,3800,-7,-3,1,161,356,3888,2,1,822,1855,1918,2160,2357,2186,1929,1973,2123
67283,17784,-47376,0,0,-3800,3800,-5,-5,1,150,367,3895,-10,-6,823,1855,1918,2160,2357,2186,1929,1973,2123
68284,17788,-47372,0,0,-3800,3800,-5,-5,1,142,390,3867,8,-6,822,1855,1918,2160,2357,2186,1929,1973,2123
69285,17788,-47364,0,0,-3800,3800,-6,-3,1,122,395,3877,-10,1,822,1855,1918,2160,2357,2186,1929,1973,2123
70286,17776,-47368,0,0,-3800,3800,-6,-2,4,113,383,3873,6,8,820,1855,1918,2160,2357,2186,1929,1973,2123
71287,17776,-47372,0,0,-3800,3800,-8,-2,3,132,391,3831,5,7,820,1856,1917,2159,2357,2186,1927,1973,2125
72288,17788,-47380,0,0,-3800,3800,-8,-2,3,136,396,3843,2,2,822,1856,1917,2159,2357,2186,1927,1973,2125
73289,17784,-47368,0,0,-3800,3800,-5,-4,2,155,403,3871,-4,5,822,1856,1917,2159,2357,2186,1927,1973,2125
74290,17780,-47392,0,0,-3800,3800,-7,-6,2,134,398,3910,-1,8,822,1856,1917,2159,2357,2186,1927,1973,2125
75291,17788,-47380,0,0,-3800,3800,-9,-7,6,114,377,3890,-2,-5,822,1856,1917,2159,2357,2186,1927,1973,2125
76292,17796,-47376,0,0,-3800,3800,-8,-6,6,111,376,3937,-10,-6,822,1856,1917,2159,2356,2185,1927,1973,2124
77293,17788,-47376,0,0,-3800,3800,-8,-2,2,130,375,3903,6,1,822,1856,1917,2159,2356,2185,1927,1973,2124
78294,17792,-47380,0,0,-3800,3800,-8,1,2,159,352,3905,-5,7,822,1856,1917,2159,2356,2185,1927,1973,2124
79295,17784,-47372,0,0,-3800,3800,-6,-1,2,141,394,3883,-4,7,822,1856,1917,2159,2356,2185,1927,1973,2124
80296,17784,-47372,0,0,-3800,3800,-4,-5,0,148,401,3845,8,5,822,1856,1917,2159,2356,2185,1927,1973,2124
81297,17792,-47380,0,0,-3800,3800,-5,-6,0,137,394,3845,-8,4,823,1856,1917,2159,2356,2185,1927,1973,2124
82298,17784,-47380,0,0,-3800,3800,-9,-4,2,127,395,3867,4,6,822,1853,1916,2159,2356,2188,1927,1975,2124
83299,17784,-47376,0,0,-3800,3800,-7,-4,3,135,372,3886,3,7,822,1853,1916,2159,2356,2188,1927,1975,2124
84300,17792,-47384,0,0,-3800,3800,-7,-5,3,133,393,3862,-6,3,822,1853,1916,2159,2356,2188,1927,1975,2124
85301,17784,-47376,0,0,-3800,3800,-10,-3,1,137,374,3858,7,-7,823,1853,1916,2159,2356,2188,1927,1975,2124
86302,17792,-47368,0,0,-3800,3800,-10,-1,1,127,403,3881,-9,-4,822,1853,1916,2159,2356,2188,1927,1975,2124
87303,17788,-47372,0,0,-3800,3800,-7,-3,1,137,389,3881,6,-5,820,1853,1916,2157,2355,2186,1928,1973,2123
88304,17792,-47376,0,0,-3800,3800,-8,-6,1,152,370,3880,3,1,820,1853,1916,2157,2355,2186,1928,1973,2123
89305,17776,-47372,0,0,-3800,3800,-8,-7,-1,148,387,3880,-2,-3,822,1853,1916,2157,2355,2186,1928,1973,2123
90306,17784,-47368,0,0,-3800,3800,-9,-4,4,131,382,3898,-4,5,822,1853,1916,2157,2355,2186,1928,1973,2123
91307,17780,-47384,0,0,-3800,3800,-5,-3,2,142,393,3882,-5,-4,822,1853,1916,2157,2355,2186,1928,1973,2123
92308,17788,-47376,0,0,-3800,3800,-5,-3,-1,166,371,3905,4,-7,822,1853,1916,2157,2355,2186,1928,1973,2123
93309,17784,-47376,0,0,-3800,3800,-7,-5,-1,175,385,3840,-8,-7,822,1855,1917,2160,2356,2185,1928,1974,2124
94310,17784,-47368,0,0,-3800,3800,-6,-7,0,145,390,3862,7,-5,822,1855,1917,2160,2356,2185,1928,1974,2124
95311,17784,-47380,0,0,-3800,3800,-3,-7,1,121,393,3883,-5,-3,822,1855,1917,2160,2356,2185,1928,1974,2124
96312,17784,-47384,0,0,-3800,3800,-5,-6,0,124,404,3863,8,2,822,1855,1917,2160,2356,2185,1928,1974,2124
97313,17780,-47400,0,0,-3800,3800,-7,-4,-2,151,398,3866,-10,-7,822,1855,1917,2160,2356,2185,1928,1974,2124
98314,17776,-47392,0,0,-3800,3800,-8,-3,-1,168,375,3867,8,-1,822,1856,1920,2161,2358,2188,1929,1973,2124
99315,17780,-47372,0,0,-3800,3800,-7,-4,1,142,378,3895,-1,4,822,1856,1920,2161,2358,2188,1929,1973,2124
100316,17788,-47368,65,65,-3800,3800,-8,-5,1,159,369,3865,-1,0,823,1856,1920,2161,2358,2188,1929,1973,2124
101317,17788,-47364,130,130,-3800,3800,-9,-2,3,160,386,3853,-10,237,822,1856,1920,2161,2358,2188,1929,1973,2124
102318,17796,-47324,195,195,-3800,3800,-12,1,4,191,387,3854,7,272,760,1856,1920,2161,2358,2188,1929,1973,2124
103319,17796,-47204,260,260,-3800,3800,-9,5,-1,402,385,3800,8,284,761,1856,1920,2161,2358,2188,1929,1973,2124
104320,17788,-47020,325,325,-3800,3800,0,15,6,638,309,3881,21,274,768,1856,1917,2160,2356,2157,1906,1955,2108
105321,17784,-46824,390,390,-3800,3800,0,21,8,653,333,3924,24,294,769,1856,1917,2160,2356,2157,1906,1955,2108
106322,17792,-46596,455,455,-3800,3800,3,31,6,382,287,3889,3,297,777,1856,1917,2160,2356,2157,1906,1955,2108
107323,17784,-46340,520,520,-3800,3800,4,48,7,401,382,3885,9,302,780,1856,1917,2160,2356,2157,1906,1955,2108
108324,17780,-46004,585,585,-3800,3800,6,42,8,289,477,3845,6,296,783,1856,1917,2160,2356,2157,1906,1955,2108
109325,17792,-45668,650,650,-3800,3800,-7,21,16,-406,548,4021,22,300,785,1851,1917,2159,2357,2185,1913,1971,2120
110326,17780,-45320,715,715,-3800,3800,-15,8,0,-354,530,3634,7,304,788,1851,1917,2159,2357,2185,1913,1971,2120
111327,17796,-44956,780,780,-3800,3800,-13,14,-35,-461,298,3837,20,316,792,1851,1917,2159,2357,2185,1913,1971,2120
112328,17792,-44548,845,845,-3800,3800,-7,-29,-13,120,230,3821,12,318,794,1851,1917,2159,2357,2185,1913,1971,2120
113329,17788,-44124,910,910,-3800,3800,-1,-13,-17,420,594,4218,11,306,795,1851,1917,2159,2357,2185,1913,1971,2120
114330,17784,-43672,975,975,-3800,3800,-13,1,-45,-1184,293,3585,9,323,797,1851,1917,2159,2357,2185,1913,1971,2120
115331,17784,-43176,1040,1040,-3800,3800,-4,-40,-14,398,380,3964,4,305,800,1852,1915,2150,2355,2186,1928,1973,2124
116332,17776,-42688,1105,1105,-3800,3800,-5,27,-17,725,490,4031,6,306,802,1852,1915,2150,2355,2186,1928,1973,2124
117333,17796,-42176,1170,1170,-3800,3800,0,-19,5,-383,59,3398,7,329,800,1852,1915,2150,2355,2186,1928,1973,2124
118334,17792,-41716,1235,1235,-3800,3800,3,-9,25,1052,484,4432,5,309,804,1852,1915,2150,2355,2186,1928,1973,2124
119335,17796,-41160,1300,1300,-3800,3800,2,-22,14,-488,428,3418,5,333,802,1852,1915,2150,2355,2186,1928,1973,2124
120336,17792,-40652,1365,1365,-3800,3800,-18,7,-5,656,523,4358,20,311,805,1855,1918,2158,2353,2144,1926,1974,2127
121337,17788,-40048,1430,1430,-3800,3800,-9,16,20,698,365,3134,14,313,804,1855,1918,2158,2353,2144,1926,1974,2127
122338,17800,-39484,1495,1495,-3800,3800,-20,-24,-1,142,549,4833,17,332,806,1855,1918,2158,2353,2144,1926,1974,2127
123339,17792,-38884,1560,1560,-3800,3800,0,15,-26,-980,187,3135,13,341,809,1855,1918,2158,2353,2144,1926,1974,2127
124340,17800,-38340,1625,1625,-3800,3800,-21,-37,26,1074,445,4173,15,333,809,1855,1918,2158,2353,2144,1926,1974,2127
125341,17792,-37740,1690,1690,-3800,3800,-15,9,-1,-953,477,3698,9,341,810,1855,1918,2158,2353,2144,1926,1974,2127
126342,17804,-37176,1755,1755,-3800,3800,-30,-10,-1,-132,222,4231,9,339,800,1855,1893,2159,2353,2187,1928,1974,2127
127343,17792,-36524,1820,1820,-3800,3800,10,-7,-18,826,326,3148,9,308,808,1855,1893,2159,2353,2187,1928,1974,2127
128344,17796,-35976,1885,1885,-3800,3800,-12,-45,-6,-628,336,4568,13,316,812,1855,1893,2159,2353,2187,1928,1974,2127
129345,17800,-35404,1950,1950,-3800,3800,16,-26,19,-810,329,3026,21,341,811,1855,1893,2159,2353,2187,1928,1974,2127
130346,17796,-34816,2015,2015,-3800,3800,-19,-66,41,1238,621,4454,16,312,805,1855,1893,2159,2353,2187,1928,1974,2127
131347,17808,-34224,2080,2080,-3800,3800,-27,-55,44,-669,464,3118,5,334,811,1852,1916,2158,2355,2187,1929,1969,2126
132348,17800,-33588,2145,2145,-3800,3800,-65,-14,46,882,990,4548,6,344,813,1852,1916,2158,2355,2187,1929,1969,2126
133349,17804,-33024,2210,2210,-3800,3800,-96,-53,-21,-1413,385,2730,6,336,814,1852,1916,2158,2355,2187,1929,1969,2126
134350,17800,-32464,2275,2275,-3800,3800,-55,8,-50,618,331,5119,8,340,811,1852,1916,2158,2355,2187,1929,1969,2126
135351,17812,-31896,2340,2340,-3800,3800,-51,-69,-38,1684,-310,2663,5,316,813,1852,1916,2158,2355,2187,1929,1969,2126
136352,17808,-31304,2405,2405,-3800,3800,67,54,-35,1462,-114,5348,15,341,813,1852,1916,2158,2355,2187,1929,1969,2126
137353,17808,-30760,2470,2470,-3800,3800,53,-15,17,-172,-115,3215,20,318,813,1851,1911,2155,2344,2191,1933,1975,2123
138354,17796,-30108,2535,2535,-3800,3800,102,48,5,479,465,4411,4,341,810,1851,1911,2155,2344,2191,1933,1975,2123
139355,17812,-29552,2600,2600,-3800,3800,44,16,33,649,355,3435,21,320,812,1851,1911,2155,2344,2191,1933,1975,2123
140356,17808,-29012,2665,2665,-3800,3800,45,7,32,-926,990,4122,14,318,812,1851,1911,2155,2344,2191,1933,1975,2123
141357,17816,-28484,2730,2730,-3800,3800,-21,9,62,492,439,3350,9,347,813,1851,1911,2155,2344,2191,1933,1975,2123
142358,17804,-27924,2795,2795,-3800,3800,-27,-50,39,-1467,867,3947,15,343,814,1857,1924,2162,2371,2169,1894,1965,2103
143359,17816,-27388,2860,2860,-3800,3800,-41,-19,4,-817,430,4385,22,318,815,1857,1924,2162,2371,2169,1894,1965,2103
144360,17816,-26800,2925,2925,-3800,3800,-66,-73,4,23,501,2744,21,328,816,1857,1924,2162,2371,2169,1894,1965,2103
145361,17804,-26284,2990,2990,-3800,3800,-7,23,-40,188,384,5129,5,336,815,1857,1924,2162,2371,2169,1894,1965,2103
146362,17820,-25772,3055,3055,-3800,3800,-61,-82,-80,-567,385,2922,6,343,813,1857,1924,2162,2371,2169,1894,1965,2103
147363,17820,-25208,3120,3120,-3800,3800,21,-13,-84,1173,261,4451,6,333,814,1857,1924,2162,2371,2169,1894,1965,2103
148364,17816,-24712,3185,3185,-3800,3800,-28,-69,-28,599,118,3706,20,322,816,1860,1923,2152,2368,2179,1927,1971,2120
149365,17820,-24116,3250,3250,-3800,3800,20,-31,7,495,497,4050,9,342,815,1860,1923,2152,2368,2179,1927,1971,2120
150366,17820,-23588,3315,3315,-3800,3800,-19,-8,54,820,446,4161,4,326,816,1860,1923,2152,2368,2179,1927,1971,2120
151367,17820,-23088,3380,3380,-3800,3800,-46,-10,79,920,428,2855,21,323,817,1860,1923,2152,2368,2179,1927,1971,2120
152368,17824,-22508,3445,3445,-3800,3800,-6,89,55,939,397,5149,17,323,816,1860,1923,2152,2368,2179,1927,1971,2120
153369,17832,-22044,3510,3510,-3800,3800,-78,-55,72,-150,342,2778,21,342,816,1860,1922,2164,2354,2193,1935,1976,2134
154370,17824,-21440,3575,3575,-3800,3800,12,62,24,307,274,4492,3,350,815,1860,1922,2164,2354,2193,1935,1976,2134
155371,17832,-20908,3640,3640,-3800,3800,-31,4,13,1033,499,3511,11,322,814,1860,1922,2164,2354,2193,1935,1976,2134
156372,17828,-20328,3705,3705,-3800,3800,-12,5,-30,-1481,268,3976,20,349,815,1860,1922,2164,2354,2193,1935,1976,2134
157373,17828,-19804,3770,3770,-3800,3800,13,57,-52,-219,490,4221,16,327,818,1860,1922,2164,2354,2193,1935,1976,2134
158374,17820,-19296,3835,3835,-3800,3800,-34,-53,-10,-689,110,2929,8,342,817,1860,1922,2164,2354,2193,1935,1976,2134
159375,17816,-18724,3900,3900,-3800,3800,69,62,-26,-26,334,4694,9,345,807,1844,1874,2155,2342,2207,1939,1979,2137
160376,17824,-18144,3965,3965,-3800,3800,-12,-5,5,300,364,3220,6,332,816,1844,1874,2155,2342,2207,1939,1979,2137
161377,17824,-17560,4030,4030,-3800,3800,42,-3,24,59,177,3949,4,320,816,1844,1874,2155,2342,2207,1939,1979,2137
162378,17812,-16988,4095,4095,-3800,3800,20,52,-5,391,678,4332,9,343,817,1844,1874,2155,2342,2207,1939,1979,2137
163379,17828,-16400,4160,4160,-3800,3800,-24,-29,11,1156,286,2923,19,346,810,1844,1874,2155,2342,2207,1939,1979,2137
164380,17816,-15860,4225,4225,-3800,3800,35,93,-12,937,533,4913,17,345,816,1848,1913,2151,2350,2186,1928,1965,2121
165381,17820,-15200,4290,4290,-3800,3800,-35,-2,-4,-718,473,3230,13,354,817,1848,1913,2151,2350,2186,1928,1965,2121
166382,17816,-14580,4355,4355,-3800,3800,15,11,6,-425,163,3919,14,355,815,1848,1913,2151,2350,2186,1928,1965,2121
167383,17832,-14028,4420,4420,-3800,3800,3,30,-18,506,597,4255,8,330,818,1848,1913,2151,2350,2186,1928,1965,2121
168384,17812,-13396,4485,4485,-3800,3800,-37,-51,-31,-783,325,2887,8,346,817,1848,1913,2151,2350,2186,1928,1965,2121
169385,17832,-12828,4550,4550,-3800,3800,27,36,-1,-161,289,4691,20,342,817,1848,1913,2151,2350,2186,1928,1965,2121
170386,17816,-12164,4615,4615,-3800,3800,-48,-32,20,-179,554,3191,5,340,815,1858,1920,2154,2355,2170,1918,1966,2107
171387,17820,-11548,4680,4680,-3800,3800,14,-24,65,276,144,3922,20,332,817,1858,1920,2154,2355,2170,1918,1966,2107
172388,17816,-10944,4745,4745,-3800,3800,-41,21,59,1579,855,4430,16,338,817,1858,1920,2154,2355,2170,1918,1966,2107
173389,17820,-10268,4810,4810,-3800,3800,-45,-61,58,-1797,124,3147,9,328,817,1858,1920,2154,2355,2170,1918,1966,2107
174392,17816,-9632,4875,4875,-3800,3800,-8,29,13,-457,630,5151,11,332,816,1858,1920,2154,2355,2170,1918,1966,2107
175391,17820,-9048,4940,4940,-3800,3800,-74,-96,15,336,289,2514,16,344,817,1861,1922,2164,2363,2180,1890,1966,2119
176392,17804,-8396,5005,5005,-3800,3800,21,-4,-23,-829,302,4959,22,346,819,1861,1922,2164,2363,2180,1890,1966,2119
177393,17816,-7728,5070,5070,-3800,3800,-30,-45,-29,662,261,3402,19,326,819,1861,1922,2164,2363,2180,1890,1966,2119
178394,17820,-7072,5135,5135,-3800,3800,33,-88,-27,545,-118,3433,6,338,817,1861,1922,2164,2363,2180,1890,1966,2119
179395,17808,-6388,5200,5200,-3800,3800,76,42,-40,-164,323,5344,19,315,817,1861,1922,2164,2363,2180,1890,1966,2119
180396,17808,-5800,5265,5265,-3800,3800,15,-58,0,387,140,1827,7,336,817,1861,1922,2164,2363,2180,1890,1966,2119
181397,17808,-5140,5330,5330,-3800,3800,93,77,4,1136,434,5165,14,338,818,1856,1918,2134,2359,2189,1929,1971,2127
182398,17824,-4492,5395,5395,-3800,3800,12,55,2,184,842,3592,4,322,818,1856,1918,2134,2359,2189,1929,1971,2127
183399,17812,-3832,5460,5460,-3800,3800,-14,-42,24,-109,320,2825,20,336,817,1856,1918,2134,2359,2189,1929,1971,2127
184400,17800,-3176,5525,5525,-3800,3800,18,103,-9,637,882,5173,13,319,816,1856,1918,2134,2359,2189,1929,1971,2127
185401,17816,-2560,5590,5590,-3800,3660,-90,-49,-19,-1472,547,2612,4,334,816,1856,1918,2134,2359,2189,1929,1971,2127
186402,17804,-1932,5655,5655,-3800,2826,-5,23,-67,-759,472,4531,10,305,816,1862,1922,2160,2362,2186,1931,1977,2118
187403,17796,-1328,5720,5720,-3800,2471,-78,-39,-40,-131,699,3515,20,308,819,1862,1922,2160,2362,2186,1931,1977,2118
188404,17796,-624,5785,5785,-3800,443,-48,-96,-23,-1214,150,3861,5,321,818,1862,1922,2160,2362,2186,1931,1977,2118
189405,17800,-16,5850,5850,-3800,983,-14,-19,-20,189,211,4342,18,314,820,1862,1922,2160,2362,2186,1931,1977,2118
190406,17796,564,5915,5915,-3800,706,-33,-138,-18,-198,21,3269,11,319,821,1862,1922,2160,2362,2186,1931,1977,2118
191407,17792,1196,5980,5980,-3800,-634,58,-68,-27,432,101,4355,23,315,811,1862,1922,2160,2362,2186,1931,1977,2118
192408,17792,1796,6045,6045,-3800,-885,16,-78,-27,1305,340,3900,24,308,815,1839,1905,2146,2342,2196,1940,1983,2133
193409,17800,2436,6110,6110,-3800,-2085,64,-61,-21,701,53,3411,19,287,810,1839,1905,2146,2342,2196,1940,1983,2133
194410,17796,2952,6175,6175,-3800,-1084,50,14,-17,2063,623,4608,12,304,780,1839,1905,2146,2342,2196,1940,1983,2133
195411,17788,3480,6240,6240,-3800,-1798,19,-44,-14,1272,556,2801,-2,264,798,1839,1905,2146,2342,2196,1940,1983,2133
196412,17792,4000,6305,6305,-3800,-2253,23,16,-30,-3,542,4889,1,250,789,1839,1905,2146,2342,2196,1940,1983,2133
197413,17796,4452,6370,6370,-3800,-1874,-29,5,-19,894,532,2497,4,243,777,1845,1899,2138,2343,2187,1904,1930,2048
198414,17792,4800,6435,6435,-3800,-919,-21,19,-17,1418,512,4994,12,216,787,1845,1899,2138,2343,2187,1904,1930,2048
199415,17784,5172,6500,6500,-3800,-1592,-39,19,-71,-1257,448,3046,-3,178,805,1845,1899,2138,2343,2187,1904,1930,2048
200416,17788,5504,6565,6565,-3800,-1418,-28,-10,-66,418,362,4446,4,176,796,1845,1899,2138,2343,2187,1904,1930,2048
201417,17796,5756,6630,6630,-3800,-647,-19,17,-65,30,525,3500,1,162,799,1845,1899,2138,2343,2187,1904,1930,2048
202418,17792,6016,6695,6695,-3800,-984,-26,-32,-43,-771,203,4082,11,139,814,1845,1899,2138,2343,2187,1904,1930,2048
203419,17796,6256,6760,6760,-3800,-947,4,-54,-21,579,187,4042,4,140,807,1861,1919,2151,2333,2215,1943,1968,2112
204420,17788,6520,6825,6825,-3800,-1490,21,-33,36,259,195,3772,9,139,810,1861,1919,2151,2333,2215,1943,1968,2112
205421,17792,6736,6890,6890,-3800,-1075,37,-32,49,118,184,3786,5,130,799,1861,1919,2151,2333,2215,1943,1968,2112
206422,17780,6900,6955,6955,-3800,-545,49,-16,77,305,297,4124,-8,110,806,1861,1919,2151,2333,2215,1943,1968,2112
207423,17788,7056,7020,7020,-3800,-556,25,-9,69,863,630,3818,-2,103,815,1861,1919,2151,2333,2215,1943,1968,2112
208424,17788,7208,7085,7085,-3800,-613,2,12,51,472,589,3525,0,103,816,1878,1952,2200,2392,2207,1952,1993,2127
209425,17796,7372,7150,7150,-3800,-883,-21,41,23,769,768,4045,13,86,816,1878,1952,2200,2392,2207,1952,1993,2127
210426,17788,7556,7215,7215,-3800,-1279,-55,32,14,281,556,3753,1,90,812,1878,1952,2200,2392,2207,1952,1993,2127
211427,17788,7736,7280,7280,-3800,-1369,-64,27,-3,531,565,3892,-2,75,805,1878,1952,2200,2392,2207,1952,1993,2127
212428,17788,7900,7345,7345,-3800,-1290,-52,48,-9,-203,365,4051,2,79,804,1878,1952,2200,2392,2207,1952,1993,2127
213429,17788,8044,7410,7410,-3800,-1136,-41,26,-5,-102,149,3806,-7,65,806,1878,1952,2200,2392,2207,1952,1993,2127
214430,17796,8140,7475,7475,-3800,-574,-8,33,-6,332,110,4028,6,58,808,1863,1922,2132,2371,2195,1939,1975,2123
215431,17792,8244,7540,7540,-3800,-723,13,17,-4,-427,138,3989,-4,38,816,1863,1922,2132,2371,2195,1939,1975,2123
216432,17788,8324,7605,7605,-3800,-441,19,18,-2,-227,247,3824,8,38,815,1863,1922,2132,2371,2195,1939,1975,2123
217433,17788,8384,7670,7670,-3800,-185,21,29,5,99,474,3953,-1,42,818,1863,1922,2132,2371,2195,1939,1975,2123
218434,17796,8448,7735,7735,-3800,-235,10,23,6,-166,522,3870,-5,46,821,1863,1922,2132,2371,2195,1939,1975,2123
219435,17792,8500,7800,7800,-3800,-69,-3,16,11,20,537,3806,6,41,820,1847,1911,2153,2353,2193,1937,1983,2116
220436,17780,8556,7865,7865,-3800,-108,-22,18,14,341,508,3880,-8,38,822,1847,1911,2153,2353,2193,1937,1983,2116
221437,17784,8600,7930,7930,-3800,68,-30,19,29,350,463,3817,-6,42,821,1847,1911,2153,2353,2193,1937,1983,2116
222438,17804,8644,7995,7995,-3800,92,-33,23,40,262,355,3879,-2,29,820,1847,1911,2153,2353,2193,1937,1983,2116
223439,17800,8700,8060,8060,-3800,-47,-24,25,45,156,328,3912,2,42,820,1847,1911,2153,2353,2193,1937,1983,2116
224445,17788,8756,8125,8125,-3800,-36,-19,27,46,69,248,3925,-6,32,811,1847,1911,2153,2353,2193,1937,1983,2116
225441,17784,8776,8190,8190,-3800,469,-11,22,40,-45,244,3903,-5,29,822,1848,1913,2148,2342,2177,1926,1975,2129
226442,17796,8816,8255,8255,-3800,249,-5,18,32,-261,285,3971,9,29,819,1848,1913,2148,2342,2177,1926,1975,2129
227443,17788,8896,8320,8320,-3800,-270,3,-5,12,-294,285,3740,-3,34,821,1848,1913,2148,2342,2177,1926,1975,2129
228444,17780,9008,8385,8385,-3800,-727,10,-3,0,-384,423,4091,9,30,814,1848,1913,2148,2342,2177,1926,1975,2129
229445,17788,9084,8450,8450,-3800,-290,-2,-20,-2,-162,406,3705,-8,26,816,1848,1913,2148,2342,2177,1926,1975,2129
230446,17792,9148,8515,8515,-3800,-140,-8,-24,-5,17,414,4051,5,23,820,1846,1914,2152,2343,2179,1919,1936,2124
231447,17780,9200,8580,8580,-3800,26,-8,-29,-17,7,381,3655,-6,21,821,1846,1914,2152,2343,2179,1919,1936,2124
232448,17788,9268,8645,8645,-3800,-178,0,-19,-30,11,406,3962,8,20,818,1846,1914,2152,2343,2179,1919,1936,2124
233449,17792,9300,8710,8710,-3800,312,-6,-30,-31,105,454,3792,10,22,821,1846,1914,2152,2343,2179,1919,1936,2124
234450,17784,9356,8775,8775,-3800,23,-9,-34,-25,208,481,3908,-5,27,820,1846,1914,2152,2343,2179,1919,1936,2124
235451,17780,9396,8840,8840,-3800,253,-10,-36,-30,298,415,3815,1,33,822,1860,1914,2152,2343,2179,1919,1936,2124
236452,17788,9440,8905,8905,-3800,228,-5,-32,-25,428,338,3937,9,32,819,1860,1929,2168,2332,2177,1921,1967,2121
237453,17780,9484,8970,8970,-3800,254,0,-16,-11,469,324,3922,-8,37,821,1860,1929,2168,2332,2177,1921,1967,2121
238454,17796,9540,9035,9035,-3800,115,-2,-13,4,243,376,3875,-6,37,821,1860,1929,2168,2332,2177,1921,1967,2121
239455,17784,9592,9100,9100,-3800,180,-5,-14,8,211,390,3879,-7,24,821,1860,1929,2168,2332,2177,1921,1967,2121
240456,17784,9624,9165,9165,-3800,470,-3,-22,10,374,441,3856,10,24,818,1860,1929,2168,2332,2177,1921,1967,2121
241457,17792,9656,9230,9230,-3800,510,-4,-12,22,286,452,3959,-4,36,819,1856,1930,2173,2374,2190,1934,1976,2124
242458,17776,9672,9295,9295,-3800,770,-10,-3,23,138,458,3898,-6,25,819,1856,1930,2173,2374,2190,1934,1976,2124
243459,17784,9680,9360,9360,-3800,940,-20,-5,8,26,436,3874,-7,29,817,1856,1930,2173,2374,2190,1934,1976,2124
244460,17784,9724,9425,9425,-3800,516,-19,-3,-3,22,380,3838,10,39,814,1856,1930,2173,2374,2190,1934,1976,2124
245461,17780,9788,9490,9490,-3800,267,-15,-14,-3,100,393,3950,4,38,818,1856,1930,2173,2374,2190,1934,1976,2124
246462,17792,9844,9555,9555,-3800,377,-11,-7,-6,126,367,3805,-5,42,821,1856,1916,2164,2368,2191,1935,1982,2129
247463,17788,9916,9620,9620,-3800,168,-8,1,6,280,290,3861,1,27,820,1856,1916,2164,2368,2191,1935,1982,2129
248464,17776,9996,9685,9685,-3800,50,-2,-4,2,372,285,3875,-6,43,821,1856,1916,2164,2368,2191,1935,1982,2129
249465,17788,10056,9750,9750,-3800,306,10,15,7,386,323,3999,-5,36,822,1856,1916,2164,2368,2191,1935,1982,2129
250466,17780,10132,9815,9815,-3800,93,11,19,17,460,371,3754,10,37,821,1856,1916,2164,2368,2191,1935,1982,2129
251467,17792,10204,9880,9880,-3800,134,7,22,19,195,401,3928,9,48,822,1856,1916,2164,2368,2191,1935,1982,2129
252468,17784,10276,9945,9945,-3800,125,-1,16,11,190,409,3958,5,38,821,1843,1905,2148,2346,2197,1936,1975,2099
253469,17776,10328,10010,10010,-3800,391,-10,13,7,331,474,3736,-5,39,943,1843,1905,2148,2346,2197,1936,1975,2099
254470,17784,10428,10075,10075,-3800,-252,-7,12,13,-78,411,3957,6,40,819,1843,1905,2148,2346,2197,1936,1975,2099
255471,17792,10524,10140,10140,-3800,-240,-13,17,13,-46,450,3832,10,41,820,1843,1905,2148,2346,2197,1936,1975,2099
256472,17788,10600,10205,10205,-3800,-4,-16,17,3,66,367,3816,-7,41,820,1843,1905,2148,2346,2197,1936,1975,2099
257473,17776,10672,10270,10270,-3800,38,-16,21,3,-11,352,3915,6,31,810,1841,1910,2150,2340,2172,1925,1972,2127
258474,17792,10744,10335,10335,-3800,29,-9,5,7,-66,355,3851,7,37,822,1841,1910,2150,2340,2172,1925,1972,2127
259475,17784,10828,10400,10400,-3800,-144,-4,5,13,36,387,3919,-7,43,822,1841,1910,2150,2340,2172,1925,1972,2127
260476,17780,10908,10465,10465,-3800,-112,-4,4,4,162,373,3835,-6,32,821,1841,1910,2150,2340,2172,1925,1972,2127
261477,17776,10952,10530,10530,-3800,362,-8,5,-1,145,364,3895,4,31,816,1841,1910,2150,2340,2172,1925,1972,2127
262478,17788,11012,10595,10595,-3800,168,-3,13,4,120,374,3895,3,37,820,1841,1910,2150,2340,2172,1925,1972,2127
263479,17784,11080,10660,10660,-3800,65,-8,3,8,121,410,3881,-5,36,820,1849,1916,2158,2348,2180,1921,1971,2127
264480,17780,11140,10725,10725,-3800,171,-5,-6,-1,33,419,3917,-1,30,821,1849,1916,2158,2348,2180,1921,1971,2127
265481,17784,11220,10790,10790,-3800,-97,-14,-8,1,49,432,3858,-7,33,818,1849,1916,2158,2348,2180,1921,1971,2127
266482,17784,11272,10855,10855,-3800,268,-15,-8,4,188,409,3841,7,35,822,1849,1916,2158,2348,2180,1921,1971,2127
267483,17780,11340,10920,10920,-3800,64,-17,-20,4,-87,379,3910,-43,31,821,1849,1916,2158,2348,2180,1921,1971,2127
268484,17792,11388,10985,10985,-3800,335,-10,-15,-1,-12,411,3926,7,43,822,1864,1930,2169,2336,2180,1926,1972,2122
269485,17784,11452,11050,11050,-3800,136,-15,-15,-6,76,430,3869,-5,44,819,1864,1930,2169,2336,2180,1926,1972,2122
270486,17784,11512,11115,11115,-3800,192,-14,-19,-8,11,386,3893,5,39,822,1864,1930,2169,2336,2180,1926,1972,2122
271487,17780,11556,11180,11180,-3800,418,-18,-22,-5,172,419,3851,-1,31,821,1864,1930,2169,2336,2180,1926,1972,2122
272489,17784,11608,11245,11245,-3800,333,-13,-24,-4,191,375,3819,-7,34,820,1864,1930,2169,2336,2180,1926,1972,2122
273489,17788,11688,11310,11310,-3800,-36,-13,-18,-8,76,396,3957,-7,30,819,1864,1930,2169,2336,2180,1926,1972,2122
274490,17796,11740,11375,11375,-3800,330,-15,-13,-7,52,327,3874,-7,36,821,1842,1926,2168,2369,2188,1932,1975,2119
275491,17784,11804,11440,11440,-3800,181,-13,-18,-5,331,350,3872,-4,37,821,1842,1926,2168,2369,2188,1932,1975,2119
276492,17780,11852,11505,11505,-3800,402,-6,-15,-11,166,335,3955,-7,46,822,1842,1926,2168,2369,2188,1932,1975,2119
277493,17780,11916,11570,11570,-3800,203,-3,-17,-12,94,320,3913,2,37,819,1842,1926,2168,2369,2188,1932,1975,2119
278494,17788,11980,11635,11635,-3800,204,2,-19,-2,217,310,3818,8,41,822,1842,1926,2168,2369,2188,1932,1975,2119
279495,17784,12076,11700,11700,-3800,-233,2,-6,7,221,391,3978,6,42,822,1854,1914,2157,2358,2189,1926,1975,2122
280496,17780,12144,11765,11765,-3800,113,-3,-8,4,143,382,3843,-4,43,821,1854,1914,2157,2358,2189,1926,1975,2122
281497,17788,12208,11830,11830,-3800,163,3,-4,1,136,371,3854,-2,32,822,1854,1914,2157,2358,2189,1926,1975,2122
282498,17784,12264,11895,11895,-3800,274,6,3,7,353,423,3870,10,31,822,1854,1914,2157,2358,2189,1926,1975,2122
283499,17784,12324,11960,11960,-3800,230,1,-2,12,241,397,3945,-3,30,821,1854,1914,2157,2358,2189,1926,1975,2122
284500,17792,12388,12025,12025,-3800,181,-2,6,11,271,404,3863,8,39,821,1854,1914,2157,2358,2189,1926,1975,2122
285501,17788,12464,12090,12090,-3800,18,-5,-2,10,210,404,3854,-5,45,822,1845,1911,2149,2346,2189,1929,1973,2088
286502,17784,12528,12155,12155,-3800,169,-2,12,14,89,408,3968,2,38,839,1845,1911,2149,2346,2189,1929,1973,2088
287503,17780,12568,12220,12220,-3800,499,-4,14,17,110,372,3843,0,35,822,1845,1911,2149,2346,2189,1929,1973,2088
288504,17788,12636,12285,12285,-3800,145,-9,8,11,140,378,3904,-5,37,819,1845,1911,2149,2346,2189,1929,1973,2088
289505,17780,12696,12350,12350,-3800,251,-9,5,2,137,431,3886,9,31,822,1845,1911,2149,2346,2189,1929,1973,2088
290506,17776,12760,12415,12415,-3800,202,-8,-8,5,27,388,3803,2,33,810,1846,1916,2158,2348,2164,1930,1976,2132
291507,17784,12828,12480,12480,-3800,149,0,-1,10,231,412,3903,-7,33,820,1846,1916,2158,2348,2164,1930,1976,2132
292508,17792,12904,12545,12545,-3800,35,0,9,-1,217,388,3828,-7,40,822,1846,1916,2158,2348,2164,1930,1976,2132
293509,17788,12968,12610,12610,-3800,186,-3,15,2,265,389,3930,-4,32,823,1846,1916,2158,2348,2164,1930,1976,2132
294510,17780,13036,12675,12675,-3800,133,-2,10,3,337,423,3769,2,39,816,1846,1916,2158,2348,2164,1930,1976,2132
295511,17780,13108,12740,12740,-3800,73,-2,7,11,140,414,3962,-7,37,822,1846,1916,2158,2348,2164,1930,1976,2132
296512,17792,13180,12805,12805,-3800,65,-6,7,9,150,421,3886,-7,32,822,1852,1911,2161,2353,2189,1931,1976,2131
297513,17784,13256,12870,12870,-3800,1,-20,1,12,126,390,3884,5,43,822,1852,1911,2161,2353,2189,1931,1976,2131
298514,17788,13304,12935,12935,-3800,372,-19,13,15,60,416,3865,-6,34,820,1852,1911,2161,2353,2189,1931,1976,2131
299515,17780,13372,13000,13000,-3800,118,-21,5,2,-155,394,3906,-1,40,821,1852,1911,2161,2353,2189,1931,1976,2131
300516,17780,13440,13065,13065,-3800,115,-18,-6,-6,-174,354,3832,9,33,822,1852,1911,2161,2353,2189,1931,1976,2131
301517,17788,13488,13130,13130,-3800,385,-18,-12,-12,73,425,3883,6,34,823,1857,1923,2162,2361,2186,1930,1972,2122
302518,17792,13552,13195,13195,-3800,186,-24,-23,-12,-137,351,3854,-7,31,819,1857,1923,2162,2361,2186,1930,1972,2122
303519,17780,13596,13260,13260,-3800,461,-18,-16,-12,70,403,3916,-5,35,822,1857,1923,2162,2361,2186,1930,1972,2122
304520,17788,13668,13325,13325,-3800,103,-10,-23,-5,62,312,3776,9,39,820,1857,1923,2162,2361,2186,1930,1972,2122
305521,17780,13740,13390,13390,-3800,94,-5,-12,-5,343,390,4075,-3,31,822,1857,1923,2162,2361,2186,1930,1972,2122
306522,17792,13804,13455,13455,-3800,195,-6,2,-8,102,336,3763,9,44,822,1857,1923,2162,2361,2186,1930,1972,2122
307523,17792,13864,13520,13520,-3800,252,-8,-9,5,1,346,3999,-7,38,823,1828,1917,2158,2356,2183,1927,1971,2117
308524,17780,13924,13585,13585,-3800,258,-3,-5,5,390,374,3759,11,41,819,1828,1917,2158,2356,2183,1927,1971,2117
309525,17788,13968,13650,13650,-3800,482,-4,-9,4,266,401,3917,-2,42,821,1828,1917,2158,2356,2183,1927,1971,2117
310526,17784,14048,13715,13715,-3800,14,-6,-10,1,-58,415,3810,10,45,819,1828,1917,2158,2356,2183,1927,1971,2117
311527,17776,14120,13780,13780,-3800,105,-9,-10,2,79,380,3876,-6,45,823,1828,1917,2158,2356,2183,1927,1971,2117
312528,17784,14180,13845,13845,-3800,262,-10,-7,1,273,360,3914,-6,33,823,1853,1916,2154,2355,2180,1905,1970,2120
313529,17776,14260,13910,13910,-3800,-7,-1,-1,-7,25,360,3865,-7,22,822,1853,1916,2154,2355,2180,1905,1970,2120
314530,17792,14328,13975,13975,-3800,140,-2,-9,-1,38,361,3857,1,34,822,1853,1916,2154,2355,2180,1905,1970,2120
315531,17764,14404,14040,14040,-3800,26,-3,-14,5,303,385,3906,-7,31,822,1853,1916,2154,2355,2180,1905,1970,2120
316532,17780,14480,14105,14105,-3800,13,-3,-3,4,298,372,3861,9,39,823,1853,1916,2154,2355,2180,1905,1970,2120
317533,17788,14556,14170,14170,-3800,-2,4,4,1,246,380,3846,-7,34,823,1853,1916,2154,2355,2180,1905,1970,2120
318534,17788,14608,14235,14235,-3800,314,4,3,-1,127,424,3972,7,31,823,1852,1920,2154,2353,2185,1925,1973,2126
319535,17776,14672,14300,14300,-3800,165,-2,-5,12,206,379,3799,10,29,816,1852,1920,2154,2353,2185,1925,1973,2126
320536,17784,14740,14365,14365,-3800,112,-4,-5,9,423,482,3966,8,37,822,1852,1920,2154,2353,2185,1925,1973,2126
321537,17792,14808,14430,14430,-3800,108,-4,-6,1,-181,411,3829,10,31,822,1852,1920,2154,2353,2185,1925,1973,2126
322538,17784,14864,14495,14495,-3800,269,-2,-9,0,95,421,3959,-5,30,823,1852,1920,2154,2353,2185,1925,1973,2126
323539,17776,14912,14560,14560,-3800,389,-4,-4,4,236,382,3844,7,38,813,1856,1925,2165,2356,2157,1932,1978,2132
324540,17784,14976,14625,14625,-3800,190,-6,1,9,131,366,3935,8,36,821,1856,1925,2165,2356,2157,1932,1978,2132
325541,17780,15028,14690,14690,-3800,356,-9,1,7,199,399,3901,6,33,820,1856,1925,2165,2356,2157,1932,1978,2132
326542,17788,15080,14755,14755,-3800,372,-7,-1,9,235,410,3885,10,36,821,1856,1925,2165,2356,2157,1932,1978,2132
327543,17780,15152,14820,14820,-3800,113,-6,-1,9,230,448,3830,5,45,816,1856,1925,2165,2356,2157,1932,1978,2132
328544,17776,15220,14885,14885,-3800,160,-11,-1,10,130,418,3914,1,44,823,1856,1925,2165,2356,2157,1932,1978,2132
329545,17780,15288,14950,14950,-3800,156,-15,-1,6,222,384,3903,-4,37,822,1852,1898,2160,2354,2193,1935,1979,2131
330546,17792,15356,15015,15015,-3800,152,-13,5,4,300,363,3897,3,32,822,1852,1898,2160,2354,2193,1935,1979,2131
331547,17788,15436,15080,15080,-3736,-17,-10,5,5,29,388,3911,4,41,820,1852,1898,2160,2354,2193,1935,1979,2131
332548,17780,15532,15145,15145,-3598,-255,-8,3,4,23,333,3886,-3,32,823,1852,1898,2160,2354,2193,1935,1979,2131
333549,17776,15600,15210,15210,-3565,91,-12,2,3,286,360,3927,6,44,822,1852,1898,2160,2354,2193,1935,1979,2131
334550,17792,15664,15275,15275,-3756,143,-13,-2,-6,134,376,3888,9,32,823,1849,1914,2155,2352,2190,1932,1969,2122
335551,17800,15732,15340,15340,-3587,89,-5,1,-1,-47,369,3886,9,30,821,1849,1914,2155,2352,2190,1932,1969,2122
336552,17784,15812,15405,15405,-3190,-79,-5,0,-1,21,426,3887,0,34,823,1849,1914,2155,2352,2190,1932,1969,2122
337553,17784,15856,15470,15470,-3311,396,-11,-5,-11,-85,390,3895,6,38,822,1849,1914,2155,2352,2190,1932,1969,2122
338554,17784,15928,15535,15535,-3232,37,-15,-5,-11,-34,381,3905,3,31,821,1849,1914,2155,2352,2190,1932,1969,2122
339555,17776,15984,15600,15600,-3044,248,-14,-12,-4,207,410,3772,-6,43,822,1849,1914,2155,2352,2190,1932,1969,2122
340556,17776,16028,15665,15665,-3065,423,-12,-18,0,-4,372,3980,11,33,822,1848,1914,2152,2348,2182,1925,1970,2118
341557,17784,16084,15730,15730,-3097,284,-8,-8,-7,67,382,3887,2,35,821,1848,1914,2152,2348,2182,1925,1970,2118
342558,17788,16140,15795,15795,-2973,295,-10,-6,-1,269,336,3849,-7,30,820,1848,1914,2152,2348,2182,1925,1970,2118
343559,17796,16208,15860,15860,-2955,142,-7,2,6,346,369,3930,-4,38,821,1848,1914,2152,2348,2182,1925,1970,2118
344560,17780,16272,15925,15925,-2556,193,-6,3,12,117,363,3864,10,37,822,1848,1914,2152,2348,2182,1925,1970,2118
345561,17780,16312,15990,15990,-2678,522,-3,-4,13,169,380,3874,10,35,822,1852,1920,2159,2355,2179,1891,1969,2122
346562,17784,16364,16055,16055,-2654,388,0,-5,6,198,433,3871,10,43,820,1852,1920,2159,2355,2179,1891,1969,2122
347563,17784,16432,16120,16120,-2525,185,-3,-10,2,35,405,3946,-6,32,820,1852,1920,2159,2355,2179,1891,1969,2122
348564,17788,16500,16185,16185,-2501,181,-8,-4,5,149,423,3743,11,46,822,1852,1920,2159,2355,2179,1891,1969,2122
349565,17784,16568,16384,16384,-1467,1028,-8,-5,2,138,423,3936,-4,40,822,1852,1920,2159,2355,2179,1891,1969,2122
350566,17792,16656,16449,16449,-1548,750,-11,-7,-2,108,375,3898,-7,46,815,1852,1920,2159,2355,2179,1891,1969,2122
351567,17796,16752,16514,16514,-1424,612,-6,-11,-2,212,396,3913,-5,42,817,1859,1928,2152,2360,2185,1924,1973,2127
352568,17784,16824,16579,16579,-1130,903,-5,-3,-8,246,383,3855,0,50,819,1859,1928,2152,2360,2185,1924,1973,2127
353569,17784,16932,16644,16644,-1202,401,-6,-2,-4,276,357,3920,7,50,816,1859,1928,2152,2360,2185,1924,1973,2127
354570,17784,17040,16709,16709,-1123,347,-2,0,-1,218,383,3878,12,51,821,1859,1928,2152,2360,2185,1924,1973,2127
355571,17792,17128,16774,16774,-1153,569,1,0,11,219,396,3883,-3,47,821,1859,1928,2152,2360,2185,1924,1973,2127
356572,17800,17252,16839,16839,-1085,47,-7,4,7,139,456,3944,-3,58,810,1859,1927,2166,2361,2191,1933,1977,2122
357573,17796,17340,16904,16904,-850,469,-16,-7,-1,-8,442,3756,9,59,823,1859,1927,2166,2361,2191,1933,1977,2122
358574,17776,17436,16969,16969,-548,331,-12,-13,2,178,392,3895,-1,60,820,1859,1927,2166,2361,2191,1933,1977,2122
359575,17780,17544,17034,17034,-773,129,-5,-3,7,226,379,3914,-3,52,819,1859,1927,2166,2361,2191,1933,1977,2122
360576,17780,17648,17099,17099,-644,130,-5,-4,8,-153,330,3824,-5,49,817,1859,1927,2166,2361,2191,1933,1977,2122
361577,17788,17724,17164,17164,-674,467,-8,-5,9,126,316,3963,12,54,822,1859,1927,2166,2361,2191,1933,1977,2122
362578,17776,17820,17229,17229,-331,179,-4,-1,4,177,391,3781,7,60,820,1850,1884,2156,2353,2189,1934,1976,2125
363579,17792,17904,17294,17294,-621,306,-1,-5,5,-28,384,3962,-5,55,822,1850,1884,2156,2353,2189,1934,1976,2125
364580,17792,18024,17359,17359,-342,-211,1,-7,0,136,444,3804,10,56,816,1850,1884,2156,2353,2189,1934,1976,2125
365581,17780,18092,17424,17424,-98,434,-6,-14,0,266,400,3966,-3,59,822,1850,1884,2156,2353,2189,1934,1976,2125
366582,17788,18228,17489,17489,-278,-503,-7,-3,-5,264,432,3847,10,55,821,1850,1884,2156,2353,2189,1934,1976,2125
367583,17784,18328,17554,17554,-44,-95,-5,0,-5,329,431,3862,2,49,818,1844,1907,2150,2347,2188,1930,1953,2123
368584,17788,18416,17619,17619,-71,26,-4,1,1,189,413,3942,-6,55,822,1844,1907,2150,2347,2188,1930,1953,2123
369585,17784,18512,17684,17684,113,-112,-13,2,3,94,383,3801,-7,38,821,1844,1907,2150,2347,2188,1930,1953,2123
370586,17792,18604,17749,17749,33,-95,-10,2,1,123,303,3949,1,44,822,1844,1907,2150,2347,2188,1930,1953,2123
371587,17784,18696,17814,17814,322,-128,-8,3,2,108,321,3816,10,52,822,1844,1907,2150,2347,2188,1930,1953,2123
372588,17792,18772,17879,17879,192,57,-2,4,2,113,384,3891,-7,38,820,1844,1907,2150,2347,2188,1930,1953,2123
373589,17784,18856,17944,17944,481,-66,-5,1,0,-19,369,3902,-5,45,822,1845,1912,2154,2351,2187,1930,1973,2124
374590,17796,18932,18009,18009,296,20,-5,-2,-4,84,404,3939,-5,41,819,1845,1912,2154,2351,2187,1930,1973,2124
375591,17800,19024,18074,18074,471,-213,-6,-6,-2,99,405,3924,-2,36,821,1845,1912,2154,2351,2187,1930,1973,2124
376592,17816,19104,18139,18139,381,-81,-6,-9,2,37,397,3861,13,37,816,1845,1912,2154,2351,2187,1930,1973,2124
377593,17816,19192,18204,18204,660,-211,-8,-6,0,49,426,3894,8,42,820,1845,1912,2154,2351,2187,1930,1973,2124
378594,17832,19248,18269,18269,520,200,-10,-10,0,41,375,3879,7,37,816,1854,1925,2162,2358,2184,1924,1973,2127
379595,17848,19336,18334,18334,580,-228,-9,-13,-4,168,379,3838,8,35,818,1854,1925,2162,2358,2184,1924,1973,2127
380596,17872,19408,18399,18399,530,-37,-10,-9,-9,237,395,3903,13,47,817,1854,1925,2162,2358,2184,1924,1973,2127
381597,17888,19488,18464,18464,690,-155,-10,-7,-10,331,398,3785,25,37,819,1854,1925,2162,2358,2184,1924,1973,2127
382598,17924,19568,18529,18529,476,-175,-9,-7,-1,295,378,4005,17,42,816,1854,1925,2162,2358,2184,1924,1973,2127
383599,17956,19632,18594,18594,566,26,-11,-3,1,180,380,3891,26,41,818,1854,1925,2162,2358,2184,1924,1973,2127
384600,18000,19692,18659,18659,442,83,-12,-6,6,215,405,3860,18,32,819,1863,1932,2168,2363,2185,1926,1974,2125
385601,18028,19752,18724,18724,687,88,-12,-3,11,99,396,3968,20,42,819,1863,1932,2168,2363,2185,1926,1974,2125
386602,18072,19800,18789,18789,514,258,-10,-9,14,-16,334,3910,33,42,817,1863,1932,2168,2363,2185,1926,1974,2125
387603,18128,19864,18854,18854,375,59,-9,-5,11,204,397,3876,28,41,818,1863,1932,2168,2363,2185,1926,1974,2125
388604,18184,19928,18919,18919,386,60,-9,-10,11,177,408,3848,32,37,820,1863,1932,2168,2363,2185,1926,1974,2125
389605,18232,19976,18984,18984,506,281,-8,-5,4,81,404,3938,32,30,820,1858,1924,2163,2361,2188,1932,1975,2123
390606,18284,20028,19049,19049,473,245,-9,-2,-2,62,362,3851,37,29,818,1858,1924,2163,2361,2188,1932,1975,2123
391607,18360,20064,19114,19114,160,481,-10,-6,-6,137,416,3889,27,36,818,1858,1924,2163,2361,2188,1932,1975,2123
392608,18396,20152,19179,19179,695,-197,-8,-11,-5,99,411,3867,44,35,819,1858,1924,2163,2361,2188,1932,1975,2123
393609,18460,20216,19244,19244,348,103,-9,-9,-2,231,368,3865,41,41,815,1858,1924,2163,2361,2188,1932,1975,2123
394610,18528,20268,19309,19309,294,269,-6,-1,2,285,363,3928,31,41,820,1858,1924,2163,2361,2188,1932,1975,2123
395611,18588,20324,19374,19374,400,229,-8,-3,1,-14,359,3811,46,40,820,1849,1913,2154,2353,2186,1930,1973,2123
396612,18648,20380,19439,19439,406,240,-5,7,7,302,342,3940,32,40,819,1849,1913,2154,2353,2186,1930,1973,2123
397613,18704,20440,19504,19504,468,196,-7,-1,2,325,375,3773,35,40,819,1849,1913,2154,2353,2186,1930,1973,2123
398614,18780,20496,19569,19569,205,256,-5,4,0,159,444,3948,48,28,819,1849,1913,2154,2353,2186,1930,1973,2123
399617,18832,20556,19634,19634,521,212,-11,2,1,279,393,3828,51,42,820,1849,1913,2154,2353,2186,1930,1973,2123
400616,18904,20612,19699,19699,263,273,-12,-2,4,133,376,3916,41,31,818,1846,1911,2152,2348,2188,1930,1974,2126
401617,18968,20664,19764,19764,364,338,-10,4,-1,179,404,3903,36,35,820,1846,1911,2152,2348,2188,1930,1974,2126
402618,19048,20708,19829,19829,146,464,-7,1,5,106,371,3807,52,42,819,1846,1911,2152,2348,2188,1930,1974,2126
403619,19104,20768,19894,19894,458,270,-9,5,4,0,431,3966,48,41,819,1846,1911,2152,2348,2188,1930,1974,2126
404620,19204,20848,19959,19959,-135,0,-9,0,6,-144,370,3842,44,29,819,1846,1911,2152,2348,2188,1930,1974,2126
405621,19248,20908,20024,20024,591,256,-3,1,8,139,350,3882,52,37,814,1846,1911,2152,2348,2188,1930,1974,2126
406622,19324,20980,20089,20089,177,98,-7,-9,11,69,445,3897,42,29,817,1848,1917,2158,2351,2191,1930,1975,2127
407623,19404,21052,20154,20154,110,88,-7,-11,5,14,374,3840,55,38,821,1848,1917,2158,2351,2191,1930,1975,2127
408624,19476,21108,20219,20219,201,299,-13,-10,1,261,371,3894,52,32,822,1848,1917,2158,2351,2191,1930,1975,2127
409625,19556,21164,20284,20284,83,310,-13,-10,-1,216,410,3808,37,35,820,1848,1917,2158,2351,2191,1930,1975,2127
410626,19624,21228,20349,20349,231,211,-18,-6,-7,79,424,3912,49,32,819,1848,1917,2158,2351,2191,1930,1975,2127
411627,19692,21296,20414,20414,227,157,-11,4,-6,91,349,3882,53,35,820,1858,1926,2163,2358,2187,1928,1975,2130
412628,19764,21356,20479,20479,168,263,-14,8,-7,263,431,3916,50,31,821,1858,1926,2163,2358,2187,1928,1975,2130
413629,19820,21428,20544,20544,379,103,-19,2,-5,167,345,3840,34,36,821,1858,1926,2163,2358,2187,1928,1975,2130
414630,19880,21488,20609,20609,336,260,-14,1,-1,217,496,3987,35,42,820,1858,1926,2163,2358,2187,1928,1975,2130
415631,19944,21556,20674,20674,288,156,-19,-4,4,280,326,3857,37,37,819,1858,1926,2163,2358,2187,1928,1975,2130
416632,20028,21612,20739,20739,14,316,-14,-1,5,229,384,3970,34,39,821,1858,1926,2163,2358,2187,1928,1975,2130
417633,20076,21668,20804,20804,485,327,-9,8,3,107,331,3846,51,34,821,1859,1927,2164,2359,2182,1928,1976,2124
418634,20164,21732,20869,20869,-42,228,-7,-9,3,-94,316,3816,51,40,818,1859,1927,2164,2359,2182,1928,1976,2124
419635,20228,21816,20934,20934,259,-46,0,-16,1,-17,362,4054,42,42,821,1859,1927,2164,2359,2182,1928,1976,2124
420636,20288,21868,20999,20999,315,370,4,-3,2,7,337,3948,44,41,822,1859,1927,2164,2359,2182,1928,1976,2124
421637,20360,21936,21064,21064,158,166,-4,-8,-2,39,448,3792,41,31,819,1859,1927,2164,2359,2182,1928,1976,2124
422638,20436,21988,21129,21129,94,381,-10,-12,-1,222,444,3924,33,28,821,1854,1920,2158,2357,2186,1928,1972,2119
423639,20476,22044,21194,21194,575,342,-15,-12,-3,203,408,3815,37,27,820,1854,1920,2158,2357,2186,1928,1972,2119
424640,20560,22112,21259,21259,2,188,-11,-8,-2,98,401,3850,41,39,817,1854,1920,2158,2357,2186,1928,1972,2119
425641,20640,22176,21324,21324,34,238,-13,-12,-2,206,339,3877,43,37,822,1854,1920,2158,2357,2186,1928,1972,2119
426642,20700,22236,21389,21389,291,295,-1,-8,-5,173,279,4007,40,30,822,1854,1920,2158,2357,2186,1928,1972,2119
427643,20752,22292,21454,21454,406,356,-2,-15,1,169,335,3762,34,39,817,1854,1920,2158,2357,2186,1928,1972,2119
428644,20840,22348,21519,21519,-72,366,2,-3,-1,283,421,3973,32,35,818,1850,1916,2156,2356,2184,1927,1971,2119
429645,20896,22404,21584,21584,340,377,-3,-2,10,193,369,3865,37,37,819,1850,1916,2156,2356,2184,1927,1971,2119
430646,20952,22472,21649,21649,351,223,-4,-8,12,178,374,3858,35,29,818,1850,1916,2156,2356,2184,1927,1971,2119
431647,21016,22548,21714,21714,253,108,-2,-1,8,233,395,3847,41,42,820,1850,1916,2156,2356,2184,1927,1971,2119
432648,21088,22616,21779,21779,144,205,-5,-2,6,332,384,3886,36,39,821,1850,1916,2156,2356,2184,1927,1971,2119
433649,21152,22676,21844,21844,246,311,-5,2,10,164,398,3962,42,37,821,1852,1919,2160,2353,2188,1929,1975,2128
434650,21216,22756,21909,21909,247,42,-7,7,8,44,358,3875,35,28,820,1852,1919,2160,2353,2188,1929,1975,2128
435651,21280,22812,21974,21974,249,353,-4,0,3,113,365,3891,44,38,822,1852,1919,2160,2353,2188,1929,1975,2128
436652,21324,22876,22039,22039,525,254,-5,-2,2,-13,370,3866,31,33,820,1852,1919,2160,2353,2188,1929,1975,2128
437653,21396,22956,22104,22104,167,34,0,-2,-9,43,434,3916,32,31,818,1852,1919,2160,2353,2188,1929,1975,2128
438654,21464,23028,22169,22169,213,126,-8,-3,-13,105,411,3887,39,43,822,1852,1919,2160,2353,2188,1929,1975,2128
439655,21540,23088,22234,22234,100,282,-9,-6,-13,129,415,3841,50,32,822,1853,1923,2163,2357,2194,1933,1978,2133
440656,21592,23156,22299,22299,417,177,-9,-5,-8,77,389,3935,36,42,821,1853,1923,2163,2357,2194,1933,1978,2133
441657,21656,23208,22364,22364,268,393,-4,-4,-11,227,386,3895,34,40,819,1853,1923,2163,2357,2194,1933,1978,2133
442658,21728,23260,22429,22429,159,409,-10,4,-8,322,426,3786,41,34,819,1853,1923,2163,2357,2194,1933,1978,2133
443659,21792,23324,22494,22494,260,259,-11,0,2,234,379,3871,44,39,820,1853,1923,2163,2357,2194,1933,1978,2133
444660,21856,23388,22559,22559,263,261,-11,0,9,141,384,3869,38,35,818,1856,1925,2163,2357,2190,1931,1977,2130
445661,21912,23460,22624,22624,374,152,-9,2,13,154,340,3901,42,38,820,1856,1925,2163,2357,2190,1931,1977,2130
446662,21968,23520,22689,22689,385,307,-9,-1,8,243,399,3821,36,38,820,1856,1925,2163,2357,2190,1931,1977,2130
447663,22040,23588,22754,22754,176,203,-9,-10,8,32,379,3947,48,30,819,1856,1925,2163,2357,2190,1931,1977,2130
448664,22112,23632,22819,22819,169,529,-11,-7,3,171,330,3863,34,41,821,1856,1925,2163,2357,2190,1931,1977,2130
449669,22164,23704,22884,22884,434,170,-7,-1,10,135,314,3838,36,35,819,1856,1925,2163,2357,2190,1931,1977,2130
450666,22232,23776,22949,22949,231,161,0,-4,13,197,335,3926,32,33,819,1853,1920,2158,2353,2186,1927,1972,2121
451667,22292,23836,23014,23014,338,317,6,9,9,190,422,3908,36,33,821,1853,1920,2158,2353,2186,1927,1972,2121
452668,22356,23880,23079,23079,289,543,5,4,5,-52,363,3837,49,39,819,1853,1920,2158,2353,2186,1927,1972,2121
453669,22432,23968,23144,23144,126,-36,1,-7,-4,-172,431,3856,38,45,818,1853,1920,2158,2353,2186,1927,1972,2121
454670,22480,24056,23209,23209,496,-64,-7,-13,-13,-55,460,3885,46,33,822,1853,1920,2158,2353,2186,1927,1972,2121
455671,22548,24112,23274,23274,244,347,-10,-6,-10,175,394,3891,42,35,819,1850,1916,2154,2357,2182,1919,1959,2120
456672,22616,24184,23339,23339,240,137,-14,-3,-6,265,447,3962,53,31,820,1850,1916,2154,2357,2182,1919,1959,2120
457673,22696,24252,23404,23404,72,183,-15,-10,3,66,394,3772,50,38,821,1850,1916,2154,2357,2182,1919,1959,2120
458674,22752,24324,23469,23469,383,125,-13,-10,7,28,324,3862,47,30,822,1850,1916,2154,2357,2182,1919,1959,2120
459675,22792,24364,23534,23534,614,554,-7,-13,14,245,280,3893,35,34,820,1850,1916,2154,2357,2182,1919,1959,2120
460676,22860,24428,23599,23599,261,256,2,-7,17,250,354,3966,35,28,815,1853,1920,2158,2355,2182,1926,1972,2123
461677,22932,24504,23664,23664,202,92,0,-4,12,206,384,3755,40,35,817,1853,1920,2158,2355,2182,1926,1972,2123
462678,23000,24572,23729,23729,249,187,1,-6,13,242,367,3886,54,37,821,1853,1920,2158,2355,2182,1926,1972,2123
463679,23080,24624,23794,23794,81,403,2,-2,12,240,396,3944,45,44,821,1853,1920,2158,2355,2182,1926,1972,2123
464680,23160,24696,23859,23859,63,145,1,-4,7,6,368,3824,47,29,820,1853,1920,2158,2355,2182,1926,1972,2123
465681,23212,24784,23924,23924,429,-84,1,-1,-3,66,373,3921,45,31,822,1853,1920,2158,2355,2182,1926,1972,2123
466682,23276,24828,23989,23989,281,491,3,-3,-6,119,391,3834,35,29,820,1857,1926,2163,2361,2191,1932,1976,2129
467683,23352,24888,24054,24054,117,297,-2,-4,-9,139,429,3868,33,41,818,1857,1926,2163,2361,2191,1932,1976,2129
468684,23408,24960,24119,24119,378,138,-2,-1,-11,222,437,3833,50,31,820,1857,1926,2163,2361,2191,1932,1976,2129
469685,23468,25012,24184,24184,335,404,-12,-13,-4,121,374,3865,37,39,820,1857,1926,2163,2361,2191,1932,1976,2129
470686,23548,25088,24249,24249,67,90,-9,4,-4,276,450,3900,36,28,818,1857,1926,2163,2361,2191,1932,1976,2129
471687,23608,25140,24314,24314,323,405,-16,-3,-3,249,389,3811,51,28,822,1856,1925,2164,2360,2192,1933,1978,2132
472688,23668,25188,24379,24379,329,476,-10,1,-2,173,418,3954,37,28,819,1856,1925,2164,2360,2192,1933,1978,2132
473689,23748,25248,24444,24444,61,332,-12,2,8,157,363,3828,33,42,818,1856,1925,2164,2360,2192,1933,1978,2132
474690,23792,25324,24509,24509,538,118,-6,3,5,166,353,3918,43,38,820,1856,1925,2164,2360,2192,1933,1978,2132
475691,23864,25388,24574,24574,179,269,-9,2,5,82,377,3974,44,34,818,1856,1925,2164,2360,2192,1933,1978,2132
476692,23920,25472,24639,24639,390,-4,-10,-6,4,183,370,3769,40,40,820,1856,1925,2164,2360,2192,1933,1978,2132
477693,24000,25536,24704,24704,73,247,-1,0,-3,116,393,4055,39,27,820,1849,1918,2156,2349,2191,1931,1974,2126
478694,24084,25596,24769,24769,0,302,-7,-8,-4,-76,347,3812,44,28,819,1849,1918,2156,2349,2191,1931,1974,2126
479695,24140,25652,24834,24834,361,363,-3,-10,-4,-127,368,3915,39,28,821,1849,1918,2156,2349,2191,1931,1974,2126
480696,24200,25716,24899,24899,317,264,0,-3,-8,27,343,3884,36,28,819,1849,1918,2156,2349,2191,1931,1974,2126
481697,24276,25780,24964,24964,104,264,-5,-15,-4,26,402,3814,41,41,820,1849,1918,2156,2349,2191,1931,1974,2126
482698,24340,25860,25029,25029,256,46,-5,-11,0,118,458,3919,38,37,821,1848,1914,2153,2349,2186,1927,1971,2121
483699,24408,25904,25094,25094,202,522,-11,-14,3,176,420,3771,32,38,821,1848,1914,2153,2349,2186,1927,1971,2121
484700,24476,25972,25159,25159,198,217,-14,-13,3,226,385,3870,47,37,818,1848,1914,2153,2349,2186,1927,1971,2121
485701,24552,26036,25224,25224,86,268,-8,-5,0,265,404,3924,36,27,821,1848,1914,2153,2349,2186,1927,1971,2121
486702,24620,26088,25289,25289,182,434,-8,-2,1,278,374,3829,38,27,821,1848,1914,2153,2349,2186,1927,1971,2121
487703,24680,26148,25354,25354,288,339,-11,-3,2,364,418,3911,34,27,819,1848,1914,2153,2349,2186,1927,1971,2121
488704,24752,26224,25419,25419,130,126,-4,1,3,288,399,3905,44,25,820,1850,1916,2155,2354,2184,1927,1973,2124
489705,24804,26276,25484,25484,397,442,-12,1,6,58,407,3878,40,38,821,1850,1916,2155,2354,2184,1927,1973,2124
490706,24872,26328,25549,25549,193,457,-8,6,7,151,356,3844,40,34,818,1850,1916,2155,2354,2184,1927,1973,2124
491707,24912,26400,25614,25614,573,198,-9,7,8,230,378,3922,45,43,819,1850,1916,2155,2354,2184,1927,1973,2124
492708,24984,26468,25679,25679,165,244,-9,1,4,45,366,3884,32,28,818,1850,1916,2155,2354,2184,1927,1973,2124
493709,25048,26520,25744,25744,267,460,-6,3,4,45,382,3851,39,44,820,1858,1925,2166,2363,2185,1928,1974,2125
494710,25116,26584,25809,25809,213,310,-4,-2,-1,78,385,3923,47,41,818,1858,1925,2166,2363,2185,1928,1974,2125
495711,25164,26648,25874,25874,484,312,-7,2,0,72,404,3921,35,27,818,1858,1925,2166,2363,2185,1928,1974,2125
496712,25244,26708,25939,25939,66,368,-9,-4,-4,79,399,3802,43,39,818,1858,1925,2166,2363,2185,1928,1974,2125
497713,25292,26776,26004,26004,488,263,-9,-7,-2,111,397,3886,47,42,820,1858,1925,2166,2363,2185,1928,1974,2125
498714,25344,26836,26069,26069,454,369,-10,-10,2,184,390,3897,44,31,819,1858,1925,2166,2363,2185,1928,1974,2125
499715,25400,26900,26134,26134,414,320,-5,-1,6,122,385,3868,44,45,818,1856,1928,2166,2360,2184,1927,1974,2124
500716,25468,26960,26199,26199,262,376,-4,-6,9,129,370,3909,44,40,818,1856,1928,2166,2360,2184,1927,1974,2124
501717,25532,27012,26264,26264,313,491,-5,-2,7,230,359,3911,46,41,819,1856,1928,2166,2360,2184,1927,1974,2124
502718,25608,27088,26329,26329,150,178,-4,-3,1,134,372,3870,38,32,818,1856,1928,2166,2360,2184,1927,1974,2124
503719,25676,27144,26394,26394,246,439,-3,-5,3,109,418,3892,43,42,821,1856,1928,2166,2360,2184,1927,1974,2124
504720,25740,27220,26459,26459,298,175,0,1,0,95,342,3843,37,31,819,1855,1923,2160,2355,2185,1930,1976,2128
505721,25824,27296,26524,26524,25,161,-4,1,-3,144,385,3932,39,35,820,1855,1923,2160,2355,2185,1930,1976,2128
506722,25892,27372,26589,26589,221,148,-7,-6,-1,47,372,3815,42,36,822,1855,1923,2160,2355,2185,1930,1976,2128
507723,25952,27440,26654,26654,327,243,-3,-8,3,81,387,3892,34,30,821,1855,1923,2160,2355,2185,1930,1976,2128
508724,25992,27516,26719,26719,609,130,-5,-3,1,190,411,3923,52,39,820,1855,1923,2160,2355,2185,1930,1976,2128
509725,26092,27576,26784,26784,-184,336,-6,-4,4,210,403,3908,43,40,818,1855,1923,2160,2355,2185,1930,1976,2128
510726,26148,27640,26849,26849,377,287,-2,-5,3,237,355,3828,36,45,821,1848,1916,2149,2350,2188,1928,1972,2123
511727,26220,27688,26914,26914,170,507,-1,-12,-1,268,390,3847,35,34,819,1848,1916,2149,2350,2188,1928,1972,2123
512728,26304,27772,26979,26979,-4,33,-7,-7,3,217,382,3921,37,40,817,1848,1916,2149,2350,2188,1928,1972,2123
513729,26344,27832,27044,27044,577,340,-5,-5,5,216,396,3879,36,31,823,1848,1916,2149,2350,2188,1928,1972,2123
514730,26420,27892,27109,27109,114,345,-5,6,2,202,385,3843,51,35,817,1848,1916,2149,2350,2188,1928,1972,2123
515731,26468,27968,27174,27174,485,131,-9,-3,1,60,379,3914,42,44,820,1816,1913,2153,2351,2190,1930,1973,2125
516732,26536,28012,27239,27239,232,557,-5,1,0,-96,388,3872,36,39,819,1816,1913,2153,2351,2190,1930,1973,2125
517733,26624,28072,27304,27304,-46,362,-9,0,-1,45,373,3900,47,33,818,1816,1913,2153,2351,2190,1930,1973,2125
518734,26700,28140,27369,27369,90,258,-10,-10,-6,0,402,3846,37,34,820,1816,1913,2153,2351,2190,1930,1973,2125
519735,26768,28216,27434,27434,187,145,-10,-5,-1,-1,304,3928,50,36,821,1816,1913,2153,2351,2190,1930,1973,2125
520736,26844,28280,27499,27499,74,296,-4,-4,1,43,359,3873,43,41,821,1816,1913,2153,2351,2190,1930,1973,2125
521737,26896,28344,27564,27564,390,296,-8,-11,10,85,383,3859,36,42,821,1847,1919,2161,2356,2192,1931,1976,2130
522738,26976,28404,27629,27629,22,352,-12,-8,9,269,398,3901,35,38,819,1847,1919,2161,2356,2192,1931,1976,2130
523739,27052,28452,27694,27694,59,523,-11,-3,12,160,376,3808,46,39,821,1847,1919,2161,2356,2192,1931,1976,2130
524740,27108,28524,27759,27759,320,214,-13,-8,7,227,404,3874,36,28,819,1847,1919,2161,2356,2192,1931,1976,2130
525741,27180,28584,27824,27824,112,370,-7,-2,-3,330,384,3930,48,37,820,1847,1919,2161,2356,2192,1931,1976,2130
526742,27248,28668,27889,27889,158,47,-9,-5,-9,324,382,3844,35,41,820,1860,1928,2166,2363,2189,1929,1975,2126
527743,27304,28744,27954,27954,320,132,-11,3,-6,260,372,4033,38,41,822,1860,1928,2166,2363,2189,1929,1975,2126
528744,27368,28804,28019,28019,221,338,-12,5,-2,232,415,3787,48,33,820,1860,1928,2166,2363,2189,1929,1975,2126
529745,27420,28840,28084,28084,387,674,-9,7,7,208,379,3939,38,27,817,1860,1928,2166,2363,2189,1929,1975,2126
530746,27488,28928,28149,28149,183,-4,-16,-6,21,63,351,3836,49,42,815,1860,1928,2166,2363,2189,1929,1975,2126
531747,27552,28976,28214,28214,236,515,-15,-1,16,-78,380,3901,37,44,822,1860,1928,2166,2363,2189,1929,1975,2126
532748,27624,29032,28279,28279,127,426,-12,-5,11,133,380,3866,38,37,818,1857,1927,2164,2361,2184,1926,1974,2123
533749,27688,29112,28344,28344,228,108,-12,-9,13,161,325,3917,46,42,820,1857,1927,2164,2361,2184,1926,1974,2123
534750,27744,29160,28409,28409,339,528,-6,-2,5,103,399,3932,40,31,821,1857,1927,2164,2361,2184,1926,1974,2123
535751,27800,29228,28474,28474,351,274,-15,-5,-11,-64,470,3811,39,32,818,1857,1927,2164,2361,2184,1926,1974,2123
536752,27868,29304,28539,28539,198,161,-15,-5,-14,-4,382,3971,36,44,819,1857,1927,2164,2361,2184,1926,1974,2123
537753,27924,29364,28604,28604,359,366,-13,-2,-17,205,401,3806,50,41,821,1849,1919,2154,2350,2183,1919,1967,2123
538754,27984,29416,28669,28669,315,482,-7,-10,-14,101,324,3844,49,30,819,1849,1919,2154,2350,2183,1919,1967,2123
539755,28056,29488,28734,28734,157,223,-5,-12,-3,287,335,3949,34,40,818,1849,1919,2154,2350,2183,1919,1967,2123
540756,28112,29552,28799,28799,368,324,-1,-13,9,190,351,3819,42,42,821,1849,1919,2154,2350,2183,1919,1967,2123
541757,28188,29620,28864,28864,105,270,1,3,17,280,289,3964,48,40,819,1849,1919,2154,2350,2183,1919,1967,2123
542758,28244,29692,28929,28929,366,211,9,11,23,339,362,3854,49,34,821,1849,1919,2154,2350,2183,1919,1967,2123
543759,28336,29748,28994,28994,-116,422,7,3,20,99,411,3831,34,37,819,1848,1915,2155,2351,2183,1926,1974,2123
544760,28392,29804,29059,29059,345,432,10,-2,9,161,388,3886,50,39,814,1848,1915,2155,2351,2183,1926,1974,2123
545761,28480,29876,29124,29124,-83,224,5,3,-6,149,469,3888,37,33,818,1848,1915,2155,2351,2183,1926,1974,2123
546762,28548,29944,29189,29189,163,270,-3,-4,-11,-42,467,3809,32,44,816,1848,1915,2155,2351,2183,1926,1974,2123
547763,28608,30000,29254,29254,270,431,-9,0,-15,32,446,3874,46,37,820,1848,1915,2155,2351,2183,1926,1974,2123
548764,28664,30092,29319,29319,331,-53,-8,-3,-16,-7,358,3854,45,41,818,1852,1913,2147,2358,2188,1929,1973,2125
549765,28728,30132,29384,29384,232,627,-10,-2,-16,33,434,3876,45,28,821,1852,1913,2147,2358,2188,1929,1973,2125
550766,28804,30204,29449,29449,69,219,-14,-14,-2,50,461,3839,33,40,817,1852,1913,2147,2358,2188,1929,1973,2125
551767,28856,30256,29514,29514,386,484,-14,2,-3,145,393,3949,40,28,821,1852,1913,2147,2358,2188,1929,1973,2125
552768,28916,30320,29579,29579,292,335,-15,-6,5,229,345,3781,32,37,818,1852,1913,2147,2358,2188,1929,1973,2125
553769,28976,30404,29644,29644,298,62,-9,-3,8,290,374,3923,31,42,819,1852,1913,2147,2358,2188,1929,1973,2125
554770,29048,30460,29709,29709,139,423,-10,1,7,203,321,3920,30,32,820,1853,1922,2164,2357,2190,1931,1977,2132
555771,29080,30520,29774,29774,681,378,-3,1,4,230,345,3821,42,40,820,1853,1922,2164,2357,2190,1931,1977,2132
556772,29144,30556,29839,29839,282,713,-7,-2,7,227,380,3878,44,35,816,1853,1922,2164,2357,2190,1931,1977,2132
557773,29228,30632,29904,29904,9,200,-5,0,-6,169,410,3948,37,28,816,1853,1922,2164,2357,2190,1931,1977,2132
558774,29288,30688,29969,29969,315,460,-6,-4,-2,30,331,3761,43,35,821,1853,1922,2164,2357,2190,1931,1977,2132
559775,29360,30744,30034,30034,157,471,-7,-4,0,-25,388,3942,29,39,818,1854,1922,2160,2355,2189,1930,1974,2125
560776,29420,30796,30099,30099,313,537,-12,-8,5,-71,412,3844,47,26,819,1854,1922,2160,2355,2189,1930,1974,2125
561777,29496,30860,30164,30164,100,388,-15,-9,12,190,372,3865,37,30,817,1854,1922,2160,2355,2189,1930,1974,2125
562778,29544,30920,30229,30229,471,443,-15,-12,14,228,373,3861,35,35,820,1854,1922,2160,2355,2189,1930,1974,2125
563779,29608,30964,30294,30294,273,669,-10,-8,5,154,453,3857,32,39,815,1854,1922,2160,2355,2189,1930,1974,2125
564780,29664,31048,30359,30359,384,145,-8,0,-6,224,437,3915,29,30,816,1854,1922,2160,2355,2189,1930,1974,2125
565781,29740,31100,30424,30424,120,561,-10,-4,-14,183,408,3864,36,30,819,1851,1920,2157,2353,2183,1924,1971,2120
566782,29796,31160,30489,30489,381,466,-13,-1,-10,329,373,3911,40,34,818,1851,1920,2157,2353,2183,1924,1971,2120
567783,29856,31232,30554,30554,339,308,-13,-6,-5,111,369,3838,28,34,817,1851,1920,2157,2353,2183,1924,1971,2120
568784,29928,31280,30619,30619,180,629,-13,3,-3,164,388,3937,36,36,819,1851,1920,2157,2353,2183,1924,1971,2120
569785,29984,31344,30684,30684,391,429,-18,-3,1,157,381,3868,33,40,817,1851,1920,2157,2353,2183,1924,1971,2120
570786,30024,31436,30749,30749,622,46,-10,-5,11,60,307,3859,31,40,818,1850,1917,2153,2351,2181,1925,1971,2119
571787,30104,31508,30814,30814,104,287,-5,0,5,159,377,3990,42,33,818,1850,1917,2153,2351,2181,1925,1971,2119
572788,30180,31576,30879,30879,141,334,-3,-6,1,38,318,3813,34,47,820,1850,1917,2153,2351,2181,1925,1971,2119
573789,30240,31632,30944,30944,347,494,-4,-6,7,174,372,3936,32,33,820,1850,1917,2153,2351,2181,1925,1971,2119
574790,30300,31708,31009,31009,354,230,-3,-7,4,108,443,3884,38,43,818,1850,1917,2153,2351,2181,1925,1971,2119
575791,30360,31784,31074,31074,360,217,-6,-2,1,150,410,3855,45,42,820,1850,1917,2153,2351,2181,1925,1971,2119
576792,30416,31860,31139,31139,421,203,-4,-3,4,119,376,3877,39,43,819,1851,1920,2158,2357,2183,1927,1976,2124
577793,30480,31916,31204,31204,322,463,-11,-8,9,150,419,3841,32,37,819,1851,1920,2158,2357,2183,1927,1976,2124
578794,30540,31984,31269,31269,379,310,-4,-1,3,103,369,3914,38,34,818,1851,1920,2158,2357,2183,1927,1976,2124
579795,30612,32044,31334,31334,221,416,-11,2,-1,137,415,3824,32,34,819,1851,1920,2158,2357,2183,1927,1976,2124
580796,30668,32108,31399,31399,432,367,-11,-2,-2,228,338,3858,32,43,817,1851,1920,2158,2357,2183,1927,1976,2124
581797,30716,32172,31464,31464,553,367,-7,5,-4,65,401,3958,48,35,818,1853,1920,2161,2358,2188,1924,1968,2128
582798,30768,32252,31529,31529,519,149,-7,-1,-9,118,366,3847,34,43,817,1853,1920,2161,2358,2188,1924,1968,2128
583799,30844,32316,31594,31594,206,350,-8,5,-10,266,419,3869,36,42,818,1853,1920,2161,2358,2188,1924,1968,2128
584800,30896,32352,31659,31659,522,735,-3,-5,-4,96,348,3897,51,34,820,1853,1920,2161,2358,2188,1924,1968,2128
585801,30984,32424,31724,31724,45,276,-6,2,-4,-1,398,3938,49,36,814,1853,1920,2161,2358,2188,1924,1968,2128
586802,31068,32492,31789,31789,72,322,-9,-6,5,-5,354,3724,39,34,821,1853,1920,2161,2358,2188,1924,1968,2128
587803,31120,32560,31854,31854,487,319,-4,-6,17,224,317,3970,37,39,821,1855,1925,2164,2360,2188,1931,1975,2128
588804,31212,32612,31919,31919,-45,534,-2,-8,17,255,337,3829,37,35,818,1855,1925,2164,2360,2188,1931,1975,2128
589805,31276,32680,31984,31984,307,330,-3,-18,17,159,392,3849,41,45,819,1855,1925,2164,2360,2188,1931,1975,2128
590806,31336,32748,32049,32049,363,326,-7,-6,11,183,404,3943,32,31,819,1855,1925,2164,2360,2188,1931,1975,2128
591807,31384,32812,32114,32114,534,377,-9,-1,-1,289,483,3867,40,36,819,1855,1925,2164,2360,2188,1931,1975,2128
592808,31472,32880,32179,32179,6,323,-14,-3,-10,246,501,3794,35,42,817,1849,1919,2157,2352,2185,1926,1972,2123
593809,31544,32948,32244,32244,198,319,-18,-5,-13,185,449,3860,46,47,821,1849,1919,2157,2352,2185,1926,1972,2123
594810,31612,33036,32309,32309,244,41,-19,-4,-12,-56,434,3920,50,43,820,1849,1919,2157,2352,2185,1926,1972,2123
595811,31668,33088,32374,32374,405,506,-18,0,-16,44,347,3906,49,46,821,1849,1919,2157,2352,2185,1926,1972,2123
596812,31736,33128,32439,32439,253,686,-13,2,-13,51,298,3873,35,35,817,1849,1919,2157,2352,2185,1926,1972,2123
597813,31808,33212,32504,32504,194,113,-13,-12,-2,37,329,3791,51,32,815,1849,1919,2157,2352,2185,1926,1972,2123
598814,31864,33284,32569,32569,405,255,-7,-7,5,167,283,3870,39,34,821,1848,1916,2151,2347,2185,1927,1971,2121
599815,31924,33344,32768,32768,525,573,-3,-9,11,95,331,3911,36,35,819,1848,1916,2151,2347,2185,1927,1971,2121
600816,31988,33404,32833,32833,477,579,3,-8,11,116,370,3806,37,41,816,1848,1916,2151,2347,2185,1927,1971,2121
601817,32068,33468,32898,32898,259,531,-3,-3,20,294,395,3878,39,35,815,1848,1916,2151,2347,2185,1927,1971,2121
602818,32152,33516,32963,32963,185,751,-1,-6,13,228,406,3871,39,33,818,1848,1916,2151,2347,2185,1927,1971,2121
603819,32220,33588,33028,33028,383,442,-4,1,12,90,415,3958,46,42,816,1847,1918,2156,2353,2183,1927,1972,2124
604820,32276,33664,33093,33093,544,378,-8,-9,5,285,438,3767,43,45,818,1847,1918,2156,2353,2183,1927,1972,2124
605821,32340,33744,33158,33158,445,310,-14,-1,-6,152,402,3911,36,38,817,1847,1918,2156,2353,2183,1927,1972,2124
606822,32424,33808,33223,33223,173,511,-6,1,-10,122,401,3881,46,38,818,1847,1918,2156,2353,2183,1927,1972,2124
607823,32504,33892,33288,33288,205,238,-9,-3,-3,185,432,3919,42,41,818,1847,1918,2156,2353,2183,1927,1972,2124
608824,32584,33968,33353,33353,186,324,-9,-13,1,-70,412,3914,38,38,820,1847,1918,2156,2353,2183,1927,1972,2124
609825,32660,34052,33418,33418,223,201,-12,-13,4,109,394,3797,38,44,820,1857,1924,2165,2363,2186,1929,1974,2126
610826,32724,34120,33483,33483,375,397,-17,-10,11,14,345,3923,51,49,821,1857,1924,2165,2363,2186,1929,1974,2126
611827,32788,34196,33548,33548,376,283,-8,2,11,106,377,3926,49,39,818,1857,1924,2165,2363,2186,1929,1974,2126
612828,32868,34272,33613,33613,158,269,-12,-2,2,215,396,3726,39,47,819,1857,1924,2165,2363,2186,1929,1974,2126
613829,32936,34328,33678,33678,305,530,-7,-5,-1,77,309,3976,47,45,820,1857,1924,2165,2363,2186,1929,1974,2126
614830,33016,34412,33743,33743,137,157,-4,-4,-15,411,428,3920,38,42,816,1857,1926,2164,2363,2190,1932,1976,2125
615831,33096,34468,33808,33808,119,518,-1,-3,-21,77,354,3862,52,36,821,1857,1926,2164,2363,2190,1932,1976,2125
616832,33180,34536,33873,33873,45,363,-1,-1,-16,97,359,3907,47,35,819,1857,1926,2164,2363,2190,1932,1976,2125
617833,33240,34608,33938,33938,353,305,-4,-3,-10,302,394,3892,34,36,821,1857,1926,2164,2363,2190,1932,1976,2125
618834,33320,34676,34003,34003,84,351,-5,-3,3,93,399,3864,33,42,819,1857,1926,2164,2363,2190,1932,1976,2125
619835,33384,34748,34068,34068,285,292,-15,-7,15,78,370,3810,33,49,820,1857,1926,2164,2363,2190,1932,1976,2125
620836,33464,34820,34133,34133,67,283,-11,1,18,258,455,3919,41,47,820,1853,1921,2158,2356,2184,1924,1975,2127
621837,33524,34892,34198,34198,324,274,-18,1,20,191,412,3848,44,46,821,1853,1921,2158,2356,2184,1924,1975,2127
622838,33588,34976,34263,34263,275,101,-16,-7,8,162,352,3923,37,47,819,1853,1921,2158,2356,2184,1924,1975,2127
623839,33636,35024,34328,34328,496,572,-9,1,-1,65,336,3838,36,32,821,1853,1921,2158,2356,2184,1924,1975,2127
624842,33700,35088,34393,34393,297,372,-12,-8,-3,185,409,3870,30,31,816,1853,1921,2158,2356,2184,1924,1975,2127
625841,33772,35160,34458,34458,190,264,-12,1,-13,13,318,3847,34,43,819,1850,1916,2152,2349,2186,1926,1970,2124
626842,33840,35216,34523,34523,236,475,-3,-5,-16,91,346,3926,36,46,820,1850,1916,2152,2349,2186,1926,1970,2124
627843,33900,35280,34588,34588,342,375,3,-8,-14,201,348,3795,48,45,818,1850,1916,2152,2349,2186,1926,1970,2124
628844,33968,35344,34653,34653,239,376,1,-7,-2,107,392,3854,45,41,819,1850,1916,2152,2349,2186,1926,1970,2124
629845,34040,35408,34718,34718,181,377,-4,-10,2,148,426,3992,36,36,819,1850,1916,2152,2349,2186,1926,1970,2124
630846,34088,35472,34783,34783,502,378,-6,-4,10,69,363,3820,50,35,820,1850,1916,2152,2349,2186,1926,1970,2124
631847,34164,35508,34848,34848,138,763,-5,-12,15,202,401,3852,38,40,816,1848,1917,2156,2353,2186,1929,1973,2125
632848,34228,35572,34913,34913,290,414,-8,-5,15,123,394,3866,39,42,816,1848,1917,2156,2353,2186,1929,1973,2125
633849,34296,35652,34978,34978,237,196,-13,-8,9,168,384,3919,32,39,819,1848,1917,2156,2353,2186,1929,1973,2125
634850,34384,35716,35043,35043,-41,397,-8,-9,-4,213,356,3834,35,33,820,1848,1917,2156,2353,2186,1929,1973,2125
635851,34436,35772,35108,35108,425,507,-11,-10,-12,68,355,3847,37,38,821,1848,1917,2156,2353,2186,1929,1973,2125
636852,34484,35836,35173,35173,497,408,0,0,-15,372,433,3886,48,44,817,1853,1922,2160,2357,2187,1929,1974,2123
637853,34544,35892,35238,35238,353,519,-11,-11,-5,49,354,3835,35,39,817,1853,1922,2160,2357,2187,1929,1974,2123
638854,34620,35964,35303,35303,139,311,-7,-5,-5,61,420,3921,34,36,817,1853,1922,2160,2357,2187,1929,1974,2123
639855,34708,36052,35368,35368,-39,82,-16,-5,9,87,306,3767,47,33,820,1853,1922,2160,2357,2187,1929,1974,2123
640856,34772,36104,35433,35433,263,547,-10,-11,20,162,386,3976,38,47,822,1853,1922,2160,2357,2187,1929,1974,2123
641857,34832,36168,35498,35498,319,399,-12,-5,20,189,455,3805,34,44,818,1853,1922,2160,2357,2187,1929,1974,2123
642858,34880,36252,35563,35563,490,125,-15,-3,16,-18,366,3859,45,36,818,1856,1925,2163,2360,2184,1927,1974,2125
643859,34960,36296,35628,35628,72,650,-13,1,9,302,365,3888,41,49,819,1856,1925,2163,2360,2184,1927,1974,2125
644860,35044,36356,35693,35693,0,456,-6,-6,-5,340,424,3862,47,35,818,1856,1925,2163,2360,2184,1927,1974,2125
645861,35092,36428,35758,35758,470,298,-4,4,-16,-39,353,3932,50,36,820,1856,1925,2163,2360,2184,1927,1974,2125
646862,35156,36500,35823,35823,272,289,-8,-3,-20,199,382,3805,32,35,818,1856,1925,2163,2360,2184,1927,1974,2125
647863,35236,36568,35888,35888,53,334,-8,2,-7,85,363,3941,37,38,820,1853,1922,2161,2355,2186,1926,1972,2128
648864,35296,36644,35953,35953,311,221,-9,-3,1,-114,400,3862,48,41,819,1853,1922,2161,2355,2186,1926,1972,2128
649865,35360,36712,36018,36018,262,317,-11,0,9,-171,331,3893,40,37,820,1853,1922,2161,2355,2186,1926,1972,2128
650866,35424,36768,36083,36083,263,477,-12,-3,9,-56,393,3878,35,44,820,1853,1922,2161,2355,2186,1926,1972,2128
651867,35480,36840,36148,36148,374,269,-14,-9,5,-2,340,3901,41,52,818,1853,1922,2161,2355,2186,1926,1972,2128
652868,35564,36920,36213,36213,2,150,-12,-8,0,85,385,3865,47,41,819,1853,1922,2161,2355,2186,1926,1972,2128
653869,35624,36980,36278,36278,308,407,-10,-9,-5,111,350,3918,36,48,822,1859,1945,2170,2356,2197,1920,1985,2160
654870,35696,37048,36343,36343,149,302,-1,-5,-16,239,423,3871,45,35,819,1859,1945,2170,2356,2197,1920,1985,2160
655871,35768,37112,36408,36408,141,353,-5,-11,-12,215,360,3951,47,51,820,1859,1945,2170,2356,2197,1920,1985,2160
656872,35840,37172,36473,36473,133,409,-9,-11,-13,145,400,3838,40,40,820,1859,1945,2170,2356,2197,1920,1985,2160
657873,35908,37256,36538,36538,180,86,-6,-5,-2,179,300,3896,31,49,820,1859,1945,2170,2356,2197,1920,1985,2160
658874,35964,37336,36603,36603,341,117,4,10,3,348,383,4068,36,49,821,1861,1967,2178,2332,2208,1911,1989,2179
659875,36024,37400,36668,36668,297,318,-3,1,10,109,372,3624,46,37,820,1861,1967,2178,2332,2208,1911,1989,2179
660876,36100,37476,36733,36733,83,155,2,2,13,240,410,4016,40,41,819,1861,1967,2178,2332,2208,1911,1989,2179
661877,36172,37532,36798,36798,126,415,-2,11,17,225,332,3895,35,45,821,1861,1967,2178,2332,2208,1911,1989,2179
662878,36228,37596,36863,36863,337,316,8,1,9,164,414,3952,37,48,820,1861,1967,2178,2332,2208,1911,1989,2179
663879,36296,37664,36928,36928,183,262,6,9,-3,110,390,3852,29,52,819,1861,1967,2178,2332,2208,1911,1989,2179
664880,36380,37736,36993,36993,-40,204,-1,-4,-10,149,414,3749,46,49,820,1854,1976,2168,2312,2219,1910,2000,2202
665881,36444,37800,37058,37058,212,304,-6,1,-13,183,379,3964,44,37,820,1854,1976,2168,2312,2219,1910,2000,2202
666882,36492,37872,37123,37123,433,195,-2,-5,-16,182,452,3919,36,40,820,1854,1976,2168,2312,2219,1910,2000,2202
667883,36556,37936,37188,37188,234,296,-2,-1,-10,138,432,3876,43,38,819,1854,1976,2168,2312,2219,1910,2000,2202
668884,36644,38012,37253,37253,-94,132,-6,-10,-5,154,407,3850,43,45,820,1854,1976,2168,2312,2219,1910,2000,2202
669885,36708,38100,37318,37318,208,-46,-3,-10,1,234,391,3879,42,47,817,1866,1997,2188,2331,2236,1920,2013,2217
670886,36776,38152,37383,37383,154,420,-7,-15,12,234,421,3813,31,47,821,1866,1997,2188,2331,2236,1920,2013,2217
671887,36824,38224,37448,37448,425,161,-7,-1,17,272,381,3928,28,48,820,1866,1997,2188,2331,2236,1920,2013,2217
672888,36892,38288,37513,37513,172,261,-11,2,19,233,374,3826,42,47,819,1866,1997,2188,2331,2236,1920,2013,2217
673889,36944,38372,37578,37578,388,-12,-5,0,8,268,384,3918,33,39,820,1866,1997,2188,2331,2236,1920,2013,2217
674894,37004,38436,37643,37643,295,239,-6,4,7,84,320,4018,46,49,820,1866,1997,2188,2331,2236,1920,2013,2217
675891,37064,38524,37708,37708,301,-90,4,5,-12,273,413,3844,45,38,820,1876,2004,2199,2343,2234,1922,2008,2206
676892,37132,38592,37773,37773,197,157,-3,2,-12,36,334,3902,35,36,821,1876,2004,2199,2343,2234,1922,2008,2206
677893,37192,38648,37838,37838,303,318,3,12,-13,290,374,3981,44,41,821,1876,2004,2199,2343,2234,1922,2008,2206
678894,37260,38724,37903,37903,200,53,1,15,-4,65,417,3802,41,36,820,1876,2004,2199,2343,2234,1922,2008,2206
679895,37332,38788,37968,37968,142,205,-6,5,4,-57,418,3870,41,45,822,1876,2004,2199,2343,2234,1922,2008,2206
680896,37384,38848,38033,38033,408,261,-2,7,10,-75,371,3960,28,45,821,1869,1999,2193,2335,2224,1909,2001,2206
681897,37456,38908,38098,38098,149,266,-8,9,18,-45,447,3840,44,42,819,1869,1999,2193,2335,2224,1909,2001,2206
682898,37508,38980,38163,38163,416,107,-17,4,17,-15,406,3730,44,36,818,1869,1999,2193,2335,2224,1909,2001,2206
683899,37576,39040,38228,38228,212,263,-17,-2,9,105,380,4010,46,48,820,1869,1999,2193,2335,2224,1909,2001,2206
684900,37644,39112,38293,38293,209,105,-9,5,0,235,392,3829,32,41,820,1869,1999,2193,2335,2224,1909,2001,2206
685901,37692,39172,38358,38358,479,260,-9,7,-3,275,404,3859,48,38,821,1869,2011,2192,2320,2223,1898,2004,2221
686902,37768,39220,38423,38423,117,431,-9,4,-14,214,369,3983,35,48,819,1869,2011,2192,2320,2223,1898,2004,2221
687903,37840,39284,38488,38488,159,232,-8,1,-16,242,396,3813,47,41,820,1869,2011,2192,2320,2223,1898,2004,2221
688904,37892,39344,38553,38553,424,287,-13,2,-9,282,360,3904,29,32,820,1869,2011,2192,2320,2223,1898,2004,2221
689905,37980,39412,38618,38618,-54,183,-8,0,-7,174,312,3963,45,48,819,1869,2011,2192,2320,2223,1898,2004,2221
690906,38040,39472,38683,38683,303,289,-6,-1,-2,129,388,3826,34,35,821,1869,2011,2192,2320,2223,1898,2004,2221
691907,38096,39540,38748,38748,364,185,-3,1,7,145,308,3873,39,44,820,1869,2016,2193,2319,2230,1905,2007,2223
692908,38164,39608,38813,38813,211,181,-3,-6,6,135,364,3910,41,41,820,1869,2016,2193,2319,2230,1905,2007,2223
693909,38240,39672,38878,38878,97,232,3,-3,-1,186,403,3881,36,50,821,1869,2016,2193,2319,2230,1905,2007,2223
694910,38308,39728,38943,38943,195,342,-3,-6,5,216,353,3791,47,42,821,1869,2016,2193,2319,2230,1905,2007,2223
695911,38364,39800,39008,39008,356,134,0,-5,-1,67,441,3994,31,46,820,1869,2016,2193,2319,2230,1905,2007,2223
696912,38420,39872,39073,39073,367,125,-5,-7,0,235,456,3762,37,34,820,1877,2018,2203,2337,2241,1919,2016,2224
697913,38508,39944,39138,39138,-61,117,-8,-7,-3,182,422,3918,46,34,820,1877,2018,2203,2337,2241,1919,2016,2224
698914,38572,40008,39203,39203,241,217,-11,-9,-1,-3,372,3884,47,35,821,1877,2018,2203,2337,2241,1919,2016,2224
699915,38624,40060,39268,39268,407,383,-15,-11,5,86,401,3890,44,35,819,1877,2018,2203,2337,2241,1919,2016,2224
700916,38688,40124,39333,39333,258,234,-11,-7,4,130,331,3866,35,42,818,1877,2018,2203,2337,2241,1919,2016,2224
701917,38748,40188,39398,39398,314,234,-7,-13,6,247,355,3970,48,48,820,1877,2018,2203,2337,2241,1919,2016,2224
702918,38816,40244,39463,39463,211,345,-4,-10,0,198,348,3761,40,49,820,1879,2014,2207,2343,2241,1919,1999,2214
703919,38876,40316,39528,39528,317,137,-9,-6,0,65,314,3974,35,39,819,1879,2014,2207,2343,2241,1919,1999,2214
704920,38960,40380,39593,39593,-6,237,2,2,-2,283,385,3875,36,46,820,1879,2014,2207,2343,2241,1919,1999,2214
705921,39008,40444,39658,39658,465,238,-7,-7,-1,72,356,3804,31,38,822,1879,2014,2207,2343,2241,1919,1999,2214
706922,39072,40512,39723,39723,267,184,2,2,-2,106,377,3946,37,49,819,1879,2014,2207,2343,2241,1919,1999,2214
707923,39132,40580,39788,39788,323,180,-4,-1,1,50,402,3875,36,40,821,1873,2008,2197,2336,2227,1910,2002,2208
708924,39212,40636,39853,39853,55,341,0,3,5,73,402,3834,42,40,820,1873,2008,2197,2336,2227,1910,2002,2208
709925,39272,40708,39918,39918,311,132,0,0,0,129,409,3900,47,45,821,1873,2008,2197,2336,2227,1910,2002,2208
710926,39340,40772,39983,39983,208,233,-1,1,-1,4,352,3895,36,35,820,1873,2008,2197,2336,2227,1910,2002,2208
711927,39404,40836,40048,40048,260,234,-4,3,-2,181,424,3848,46,48,820,1873,2008,2197,2336,2227,1910,2002,2208
712928,39464,40896,40113,40113,316,290,-5,-4,-2,62,398,3876,34,39,820,1873,2008,2197,2336,2227,1910,2002,2208
713929,39548,40960,40178,40178,-7,241,-11,-1,2,117,398,3874,40,46,820,1864,2004,2189,2322,2222,1900,1998,2210
714930,39608,41048,40243,40243,299,-88,-7,0,-1,253,401,3868,38,41,821,1864,2004,2189,2322,2222,1900,1998,2210
715931,39656,41108,40308,40308,470,268,-14,-2,2,225,396,3855,43,36,821,1864,2004,2189,2322,2222,1900,1998,2210
716932,39744,41148,40373,40373,-58,548,-10,-4,1,245,388,3888,48,45,817,1864,2004,2189,2322,2222,1900,1998,2210
717933,39800,41212,40438,40438,353,249,-8,-2,1,305,415,3817,33,47,819,1864,2004,2189,2322,2222,1900,1998,2210
718934,39864,41280,40503,40503,255,195,-10,2,3,455,371,3955,33,36,819,1872,2013,2196,2325,2226,1903,2006,2219
719935,39932,41344,40568,40568,202,246,-8,8,-2,270,379,3858,41,49,820,1872,2013,2196,2325,2226,1903,2006,2219
720936,39988,41392,40633,40633,363,467,-7,0,-13,56,383,3837,33,38,821,1872,2013,2196,2325,2226,1903,2006,2219
721937,40064,41468,40698,40698,99,103,-7,6,-7,61,381,3944,48,42,818,1872,2013,2196,2325,2226,1903,2006,2219
722938,40124,41528,40763,40763,306,309,-9,4,-8,138,404,3877,39,44,821,1872,2013,2196,2325,2226,1903,2006,2219
723939,40200,41592,40828,40828,93,260,-9,0,-14,32,368,3870,36,46,820,1872,2013,2196,2325,2226,1903,2006,2219
724940,40268,41676,40893,40893,189,-14,-10,-12,-13,-25,406,3867,41,42,821,1881,2021,2206,2339,2236,1914,2012,2223
725941,40344,41748,40958,40958,76,127,-10,-12,-6,-192,328,3945,49,49,822,1881,2021,2206,2339,2236,1914,2012,2223
726942,40416,41812,41023,41023,117,228,-6,-7,-1,50,352,3911,48,45,822,1881,2021,2206,2339,2236,1914,2012,2223
727943,40468,41872,41088,41088,384,283,-9,-12,2,-14,407,3812,30,46,821,1881,2021,2206,2339,2236,1914,2012,2223
728944,40532,41932,41153,41153,236,290,-5,-3,0,-18,328,3980,43,48,819,1881,2021,2206,2339,2236,1914,2012,2223
729945,40608,42000,41218,41218,72,186,-1,-7,-5,303,397,3816,31,42,820,1888,2029,2217,2346,2244,1915,2015,2236
730946,40672,42072,41283,41283,223,127,0,-10,-10,266,342,3928,31,42,821,1888,2029,2217,2346,2244,1915,2015,2236
731947,40740,42128,41348,41348,171,337,0,-5,-8,36,368,3943,47,48,821,1888,2029,2217,2346,2244,1915,2015,2236
732948,40808,42180,41413,41413,167,403,-3,2,-7,174,423,3831,44,41,820,1888,2029,2217,2346,2244,1915,2015,2236
733949,40880,42260,41478,41478,108,35,-6,3,-3,275,401,3858,47,39,817,1888,2029,2217,2346,2244,1915,2015,2236
734950,40932,42332,41543,41543,374,125,-9,2,-2,111,438,3928,33,37,821,1888,2029,2217,2346,2244,1915,2015,2236
735951,41004,42400,41608,41608,116,172,-12,-4,-4,28,405,3895,30,45,820,1895,2046,2224,2339,2242,1900,2010,2243
736952,41064,42480,41673,41673,273,3,-12,-4,-4,129,342,3876,30,46,821,1895,2046,2224,2339,2242,1900,2010,2243
737953,41132,42588,41738,41738,169,-400,-5,2,-6,145,328,3960,33,38,821,1895,2046,2224,2339,2242,1900,2010,2243
738954,41180,42724,41803,41803,440,-837,-1,-2,-5,165,363,3856,46,39,820,1895,2046,2224,2339,2242,1900,2010,2243
739955,41248,42780,41868,41868,186,174,3,-3,-6,24,383,3865,46,37,813,1895,2046,2224,2339,2242,1900,2010,2243
740956,41304,42840,41933,41933,348,129,0,6,-13,-142,371,4000,31,32,820,1900,2065,2231,2330,2246,1891,2017,2272
741957,41372,42896,41998,41998,195,190,-4,10,0,392,426,3694,33,39,820,1900,2065,2231,2330,2246,1891,2017,2272
742958,41444,42920,42063,42063,136,640,-3,9,-4,483,435,3918,50,32,821,1900,2065,2231,2330,2246,1891,2017,2272
743959,41508,42960,42128,42128,237,470,-7,0,1,286,379,3882,37,45,818,1900,2065,2231,2330,2246,1891,2017,2272
744960,41576,42984,42193,42193,185,720,-9,7,12,504,439,3817,33,42,818,1900,2065,2231,2330,2246,1891,2017,2272
745961,41656,43044,42258,42258,16,276,-9,8,22,193,380,3905,46,38,817,1900,2065,2231,2330,2246,1891,2017,2272
746962,41716,43108,42323,42323,272,226,-8,19,9,360,407,3950,47,50,821,1912,2096,2244,2329,2260,1894,2032,2296
747963,41792,43196,42388,42388,59,-102,-5,22,-3,231,401,3740,47,38,821,1912,2096,2244,2329,2260,1894,2032,2296
748964,41856,43264,42453,42453,210,145,-9,8,-13,-45,385,3800,39,37,822,1912,2096,2244,2329,2260,1894,2032,2296
749965,41924,43340,42518,42518,158,31,-4,3,-32,-149,375,3924,34,50,821,1912,2096,2244,2329,2260,1894,2032,2296
750966,42024,43388,42583,42583,-285,401,-4,-5,-32,-310,388,3948,44,45,820,1912,2096,2244,2329,2260,1894,2032,2296
751967,42080,43436,42648,42648,276,422,-6,-24,-21,-291,352,3775,36,42,818,1922,2119,2264,2337,2277,1895,2037,2307
752968,42144,43516,42713,42713,177,3,-4,-31,-12,-253,324,4019,31,49,819,1922,2119,2264,2337,2277,1895,2037,2307
753969,42220,43568,42778,42778,15,368,-4,-36,3,-294,447,3805,41,37,822,1922,2119,2264,2337,2277,1895,2037,2307
754970,42272,43628,42843,42843,331,274,-10,-40,13,-465,357,3877,34,41,821,1922,2119,2264,2337,2277,1895,2037,2307
755971,42348,43696,42908,42908,17,171,-9,-44,15,-53,340,3931,40,37,820,1922,2119,2264,2337,2277,1895,2037,2307
756972,42416,43788,42973,42973,113,-163,-6,-44,6,209,376,3832,43,51,822,1922,2119,2264,2337,2277,1895,2037,2307
757973,42488,43852,43038,43038,55,188,-5,-53,-7,122,362,3911,34,41,822,1911,2120,2261,2320,2274,1881,2025,2300
758974,42556,43940,43103,43103,102,-140,-6,-52,-13,228,355,3877,42,43,822,1911,2120,2261,2320,2274,1881,2025,2300
759975,42612,44020,43168,43168,263,-60,-4,-54,-14,301,377,3906,40,50,821,1911,2120,2261,2320,2274,1881,2025,2300
760976,42664,44076,43233,43233,329,251,-6,-56,-21,152,415,3846,44,40,821,1911,2120,2261,2320,2274,1881,2025,2300
761977,42744,44140,43298,43298,-39,153,-10,-55,-20,112,360,3904,46,41,820,1911,2120,2261,2320,2274,1881,2025,2300
762978,42808,44212,43363,43363,162,43,-7,-47,-13,243,358,3938,32,45,822,1881,2104,2239,2287,2271,1867,2018,2303
763979,42880,44280,43428,43428,54,89,-9,-49,-11,195,360,3895,45,38,822,1881,2104,2239,2287,2271,1867,2018,2303
764980,42924,44352,43493,43493,430,31,-4,-53,-3,94,374,3880,35,38,822,1881,2104,2239,2287,2271,1867,2018,2303
765981,43000,44400,43558,43558,17,351,-6,-52,1,241,371,3929,32,36,821,1881,2104,2239,2287,2271,1867,2018,2303
766982,43064,44456,43623,43623,168,262,-1,-46,4,91,399,3898,37,44,821,1881,2104,2239,2287,2271,1867,2018,2303
767983,43148,44512,43688,43688,-105,273,-10,-45,6,288,428,3935,47,40,819,1881,2104,2239,2287,2271,1867,2018,2303
768984,43224,44576,43753,43753,-18,173,-16,-45,6,554,445,3747,33,36,817,1861,2106,2233,2273,2281,1868,2029,2320
769985,43280,44636,43818,43818,243,229,-19,-49,3,274,421,3857,45,34,820,1861,2106,2233,2273,2281,1868,2029,2320
770986,43348,44704,43883,43883,90,125,-13,-36,-2,341,393,3928,41,49,821,1861,2106,2233,2273,2281,1868,2029,2320
771987,43408,44748,43948,43948,196,451,-10,-36,-2,415,419,3784,33,35,822,1861,2106,2233,2273,2281,1868,2029,2320
772988,43472,44816,44013,44013,147,146,-17,-34,-1,225,408,3941,37,46,820,1861,2106,2233,2273,2281,1868,2029,2320
773989,43544,44884,44078,44078,39,143,-14,-26,-3,302,369,3858,42,34,821,1858,2120,2245,2284,2303,1880,2042,2331
774990,43608,44972,44143,44143,141,-135,-8,-31,2,239,322,3883,43,46,822,1858,2120,2245,2284,2303,1880,2042,2331
775991,43664,45040,44208,44208,252,110,-6,-32,1,189,369,3983,43,42,821,1858,2120,2245,2284,2303,1880,2042,2331
776992,43720,45108,44273,44273,263,106,-1,-27,6,98,352,3867,46,36,821,1858,2120,2245,2284,2303,1880,2042,2331
777993,43784,45180,44338,44338,164,48,-2,-37,5,93,412,3857,40,38,821,1858,2120,2245,2284,2303,1880,2042,2331
778994,43852,45228,44403,44403,111,367,-8,-31,1,1,432,3941,41,42,822,1858,2120,2245,2284,2303,1880,2042,2331
779995,43928,45300,44468,44468,-2,59,-14,-31,0,302,462,3826,38,45,821,1865,2124,2252,2290,2294,1875,2035,2316
780996,44000,45372,44533,44533,39,50,-17,-24,0,571,444,3767,49,43,822,1865,2124,2252,2290,2294,1875,2035,2316
781997,44068,45440,44598,44598,85,96,-18,-25,0,267,418,4004,45,36,823,1865,2124,2252,2290,2294,1875,2035,2316
782998,44128,45520,44663,44663,192,-73,-21,-19,2,72,427,3821,40,34,822,1865,2124,2252,2290,2294,1875,2035,2316
783999,44196,45584,44728,44728,89,129,-22,-23,4,187,413,3833,33,45,822,1865,2124,2252,2290,2294,1875,2035,2316
785000,44248,45640,44793,44793,305,239,-17,-10,5,220,373,3981,36,35,819,1854,2107,2235,2273,2273,1857,2015,2293
786001,44328,45704,44858,44858,-64,140,-22,-17,8,164,402,3808,46,35,820,1854,2107,2235,2273,2273,1857,2015,2293
787002,44400,45768,44923,44923,28,141,-18,-18,1,-53,344,3959,40,37,821,1854,2107,2235,2273,2273,1857,2015,2293
788003,44480,45808,44988,44988,-90,471,-18,-20,4,-11,296,3907,35,36,822,1854,2107,2235,2273,2273,1857,2015,2293
789004,44536,45860,45053,45053,222,336,-12,-23,9,251,284,3845,35,46,818,1854,2107,2235,2273,2273,1857,2015,2293
790005,44596,45924,45118,45118,178,188,-17,-26,7,67,392,3973,33,49,819,1854,2107,2235,2273,2273,1857,2015,2293
791006,44672,45968,45183,45183,-36,462,-14,-20,3,-178,339,3986,41,42,821,1835,2091,2219,2251,2265,1847,2011,2291
792007,44728,46032,45248,45248,225,213,-9,-18,8,142,329,3851,29,49,820,1835,2091,2219,2251,2265,1847,2011,2291
793008,44792,46084,45313,45313,126,379,-9,-34,4,48,406,3856,40,48,821,1835,2091,2219,2251,2265,1847,2011,2291
794009,44868,46168,45378,45378,-36,-44,-9,-23,-6,49,407,3898,43,50,820,1835,2091,2219,2251,2265,1847,2011,2291
795010,44928,46236,45443,45443,170,151,-9,-26,-9,248,379,3851,45,50,822,1835,2091,2219,2251,2265,1847,2011,2291
796011,44984,46304,45508,45508,231,148,-3,-34,-7,255,380,3911,47,38,821,1831,2090,2214,2252,2274,1858,2023,2307
797012,45044,46376,45573,45573,187,89,-5,-31,-10,180,444,3884,33,36,821,1831,2090,2214,2252,2274,1858,2023,2307
798013,45104,46444,45638,45638,193,135,-11,-27,-12,129,442,3833,45,34,822,1831,2090,2214,2252,2274,1858,2023,2307
799014,45176,46516,45703,45703,36,76,-12,-23,-5,393,390,3966,34,44,821,1831,2090,2214,2252,2274,1858,2023,2307
800015,45232,46576,45768,45768,247,232,-12,-20,-4,505,390,3861,30,41,822,1831,2090,2214,2252,2274,1858,2023,2307
801016,45304,46628,45833,45833,38,347,-14,-26,-2,360,385,3801,37,47,821,1831,2090,2214,2252,2274,1858,2023,2307
802017,45356,46692,45898,45898,304,198,-14,-14,-1,332,420,3998,46,34,819,1848,2104,2234,2278,2287,1876,2034,2312
803018,45396,46764,45963,45963,485,90,-12,-13,3,157,363,3949,29,35,820,1848,2104,2234,2278,2287,1876,2034,2312
804019,45468,46828,46028,46028,77,190,-11,-17,1,165,398,3895,51,50,819,1848,2104,2234,2278,2287,1876,2034,2312
805020,45540,46892,46093,46093,69,191,-7,-6,-2,-49,325,3778,35,41,821,1848,2104,2234,2278,2287,1876,2034,2312
806021,45600,46956,46158,46158,225,192,-6,-17,4,43,309,3923,33,36,822,1848,2104,2234,2278,2287,1876,2034,2312
807022,45684,47012,46223,46223,-99,303,-1,-20,-3,232,385,3890,48,36,821,1856,2107,2249,2292,2291,1876,2023,2297
808023,45740,47076,46288,46288,262,204,-1,-31,-3,-8,334,3863,42,37,818,1856,2107,2249,2292,2291,1876,2023,2297
809024,45852,47140,46353,46353,-494,205,2,-26,-7,46,393,3976,32,44,819,1856,2107,2249,2292,2291,1876,2023,2297
810025,45904,47228,46418,46418,272,-123,-4,-25,-4,66,392,3874,38,45,808,1856,2107,2249,2292,2291,1876,2023,2297
811026,45964,47296,46483,46483,178,122,-3,-23,-14,268,427,3884,31,39,821,1856,2107,2249,2292,2291,1876,2023,2297
812027,46036,47372,46548,46548,20,9,-9,-23,-14,123,407,3818,49,36,821,1856,2107,2249,2292,2291,1876,2023,2297
813028,46120,47448,46613,46613,-154,-5,-10,-11,-12,113,397,4001,49,48,822,1852,2094,2242,2282,2272,1860,2007,2284
814029,46180,47504,46678,46678,153,255,-10,-6,-11,288,338,3858,37,49,817,1852,2094,2242,2282,2272,1860,2007,2284
815030,46244,47572,46743,46743,105,102,-12,-14,-13,500,412,3834,45,42,816,1852,2094,2242,2282,2272,1860,2007,2284
816031,46308,47636,46808,46808,106,153,-15,-5,0,258,401,3788,29,36,821,1852,2094,2242,2282,2272,1860,2007,2284
817032,46380,47708,46873,46873,-3,43,-20,2,-2,233,403,3980,40,34,821,1852,2094,2242,2282,2272,1860,2007,2284
818033,46436,47784,46938,46938,208,-20,-14,12,-1,101,349,3925,45,33,822,1860,2084,2218,2278,2264,1853,2009,2295
819034,46492,47840,47003,47003,220,241,-9,15,-2,526,402,3836,36,34,821,1860,2084,2218,2278,2264,1853,2009,2295
820035,46568,47900,47068,47068,-43,196,-13,16,-4,11,441,3936,47,38,821,1860,2084,2218,2278,2264,1853,2009,2295
821036,46636,47952,47133,47133,53,312,-13,10,-10,-181,403,3907,40,48,821,1860,2084,2218,2278,2264,1853,2009,2295
822037,46696,48020,47198,47198,159,108,-13,10,-7,254,374,3899,43,36,822,1860,2084,2218,2278,2264,1853,2009,2295
823038,46748,48108,47263,47263,275,-170,-9,1,-5,200,338,3892,45,49,821,1860,2084,2218,2278,2264,1853,2009,2295
824039,46824,48172,47328,47328,-37,130,-4,-1,-9,-94,336,3920,28,36,821,1873,2124,2256,2287,2282,1864,2023,2315
825040,46892,48232,47393,47393,59,186,-2,0,-8,-138,355,3859,38,46,821,1873,2124,2256,2287,2282,1864,2023,2315
826041,46936,48284,47458,47458,385,302,-4,-5,-13,116,433,3878,31,45,822,1873,2124,2256,2287,2282,1864,2023,2315
827042,47008,48340,47523,47523,26,262,-4,-1,-10,0,341,3873,36,47,820,1873,2124,2256,2287,2282,1864,2023,2315
828043,47056,48368,47588,47588,347,657,-5,-13,-10,462,368,3840,31,49,820,1873,2124,2256,2287,2282,1864,2023,2315
829044,47136,48440,47653,47653,-70,99,-3,-8,-5,152,400,3920,33,40,819,1888,2140,2272,2301,2289,1875,2031,2323
830045,47204,48512,47718,47718,76,89,-7,-1,-3,75,382,3848,47,41,819,1888,2140,2272,2301,2289,1875,2031,2323
831046,47260,48588,47783,47783,237,26,-1,-5,-8,185,339,3936,44,40,821,1888,2140,2272,2301,2289,1875,2031,2323
832047,47308,48664,47848,47848,358,12,-2,-1,-4,150,414,3863,29,51,822,1888,2140,2272,2301,2289,1875,2031,2323
833048,47372,48756,47913,47913,159,-222,5,-3,-6,-83,379,3880,37,50,821,1888,2140,2272,2301,2289,1875,2031,2323
834049,47428,48812,47978,47978,270,239,-2,-12,-1,-33,363,3947,40,35,821,1888,2140,2272,2301,2289,1875,2031,2323
835050,47484,48852,48043,48043,282,470,3,-16,-5,-124,331,3780,31,47,820,1899,2150,2287,2315,2296,1875,2026,2328
836051,47568,48940,48108,48108,-91,-159,2,-11,-9,175,316,3998,37,39,817,1899,2150,2287,2315,2296,1875,2026,2328
837052,47624,49000,48173,48173,270,197,5,-10,-10,226,356,3710,34,39,817,1899,2150,2287,2315,2296,1875,2026,2328
838053,47688,49068,48238,48238,171,93,2,-5,-9,87,415,4060,48,52,819,1899,2150,2287,2315,2296,1875,2026,2328
839054,47752,49128,48303,48303,173,198,-9,-6,-6,386,395,3780,33,36,821,1899,2150,2287,2315,2296,1875,2026,2328
840055,47832,49200,48368,48368,-45,40,-6,-1,3,212,429,3933,34,45,821,1900,2158,2289,2305,2296,1866,2026,2331
841056,47908,49264,48433,48433,-9,141,-5,-4,4,40,417,3808,34,41,822,1900,2158,2289,2305,2296,1866,2026,2331
842057,47972,49348,48498,48498,143,-132,-9,-3,2,62,390,3932,31,38,823,1900,2158,2289,2305,2296,1866,2026,2331
843058,48036,49412,48563,48563,144,118,-6,-1,2,74,326,3834,45,33,822,1900,2158,2289,2305,2296,1866,2026,2331
844059,48112,49484,48628,48628,-19,10,-10,-14,2,85,408,3874,34,37,822,1900,2158,2289,2305,2296,1866,2026,2331
845060,48152,49564,48693,48693,462,-109,-7,-13,1,7,343,3846,32,48,822,1900,2158,2289,2305,2296,1866,2026,2331
846061,48224,49632,48758,48758,53,37,-7,-10,-1,103,411,3872,49,40,821,1891,2159,2284,2291,2296,1859,2030,2345
847062,48300,49716,48823,48823,-10,-187,-3,-17,-1,121,393,3869,30,31,821,1891,2159,2284,2291,2296,1859,2030,2345
848063,48376,49800,48888,48888,-23,-210,-6,-10,-3,94,448,3890,37,30,822,1891,2159,2284,2291,2296,1859,2030,2345
849064,48448,49860,48953,48953,19,95,-11,-10,-6,232,377,3920,45,29,822,1891,2159,2284,2291,2296,1859,2030,2345
850067,48484,49928,49152,49152,668,155,-14,-8,-4,405,460,3918,44,39,822,1891,2159,2284,2291,2296,1859,2030,2345
851066,48548,49972,49217,49217,319,481,-17,-11,1,126,419,3694,39,35,820,1892,2168,2281,2287,2306,1862,2039,2359
852067,48616,50028,49282,49282,265,341,-13,-8,-2,227,416,3929,40,33,818,1892,2168,2281,2287,2306,1862,2039,2359
853068,48696,50080,49347,49347,97,407,-14,-2,4,295,324,3982,42,42,816,1892,2168,2281,2287,2306,1862,2039,2359
854069,48768,50164,49412,49412,190,-16,-13,-1,7,258,331,3799,42,43,819,1892,2168,2281,2287,2306,1862,2039,2359
855070,48840,50228,49477,49477,181,234,-7,-1,3,323,336,3976,50,33,819,1892,2168,2281,2287,2306,1862,2039,2359
856071,48896,50288,49542,49542,392,290,-9,-3,3,87,382,3888,35,46,822,1892,2168,2281,2287,2306,1862,2039,2359
857072,48988,50344,49607,49607,-91,351,-5,3,1,-13,418,3838,47,42,821,1897,2185,2296,2297,2323,1870,2052,2381
858073,49052,50428,49672,49672,261,-22,-6,-10,0,-109,349,3864,35,37,818,1897,2185,2296,2297,2323,1870,2052,2381
859074,49112,50476,49737,49737,317,447,-5,-15,3,-95,377,3927,37,41,818,1897,2185,2296,2297,2323,1870,2052,2381
860075,49192,50548,49802,49802,49,139,-6,-21,5,-20,399,3744,47,37,822,1897,2185,2296,2297,2323,1870,2052,2381
861076,49280,50628,49867,49867,-79,21,-7,-18,0,-119,420,3984,40,40,818,1897,2185,2296,2297,2323,1870,2052,2381
862077,49364,50680,49932,49932,-51,385,-5,-26,-5,-142,378,3849,46,47,822,1906,2205,2307,2299,2328,1866,2053,2390
863078,49424,50768,49997,49997,255,-93,-11,-33,-7,292,394,3866,36,44,820,1906,2205,2307,2299,2328,1866,2053,2390
864079,49472,50848,50062,50062,426,-11,-4,-18,-11,156,358,3918,44,42,821,1906,2205,2307,2299,2328,1866,2053,2390
865080,49548,50928,50127,50127,62,-30,-8,-32,-9,48,393,3816,38,36,821,1906,2205,2307,2299,2328,1866,2053,2390
866081,49644,50988,50192,50192,-226,226,-7,-31,-10,120,379,3955,42,49,820,1906,2205,2307,2299,2328,1866,2053,2390
867082,49680,51044,50257,50257,561,287,-6,-26,-5,300,345,3883,42,45,823,1906,2205,2307,2299,2328,1866,2053,2390
868083,49760,51116,50322,50322,-7,78,-6,-20,-4,302,366,3858,49,38,805,1901,2211,2306,2287,2317,1847,2044,2384
869084,49832,51180,50387,50387,84,178,-6,-31,-4,124,360,3881,48,35,821,1901,2211,2306,2287,2317,1847,2044,2384
870085,49908,51244,50452,50452,21,180,-5,-22,0,274,390,3957,33,44,820,1901,2211,2306,2287,2317,1847,2044,2384
871086,49972,51284,50517,50517,172,510,-7,-25,1,205,390,3846,34,46,820,1901,2211,2306,2287,2317,1847,2044,2384
872087,50028,51360,50582,50582,284,46,-3,-27,-4,44,377,3884,31,35,822,1901,2211,2306,2287,2317,1847,2044,2384
873088,50108,51436,50647,50647,-35,32,-2,-25,0,41,368,3890,49,47,818,1889,2206,2297,2270,2317,1839,2039,2380
874089,50164,51496,50712,50712,276,238,-2,-32,-2,-127,365,3867,44,49,821,1889,2206,2297,2270,2317,1839,2039,2380
875090,50224,51604,50777,50777,233,-415,3,-40,-6,119,352,3901,41,49,823,1889,2206,2297,2270,2317,1839,2039,2380
876091,50304,51676,50842,50842,-35,26,2,-45,-10,-17,405,3892,49,43,820,1889,2206,2297,2270,2317,1839,2039,2380
877092,50356,51760,50907,50907,331,-147,2,-46,-16,-30,417,3837,46,44,819,1889,2206,2297,2270,2317,1839,2039,2380
878093,50432,51848,50972,50972,18,-226,1,-46,-18,104,369,3910,33,45,822,1889,2206,2297,2270,2317,1839,2039,2380
879094,50492,51908,51037,51037,224,130,-1,-46,-21,317,381,3789,40,44,820,1878,2201,2287,2264,2322,1841,2041,2387
880095,50544,51976,51102,51102,340,27,6,-42,-19,326,449,3853,36,38,821,1878,2201,2287,2264,2322,1841,2041,2387
881096,50636,52044,51167,51167,-192,22,-7,-43,-15,227,417,3782,49,46,821,1878,2201,2287,2264,2322,1841,2041,2387
882097,50708,52096,51232,51232,49,238,-9,-35,-9,349,497,3914,52,40,821,1878,2201,2287,2264,2322,1841,2041,2387
883098,50760,52160,51297,51297,315,89,-6,-33,0,445,380,3843,34,32,808,1878,2201,2287,2264,2322,1841,2041,2387
884099,50840,52216,51362,51362,-53,199,-6,-36,5,478,389,3895,42,33,821,1876,2204,2292,2260,2334,1819,2013,2391
885100,50904,52268,51427,51427,148,265,-2,-25,9,77,387,3833,36,42,821,1876,2204,2292,2260,2334,1819,2013,2391
886101,50980,52336,51492,51492,-14,61,-3,-26,10,-6,382,3891,45,33,822,1876,2204,2292,2260,2334,1819,2013,2391
887102,51040,52408,51557,51557,192,2,-4,-30,7,37,351,3942,45,41,818,1876,2204,2292,2260,2334,1819,2013,2391
888103,51124,52448,51622,51622,-132,432,-2,-34,6,-14,336,3796,39,45,821,1876,2204,2292,2260,2334,1819,2013,2391
889104,51180,52492,51687,51687,229,408,1,-37,4,-69,390,3909,31,36,822,1876,2204,2292,2260,2334,1819,2013,2391
890105,51244,52556,51752,51752,131,159,1,-40,3,-102,402,3887,38,42,812,1864,2198,2288,2256,2340,1846,2044,2390
891106,51312,52608,51817,51817,78,324,-2,-40,3,63,430,3930,38,35,819,1864,2198,2288,2256,2340,1846,2044,2390
892107,51368,52688,51882,51882,239,-44,-9,-41,-8,373,420,3690,33,40,821,1864,2198,2288,2256,2340,1846,2044,2390
893108,51448,52748,51947,51947,-79,212,-10,-40,-5,351,417,4009,37,45,820,1864,2198,2288,2256,2340,1846,2044,2390
894109,51532,52812,52012,52012,-153,162,-15,-38,-3,311,402,3820,42,33,821,1864,2198,2288,2256,2340,1846,2044,2390
895110,51588,52892,52077,52077,208,-56,-11,-32,-1,241,380,3925,41,42,819,1852,2187,2274,2240,2326,1833,2033,2377
896111,51644,52952,52142,52142,219,200,-8,-31,4,120,347,3889,47,46,812,1852,2187,2274,2240,2326,1833,2033,2377
897112,51708,53028,52207,52207,122,-15,-5,-29,6,327,395,3846,39,46,821,1852,2187,2274,2240,2326,1833,2033,2377
898113,51764,53100,52272,52272,233,27,-4,-31,11,311,351,3847,47,47,820,1852,2187,2274,2240,2326,1833,2033,2377
899114,51848,53156,52337,52337,-141,238,-6,-29,14,-38,442,3934,43,47,822,1852,2187,2274,2240,2326,1833,2033,2377
900119,51912,53216,52402,52402,111,193,-8,-23,10,79,366,3803,33,48,822,1852,2187,2274,2240,2326,1833,2033,2377
901116,51964,53292,52467,52467,277,-21,-5,-35,5,509,443,3957,32,31,812,1836,2176,2260,2228,2311,1824,2025,2361
902117,52032,53356,52532,52532,74,131,-6,-28,-1,195,424,3915,33,37,821,1836,2176,2260,2228,2311,1824,2025,2361
903118,52076,53432,52597,52597,399,-34,-15,-29,-5,60,503,3844,31,32,821,1836,2176,2260,2228,2311,1824,2025,2361
904119,52144,53488,52662,52662,96,227,-18,-21,-6,-8,391,4006,36,31,820,1836,2176,2260,2228,2311,1824,2025,2361
905120,52224,53552,52727,52727,-72,128,-15,-33,-12,176,331,3787,33,34,819,1836,2176,2260,2228,2311,1824,2025,2361
906121,52292,53632,52792,52792,74,-90,-5,-33,-7,255,334,3933,41,45,821,1827,2168,2256,2227,2310,1825,2024,2358
907122,52356,53668,52857,52857,126,495,-3,-37,-3,29,362,3877,33,39,820,1827,2168,2256,2227,2310,1825,2024,2358
908123,52420,53752,52922,52922,127,-129,2,-27,-5,92,383,3917,40,31,822,1827,2168,2256,2227,2310,1825,2024,2358
909124,52468,53812,52987,52987,348,177,4,-27,-7,176,372,3792,41,31,819,1827,2168,2256,2227,2310,1825,2024,2358
910125,52552,53876,53052,53052,-125,128,3,-33,-6,295,413,3893,31,38,821,1827,2168,2256,2227,2310,1825,2024,2358
911126,52600,53944,53117,53117,346,74,1,-37,-5,188,409,3870,48,41,820,1827,2168,2256,2227,2310,1825,2024,2358
912127,52672,54008,53182,53182,37,125,-2,-33,-6,-41,393,3993,37,31,814,1826,2163,2258,2232,2309,1824,2021,2356
913128,52724,54056,53247,53247,304,345,-8,-26,2,54,373,3713,48,33,820,1826,2163,2258,2232,2309,1824,2021,2356
914129,52788,54128,53312,53312,155,36,-8,-39,-9,107,407,3977,33,47,822,1826,2163,2258,2232,2309,1824,2021,2356
915130,52868,54188,53377,53377,-63,193,1,-32,-9,63,349,3846,37,45,819,1826,2163,2258,2232,2309,1824,2021,2356
916131,52944,54236,53442,53442,-27,362,-2,-47,-10,137,386,3832,43,38,822,1826,2163,2258,2232,2309,1824,2021,2356
917132,53000,54304,53507,53507,234,109,4,-36,-7,-11,338,3982,40,33,821,1828,2162,2259,2231,2316,1826,2020,2353
918133,53072,54384,53572,53572,27,-60,-2,-43,-5,12,354,3761,38,44,820,1828,2162,2259,2231,2316,1826,2020,2353
919134,53112,54456,53637,53637,457,31,2,-32,-12,195,382,4065,44,42,821,1828,2162,2259,2231,2316,1826,2020,2353
920135,53172,54508,53702,53702,213,297,-2,-38,-7,277,411,3674,31,44,822,1828,2162,2259,2231,2316,1826,2020,2353
921136,53232,54584,53767,53767,220,-17,-2,-35,-10,234,385,4073,49,47,819,1828,2162,2259,2231,2316,1826,2020,2353
922137,53312,54652,53832,53832,-49,79,0,-28,-15,380,402,3875,36,42,819,1818,2153,2252,2221,2310,1821,2014,2346
923138,53380,54708,53897,53897,99,240,1,-25,-8,235,332,3914,49,34,821,1818,2153,2252,2221,2310,1821,2014,2346
924139,53432,54780,53962,53962,314,31,2,-23,-7,554,383,3881,46,43,822,1818,2153,2252,2221,2310,1821,2014,2346
925140,53500,54844,54027,54027,111,132,0,-17,4,325,363,3820,32,34,821,1818,2153,2252,2221,2310,1821,2014,2346
926141,53576,54900,54092,54092,-3,242,0,-13,7,200,439,3932,34,30,821,1818,2153,2252,2221,2310,1821,2014,2346
927142,53636,54980,54157,54157,203,-76,-4,-12,7,81,374,3842,30,43,822,1818,2153,2252,2221,2310,1821,2014,2346
928143,53692,55024,54222,54222,265,399,-10,-24,0,78,436,3804,40,37,822,1812,2148,2245,2215,2304,1814,2007,2335
929144,53772,55092,54287,54287,-53,95,-15,-28,-2,-8,430,3892,47,43,821,1812,2148,2245,2215,2304,1814,2007,2335
930145,53816,55160,54352,54352,423,91,-11,-22,-6,-109,380,3964,33,32,819,1812,2148,2245,2215,2304,1814,2007,2335
931146,53896,55240,54417,54417,-46,-77,-5,-40,-15,36,426,3739,48,33,822,1812,2148,2245,2215,2304,1814,2007,2335
932147,53952,55316,54482,54482,265,-42,-3,-40,-15,44,326,3896,30,32,820,1812,2148,2245,2215,2304,1814,2007,2335
933148,54008,55368,54547,54547,277,274,-1,-29,-5,226,400,3924,29,42,822,1811,2150,2250,2218,2301,1811,2006,2340
934149,54080,55432,54612,54612,69,126,1,-24,-7,116,350,3722,42,45,821,1811,2150,2250,2218,2301,1811,2006,2340
935150,54128,55484,54677,54677,390,290,-4,-23,-7,309,420,3925,30,30,819,1811,2150,2250,2218,2301,1811,2006,2340
936151,54200,55548,54742,54742,81,142,-4,-11,-4,526,444,3843,44,39,821,1811,2150,2250,2218,2301,1811,2006,2340
937152,54252,55624,54807,54807,347,-22,-4,-10,-2,422,384,3938,34,30,819,1811,2150,2250,2218,2301,1811,2006,2340
938153,54336,55696,54872,54872,-75,19,-7,-12,2,346,415,3862,48,33,819,1811,2150,2250,2218,2301,1811,2006,2340
939154,54388,55736,54937,54937,341,449,-3,-4,2,387,400,3917,35,44,819,1823,2166,2265,2233,2307,1818,2014,2352
940155,54448,55820,55002,55002,247,-124,-12,-5,0,24,402,3770,37,30,820,1823,2166,2265,2233,2307,1818,2014,2352
941156,54532,55876,55067,55067,-76,237,-7,-8,-4,-13,360,3856,34,30,818,1823,2166,2265,2233,2307,1818,2014,2352
942157,54596,55960,55132,55132,175,-137,-8,-16,-4,157,362,3946,35,32,820,1823,2166,2265,2233,2307,1818,2014,2352
943158,54652,56000,55197,55197,287,443,-5,-18,-11,-61,379,3756,45,28,819,1823,2166,2265,2233,2307,1818,2014,2352
944159,54704,56080,55262,55262,353,-75,-3,-23,-9,-111,328,3950,34,30,821,1836,2185,2279,2239,2312,1813,2010,2351
945160,54772,56140,55327,55327,149,180,-5,-28,-7,-12,413,3845,33,42,818,1836,2185,2279,2239,2312,1813,2010,2351
946161,54824,56200,55392,55392,365,186,0,-23,-14,-92,353,3835,48,35,820,1836,2185,2279,2239,2312,1813,2010,2351
947162,54896,56256,55457,55457,106,247,3,-26,-12,23,318,3993,43,37,822,1836,2185,2279,2239,2312,1813,2010,2351
948163,54956,56316,55522,55522,263,202,5,-33,-11,233,336,3823,31,38,820,1836,2185,2279,2239,2312,1813,2010,2351
949164,55024,56380,55587,55587,160,153,7,-28,-20,267,385,3912,35,41,821,1836,2185,2279,2239,2312,1813,2010,2351
950165,55072,56448,55652,55652,431,100,5,-27,-21,244,426,3892,34,29,820,1827,2180,2272,2224,2304,1803,1999,2341
951166,55148,56520,55717,55717,67,40,2,-27,-21,147,441,3895,33,43,821,1827,2180,2272,2224,2304,1803,1999,2341
952167,55208,56568,55782,55782,274,361,2,-25,-22,131,358,3799,45,31,819,1827,2180,2272,2224,2304,1803,1999,2341
953168,55272,56636,55847,55847,225,107,0,-27,-23,222,424,3901,35,44,822,1827,2180,2272,2224,2304,1803,1999,2341
954169,55340,56680,55912,55912,172,432,-1,-22,-19,161,357,3928,49,30,819,1827,2180,2272,2224,2304,1803,1999,2341
955170,55408,56744,55977,55977,168,183,-1,-32,-13,255,344,3772,42,42,819,1820,2172,2265,2217,2306,1800,2000,2347
956171,55484,56804,56042,56042,55,239,2,-28,-2,60,380,4040,45,46,818,1820,2172,2265,2217,2306,1800,2000,2347
957172,55512,56888,56107,56107,701,-84,3,-29,2,5,411,3854,42,29,821,1820,2172,2265,2217,2306,1800,2000,2347
958173,55592,56988,56172,56172,33,-328,7,-27,3,164,337,3828,33,43,821,1820,2172,2265,2217,2306,1800,2000,2347
959174,55652,57080,56237,56237,289,-261,5,-35,6,36,461,3946,32,43,817,1820,2172,2265,2217,2306,1800,2000,2347
960175,55724,57136,56302,56302,130,200,3,-29,11,94,420,3819,30,34,820,1820,2172,2265,2217,2306,1800,2000,2347
961176,55784,57192,56367,56367,286,210,-1,-25,9,248,428,3967,35,41,820,1813,2176,2265,2209,2319,1803,2009,2367
962177,55836,57236,56432,56432,403,386,-4,-23,-10,212,349,3692,34,34,821,1813,2176,2265,2209,2319,1803,2009,2367
963178,55912,57288,56497,56497,90,302,0,-27,-11,293,427,3889,42,44,820,1813,2176,2265,2209,2319,1803,2009,2367
964179,55972,57360,56562,56562,296,42,-9,-15,-11,515,469,3879,36,37,818,1813,2176,2265,2209,2319,1803,2009,2367
965180,56040,57408,56627,56627,192,363,-11,-11,-6,263,383,3903,39,33,820,1813,2176,2265,2209,2319,1803,2009,2367
966181,56112,57484,56692,56692,135,0,-4,-5,-9,153,429,3999,32,42,821,1817,2190,2274,2213,2336,1810,2019,2390
967182,56164,57544,56757,56757,400,206,-10,-14,-12,9,398,3673,36,28,820,1817,2190,2274,2213,2336,1810,2019,2390
968183,56228,57592,56822,56822,252,376,-10,-22,-6,7,431,4047,41,42,822,1817,2190,2274,2213,2336,1810,2019,2390
969184,56292,57648,56887,56887,253,287,-15,-20,-1,-34,412,3899,44,40,819,1817,2190,2274,2213,2336,1810,2019,2390
970185,56360,57712,56952,56952,199,188,-15,-28,-1,45,343,3790,39,42,819,1817,2190,2274,2213,2336,1810,2019,2390
971186,56432,57756,57017,57017,142,462,-8,-16,10,47,356,3915,46,42,820,1817,2190,2274,2213,2336,1810,2019,2390
972187,56496,57832,57082,57082,243,49,-6,-15,11,154,420,3853,47,41,819,1814,2203,2280,2209,2342,1808,2028,2400
973188,56548,57888,57147,57147,409,310,-13,-24,15,143,399,3886,29,34,817,1814,2203,2280,2209,2342,1808,2028,2400
974189,56612,57980,57212,57212,260,-174,-13,-18,18,287,419,3861,46,42,822,1814,2203,2280,2209,2342,1808,2028,2400
975190,56676,58068,57277,57277,262,-152,-17,-21,17,262,488,3896,33,31,818,1814,2203,2280,2209,2342,1808,2028,2400
976191,56748,58120,57342,57342,154,314,-19,-22,13,37,419,3855,43,41,820,1814,2203,2280,2209,2342,1808,2028,2400
977192,56792,58192,57407,57407,529,55,-26,-26,8,390,395,3878,44,31,820,1813,2213,2277,2204,2336,1798,2027,2402
978193,56860,58260,57472,57472,226,101,-17,-18,5,202,287,3854,36,42,820,1813,2213,2277,2204,2336,1798,2027,2402
979194,56920,58320,57537,57537,333,207,-15,-22,-1,205,372,3925,46,40,819,1813,2213,2277,2204,2336,1798,2027,2402
980195,56984,58396,57602,57602,284,-7,-11,-11,-9,188,342,3800,32,38,821,1813,2213,2277,2204,2336,1798,2027,2402
981196,57036,58460,57667,57667,450,143,-15,-16,-3,209,347,3859,42,40,820,1813,2213,2277,2204,2336,1798,2027,2402
982197,57092,58520,57732,57732,411,200,-10,-8,-11,219,415,3948,44,30,821,1813,2213,2277,2204,2336,1798,2027,2402
983198,57164,58580,57797,57797,202,206,-15,-9,-6,-2,371,3796,32,45,819,1807,2220,2272,2193,2334,1788,2028,2408
984199,57216,58640,57862,57862,469,211,-14,-10,0,50,420,3877,45,31,819,1807,2220,2272,2193,2334,1788,2028,2408
985200,57288,58700,57927,57927,211,217,-13,-19,3,105,406,3883,43,29,821,1807,2220,2272,2193,2334,1788,2028,2408
986201,57332,58760,57992,57992,586,223,-12,-21,6,35,365,3851,50,31,819,1807,2220,2272,2193,2334,1788,2028,2408
987202,57400,58812,58057,58057,283,339,-4,-12,5,169,376,3897,45,45,821,1807,2220,2272,2193,2334,1788,2028,2408
988203,57468,58884,58122,58122,280,79,-3,-23,10,43,328,3900,38,39,818,1802,2228,2273,2183,2339,1788,2036,2418
989204,57540,58932,58187,58187,221,400,-2,-29,6,24,390,3802,30,34,817,1802,2228,2273,2183,2339,1788,2036,2418
990205,57592,59004,58252,58252,487,92,-7,-27,2,7,407,3897,46,34,819,1802,2228,2273,2183,2339,1788,2036,2418
991206,57660,59064,58317,58317,284,247,-8,-39,2,-32,386,3893,41,33,819,1802,2228,2273,2183,2339,1788,2036,2418
992207,57724,59140,58382,58382,336,33,-8,-39,2,111,379,3796,33,45,819,1802,2228,2273,2183,2339,1788,2036,2418
993208,57772,59216,58447,58447,556,20,-3,-41,1,197,344,3932,48,36,819,1802,2228,2273,2183,2339,1788,2036,2418
994209,57832,59276,58512,58512,413,226,-5,-36,-3,96,391,3841,40,35,821,1800,2240,2277,2182,2360,1790,2049,2455
995210,57904,59340,58577,58577,254,176,-14,-44,-4,150,371,3856,35,35,819,1800,2240,2277,2182,2360,1790,2049,2455
996211,57968,59420,58642,58642,356,-42,-5,-31,-5,444,388,3969,40,39,819,1800,2240,2277,2182,2360,1790,2049,2455
997212,58028,59476,58707,58707,412,269,-11,-31,2,508,369,3863,31,30,820,1800,2240,2277,2182,2360,1790,2049,2455
998213,58068,59532,58772,58772,693,279,-1,-14,0,260,396,3965,46,42,820,1800,2240,2277,2182,2360,1790,2049,2455
999214,58144,59584,58837,58837,229,345,-1,-7,-2,57,377,3768,39,32,819,1794,2248,2275,2171,2377,1794,2058,2471
1000215,58204,59672,58902,58902,437,-133,-1,-5,-9,397,416,3923,50,42,816,1794,2248,2275,2171,2377,1794,2058,2471
1001216,58288,59732,58967,58967,113,222,-8,-21,0,187,395,3846,46,36,819,1794,2248,2275,2171,2377,1794,2058,2471
1002217,58344,59788,59032,59032,474,283,-7,-25,4,-79,394,3901,34,42,819,1794,2248,2275,2171,2377,1794,2058,2471
1003218,58388,59840,59097,59097,651,349,-7,-18,2,14,389,3899,35,36,821,1794,2248,2275,2171,2377,1794,2058,2471
1004219,58448,59912,59162,59162,457,90,0,-25,2,43,352,3869,41,35,818,1794,2248,2275,2171,2377,1794,2058,2471
1005220,58524,59980,59227,59227,244,135,0,-30,8,21,404,3844,46,36,816,1781,2242,2267,2162,2382,1790,2061,2473
1006221,58584,60040,59292,59292,450,241,-5,-37,9,61,367,3875,49,32,817,1781,2242,2267,2162,2382,1790,2061,2473
1007222,58664,60096,59357,59357,182,302,-3,-33,7,115,368,3935,36,44,819,1781,2242,2267,2162,2382,1790,2061,2473
1008223,58736,60188,59422,59422,274,-182,-9,-39,7,311,405,3877,39,39,819,1781,2242,2267,2162,2382,1790,2061,2473
1009224,58804,60248,59487,59487,320,225,-8,-33,1,299,373,3897,37,42,820,1781,2242,2267,2162,2382,1790,2061,2473
1010225,58868,60316,59552,59552,371,121,-5,-28,1,314,431,3925,34,44,820,1767,2229,2255,2147,2374,1784,2050,2457
1011226,58924,60352,59617,59617,483,556,-7,-30,6,316,388,3904,32,29,820,1767,2229,2255,2147,2374,1784,2050,2457
1012227,58996,60420,59682,59682,275,152,-14,-24,4,324,418,3854,47,32,820,1767,2229,2255,2147,2374,1784,2050,2457
1013228,59052,60488,59747,59747,486,148,-11,-20,3,166,401,3989,42,42,815,1767,2229,2255,2147,2374,1784,2050,2457
1014229,59112,60540,59812,59812,442,364,-16,-20,3,219,385,3777,46,32,820,1767,2229,2255,2147,2374,1784,2050,2457
1015230,59172,60612,59877,59877,449,104,-10,-18,11,248,326,3916,44,39,819,1767,2229,2255,2147,2374,1784,2050,2457
1016231,59248,60660,59942,59942,236,425,-11,-17,3,42,402,3889,37,40,817,1755,2211,2242,2139,2362,1777,2043,2444
1017232,59288,60720,60007,60007,716,281,-6,-23,3,40,349,3838,49,37,819,1755,2211,2242,2139,2362,1777,2043,2444
1018233,59360,60792,60072,60072,308,123,-10,-37,-1,103,415,3852,46,42,819,1755,2211,2242,2139,2362,1777,2043,2444
1019234,59440,60860,60137,60137,190,168,-11,-31,2,135,360,3902,34,28,816,1755,2211,2242,2139,2362,1777,2043,2444
1020235,59496,60912,60202,60202,501,384,-8,-35,-1,200,390,3871,45,29,820,1755,2211,2242,2139,2362,1777,2043,2444
1021236,59552,60948,60267,60267,512,619,-7,-25,-2,138,341,3857,45,37,821,1744,2198,2229,2134,2359,1778,2041,2437
1022237,59608,61016,60332,60332,524,215,-6,-35,-6,142,369,3961,47,32,817,1744,2198,2229,2134,2359,1778,2041,2437
1023238,59680,61088,60397,60397,316,156,-1,-25,-10,340,348,3835,38,47,813,1744,2198,2229,2134,2359,1778,2041,2437
1024239,59740,61164,60462,60462,472,93,4,-29,-3,172,330,3931,35,32,815,1744,2198,2229,2134,2359,1778,2041,2437
1025242,59812,61236,60527,60527,313,134,-3,-20,-2,285,398,3832,41,31,820,1744,2198,2229,2134,2359,1778,2041,2437
1026241,59868,61288,60592,60592,525,399,7,-19,-1,258,336,3947,33,30,819,1744,2198,2229,2134,2359,1778,2041,2437
1027242,59940,61348,60657,60657,317,305,6,-26,5,150,370,3821,46,41,820,1728,2165,2231,2136,2357,1779,2037,2426
1028243,60004,61420,60722,60722,418,146,3,-30,-1,100,403,3876,40,44,817,1728,2165,2231,2136,2357,1779,2037,2426
1029244,60060,61476,60787,60787,529,357,1,-25,-2,37,383,3873,45,40,819,1728,2165,2231,2136,2357,1779,2037,2426
1030245,60136,61552,60852,60852,267,93,3,-31,1,181,413,3815,44,47,819,1728,2165,2231,2136,2357,1779,2037,2426
1031246,60180,61620,60917,60917,692,189,1,-30,-6,170,387,3934,30,31,817,1728,2165,2231,2136,2357,1779,2037,2426
1032247,60252,61688,60982,60982,334,186,5,-30,-9,72,346,3904,38,39,821,1743,2176,2224,2133,2350,1782,2031,2407
1033248,60316,61756,61047,61047,436,182,-1,-30,-3,184,354,3839,33,32,817,1743,2176,2224,2133,2350,1782,2031,2407
1034249,60376,61796,61112,61112,492,562,6,-35,-11,285,410,3930,43,33,820,1743,2176,2224,2133,2350,1782,2031,2407
1035250,60444,61868,61177,61177,388,153,3,-40,-6,191,392,3900,46,32,819,1743,2176,2224,2133,2350,1782,2031,2407
1036251,60492,61924,61242,61242,659,364,5,-25,-11,263,396,3880,40,30,815,1743,2176,2224,2133,2350,1782,2031,2407
1037252,60548,61976,61307,61307,571,429,0,-21,-3,203,379,3889,43,45,819,1743,2176,2224,2133,2350,1782,2031,2407
1038253,60620,62056,61372,61372,362,61,0,-19,-12,138,437,3930,37,31,815,1726,2160,2213,2126,2339,1772,2018,2396
1039254,60664,62120,61437,61437,738,262,1,-26,-7,172,356,3799,42,43,816,1726,2160,2213,2126,2339,1772,2018,2396
1040255,60736,62188,61502,61502,381,208,1,-19,-5,176,423,3984,44,49,818,1726,2160,2213,2126,2339,1772,2018,2396
1041256,60792,62268,61567,61567,592,39,0,-26,-3,-25,353,3760,41,42,814,1726,2160,2213,2126,2339,1772,2018,2396
1042257,60868,62332,61632,61632,328,240,-1,-27,1,133,400,3939,39,33,819,1726,2160,2213,2126,2339,1772,2018,2396
1043258,60924,62384,61697,61697,589,406,0,-16,6,194,383,3870,35,43,819,1719,2149,2203,2124,2336,1769,2011,2387
1044259,60980,62452,61762,61762,601,202,0,-25,5,216,388,3758,34,36,819,1719,2149,2203,2124,2336,1769,2011,2387
1045260,61032,62500,61827,61827,667,472,-3,-19,0,118,415,4011,30,42,816,1719,2149,2203,2124,2336,1769,2011,2387
1046261,61104,62556,61892,61892,408,383,-1,-17,-4,286,445,3786,50,45,817,1719,2149,2203,2124,2336,1769,2011,2387
1047262,61164,62640,61957,61957,566,10,-6,-20,6,305,367,3908,47,48,815,1719,2149,2203,2124,2336,1769,2011,2387
1048263,61252,62688,62022,62022,187,481,-5,-24,3,253,384,3843,37,42,818,1719,2149,2203,2124,2336,1769,2011,2387
1049264,61308,62752,62087,62087,598,281,-3,-17,12,142,353,3875,45,41,818,1716,2144,2200,2121,2337,1772,2014,2388
1050265,61356,62828,62152,62152,719,117,-6,-20,8,271,454,3900,41,47,818,1716,2144,2200,2121,2337,1772,2014,2388
1051266,61432,62892,62217,62217,357,269,-15,-18,14,-44,396,3874,40,42,817,1716,2144,2200,2121,2337,1772,2014,2388
1052267,61492,62952,62282,62282,563,325,-8,-21,16,225,405,3876,43,40,816,1716,2144,2200,2121,2337,1772,2014,2388
1053268,61560,63020,62347,62347,459,220,-17,-20,14,248,403,3781,40,42,819,1716,2144,2200,2121,2337,1772,2014,2388
1054269,61628,63088,62412,62412,457,216,-12,-17,4,38,400,3957,46,31,817,1714,2145,2200,2123,2342,1774,2021,2398
1055270,61676,63148,62477,62477,727,322,-18,-8,-1,121,321,3843,45,38,818,1714,2145,2200,2123,2342,1774,2021,2398
1056271,61748,63216,62542,62542,419,218,-5,-14,-4,181,332,3778,34,39,819,1714,2145,2200,2123,2342,1774,2021,2398
1057272,61812,63280,62607,62607,521,269,-7,-14,-1,215,348,4050,39,41,813,1714,2145,2200,2123,2342,1774,2021,2398
1058273,61880,63340,62672,62672,467,325,1,-13,-4,194,384,3720,43,44,817,1714,2145,2200,2123,2342,1774,2021,2398
1059274,61948,63412,62737,62737,464,167,-10,-16,5,43,380,3911,35,32,817,1714,2145,2200,2123,2342,1774,2021,2398
1060275,62008,63456,62802,62802,570,541,-6,-14,-1,211,412,3864,33,31,817,1716,2156,2207,2126,2346,1773,2023,2403
1061276,62084,63516,62867,62867,357,347,-13,-18,4,157,455,3927,31,44,818,1716,2156,2207,2126,2346,1773,2023,2403
1062277,62140,63596,62932,62932,618,79,-11,-14,-2,60,424,3769,46,46,815,1716,2156,2207,2126,2346,1773,2023,2403
1063278,62212,63652,62997,62997,410,390,-20,-14,7,208,429,3942,44,37,818,1716,2156,2207,2126,2346,1773,2023,2403
1064279,62276,63732,63062,63062,512,71,-19,-5,4,138,358,3952,47,41,817,1716,2156,2207,2126,2346,1773,2023,2403
1065280,62328,63792,63127,63127,678,327,-16,-9,11,43,339,3841,46,49,818,1722,2175,2217,2127,2349,1767,2030,2421
1066281,62392,63844,63192,63192,529,443,-9,-2,18,277,375,3930,31,43,819,1722,2175,2217,2127,2349,1767,2030,2421
1067282,62460,63928,63257,63257,476,19,-11,-13,22,101,416,3819,47,47,816,1722,2175,2217,2127,2349,1767,2030,2421
1068283,62536,63996,63322,63322,363,215,-17,-16,16,35,442,3844,47,37,816,1722,2175,2217,2127,2349,1767,2030,2421
1069284,62572,64048,63387,63387,898,431,-15,-7,11,214,414,3837,47,33,819,1722,2175,2217,2127,2349,1767,2030,2421
1070285,62644,64124,63452,63452,440,117,-27,-9,11,189,399,3815,42,44,819,1722,2175,2217,2127,2349,1767,2030,2421
1071286,62696,64196,63517,63517,707,159,-25,-8,5,155,395,3929,37,35,813,1722,2189,2208,2112,2352,1761,2039,2443
1072287,62768,64260,63582,63582,448,259,-20,-7,-1,175,425,3877,44,46,819,1722,2189,2208,2112,2352,1761,2039,2443
1073288,62828,64304,63647,63647,604,534,-24,-12,0,176,411,3872,41,40,816,1722,2189,2208,2112,2352,1761,2039,2443
1074289,62884,64372,63712,63712,666,231,-20,-9,0,172,369,3886,35,33,817,1722,2189,2208,2112,2352,1761,2039,2443
1075291,62956,64456,63777,63777,458,8,-15,-13,-1,179,333,3844,53,47,812,1722,2189,2208,2112,2352,1761,2039,2443
1076291,63028,64532,63842,63842,449,93,-9,-12,6,143,314,3962,50,42,816,1724,2207,2220,2116,2372,1766,2053,2467
1077292,63092,64584,63907,63907,551,409,-2,-5,15,74,281,3868,49,42,819,1724,2207,2220,2116,2372,1766,2053,2467
1078293,63156,64656,63972,63972,553,151,4,-12,13,94,357,3936,40,45,819,1724,2207,2220,2116,2372,1766,2053,2467
1079294,63244,64736,64037,64037,225,32,2,-22,12,248,360,3783,35,35,816,1724,2207,2220,2116,2372,1766,2053,2467
