%  Data file recorded 2016/8/27  23:46:32
%  Stride Frequency         = [1, 1]
%  Lead In /Lead Out        = 
%  Deltas (Fractional)      = [0.25, 0.25, 0.25],[0.25, 0.25, 0.25]
%  Phase                    = 32768
%  Experiment.py 
%  Motor Gains    = [5000, 400, 200, 0, 300, 5000, 400, 200, 0, 300]
% Columns: 
% time | Right Leg Pos | Left Leg Pos | Commanded Right Leg Pos | Commanded Left Leg Pos | DCR | DCL | GyroX | GyroY | GyroZ | AX | AY | AZ | RBEMF | LBEMF | VBatt | S1 | S2 | S3 | S4 | S5 | S6 | S7 | S8
92,-43256,-13604,-44570,-11802,3800,3800,-21,-8,3,-8,212,3927,-9,7,906,1747,1861,2081,2242,2057,1829,2064,2119
1093,-43252,-13600,-44570,-11802,3800,3800,-22,-8,2,-10,217,3916,10,7,906,1747,1861,2081,2242,2057,1829,2064,2119
2094,-43252,-13604,-44570,-11802,3800,3800,-21,-12,1,6,230,3945,-9,7,905,1747,1861,2081,2242,2057,1829,2064,2119
3095,-43260,-13604,-44570,-11802,3800,3800,-23,-11,0,12,239,3901,10,-2,905,1747,1861,2081,2242,2057,1829,2064,2119
4096,-43264,-13612,-44570,-11802,3800,3800,-23,-9,1,-13,227,3890,-8,-6,905,1747,1861,2083,2241,2058,1828,1890,2015
5097,-43256,-13592,-44570,-11802,3800,3800,-23,-8,2,-20,225,3932,10,-7,905,1747,1861,2083,2241,2058,1828,1890,2015
6098,-43256,-13596,-44570,-11802,3800,3800,-23,-7,2,7,249,3932,-7,-6,906,1747,1861,2083,2241,2058,1828,1890,2015
7099,-43260,-13596,-44570,-11802,3800,3800,-22,-8,1,2,251,3960,10,-6,905,1747,1861,2083,2241,2058,1828,1890,2015
8100,-43256,-13588,-44570,-11802,3800,3800,-24,-10,2,-3,238,3932,-7,-5,905,1747,1861,2083,2241,2058,1828,1890,2015
9101,-43256,-13576,-44570,-11802,3800,3800,-23,-8,4,21,220,3931,10,2,905,1747,1861,2083,2241,2058,1828,1890,2015
10102,-43256,-13596,-44570,-11802,3800,3800,-22,-9,5,7,245,3937,-9,6,906,1747,1860,2081,2242,2150,1940,1908,2016
11103,-43256,-13584,-44570,-11802,3800,3800,-22,-10,3,23,216,3959,7,7,905,1747,1860,2081,2242,2150,1940,1908,2016
12104,-43260,-13600,-44570,-11802,3800,3800,-23,-11,1,24,215,3934,-8,4,905,1747,1860,2081,2242,2150,1940,1908,2016
13105,-43260,-13592,-44570,-11802,3800,3800,-21,-10,2,27,205,3899,5,-3,905,1747,1860,2081,2242,2150,1940,1908,2016
14106,-43256,-13600,-44570,-11802,3800,3800,-21,-8,2,-11,185,3916,-8,-7,906,1747,1860,2081,2242,2150,1940,1908,2016
15107,-43248,-13604,-44570,-11802,3800,3800,-22,-7,1,-10,242,3937,6,-4,905,1747,1861,2081,2241,2057,1828,1890,2014
16108,-43256,-13604,-44570,-11802,3800,3800,-20,-8,1,-9,241,3939,-1,3,905,1747,1861,2081,2241,2057,1828,1890,2014
17109,-43256,-13600,-44570,-11802,3800,3800,-20,-9,3,5,207,3909,0,7,905,1747,1861,2081,2241,2057,1828,1890,2014
18110,-43260,-13596,-44570,-11802,3800,3800,-22,-9,5,-14,218,3884,8,2,905,1747,1861,2081,2241,2057,1828,1890,2014
19111,-43268,-13600,-44570,-11802,3800,3800,-22,-10,5,-10,236,3900,-9,-3,903,1747,1861,2081,2241,2057,1828,1890,2014
20112,-43264,-13616,-44570,-11802,3800,3800,-19,-11,4,7,234,3935,-4,-1,905,1747,1861,2081,2241,2057,1828,1890,2014
21113,-43268,-13600,-44570,-11802,3800,3800,-19,-12,2,16,218,3945,1,-6,906,1748,1862,2166,2327,2071,1828,1890,2014
22114,-43256,-13604,-44570,-11802,3800,3800,-21,-10,2,25,219,3938,4,-1,906,1748,1862,2166,2327,2071,1828,1890,2014
23115,-43252,-13592,-44570,-11802,3800,3800,-22,-7,3,23,231,3949,0,3,906,1748,1862,2166,2327,2071,1828,1890,2014
24116,-43256,-13604,-44570,-11802,3800,3800,-21,-8,2,-10,225,3947,2,8,906,1748,1862,2166,2327,2071,1828,1890,2014
25117,-43268,-13588,-44570,-11802,3800,3800,-22,-10,1,-34,191,3949,-9,6,906,1748,1862,2166,2327,2071,1828,1890,2014
26118,-43260,-13600,-44570,-11802,3800,3800,-21,-9,4,-17,200,3968,10,3,906,1748,1861,2081,2242,2056,1828,1890,2015
27119,-43252,-13600,-44570,-11802,3800,3800,-18,-8,4,-15,204,3947,-9,-7,906,1748,1861,2081,2242,2056,1828,1890,2015
28120,-43264,-13584,-44570,-11802,3800,3800,-18,-11,4,-25,196,3956,10,-6,906,1748,1861,2081,2242,2056,1828,1890,2015
29121,-43260,-13604,-44570,-11802,3800,3800,-17,-12,1,7,195,3918,-9,0,906,1748,1861,2081,2242,2056,1828,1890,2015
30122,-43260,-13608,-44570,-11802,3800,3800,-16,-11,2,-15,215,3930,10,8,906,1748,1861,2081,2242,2056,1828,1890,2015
31123,-43244,-13596,-44570,-11802,3800,3800,-19,-11,2,3,222,3905,-8,5,906,1748,1861,2081,2242,2056,1828,1890,2015
32124,-43260,-13600,-44570,-11802,3800,3800,-24,-10,4,-10,219,3916,10,0,905,1792,1963,2102,2241,2056,1827,1889,2013
33125,-43252,-13608,-44570,-11802,3800,3800,-21,-11,5,-12,221,3916,-7,-6,906,1792,1963,2102,2241,2056,1827,1889,2013
34126,-43256,-13596,-44570,-11802,3800,3800,-17,-12,2,10,225,3938,-2,-7,906,1792,1963,2102,2241,2056,1827,1889,2013
35127,-43256,-13596,-44570,-11802,3800,3800,-18,-12,2,-17,224,3920,-4,-7,906,1792,1963,2102,2241,2056,1827,1889,2013
36128,-43252,-13592,-44570,-11802,3800,3800,-18,-11,1,-12,250,3901,-1,-6,904,1792,1963,2102,2241,2056,1827,1889,2013
37129,-43264,-13600,-44570,-11802,3800,3800,-16,-11,2,24,233,3911,-7,-7,906,1749,1861,2082,2242,2058,1828,1891,2015
38130,-43256,-13596,-44570,-11802,3800,3800,-15,-11,2,16,211,3901,10,-7,906,1749,1861,2082,2242,2058,1828,1891,2015
39131,-43264,-13604,-44570,-11802,3800,3800,-16,-12,1,-12,213,3929,-4,3,906,1749,1861,2082,2242,2058,1828,1891,2015
40132,-43260,-13600,-44570,-11802,3800,3800,-18,-14,3,-1,225,3908,-7,5,906,1749,1861,2082,2242,2058,1828,1891,2015
41133,-43256,-13608,-44570,-11802,3800,3800,-17,-12,5,12,211,3913,7,6,906,1749,1861,2082,2242,2058,1828,1891,2015
42134,-43256,-13596,-44570,-11802,3800,3800,-15,-13,1,22,214,3956,-9,6,906,1749,1861,2082,2242,2058,1828,1891,2015
43135,-43256,-13588,-44570,-11802,3800,3800,-16,-10,1,9,207,3970,8,2,906,1764,1862,2081,2242,2056,1828,1891,2016
44136,-43256,-13592,-44570,-11802,3800,3800,-18,-8,2,-4,232,3972,-2,-3,906,1764,1862,2081,2242,2056,1828,1891,2016
45137,-43256,-13600,-44570,-11802,3800,3800,-20,-10,1,1,237,3920,-6,-6,906,1764,1862,2081,2242,2056,1828,1891,2016
46138,-43256,-13592,-44570,-11802,3800,3800,-19,-12,2,16,205,3889,10,0,906,1764,1862,2081,2242,2056,1828,1891,2016
47139,-43256,-13604,-44570,-11802,3800,3800,-18,-12,3,7,219,3923,-6,3,906,1764,1862,2081,2242,2056,1828,1891,2016
48140,-43260,-13600,-44570,-11802,3800,3800,-17,-9,2,-11,243,3921,-9,6,906,1748,1861,2082,2242,2057,1828,1891,2115
49141,-43244,-13592,-44570,-11802,3800,3800,-17,-10,3,2,228,3953,3,0,906,1748,1861,2082,2242,2057,1828,1891,2115
50142,-43256,-13600,-44570,-11802,3800,3800,-18,-9,2,21,225,3953,1,-5,906,1748,1861,2082,2242,2057,1828,1891,2115
51143,-43252,-13604,-44570,-11802,3800,3800,-19,-9,2,14,231,3950,-9,-3,906,1748,1861,2082,2242,2057,1828,1891,2115
52144,-43256,-13600,-44570,-11802,3800,3800,-19,-9,0,2,240,3951,9,6,906,1748,1861,2082,2242,2057,1828,1891,2115
53145,-43260,-13600,-44570,-11802,3800,3800,-17,-10,2,-5,221,3959,-8,7,904,1748,1861,2082,2242,2057,1828,1891,2115
54146,-43260,-13604,-44570,-11802,3800,3800,-17,-9,4,10,203,3952,10,0,906,1748,1861,2082,2242,2059,1829,1889,2014
55147,-43256,-13604,-44570,-11802,3800,3800,-18,-8,4,4,222,3934,-9,-7,906,1748,1861,2082,2242,2059,1829,1889,2014
56148,-43272,-13600,-44570,-11802,3800,3800,-20,-9,4,-17,208,3923,7,-4,906,1748,1861,2082,2242,2059,1829,1889,2014
57149,-43264,-13604,-44570,-11802,3800,3800,-21,-8,4,-1,237,3957,-9,8,906,1748,1861,2082,2242,2059,1829,1889,2014
58150,-43260,-13596,-44570,-11802,3800,3800,-21,-8,1,-28,218,3959,10,6,906,1748,1861,2082,2242,2059,1829,1889,2014
59151,-43240,-13600,-44570,-11802,3800,3800,-20,-10,2,-5,234,3960,-8,0,906,1748,1861,2082,2242,2058,1915,2048,2077
60152,-43260,-13592,-44570,-11802,3800,3800,-18,-9,2,1,241,3965,9,-7,906,1748,1861,2082,2242,2058,1915,2048,2077
61153,-43264,-13600,-44570,-11802,3800,3800,-19,-9,3,-10,222,3963,-9,-5,906,1748,1861,2082,2242,2058,1915,2048,2077
62154,-43264,-13600,-44570,-11802,3800,3800,-20,-9,5,-4,225,3937,9,2,906,1748,1861,2082,2242,2058,1915,2048,2077
63155,-43264,-13604,-44570,-11802,3800,3800,-20,-9,6,-21,227,3935,-9,4,906,1748,1861,2082,2242,2058,1915,2048,2077
64156,-43276,-13596,-44570,-11802,3800,3800,-19,-10,6,-7,221,3925,10,-3,906,1748,1861,2082,2242,2058,1915,2048,2077
65157,-43260,-13600,-44570,-11802,3800,3800,-22,-11,4,-14,218,3942,-8,-7,906,1748,1862,2082,2243,2059,1829,1891,2013
66158,-43264,-13592,-44570,-11802,3800,3800,-24,-10,2,-7,229,3943,7,1,906,1748,1862,2082,2243,2059,1829,1891,2013
67159,-43260,-13600,-44570,-11802,3800,3800,-23,-7,2,-6,223,3913,-5,8,906,1748,1862,2082,2243,2059,1829,1891,2013
68160,-43264,-13612,-44570,-11802,3800,3800,-21,-7,3,-15,205,3911,-4,5,906,1748,1862,2082,2243,2059,1829,1891,2013
69161,-43260,-13584,-44570,-11802,3800,3800,-19,-10,2,14,217,3936,1,-7,908,1748,1862,2082,2243,2059,1829,1891,2013
70162,-43264,-13616,-44570,-11802,3800,3800,-20,-11,2,4,208,3928,2,-7,904,1749,1861,2082,2283,2150,1920,1892,2016
71163,-43272,-13608,-44570,-11802,3800,3800,-22,-12,2,0,203,3941,10,-6,906,1749,1861,2082,2283,2150,1920,1892,2016
72164,-43268,-13584,-44570,-11802,3800,3800,-22,-11,4,4,195,3954,-7,-4,906,1749,1861,2082,2283,2150,1920,1892,2016
73165,-43256,-13596,-44570,-11802,3800,3800,-20,-10,4,-2,189,3944,8,-2,906,1749,1861,2082,2283,2150,1920,1892,2016
74166,-43260,-13588,-44570,-11802,3800,3800,-22,-9,2,-3,218,3911,-7,0,906,1749,1861,2082,2283,2150,1920,1892,2016
75167,-43264,-13600,-44570,-11802,3800,3800,-22,-9,3,-8,241,3932,9,8,906,1749,1861,2082,2283,2150,1920,1892,2016
76168,-43256,-13584,-44570,-11802,3800,3800,-22,-10,5,5,229,3932,-9,4,907,1748,1860,2082,2241,2057,1829,1891,2015
77169,-43268,-13612,-44570,-11802,3800,3800,-22,-7,6,-5,225,3944,9,0,907,1748,1860,2082,2241,2057,1829,1891,2015
78170,-43252,-13596,-44570,-11802,3800,3800,-23,-9,6,-9,197,3889,-9,-6,906,1748,1860,2082,2241,2057,1829,1891,2015
79171,-43268,-13616,-44570,-11802,3800,3800,-22,-11,3,-16,204,3911,10,-4,907,1748,1860,2082,2241,2057,1829,1891,2015
80172,-43256,-13596,-44570,-11802,3800,3800,-22,-9,-1,-11,196,3894,-9,-4,907,1748,1860,2082,2241,2057,1829,1891,2015
81173,-43260,-13600,-44570,-11802,3800,3800,-20,-10,0,-21,200,3946,10,5,907,1748,1889,2179,2331,2058,1828,1890,2015
82174,-43264,-13612,-44570,-11802,3800,3800,-19,-10,1,1,216,3924,-9,7,906,1748,1889,2179,2331,2058,1828,1890,2015
83175,-43260,-13600,-44570,-11802,3800,3800,-22,-9,1,14,229,3902,4,7,906,1748,1889,2179,2331,2058,1828,1890,2015
84176,-43264,-13600,-44570,-11802,3800,3800,-23,-7,0,9,233,3918,-5,-5,907,1748,1889,2179,2331,2058,1828,1890,2015
85177,-43256,-13596,-44570,-11802,3800,3800,-22,-7,1,-4,232,3931,-1,-7,906,1748,1889,2179,2331,2058,1828,1890,2015
86178,-43264,-13600,-44570,-11802,3800,3800,-20,-6,3,0,244,3933,9,-4,906,1748,1889,2179,2331,2058,1828,1890,2015
87179,-43248,-13604,-44570,-11802,3800,3800,-22,-7,1,3,219,3933,-2,4,904,1748,1860,2082,2242,2057,1829,1890,2015
88180,-43256,-13600,-44570,-11802,3800,3800,-21,-9,-2,9,225,3921,10,1,907,1748,1860,2082,2242,2057,1829,1890,2015
89181,-43256,-13592,-44570,-11802,3800,3800,-22,-10,-3,1,240,3913,-7,5,906,1748,1860,2082,2242,2057,1829,1890,2015
90182,-43264,-13604,-44570,-11802,3800,3800,-23,-10,-2,2,241,3919,5,7,906,1748,1860,2082,2242,2057,1829,1890,2015
91183,-43260,-13600,-44570,-11802,3800,3800,-23,-9,0,-12,249,3915,0,5,907,1748,1860,2082,2242,2057,1829,1890,2015
92184,-43268,-13592,-44570,-11802,3800,3800,-21,-10,2,-13,249,3962,-4,0,906,1803,1962,2081,2242,2056,1828,1890,2015
93185,-43256,-13604,-44570,-11802,3800,3800,-19,-10,2,-16,211,3922,5,-6,906,1803,1962,2081,2242,2056,1828,1890,2015
94186,-43252,-13584,-44570,-11802,3800,3800,-18,-11,1,3,214,3895,-4,-7,906,1803,1962,2081,2242,2056,1828,1890,2015
95187,-43260,-13604,-44570,-11802,3800,3800,-20,-9,0,2,237,3938,9,-6,906,1803,1962,2081,2242,2056,1828,1890,2015
96188,-43260,-13600,-44570,-11802,3800,3800,-22,-7,1,-22,240,3927,-7,2,907,1803,1962,2081,2242,2056,1828,1890,2015
97189,-43268,-13608,-44570,-11802,3800,3800,-22,-6,2,3,204,3942,9,5,906,1803,1962,2081,2242,2056,1828,1890,2015
98190,-43260,-13592,-44570,-11802,3800,3800,-20,-8,2,2,226,3922,7,7,906,1749,1862,2082,2242,2056,1828,1890,2015
99191,-43256,-13600,-44570,-11802,3800,3800,-20,-8,0,0,231,3915,-9,-2,906,1749,1862,2082,2242,2056,1828,1890,2015
100192,-43256,-13600,-44570,-11802,3800,3800,-21,-10,0,-19,234,3898,8,-6,906,1749,1862,2082,2242,2056,1828,1890,2015
101193,-43264,-13600,-44570,-11802,3800,3800,-19,-9,1,-10,227,3916,2,-7,906,1749,1862,2082,2242,2056,1828,1890,2015
102194,-43264,-13604,-44570,-11802,3800,3800,-16,-12,3,9,230,3926,-4,-4,907,1749,1862,2082,2242,2056,1828,1890,2015
103195,-43252,-13604,-44570,-11802,3800,3800,-18,-13,3,0,223,3899,7,-1,906,1749,1861,2083,2242,2058,1828,1891,2015
104196,-43260,-13608,-44570,-11802,3800,3800,-21,-9,1,17,225,3907,-9,1,904,1749,1861,2083,2242,2058,1828,1891,2015
105197,-43256,-13600,-44570,-11802,3800,3800,-21,-9,1,-25,208,3930,-1,6,906,1749,1861,2083,2242,2058,1828,1891,2015
106198,-43264,-13600,-44570,-11802,3800,3800,-17,-9,1,-4,212,3943,10,8,906,1749,1861,2083,2242,2058,1828,1891,2015
107199,-43264,-13596,-44570,-11802,3800,3800,-14,-11,2,6,215,3938,-7,6,906,1749,1861,2083,2242,2058,1828,1891,2015
108200,-43256,-13604,-44570,-11802,3800,3800,-14,-12,2,14,194,3946,3,-7,906,1749,1861,2083,2242,2058,1828,1891,2015
109201,-43260,-13600,-44570,-11802,3800,3800,-17,-11,3,-10,199,3927,-3,-6,906,1749,1862,2081,2242,2056,1827,1890,2123
110202,-43252,-13588,-44570,-11802,3800,3800,-20,-7,6,14,213,3918,-7,1,906,1749,1862,2081,2242,2056,1827,1890,2123
111203,-43260,-13592,-44570,-11802,3800,3800,-20,-7,4,12,204,3929,10,8,906,1749,1862,2081,2242,2056,1827,1890,2123
112204,-43260,-13592,-44570,-11802,3800,3800,-19,-9,-1,12,221,3934,-9,1,906,1749,1862,2081,2242,2056,1827,1890,2123
113205,-43256,-13608,-44570,-11802,3800,3800,-18,-8,1,7,220,3950,-1,-6,906,1749,1862,2081,2242,2056,1827,1890,2123
114206,-43260,-13600,-44570,-11802,3800,3800,-19,-8,4,15,225,3926,7,-2,906,1749,1862,2081,2242,2057,1828,1890,2015
115207,-43256,-13616,-44570,-11802,3800,3800,-20,-9,4,12,231,3907,-8,6,906,1749,1862,2081,2242,2057,1828,1890,2015
116208,-43248,-13596,-44570,-11802,3800,3800,-20,-12,5,21,217,3924,6,7,906,1749,1862,2081,2242,2057,1828,1890,2015
117209,-43256,-13604,-44570,-11802,3800,3800,-16,-14,4,11,218,3912,5,-3,906,1749,1862,2081,2242,2057,1828,1890,2015
118210,-43260,-13588,-44570,-11802,3800,3800,-16,-14,1,-6,228,3922,-6,-6,906,1749,1862,2081,2242,2057,1828,1890,2015
119211,-43256,-13600,-44570,-11802,3800,3800,-18,-10,2,-21,241,3921,5,-7,906,1749,1862,2081,2242,2057,1828,1890,2015
120212,-43268,-13600,-44570,-11802,3800,3800,-18,-9,5,-17,215,3887,6,5,906,1749,1861,2082,2242,2059,1947,2059,2015
121213,-43248,-13600,-44570,-11802,3800,3800,-19,-9,5,-20,207,3881,-9,7,905,1749,1861,2082,2242,2059,1947,2059,2015
122214,-43260,-13608,-44570,-11802,3800,3800,-22,-12,4,-30,218,3927,-9,5,906,1749,1861,2082,2242,2059,1947,2059,2015
123215,-43264,-13592,-44570,-11802,3800,3800,-23,-13,4,0,224,3918,6,6,906,1749,1861,2082,2242,2059,1947,2059,2015
124216,-43260,-13600,-44570,-11802,3800,3800,-20,-12,4,12,213,3934,-4,0,906,1749,1861,2082,2242,2059,1947,2059,2015
125217,-43252,-13596,-44570,-11802,3800,3800,-18,-9,2,12,221,3917,-5,-5,906,1749,1861,2082,2242,2057,1828,1890,2015
126218,-43260,-13600,-44570,-11802,3800,3800,-16,-8,0,14,239,3905,9,-5,906,1749,1861,2082,2242,2057,1828,1890,2015
127219,-43260,-13604,-44570,-11802,3800,3800,-16,-6,0,12,244,3930,-8,1,906,1749,1861,2082,2242,2057,1828,1890,2015
128220,-43256,-13592,-44570,-11802,3800,3800,-18,-7,1,-2,247,3893,10,5,906,1749,1861,2082,2242,2057,1828,1890,2015
129221,-43252,-13604,-44570,-11802,3800,3800,-19,-10,3,-6,217,3921,-7,6,906,1749,1861,2082,2242,2057,1828,1890,2015
130222,-43256,-13616,-44570,-11802,3800,3800,-22,-10,2,8,225,3953,2,1,906,1749,1861,2081,2329,2153,1827,1887,2014
131223,-43260,-13596,-44570,-11802,3800,3800,-21,-11,0,-25,236,3937,2,-3,906,1749,1861,2081,2329,2153,1827,1887,2014
132224,-43244,-13608,-44570,-11802,3800,3800,-17,-9,0,-25,220,3914,3,-7,906,1749,1861,2081,2329,2153,1827,1887,2014
133225,-43260,-13600,-44570,-11802,3800,3800,-17,-10,1,-19,229,3939,-3,-7,906,1749,1861,2081,2329,2153,1827,1887,2014
134226,-43256,-13600,-44570,-11802,3800,3800,-18,-8,4,3,218,3913,-5,-5,906,1749,1861,2081,2329,2153,1827,1887,2014
135227,-43248,-13600,-44570,-11802,3800,3800,-17,-9,2,18,215,3913,3,4,906,1749,1861,2081,2329,2153,1827,1887,2014
136228,-43252,-13600,-44570,-11802,3800,3800,-18,-11,-1,11,210,3890,-1,4,906,1749,1862,2082,2243,2058,1829,1890,2016
137229,-43276,-13604,-44570,-11802,3800,3800,-18,-10,-1,8,211,3905,9,5,906,1749,1862,2082,2243,2058,1829,1890,2016
138230,-43256,-13592,-44570,-11802,3800,3800,-18,-10,2,10,241,3947,-6,8,904,1749,1862,2082,2243,2058,1829,1890,2016
139231,-43260,-13596,-44570,-11802,3800,3800,-20,-8,3,28,246,3926,10,5,906,1749,1862,2082,2243,2058,1829,1890,2016
140232,-43256,-13600,-44570,-11802,3800,3800,-21,-8,2,19,236,3919,2,7,906,1749,1862,2082,2243,2058,1829,1890,2016
141233,-43252,-13588,-44570,-11802,3800,3800,-22,-12,2,0,217,3905,-1,8,906,1749,1965,2179,2241,2060,1830,1892,2016
142234,-43264,-13596,-44570,-11802,3800,3800,-20,-13,1,-9,232,3914,-4,8,906,1749,1965,2179,2241,2060,1830,1892,2016
143235,-43256,-13608,-44570,-11802,3800,3800,-18,-11,1,-9,231,3874,-1,8,906,1749,1965,2179,2241,2060,1830,1892,2016
144236,-43256,-13604,-44570,-11802,3800,3800,-19,-8,0,-10,224,3934,0,2,906,1749,1965,2179,2241,2060,1830,1892,2016
145237,-43252,-13600,-44570,-11802,3800,3800,-19,-6,0,9,214,3952,-3,-1,906,1749,1965,2179,2241,2060,1830,1892,2016
146238,-43260,-13600,-44570,-11802,3800,3800,-19,-7,1,15,202,3943,7,-5,906,1749,1965,2179,2241,2060,1830,1892,2016
147239,-43260,-13604,-44570,-11802,3800,3800,-19,-9,3,0,206,3940,-7,-6,906,1749,1862,2081,2241,2057,1828,1890,2015
148240,-43256,-13600,-44570,-11802,3800,3800,-19,-11,2,-13,225,3952,9,-3,906,1749,1862,2081,2241,2057,1828,1890,2015
149241,-43264,-13596,-44570,-11802,3800,3800,-21,-12,1,15,236,3949,-8,3,906,1749,1862,2081,2241,2057,1828,1890,2015
150242,-43244,-13592,-44570,-11802,3800,3800,-19,-9,-1,12,232,3937,6,7,906,1749,1862,2081,2241,2057,1828,1890,2015
151243,-43252,-13588,-44570,-11802,3800,3800,-19,-8,2,-6,218,3955,-2,7,906,1749,1862,2081,2241,2057,1828,1890,2015
152244,-43248,-13604,-44570,-11802,3800,3800,-19,-7,2,-18,207,3948,5,5,906,1800,1862,2082,2242,2057,1829,1891,2016
153245,-43256,-13600,-44570,-11802,3800,3800,-20,-5,2,0,224,3878,0,-6,906,1800,1862,2082,2242,2057,1829,1891,2016
154246,-43260,-13592,-44570,-11802,3800,3800,-20,-5,3,-10,229,3916,-4,-7,906,1800,1862,2082,2242,2057,1829,1891,2016
155247,-43256,-13608,-44570,-11802,3800,3800,-21,-8,3,4,214,3936,6,-7,904,1800,1862,2082,2242,2057,1829,1891,2016
156250,-43264,-13608,-44570,-11802,3800,3800,-20,-9,4,-6,242,3930,3,-6,906,1800,1862,2082,2242,2057,1829,1891,2016
157249,-43264,-13596,-44570,-11802,3800,3800,-19,-9,5,-1,216,3939,-4,-7,906,1800,1862,2082,2242,2057,1829,1891,2016
158250,-43256,-13596,-44570,-11802,3800,3800,-21,-7,4,12,220,3949,9,-7,906,1749,1860,2081,2241,2057,1827,1889,2014
159251,-43256,-13588,-44570,-11802,3800,3800,-22,-9,4,7,215,3935,-4,-4,906,1749,1860,2081,2241,2057,1827,1889,2014
160252,-43264,-13596,-44570,-11802,3800,3800,-23,-10,3,-17,194,3934,0,-5,906,1749,1860,2081,2241,2057,1827,1889,2014
161253,-43260,-13592,-44570,-11802,3800,3800,-20,-9,3,-15,201,3924,-5,-3,906,1749,1860,2081,2241,2057,1827,1889,2014
162254,-43260,-13600,-44570,-11802,3800,3800,-19,-8,3,-11,197,3921,-1,6,906,1749,1860,2081,2241,2057,1827,1889,2014
163255,-43252,-13592,-44570,-11802,3800,3800,-20,-8,2,0,197,3936,2,7,906,1752,1862,2082,2243,2057,1828,1890,2016
164256,-43252,-13600,-44570,-11802,3800,3800,-22,-10,5,-11,222,3937,4,8,906,1752,1862,2082,2243,2057,1828,1890,2016
165257,-43256,-13584,-44570,-11802,3800,3800,-22,-9,6,-22,224,3932,-2,2,906,1752,1862,2082,2243,2057,1828,1890,2016
166258,-43272,-13604,-44570,-11802,3800,3800,-21,-8,2,-9,204,3959,-3,1,906,1752,1862,2082,2243,2057,1828,1890,2016
167259,-43260,-13600,-44570,-11802,3800,3800,-17,-11,1,34,216,3960,-3,-2,906,1752,1862,2082,2243,2057,1828,1890,2016
168260,-43260,-13600,-44570,-11802,3800,3800,-20,-8,4,11,233,3938,5,-7,907,1752,1862,2082,2243,2057,1828,1890,2016
169261,-43256,-13596,-44570,-11802,3800,3800,-23,-5,2,-3,229,3936,-7,-7,906,1749,1860,2081,2242,2057,1828,2052,2134
170262,-43268,-13596,-44570,-11802,3800,3800,-23,-7,1,-8,218,3957,10,-5,906,1749,1860,2081,2242,2057,1828,2052,2134
171263,-43256,-13608,-44570,-11802,3800,3800,-21,-9,2,-27,223,3942,-9,2,906,1749,1860,2081,2242,2057,1828,2052,2134
172264,-43264,-13592,-44570,-11802,3800,3800,-21,-8,1,-16,230,3936,9,2,904,1749,1860,2081,2242,2057,1828,2052,2134
173265,-43268,-13592,-44570,-11802,3800,3800,-21,-8,3,7,231,3942,10,-3,906,1749,1860,2081,2242,2057,1828,2052,2134
174266,-43256,-13592,-44570,-11802,3800,3800,-24,-8,4,-1,214,3922,-9,2,906,1752,1861,2082,2242,2056,1828,1889,2014
175267,-43248,-13600,-44570,-11802,3800,3800,-24,-9,4,2,205,3956,10,5,906,1752,1861,2082,2242,2056,1828,1889,2014
176268,-43252,-13600,-44570,-11802,3800,3800,-23,-9,1,17,213,3935,-9,8,906,1752,1861,2082,2242,2056,1828,1889,2014
177269,-43268,-13592,-44570,-11802,3800,3800,-23,-9,2,-14,212,3914,9,1,906,1752,1861,2082,2242,2056,1828,1889,2014
178270,-43264,-13600,-44570,-11802,3800,3800,-21,-7,1,-5,220,3943,-8,-3,906,1752,1861,2082,2242,2056,1828,1889,2014
179271,-43248,-13592,-44570,-11802,3800,3800,-20,-5,1,3,228,3920,5,-7,906,1752,1861,2082,2242,2056,1828,1889,2014
180272,-43260,-13596,-44570,-11802,3800,3800,-20,-8,-1,11,201,3946,-6,1,906,1749,1862,2082,2242,2152,1951,1890,2014
181273,-43260,-13616,-44570,-11802,3800,3800,-21,-12,0,-10,219,3918,7,7,906,1749,1862,2082,2242,2152,1951,1890,2014
182274,-43248,-13592,-44570,-11802,3800,3800,-20,-11,0,-6,224,3916,0,6,906,1749,1862,2082,2242,2152,1951,1890,2014
183275,-43260,-13604,-44570,-11802,3800,3800,-21,-10,0,17,215,3926,-2,-6,906,1749,1862,2082,2242,2152,1951,1890,2014
184276,-43256,-13596,-44570,-11802,3800,3800,-20,-10,0,-9,206,3922,-2,-7,906,1749,1862,2082,2242,2152,1951,1890,2014
185277,-43260,-13604,-44570,-11802,3800,3800,-20,-8,1,-25,239,3923,3,-7,906,1750,1862,2081,2242,2056,1828,1891,2016
186278,-43252,-13600,-44570,-11802,3800,3800,-22,-10,1,0,257,3959,-9,-1,906,1750,1862,2081,2242,2056,1828,1891,2016
187279,-43256,-13592,-44570,-11802,3800,3800,-20,-10,1,9,210,3949,10,1,906,1750,1862,2081,2242,2056,1828,1891,2016
188280,-43256,-13592,-44570,-11802,3800,3800,-20,-11,-2,3,194,3965,-9,5,906,1750,1862,2081,2242,2056,1828,1891,2016
189281,-43256,-13596,-44570,-11802,3800,3800,-20,-10,-2,7,219,3924,10,6,904,1750,1862,2081,2242,2056,1828,1891,2016
190282,-43260,-13596,-44570,-11802,3800,3800,-20,-12,0,-3,224,3923,0,8,906,1750,1862,2081,2242,2056,1828,1891,2016
191283,-43252,-13588,-44570,-11802,3800,3800,-19,-11,2,-6,207,3951,-9,6,906,1749,1861,2182,2329,2056,1827,1890,2014
192284,-43256,-13600,-44570,-11802,3800,3800,-18,-9,2,9,204,3899,10,-4,906,1749,1861,2182,2329,2056,1827,1890,2014
193285,-43256,-13608,-44570,-11802,3800,3800,-17,-9,3,7,225,3896,-1,-7,906,1749,1861,2182,2329,2056,1827,1890,2014
194286,-43252,-13584,-44570,-11802,3800,3800,-18,-9,2,4,230,3925,1,-7,906,1749,1861,2182,2329,2056,1827,1890,2014
195287,-43248,-13592,-44570,-11802,3800,3800,-17,-9,1,23,231,3939,8,1,906,1749,1861,2182,2329,2056,1827,1890,2014
196288,-43256,-13592,-44570,-11802,3800,3800,-17,-10,1,15,203,3927,-9,6,906,1749,1861,2082,2241,2056,1827,1890,2013
197289,-43260,-13596,-44570,-11802,3800,3800,-16,-10,2,-14,209,3949,10,7,906,1749,1861,2082,2241,2056,1827,1890,2013
198290,-43252,-13596,-44570,-11802,3800,3800,-17,-10,2,-31,224,3962,-8,-4,906,1749,1861,2082,2241,2056,1827,1890,2013
199291,-43248,-13580,-44570,-11802,3800,3800,-18,-10,2,-22,270,3941,3,-5,906,1749,1861,2082,2241,2056,1827,1890,2013
200292,-43256,-13600,-44505,-11737,-1000,2949,-18,-11,1,4,247,3938,-5,-6,906,1749,1861,2082,2241,2056,1827,1890,2013
201293,-43256,-13572,-44440,-11672,-1022,2394,-16,-11,2,0,231,3940,-1,-6,861,1749,1861,2082,2241,2056,1827,1890,2013
202294,-43252,-13548,-44375,-11607,-997,2495,-13,-4,-1,-21,230,3908,-1,-25,873,1807,1955,2082,2242,2057,1829,1891,2015
203295,-43260,-13480,-44310,-11542,-759,1942,-18,-19,3,-71,212,3973,12,31,874,1807,1955,2082,2242,2057,1829,1891,2015
204296,-43264,-13376,-44245,-11477,-725,1445,-23,-44,10,-160,323,4131,13,47,884,1807,1955,2082,2242,2057,1829,1891,2015
205297,-43268,-13264,-44180,-11412,-642,1288,-16,-94,13,-195,335,4039,16,63,891,1807,1955,2082,2242,2057,1829,1891,2015
206299,-43260,-13116,-44115,-11347,-722,738,-10,-131,2,-187,276,4249,-3,71,891,1807,1955,2082,2242,2057,1829,1891,2015
207299,-43244,-12972,-44050,-11282,-762,691,2,-139,-8,-202,192,4270,11,67,900,1748,1860,2080,2241,2058,1828,1890,2022
208300,-43252,-12836,-43985,-11217,-374,706,7,-146,-16,-12,210,4267,9,69,891,1748,1860,2080,2241,2058,1828,1890,2022
209301,-43252,-12676,-43920,-11152,-395,291,9,-87,-32,100,181,4167,15,72,901,1748,1860,2080,2241,2058,1828,1890,2022
210302,-43260,-12568,-43855,-11087,-206,888,-2,-34,-49,171,101,3945,13,74,904,1748,1860,2080,2241,2058,1828,1890,2022
211303,-43252,-12432,-43790,-11022,-336,453,-7,18,-70,-59,22,4007,10,71,884,1748,1860,2080,2241,2058,1828,1890,2022
212304,-43256,-12288,-43725,-10957,-103,256,-17,27,-83,-189,128,3933,12,74,890,1748,1860,2080,2241,2058,1828,1890,2022
213305,-43244,-12156,-43660,-10892,-238,325,-22,15,-87,-332,190,4000,4,74,905,1765,1880,2100,2256,2069,1839,1886,2012
214306,-43260,-11996,-43595,-10827,211,-140,-35,-35,-87,-512,208,3859,8,66,904,1765,1880,2100,2256,2069,1839,1886,2012
215307,-43248,-11872,-43530,-10762,-75,238,-33,-103,-86,-790,221,4266,-4,78,904,1765,1880,2100,2256,2069,1839,1886,2012
216308,-43260,-11756,-43465,-10697,319,276,-41,-159,-79,-598,206,3841,0,80,902,1765,1880,2100,2256,2069,1839,1886,2012
217309,-43252,-11632,-43400,-10632,139,105,-44,-189,-91,-399,43,4108,0,67,902,1765,1880,2100,2256,2069,1839,1886,2012
218310,-43244,-11508,-43335,-10567,208,33,-48,-183,-89,-412,64,4008,15,59,905,1763,1874,2094,2256,2070,1841,1903,2147
219311,-43248,-11396,-43270,-10502,443,126,-43,-179,-79,-276,116,4007,-3,69,905,1763,1874,2094,2256,2070,1841,1903,2147
220312,-43252,-11276,-43205,-10437,527,-40,-24,-158,-79,-145,184,4196,15,59,902,1763,1874,2094,2256,2070,1841,1903,2147
221313,-43248,-11164,-43140,-10372,501,2,-8,-164,-88,-225,198,4285,11,57,902,1763,1874,2094,2256,2070,1841,1903,2147
222314,-43240,-11088,-43075,-10307,521,439,10,-169,-91,-207,152,4269,3,61,902,1763,1874,2094,2256,2070,1841,1903,2147
223315,-43228,-10992,-43010,-10242,536,152,22,-178,-97,-94,174,4455,23,49,898,1763,1874,2094,2256,2070,1841,1903,2147
224316,-43208,-10908,-42945,-10177,491,279,31,-172,-102,-1,118,4220,25,48,901,1752,1863,2080,2239,2062,1832,1897,2024
225317,-43196,-10828,-42880,-10112,655,311,37,-182,-113,-46,201,4096,28,51,901,1752,1863,2080,2239,2062,1832,1897,2024
226318,-43172,-10724,-42815,-10047,555,-37,34,-198,-131,-240,228,4054,12,38,899,1752,1863,2080,2239,2062,1832,1897,2024
227319,-43116,-10656,-42750,-9982,166,410,31,-228,-132,-319,51,3944,16,49,902,1752,1863,2080,2239,2062,1832,1897,2024
228320,-43100,-10608,-42685,-9917,726,681,30,-235,-134,6,217,3800,34,44,903,1752,1863,2080,2239,2062,1832,1897,2024
229321,-43072,-10552,-42620,-9852,621,592,27,-250,-150,-25,78,3766,25,24,895,1761,1871,2087,2255,2052,1946,2066,2016
230322,-43024,-10488,-42555,-9787,393,494,23,-259,-154,-293,63,3964,35,37,897,1761,1871,2087,2255,2052,1946,2066,2016
231323,-42984,-10444,-42490,-9722,524,770,18,-277,-140,-320,113,3742,23,24,900,1761,1871,2087,2255,2052,1946,2066,2016
232324,-42948,-10388,-42425,-9657,609,631,21,-274,-130,-169,93,3815,37,27,895,1761,1871,2087,2255,2052,1946,2066,2016
233325,-42896,-10352,-42360,-9592,425,916,27,-271,-126,-246,146,3865,23,21,896,1761,1871,2087,2255,2052,1946,2066,2016
234326,-42856,-10304,-42295,-9527,605,788,38,-254,-117,-316,85,3926,38,20,895,1761,1871,2087,2255,2052,1946,2066,2016
235327,-42820,-10260,-42230,-9462,692,864,54,-251,-110,-152,2,3912,25,33,895,1768,1880,2092,2252,2043,1812,1881,2003
236328,-42752,-10240,-42165,-9397,288,1219,81,-234,-94,-124,35,4056,31,28,893,1768,1880,2092,2252,2043,1812,1881,2003
237329,-42700,-10184,-42100,-9332,504,781,96,-228,-76,-133,-7,3730,44,30,892,1768,1880,2092,2252,2043,1812,1881,2003
238330,-42648,-10124,-42035,-9267,520,737,116,-218,-60,-198,-14,3962,34,32,895,1768,1880,2092,2252,2043,1812,1881,2003
239331,-42612,-10116,-41970,-9202,755,1456,130,-209,-45,-209,168,3929,48,25,895,1768,1880,2092,2252,2043,1812,1881,2003
240332,-42524,-10064,-41905,-9137,78,923,144,-204,-27,-47,159,3900,40,27,882,1758,1866,2079,2332,2124,1804,1870,1984
241333,-42464,-10008,-41840,-9072,434,884,151,-208,-17,72,35,3782,34,31,897,1758,1866,2079,2332,2124,1804,1870,1984
242334,-42408,-9972,-41775,-9007,495,1169,163,-215,-3,-52,121,3911,29,32,895,1758,1866,2079,2332,2124,1804,1870,1984
243335,-42332,-9916,-41710,-8942,232,931,171,-215,5,-32,137,3742,30,30,891,1758,1866,2079,2332,2124,1804,1870,1984
244336,-42276,-9880,-41645,-8877,494,1217,185,-210,2,37,184,3901,40,22,895,1758,1866,2079,2332,2124,1804,1870,1984
245337,-42196,-9824,-41580,-8812,175,978,196,-208,16,87,233,3767,31,28,891,1758,1866,2079,2332,2124,1804,1870,1984
246338,-42140,-9768,-41515,-8747,486,990,204,-204,13,241,230,3744,38,30,896,1751,1853,2067,2240,2017,1795,1864,1977
247339,-42068,-9716,-41450,-8682,278,1056,225,-191,6,132,225,3707,49,27,893,1751,1853,2067,2240,2017,1795,1864,1977
248340,-42000,-9676,-41385,-8617,325,1237,234,-198,9,94,213,3829,29,28,895,1751,1853,2067,2240,2017,1795,1864,1977
249341,-41944,-9604,-41320,-8552,486,829,248,-172,18,171,53,3858,38,28,891,1751,1853,2067,2240,2017,1795,1864,1977
250342,-41864,-9544,-41255,-8487,168,985,265,-140,26,301,108,3881,45,29,895,1751,1853,2067,2240,2017,1795,1864,1977
251343,-41796,-9496,-41190,-8422,314,1157,287,-132,44,35,21,3711,32,44,895,1757,1968,2166,2249,2028,1806,1874,1991
252344,-41740,-9432,-41125,-8357,476,958,302,-124,54,29,50,3718,46,36,893,1757,1968,2166,2249,2028,1806,1874,1991
253345,-41688,-9368,-41060,-8292,542,960,325,-116,62,43,95,3819,45,38,894,1757,1968,2166,2249,2028,1806,1874,1991
254346,-41632,-9308,-40995,-8227,503,1016,344,-104,64,-142,13,3896,30,46,894,1757,1968,2166,2249,2028,1806,1874,1991
255347,-41564,-9240,-40930,-8162,349,912,368,-113,76,-146,133,3952,50,46,893,1757,1968,2166,2249,2028,1806,1874,1991
256348,-41508,-9180,-40865,-8097,510,1020,384,-139,83,-87,127,3734,49,33,895,1757,1968,2166,2249,2028,1806,1874,1991
257349,-41456,-9120,-40800,-8032,577,1026,397,-182,89,-80,123,3692,46,33,891,1761,1869,2087,2255,2031,1806,1875,1994
258350,-41388,-9064,-40735,-7967,374,1088,410,-210,86,-333,229,3637,50,42,892,1761,1869,2087,2255,2031,1806,1875,1994
259351,-41336,-9004,-40670,-7902,589,1044,420,-208,74,-237,150,3688,32,41,893,1761,1869,2087,2255,2031,1806,1875,1994
260352,-41272,-8956,-40605,-7837,441,1214,426,-203,74,44,296,3819,49,42,892,1761,1869,2087,2255,2031,1806,1875,1994
261353,-41196,-8884,-40540,-7772,278,907,434,-206,89,132,261,3904,35,43,891,1761,1869,2087,2255,2031,1806,1875,1994
262354,-41136,-8824,-40475,-7707,484,1063,432,-208,92,66,183,4093,37,30,895,1811,1878,2087,2249,2027,1798,1874,1998
263355,-41064,-8764,-40410,-7642,326,1070,435,-218,96,100,206,4038,50,42,893,1811,1878,2087,2249,2027,1798,1874,1998
264356,-41012,-8696,-40345,-7577,592,966,440,-228,100,247,138,3995,40,31,894,1811,1878,2087,2249,2027,1798,1874,1998
265357,-40948,-8640,-40280,-7512,444,1128,444,-219,109,197,148,4163,40,42,893,1811,1878,2087,2249,2027,1798,1874,1998
266358,-40880,-8572,-40215,-7447,390,975,447,-221,112,142,234,4072,50,42,892,1811,1878,2087,2249,2027,1798,1874,1998
267359,-40816,-8504,-40150,-7382,441,971,439,-221,99,143,-19,4101,43,38,894,1811,1878,2087,2249,2027,1798,1874,1998
268360,-40748,-8448,-40085,-7317,388,1133,445,-251,95,133,58,4039,31,42,894,1758,1870,2080,2238,2041,1812,1887,2018
269361,-40684,-8396,-40020,-7252,440,1199,451,-279,99,103,185,4187,36,41,893,1758,1870,2080,2238,2041,1812,1887,2018
270362,-40632,-8336,-39955,-7187,606,1106,467,-305,83,145,286,4128,32,44,891,1758,1870,2080,2238,2041,1812,1887,2018
271363,-40556,-8260,-39890,-7122,292,893,477,-326,65,-63,150,4015,42,34,891,1758,1870,2080,2238,2041,1812,1887,2018
272364,-40504,-8208,-39825,-7057,608,1210,476,-353,63,-55,93,4092,46,41,896,1758,1870,2080,2238,2041,1812,1887,2018
273365,-40444,-8148,-39760,-6992,515,1116,491,-371,53,140,245,4281,29,31,890,1755,1868,2086,2245,2080,1843,1912,2046
274366,-40372,-8076,-39695,-6927,357,957,509,-384,46,90,170,4011,34,36,890,1755,1868,2086,2245,2080,1843,1912,2046
275367,-40320,-8012,-39630,-6862,623,1059,525,-384,37,49,92,4206,47,44,895,1755,1868,2086,2245,2080,1843,1912,2046
276368,-40260,-7960,-39565,-6797,530,1225,549,-405,37,10,282,3971,48,39,892,1755,1868,2086,2245,2080,1843,1912,2046
277369,-40188,-7896,-39500,-6732,371,1077,563,-449,33,-72,304,4006,32,35,890,1755,1868,2086,2245,2080,1843,1912,2046
278370,-40128,-7848,-39435,-6667,527,1298,572,-463,39,-108,252,4239,31,32,893,1755,1868,2086,2245,2080,1843,1912,2046
279371,-40072,-7792,-39370,-6602,588,1210,571,-460,57,-67,127,4086,41,33,888,1763,1879,2102,2263,2091,1850,2083,2164
280372,-40012,-7720,-39305,-6537,546,1002,568,-438,70,195,258,4186,41,36,889,1763,1879,2102,2263,2091,1850,2083,2164
281373,-39972,-7680,-39240,-6472,826,1432,561,-419,82,109,260,4138,43,31,892,1763,1879,2102,2263,2091,1850,2083,2164
282374,-39920,-7612,-39175,-6407,692,1079,555,-403,96,-8,208,4080,46,40,884,1763,1879,2102,2263,2091,1850,2083,2164
283375,-39840,-7560,-39110,-6342,324,1295,541,-403,107,13,256,4104,49,36,889,1763,1879,2102,2263,2091,1850,2083,2164
284376,-39784,-7512,-39045,-6277,636,1367,531,-395,117,22,172,4186,37,32,890,1772,1884,2101,2265,2060,1827,1893,2016
285377,-39724,-7452,-38980,-6212,592,1223,520,-383,134,-40,109,4173,47,23,885,1772,1884,2101,2265,2060,1827,1893,2016
286378,-39656,-7416,-38915,-6147,488,1560,509,-366,135,105,201,4250,36,26,889,1772,1884,2101,2265,2060,1827,1893,2016
287379,-39596,-7348,-38850,-6082,594,1156,501,-354,131,212,296,4292,49,26,885,1772,1884,2101,2265,2060,1827,1893,2016
288380,-39512,-7288,-38785,-6017,272,1263,503,-372,125,106,136,4061,32,41,890,1772,1884,2101,2265,2060,1827,1893,2016
289381,-39464,-7244,-38720,-5952,743,1489,504,-398,118,-81,286,4360,38,42,891,1772,1884,2101,2265,2060,1827,1893,2016
290382,-39408,-7184,-38655,-5887,654,1296,529,-402,105,-93,456,4252,46,26,884,1759,1863,2084,2246,2152,1937,1890,2010
291383,-39340,-7120,-38590,-5822,501,1247,544,-418,80,435,409,4097,45,39,886,1759,1863,2084,2246,2152,1937,1890,2010
292384,-39268,-7064,-38525,-5757,442,1359,576,-411,66,280,171,4228,39,32,890,1759,1863,2084,2246,2152,1937,1890,2010
293385,-39196,-7004,-38460,-5692,434,1315,586,-412,74,50,261,4043,39,43,888,1759,1863,2084,2246,2152,1937,1890,2010
294386,-39152,-6944,-38395,-5627,810,1322,602,-383,80,152,359,4226,32,32,889,1759,1863,2084,2246,2152,1937,1890,2010
295387,-39080,-6876,-38330,-5562,452,1219,611,-374,90,275,390,4017,37,30,885,1745,1851,2076,2239,2062,1828,1893,2019
296388,-39020,-6816,-38265,-5497,608,1326,626,-376,104,121,332,4130,45,42,890,1745,1851,2076,2239,2062,1828,1893,2019
297389,-38960,-6736,-38200,-5432,614,1057,622,-371,125,-36,390,4094,40,32,887,1745,1851,2076,2239,2062,1828,1893,2019
298390,-38908,-6688,-38135,-5367,731,1479,609,-342,150,129,466,4000,37,44,890,1745,1851,2076,2239,2062,1828,1893,2019
299391,-38860,-6616,-38070,-5302,802,1171,586,-318,173,169,477,3865,35,30,884,1745,1851,2076,2239,2062,1828,1893,2019
300392,-38792,-6572,-38005,-5237,548,1547,578,-309,190,71,475,3800,36,45,887,1745,1851,2076,2239,2062,1828,1893,2019
301393,-38744,-6512,-37940,-5172,819,1353,567,-322,199,1,523,3781,51,41,885,1758,1870,2193,2333,2064,1827,1896,2023
302394,-38672,-6456,-37875,-5107,511,1415,556,-329,208,93,492,4019,34,39,885,1758,1870,2193,2333,2064,1827,1896,2023
303395,-38596,-6400,-37810,-5042,448,1426,544,-340,221,0,400,3680,49,45,886,1758,1870,2193,2333,2064,1827,1896,2023
304396,-38544,-6348,-37745,-4977,764,1493,541,-362,227,-143,294,3681,36,30,887,1758,1870,2193,2333,2064,1827,1896,2023
305397,-38480,-6296,-37680,-4912,616,1509,553,-384,223,33,461,3961,32,43,883,1758,1870,2193,2333,2064,1827,1896,2023
306398,-38400,-6248,-37615,-4847,398,1581,576,-396,217,-75,431,3922,48,44,885,1756,1866,2087,2240,2070,1827,1892,2026
307399,-38344,-6176,-37550,-4782,709,1272,587,-396,201,92,398,3912,43,32,885,1756,1866,2087,2240,2070,1827,1892,2026
308400,-38280,-6108,-37485,-4717,611,1319,612,-378,175,47,390,4061,39,43,885,1756,1866,2087,2240,2070,1827,1892,2026
309401,-38212,-6048,-37420,-4652,557,1426,629,-366,155,183,540,3939,43,35,887,1756,1866,2087,2240,2070,1827,1892,2026
310402,-38156,-5968,-37355,-4587,718,1158,655,-358,128,426,611,4044,34,44,887,1756,1866,2087,2240,2070,1827,1892,2026
311403,-38088,-5920,-37290,-4522,565,1579,674,-391,118,450,649,3879,41,28,888,1756,1866,2087,2240,2070,1827,1892,2026
312404,-38032,-5844,-37225,-4457,727,1217,673,-408,120,217,511,3763,38,41,883,1794,1938,2073,2215,2053,1811,1879,2007
313405,-37988,-5820,-37160,-4392,902,1918,665,-402,132,-42,548,4020,43,34,887,1794,1938,2073,2215,2053,1811,1879,2007
314406,-37916,-5740,-37095,-4327,544,1199,652,-392,155,25,570,3752,35,34,873,1794,1938,2073,2215,2053,1811,1879,2007
315407,-37852,-5684,-37030,-4262,646,1511,633,-389,160,197,444,3814,52,27,889,1794,1938,2073,2215,2053,1811,1879,2007
316408,-37792,-5636,-36965,-4197,702,1632,620,-401,185,-20,493,3892,45,30,884,1794,1938,2073,2215,2053,1811,1879,2007
317409,-37736,-5584,-36900,-4132,763,1599,616,-434,207,-2,548,3827,32,26,881,1738,1852,2071,2226,2031,1802,1873,1995
318410,-37680,-5532,-36835,-4067,775,1615,601,-459,222,-65,522,3855,34,40,881,1738,1852,2071,2226,2031,1802,1873,1995
319411,-37608,-5464,-36770,-4002,566,1412,597,-470,242,-24,672,3900,45,43,881,1738,1852,2071,2226,2031,1802,1873,1995
320412,-37560,-5400,-36705,-3937,887,1463,590,-468,257,234,553,4021,42,44,886,1738,1852,2071,2226,2031,1802,1873,1995
321413,-37496,-5336,-36640,-3872,689,1466,593,-456,251,343,468,4006,49,44,882,1738,1852,2071,2226,2031,1802,1873,1995
322414,-37436,-5280,-36575,-3807,746,1577,587,-436,248,89,444,4144,33,33,884,1738,1852,2071,2226,2031,1802,1873,1995
323415,-37384,-5212,-36510,-3742,861,1424,602,-416,246,91,497,3994,33,34,882,1751,1858,2078,2236,2052,1820,1887,2019
324416,-37328,-5160,-36445,-3677,823,1641,605,-420,221,273,546,4018,40,41,883,1751,1858,2078,2236,2052,1820,1887,2019
325417,-37264,-5108,-36380,-3612,725,1657,624,-427,192,54,547,3795,48,39,878,1751,1858,2078,2236,2052,1820,1887,2019
326418,-37208,-5032,-36315,-3547,836,1344,619,-456,177,-104,450,3768,49,47,881,1751,1858,2078,2236,2052,1820,1887,2019
327419,-37128,-4960,-36250,-3482,518,1386,621,-479,164,-121,505,3666,42,49,884,1751,1858,2078,2236,2052,1820,1887,2019
328420,-37064,-4900,-36185,-3417,719,1543,613,-488,157,-102,492,3936,50,43,887,1747,1857,2085,2241,2080,1839,1903,2151
329421,-36996,-4848,-36120,-3352,666,1659,604,-486,141,-56,438,3769,41,46,883,1747,1857,2085,2241,2080,1839,1903,2151
330422,-36944,-4772,-36055,-3287,883,1346,584,-486,144,21,432,3951,35,38,881,1747,1857,2085,2241,2080,1839,1903,2151
331423,-36880,-4724,-35990,-3222,734,1717,561,-474,148,185,443,3870,37,35,884,1747,1857,2085,2241,2080,1839,1903,2151
332424,-36824,-4652,-35925,-3157,845,1409,545,-458,171,102,451,3923,34,42,880,1747,1857,2085,2241,2080,1839,1903,2151
333431,-36752,-4584,-35860,-3092,637,1457,527,-444,184,82,468,4088,41,34,883,1747,1857,2085,2241,2080,1839,1903,2151
334426,-36692,-4524,-35795,-3027,793,1563,507,-413,196,63,413,4076,53,43,883,1744,1856,2080,2228,2083,1841,1904,2039
335427,-36628,-4468,-35730,-2962,745,1625,493,-384,209,331,429,4109,34,29,882,1744,1856,2080,2228,2083,1841,1904,2039
336428,-36564,-4404,-35665,-2897,747,1526,470,-351,219,356,342,4024,40,40,881,1744,1856,2080,2228,2083,1841,1904,2039
337429,-36504,-4340,-35600,-2832,803,1528,460,-341,245,160,522,4363,44,43,883,1744,1856,2080,2228,2083,1841,1904,2039
338430,-36448,-4284,-35535,-2767,864,1639,455,-325,261,106,572,4251,41,42,882,1744,1856,2080,2228,2083,1841,1904,2039
339431,-36408,-4216,-35470,-2702,1096,1487,434,-326,257,210,472,4129,46,43,877,1718,1827,2052,2199,2089,1959,2070,2056
340432,-36352,-4172,-35405,-2637,907,1813,427,-340,265,193,504,4190,34,41,879,1718,1827,2052,2199,2089,1959,2070,2056
341433,-36304,-4124,-35340,-2572,1027,1784,412,-344,271,196,493,4066,45,35,876,1718,1827,2052,2199,2089,1959,2070,2056
342434,-36248,-4060,-35275,-2507,939,1586,408,-350,282,70,480,4098,38,46,873,1718,1827,2052,2199,2089,1959,2070,2056
343435,-36176,-4000,-35210,-2442,731,1642,405,-367,281,23,464,3881,51,34,878,1718,1827,2052,2199,2089,1959,2070,2056
344436,-36116,-3936,-35145,-2377,887,1595,406,-401,276,-134,490,3949,34,38,882,1718,1827,2052,2199,2089,1959,2070,2056
345437,-36064,-3852,-35080,-2312,1004,1322,401,-422,272,49,561,4029,32,46,880,1712,1824,2058,2208,2104,1856,1913,2051
346438,-36020,-3772,-35015,-2247,1129,1354,415,-440,276,275,420,4250,32,45,883,1712,1824,2058,2208,2104,1856,1913,2051
347439,-35944,-3724,-34950,-2182,717,1776,433,-499,287,613,161,3976,31,44,880,1712,1824,2058,2208,2104,1856,1913,2051
348440,-35888,-3660,-34885,-2117,978,1577,381,-579,309,-164,16,3529,46,40,878,1712,1824,2058,2208,2104,1856,1913,2051
349441,-35816,-3620,-34820,-2052,769,1909,252,-519,247,-1751,332,4241,38,42,879,1712,1824,2058,2208,2104,1856,1913,2051
350442,-35752,-3544,-34755,-1987,872,1446,140,-361,190,156,482,4188,39,46,876,1740,1856,2088,2328,2177,1866,1917,2057
351443,-35700,-3492,-34690,-1922,1037,1762,142,-331,278,1922,157,3982,37,33,882,1740,1856,2088,2328,2177,1866,1917,2057
352444,-35636,-3432,-34625,-1857,889,1669,132,-445,341,157,477,4015,32,40,875,1740,1856,2088,2328,2177,1866,1917,2057
353445,-35600,-3356,-34560,-1792,1275,1456,92,-501,302,-1149,759,3801,48,51,879,1740,1856,2088,2328,2177,1866,1917,2057
354446,-35532,-3292,-34495,-1727,871,1608,56,-439,271,478,572,4159,28,41,878,1740,1856,2088,2328,2177,1866,1917,2057
355447,-35468,-3224,-34430,-1662,924,1554,60,-346,322,1387,280,3861,39,53,880,1749,1865,2080,2219,2113,1861,1933,2079
356448,-35412,-3152,-34365,-1597,1035,1497,77,-323,373,435,605,4097,30,50,879,1749,1865,2080,2219,2113,1861,1933,2079
357449,-35372,-3092,-34300,-1532,1265,1654,84,-353,379,-209,536,3827,47,45,880,1749,1865,2080,2219,2113,1861,1933,2079
358450,-35292,-3028,-34235,-1467,748,1605,106,-377,381,229,562,4092,50,35,875,1749,1865,2080,2219,2113,1861,1933,2079
359451,-35248,-2964,-34170,-1402,1223,1607,127,-411,381,310,580,3955,38,50,879,1749,1865,2080,2219,2113,1861,1933,2079
360452,-35184,-2888,-34105,-1337,976,1444,146,-454,383,-46,515,3917,42,46,876,1749,1865,2080,2219,2113,1861,1933,2079
361453,-35120,-2832,-34040,-1272,977,1706,171,-495,394,-184,737,4246,51,42,881,1711,1903,2123,2217,2102,1847,1903,2034
362454,-35068,-2784,-33975,-1207,1143,1828,185,-547,394,55,716,3949,36,35,877,1711,1903,2123,2217,2102,1847,1903,2034
363455,-35004,-2700,-33910,-1142,995,1354,193,-573,384,56,690,4236,34,35,873,1711,1903,2123,2217,2102,1847,1903,2034
364456,-34944,-2636,-33845,-1077,1051,1607,190,-615,395,-39,741,3945,51,36,881,1711,1903,2123,2217,2102,1847,1903,2034
365457,-34868,-2568,-33780,-1012,839,1553,191,-639,405,75,897,4335,39,36,878,1711,1903,2123,2217,2102,1847,1903,2034
366458,-34832,-2504,-33715,-947,1374,1605,183,-651,407,213,864,3979,50,39,881,1719,1833,2062,2218,2039,1800,1867,1991
367459,-34760,-2420,-33650,-882,916,1333,160,-632,399,368,808,4288,43,34,874,1719,1833,2062,2218,2039,1800,1867,1991
368460,-34712,-2364,-33585,-817,1237,1694,144,-598,413,405,830,4253,35,37,883,1719,1833,2062,2218,2039,1800,1867,1991
369461,-34652,-2312,-33520,-752,1093,1761,129,-573,430,407,851,4150,36,34,874,1719,1833,2062,2218,2039,1800,1867,1991
370462,-34592,-2256,-33455,-687,1100,1722,116,-538,433,613,902,4055,41,35,875,1719,1833,2062,2218,2039,1800,1867,1991
371463,-34536,-2188,-33390,-622,1161,1569,95,-525,449,540,883,3982,47,50,875,1719,1833,2062,2218,2039,1800,1867,1991
372464,-34472,-2120,-33325,-557,1064,1566,94,-470,469,477,814,4139,56,50,877,1825,1925,2116,2280,2030,1802,1876,2004
373465,-34416,-2068,-33260,-492,1175,1782,102,-425,487,593,808,4041,43,51,878,1825,1925,2116,2280,2030,1802,1876,2004
374466,-34364,-2016,-33195,-427,1242,1799,123,-414,509,365,787,3730,40,49,874,1825,1925,2116,2280,2030,1802,1876,2004
375467,-34276,-1936,-33130,-362,763,1431,141,-419,525,70,625,3855,61,52,872,1825,1925,2116,2280,2030,1802,1876,2004
376468,-34220,-1880,-33065,-297,1174,1743,176,-429,536,143,784,3895,63,45,882,1825,1925,2116,2280,2030,1802,1876,2004
377469,-34136,-1780,-33000,-232,802,1151,212,-454,561,25,757,3890,56,49,875,1793,1897,2127,2287,2058,1825,1887,2011
378470,-34072,-1712,-32935,-167,1053,1547,257,-454,576,-2,857,4058,39,53,887,1793,1897,2127,2287,2058,1825,1887,2011
379471,-33988,-1656,-32870,-102,781,1709,298,-487,591,-134,915,3798,55,46,879,1793,1897,2127,2287,2058,1825,1887,2011
380472,-33928,-1588,-32805,-37,1087,1556,329,-512,593,-44,805,4023,49,37,879,1793,1897,2127,2287,2058,1825,1887,2011
381475,-33856,-1524,-32740,28,930,1608,353,-536,582,-4,931,4028,39,33,879,1793,1897,2127,2287,2058,1825,1887,2011
382474,-33796,-1452,-32675,93,1086,1499,381,-530,577,-22,1116,4294,53,37,879,1793,1897,2127,2287,2058,1825,1887,2011
383475,-33736,-1396,-32610,158,1092,1711,399,-508,569,367,1189,4180,48,31,879,1766,1867,2096,2254,2043,1806,1872,1989
384476,-33660,-1348,-32545,223,880,1833,410,-488,566,384,1123,4181,53,37,875,1766,1867,2096,2254,2043,1806,1872,1989
385477,-33620,-1280,-32480,288,1360,1580,404,-475,573,268,1093,4152,53,38,875,1766,1867,2096,2254,2043,1806,1872,1989
386478,-33560,-1216,-32415,353,1117,1632,416,-440,577,352,1088,4292,33,44,874,1766,1867,2096,2254,2043,1806,1872,1989
387479,-33496,-1144,-32350,418,1068,1523,421,-404,594,304,1087,4350,46,43,877,1766,1867,2096,2254,2043,1806,1872,1989
388480,-33436,-1076,-32285,483,1126,1571,429,-352,611,317,1034,4425,45,37,879,1750,1854,2075,2233,2027,1797,1973,2112
389481,-33380,-1024,-32220,548,1187,1787,428,-300,634,499,864,4296,50,46,878,1750,1854,2075,2233,2027,1797,1973,2112
390482,-33320,-972,-32155,613,1143,1803,438,-264,651,341,863,4219,46,45,873,1750,1854,2075,2233,2027,1797,1973,2112
391483,-33248,-888,-32090,678,985,1381,430,-247,668,234,783,4195,37,41,873,1750,1854,2075,2233,2027,1797,1973,2112
392484,-33180,-836,-32025,743,1031,1797,432,-235,688,264,676,4038,55,36,881,1750,1854,2075,2233,2027,1797,1973,2112
393485,-33112,-788,-31960,808,1029,1869,433,-241,718,108,814,4076,35,36,873,1750,1854,2075,2233,2027,1797,1973,2112
394486,-33060,-712,-31895,873,1245,1506,441,-248,720,43,937,3798,37,39,874,1756,1862,2094,2251,2059,1833,1893,2025
395487,-32996,-644,-31830,938,1097,1603,442,-291,724,3,789,3806,45,39,877,1756,1862,2094,2251,2059,1833,1893,2025
396488,-32944,-576,-31765,1003,1263,1600,451,-324,718,-163,810,3885,36,45,877,1756,1862,2094,2251,2059,1833,1893,2025
397489,-32884,-512,-31700,1068,1170,1651,444,-357,712,-124,827,3567,51,52,876,1756,1862,2094,2251,2059,1833,1893,2025
398490,-32824,-456,-31635,1133,1176,1763,436,-383,689,120,841,3920,37,45,875,1756,1862,2094,2251,2059,1833,1893,2025
399491,-32752,-380,-31570,1198,1017,1501,429,-385,688,171,873,3832,39,43,873,1757,1855,2095,2259,2144,1943,2047,2047
400492,-32676,-304,-31505,1263,955,1487,417,-386,692,124,747,3628,38,50,879,1757,1855,2095,2259,2144,1943,2047,2047
401493,-32620,-248,-31440,1328,1216,1749,420,-377,686,-3,734,3823,40,38,879,1757,1855,2095,2259,2144,1943,2047,2047
402494,-32560,-196,-31375,1393,1173,1815,429,-369,676,102,903,3848,33,28,874,1757,1855,2095,2259,2144,1943,2047,2047
403495,-32524,-120,-31310,1458,1508,1503,429,-342,652,366,800,4062,35,38,872,1757,1855,2095,2259,2144,1943,2047,2047
404496,-32440,-80,-31245,1523,886,1984,421,-302,632,360,998,4372,37,36,873,1757,1855,2095,2259,2144,1943,2047,2047
405497,-32372,-12,-31180,1588,1083,1631,398,-311,628,175,1102,4047,51,44,873,1738,1850,2074,2208,2084,1836,1899,2036
406498,-32316,60,-31115,1653,1245,1573,372,-313,620,129,1035,4189,57,48,877,1738,1850,2074,2208,2084,1836,1899,2036
407499,-32244,124,-31050,1718,1036,1674,330,-305,609,-5,948,4288,48,34,876,1738,1850,2074,2208,2084,1836,1899,2036
408500,-32180,180,-30985,1783,1138,1786,298,-255,602,136,1055,4117,50,39,876,1738,1850,2074,2208,2084,1836,1899,2036
409501,-32128,252,-30920,1848,1304,1579,252,-230,602,278,917,4093,52,47,874,1738,1850,2074,2208,2084,1836,1899,2036
410502,-32048,320,-30855,1913,936,1625,217,-233,604,45,1012,4148,48,39,873,1707,1822,2069,2261,2164,1835,1899,2039
411503,-31984,396,-30790,1978,1138,1513,173,-278,622,-363,802,3791,35,57,878,1707,1822,2069,2261,2164,1835,1899,2039
412504,-31908,468,-30725,2043,975,1554,153,-273,622,67,815,4168,44,39,878,1707,1822,2069,2261,2164,1835,1899,2039
413505,-31856,520,-30660,2108,1291,1821,133,-270,629,70,804,4041,47,39,879,1707,1822,2069,2261,2164,1835,1899,2039
414506,-31784,592,-30595,2173,1033,1563,125,-263,614,-23,787,3956,41,41,872,1707,1822,2069,2261,2164,1835,1899,2039
415507,-31720,672,-30530,2238,1135,1445,113,-306,592,-75,774,3983,49,54,878,1707,1822,2069,2261,2164,1835,1899,2039
416508,-31676,720,-30465,2303,1411,1867,111,-329,595,-29,743,3947,49,53,879,1697,1812,2050,2189,2118,1875,1923,2071
417509,-31604,792,-30400,2368,1053,1558,96,-335,598,46,645,3927,37,51,869,1697,1812,2050,2189,2118,1875,1923,2071
418510,-31544,868,-30335,2433,1209,1496,83,-313,569,-61,613,3862,41,56,878,1697,1812,2050,2189,2118,1875,1923,2071
419511,-31468,944,-30270,2498,997,1483,59,-314,556,-48,553,3780,56,42,877,1697,1812,2050,2189,2118,1875,1923,2071
420512,-31412,1016,-30205,2563,1258,1525,39,-317,546,286,819,3979,42,46,880,1697,1812,2050,2189,2118,1875,1923,2071
421513,-31356,1092,-30140,2628,1269,1463,17,-305,558,118,742,3780,36,47,877,1713,1921,2170,2215,2126,1878,1925,2066
422514,-31284,1164,-30075,2693,1061,1504,-7,-268,531,215,989,3783,46,42,877,1713,1921,2170,2215,2126,1878,1925,2066
423515,-31208,1244,-30010,2758,998,1387,-34,-253,518,75,907,3787,45,55,879,1713,1921,2170,2215,2126,1878,1925,2066
424516,-31140,1300,-29945,2823,1095,1699,-63,-231,500,143,973,3879,50,48,882,1713,1921,2170,2215,2126,1878,1925,2066
425517,-31076,1360,-29880,2888,1146,1655,-95,-189,476,96,1170,4071,40,39,877,1713,1921,2170,2215,2126,1878,1925,2066
426518,-31012,1440,-29815,2953,1149,1387,-134,-157,460,67,1201,3991,57,55,876,1713,1921,2170,2215,2126,1878,1925,2066
427519,-30944,1504,-29750,3018,1095,1589,-165,-124,448,75,1153,4023,54,41,878,1728,1837,2072,2218,2086,1842,1899,2027
428520,-30876,1576,-29685,3083,1092,1481,-196,-121,450,-35,1148,3987,57,40,878,1728,1837,2072,2218,2086,1842,1899,2027
429521,-30804,1652,-29620,3148,1034,1418,-220,-112,443,-95,1127,3958,57,50,879,1728,1837,2072,2218,2086,1842,1899,2027
430522,-30740,1724,-29555,3213,1136,1460,-241,-110,434,-186,1169,4115,59,43,880,1728,1837,2072,2218,2086,1842,1899,2027
431523,-30668,1796,-29490,3278,1027,1453,-243,-111,443,-54,1001,4012,49,49,879,1728,1837,2072,2218,2086,1842,1899,2027
432524,-30592,1856,-29425,3343,964,1609,-246,-103,450,-109,940,4075,51,52,880,1768,1824,2056,2201,2063,1824,1882,2013
433525,-30532,1900,-29360,3408,1171,1835,-246,-87,453,-136,946,4105,40,39,879,1768,1824,2056,2201,2063,1824,1882,2013
434526,-30472,1976,-29295,3473,1177,1422,-247,-65,458,23,968,4053,36,40,873,1768,1824,2056,2201,2063,1824,1882,2013
435527,-30388,2052,-29230,3538,855,1409,-240,-45,471,137,979,4180,39,49,878,1768,1824,2056,2201,2063,1824,1882,2013
436528,-30324,2124,-29165,3603,1106,1451,-226,-9,487,151,987,3990,40,54,883,1768,1824,2056,2201,2063,1824,1882,2013
437529,-30252,2180,-29100,3668,999,1663,-204,23,495,179,920,4073,55,43,880,1768,1824,2056,2201,2063,1824,1882,2013
438530,-30184,2240,-29035,3733,1045,1620,-181,62,497,307,947,3961,51,52,877,1716,1826,2068,2214,2067,1830,1886,2016
439531,-30120,2320,-28970,3798,1096,1352,-162,82,481,181,921,3919,52,51,877,1716,1826,2068,2214,2067,1830,1886,2016
440532,-30060,2372,-28905,3863,1153,1719,-149,108,468,23,1091,4050,46,40,881,1716,1826,2068,2214,2067,1830,1886,2016
441533,-30000,2436,-28840,3928,1160,1570,-135,130,466,213,1259,3823,52,37,875,1716,1826,2068,2214,2067,1830,1886,2016
442534,-29924,2496,-28775,3993,947,1627,-127,160,468,412,1254,3796,52,48,876,1716,1826,2068,2214,2067,1830,1886,2016
443535,-29856,2544,-28710,4058,1043,1798,-121,166,470,280,1256,3631,54,48,878,1745,1844,2080,2256,2048,1812,1876,1996
444536,-29788,2600,-28645,4123,1041,1710,-120,171,457,25,1347,3634,38,32,873,1745,1844,2080,2256,2048,1812,1876,1996
445537,-29720,2672,-28580,4188,1037,1502,-122,176,424,-81,1321,3790,52,31,876,1745,1844,2080,2256,2048,1812,1876,1996
446538,-29652,2724,-28515,4253,1034,1768,-123,194,423,47,1450,3879,48,39,879,1745,1844,2080,2256,2048,1812,1876,1996
447539,-29600,2776,-28450,4318,1250,1785,-126,219,438,307,1349,3794,52,31,875,1745,1844,2080,2256,2048,1812,1876,1996
448540,-29516,2828,-28385,4383,827,1801,-116,243,437,141,1373,3868,39,46,872,1745,1844,2080,2256,2048,1812,1876,1996
449541,-29456,2896,-28186,4582,1985,2449,-105,249,433,-35,1332,3907,48,46,874,1782,1879,2107,2276,2018,1791,1996,2087
450542,-29396,2960,-28121,4647,1991,2501,-88,256,448,58,1293,3935,43,46,853,1782,1879,2107,2276,2018,1791,1996,2087
451543,-29304,3028,-28056,4712,1559,2447,-62,290,469,186,1173,4093,52,37,851,1782,1879,2107,2276,2018,1791,1996,2087
452544,-29220,3108,-27991,4777,1636,2280,-26,313,500,107,1085,3968,56,51,857,1782,1879,2107,2276,2018,1791,1996,2087
453545,-29120,3200,-27926,4842,1394,2097,14,349,525,93,1061,4205,66,50,860,1782,1879,2107,2276,2018,1791,1996,2087
454546,-29012,3312,-27861,4907,1242,1791,50,389,553,81,1077,4298,77,72,867,1758,1858,2088,2242,2014,1786,1852,1976
455547,-28896,3432,-27796,4972,1080,1624,119,445,565,139,1114,4504,67,75,874,1758,1858,2088,2242,2014,1786,1852,1976
456548,-28776,3556,-27731,5037,963,1502,143,431,575,61,1161,4095,69,80,879,1758,1858,2088,2242,2014,1786,1852,1976
457549,-28676,3664,-27666,5102,1170,1651,176,454,584,196,1305,4465,64,79,881,1758,1858,2088,2242,2014,1786,1852,1976
458550,-28536,3780,-27601,5167,580,1489,199,472,563,45,1428,4452,75,83,877,1758,1858,2088,2242,2014,1786,1852,1976
459551,-28444,3900,-27536,5232,1147,1372,195,489,537,-62,1397,4258,72,77,885,1758,1858,2088,2242,2014,1786,1852,1976
460552,-28356,4008,-27471,5297,1170,1470,226,491,545,494,1773,4476,54,66,882,1751,1855,2090,2249,2115,1915,1871,1998
461553,-28252,4120,-27406,5362,922,1364,253,514,543,463,1749,4217,61,69,878,1751,1855,2090,2249,2115,1915,1871,1998
462554,-28176,4224,-27341,5427,1259,1416,271,488,490,-26,1584,4313,76,64,884,1751,1855,2090,2249,2115,1915,1871,1998
463555,-28072,4320,-27276,5492,861,1479,290,496,474,-177,1396,4485,58,68,880,1751,1855,2090,2249,2115,1915,1871,1998
464556,-27960,4416,-27211,5557,705,1441,297,499,474,364,1571,4142,56,68,883,1751,1855,2090,2249,2115,1915,1871,1998
465557,-27864,4520,-27146,5622,867,1295,311,532,484,149,1529,4431,60,68,886,1786,1892,2132,2299,2063,1833,1900,2031
466558,-27780,4616,-27081,5687,994,1357,319,536,493,-62,1468,4224,58,58,886,1786,1892,2132,2299,2063,1833,1900,2031
467559,-27688,4716,-27016,5752,862,1264,317,529,503,-16,1411,4157,63,71,883,1786,1892,2132,2299,2063,1833,1900,2031
468560,-27596,4816,-26951,5817,829,1222,327,533,504,3,1669,4370,53,60,886,1786,1892,2132,2299,2063,1833,1900,2031
469561,-27496,4912,-26886,5882,686,1235,332,526,508,43,1566,4316,62,59,887,1786,1892,2132,2299,2063,1833,1900,2031
470562,-27424,4996,-26821,5947,1028,1362,338,525,514,191,1300,4333,49,60,888,1786,1892,2132,2299,2063,1833,1900,2031
471563,-27344,5104,-26756,6012,910,1010,351,516,536,-34,1449,4450,56,51,883,1807,1913,2247,2397,2088,1852,1911,2049
472564,-27248,5188,-26691,6077,672,1287,381,528,568,6,1680,4359,59,57,888,1807,1913,2247,2397,2088,1852,1911,2049
473565,-27160,5252,-26626,6142,744,1539,413,508,593,204,1336,4304,49,54,888,1807,1913,2247,2397,2088,1852,1911,2049
474566,-27084,5328,-26561,6207,881,1375,442,450,577,27,1324,4335,60,52,884,1807,1913,2247,2397,2088,1852,1911,2049
475567,-27016,5428,-26496,6272,977,1033,463,402,573,-422,1536,4581,39,61,884,1807,1913,2247,2397,2088,1852,1911,2049
476568,-26940,5496,-26431,6337,865,1430,479,404,583,-26,1698,4608,53,61,887,1777,1881,2123,2265,2081,1839,1896,2036
477569,-26864,5568,-26366,6402,851,1372,500,410,594,575,1664,4635,38,50,883,1777,1881,2123,2265,2081,1839,1896,2036
478570,-26800,5656,-26301,6467,1003,1143,504,391,581,283,1617,4601,44,43,883,1777,1881,2123,2265,2081,1839,1896,2036
479571,-26716,5720,-26236,6532,729,1446,515,391,562,-195,1804,4767,52,41,885,1777,1881,2123,2265,2081,1839,1896,2036
480572,-26656,5792,-26171,6597,1036,1337,518,388,550,127,1904,4533,59,43,884,1777,1881,2123,2265,2081,1839,1896,2036
481573,-26584,5860,-26106,6662,878,1384,527,377,533,451,1853,4729,46,55,883,1777,1881,2123,2265,2081,1839,1896,2036
482574,-26504,5932,-26041,6727,760,1325,534,392,529,138,1646,4542,48,56,883,1804,1963,2097,2236,2066,1822,1885,2025
483575,-26432,6008,-25976,6792,851,1263,528,416,547,-42,1703,4545,38,59,885,1804,1963,2097,2236,2066,1822,1885,2025
484576,-26356,6080,-25911,6857,788,1304,516,441,573,-138,1772,4300,41,55,885,1804,1963,2097,2236,2066,1822,1885,2025
485577,-26284,6148,-25846,6922,829,1350,516,460,584,106,1795,4351,56,45,885,1804,1963,2097,2236,2066,1822,1885,2025
486578,-26204,6216,-25781,6987,711,1348,513,465,591,87,1732,4199,46,45,885,1804,1963,2097,2236,2066,1822,1885,2025
487579,-26120,6304,-25716,7052,639,1070,509,449,599,-205,1694,4146,59,55,886,1768,1876,2112,2258,2072,1831,1893,2032
488580,-26044,6376,-25651,7117,725,1261,507,456,616,-268,1661,4113,58,44,890,1768,1876,2112,2258,2072,1831,1893,2032
489581,-25976,6436,-25586,7182,822,1418,509,463,646,-192,1597,4026,38,46,887,1768,1876,2112,2258,2072,1831,1893,2032
490582,-25888,6508,-25521,7247,543,1260,518,470,694,-116,1572,3939,38,39,884,1768,1876,2112,2258,2072,1831,1893,2032
491583,-25804,6572,-25456,7312,570,1361,522,445,738,-180,1442,3664,57,45,888,1768,1876,2112,2258,2072,1831,1893,2032
492584,-25716,6648,-25391,7377,492,1197,515,415,793,-656,1164,3524,40,51,887,1768,1876,2112,2258,2072,1831,1893,2032
493585,-25636,6724,-25326,7442,574,1185,506,379,838,-607,1285,3365,58,49,890,1769,1874,2122,2264,2089,1850,1897,2033
494586,-25568,6784,-25261,7507,720,1391,492,335,874,-515,1416,3216,45,46,889,1769,1874,2122,2264,2089,1850,1897,2033
495587,-25476,6856,-25196,7572,388,1233,479,266,896,-298,1471,3132,59,37,884,1769,1874,2122,2264,2089,1850,1897,2033
496588,-25400,6916,-25131,7637,575,1389,468,205,913,-161,1434,3181,42,38,890,1769,1874,2122,2264,2089,1850,1897,2033
497589,-25328,6988,-25066,7702,616,1231,465,157,916,-53,1543,3143,58,51,887,1769,1874,2122,2264,2089,1850,1897,2033
498590,-25236,7064,-25001,7767,333,1168,469,90,926,90,1509,3098,56,37,888,1738,1833,2071,2197,2067,1819,1869,2113
499591,-25152,7108,-24936,7832,410,1593,471,39,942,210,1542,3094,48,38,892,1738,1833,2071,2197,2067,1819,1869,2113
500592,-25068,7188,-24871,7897,387,1126,470,-6,974,337,1410,3107,43,41,886,1738,1833,2071,2197,2067,1819,1869,2113
501593,-24980,7264,-24806,7962,309,1163,461,-8,1007,380,1318,3192,44,41,891,1738,1833,2071,2197,2067,1819,1869,2113
502594,-24904,7344,-24741,8027,445,1094,461,-30,1051,316,1348,2947,57,59,893,1738,1833,2071,2197,2067,1819,1869,2113
503595,-24808,7412,-24676,8092,158,1241,473,-35,1084,569,1605,3109,49,42,893,1738,1833,2071,2197,2067,1819,1869,2113
504596,-24732,7496,-24611,8157,394,1018,485,-62,1118,499,1498,2933,38,52,893,1677,1780,1993,2101,2011,1757,1827,1967
505597,-24660,7568,-24546,8222,436,1160,486,-126,1137,231,1424,2724,40,46,894,1677,1780,1993,2101,2011,1757,1827,1967
506598,-24572,7672,-24481,8287,208,712,468,-194,1169,23,1469,2703,39,55,892,1677,1780,1993,2101,2011,1757,1827,1967
507599,-24492,7744,-24416,8352,289,1104,472,-250,1233,20,1571,2469,57,49,897,1677,1780,1993,2101,2011,1757,1827,1967
508600,-24416,7816,-24351,8417,326,1096,463,-323,1291,22,1425,2308,52,43,895,1677,1780,1993,2101,2011,1757,1827,1967
509601,-24344,7920,-24286,8482,367,649,450,-441,1342,-205,1202,1969,37,50,894,1657,1777,1980,2092,1981,1845,1931,1953
510602,-24268,8016,-24221,8547,304,711,429,-557,1383,-576,1233,2179,46,59,897,1657,1777,1980,2092,1981,1845,1931,1953
511603,-24196,8080,-24156,8612,345,1112,419,-651,1435,-525,1226,1883,54,59,898,1657,1777,1980,2092,1981,1845,1931,1953
512604,-24116,8152,-24091,8677,227,1003,398,-718,1507,-40,1065,1934,38,45,892,1657,1777,1980,2092,1981,1845,1931,1953
513605,-24056,8252,-24026,8742,483,612,400,-777,1542,389,1036,1718,47,48,895,1657,1777,1980,2092,1981,1845,1931,1953
514606,-23968,8344,-23961,8807,105,679,395,-838,1580,-33,958,1864,47,55,898,1657,1777,1980,2092,1981,1845,1931,1953
515607,-23912,8416,-23896,8872,516,920,403,-883,1612,-20,1012,1748,38,48,899,1679,1806,2011,2124,1985,1740,1820,1956
516608,-23836,8500,-23831,8937,254,747,407,-910,1635,488,940,1847,45,57,895,1679,1806,2011,2124,1985,1740,1820,1956
517609,-23768,8588,-23766,9002,350,669,415,-926,1646,740,863,1824,53,54,897,1679,1806,2011,2124,1985,1740,1820,1956
518610,-23680,8668,-23701,9067,72,751,422,-931,1682,498,977,1853,49,63,898,1679,1806,2011,2124,1985,1740,1820,1956
519611,-23608,8756,-23636,9132,262,623,418,-933,1705,445,960,1819,35,54,899,1679,1806,2011,2124,1985,1740,1820,1956
520612,-23524,8852,-23571,9197,89,486,409,-949,1724,649,1001,1883,51,65,900,1688,1799,2007,2213,2075,1738,1809,1927
521613,-23464,8960,-23506,9262,395,283,405,-968,1737,616,1036,1924,32,61,901,1688,1799,2007,2213,2075,1738,1809,1927
522614,-23388,9040,-23441,9327,182,615,408,-978,1763,596,1104,1927,49,47,902,1688,1799,2007,2213,2075,1738,1809,1927
523615,-23308,9136,-23376,9392,113,377,414,-1005,1792,558,1028,1773,50,53,901,1688,1799,2007,2213,2075,1738,1809,1927
524616,-23232,9224,-23311,9457,150,449,414,-1035,1806,487,1042,1892,42,48,902,1688,1799,2007,2213,2075,1738,1809,1927
525617,-23160,9308,-23246,9522,192,476,408,-1063,1821,286,963,2018,35,46,902,1688,1799,2007,2213,2075,1738,1809,1927
526618,-23096,9388,-23181,9587,293,507,404,-1080,1856,311,1134,2144,44,56,902,1657,1750,1964,2104,1960,1740,1796,1896
527619,-23028,9488,-23116,9652,239,215,394,-1061,1910,404,974,2167,37,53,901,1657,1750,1964,2104,1960,1740,1796,1896
528620,-22964,9556,-23051,9717,290,611,392,-1051,1945,333,1017,2153,38,46,903,1657,1750,1964,2104,1960,1740,1796,1896
529621,-22888,9636,-22986,9782,127,444,394,-1020,1969,279,903,2510,32,43,899,1657,1750,1964,2104,1960,1740,1796,1896
530622,-22820,9728,-22921,9847,223,261,395,-977,2008,473,858,2312,49,46,901,1657,1750,1964,2104,1960,1740,1796,1896
531623,-22760,9812,-22856,9912,329,338,405,-926,2044,493,877,2481,29,44,903,1625,1816,2051,2095,1961,1745,1801,1903
532624,-22692,9892,-22791,9977,226,369,408,-862,2073,395,662,2281,34,54,902,1625,1816,2051,2095,1961,1745,1801,1903
533625,-22612,9968,-22726,10042,57,406,415,-772,2086,475,697,2408,44,49,902,1625,1816,2051,2095,1961,1745,1801,1903
534626,-22560,10044,-22661,10107,423,392,410,-681,2103,517,601,2243,48,48,903,1625,1816,2051,2095,1961,1745,1801,1903
535627,-22484,10140,-22596,10172,110,105,408,-588,2116,625,523,2220,37,49,901,1625,1816,2051,2095,1961,1745,1801,1903
536628,-22408,10212,-22531,10237,96,396,393,-471,2118,631,453,2239,48,54,904,1625,1816,2051,2095,1961,1745,1801,1903
537629,-22324,10300,-22466,10302,-27,168,375,-352,2120,564,549,2154,41,54,903,1647,1758,1992,2144,1996,1776,1830,1936
538630,-22260,10384,-22401,10367,224,195,339,-213,2111,468,462,2258,31,44,905,1647,1758,1992,2144,1996,1776,1830,1936
539631,-22188,10472,-22336,10432,116,117,306,-66,2090,529,554,2268,38,49,904,1647,1758,1992,2144,1996,1776,1830,1936
540632,-22132,10536,-22271,10497,327,418,267,87,2070,576,622,2385,47,37,905,1647,1758,1992,2144,1996,1776,1830,1936
541633,-22052,10636,-22206,10562,9,-75,223,219,2041,655,710,2436,48,35,902,1647,1758,1992,2144,1996,1776,1830,1936
542634,-21996,10732,-22141,10627,319,-63,164,328,2010,615,790,2455,36,44,904,1729,1778,2014,2172,2012,1800,1841,1935
543635,-21924,10812,-22076,10692,111,119,113,464,1980,534,736,2556,39,50,904,1729,1778,2014,2172,2012,1800,1841,1935
544636,-21844,10912,-22011,10757,-8,-174,48,588,1954,528,621,2635,46,34,904,1729,1778,2014,2172,2012,1800,1841,1935
545637,-21768,11012,-21946,10822,28,-216,-7,689,1945,491,594,2699,48,48,905,1729,1778,2014,2172,2012,1800,1841,1935
546638,-21688,11136,-21881,10887,-40,-589,-60,771,1932,762,507,2555,28,33,903,1729,1778,2014,2172,2012,1800,1841,1935
547639,-21620,11220,-21816,10952,106,-113,-106,886,1928,966,346,2791,41,27,901,1729,1778,2014,2172,2012,1800,1841,1935
548640,-21556,11288,-21751,11017,157,84,-161,996,1932,646,96,2713,39,42,904,1640,1730,1974,2136,2040,1827,1847,1947
549641,-21488,11344,-21686,11082,104,245,-210,1081,1917,527,-23,2801,39,31,905,1640,1730,1974,2136,2040,1827,1847,1947
550642,-21404,11408,-21621,11147,-119,146,-263,1230,1901,1141,40,3334,31,28,904,1640,1730,1974,2136,2040,1827,1847,1947
551643,-21352,11476,-21556,11212,296,92,-332,1431,1894,1684,-71,3568,38,30,899,1640,1730,1974,2136,2040,1827,1847,1947
552644,-21280,11520,-21491,11277,38,418,-396,1624,1892,2173,28,3342,47,38,902,1640,1730,1974,2136,2040,1827,1847,1947
553645,-21220,11580,-21426,11342,194,224,-460,1814,1870,2200,-78,3546,40,32,903,1598,1671,1941,2109,2072,1877,1880,1988
554646,-21140,11640,-21361,11407,-74,230,-521,1994,1819,2172,-137,3635,48,44,904,1598,1671,1941,2109,2072,1877,1880,1988
555647,-21056,11712,-21296,11472,-147,72,-598,2123,1771,2214,-91,3319,31,46,903,1598,1671,1941,2109,2072,1877,1880,1988
556648,-20956,11768,-21231,11537,-391,282,-690,2216,1704,2305,-92,3474,42,46,896,1598,1671,1941,2109,2072,1877,1880,1988
557649,-20860,11836,-21166,11602,-379,128,-808,2314,1619,2039,-156,3436,45,32,896,1598,1671,1941,2109,2072,1877,1880,1988
558655,-20812,11900,-21101,11667,242,179,-931,2386,1544,2145,-19,3223,30,36,904,1598,1671,1941,2109,2072,1877,1880,1988
559651,-20748,11976,-21036,11732,43,16,-1053,2421,1461,2326,44,2920,42,46,905,1584,1639,1944,2129,2113,1922,1981,2119
560652,-20692,12076,-20971,11797,154,-327,-1173,2425,1361,2025,-197,2887,31,46,905,1584,1639,1944,2129,2113,1922,1981,2119
561653,-20632,12124,-20906,11862,110,344,-1297,2435,1257,1935,-95,2845,42,41,904,1584,1639,1944,2129,2113,1922,1981,2119
562654,-20588,12212,-20841,11927,336,-184,-1405,2431,1161,1870,-276,2625,42,49,903,1584,1639,1944,2129,2113,1922,1981,2119
563655,-20532,12272,-20776,11992,197,172,-1516,2408,1067,2317,-550,2614,49,43,901,1584,1639,1944,2129,2113,1922,1981,2119
564656,-20444,12360,-20711,12057,-231,-206,-1606,2399,982,2356,-558,2660,33,49,903,1601,1642,1967,2148,2133,1932,1901,2029
565657,-20372,12416,-20646,12122,-40,205,-1695,2439,922,2414,-764,2763,40,39,895,1601,1642,1967,2148,2133,1932,1901,2029
566658,-20288,12492,-20581,12187,-214,-60,-1779,2526,865,2737,-912,2988,39,53,904,1601,1642,1967,2148,2133,1932,1901,2029
567659,-20244,12568,-20516,12252,311,-73,-1887,2612,808,2973,-854,3049,32,42,896,1601,1642,1967,2148,2133,1932,1901,2029
568660,-20168,12644,-20451,12317,-102,-87,-2033,2726,758,3072,-779,3441,49,47,895,1601,1642,1967,2148,2133,1932,1901,2029
569661,-20104,12724,-20386,12382,49,-155,-2191,2848,713,3268,-681,3477,50,49,901,1562,1634,1954,2120,2140,1968,1864,2029
570662,-20004,12792,-20321,12447,-443,-9,-2347,2981,644,3391,-502,3672,43,40,902,1562,1634,1954,2120,2140,1968,1864,1996
571663,-19940,12852,-20256,12512,8,97,-2507,3096,562,3464,-296,3660,35,50,893,1562,1634,1954,2120,2140,1968,1864,1996
572664,-19880,12924,-20191,12577,64,-61,-2678,3157,482,3088,-310,3528,43,49,905,1562,1634,1954,2120,2140,1968,1864,1996
573665,-19820,13016,-20126,12642,70,-345,-2851,3118,378,2453,-259,2897,50,42,905,1562,1634,1954,2120,2140,1968,1864,1996
574666,-19732,13100,-20061,12707,-309,-268,-3001,3043,263,2077,-122,2879,31,49,904,1562,1634,1954,2120,2140,1968,1864,1996
575667,-19652,13180,-19996,12772,-227,-237,-3124,2937,148,2220,-148,2901,46,52,892,1568,1595,1928,2113,2091,1913,1880,2001
576668,-19572,13260,-19931,12837,-246,-255,-3249,2735,37,1953,-479,2570,31,51,904,1568,1595,1928,2113,2091,1913,1880,2001
577669,-19504,13332,-19866,12902,-99,-163,-3356,2510,-60,1250,-670,2610,31,49,885,1568,1595,1928,2113,2091,1913,1880,2001
578670,-19436,13396,-19801,12967,-103,-62,-3389,2208,-104,578,-491,2960,45,39,895,1568,1595,1928,2113,2091,1913,1880,2001
579671,-19340,13452,-19736,13032,-491,49,-3377,1832,-163,341,-1070,3288,32,50,900,1568,1595,1928,2113,2091,1913,1880,2001
580672,-19292,13512,-19671,13097,130,4,-3300,1518,-239,989,-1494,4679,50,51,890,1565,1607,2030,2216,2134,1933,1909,2063
581673,-19212,13596,-19606,13162,-289,-319,-3167,1256,-289,1337,-1233,5082,33,46,905,1565,1607,2030,2216,2134,1933,1909,2063
582674,-19148,13652,-19541,13227,-88,42,-3010,1046,-293,1437,-1194,5311,45,46,893,1565,1607,2030,2216,2134,1933,1909,2063
583675,-19080,13740,-19476,13292,-142,-386,-2873,955,-306,2205,-876,5812,46,48,905,1565,1607,2030,2216,2134,1933,1909,2063
584676,-19020,13812,-19411,13357,-36,-195,-2800,932,-333,2709,-511,5527,35,35,897,1565,1607,2030,2216,2134,1933,1909,2063
585677,-18948,13888,-19346,13422,-194,-258,-2792,968,-354,2857,-125,5640,47,49,899,1565,1607,2030,2216,2134,1933,1909,2063
586678,-18872,13944,-19281,13487,-258,2,-2822,1016,-367,2719,202,5605,37,38,897,1733,1800,2123,2332,1991,1781,1877,2013
587679,-18824,14012,-19216,13552,113,-152,-2890,1015,-404,2409,348,5222,48,45,886,1733,1800,2123,2332,1991,1781,1877,2013
588680,-18752,14080,-19151,13617,-197,-156,-2969,941,-465,2062,456,5106,31,38,905,1733,1800,2123,2332,1991,1781,1877,2013
589681,-18696,14172,-19086,13682,14,-489,-3013,794,-507,1129,425,5155,48,40,896,1733,1800,2123,2332,1991,1781,1877,2013
590682,-18608,14256,-19021,13747,-414,-412,-3015,550,-520,348,418,5004,29,33,895,1733,1800,2123,2332,1991,1781,1877,2013
591683,-18556,14308,-18956,13812,52,3,-2979,237,-545,-184,180,4913,41,35,891,2138,2275,2396,2661,1901,1717,1860,1973
592684,-18480,14372,-18891,13877,-261,-146,-2918,-137,-549,-1136,-574,5327,46,45,904,2138,2275,2396,2661,1901,1717,1860,1973
593685,-18428,14436,-18826,13942,55,-145,-2789,-478,-544,-1462,-531,6098,33,33,894,2138,2275,2396,2661,1901,1717,1860,1973
594686,-18356,14516,-18761,14007,-205,-363,-2598,-762,-523,-1622,-874,6556,44,32,904,2138,2275,2396,2661,1901,1717,1860,1973
595687,-18272,14560,-18696,14072,-378,113,-2390,-957,-502,-1321,-1228,6793,31,48,904,2138,2275,2396,2661,1901,1717,1860,1973
596688,-18224,14652,-18631,14137,93,-521,-2188,-1076,-493,-1027,-1371,6973,47,37,886,2138,2275,2396,2661,1901,1717,1860,1973
597689,-18164,14708,-18566,14202,-51,-60,-1996,-1148,-489,-1181,-1546,6771,45,42,901,2214,2236,2456,2682,1919,1732,1828,1931
598690,-18076,14780,-18501,14267,-429,-269,-1826,-1159,-486,-1047,-1384,6835,33,29,903,2214,2236,2456,2682,1919,1732,1828,1931
599691,-18024,14856,-18436,14332,37,-332,-1710,-1125,-512,-701,-1104,6142,46,31,892,2214,2236,2456,2682,1919,1732,1828,1931
600692,-17948,14912,-18371,14397,-277,-71,-1664,-1110,-549,-642,-1081,5816,28,27,903,2214,2236,2456,2682,1919,1732,1828,1931
601693,-17892,14968,-18306,14462,-17,-61,-1619,-1085,-598,-777,-931,5755,47,42,894,2214,2236,2456,2682,1919,1732,1828,1931
602694,-17832,15036,-18241,14527,-61,-215,-1558,-1106,-641,-961,-921,5161,49,27,905,2183,2230,2364,2636,1906,1736,1836,1916
603695,-17744,15092,-18176,14592,-439,-54,-1469,-1207,-652,-1383,-783,5135,49,39,905,2183,2230,2364,2636,1906,1736,1836,1916
604696,-17684,15156,-18111,14657,-83,-153,-1336,-1330,-649,-2009,-940,5253,30,27,892,2183,2230,2364,2636,1906,1736,1836,1916
605697,-17620,15208,-18046,14722,-132,13,-1183,-1434,-636,-2184,-793,5365,46,28,905,2183,2230,2364,2636,1906,1736,1836,1916
606699,-17532,15272,-17981,14787,-460,-136,-1033,-1501,-580,-2128,-835,5211,34,37,900,2183,2230,2364,2636,1906,1736,1836,1916
607699,-17464,15332,-17916,14852,-214,-80,-889,-1531,-515,-1794,-854,5426,50,30,890,2183,2230,2364,2636,1906,1736,1836,1916
608700,-17388,15388,-17851,14917,-328,-19,-724,-1524,-452,-1682,-979,5526,37,31,905,1973,2008,2166,2437,1949,1787,1878,2006
609701,-17316,15440,-17786,14982,-286,46,-564,-1467,-378,-1462,-1062,5591,48,39,886,1973,2008,2166,2437,1949,1787,1878,2006
610702,-17256,15496,-17721,15047,-130,7,-431,-1376,-345,-956,-1007,5005,51,37,905,1973,2008,2166,2437,1949,1787,1878,2006
611703,-17180,15544,-17656,15112,-344,128,-353,-1230,-355,-547,-989,4681,45,27,906,1973,2008,2166,2437,1949,1787,1878,2006
612704,-17108,15608,-17591,15177,-303,-72,-306,-1058,-385,-166,-1149,4086,47,25,896,1973,2008,2166,2437,1949,1787,1878,2006
613705,-17032,15644,-17526,15242,-367,314,-245,-857,-436,69,-1347,4182,50,40,905,1856,1925,2109,2369,1963,1775,1843,1907
614706,-16948,15692,-17461,15307,-490,185,-178,-690,-520,165,-1586,4060,51,36,903,1856,1925,2109,2369,1963,1775,1843,1907
615707,-16888,15732,-17396,15372,-184,315,-91,-614,-596,-264,-1985,3496,35,39,903,1856,1925,2109,2369,1963,1775,1843,1907
616708,-16800,15764,-17331,15437,-562,455,2,-555,-693,-283,-1844,3808,40,35,905,1856,1925,2109,2369,1963,1775,1843,1907
617709,-16748,15800,-17266,15502,-97,441,105,-513,-786,-625,-1923,3427,39,28,890,1856,1925,2109,2369,1963,1775,1843,1907
618710,-16676,15848,-17201,15567,-355,311,194,-436,-872,-936,-2254,4079,35,29,902,1856,1925,2109,2369,1963,1775,1843,1907
619711,-16584,15904,-17136,15632,-638,221,280,-308,-923,-705,-2358,4055,33,43,900,1787,1849,2076,2316,1936,1872,1888,1857
620712,-16512,15948,-17071,15697,-397,397,338,-158,-963,-288,-2040,4055,50,41,904,1787,1849,2076,2316,1936,1872,1888,1857
621713,-16444,16008,-17006,15762,-351,203,362,-50,-1000,-826,-2218,3958,46,43,905,1787,1849,2076,2316,1936,1872,1888,1857
622714,-16356,16072,-16941,15827,-630,154,363,65,-1032,-1114,-2149,4125,35,45,903,1787,1849,2076,2316,1936,1872,1888,1857
623715,-16292,16116,-16876,15892,-328,430,353,165,-1047,-769,-1971,3989,35,43,893,1787,1849,2076,2316,1936,1872,1888,1857
624716,-16196,16184,-16811,15957,-766,126,327,241,-1045,-606,-1895,3802,39,32,905,1782,1857,2076,2316,1864,1708,1771,1825
625717,-16128,16256,-16746,16022,-420,68,304,323,-1030,-690,-1724,3930,51,36,903,1782,1857,2076,2316,1864,1708,1771,1825
626718,-16048,16308,-16681,16087,-588,334,307,402,-1011,-532,-1748,3770,49,33,905,1782,1857,2076,2316,1864,1708,1771,1825
627719,-15980,16380,-16616,16152,-443,75,309,475,-1004,-354,-1558,3648,48,35,892,1782,1857,2076,2316,1864,1708,1771,1825
628720,-15904,16436,-16551,16217,-556,286,317,559,-999,-238,-1456,3584,36,42,904,1782,1857,2076,2316,1864,1708,1771,1825
629721,-15832,16504,-16486,16282,-515,133,321,639,-993,152,-1331,3394,40,38,905,1782,1857,2076,2316,1864,1708,1771,1825
630722,-15780,16544,-16421,16347,-249,512,310,619,-970,-362,-1341,3683,52,30,904,1779,1859,2059,2367,2066,1792,1868,1954
631723,-15696,16596,-16356,16412,-673,378,324,727,-948,289,-1252,4064,47,43,898,1779,1859,2059,2367,2066,1792,1868,1954
632724,-15624,16648,-16291,16477,-532,394,370,830,-961,764,-1069,3638,46,45,901,1779,1859,2059,2367,2066,1792,1868,1954
633725,-15548,16708,-16226,16542,-595,300,435,856,-1033,-51,-1267,3607,46,39,903,1779,1859,2059,2367,2066,1792,1868,1954
634726,-15480,16776,-16161,16607,-500,196,529,828,-1119,-363,-1452,3601,38,43,903,1779,1859,2059,2367,2066,1792,1868,1954
635727,-15416,16844,-16096,16672,-449,193,641,809,-1181,-255,-1429,3745,45,44,899,1753,1869,2072,2268,2112,1895,1961,2076
636728,-15364,16884,-16031,16737,-283,573,760,751,-1240,-304,-1346,3760,35,45,905,1753,1869,2072,2268,2112,1895,1961,2076
637729,-15320,16972,-15966,16802,-157,-55,849,690,-1273,-466,-1318,3972,48,32,905,1753,1869,2072,2268,2112,1895,1961,2076
638730,-15236,17040,-15901,16867,-681,191,922,602,-1296,-714,-1241,3896,47,36,901,1753,1869,2072,2268,2112,1895,1961,2076
639731,-15176,17112,-15836,16932,-375,133,971,475,-1340,-850,-1100,3931,33,38,895,1753,1869,2072,2268,2112,1895,1961,2076
640732,-15112,17180,-15771,16997,-424,179,1005,393,-1379,-959,-1184,4153,45,38,905,1753,1869,2072,2268,2112,1895,1961,2076
641733,-15064,17224,-15706,17062,-203,505,1012,340,-1391,-603,-1161,4099,44,39,905,1775,1975,2204,2278,2084,1831,1911,2023
642734,-15016,17304,-15641,17127,-183,36,989,294,-1389,-533,-1078,4253,40,46,905,1775,1975,2204,2278,2084,1831,1911,2023
643735,-14944,17364,-15576,17192,-492,293,936,260,-1382,-685,-1176,4293,28,46,888,1775,1975,2204,2278,2084,1831,1911,2023
644736,-14872,17420,-15511,17257,-501,353,864,228,-1356,-584,-1040,4555,32,32,891,1775,1975,2204,2278,2084,1831,1911,2023
645737,-14820,17476,-15446,17322,-235,364,788,180,-1303,-425,-1193,4439,28,47,904,1775,1975,2204,2278,2084,1831,1911,2023
646738,-14768,17536,-15381,17387,-220,320,717,166,-1242,-442,-1280,4789,32,43,903,1846,1964,2124,2300,1948,1750,1846,1974
647739,-14708,17588,-15316,17452,-314,435,668,147,-1177,-472,-1224,4685,36,46,900,1846,1964,2124,2300,1948,1750,1846,1974
648740,-14656,17672,-15251,17517,-198,12,628,104,-1120,-434,-1259,4674,43,39,902,1846,1964,2124,2300,1948,1750,1846,1974
649741,-14600,17744,-15186,17582,-237,154,573,28,-1059,-527,-1368,4522,32,46,901,1846,1964,2124,2300,1948,1750,1846,1974
650742,-14544,17804,-15121,17647,-226,310,533,-22,-1032,-279,-1084,4600,24,36,889,1846,1964,2124,2300,1948,1750,1846,1974
651743,-14480,17864,-15056,17712,-326,316,485,-98,-1014,-201,-1267,3919,30,35,887,1846,1964,2124,2300,1948,1750,1846,1974
652744,-14432,17920,-14991,17777,-105,377,451,-201,-1022,8,-1189,4261,37,46,904,1873,1939,2123,2277,2068,1824,1927,2036
653745,-14372,17988,-14926,17842,-249,223,453,-328,-1059,-164,-1100,3983,30,33,903,1873,1939,2123,2277,2068,1824,1927,2036
654746,-14324,18044,-14861,17907,-78,384,475,-443,-1096,-186,-985,4069,23,35,898,1873,1939,2123,2277,2068,1824,1927,2036
655747,-14300,18124,-14796,17972,271,66,498,-537,-1130,-22,-786,3884,29,43,904,1873,1939,2123,2277,2068,1824,1927,2036
656748,-14240,18192,-14731,18037,-173,212,540,-650,-1156,-32,-669,3769,36,44,904,1873,1939,2123,2277,2068,1824,1927,2036
657749,-14196,18256,-14666,18102,53,264,603,-688,-1186,-63,-551,4172,37,35,904,1771,1868,2100,2253,2241,1989,2031,2183
658750,-14156,18332,-14601,18167,133,100,666,-703,-1196,36,-324,4210,34,41,891,1771,1868,2100,2253,2241,1989,2031,2183
659751,-14112,18404,-14536,18232,109,142,723,-711,-1184,-155,-135,4010,26,39,904,1771,1868,2100,2253,2241,1989,2031,2183
660752,-14064,18452,-14471,18297,80,462,743,-712,-1166,-97,42,4093,19,37,905,1771,1868,2100,2253,2241,1989,2031,2183
661753,-14020,18512,-14406,18362,154,317,739,-698,-1145,-120,141,4001,18,28,905,1771,1868,2100,2253,2241,1989,2031,2183
662754,-13984,18576,-14341,18427,290,269,722,-696,-1117,-313,133,4059,17,33,902,1771,1868,2100,2253,2241,1989,2031,2183
663755,-13944,18624,-14276,18492,270,489,676,-676,-1076,-497,176,4214,35,29,903,1728,1840,2058,2227,2197,1931,1967,2074
664756,-13904,18688,-14211,18557,301,291,612,-650,-1030,-296,266,4123,36,36,903,1728,1840,2058,2227,2197,1931,1967,2074
665757,-13852,18736,-14146,18622,167,511,520,-639,-971,-349,27,4125,20,28,899,1728,1840,2058,2227,2197,1931,1967,2074
666758,-13820,18792,-14081,18687,457,422,432,-621,-921,-300,-76,4481,23,35,901,1728,1840,2058,2227,2197,1931,1967,2074
667759,-13760,18840,-14016,18752,113,543,357,-598,-870,-289,-282,4544,20,28,901,1728,1840,2058,2227,2197,1931,1967,2074
668760,-13732,18888,-13951,18817,558,564,294,-550,-817,-270,-474,4777,19,40,900,1744,1848,2072,2244,2039,1815,1917,2085
669761,-13684,18960,-13886,18882,328,255,240,-489,-763,-71,-663,4720,35,45,901,1744,1848,2072,2244,2039,1815,1917,2085
670762,-13640,19012,-13821,18947,404,521,199,-415,-716,144,-793,4779,33,31,898,1744,1848,2072,2244,2039,1815,1917,2085
671763,-13588,19064,-13756,19012,319,537,167,-330,-674,130,-809,4863,22,34,903,1744,1848,2072,2244,2039,1815,1917,2085
672764,-13532,19120,-13691,19077,280,498,144,-242,-645,82,-811,4676,22,40,899,1744,1848,2072,2244,2039,1815,1917,2085
673765,-13512,19192,-13626,19142,785,289,120,-180,-619,-5,-856,4367,40,44,900,1744,1848,2072,2244,2039,1815,1917,2085
674766,-13428,19248,-13561,19207,-38,500,104,-116,-598,86,-678,4241,26,39,901,1742,1836,2099,2263,2071,1858,1879,2013
675767,-13372,19316,-13496,19272,323,347,86,-87,-587,92,-389,3850,33,42,897,1742,1836,2099,2263,2071,1858,1879,2013
676768,-13340,19384,-13431,19337,663,343,71,-70,-580,-4,-352,3830,44,45,902,1742,1836,2099,2263,2071,1858,1879,2013
677769,-13284,19468,-13366,19402,374,120,46,-48,-569,98,37,3709,31,44,902,1742,1836,2099,2263,2071,1858,1879,2013
678770,-13220,19516,-13301,19467,276,591,46,-43,-549,218,361,3418,29,32,899,1742,1836,2099,2263,2071,1858,1879,2013
679771,-13156,19576,-13236,19532,277,447,44,6,-535,179,563,3709,38,33,903,1793,1877,2139,2325,2251,2055,1987,2095
680772,-13096,19644,-13171,19597,333,343,46,56,-505,193,697,3361,45,36,900,1793,1877,2139,2325,2251,2055,1987,2095
681773,-13040,19716,-13106,19662,394,285,58,93,-459,192,933,3728,29,44,901,1793,1877,2139,2325,2251,2055,1987,2095
682774,-12976,19780,-13041,19727,295,386,76,99,-396,78,926,3341,32,33,900,1793,1877,2139,2325,2251,2055,1987,2095
683775,-12924,19848,-12976,19792,461,332,88,133,-331,-29,1018,3688,47,42,900,1793,1877,2139,2325,2251,2055,1987,2095
684776,-12860,19904,-12911,19857,312,493,97,152,-261,41,980,3616,45,36,902,1793,1877,2139,2325,2251,2055,1987,2095
685777,-12788,19968,-12846,19922,204,394,110,184,-183,90,912,3805,45,46,901,1769,1856,2087,2273,2151,1903,1936,2042
686778,-12716,20044,-12781,19987,195,231,104,223,-100,22,813,3900,40,38,901,1769,1856,2087,2273,2151,1903,1936,2042
687779,-12676,20108,-12716,20052,626,382,97,256,-26,115,696,4018,41,43,902,1769,1856,2087,2273,2151,1903,1936,2042
688780,-12620,20184,-12651,20117,437,219,94,265,46,27,462,4076,29,46,903,1769,1856,2087,2273,2151,1903,1936,2042
689781,-12556,20248,-12586,20182,338,370,98,294,105,-17,260,4288,34,46,899,1769,1856,2087,2273,2151,1903,1936,2042
690782,-12484,20296,-12521,20247,229,591,110,315,154,-30,48,4316,35,40,901,1733,1831,2141,2290,2056,1786,1826,1956
691783,-12416,20360,-12456,20312,276,392,125,338,209,-36,-100,4336,31,30,901,1733,1831,2141,2290,2056,1786,1826,1956
692784,-12360,20420,-12391,20377,437,448,128,334,256,77,-137,4323,41,43,900,1733,1831,2141,2290,2056,1786,1826,1956
693785,-12300,20496,-12326,20442,393,234,133,326,284,12,-245,4177,32,34,902,1733,1831,2141,2290,2056,1786,1826,1956
694786,-12236,20564,-12261,20507,344,330,132,329,310,47,-171,4085,37,35,900,1733,1831,2141,2290,2056,1786,1826,1956
695787,-12180,20616,-12196,20572,455,546,121,335,333,124,-119,3889,37,40,902,1733,1831,2141,2290,2056,1786,1826,1956
696788,-12108,20692,-12131,20637,246,232,91,340,360,51,-49,3634,45,41,901,1740,1844,2084,2233,1984,1760,1811,1953
697789,-12048,20740,-12066,20702,403,603,56,315,378,147,256,3430,29,40,899,1740,1844,2084,2233,1984,1760,1811,1953
698790,-11988,20824,-12001,20767,409,130,17,293,397,-36,366,3366,27,39,903,1740,1844,2084,2233,1984,1760,1811,1953
699791,-11928,20892,-11802,20966,578,490,-26,276,428,-4,448,3244,28,45,897,1740,1844,2084,2233,1984,1760,1811,1953
700792,-11868,20948,-11737,21031,584,651,-55,244,470,42,712,3056,31,41,900,1740,1844,2084,2233,1984,1760,1811,1953
701793,-11796,21016,-11672,21096,426,497,-76,214,504,23,892,3113,32,32,899,1870,2020,2207,2330,2068,1854,1914,2048
702794,-11732,21088,-11607,21161,527,439,-85,194,559,13,977,3041,32,46,897,1870,2020,2207,2330,2068,1854,1914,2048
703795,-11660,21156,-11542,21226,419,485,-89,165,629,76,1035,3055,36,45,899,1870,2020,2207,2330,2068,1854,1914,2048
704796,-11608,21208,-11477,21291,684,701,-85,135,692,-23,1023,3110,37,40,899,1870,2020,2207,2330,2068,1854,1914,2048
705797,-11532,21296,-11412,21356,371,224,-70,84,749,-122,1041,3016,42,38,900,1870,2020,2207,2330,2068,1854,1914,2048
706798,-11468,21372,-11347,21421,522,360,-46,19,812,-227,934,3156,52,48,895,1870,2020,2207,2330,2068,1854,1914,2048
707799,-11400,21432,-11282,21486,469,566,-29,-38,873,-241,800,3238,38,44,902,1789,1883,2102,2265,2131,1895,1933,2061
708800,-11332,21492,-11217,21551,465,573,1,-113,909,-136,822,3314,36,33,900,1789,1883,2102,2265,2131,1895,1933,2061
709801,-11264,21556,-11152,21616,461,524,19,-169,948,-213,722,3551,44,39,898,1789,1883,2102,2265,2131,1895,1933,2061
710802,-11176,21616,-11087,21681,183,580,38,-196,965,32,739,3798,47,48,898,1789,1883,2102,2265,2131,1895,1933,2061
711803,-11108,21696,-11022,21746,429,312,73,-194,960,175,661,4024,51,37,899,1789,1883,2102,2265,2131,1895,1933,2061
712804,-11036,21764,-10957,21811,371,458,75,-202,952,106,529,4021,32,43,901,1740,1802,2026,2160,2074,1829,1860,2001
713805,-10968,21840,-10892,21876,417,344,83,-195,953,30,475,4107,45,33,901,1740,1802,2026,2160,2074,1829,1860,2001
714806,-10896,21904,-10827,21941,359,496,81,-185,943,1,502,4216,35,31,900,1740,1802,2026,2160,2074,1829,1860,2001
715807,-10820,21964,-10762,22006,295,552,81,-184,918,-37,487,4056,51,27,901,1740,1802,2026,2160,2074,1829,1860,2001
716808,-10748,22028,-10697,22071,337,503,62,-189,908,-226,421,4032,34,41,898,1740,1802,2026,2160,2074,1829,1860,2001
717809,-10696,22096,-10632,22136,603,449,22,-219,908,-234,405,3849,30,34,898,1740,1802,2026,2160,2074,1829,1860,2001
718810,-10616,22140,-10567,22201,234,775,-26,-241,900,-148,539,3835,36,29,900,1693,1806,2043,2186,2017,1791,1836,2027
719811,-10560,22204,-10502,22266,545,526,-88,-249,903,-267,548,3691,31,40,898,1693,1806,2043,2186,2017,1791,1836,2027
720812,-10492,22256,-10437,22331,392,692,-152,-253,915,-289,643,3600,45,41,898,1693,1806,2043,2186,2017,1791,1836,2027
721813,-10428,22336,-10372,22396,443,324,-216,-245,920,-176,684,3457,39,42,898,1693,1806,2043,2186,2017,1791,1836,2027
722814,-10352,22392,-10307,22461,279,635,-276,-233,930,-170,695,3325,40,39,897,1693,1806,2043,2186,2017,1791,1836,2027
723815,-10296,22452,-10242,22526,540,591,-331,-231,950,-206,703,3226,39,29,901,1784,1897,2144,2309,2072,1864,1912,2051
724816,-10228,22500,-10177,22591,387,762,-372,-225,966,-165,748,3178,45,34,899,1784,1897,2144,2309,2072,1864,1912,2051
725817,-10168,22552,-10112,22656,493,727,-400,-255,978,-191,841,3052,29,29,898,1784,1897,2144,2309,2072,1864,1912,2051
726818,-10116,22620,-10047,22721,609,524,-414,-268,980,-129,839,3184,46,41,897,1784,1897,2144,2309,2072,1864,1912,2051
727819,-10052,22688,-9982,22786,460,520,-430,-298,982,-5,818,3178,27,45,896,1784,1897,2144,2309,2072,1864,1912,2051
728820,-9996,22744,-9917,22851,571,681,-424,-332,972,31,766,3255,47,40,897,1784,1897,2144,2309,2072,1864,1912,2051
729821,-9936,22808,-9852,22916,527,582,-422,-340,952,72,826,3569,28,40,898,1786,1887,2133,2294,2144,1952,2024,2161
730822,-9876,22880,-9787,22981,533,474,-400,-344,921,248,966,3670,46,33,895,1786,1887,2133,2294,2144,1952,2024,2161
731823,-9820,22916,-9722,23046,594,959,-379,-339,884,263,836,3921,49,36,898,1786,1887,2133,2294,2144,1952,2024,2161
732824,-9768,22984,-9657,23111,661,556,-338,-319,859,254,831,4345,38,35,898,1786,1887,2133,2294,2144,1952,2024,2161
733827,-9708,23060,-9592,23176,567,442,-311,-322,832,156,745,4048,49,42,891,1786,1887,2133,2294,2144,1952,2024,2161
734826,-9640,23100,-9527,23241,463,923,-286,-330,790,-38,675,4249,46,29,894,1710,1802,2042,2193,2096,1865,1885,2006
735827,-9568,23160,-9462,23306,405,679,-273,-324,738,33,737,4318,48,33,898,1710,1802,2042,2193,2096,1865,1885,2006
736828,-9512,23208,-9397,23371,616,849,-252,-309,698,207,750,4452,31,36,894,1710,1802,2042,2193,2096,1865,1885,2006
737829,-9456,23252,-9332,23436,627,925,-236,-275,665,374,805,4719,28,25,897,1710,1802,2042,2193,2096,1865,1885,2006
738830,-9396,23292,-9267,23501,583,1006,-231,-227,630,336,749,4557,46,25,894,1710,1802,2042,2193,2096,1865,1885,2006
739831,-9344,23364,-9202,23566,699,598,-237,-177,593,185,856,4760,43,30,893,1710,1802,2042,2193,2096,1865,1885,2006
740832,-9280,23436,-9137,23631,550,590,-257,-102,551,290,790,4504,32,32,892,1705,1815,2057,2233,2124,1904,1852,1964
741833,-9224,23472,-9072,23696,661,1075,-279,0,520,442,791,4621,48,34,895,1705,1815,2057,2233,2124,1904,1852,1964
742834,-9164,23524,-9007,23761,617,891,-302,70,506,400,766,4402,45,33,897,1705,1815,2057,2233,2124,1904,1852,1964
743835,-9104,23580,-8942,23826,623,852,-329,95,506,-40,714,4159,35,30,890,1705,1815,2057,2233,2124,1904,1852,1964
744836,-9044,23628,-8877,23891,629,973,-344,100,497,-238,587,4040,42,40,893,1705,1815,2057,2233,2124,1904,1852,1964
745837,-8996,23684,-8812,23956,800,884,-359,94,482,-193,534,3829,28,26,893,1821,1937,2184,2389,2038,1848,1895,2004
746838,-8932,23732,-8747,24021,601,1004,-356,88,475,-172,350,3829,34,41,891,1821,1937,2184,2389,2038,1848,1895,2004
747839,-8872,23800,-8682,24086,657,751,-345,65,473,-37,352,3699,33,41,891,1821,1937,2184,2389,2038,1848,1895,2004
748840,-8828,23864,-8617,24151,883,802,-316,73,443,-30,323,3915,28,31,891,1821,1937,2184,2389,2038,1848,1895,2004
749841,-8768,23936,-8552,24216,689,693,-286,95,404,204,277,3949,27,34,894,1821,1937,2184,2389,2038,1848,1895,2004
750842,-8724,23984,-8487,24281,916,1015,-236,147,365,579,193,4092,46,39,889,1821,1937,2184,2389,2038,1848,1895,2004
751843,-8656,24036,-8422,24346,612,981,-187,172,328,647,378,4299,44,34,893,1881,1980,2343,2511,2063,1867,1903,2006
752844,-8624,24084,-8357,24411,1102,1052,-129,153,274,585,467,4275,38,30,888,1881,1980,2343,2511,2063,1867,1903,2006
753845,-8548,24140,-8292,24476,539,963,-68,164,215,685,586,4524,34,29,891,1881,1980,2343,2511,2063,1867,1903,2006
754846,-8496,24192,-8227,24541,855,1029,-6,187,152,1105,613,4795,49,37,885,1881,1980,2343,2511,2063,1867,1903,2006
755847,-8432,24260,-8162,24606,706,825,49,209,93,1018,655,4829,37,33,893,1881,1980,2343,2511,2063,1867,1903,2006
756848,-8368,24316,-8097,24671,707,986,106,238,36,909,784,4947,43,30,889,1839,1923,2153,2345,2023,1824,1872,1962
757849,-8320,24376,-8032,24736,928,942,151,270,-18,799,776,4993,32,28,893,1839,1923,2153,2345,2023,1824,1872,1962
758850,-8256,24432,-7967,24801,729,1004,194,293,-65,917,862,5067,35,44,891,1839,1923,2153,2345,2023,1824,1872,1962
759851,-8196,24496,-7902,24866,785,905,232,277,-86,590,809,4761,42,30,889,1839,1923,2153,2345,2023,1824,1872,1962
760852,-8152,24560,-7837,24931,1011,906,263,253,-108,429,862,4851,47,34,890,1839,1923,2153,2345,2023,1824,1872,1962
761853,-8096,24616,-7772,24996,873,1017,283,228,-125,281,743,4471,38,37,891,1839,1923,2153,2345,2023,1824,1872,1962
762854,-8048,24672,-7707,25061,994,1028,297,214,-135,291,522,4543,31,37,888,1843,1987,2122,2328,1992,1796,1864,1960
763855,-7984,24732,-7642,25126,795,984,309,187,-135,296,413,4280,42,36,888,1843,1987,2122,2328,1992,1796,1864,1960
764856,-7912,24788,-7577,25191,686,1045,332,186,-146,295,403,4409,48,33,886,1843,1987,2122,2328,1992,1796,1864,1960
765857,-7864,24864,-7512,25256,1007,783,360,172,-139,188,218,4025,46,45,890,1843,1987,2122,2328,1992,1796,1864,1960
766858,-7816,24928,-7447,25321,1028,934,396,169,-156,365,146,4181,45,32,890,1843,1987,2122,2328,1992,1796,1864,1960
767859,-7744,24980,-7382,25386,719,1100,438,182,-168,306,-15,3971,48,48,888,1832,1951,2178,2364,2043,1838,1899,2020
768860,-7700,25060,-7317,25451,1096,732,484,199,-179,487,-63,4030,43,40,886,1832,1951,2178,2364,2043,1838,1899,2020
769861,-7644,25124,-7252,25516,957,933,526,215,-212,609,-83,3930,45,46,889,1832,1951,2178,2364,2043,1838,1899,2020
770862,-7596,25168,-7187,25581,1078,1209,555,213,-258,523,-174,3860,31,32,889,1832,1951,2178,2364,2043,1838,1899,2020
771863,-7528,25248,-7122,25646,824,740,580,207,-293,499,-100,3968,47,34,888,1832,1951,2178,2364,2043,1838,1899,2020
772864,-7452,25304,-7057,25711,711,1052,603,205,-339,743,96,3971,50,32,883,1832,1951,2178,2364,2043,1838,1899,2020
773865,-7396,25364,-6992,25776,972,1008,616,200,-383,625,-52,3794,50,39,892,1848,1956,2192,2367,2045,1836,1884,1992
774866,-7336,25436,-6927,25841,928,850,623,212,-431,803,174,3988,43,40,890,1848,1956,2192,2367,2045,1836,1884,1992
775867,-7280,25488,-6862,25906,990,1116,621,190,-458,626,132,3832,35,40,887,1848,1956,2192,2367,2045,1836,1884,1992
776868,-7228,25564,-6797,25971,1056,802,624,179,-490,701,147,4063,35,42,889,1848,1956,2192,2367,2045,1836,1884,1992
777869,-7164,25616,-6732,26036,907,1118,636,191,-515,696,377,4007,51,38,886,1848,1956,2192,2367,2045,1836,1884,1992
778870,-7112,25672,-6667,26101,1073,1080,647,183,-536,556,350,3850,38,35,889,1806,1893,2115,2299,2023,1821,1870,2082
779871,-7036,25740,-6602,26166,759,927,649,183,-560,386,377,4166,47,40,887,1806,1893,2115,2299,2023,1821,1870,2082
780872,-6968,25808,-6537,26231,856,923,659,192,-573,491,481,4087,36,46,885,1806,1893,2115,2299,2023,1821,1870,2082
781873,-6916,25860,-6472,26296,1072,1139,661,212,-572,742,366,4209,49,32,890,1806,1893,2115,2299,2023,1821,1870,2082
782874,-6844,25924,-6407,26361,814,990,677,253,-565,735,393,4260,52,45,890,1806,1893,2115,2299,2023,1821,1870,2082
783879,-6788,25976,-6342,26426,1025,1156,695,263,-560,408,251,4030,43,33,884,1806,1893,2115,2299,2023,1821,1870,2082
784876,-6716,26056,-6277,26491,816,789,719,287,-549,237,259,4206,33,36,887,1741,1834,2060,2249,2034,1837,1881,1984
785877,-6660,26116,-6212,26556,1027,1045,726,297,-548,500,195,3985,51,43,882,1741,1834,2060,2249,2034,1837,1881,1984
786878,-6600,26188,-6147,26621,983,886,747,307,-535,363,-26,4019,47,39,892,1741,1834,2060,2249,2034,1837,1881,1984
787879,-6544,26240,-6082,26686,1045,1152,753,310,-527,267,-24,3872,48,51,886,1741,1834,2060,2249,2034,1837,1881,1984
788880,-6476,26316,-6017,26751,892,839,771,307,-532,84,-27,3741,44,35,888,1741,1834,2060,2249,2034,1837,1881,1984
789881,-6428,26388,-5952,26816,1163,880,773,298,-525,58,-129,3656,32,39,885,1737,1839,2088,2276,2086,1991,1977,2023
790882,-6368,26452,-5887,26881,1019,982,771,303,-534,406,-117,3743,30,50,890,1737,1839,2088,2276,2086,1991,1977,2023
791883,-6312,26508,-5822,26946,1080,1093,757,322,-563,237,-174,3678,48,36,886,1737,1839,2088,2276,2086,1991,1977,2023
792884,-6268,26580,-5757,27011,1255,885,734,341,-597,239,-137,3853,50,48,887,1737,1839,2088,2276,2086,1991,1977,2023
793885,-6192,26644,-5692,27076,843,986,717,379,-628,460,-46,3832,47,46,884,1737,1839,2088,2276,2086,1991,1977,2023
794886,-6144,26720,-5627,27141,1214,822,679,390,-660,506,-11,3793,45,37,885,1785,1891,2146,2324,2080,1866,1900,2023
795887,-6068,26760,-5562,27206,850,1303,658,434,-697,473,20,3912,47,48,889,1785,1891,2146,2324,2080,1866,1900,2018
796888,-6012,26844,-5497,27271,1111,730,612,469,-724,561,107,3878,53,46,886,1785,1891,2146,2324,2080,1866,1900,2018
797889,-5948,26896,-5432,27336,1012,1147,578,492,-749,633,153,3915,33,46,885,1785,1891,2146,2324,2080,1866,1900,2018
798890,-5900,26956,-5367,27401,1234,1053,541,493,-772,457,327,4023,35,43,888,1785,1891,2146,2324,2080,1866,1900,2018
799891,-5840,27008,-5302,27466,1090,1169,514,499,-789,284,115,4093,34,47,885,1785,1891,2146,2324,2080,1866,1900,2018
800892,-5756,27064,-5237,27531,767,1130,489,497,-785,548,385,4069,49,45,883,1789,1889,2125,2375,2172,1870,1911,2031
801893,-5704,27120,-5172,27596,1183,1141,477,491,-778,447,431,4132,51,37,882,1789,1889,2125,2375,2172,1870,1911,2031
802894,-5644,27196,-5107,27661,1089,878,453,483,-768,218,240,4013,47,47,886,1789,1889,2125,2375,2172,1870,1911,2031
803895,-5568,27260,-5042,27726,877,1029,431,468,-755,223,303,4167,32,50,883,1789,1889,2125,2375,2172,1870,1911,2031
804896,-5512,27308,-4977,27791,1138,1250,416,456,-735,195,204,3938,35,40,887,1789,1889,2125,2375,2172,1870,1911,2031
805897,-5480,27392,-4912,27856,1478,777,413,444,-731,281,322,4136,43,44,888,1746,1850,2092,2260,2111,1896,1929,2053
806898,-5432,27436,-4847,27921,1299,1303,410,456,-727,260,290,4081,33,36,882,1746,1850,2092,2260,2111,1896,1929,2053
807899,-5352,27524,-4782,27986,880,724,402,466,-718,485,370,3989,39,45,883,1746,1850,2092,2260,2111,1896,1929,2053
808900,-5288,27568,-4717,28051,1083,1301,403,474,-731,571,351,3982,37,33,879,1746,1850,2092,2260,2111,1896,1929,2053
809901,-5220,27624,-4652,28116,1029,1162,404,477,-748,232,250,4055,40,44,891,1746,1850,2092,2260,2111,1896,1929,2053
810902,-5172,27700,-4587,28181,1300,899,403,491,-773,198,371,4000,49,40,881,1746,1850,2092,2260,2111,1896,1929,2053
811903,-5104,27756,-4522,28246,1046,1160,391,475,-776,203,149,3817,28,33,884,1723,1926,2179,2247,2133,1904,1926,2048
812904,-5044,27808,-4457,28311,1152,1226,381,471,-799,469,237,3927,35,34,884,1723,1926,2179,2247,2133,1904,1926,2048
813905,-4996,27876,-4392,28376,1324,1022,359,442,-810,73,256,3589,47,37,884,1723,1926,2179,2247,2133,1904,1926,2048
814906,-4948,27944,-4327,28441,1345,1019,335,433,-834,-65,262,3998,30,50,882,1723,1926,2179,2247,2133,1904,1926,2048
815907,-4888,28000,-4262,28506,1201,1180,295,435,-860,258,158,3877,45,48,882,1723,1926,2179,2247,2133,1904,1926,2048
816908,-4812,28056,-4197,28571,987,1191,269,419,-891,309,271,3973,35,36,882,1753,1856,2112,2287,2079,1864,1894,2010
817909,-4772,28128,-4132,28636,1469,983,240,413,-894,-15,192,3973,33,36,882,1753,1856,2112,2287,2079,1864,1894,2010
818910,-4700,28192,-4067,28701,1060,1084,229,433,-913,369,324,4219,37,36,882,1753,1856,2112,2287,2079,1864,1894,2010
819911,-4656,28256,-4002,28766,1436,1086,214,459,-926,381,288,4052,53,46,879,1753,1856,2112,2287,2079,1864,1894,2010
820912,-4608,28320,-3937,28831,1407,1087,196,507,-923,194,287,4281,49,46,884,1753,1856,2112,2287,2079,1864,1894,2010
821913,-4540,28376,-3872,28896,1154,1198,177,544,-909,198,423,4167,38,39,880,1753,1856,2112,2287,2079,1864,1894,2010
822914,-4468,28432,-3807,28961,1095,1209,169,543,-906,120,408,4109,38,42,880,1825,1879,2125,2299,2055,1850,1894,2006
823915,-4408,28496,-3742,29026,1251,1110,158,563,-902,83,446,4148,37,48,882,1825,1879,2125,2299,2055,1850,1894,2006
824916,-4352,28568,-3677,29091,1312,1003,154,555,-894,160,553,3882,44,48,883,1825,1879,2125,2299,2055,1850,1894,2006
825917,-4288,28616,-3612,29156,1215,1324,145,551,-867,50,375,4018,41,42,882,1825,1879,2125,2299,2055,1850,1894,2006
826918,-4228,28676,-3547,29221,1271,1180,146,537,-851,198,604,3948,40,35,883,1825,1879,2125,2299,2055,1850,1894,2006
827919,-4156,28740,-3482,29286,1112,1131,156,519,-839,-144,514,3925,33,36,880,1793,1894,2140,2325,2068,1865,1905,2017
828920,-4104,28796,-3417,29351,1378,1242,168,509,-832,21,625,4101,47,39,880,1793,1894,2140,2325,2068,1865,1905,2017
829921,-4040,28848,-3352,29416,1230,1309,179,491,-824,54,607,3876,49,35,883,1793,1894,2140,2325,2068,1865,1905,2017
830922,-3980,28904,-3287,29481,1286,1270,191,474,-828,222,645,3836,50,44,878,1793,1894,2140,2325,2068,1865,1905,2017
831923,-3916,28964,-3222,29546,1238,1226,221,475,-826,97,694,3989,37,47,880,1793,1894,2140,2325,2068,1865,1905,2017
832924,-3852,29032,-3157,29611,1239,1122,247,489,-843,269,743,3945,49,47,879,1793,1894,2140,2325,2068,1865,1905,2017
833925,-3804,29084,-3092,29676,1461,1339,274,494,-862,128,649,4073,51,35,881,1791,1884,2131,2314,2078,1865,1900,2008
834926,-3740,29140,-3027,29741,1262,1300,297,504,-877,156,810,4108,47,46,882,1791,1884,2131,2314,2078,1865,1900,2008
835927,-3672,29212,-2962,29806,1208,1092,305,492,-897,43,756,4071,38,47,874,1791,1884,2131,2314,2078,1865,1900,2008
836928,-3628,29276,-2897,29871,1534,1193,323,495,-902,21,573,4202,39,50,877,1791,1884,2131,2314,2078,1865,1900,2008
837929,-3588,29320,-2832,29936,1615,1468,341,476,-884,178,625,4102,41,49,882,1791,1884,2131,2314,2078,1865,1900,2008
838930,-3516,29392,-2767,30001,1207,1111,378,434,-844,-23,896,4070,43,53,877,1795,1888,2134,2314,2030,1823,1953,2071
839931,-3464,29456,-2702,30066,1473,1212,406,393,-791,-550,854,4241,44,52,871,1795,1888,2134,2314,2030,1823,1953,2071
840932,-3416,29536,-2637,30131,1544,994,458,403,-698,-428,1345,4503,34,56,883,1795,1888,2134,2314,2030,1823,1953,2071
841933,-3356,29616,-2572,30196,1401,976,448,320,-633,-1291,2204,4136,47,61,876,1795,1888,2134,2314,2030,1823,1953,2071
842934,-3300,29688,-2507,30261,1462,1068,366,322,-601,-753,1477,5209,45,55,879,1795,1888,2134,2314,2030,1823,1953,2071
843935,-3248,29784,-2442,30326,1528,730,399,278,-559,-370,1414,3897,39,57,882,1795,1888,2134,2314,2030,1823,1953,2071
844936,-3180,29864,-2377,30391,1325,912,425,170,-544,-738,1620,4081,45,57,880,1812,1908,2159,2338,2031,1826,1871,2005
845937,-3136,29944,-2312,30456,1650,894,440,162,-515,-472,1081,4820,37,48,882,1812,1908,2159,2338,2031,1826,1871,2005
846938,-3060,29992,-2247,30521,1237,1314,463,188,-492,407,1400,3793,50,44,883,1812,1908,2159,2338,2031,1826,1871,2005
847939,-2992,30068,-2182,30586,1334,952,485,286,-462,515,1185,4539,46,44,879,1812,1908,2159,2338,2031,1826,1871,2005
848940,-2920,30156,-2117,30651,1276,774,521,386,-438,459,1262,4223,37,46,880,1812,1908,2159,2338,2031,1826,1871,2005
849941,-2856,30220,-2052,30716,1377,1075,555,430,-450,79,1338,3878,45,43,883,1862,1953,2216,2379,2185,1960,1888,2048
850942,-2796,30304,-1987,30781,1434,802,585,420,-452,-85,1150,4058,38,45,886,1862,1953,2216,2379,2185,1960,1888,2048
851943,-2716,30384,-1922,30846,1166,833,613,354,-450,-197,1489,3738,41,56,881,1862,1953,2216,2379,2185,1960,1888,2048
852944,-2656,30436,-1857,30911,1422,1199,616,273,-441,-850,1530,3783,55,49,882,1862,1953,2216,2379,2185,1960,1888,2048
853945,-2576,30512,-1792,30976,1155,887,617,231,-432,-529,1680,4089,48,43,885,1862,1953,2216,2379,2185,1960,1888,2048
854946,-2528,30588,-1727,31041,1575,873,624,157,-409,-445,1707,3618,37,45,879,1862,1953,2216,2379,2185,1960,1888,2048
855947,-2456,30668,-1662,31106,1267,805,618,75,-378,-764,1730,3917,44,43,886,1847,1931,2194,2364,2095,1878,1906,2025
856948,-2356,30752,-1597,31171,874,732,628,-12,-363,-886,1780,3844,42,52,880,1847,1931,2194,2364,2095,1878,1906,2025
857949,-2332,30808,-1532,31236,1875,1093,613,-77,-317,-887,1578,4047,40,52,885,1847,1931,2194,2364,2095,1878,1906,2025
858950,-2260,30880,-1467,31301,1267,884,605,-92,-250,-557,1907,4317,29,50,891,1847,1931,2194,2364,2095,1878,1906,2025
859951,-2192,30940,-1402,31366,1313,1042,595,-77,-197,-398,1839,4134,41,45,873,1847,1931,2194,2364,2095,1878,1906,2025
860952,-2136,31008,-1337,31431,1475,938,583,-69,-142,-487,1701,4336,35,38,884,1782,1874,2217,2355,2055,1842,1874,2004
861953,-2084,31072,-1272,31496,1541,989,586,-65,-95,-450,1868,4293,38,53,882,1782,1874,2217,2355,2055,1842,1874,2004
862954,-2024,31136,-1207,31561,1447,990,592,-69,-39,-464,1523,4207,49,53,880,1782,1874,2217,2355,2055,1842,1874,2004
863955,-1952,31200,-1142,31626,1289,992,598,-39,7,-196,1482,4464,38,44,879,1782,1874,2217,2355,2055,1842,1874,2004
864956,-1868,31276,-1077,31691,1116,828,615,-4,47,-42,1656,4397,47,45,880,1782,1874,2217,2355,2055,1842,1874,2004
865957,-1788,31348,-1012,31756,1148,871,644,24,70,-980,1562,4458,52,48,882,1782,1874,2217,2355,2055,1842,1874,2004
866958,-1716,31420,-947,31821,1239,862,701,64,9,-605,1173,4783,37,48,888,1733,1833,2088,2233,2080,1860,1883,2021
867959,-1660,31476,-882,31886,1451,1073,673,55,27,2230,70,4826,41,41,886,1733,1833,2088,2233,2080,1860,1883,2021
868960,-1608,31552,-817,31951,1517,810,515,-90,137,2816,464,2935,56,40,886,1733,1833,2088,2233,2080,1860,1883,2021
869961,-1532,31628,-752,32016,1204,796,279,-397,164,-702,2140,1252,54,55,878,1733,1833,2088,2233,2080,1860,1883,2021
870962,-1468,31700,-687,32081,1356,838,79,-645,55,-2812,2638,1750,42,47,880,1733,1833,2088,2233,2080,1860,1883,2021
871963,-1384,31772,-622,32146,1083,829,9,-712,-19,-908,1638,3084,56,56,887,1827,1969,2149,2295,2150,1928,1947,2118
872964,-1316,31856,-557,32211,1279,657,88,-574,-18,1348,1170,3922,59,56,884,1827,1969,2149,2295,2150,1928,1947,2118
873965,-1224,31932,-492,32276,947,743,250,-344,0,1686,787,4358,44,52,888,1827,1969,2149,2295,2150,1928,1947,2118
874966,-1160,32008,-427,32341,1298,730,382,-148,14,885,629,4271,49,42,887,1827,1969,2149,2295,2150,1928,1947,2118
875967,-1080,32076,-362,32406,1080,826,414,-28,34,481,780,3920,49,43,891,1827,1969,2149,2295,2150,1928,1947,2118
876968,-1020,32144,-297,32471,1336,823,370,-27,67,-27,1326,3405,54,54,886,1827,1969,2149,2295,2150,1928,1947,2118
877969,-936,32228,-232,32536,1014,599,286,-107,86,-842,1824,2852,49,40,888,1717,1832,2098,2225,2167,1921,1929,2062
878970,-884,32300,-167,32601,1430,741,205,-156,114,-1015,1708,3403,46,54,885,1717,1832,2098,2225,2167,1921,1929,2062
879971,-820,32368,-102,32666,1281,787,154,-152,164,-235,1703,3612,41,42,891,1717,1832,2098,2225,2167,1921,1929,2062
880972,-756,32456,-37,32731,1282,510,129,-159,189,-23,1832,3661,50,40,884,1717,1832,2098,2225,2167,1921,1929,2062
881973,-696,32516,28,32796,1339,866,108,-154,207,-449,1796,3700,39,52,886,1717,1832,2098,2225,2167,1921,1929,2062
882974,-604,32548,93,32861,906,1257,77,-178,209,-508,1706,3663,58,46,889,1705,1806,2064,2227,2071,1855,1863,1971
883975,-536,32628,158,32926,1203,638,24,-160,204,-345,1741,3788,40,44,884,1705,1806,2064,2227,2071,1855,1863,1971
884976,-460,32720,223,32991,1089,455,-37,-133,201,38,1758,3623,45,54,885,1705,1806,2064,2227,2071,1855,1863,1971
885977,-388,32788,288,33056,1132,752,-93,-83,206,218,1421,3734,45,43,888,1705,1806,2064,2227,2071,1855,1863,1971
886978,-328,32852,353,33121,1288,803,-143,-28,228,295,1275,3771,36,42,889,1705,1806,2064,2227,2071,1855,1863,1971
887979,-260,32916,418,33186,1184,804,-188,20,253,321,1357,3552,36,43,885,1705,1806,2064,2227,2071,1855,1863,1971
888980,-188,32988,483,33251,1127,696,-231,97,261,564,1437,3756,38,45,886,1719,1807,2084,2260,2050,1858,1862,2100
889981,-116,33052,548,33316,1118,798,-273,175,263,717,1475,3480,44,40,887,1719,1807,2084,2260,2050,1858,1862,2100
890982,-40,33124,613,33381,1055,689,-298,279,245,755,1266,3555,51,39,889,1719,1807,2084,2260,2050,1858,1862,2100
891983,32,33192,678,33446,1096,736,-290,376,250,643,1199,3343,37,54,887,1719,1807,2084,2260,2050,1858,1862,2100
892984,92,33272,743,33511,1252,567,-286,435,276,314,1233,3309,41,38,890,1719,1807,2084,2260,2050,1858,1862,2100
893985,168,33340,808,33576,1040,714,-291,496,292,229,1055,3393,35,53,889,1750,1830,2123,2295,2105,1908,1902,2028
894986,232,33404,873,33641,1191,765,-283,531,285,310,1314,3208,36,54,888,1750,1830,2123,2295,2105,1908,1902,2028
895987,316,33488,938,33706,918,492,-270,521,267,70,1406,3025,50,38,889,1750,1830,2123,2295,2105,1908,1902,2028
896988,352,33548,1003,33771,1553,798,-270,508,258,-237,1246,3218,55,53,887,1750,1830,2123,2295,2105,1908,1902,2028
897989,428,33616,1068,33836,1041,694,-292,513,259,-193,1477,3295,45,40,893,1750,1830,2123,2295,2105,1908,1902,2028
898990,500,33664,1133,33901,1082,965,-310,529,266,-88,1576,3085,37,46,882,1750,1830,2123,2295,2105,1908,1902,2028
899991,568,33732,1198,33966,1129,711,-335,534,272,-321,1947,3351,41,38,890,1750,1840,2120,2291,2086,1994,1965,1998
900992,640,33816,1263,34031,1070,488,-365,540,267,-549,2126,3222,52,46,886,1750,1840,2120,2291,2086,1994,1965,1998
901993,688,33876,1328,34096,1392,795,-405,566,279,-400,1787,3466,39,46,889,1750,1840,2120,2291,2086,1994,1965,1998
902994,744,33944,1393,34161,1303,691,-451,635,299,41,1850,3626,43,39,891,1750,1840,2120,2291,2086,1994,1965,1998
903995,824,34004,1458,34226,984,797,-491,702,318,118,1852,3469,54,47,883,1750,1840,2120,2291,2086,1994,1965,1998
904996,888,34060,1523,34291,1186,858,-530,764,300,77,1953,3677,38,42,885,1740,1842,2088,2240,2044,1828,1860,1985
905997,960,34132,1588,34356,1078,650,-550,792,278,-154,1891,3551,54,52,889,1740,1842,2088,2240,2044,1828,1860,1985
906998,1016,34188,1653,34421,1289,861,-560,860,265,65,1527,3729,36,52,886,1740,1842,2088,2240,2044,1828,1860,1985
907999,1084,34264,1718,34486,1135,597,-562,920,266,573,1295,3792,54,53,890,1740,1842,2088,2240,2044,1828,1860,1985
909000,1164,34312,1783,34551,967,968,-551,962,267,494,1296,3728,51,46,884,1740,1842,2088,2240,2044,1828,1860,1985
910001,1236,34404,1848,34616,1060,385,-547,950,264,196,1434,3670,42,49,889,1740,1842,2088,2240,2044,1828,1860,1985
911002,1304,34464,1913,34681,1106,791,-533,928,237,-97,1391,3593,53,53,888,1714,1814,2074,2304,2146,1845,1859,1996
912003,1376,34536,1978,34746,1047,633,-527,872,204,-48,1262,3492,48,47,893,1714,1814,2074,2304,2146,1845,1859,1996
913004,1456,34596,2043,34811,929,789,-520,864,179,133,983,3453,42,40,889,1714,1814,2074,2304,2146,1845,1859,1996
914005,1528,34672,2108,34876,1021,577,-520,825,193,358,1274,3346,41,42,890,1714,1814,2074,2304,2146,1845,1859,1996
915006,1604,34752,2173,34941,958,508,-508,770,173,-64,1500,3103,38,48,891,1714,1814,2074,2304,2146,1845,1859,1996
916007,1688,34820,2238,35006,835,655,-521,716,155,-182,1466,3017,51,53,892,1748,1842,2124,2290,2069,1869,1883,2006
917008,1760,34896,2303,35071,976,541,-530,660,152,66,1481,3067,51,56,893,1748,1842,2124,2290,2069,1869,1883,2006
918009,1828,34960,2368,35136,1023,692,-554,636,164,-24,1492,3007,37,55,893,1748,1842,2124,2290,2069,1869,1883,2006
919010,1916,35036,2433,35201,746,529,-585,581,163,-158,1781,2861,55,56,891,1748,1842,2124,2290,2069,1869,1883,2006
920011,1996,35108,2498,35266,827,570,-616,517,150,-309,1712,2779,58,42,893,1748,1842,2124,2290,2069,1869,1883,2006
921012,2064,35172,2563,35331,974,672,-667,443,144,-259,1792,3021,53,54,892,1748,1842,2124,2290,2069,1869,1883,2006
922013,2144,35228,2628,35396,805,783,-717,379,130,-161,1826,3009,35,41,891,1790,1963,2250,2316,2047,1841,1872,1996
923014,2216,35292,2693,35461,897,684,-764,338,109,-52,1598,3164,44,41,891,1790,1963,2250,2316,2047,1841,1872,1996
924015,2284,35376,2758,35526,943,411,-800,301,87,-150,1656,3315,55,55,892,1790,1963,2250,2316,2047,1841,1872,1996
925016,2356,35464,2823,35591,886,333,-817,290,60,-239,1653,3424,56,48,894,1790,1963,2250,2316,2047,1841,1872,1996
926017,2440,35532,2888,35656,712,579,-818,272,38,-97,1517,3676,57,56,895,1790,1963,2250,2316,2047,1841,1872,1996
927018,2516,35616,2953,35721,799,356,-808,282,14,-85,1302,3758,44,45,895,1752,1852,2087,2221,2049,1826,1866,2016
928019,2608,35676,3018,35786,566,662,-795,285,-6,68,1378,3897,39,53,896,1752,1852,2087,2221,2049,1826,1866,2016
929020,2680,35728,3083,35851,807,778,-771,264,-36,-367,1174,3541,40,38,896,1752,1852,2087,2221,2049,1826,1866,2016
930021,2748,35808,3148,35916,854,409,-739,262,-56,-122,1320,3924,46,43,892,1752,1852,2087,2221,2049,1826,1866,2016
931022,2836,35884,3213,35981,577,446,-707,254,-76,16,1174,3677,52,42,895,1752,1852,2087,2221,2049,1826,1866,2016
932023,2908,35956,3278,36046,768,487,-699,226,-103,-421,1049,3766,46,40,898,1752,1852,2087,2221,2049,1826,1866,2016
933024,2996,36020,3343,36111,540,589,-686,203,-125,-500,1351,3810,44,42,895,1758,1825,2069,2206,2066,1843,1873,2015
934025,3060,36080,3408,36176,841,646,-675,161,-136,-373,1333,3370,51,37,897,1758,1825,2069,2206,2066,1843,1873,2015
935026,3136,36140,3473,36241,678,652,-673,124,-148,-419,1343,3654,36,48,893,1758,1825,2069,2206,2066,1843,1873,2015
936027,3220,36216,3538,36306,555,438,-691,78,-174,-453,1373,3240,51,52,895,1758,1825,2069,2206,2066,1843,1873,2015
937028,3296,36292,3603,36371,641,425,-728,21,-188,-524,1416,3186,35,38,897,1758,1825,2069,2206,2066,1843,1873,2015
938029,3372,36344,3668,36436,628,741,-763,-34,-207,-541,1550,3208,50,36,895,1757,1861,2123,2301,2058,1855,1883,2003
939030,3452,36408,3733,36501,561,592,-799,-84,-243,-426,1436,3043,43,45,894,1757,1861,2123,2301,2058,1855,1883,2003
940031,3532,36476,3798,36566,542,538,-821,-120,-265,-191,1386,3121,51,43,897,1757,1861,2123,2301,2058,1855,1883,2003
941032,3608,36556,3863,36631,579,370,-851,-138,-285,-271,1260,3099,55,39,898,1757,1861,2123,2301,2058,1855,1883,2003
942033,3688,36612,3928,36696,510,681,-870,-149,-307,-163,1245,3265,44,50,898,1757,1861,2123,2301,2058,1855,1883,2003
943034,3772,36692,3993,36761,437,363,-891,-146,-345,-44,1139,3453,38,54,896,1757,1861,2123,2301,2058,1855,1883,2003
944035,3852,36772,4058,36826,469,344,-902,-146,-373,-41,1023,3392,53,54,900,1799,1883,2147,2331,2046,1850,1874,1986
945036,3924,36848,4123,36891,560,381,-902,-149,-390,-259,846,3795,34,48,900,1799,1883,2147,2331,2046,1850,1874,1986
946037,3992,36916,4188,36956,607,477,-897,-129,-417,-173,789,3806,37,42,899,1799,1883,2147,2331,2046,1850,1874,1986
947038,4076,36996,4253,37021,384,309,-878,-128,-434,-102,701,3893,55,57,898,1799,1883,2147,2331,2046,1850,1874,1986
948039,4164,37072,4318,37086,305,346,-860,-116,-443,-349,732,4128,55,55,901,1799,1883,2147,2331,2046,1850,1874,1986
949040,4248,37164,4383,37151,332,113,-842,-101,-459,-255,897,4106,47,55,901,1757,1843,2096,2257,2034,1829,1924,2080
950041,4324,37232,4582,37350,582,573,-833,-100,-491,-349,864,3977,38,43,903,1757,1843,2096,2257,2034,1829,1924,2080
951042,4400,37304,4647,37415,570,514,-832,-127,-498,-892,817,3933,31,48,897,1757,1843,2096,2257,2034,1829,1924,2080
952043,4484,37392,4712,37480,447,286,-812,-136,-504,-584,1008,3983,35,55,898,1757,1843,2096,2257,2034,1829,1924,2080
953044,4560,37480,4777,37545,533,258,-810,-154,-534,-647,974,3655,54,53,901,1757,1843,2096,2257,2034,1829,1924,2080
954045,4656,37548,4842,37610,246,504,-796,-146,-561,-661,1108,3661,40,44,899,1757,1843,2096,2257,2034,1829,1924,2080
955046,4756,37628,4907,37675,153,336,-792,-164,-575,-733,911,3523,53,51,899,1740,1844,2088,2256,2044,1832,1879,2005
956047,4844,37728,4972,37740,275,43,-784,-137,-595,-588,807,3727,53,56,902,1740,1844,2088,2256,2044,1832,1879,2005
957048,4928,37804,5037,37805,302,330,-785,-80,-611,-322,963,3713,45,48,904,1740,1844,2088,2256,2044,1832,1879,2005
958049,5004,37896,5102,37870,388,97,-793,-88,-636,-172,906,3274,49,58,901,1740,1844,2088,2256,2044,1832,1879,2005
959052,5100,37960,5167,37935,100,448,-812,-83,-665,-562,787,3401,35,57,902,1740,1844,2088,2256,2044,1832,1879,2005
960051,5192,38036,5232,38000,117,285,-835,-69,-689,-335,830,3284,44,46,902,1778,1881,2120,2302,2151,1971,1895,2013
961052,5264,38124,5297,38065,359,106,-850,-84,-701,-61,710,3322,40,48,903,1778,1881,2120,2302,2151,1971,1895,2013
962053,5364,38212,5362,38130,-34,78,-876,-99,-726,-304,456,3455,44,53,903,1778,1881,2120,2302,2151,1971,1895,2013
963054,5440,38304,5427,38195,253,-5,-892,-128,-758,-334,421,3281,55,46,905,1778,1881,2120,2302,2151,1971,1895,2013
964055,5532,38408,5492,38260,20,-202,-895,-182,-774,-383,326,3290,39,53,904,1778,1881,2120,2302,2151,1971,1895,2013
965056,5652,38492,5557,38325,-397,25,-913,-228,-776,-354,155,3460,38,46,904,1778,1881,2120,2302,2151,1971,1895,2013
966057,5764,38576,5622,38390,-355,1,-908,-263,-783,-138,287,3445,39,55,905,1792,1875,2121,2296,2046,1838,1866,1989
967058,5872,38656,5687,38455,-357,33,-891,-295,-809,-238,264,3428,38,59,905,1792,1875,2121,2296,2046,1838,1866,1989
968059,5952,38748,5752,38520,-26,-150,-868,-286,-796,-109,109,3821,37,56,905,1792,1875,2121,2296,2046,1838,1866,1989
969060,6044,38832,5817,38585,-209,-73,-849,-264,-779,-59,-3,3559,36,51,904,1792,1875,2121,2296,2046,1838,1866,1989
970061,6132,38892,5882,38650,-187,232,-829,-233,-771,-126,192,3687,42,51,888,1792,1875,2121,2296,2046,1838,1866,1989
971062,6204,38960,5947,38715,5,128,-805,-217,-739,-221,333,3605,47,44,887,1740,1824,2159,2304,2041,1819,1854,1953
972063,6284,39040,6012,38780,-114,-40,-808,-235,-714,-375,243,3379,53,50,902,1740,1824,2159,2304,2041,1819,1854,1953
973064,6372,39124,6077,38845,-243,-113,-820,-240,-723,-437,196,3368,52,48,897,1740,1824,2159,2304,2041,1819,1854,1953
974065,6456,39184,6142,38910,-216,193,-838,-248,-720,-355,309,3184,39,56,904,1740,1824,2159,2304,2041,1819,1854,1953
975066,6540,39276,6207,38975,-239,-240,-873,-273,-714,-472,508,3218,33,38,904,1740,1824,2159,2304,2041,1819,1854,1953
976067,6632,39344,6272,39040,-372,56,-909,-308,-719,-633,328,2969,52,48,903,1740,1824,2159,2304,2041,1819,1854,1953
977068,6716,39404,6337,39105,-295,163,-944,-321,-727,-410,421,2989,40,39,900,1724,1819,2049,2225,1996,1805,1857,1979
978069,6796,39472,6402,39170,-263,59,-969,-332,-731,-362,323,2879,44,51,905,1724,1819,2049,2225,1996,1805,1857,1979
979070,6880,39548,6467,39235,-337,-56,-978,-327,-742,-319,391,2973,35,39,905,1724,1819,2049,2225,1996,1805,1857,1979
980071,6964,39608,6532,39300,-361,151,-980,-317,-752,-472,130,3030,38,37,905,1724,1819,2049,2225,1996,1805,1857,1979
981072,7036,39664,6597,39365,-219,212,-979,-287,-753,-128,-37,2769,55,46,899,1724,1819,2049,2225,1996,1805,1857,1979
982073,7128,39728,6662,39430,-502,113,-962,-249,-756,26,5,3040,37,46,904,1776,1910,2064,2220,2046,1820,1868,1995
983074,7216,39792,6727,39495,-480,114,-945,-255,-763,-185,-130,2840,36,41,905,1776,1910,2064,2220,2046,1820,1868,1995
984075,7296,39864,6792,39560,-399,5,-927,-240,-775,-350,-405,3114,37,50,904,1776,1910,2064,2220,2046,1820,1868,1995
985076,7376,39916,6857,39625,-417,271,-919,-228,-766,-4,-473,2931,55,38,902,1776,1910,2064,2220,2046,1820,1868,1995
986077,7472,39992,6922,39690,-656,-42,-906,-221,-766,24,-340,2894,54,36,904,1776,1910,2064,2220,2046,1820,1868,1995
987078,7568,40068,6987,39755,-694,-57,-900,-262,-768,-406,-466,2941,56,37,905,1776,1910,2064,2220,2046,1820,1868,1995
988079,7648,40136,7052,39820,-512,40,-894,-294,-759,-466,-491,2985,39,50,904,1720,1816,2046,2212,2022,1799,1840,1958
989080,7724,40212,7117,39885,-475,-74,-904,-344,-742,-92,-543,2887,40,36,901,1720,1816,2046,2212,2022,1799,1840,1958
990081,7804,40272,7182,39950,-545,132,-915,-371,-728,50,-257,3023,40,48,905,1720,1816,2046,2212,2022,1799,1840,1958
991082,7912,40344,7247,40015,-947,-26,-937,-383,-712,-121,-246,2998,59,45,904,1720,1816,2046,2212,2022,1799,1840,1958
992083,8000,40424,7312,40080,-725,-144,-964,-384,-707,61,-150,2835,61,49,905,1720,1816,2046,2212,2022,1799,1840,1958
993084,8100,40488,7377,40145,-918,57,-1000,-360,-677,240,-216,3289,44,43,903,1730,1810,2031,2214,1983,1775,1828,1940
994085,8200,40536,7442,40210,-962,278,-1018,-349,-658,283,-206,2955,56,49,905,1730,1810,2031,2214,1983,1775,1828,1940
995086,8304,40596,7507,40275,-1059,133,-1031,-348,-660,43,-161,3017,56,43,903,1730,1810,2031,2214,1983,1775,1828,1940
996087,8396,40672,7572,40340,-942,-81,-1040,-336,-652,108,-184,3310,43,51,905,1730,1810,2031,2214,1983,1775,1828,1940
997088,8500,40736,7637,40405,-1140,70,-1040,-329,-641,267,-347,3099,62,52,903,1730,1810,2031,2214,1983,1775,1828,1940
998089,8592,40808,7702,40470,-1024,-38,-1041,-310,-661,320,-278,3109,48,40,904,1730,1810,2031,2214,1983,1775,1828,1940
999090,8676,40864,7767,40535,-947,173,-1031,-342,-687,179,-359,3063,54,46,905,1728,1817,2033,2215,1984,1790,1850,2047
1000091,8784,40940,7832,40600,-1301,-91,-999,-376,-685,-93,-324,3596,48,53,904,1728,1817,2033,2215,1984,1790,1850,2047
1001092,8892,41008,7897,40665,-1353,6,-965,-400,-704,160,-347,3144,48,50,904,1728,1817,2033,2215,1984,1790,1850,2047
1002093,9020,41064,7962,40730,-1680,167,-942,-392,-723,261,-215,3344,61,55,905,1728,1817,2033,2215,1984,1790,1850,2047
1003094,9108,41160,8027,40795,-1209,-372,-913,-344,-739,220,-343,3586,56,54,904,1728,1817,2033,2215,1984,1790,1850,2047
1004095,9224,41248,8092,40860,-1621,-300,-909,-292,-764,508,-763,3416,62,43,902,1723,1799,2044,2222,2047,1816,1873,2000
1005096,9348,41304,8157,40925,-1794,111,-906,-225,-760,527,-582,3101,51,41,902,1723,1799,2044,2222,2047,1816,1873,2000
1006097,9448,41376,8222,40990,-1537,-98,-887,-227,-744,81,-262,3496,55,39,903,1723,1799,2044,2222,2047,1816,1873,2000
1007098,9576,41460,8287,41055,-1964,-271,-864,-215,-743,-22,-710,3356,59,46,904,1723,1799,2044,2222,2047,1816,1873,2000
1008099,9708,41540,8352,41120,-2097,-239,-869,-177,-768,404,-529,3137,68,44,903,1723,1799,2044,2222,2047,1816,1873,2000
1009103,9832,41596,8417,41185,-2069,72,-865,-113,-743,615,-674,3430,53,52,903,1723,1799,2044,2222,2047,1816,1873,2000
1010101,9944,41648,8482,41250,-1977,137,-867,-96,-715,436,-555,3078,66,55,904,1748,1854,2075,2258,2030,1881,1905,1999
1011102,10064,41712,8547,41315,-2145,-12,-854,-124,-699,-166,-626,3721,59,45,904,1748,1854,2075,2258,2030,1881,1905,1999
1012103,10176,41780,8612,41380,-2103,-66,-829,-153,-708,8,-521,3914,63,58,905,1748,1854,2075,2258,2030,1881,1905,1999
1013104,10308,41856,8677,41445,-2435,-179,-796,-226,-710,788,-458,3621,79,53,904,1748,1854,2075,2258,2030,1881,1905,1999
1014105,10424,41924,8742,41510,-2298,-83,-753,-266,-707,580,-605,4087,62,56,904,1748,1854,2075,2258,2030,1881,1905,1999
1015106,10568,41988,8807,41575,-2745,-32,-735,-232,-706,164,-768,3930,69,47,905,1758,1851,2071,2263,2002,1789,1844,1948
1016107,10696,42072,8872,41640,-2623,-306,-718,-221,-719,753,-790,4214,74,50,905,1758,1851,2071,2263,2002,1789,1844,1948
1017108,10832,42152,8937,41705,-2810,-274,-689,-262,-739,936,-813,3940,70,47,902,1758,1851,2071,2263,2002,1789,1844,1948
1018109,10988,42220,9002,41770,-3172,-128,-654,-245,-760,672,-796,4143,66,43,903,1758,1851,2071,2263,2002,1789,1844,1948
1019110,11132,42308,9067,41835,-3119,-406,-637,-213,-777,682,-937,3921,68,54,904,1758,1851,2071,2263,2002,1789,1844,1948
1020111,11272,42388,9132,41900,-3162,-324,-607,-169,-781,601,-983,3917,84,43,902,1784,1877,2094,2263,2002,1789,1844,1948
1021112,11404,42448,9197,41965,-3144,-68,-566,-97,-771,674,-813,3949,85,49,903,1784,1877,2094,2348,2101,1827,1859,1965
1022113,11568,42508,9262,42030,-3665,-63,-543,-67,-758,844,-819,3685,81,42,891,1784,1877,2094,2348,2101,1827,1859,1965
