%  Data file recorded 2016/8/28  17:43:34
%  Stride Frequency         = [1, 1]
%  Lead In /Lead Out        = 
%  Deltas (Fractional)      = [0.25, 0.25, 0.25],[0.25, 0.25, 0.25]
%  Phase                    = 32768
%  Experiment.py 
%  Motor Gains    = [5000, 400, 200, 0, 300, 5000, 400, 200, 0, 300]
% Columns: 
% time | Right Leg Pos | Left Leg Pos | Commanded Right Leg Pos | Commanded Left Leg Pos | DCR | DCL | GyroX | GyroY | GyroZ | AX | AY | AZ | RBEMF | LBEMF | VBatt | S1 | S2 | S3 | S4 | S5 | S6 | S7 | S8
421,-15548,-47908,-49056,-16288,-3800,3800,-21,-7,-2,319,129,3916,9,7,916,1827,1895,2139,2335,2060,1863,1900,2012
1422,-15552,-47896,-49056,-16288,-3800,3800,-20,-8,-2,318,101,3916,10,4,916,1827,1895,2139,2335,2060,1863,1900,2012
2423,-15544,-47892,-49056,-16288,-3800,3800,-20,-7,-2,314,133,3889,8,-6,916,1827,1895,2139,2335,2060,1863,1900,2012
3424,-15548,-47888,-49056,-16288,-3800,3800,-21,-6,0,308,123,3892,1,-6,916,1827,1895,2139,2335,2060,1863,1900,2012
4425,-15560,-47896,-49056,-16288,-3800,3800,-21,-8,2,304,132,3912,4,3,916,1827,1895,2139,2335,2060,1863,1900,2012
5426,-15548,-47888,-49056,-16288,-3800,3800,-19,-8,2,298,122,3949,-6,6,916,1884,1896,2139,2336,2058,1861,1897,2010
6427,-15548,-47892,-49056,-16288,-3800,3800,-18,-7,2,325,125,3946,-7,-4,916,1884,1896,2139,2336,2058,1861,1897,2010
7428,-15552,-47892,-49056,-16288,-3800,3800,-19,-7,0,310,132,3922,-7,-4,916,1884,1896,2139,2336,2058,1861,1897,2010
8429,-15544,-47896,-49056,-16288,-3800,3800,-19,-7,0,315,141,3934,-9,7,916,1884,1896,2139,2336,2058,1861,1897,2010
9430,-15552,-47896,-49056,-16288,-3800,3800,-19,-6,2,322,131,3934,-9,6,916,1884,1896,2139,2336,2058,1861,1897,2010
10431,-15544,-47904,-49056,-16288,-3800,3800,-20,-3,2,297,116,3897,-8,-6,915,1828,1896,2140,2338,2060,1861,1896,2010
11432,-15544,-47892,-49056,-16288,-3800,3800,-19,-4,-1,300,143,3913,-3,7,916,1828,1896,2140,2338,2060,1861,1896,2010
12433,-15544,-47888,-49056,-16288,-3800,3800,-22,-8,-1,284,143,3952,3,8,916,1828,1896,2140,2338,2060,1861,1896,2010
13434,-15548,-47888,-49056,-16288,-3800,3800,-22,-7,0,289,127,3949,2,-6,916,1828,1896,2140,2338,2060,1861,1896,2010
14435,-15552,-47892,-49056,-16288,-3800,3800,-21,-5,1,300,127,3934,1,1,916,1828,1896,2140,2338,2060,1861,1896,2010
15436,-15540,-47900,-49056,-16288,-3800,3800,-18,-5,1,291,111,3908,0,6,916,1828,1896,2140,2338,2060,1861,1896,2010
16437,-15540,-47892,-49056,-16288,-3800,3800,-18,-5,1,293,97,3929,3,5,916,1826,1895,2139,2337,2059,1862,1898,2010
17438,-15548,-47888,-49056,-16288,-3800,3800,-21,-5,0,330,139,3946,10,-6,916,1826,1895,2139,2337,2059,1862,1898,2010
18439,-15544,-47896,-49056,-16288,-3800,3800,-22,-6,-1,297,110,3946,9,-6,916,1826,1895,2139,2337,2059,1862,1898,2010
19440,-15548,-47904,-49056,-16288,-3800,3800,-21,-5,1,284,103,3948,8,8,915,1826,1895,2139,2337,2059,1862,1898,2010
20441,-15556,-47904,-49056,-16288,-3800,3800,-19,-3,4,309,122,3921,8,-6,914,1826,1895,2139,2337,2059,1862,1898,2010
21442,-15552,-47892,-49056,-16288,-3800,3800,-19,-5,3,304,124,3931,3,-5,915,1825,1895,2138,2337,2058,1861,2063,2126
22443,-15548,-47892,-49056,-16288,-3800,3800,-20,-5,1,314,137,3931,-2,5,916,1825,1895,2138,2337,2058,1861,2063,2126
23444,-15552,-47892,-49056,-16288,-3800,3800,-20,-6,2,316,124,3899,-9,2,915,1825,1895,2138,2337,2058,1861,2063,2126
24445,-15552,-47896,-49056,-16288,-3800,3800,-22,-6,1,297,122,3913,-8,-5,916,1825,1895,2138,2337,2058,1861,2063,2126
25446,-15544,-47900,-49056,-16288,-3800,3800,-22,-4,0,296,144,3937,-4,-1,916,1825,1895,2138,2337,2058,1861,2063,2126
26447,-15532,-47896,-49056,-16288,-3800,3800,-20,-6,0,306,148,3939,8,8,916,1825,1895,2138,2337,2058,1861,2063,2126
27448,-15548,-47896,-49056,-16288,-3800,3800,-20,-5,-1,304,127,3905,10,-6,916,1826,1896,2139,2335,2055,1861,1898,2011
28449,-15552,-47892,-49056,-16288,-3800,3800,-21,-4,-2,298,140,3931,4,-1,916,1826,1896,2139,2335,2055,1861,1898,2011
29450,-15548,-47892,-49056,-16288,-3800,3800,-19,-6,-2,302,129,3909,-9,-5,916,1826,1896,2139,2335,2055,1861,1898,2011
30451,-15548,-47892,-49056,-16288,-3800,3800,-20,-7,-3,300,120,3901,-9,-5,916,1826,1896,2139,2335,2055,1861,1898,2011
31452,-15540,-47908,-49056,-16288,-3800,3800,-24,-6,-2,300,111,3918,-5,4,916,1826,1896,2139,2335,2055,1861,1898,2011
32453,-15548,-47900,-49056,-16288,-3800,3800,-24,-3,-2,294,134,3915,5,8,916,1826,1896,2139,2337,2146,1981,1897,2010
33454,-15544,-47888,-49056,-16288,-3800,3800,-20,-4,-4,283,139,3911,8,1,916,1826,1896,2139,2337,2146,1981,1897,2010
34455,-15552,-47884,-49056,-16288,-3800,3800,-20,-8,0,301,122,3936,10,-5,916,1826,1896,2139,2337,2146,1981,1897,2010
35456,-15544,-47892,-49056,-16288,-3800,3800,-20,-10,-1,292,133,3955,9,8,916,1826,1896,2139,2337,2146,1981,1897,2010
36457,-15560,-47880,-49056,-16288,-3800,3800,-19,-9,-4,312,145,3940,-1,-4,915,1826,1896,2139,2337,2146,1981,1897,2010
37458,-15548,-47896,-49056,-16288,-3800,3800,-21,-7,-4,311,110,3956,-7,6,914,1826,1896,2139,2337,2146,1981,1897,2010
38459,-15536,-47908,-49056,-16288,-3800,3800,-23,-6,-2,293,119,3926,9,-1,915,1828,1896,2140,2338,2060,1860,1896,2008
39460,-15556,-47892,-49056,-16288,-3800,3800,-23,-7,-3,291,133,3892,5,-6,916,1828,1896,2140,2338,2060,1860,1896,2008
40461,-15544,-47892,-49056,-16288,-3800,3800,-21,-8,-3,281,148,3904,-5,7,916,1828,1896,2140,2338,2060,1860,1896,2008
41462,-15544,-47892,-49056,-16288,-3800,3800,-20,-6,-4,292,142,3906,-7,-4,916,1828,1896,2140,2338,2060,1860,1896,2008
42463,-15548,-47896,-49056,-16288,-3800,3800,-18,-6,-2,285,124,3922,3,-5,916,1828,1896,2140,2338,2060,1860,1896,2008
43464,-15544,-47892,-49056,-16288,-3800,3800,-19,-6,-3,275,136,3919,11,4,916,1825,1895,2228,2428,2059,1860,1897,2008
44465,-15540,-47900,-49056,-16288,-3800,3800,-18,-4,-2,271,119,3930,2,8,916,1825,1895,2228,2428,2059,1860,1897,2008
45466,-15548,-47892,-49056,-16288,-3800,3800,-17,-5,-3,283,134,3948,-5,5,916,1825,1895,2228,2428,2059,1860,1897,2008
46467,-15544,-47880,-49056,-16288,-3800,3800,-18,-6,-5,287,142,3903,-9,-6,916,1825,1895,2228,2428,2059,1860,1897,2008
47468,-15544,-47892,-49056,-16288,-3800,3800,-19,-7,-5,302,130,3902,-3,-1,916,1825,1895,2228,2428,2059,1860,1897,2008
48469,-15552,-47908,-49056,-16288,-3800,3800,-18,-6,-3,285,131,3893,7,6,916,1825,1895,2228,2428,2059,1860,1897,2008
49470,-15540,-47892,-49056,-16288,-3800,3800,-17,-6,-3,270,126,3879,10,7,916,1825,1895,2139,2337,2059,1861,1898,2009
50471,-15544,-47884,-49056,-16288,-3800,3800,-17,-5,-6,270,131,3920,-5,-4,916,1825,1895,2139,2337,2059,1861,1898,2009
51472,-15540,-47896,-49056,-16288,-3800,3800,-16,-7,-6,279,123,3911,-9,-6,916,1825,1895,2139,2337,2059,1861,1898,2009
52473,-15548,-47888,-49056,-16288,-3800,3800,-17,-9,-3,302,125,3908,4,3,916,1825,1895,2139,2337,2059,1861,1898,2009
53474,-15540,-47888,-49056,-16288,-3800,3800,-15,-7,-2,299,119,3928,7,4,914,1825,1895,2139,2337,2059,1861,1898,2009
54475,-15544,-47896,-49056,-16288,-3800,3800,-16,-5,-2,300,142,3923,-7,-5,914,1882,2012,2140,2337,2055,1859,1895,2009
55476,-15548,-47892,-49056,-16288,-3800,3800,-17,-6,-3,309,133,3920,-9,0,916,1882,2012,2140,2337,2055,1859,1895,2009
56477,-15536,-47888,-49056,-16288,-3800,3800,-17,-6,-4,314,131,3912,5,8,916,1882,2012,2140,2337,2055,1859,1895,2009
57478,-15544,-47896,-49056,-16288,-3800,3800,-17,-6,-3,263,131,3954,10,2,916,1882,2012,2140,2337,2055,1859,1895,2009
58479,-15552,-47904,-49056,-16288,-3800,3800,-18,-6,-1,278,127,3953,9,-4,916,1882,2012,2140,2337,2055,1859,1895,2009
59480,-15540,-47888,-49056,-16288,-3800,3800,-19,-6,0,296,140,3914,-6,8,916,1882,2012,2140,2337,2055,1859,1895,2009
60481,-15536,-47896,-49056,-16288,-3800,3800,-18,-5,-1,294,124,3881,-7,4,916,1826,1896,2139,2336,2058,1860,1896,2009
61482,-15552,-47892,-49056,-16288,-3800,3800,-17,-5,2,297,128,3919,-9,-6,916,1826,1896,2139,2336,2058,1860,1896,2009
62483,-15552,-47888,-49056,-16288,-3800,3800,-16,-5,0,291,157,3949,2,4,916,1826,1896,2139,2336,2058,1860,1896,2009
63484,-15540,-47896,-49056,-16288,-3800,3800,-17,-5,-2,300,139,3957,10,8,915,1826,1896,2139,2336,2058,1860,1896,2009
64485,-15540,-47888,-49056,-16288,-3800,3800,-19,-5,0,284,134,3936,9,-6,915,1826,1896,2139,2336,2058,1860,1896,2009
65486,-15536,-47892,-49056,-16288,-3800,3800,-18,-5,1,272,135,3921,-9,6,916,1828,1896,2140,2337,2060,1861,1898,2011
66487,-15552,-47896,-49056,-16288,-3800,3800,-18,-6,-2,283,141,3891,-4,0,916,1828,1896,2140,2337,2060,1861,1898,2011
67488,-15544,-47896,-49056,-16288,-3800,3800,-17,-6,-3,285,121,3933,11,0,915,1828,1896,2140,2337,2060,1861,1898,2011
68489,-15556,-47904,-49056,-16288,-3800,3800,-18,-6,-2,275,124,3904,-5,-1,916,1828,1896,2140,2337,2060,1861,1898,2011
69490,-15556,-47880,-49056,-16288,-3800,3800,-20,-6,-1,262,126,3879,-5,-5,916,1828,1896,2140,2337,2060,1861,1898,2011
70491,-15540,-47896,-49056,-16288,-3800,3800,-21,-7,2,282,145,3916,10,8,914,1828,1896,2140,2337,2060,1861,1898,2011
71492,-15544,-47888,-49056,-16288,-3800,3800,-19,-7,2,292,146,3921,1,-5,914,1825,1895,2139,2336,2060,1862,1895,2118
72493,-15544,-47892,-49056,-16288,-3800,3800,-16,-6,0,276,136,3908,-8,-5,916,1825,1895,2139,2336,2060,1862,1895,2118
73494,-15540,-47896,-49056,-16288,-3800,3800,-17,-6,-2,265,149,3895,-7,1,916,1825,1895,2139,2336,2060,1862,1895,2118
74495,-15548,-47896,-49056,-16288,-3800,3800,-20,-5,0,274,149,3944,10,7,916,1825,1895,2139,2336,2060,1862,1895,2118
75496,-15536,-47904,-49056,-16288,-3800,3800,-21,-7,0,283,138,3934,1,-5,916,1825,1895,2139,2336,2060,1862,1895,2118
76497,-15544,-47900,-49056,-16288,-3800,3800,-20,-8,0,268,150,3945,-6,0,916,1826,1896,2140,2338,2060,1862,1897,2009
77498,-15544,-47896,-49056,-16288,-3800,3800,-18,-7,-1,307,161,3965,-7,8,916,1826,1896,2140,2338,2060,1862,1897,2009
78499,-15552,-47900,-49056,-16288,-3800,3800,-18,-6,-2,297,121,3923,6,6,916,1826,1896,2140,2338,2060,1862,1897,2009
79500,-15556,-47904,-49056,-16288,-3800,3800,-20,-4,0,303,121,3910,10,-6,916,1826,1896,2140,2338,2060,1862,1897,2009
80501,-15548,-47900,-49056,-16288,-3800,3800,-23,-6,0,292,124,3914,5,3,916,1826,1896,2140,2338,2060,1862,1897,2009
81502,-15556,-47892,-49056,-16288,-3800,3800,-22,-9,0,289,144,3919,2,8,916,1826,1896,2140,2338,2060,1862,1897,2009
82503,-15552,-47892,-49056,-16288,-3800,3800,-23,-10,-2,296,143,3927,-3,-6,916,1823,1895,2140,2338,2060,1976,2082,2012
83504,-15544,-47888,-49056,-16288,-3800,3800,-24,-9,-2,308,125,3898,-9,3,915,1823,1895,2140,2338,2060,1976,2082,2012
84505,-15544,-47900,-49056,-16288,-3800,3800,-24,-8,-1,294,114,3893,-7,8,915,1823,1895,2140,2338,2060,1976,2082,2012
85506,-15544,-47904,-49056,-16288,-3800,3800,-25,-9,-1,277,137,3935,3,-4,915,1823,1895,2140,2338,2060,1976,2082,2012
86507,-15544,-47888,-49056,-16288,-3800,3800,-24,-10,-1,305,128,3929,6,-2,916,1823,1895,2140,2338,2060,1976,2082,2012
87508,-15544,-47892,-49056,-16288,-3800,3800,-24,-8,-2,308,111,3914,-5,8,915,1824,1894,2137,2335,2060,1861,1897,2009
88509,-15544,-47892,-49056,-16288,-3800,3800,-23,-8,-1,309,107,3906,-6,-6,914,1824,1894,2137,2335,2060,1861,1897,2009
89510,-15548,-47900,-49056,-16288,-3800,3800,-21,-9,-3,295,111,3921,8,6,915,1824,1894,2137,2335,2060,1861,1897,2009
90511,-15548,-47896,-49056,-16288,-3800,3800,-21,-9,-4,300,124,3908,10,-6,916,1824,1894,2137,2335,2060,1861,1897,2009
91512,-15552,-47892,-49056,-16288,-3800,3800,-20,-7,-3,301,132,3918,8,-3,916,1824,1894,2137,2335,2060,1861,1897,2009
92513,-15544,-47892,-49056,-16288,-3800,3800,-20,-9,-2,302,126,3930,-5,8,915,1824,1894,2137,2335,2060,1861,1897,2009
93514,-15536,-47896,-49056,-16288,-3800,3800,-23,-12,-1,327,137,3897,-8,8,916,1825,1896,2138,2421,2155,1862,1896,2008
94515,-15544,-47908,-49056,-16288,-3800,3800,-23,-9,-3,292,156,3887,-8,0,916,1825,1896,2138,2421,2155,1862,1896,2008
95516,-15544,-47900,-49056,-16288,-3800,3800,-24,-7,-2,318,112,3874,9,7,916,1825,1896,2138,2421,2155,1862,1896,2008
96517,-15548,-47900,-49056,-16288,-3800,3800,-24,-8,-2,287,114,3881,10,-2,916,1825,1896,2138,2421,2155,1862,1896,2008
97518,-15532,-47896,-49056,-16288,-3800,3800,-24,-10,-2,301,100,3883,3,6,916,1825,1896,2138,2421,2155,1862,1896,2008
98519,-15552,-47896,-49056,-16288,-3800,3800,-24,-11,-2,285,129,3881,-9,3,916,1825,1894,2139,2336,2059,1860,1897,2007
99520,-15548,-47900,-49056,-16288,-3800,3800,-25,-11,-1,289,122,3865,-5,-6,916,1825,1894,2139,2336,2059,1860,1897,2007
100521,-15536,-47896,-49056,-16288,-3800,3800,-24,-10,-3,309,146,3880,3,7,915,1825,1894,2139,2336,2059,1860,1897,2007
101522,-15528,-47896,-49056,-16288,-3800,3800,-23,-11,-3,312,145,3849,7,2,916,1825,1894,2139,2336,2059,1860,1897,2007
102523,-15552,-47904,-49056,-16288,-3800,3800,-20,-10,-3,297,150,3883,-6,-6,916,1825,1894,2139,2336,2059,1860,1897,2007
103524,-15552,-47904,-49056,-16288,-3800,3800,-22,-9,-3,320,133,3913,-9,6,916,1825,1894,2139,2336,2059,1860,1897,2007
104525,-15556,-47892,-49056,-16288,-3800,3800,-22,-8,-4,309,140,3919,3,-2,915,1825,2007,2237,2339,2059,1860,1896,2008
105526,-15552,-47888,-49056,-16288,-3800,3800,-20,-9,-3,308,121,3933,7,-1,914,1825,2007,2237,2339,2059,1860,1896,2008
106527,-15548,-47896,-49056,-16288,-3800,3800,-22,-7,-4,300,123,3912,-4,8,916,1825,2007,2237,2339,2059,1860,1896,2008
107528,-15540,-47900,-49056,-16288,-3800,3800,-20,-6,-4,311,146,3911,-5,-3,916,1825,2007,2237,2339,2059,1860,1896,2008
108529,-15544,-47900,-49056,-16288,-3800,3800,-21,-7,-4,311,130,3918,7,6,916,1825,2007,2237,2339,2059,1860,1896,2008
109530,-15544,-47896,-49056,-16288,-3800,3800,-22,-8,-3,302,125,3920,10,3,916,1827,1895,2139,2339,2060,1862,1898,2010
110531,-15548,-47896,-49056,-16288,-3800,3800,-20,-7,-3,317,124,3917,0,-6,916,1827,1895,2139,2339,2060,1862,1898,2010
111532,-15552,-47900,-49056,-16288,-3800,3800,-20,-9,-5,325,135,3898,-8,-5,916,1827,1895,2139,2339,2060,1862,1898,2010
112533,-15540,-47896,-49056,-16288,-3800,3800,-19,-8,-5,333,157,3900,5,8,916,1827,1895,2139,2339,2060,1862,1898,2010
113534,-15552,-47896,-49056,-16288,-3800,3800,-21,-7,-4,322,137,3913,3,1,916,1827,1895,2139,2339,2060,1862,1898,2010
114535,-15548,-47900,-49056,-16288,-3800,3800,-19,-7,-4,307,149,3935,-9,7,916,1827,1895,2139,2339,2060,1862,1898,2010
115536,-15536,-47904,-49056,-16288,-3800,3800,-14,-6,-3,283,124,3950,-5,3,916,1884,1899,2138,2336,2058,1860,1897,2009
116537,-15544,-47904,-49056,-16288,-3800,3800,-15,-6,-5,297,122,3950,11,-6,915,1884,1899,2138,2336,2058,1860,1897,2009
117538,-15548,-47888,-49056,-16288,-3800,3800,-16,-5,-7,324,135,3947,-6,8,915,1884,1899,2138,2336,2058,1860,1897,2009
118539,-15548,-47888,-49056,-16288,-3800,3800,-16,-4,-6,325,148,3945,-5,-6,916,1884,1899,2138,2336,2058,1860,1897,2009
119540,-15544,-47904,-49056,-16288,-3800,3800,-17,-4,-5,304,131,3945,10,6,915,1884,1899,2138,2336,2058,1860,1897,2009
120541,-15540,-47896,-49056,-16288,-3800,3800,-16,-5,-4,283,118,3898,2,6,916,1825,1896,2139,2337,2059,1861,1896,2008
121542,-15544,-47896,-49056,-16288,-3800,3800,-15,-6,-3,323,123,3949,-7,-6,915,1825,1896,2139,2337,2059,1861,1896,2008
122543,-15548,-47900,-49056,-16288,-3800,3800,-13,-7,-3,323,122,3932,8,7,914,1825,1896,2139,2337,2059,1861,1896,2008
123544,-15552,-47892,-49056,-16288,-3800,3800,-14,-6,-3,300,130,3926,2,-3,916,1825,1896,2139,2337,2059,1861,1896,2008
124545,-15552,-47888,-49056,-16288,-3800,3800,-14,-4,-2,310,130,3916,-5,0,916,1825,1896,2139,2337,2059,1861,1896,2008
125546,-15544,-47892,-49056,-16288,-3800,3800,-15,-3,-1,294,120,3906,-8,-4,915,1825,1896,2139,2337,2059,1861,1896,2008
126547,-15548,-47892,-49056,-16288,-3800,3800,-12,-3,0,309,150,3903,-1,6,916,1827,1896,2140,2337,2060,1859,1895,2007
127548,-15536,-47892,-49056,-16288,-3800,3800,-12,-4,0,319,154,3946,8,-4,916,1827,1896,2140,2337,2060,1859,1895,2007
128549,-15544,-47892,-49056,-16288,-3800,3800,-12,-4,-2,300,147,3942,7,0,916,1827,1896,2140,2337,2060,1859,1895,2007
129550,-15544,-47892,-49056,-16288,-3800,3800,-13,-5,-3,304,127,3937,-3,1,916,1827,1896,2140,2337,2060,1859,1895,2007
130551,-15556,-47884,-49056,-16288,-3800,3800,-14,-2,-1,288,121,3922,-9,8,916,1827,1896,2140,2337,2060,1859,1895,2007
131552,-15548,-47888,-49056,-16288,-3800,3800,-13,-3,-1,299,143,3936,3,5,916,1826,1895,2139,2338,2060,1862,2065,2133
132553,-15548,-47888,-49056,-16288,-3800,3800,-12,-4,-1,304,141,3943,9,7,916,1826,1895,2139,2338,2060,1862,2065,2133
133554,-15540,-47896,-49056,-16288,-3800,3800,-14,-6,-3,286,156,3929,10,6,916,1826,1895,2139,2338,2060,1862,2065,2133
134555,-15548,-47900,-49056,-16288,-3800,3800,-14,-5,2,284,138,3917,3,0,916,1826,1895,2139,2338,2060,1862,2065,2133
135556,-15548,-47896,-49056,-16288,-3800,3800,-14,-2,2,287,150,3925,-8,2,916,1826,1895,2139,2338,2060,1862,2065,2133
136557,-15540,-47892,-49056,-16288,-3800,3800,-15,0,1,302,156,3943,-8,0,916,1826,1895,2139,2338,2060,1862,2065,2133
137558,-15548,-47896,-49056,-16288,-3800,3800,-17,-1,2,278,141,3935,8,8,916,1825,1895,2142,2338,2064,1864,1897,2010
138559,-15540,-47900,-49056,-16288,-3800,3800,-20,-3,4,281,134,3938,9,7,915,1825,1895,2142,2338,2064,1864,1897,2010
139560,-15540,-47896,-49056,-16288,-3800,3800,-19,-2,3,260,130,3947,-7,4,914,1825,1895,2142,2338,2064,1864,1897,2010
140561,-15536,-47888,-49056,-16288,-3800,3800,-18,-6,4,281,122,3957,-6,-5,915,1825,1895,2142,2338,2064,1864,1897,2010
141562,-15556,-47892,-49056,-16288,-3800,3800,-18,-3,4,290,107,3919,1,3,916,1825,1895,2142,2338,2064,1864,1897,2010
142563,-15552,-47900,-49056,-16288,-3800,3800,-17,-3,5,266,119,3954,3,-4,916,1825,1894,2139,2335,2149,1988,1913,2011
143564,-15552,-47892,-49056,-16288,-3800,3800,-19,-2,5,265,136,3962,10,-4,916,1825,1894,2139,2335,2149,1988,1913,2011
144565,-15548,-47904,-49056,-16288,-3800,3800,-23,-3,6,276,133,3921,5,8,916,1825,1894,2139,2335,2149,1988,1913,2011
145566,-15552,-47888,-49056,-16288,-3800,3800,-23,-4,5,282,131,3930,6,-4,916,1825,1894,2139,2335,2149,1988,1913,2011
146567,-15552,-47884,-49056,-16288,-3800,3800,-21,-2,5,312,119,3904,-8,0,916,1825,1894,2139,2335,2149,1988,1913,2011
147568,-15540,-47892,-49056,-16288,-3800,3800,-23,-4,5,285,125,3907,-9,-1,916,1825,1894,2139,2335,2149,1988,1913,2011
148569,-15544,-47904,-49056,-16288,-3800,3800,-25,-7,5,286,138,3921,-7,6,916,1824,1894,2138,2336,2061,1862,1898,2011
149570,-15544,-47896,-49056,-16288,-3800,3800,-24,-6,5,295,117,3885,3,6,916,1824,1894,2138,2336,2061,1862,1898,2011
150571,-15540,-47892,-49056,-16288,-3800,3800,-24,-7,3,292,127,3919,6,-4,916,1824,1894,2138,2336,2061,1862,1898,2011
151572,-15548,-47896,-49056,-16288,-3800,3800,-25,-7,2,304,119,3943,10,2,916,1824,1894,2138,2336,2061,1862,1898,2011
152573,-15544,-47904,-49056,-16288,-3800,3800,-24,-7,3,293,114,3941,3,7,916,1824,1894,2138,2336,2061,1862,1898,2011
153574,-15544,-47904,-49056,-16288,-3800,3800,-25,-8,4,291,133,3946,-1,8,915,1825,1894,2226,2430,2073,1862,1897,2010
154575,-15540,-47896,-49056,-16288,-3800,3800,-24,-6,4,287,140,3892,-4,2,915,1825,1894,2226,2430,2073,1862,1897,2010
155576,-15544,-47888,-49056,-16288,-3800,3800,-25,-5,4,273,105,3906,-3,-6,914,1825,1894,2226,2430,2073,1862,1897,2010
156577,-15540,-47884,-49056,-16288,-3800,3800,-26,-6,4,292,119,3907,-6,-2,915,1825,1894,2226,2430,2073,1862,1897,2010
157578,-15548,-47904,-49056,-16288,-3800,3800,-26,-8,1,299,130,3951,-9,2,916,1825,1894,2226,2430,2073,1862,1897,2010
158579,-15548,-47900,-49056,-16288,-3800,3800,-25,-8,2,304,140,3934,-9,4,915,1825,1894,2226,2430,2073,1862,1897,2010
159580,-15548,-47892,-49056,-16288,-3800,3800,-27,-8,0,298,139,3929,-9,7,916,1824,1895,2139,2335,2061,1861,1897,2010
160581,-15544,-47900,-49056,-16288,-3800,3800,-29,-9,1,305,136,3918,-9,8,916,1824,1895,2139,2335,2061,1861,1897,2010
161583,-15540,-47904,-49056,-16288,-3800,3800,-29,-9,0,291,121,3902,-9,6,916,1824,1895,2139,2335,2061,1861,1897,2010
162583,-15540,-47900,-49056,-16288,-3800,3800,-28,-9,-2,285,140,3896,-7,4,916,1824,1895,2139,2335,2061,1861,1897,2010
163584,-15536,-47904,-49056,-16288,-3800,3800,-28,-9,-1,299,126,3915,-8,2,916,1824,1895,2139,2335,2061,1861,1897,2010
164585,-15540,-47884,-49056,-16288,-3800,3800,-26,-10,0,280,119,3885,-1,7,916,1877,2014,2155,2335,2059,1860,1898,2012
165586,-15548,-47892,-49056,-16288,-3800,3800,-26,-9,-1,276,136,3860,5,8,916,1877,2014,2155,2335,2059,1860,1898,2012
166587,-15536,-47900,-49056,-16288,-3800,3800,-27,-11,-4,303,119,3906,1,-5,916,1877,2014,2155,2335,2059,1860,1898,2012
167588,-15536,-47888,-49056,-16288,-3800,3800,-27,-11,-5,313,151,3925,6,7,916,1877,2014,2155,2335,2059,1860,1898,2012
168589,-15552,-47892,-49056,-16288,-3800,3800,-26,-8,-3,286,143,3936,4,6,915,1877,2014,2155,2335,2059,1860,1898,2012
169590,-15544,-47904,-49056,-16288,-3800,3800,-25,-7,-4,293,130,3924,4,-5,916,1877,2014,2155,2335,2059,1860,1898,2012
170591,-15544,-47888,-49056,-16288,-3800,3800,-22,-8,-7,274,133,3907,10,-3,916,1826,1896,2138,2336,2059,1860,1896,2007
171592,-15544,-47892,-49056,-16288,-3800,3800,-21,-12,-5,281,128,3905,10,2,915,1826,1896,2138,2336,2059,1860,1896,2007
172593,-15544,-47896,-49056,-16288,-3800,3800,-23,-11,-6,289,136,3911,10,4,914,1826,1896,2138,2336,2059,1860,1896,2007
173597,-15556,-47892,-49056,-16288,-3800,3800,-25,-9,-9,304,127,3886,2,-5,916,1826,1896,2138,2336,2059,1860,1896,2007
174595,-15544,-47892,-49056,-16288,-3800,3800,-23,-9,-9,301,125,3884,3,-1,916,1826,1896,2138,2336,2059,1860,1896,2007
175596,-15540,-47900,-49056,-16288,-3800,3800,-21,-9,-9,298,114,3905,10,8,916,1841,1898,2141,2338,2060,1860,1896,2008
176597,-15552,-47892,-49056,-16288,-3800,3800,-21,-10,-6,307,112,3887,10,0,916,1841,1898,2141,2338,2060,1860,1896,2008
177598,-15552,-47888,-49056,-16288,-3800,3800,-21,-12,-7,301,118,3891,7,-5,916,1841,1898,2141,2338,2060,1860,1896,2008
178599,-15552,-47896,-49056,-16288,-3800,3800,-20,-11,-8,314,139,3919,10,-3,916,1841,1898,2141,2338,2060,1860,1896,2008
179600,-15540,-47900,-49056,-16288,-3800,3800,-18,-9,-8,314,147,3943,9,7,916,1841,1898,2141,2338,2060,1860,1896,2008
180601,-15540,-47892,-49056,-16288,-3800,3800,-19,-11,-8,316,140,3941,4,7,916,1825,1895,2138,2337,2059,1860,1897,2102
181602,-15552,-47888,-49056,-16288,-3800,3800,-18,-10,-7,304,131,3892,-2,-2,916,1825,1895,2138,2337,2059,1860,1897,2102
182603,-15548,-47884,-49056,-16288,-3800,3800,-17,-9,-7,308,118,3868,-8,-6,916,1825,1895,2138,2337,2059,1860,1897,2102
183604,-15548,-47892,-49056,-16288,-3800,3800,-16,-8,-9,323,154,3918,-7,-6,916,1825,1895,2138,2337,2059,1860,1897,2102
184605,-15552,-47892,-49056,-16288,-3800,3800,-15,-9,-10,322,142,3912,-6,-2,916,1825,1895,2138,2337,2059,1860,1897,2102
185606,-15544,-47888,-49056,-16288,-3800,3800,-13,-11,-9,321,137,3927,0,8,916,1825,1895,2138,2337,2059,1860,1897,2102
186607,-15560,-47900,-49056,-16288,-3800,3800,-15,-9,-9,313,126,3911,6,8,916,1826,1895,2138,2337,2060,1859,1895,2007
187608,-15548,-47896,-49056,-16288,-3800,3800,-15,-8,-8,321,139,3935,10,-6,916,1826,1895,2138,2337,2060,1859,1895,2007
188609,-15548,-47896,-49056,-16288,-3800,3800,-14,-8,-8,325,147,3894,1,8,915,1826,1895,2138,2337,2060,1859,1895,2007
189610,-15536,-47896,-49056,-16288,-3800,3800,-16,-7,-10,310,138,3942,0,5,914,1826,1895,2138,2337,2060,1859,1895,2007
190611,-15544,-47888,-49056,-16288,-3800,3800,-15,-6,-10,319,130,3947,-7,-4,915,1826,1895,2138,2337,2060,1859,1895,2007
191612,-15552,-47896,-49056,-16288,-3800,3800,-14,-5,-7,317,140,3917,0,6,916,1826,1895,2140,2337,2059,1946,2087,2062
192613,-15552,-47892,-49056,-16288,-3800,3800,-12,-7,-7,320,131,3918,9,8,916,1826,1895,2140,2337,2059,1946,2087,2062
193614,-15536,-47892,-49056,-16288,-3800,3800,-11,-7,-7,305,142,3911,10,1,916,1826,1895,2140,2337,2059,1946,2087,2062
194615,-15544,-47908,-49056,-16288,-3800,3800,-12,-5,-7,297,126,3900,-2,6,916,1826,1895,2140,2337,2059,1946,2087,2062
195616,-15552,-47888,-49056,-16288,-3800,3800,-13,-6,-5,277,118,3898,-9,6,916,1826,1895,2140,2337,2059,1946,2087,2062
196617,-15544,-47892,-49056,-16288,-3800,3800,-13,-7,-3,288,134,3912,-8,-5,916,1826,1895,2140,2337,2059,1946,2087,2062
197618,-15536,-47892,-49056,-16288,-3800,3800,-13,-7,-4,286,144,3904,-4,-3,916,1825,1894,2138,2336,2061,1861,1897,2009
198619,-15552,-47896,-49056,-16288,-3800,3800,-11,-6,-4,298,157,3932,-8,0,915,1825,1894,2138,2336,2061,1861,1897,2009
199620,-15548,-47904,-49056,-16288,-3800,3800,-11,-5,-2,266,152,3895,-7,8,915,1825,1894,2138,2336,2061,1861,1897,2009
200621,-15564,-47888,-49056,-16288,-3800,3800,-14,-6,-3,289,148,3895,-1,-3,915,1825,1894,2138,2336,2061,1861,1897,2009
201622,-15548,-47892,-49056,-16288,-3800,3800,-15,-5,-3,300,129,3927,2,-5,916,1825,1894,2138,2336,2061,1861,1897,2009
202623,-15548,-47900,-49056,-16288,-3800,3800,-15,-5,-2,301,143,3927,6,7,916,1826,1896,2140,2393,2162,1936,1897,2009
203624,-15544,-47884,-49056,-16288,-3800,3800,-15,-5,-1,297,144,3929,8,5,915,1826,1896,2140,2393,2162,1936,1897,2009
204625,-15544,-47888,-49056,-16288,-3800,3800,-15,-4,1,298,143,3902,2,-1,915,1826,1896,2140,2393,2162,1936,1897,2009
205626,-15552,-47896,-48991,-16223,-3800,3800,-15,-4,1,293,143,3957,-3,2,914,1826,1896,2140,2393,2162,1936,1897,2009
206627,-15556,-47896,-48926,-16158,-3800,3800,-14,-3,-1,297,121,3922,-9,290,863,1826,1896,2140,2393,2162,1936,1897,2009
207628,-15552,-47872,-48861,-16093,-3800,3800,-12,-4,-2,280,144,3910,5,283,865,1826,1896,2140,2393,2162,1936,1897,2009
208629,-15552,-47748,-48796,-16028,-3800,3800,-13,-1,-4,332,150,3822,4,315,866,1825,1894,2139,2335,2063,1862,1897,2007
209630,-15544,-47572,-48731,-15963,-3800,3800,-23,10,-5,371,119,3883,7,305,873,1825,1894,2139,2335,2063,1862,1897,2007
210631,-15544,-47332,-48666,-15898,-3800,3800,-24,45,-10,759,71,3591,8,300,875,1825,1894,2139,2335,2063,1862,1897,2007
211632,-15552,-47100,-48601,-15833,-3800,3800,-30,86,-14,691,85,3725,5,300,877,1825,1894,2139,2335,2063,1862,1897,2007
212633,-15552,-46796,-48536,-15768,-3800,3800,-26,173,-33,694,-119,3398,6,317,876,1825,1894,2139,2335,2063,1862,1897,2007
213634,-15544,-46488,-48471,-15703,-3800,3800,-16,252,-54,1189,-112,3323,5,330,883,1821,1948,2231,2410,2059,1858,1889,1993
214635,-15548,-46080,-48406,-15638,-3800,3800,-15,237,-70,908,-433,2924,26,328,886,1821,1948,2231,2410,2059,1858,1889,1993
215636,-15540,-45696,-48341,-15573,-3800,3800,-41,277,-109,530,-182,3701,5,328,885,1821,1948,2231,2410,2059,1858,1889,1993
216637,-15552,-45288,-48276,-15508,-3800,3800,-79,339,-158,78,-245,3583,5,304,886,1821,1948,2231,2410,2059,1858,1889,1993
217638,-15548,-44868,-48211,-15443,-3800,3800,-72,317,-176,1202,-242,2541,10,334,889,1821,1948,2231,2410,2059,1858,1889,1993
218639,-15544,-44404,-48146,-15378,-3800,3800,-116,191,-220,845,-54,3936,22,327,892,1821,1948,2231,2410,2059,1858,1889,1993
219640,-15552,-43904,-48081,-15313,-3800,3800,-115,77,-246,-1121,-187,2979,21,342,894,1792,1855,2095,2297,2025,1835,1868,1959
220641,-15552,-43344,-48016,-15248,-3800,3800,-118,-38,-268,-29,-58,4340,10,324,893,1792,1855,2095,2297,2025,1835,1868,1959
221642,-15556,-42840,-47951,-15183,-3800,3800,-72,-95,-234,-107,-146,4082,23,340,895,1792,1855,2095,2297,2025,1835,1868,1959
222643,-15556,-42284,-47886,-15118,-3800,3800,-7,-157,-179,763,96,4246,24,323,893,1792,1855,2095,2297,2025,1835,1868,1959
223645,-15552,-41716,-47821,-15053,-3800,3800,11,-116,-206,491,-186,5219,13,334,895,1792,1855,2095,2297,2025,1835,1868,1959
224645,-15552,-41156,-47756,-14988,-3800,3800,40,-157,-168,609,-8,3394,5,340,894,1822,1950,2081,2281,2030,1838,1890,2006
225646,-15544,-40556,-47691,-14923,-3800,3800,58,-170,-126,1060,308,5860,20,328,898,1822,1950,2081,2281,2030,1838,1890,2006
226647,-15552,-39964,-47626,-14858,-3800,3800,107,-247,-74,4,484,3388,11,356,900,1822,1950,2081,2281,2030,1838,1890,2006
227648,-15560,-39360,-47561,-14793,-3800,3800,140,-255,-40,975,705,5783,6,354,900,1822,1950,2081,2281,2030,1838,1890,2006
228649,-15552,-38768,-47496,-14728,-3800,3800,138,-311,-95,1302,163,3234,18,358,899,1822,1950,2081,2281,2030,1838,1890,2006
229650,-15568,-38172,-47431,-14663,-3800,3800,189,-371,-58,1433,355,5190,11,334,900,1822,1950,2081,2281,2030,1838,1890,2006
230651,-15556,-37488,-47366,-14598,-3800,3800,258,-518,3,512,1216,4181,11,328,900,1868,1963,2201,2411,2075,1871,1919,2071
231652,-15568,-36896,-47301,-14533,-3800,3800,347,-688,-81,1531,610,3994,14,360,900,1868,1963,2201,2411,2075,1871,1919,2071
232653,-15568,-36240,-47236,-14468,-3800,3800,372,-836,-93,575,677,5045,24,333,899,1868,1963,2201,2411,2075,1871,1919,2071
233654,-15552,-35656,-47171,-14403,-3800,3800,325,-1051,-99,-119,627,2812,8,352,900,1868,1963,2201,2411,2075,1871,1919,2071
234655,-15572,-35048,-47106,-14338,-3800,3800,318,-1156,-42,-29,1119,5535,13,335,900,1868,1963,2201,2411,2075,1871,1919,2071
235656,-15564,-34388,-47041,-14273,-3800,3800,197,-1203,-86,-58,990,4417,18,365,900,2028,2116,2355,2541,2097,1873,1944,2094
236657,-15564,-33768,-46976,-14208,-3800,3800,146,-1342,12,-103,1132,4252,23,338,901,2028,2116,2355,2541,2097,1873,1944,2094
237658,-15560,-33144,-46911,-14143,-3800,3800,130,-1328,-19,267,558,5689,20,347,902,2028,2116,2355,2541,2097,1873,1944,2094
238659,-15560,-32552,-46846,-14078,-3800,3800,135,-1518,66,-884,838,3680,23,337,902,2028,2116,2355,2541,2097,1873,1944,2094
239660,-15572,-31960,-46781,-14013,-3800,3800,226,-1464,125,-361,326,7395,23,366,902,2028,2116,2355,2541,2097,1873,1944,2094
240661,-15572,-31376,-46716,-13948,-3800,3800,328,-1466,184,651,229,4314,12,339,900,2028,2116,2355,2541,2097,1873,1944,2094
241662,-15576,-30760,-46651,-13883,-3800,3800,542,-1377,284,-490,490,6986,6,367,900,2007,2093,2324,2466,2136,1904,1950,2234
242663,-15576,-30200,-46586,-13818,-3800,3800,655,-1289,302,-528,616,5720,6,341,900,2007,2093,2324,2466,2136,1904,1950,2234
243664,-15588,-29660,-46521,-13753,-3800,3800,846,-1330,475,-364,666,5718,5,356,900,2007,2093,2324,2466,2136,1904,1950,2234
244665,-15572,-29100,-46456,-13688,-3800,3800,1028,-1350,601,-1086,781,6422,5,348,902,2007,2093,2324,2466,2136,1904,1950,2234
245666,-15580,-28572,-46391,-13623,-3800,3800,1194,-1619,788,-871,1348,3869,13,363,901,2007,2093,2324,2466,2136,1904,1950,2234
246667,-15588,-27972,-46326,-13558,-3800,3800,1340,-1703,888,-2098,1665,7458,17,330,900,1901,1968,2220,2423,2079,1868,1898,1973
247668,-15584,-27440,-46261,-13493,-3800,3800,1411,-1896,1010,-1929,1952,3434,11,330,899,1901,1968,2220,2423,2079,1868,1898,1973
248669,-15580,-26904,-46196,-13428,-3800,3800,1445,-1892,1071,-1230,2249,6682,13,338,899,1901,1968,2220,2423,2079,1868,1898,1973
249670,-15584,-26412,-46131,-13363,-3800,3800,1416,-1878,1149,-484,1973,3497,6,329,904,1901,1968,2220,2423,2079,1868,1898,1973
250671,-15580,-25864,-46066,-13298,-3800,3800,1424,-1870,1352,-183,2974,5295,22,331,898,1901,1968,2220,2423,2079,1868,1898,1973
251672,-15584,-25308,-46001,-13233,-3800,3800,1342,-1789,1314,-1014,1574,4332,14,356,897,1901,1968,2220,2423,2079,1868,1898,1973
252673,-15588,-24772,-45936,-13168,-3800,3800,1341,-1796,1509,-353,2105,3791,9,355,898,2016,2032,2288,2599,1952,1921,2007,1897
253674,-15584,-24292,-45871,-13103,-3800,3800,1328,-1485,1663,2047,2509,5606,5,356,889,2016,2032,2288,2599,1952,1921,2007,1897
254675,-15588,-23820,-45806,-13038,-3800,3800,1365,-1418,1839,-540,1758,1622,11,339,899,2016,2032,2288,2599,1952,1921,2007,1897
255676,-15572,-23304,-45741,-12973,-3800,3800,1341,-1036,1788,-1142,1207,6214,16,351,899,2016,2032,2288,2599,1952,1921,2007,1897
256677,-15580,-22804,-45676,-12908,-3800,3800,1347,-962,1911,662,824,1660,15,363,899,2016,2032,2288,2599,1952,1921,2007,1897
257678,-15584,-22244,-45611,-12843,-3800,3800,1293,-1046,1868,721,-353,3898,9,325,891,2101,2071,2349,2594,1982,1819,1828,1935
258679,-15588,-21752,-45546,-12778,-3800,3800,1108,-1085,1731,-712,-581,2948,23,333,900,2101,2071,2349,2594,1982,1819,1828,1935
259680,-15580,-21220,-45481,-12713,-3800,3800,876,-405,1530,-178,-1399,3242,16,365,900,2101,2071,2349,2594,1982,1819,1828,1935
260681,-15588,-20720,-45416,-12648,-3800,3800,622,174,1309,2034,-2679,594,13,363,901,2101,2071,2349,2594,1982,1819,1828,1935
261682,-15584,-20148,-45351,-12583,-3800,2962,442,364,1211,133,-2139,1226,24,365,899,2101,2071,2349,2594,1982,1819,1828,1935
262683,-15588,-19540,-45286,-12518,-3800,1852,399,955,1280,446,-1268,5067,6,366,907,2101,2071,2349,2594,1982,1819,1828,1935
263684,-15584,-18940,-45221,-12453,-3800,1301,518,1519,1579,2491,-459,-907,7,300,911,1851,1855,2131,2350,2222,1938,1900,2040
264685,-15584,-18372,-45156,-12388,-3800,1090,735,1839,1747,616,-1647,2455,16,304,912,1851,1855,2131,2350,2222,1938,1900,2040
265686,-15592,-17832,-45091,-12323,-3800,862,892,1463,1796,-4455,-1599,1116,26,337,910,1851,1855,2131,2350,2222,1938,1900,2040
266687,-15580,-17208,-45026,-12258,-3800,-868,1159,1058,2110,-6461,-1238,2658,8,327,914,1851,1855,2131,2350,2222,1938,1900,2040
267688,-15584,-16544,-44961,-12193,-3800,-2097,1329,812,2402,-3853,899,3894,10,332,905,1851,1855,2131,2350,2222,1938,1900,2040
268689,-15584,-15972,-44896,-12128,-3800,-1564,1440,734,2620,-3204,1024,3056,1,311,878,1415,1485,1745,1911,2147,1939,1858,1896
269690,-15584,-15452,-44831,-12063,-3800,-1469,1422,1061,2718,480,2020,5083,3,272,888,1415,1485,1745,1911,2147,1939,1858,1896
270691,-15588,-14960,-44766,-11998,-3800,-1639,1337,1420,2770,1620,1771,1734,7,251,893,1415,1485,1745,1911,2147,1939,1858,1896
271692,-15584,-14504,-44701,-11933,-3800,-1665,1202,1750,2852,1235,2009,1770,-1,234,890,1415,1485,1745,1911,2147,1939,1858,1896
272693,-15580,-14080,-44636,-11868,-3800,-1702,1018,1919,2742,2431,1403,1821,-6,203,890,1415,1485,1745,1911,2147,1939,1858,1896
273694,-15572,-13744,-44571,-11803,-3800,-932,840,2226,2541,1325,997,165,3,189,888,1415,1485,1745,1911,2147,1939,1858,1896
274695,-15584,-13408,-44506,-11738,-3800,-1262,625,2539,2421,2901,1673,976,-7,176,903,1479,1666,1880,2056,1932,1768,1787,1821
275696,-15576,-13104,-44441,-11673,-3800,-1153,349,2976,2288,4288,1097,639,-3,168,899,1479,1666,1880,2056,1932,1768,1787,1821
276697,-15580,-12856,-44376,-11608,-3800,-676,57,3276,2132,3032,311,663,14,144,901,1479,1666,1880,2056,1932,1768,1787,1821
277698,-15572,-12600,-44311,-11543,-3800,-1008,-229,3286,1949,1563,-129,1451,-1,142,907,1479,1666,1880,2056,1932,1768,1787,1821
278699,-15572,-12352,-44246,-11478,-3800,-1132,-480,3163,1796,-117,-1011,1597,7,136,904,1479,1666,1880,2056,1932,1768,1787,1821
279700,-15576,-12112,-44181,-11413,-3800,-1245,-649,3083,1720,269,-1450,1321,13,134,903,1775,1785,2071,2297,1932,1772,1771,1927
280701,-15576,-11932,-44116,-11348,-3800,-635,-740,3019,1679,682,-2226,1615,-5,112,900,1775,1785,2071,2297,1932,1772,1771,1927
281702,-15568,-11748,-44051,-11283,-3800,-830,-770,3016,1668,580,-2790,1516,-1,88,908,1775,1785,2071,2297,1932,1772,1771,1927
282703,-15576,-11584,-43986,-11218,-3800,-701,-772,3078,1676,-216,-3192,1512,-3,99,907,1775,1785,2071,2297,1932,1772,1771,1927
283704,-15580,-11416,-43921,-11153,-3800,-876,-773,3031,1733,-1104,-3192,503,-1,71,909,1775,1785,2071,2297,1932,1772,1771,1927
284705,-15564,-11292,-43856,-11088,-3800,-398,-771,3011,1805,-1448,-2794,1182,0,72,907,1775,1785,2071,2297,1932,1772,1771,1927
285706,-15580,-11168,-43791,-11023,-3800,-470,-813,2936,1910,-1498,-1753,616,-5,73,911,1779,1813,2122,2182,2172,1916,1916,2151
286707,-15568,-11044,-43726,-10958,-3800,-543,-888,2910,2006,-1733,-904,1509,-3,63,912,1779,1813,2122,2182,2172,1916,1916,2151
287708,-15576,-10940,-43661,-10893,-3800,-340,-994,2698,2118,-2226,-71,935,2,54,911,1779,1813,2122,2182,2172,1916,1916,2151
288709,-15580,-10832,-43596,-10828,-3800,-443,-1141,2354,2197,-2396,1176,1885,3,50,913,1779,1813,2122,2182,2172,1916,1916,2151
289710,-15576,-10744,-43531,-10763,-3800,-221,-1322,2099,2268,-2382,1636,2275,-7,39,911,1779,1813,2122,2182,2172,1916,1916,2151
290711,-15572,-10668,-43466,-10698,-3800,-84,-1516,1948,2288,-985,2359,2566,9,49,914,1579,1727,1912,1999,2178,1886,1973,2148
291712,-15564,-10604,-43401,-10633,-3800,67,-1715,1898,2258,-56,2480,2968,8,36,913,1579,1727,1912,1999,2178,1886,1973,2148
292713,-15576,-10524,-43336,-10568,-3800,-151,-1876,1898,2194,725,2566,3189,0,39,915,1579,1727,1912,1999,2178,1886,1973,2148
293714,-15564,-10472,-43271,-10503,-3800,215,-1972,1823,2084,1753,2558,3425,11,41,914,1579,1727,1912,1999,2178,1886,1973,2148
294715,-15576,-10436,-43206,-10438,-3800,450,-1979,1635,1929,1832,2065,4035,4,38,914,1579,1727,1912,1999,2178,1886,1973,2148
295716,-15576,-10380,-43141,-10373,-3800,211,-1938,1337,1734,1524,1520,4402,-6,26,913,1579,1727,1912,1999,2178,1886,1973,2148
296717,-15580,-10324,-43076,-10308,-3800,222,-1867,1016,1497,1669,980,4838,6,17,914,1504,1621,1771,1884,2201,1912,1983,2181
297718,-15576,-10292,-43011,-10243,-3800,562,-1819,699,1266,2190,476,4626,-1,29,914,1504,1621,1771,1884,2201,1912,1983,2181
298719,-15584,-10252,-42946,-10178,-3800,493,-1788,370,1063,2266,74,4252,-6,20,912,1504,1621,1771,1884,2201,1912,1983,2181
299720,-15580,-10232,-42881,-10113,-3800,798,-1784,59,882,1669,-384,4429,4,12,912,1504,1621,1771,1884,2201,1912,1983,2181
300721,-15580,-10192,-42816,-10048,-3800,579,-1805,-257,719,1379,-749,3911,10,12,910,1504,1621,1771,1884,2201,1912,1983,2181
301722,-15580,-10148,-42751,-9983,-3800,555,-1843,-570,615,927,-874,3682,12,26,911,1640,1728,2035,2171,2201,1948,2200,2315
302723,-15588,-10116,-42686,-9918,-3800,745,-1893,-854,556,333,-1129,3512,10,20,911,1640,1728,2035,2171,2201,1948,2200,2315
303724,-15584,-10100,-42621,-9853,-3800,1005,-1979,-1151,529,-63,-1358,3351,-2,18,910,1640,1728,2035,2171,2201,1948,2200,2315
304725,-15580,-10080,-42556,-9788,-3800,1010,-2091,-1494,552,-431,-1280,3198,7,9,907,1640,1728,2035,2171,2201,1948,2200,2315
305726,-15592,-10044,-42491,-9723,-3800,845,-2207,-1808,602,-946,-943,3455,-4,10,907,1640,1728,2035,2171,2201,1948,2200,2315
306727,-15568,-10008,-42426,-9658,-3800,881,-2321,-2011,641,-1123,-623,4132,11,11,847,1640,1728,2035,2171,2201,1948,2200,2315
307728,-15592,-9984,-42361,-9593,-3800,1081,-2420,-2066,692,-764,-381,4996,6,23,909,2055,2240,2525,2669,2121,1894,1976,2180
308729,-15592,-9940,-42296,-9528,-3800,856,-2495,-2039,728,-121,-95,5792,6,23,905,2055,2240,2525,2669,2121,1894,1976,2180
309730,-15600,-9904,-42231,-9463,-3800,992,-2525,-1975,726,48,305,6621,-4,15,908,2055,2240,2525,2669,2121,1894,1976,2180
310731,-15608,-9884,-42166,-9398,-3800,1248,-2509,-1858,682,200,568,7599,12,19,897,2055,2240,2525,2669,2121,1894,1976,2180
311732,-15600,-9852,-42101,-9333,-3800,1138,-2441,-1705,585,528,999,8151,-6,25,904,2055,2240,2525,2669,2121,1894,1976,2180
312733,-15612,-9816,-42036,-9268,-3800,1123,-2323,-1577,439,449,1310,8754,6,22,905,2161,2331,2468,2614,2167,1956,1973,2085
313734,-15592,-9756,-41971,-9203,-3800,830,-2164,-1483,255,471,1511,9147,-6,18,906,2161,2331,2468,2614,2167,1956,1973,2085
314735,-15604,-9724,-41906,-9138,-3800,1220,-1984,-1478,57,493,1519,8823,7,18,899,2161,2331,2468,2614,2167,1956,1973,2085
315736,-15604,-9672,-41841,-9073,-3800,987,-1794,-1541,-168,405,1635,8648,-3,19,905,2161,2331,2468,2614,2167,1956,1973,2085
316737,-15604,-9628,-41776,-9008,-3800,1112,-1588,-1577,-417,492,1528,8891,-6,30,907,2161,2331,2468,2614,2167,1956,1973,2085
317738,-15608,-9576,-41711,-8943,-3800,1028,-1376,-1519,-653,1105,1376,8921,-6,34,906,2161,2331,2468,2614,2167,1956,1973,2085
318739,-15612,-9520,-41646,-8878,-3800,989,-1173,-1459,-857,1466,1096,8476,-1,21,901,1960,2039,2235,2543,2094,1931,1988,1999
319740,-15604,-9464,-41581,-8813,-3800,1001,-978,-1422,-1035,1320,677,8205,13,22,907,1960,2039,2235,2543,2094,1931,1988,1999
320741,-15616,-9400,-41516,-8748,-3800,902,-795,-1407,-1157,1155,212,7696,10,24,907,1960,2039,2235,2543,2094,1931,1988,1999
321742,-15600,-9344,-41451,-8683,-3800,1013,-639,-1360,-1218,1219,-347,7211,7,33,909,1960,2039,2235,2543,2094,1931,1988,1999
322743,-15616,-9292,-41386,-8618,-3800,1079,-504,-1258,-1222,1293,-850,6634,-5,26,904,1960,2039,2235,2543,2094,1931,1988,1999
323744,-15600,-9220,-41321,-8553,-3800,822,-408,-1144,-1166,1292,-1397,5858,-3,27,907,2080,2088,2506,2953,2055,1967,1975,1958
324745,-15620,-9148,-41256,-8488,-3800,813,-332,-1059,-1047,1129,-1610,5499,6,41,909,2080,2088,2506,2953,2055,1967,1975,1958
325746,-15616,-9092,-41191,-8423,-3800,1024,-266,-946,-915,861,-1781,5230,-2,40,909,2080,2088,2506,2953,2055,1967,1975,1958
326747,-15616,-9032,-41126,-8358,-3800,980,-202,-788,-811,796,-1765,4856,-5,37,905,2080,2088,2506,2953,2055,1967,1975,1958
327748,-15612,-8980,-41061,-8293,-3800,1097,-169,-656,-708,558,-1788,4402,-5,40,908,2080,2088,2506,2953,2055,1967,1975,1958
328749,-15608,-8912,-40996,-8228,-3800,893,-144,-508,-633,341,-1652,4598,-6,28,907,2080,2088,2506,2953,2055,1967,1975,1958
329750,-15620,-8828,-40931,-8163,-3800,670,-104,-343,-576,266,-1450,4696,13,31,909,2312,2293,2605,3036,1944,1832,1863,1883
330751,-15600,-8764,-40866,-8098,-3800,921,-42,-219,-565,116,-1220,4626,13,36,909,2312,2293,2605,3036,1944,1832,1863,1883
331752,-15604,-8688,-40801,-8033,-3800,759,17,-167,-612,-354,-1247,4635,13,38,909,2312,2293,2605,3036,1944,1832,1863,1883
332753,-15608,-8624,-40736,-7968,-3800,910,80,-133,-701,-398,-1070,4999,-4,44,911,2312,2293,2605,3036,1944,1832,1863,1883
333754,-15604,-8564,-40671,-7903,-3800,966,152,-91,-781,-266,-854,5110,-3,28,909,2312,2293,2605,3036,1944,1832,1863,1883
334755,-15608,-8476,-40606,-7838,-3800,588,240,-57,-862,-303,-488,5314,13,31,907,2159,2216,2293,2509,1848,1653,1745,1827
335756,-15596,-8412,-40541,-7773,-3800,891,334,-32,-987,-235,-364,5111,3,45,912,2159,2216,2293,2509,1848,1653,1745,1827
336757,-15592,-8340,-40476,-7708,-3800,782,425,-32,-1102,-17,-316,5151,-5,33,909,2159,2216,2293,2509,1848,1653,1745,1827
337758,-15604,-8284,-40411,-7643,-3800,993,536,10,-1167,264,-57,5181,-6,31,910,2159,2216,2293,2509,1848,1653,1745,1827
338759,-15588,-8200,-40346,-7578,-3800,620,635,81,-1222,403,-6,4506,1,44,907,2159,2216,2293,2509,1848,1653,1745,1827
339760,-15596,-8120,-40281,-7513,-3800,652,736,181,-1264,477,-132,4310,2,33,911,2159,2216,2293,2509,1848,1653,1745,1827
340761,-15596,-8072,-40216,-7448,-3800,1073,825,255,-1252,714,-79,3832,10,33,911,1755,1816,1952,2103,1897,1664,1796,1923
341762,-15580,-7996,-40151,-7383,-3800,710,915,316,-1202,810,-22,3379,-5,44,908,1755,1816,1952,2103,1897,1664,1796,1923
342763,-15596,-7920,-40086,-7318,-3800,696,992,349,-1124,612,-11,2978,0,31,908,1755,1816,1952,2103,1897,1664,1796,1923
343764,-15584,-7844,-40021,-7253,-3800,683,1070,314,-1019,513,-134,2424,0,46,911,1755,1816,1952,2103,1897,1664,1796,1923
344765,-15580,-7764,-39956,-7188,-3800,616,1145,216,-908,348,-308,2173,4,43,911,1755,1816,1952,2103,1897,1664,1796,1923
345766,-15576,-7696,-39891,-7123,-3800,762,1213,71,-787,264,-407,1800,5,44,911,1705,1804,1979,2174,2026,1819,1895,2013
346767,-15580,-7616,-39826,-7058,-3800,594,1262,-89,-644,408,-624,1226,-1,29,910,1705,1804,1979,2174,2026,1819,1895,2013
347768,-15576,-7548,-39761,-6993,-3800,740,1290,-264,-522,327,-741,933,-6,36,912,1705,1804,1979,2174,2026,1819,1895,2013
348769,-15580,-7472,-39696,-6928,-3800,628,1294,-432,-429,134,-880,566,10,27,911,1705,1804,1979,2174,2026,1819,1895,2013
349770,-15584,-7400,-39631,-6863,-3800,669,1281,-608,-344,112,-1033,526,-1,36,911,1705,1804,1979,2174,2026,1819,1895,2013
350771,-15580,-7336,-39566,-6798,-3800,770,1249,-779,-273,31,-1074,613,11,26,911,1705,1804,1979,2174,2026,1819,1895,2013
351772,-15588,-7276,-39501,-6733,-3800,826,1190,-944,-235,86,-1138,629,0,35,910,1827,1895,2154,2367,2035,1846,1855,2082
352773,-15584,-7216,-39436,-6668,-3800,832,1118,-1094,-217,236,-1225,1050,13,41,909,1827,1895,2154,2367,2035,1846,1855,2082
353774,-15588,-7144,-39371,-6603,-3800,675,1045,-1198,-192,413,-1205,1422,13,56,909,1827,1895,2154,2367,2035,1846,1855,2082
354775,-15584,-7072,-39306,-6538,-3800,666,980,-1269,-181,438,-980,1999,2,40,910,1827,1895,2154,2367,2035,1846,1855,2082
355776,-15576,-7004,-39241,-6473,-3800,713,917,-1281,-197,532,-746,2512,7,42,911,1827,1895,2154,2367,2035,1846,1855,2082
356777,-15588,-6956,-39176,-6408,-3800,983,858,-1244,-227,946,-672,2821,3,31,911,1827,1862,2100,2254,1911,1697,1739,1866
357778,-15584,-6888,-39111,-6343,-3800,730,804,-1177,-247,1007,-448,3417,10,35,908,1827,1862,2100,2254,1911,1697,1739,1866
358779,-15580,-6812,-39046,-6278,-3800,617,756,-1075,-248,764,-101,3619,-3,41,910,1827,1862,2100,2254,1911,1697,1739,1866
359780,-15576,-6744,-38981,-6213,-3800,714,701,-963,-246,688,95,3687,8,39,910,1827,1862,2100,2254,1911,1697,1739,1866
360781,-15584,-6700,-38916,-6148,-3800,1039,661,-851,-241,494,227,3924,3,28,910,1827,1862,2100,2254,1911,1697,1739,1866
361782,-15584,-6640,-38851,-6083,-3800,845,627,-766,-221,332,485,3762,3,41,907,1827,1862,2100,2254,1911,1697,1739,1866
362783,-15584,-6548,-38786,-6018,-3800,412,592,-686,-171,51,658,3615,13,34,909,1655,1732,1909,2028,1942,1833,2001,1949
363784,-15580,-6492,-38721,-5953,-3800,874,563,-625,-106,-173,689,3439,-2,26,913,1655,1732,1909,2028,1942,1833,2001,1949
364785,-15588,-6440,-38656,-5888,-3800,940,551,-591,-37,-322,671,3284,10,40,909,1655,1732,1909,2028,1942,1833,2001,1949
365786,-15588,-6372,-38591,-5823,-3800,737,553,-567,35,-264,575,3126,-6,30,908,1655,1732,1909,2028,1942,1833,2001,1949
366787,-15596,-6304,-38526,-5758,-3800,733,569,-551,117,-297,588,2936,12,26,910,1655,1732,1909,2028,1942,1833,2001,1949
367788,-15596,-6244,-38461,-5693,-3800,839,589,-555,178,-315,471,2667,13,30,899,1615,1732,1942,2108,2184,1944,1992,2144
368789,-15588,-6196,-38396,-5628,-3800,1011,613,-568,241,-156,333,2481,8,32,909,1615,1732,1942,2108,2184,1944,1992,2144
369790,-15588,-6136,-38331,-5563,-3800,867,626,-581,303,128,278,2343,-4,24,908,1615,1732,1942,2108,2184,1944,1992,2144
370791,-15592,-6080,-38266,-5498,-3800,928,630,-587,341,376,137,2239,1,27,909,1615,1732,1942,2108,2184,1944,1992,2144
371792,-15592,-6036,-38201,-5433,-3800,1104,623,-586,364,690,110,2524,13,27,900,1615,1732,1942,2108,2184,1944,1992,2144
372793,-15580,-5952,-38136,-5368,-3800,580,608,-565,383,894,88,2755,-3,36,907,1615,1732,1942,2108,2184,1944,1992,2144
373794,-15592,-5892,-38071,-5303,-3800,887,579,-508,386,1417,69,3016,-5,28,911,1745,1836,2138,2443,2368,2056,2014,2124
374795,-15608,-5832,-38006,-5238,-3800,894,534,-429,363,1774,46,3449,-1,32,909,1745,1836,2138,2443,2368,2056,2014,2124
375796,-15600,-5776,-37941,-5173,-3800,955,466,-342,346,1927,52,3632,-6,28,902,1745,1836,2138,2443,2368,2056,2014,2124
376797,-15588,-5696,-37876,-5108,-3800,636,385,-237,319,1906,67,4164,13,32,907,1745,1836,2138,2443,2368,2056,2014,2124
377798,-15604,-5652,-37811,-5043,-3800,1113,285,-131,295,1620,227,4596,4,39,911,1745,1836,2138,2443,2368,2056,2014,2124
378799,-15596,-5596,-37746,-4978,-3800,974,172,-29,272,1690,215,4679,-3,22,906,1866,1880,2212,2421,2076,1881,1857,1953
379800,-15580,-5532,-37681,-4913,-3800,875,85,53,262,1526,198,4990,-5,33,904,1866,1880,2212,2421,2076,1881,1857,1953
380801,-15584,-5492,-37616,-4848,-3800,1206,2,110,258,931,390,5377,6,25,909,1866,1880,2212,2421,2076,1881,1857,1953
381802,-15596,-5436,-37551,-4783,-3800,1018,-79,150,278,547,489,5420,10,37,905,1866,1880,2212,2421,2076,1881,1857,1953
382803,-15592,-5376,-37486,-4718,-3800,974,-152,181,304,620,551,5450,-6,24,907,1866,1880,2212,2421,2076,1881,1857,1953
383804,-15592,-5312,-37421,-4653,-3800,925,-205,196,330,324,663,5583,3,29,905,1866,1880,2212,2421,2076,1881,1857,1953
384805,-15588,-5256,-37356,-4588,-3800,1036,-235,217,364,28,787,5543,-6,23,908,1801,1957,2207,2295,2010,1814,1836,1982
385806,-15588,-5212,-37291,-4523,-3800,1213,-246,240,399,-17,840,5485,10,29,907,1801,1957,2207,2295,2010,1814,1836,1982
386807,-15600,-5160,-37226,-4458,-3800,1128,-235,260,422,176,916,5409,9,29,905,1801,1957,2207,2295,2010,1814,1836,1982
387808,-15592,-5112,-37161,-4393,-3800,1199,-201,267,440,294,982,5158,-3,34,903,1801,1957,2207,2295,2010,1814,1836,1982
388809,-15584,-5020,-37096,-4328,-3800,616,-156,277,460,343,1026,4885,10,37,905,1801,1957,2207,2295,2010,1814,1836,1982
389810,-15596,-4968,-37031,-4263,-3800,1133,-108,306,460,542,1079,4653,5,41,911,1747,1869,2104,2259,2196,1952,2017,2198
390811,-15596,-4916,-36966,-4198,-3800,1149,-54,324,442,745,1087,4377,4,29,907,1747,1869,2104,2259,2196,1952,2017,2198
391812,-15596,-4864,-36901,-4133,-3800,1165,2,328,429,854,1111,4165,8,25,904,1747,1869,2104,2259,2196,1952,2017,2198
392813,-15584,-4800,-36836,-4068,-3800,1016,45,313,391,1049,962,3814,6,40,906,1747,1869,2104,2259,2196,1952,2017,2198
393814,-15584,-4748,-36771,-4003,-3800,1183,82,283,340,1263,946,3755,-3,28,906,1747,1869,2104,2259,2196,1952,2017,2198
394815,-15600,-4676,-36706,-3938,-3800,924,107,232,306,1422,853,3485,11,31,905,1747,1869,2104,2259,2196,1952,2017,2198
395816,-15592,-4628,-36641,-3873,-3800,1245,111,176,269,1500,703,3567,8,26,907,1892,1976,2220,2392,2280,2012,2050,2199
396817,-15588,-4568,-36576,-3808,-3800,1102,99,97,233,1291,622,3633,12,34,904,1892,1976,2220,2392,2280,2012,2050,2199
397818,-15588,-4520,-36511,-3743,-3800,1273,75,-8,204,1314,488,3561,-4,28,906,1892,1976,2220,2392,2280,2012,2050,2199
398822,-15580,-4452,-36446,-3678,-3800,1019,43,-123,189,1356,285,3838,13,23,904,1892,1976,2220,2392,2280,2012,2050,2199
399820,-15584,-4400,-36381,-3613,-3800,1235,8,-239,169,1234,140,3976,12,22,906,1892,1976,2220,2392,2280,2012,2050,2199
400821,-15580,-4336,-36316,-3548,-3800,1087,-38,-345,158,1145,10,4162,1,26,905,1927,2003,2243,2421,2074,1846,1877,1987
401822,-15596,-4268,-36251,-3483,-3800,1034,-80,-450,180,874,-54,4476,12,36,906,1927,2003,2243,2421,2074,1846,1877,1987
402823,-15584,-4228,-36186,-3418,-3800,1414,-123,-552,204,646,6,4829,-2,33,906,1927,2003,2243,2421,2074,1846,1877,1987
403824,-15584,-4168,-36121,-3353,-3800,1171,-164,-646,213,668,-141,4787,-6,23,902,1927,2003,2243,2421,2074,1846,1877,1987
404825,-15596,-4124,-36056,-3288,-3800,1397,-192,-731,254,491,-174,5188,10,22,905,1927,2003,2243,2421,2074,1846,1877,1987
405826,-15592,-4064,-35991,-3223,-3800,1203,-217,-804,294,376,-21,5105,4,22,903,1840,1900,2119,2283,1933,1736,1796,1987
406827,-15580,-4008,-35926,-3158,-3800,1265,-225,-845,337,90,98,5228,0,37,905,1840,1900,2119,2283,1933,1736,1796,1923
407828,-15584,-3940,-35861,-3093,-3800,1111,-218,-869,378,39,183,5092,-3,30,904,1840,1900,2119,2283,1933,1736,1796,1923
408829,-15588,-3892,-35796,-3028,-3800,1382,-197,-898,403,57,252,4956,-5,24,906,1840,1900,2119,2283,1933,1736,1796,1923
409830,-15588,-3816,-35731,-2963,-3800,1019,-164,-930,423,-88,348,4798,-2,34,903,1840,1900,2119,2283,1933,1736,1796,1923
410831,-15588,-3752,-35666,-2898,-3800,1171,-123,-934,440,-199,475,4545,-3,30,905,1840,1900,2119,2283,1933,1736,1796,1923
411832,-15580,-3696,-35601,-2833,-3800,1282,-79,-935,440,-201,612,4266,-3,33,905,1777,1874,2087,2255,2041,1833,2151,2177
412833,-15584,-3632,-35536,-2768,-3800,1183,-40,-939,429,-172,678,3900,10,25,904,1777,1874,2087,2255,2041,1833,2151,2177
413834,-15584,-3568,-35471,-2703,-3800,1185,1,-957,420,-171,709,3684,13,27,905,1777,1874,2087,2255,2041,1833,2151,2177
414835,-15584,-3508,-35406,-2638,-3800,1242,35,-968,410,-234,777,3379,7,28,905,1777,1874,2087,2255,2041,1833,2151,2177
415836,-15584,-3432,-35341,-2573,-3800,1028,65,-963,379,-167,735,3227,-1,25,904,1777,1874,2087,2255,2041,1833,2151,2177
416837,-15588,-3368,-35276,-2508,-3800,1180,94,-966,352,-175,741,3180,-5,42,907,1850,1938,2187,2384,2189,1952,2004,2131
417838,-15584,-3328,-35211,-2443,-3800,1511,118,-980,336,-92,564,2985,4,26,906,1850,1938,2187,2384,2189,1952,2004,2131
418839,-15588,-3256,-35146,-2378,-3800,1102,137,-1007,319,23,461,3132,1,33,901,1850,1938,2187,2384,2189,1952,2004,2131
419840,-15592,-3180,-35081,-2313,-3800,1040,146,-1015,312,94,358,3234,0,46,906,1850,1938,2187,2384,2189,1952,2004,2131
420841,-15584,-3100,-35016,-2248,-3800,972,153,-1009,337,115,247,3401,2,31,907,1850,1938,2187,2384,2189,1952,2004,2131
421842,-15584,-3044,-34951,-2183,-3800,1283,159,-990,351,102,117,3610,2,37,907,1850,1938,2187,2384,2189,1952,2004,2131
422843,-15580,-2964,-34886,-2118,-3800,965,163,-988,363,209,-106,3671,3,38,904,1899,1965,2210,2408,2191,1988,1892,1992
423844,-15576,-2888,-34821,-2053,-3800,1002,168,-985,398,214,-199,4119,11,37,907,1899,1965,2210,2408,2191,1988,1892,1992
424845,-15580,-2840,-34756,-1988,-3800,1373,170,-976,444,145,-218,4206,-5,43,897,1899,1965,2210,2408,2191,1988,1892,1992
425846,-15584,-2772,-34691,-1923,-3800,1120,169,-960,487,14,-188,4484,3,34,904,1899,1965,2210,2408,2191,1988,1892,1992
426847,-15580,-2672,-34626,-1858,-3800,677,156,-943,538,-25,-244,4460,-5,39,906,1899,1965,2210,2408,2191,1988,1892,1992
427848,-15584,-2620,-34561,-1793,-3800,1293,144,-938,599,-6,-193,4754,-1,34,909,1815,1855,2099,2283,1934,1752,1779,1871
428849,-15580,-2560,-34496,-1728,-3800,1200,134,-930,642,-80,-77,4626,-6,43,896,1815,1855,2099,2283,1934,1752,1779,1871
429850,-15580,-2476,-34431,-1663,-3800,877,125,-908,672,-208,5,4741,13,29,905,1815,1855,2099,2283,1934,1752,1779,1871
430851,-15584,-2412,-34366,-1598,-3800,1128,118,-894,714,-250,119,4542,8,40,908,1815,1855,2099,2283,1934,1752,1779,1871
431852,-15580,-2320,-34301,-1533,-3800,746,106,-890,736,-377,310,4446,11,37,906,1815,1855,2099,2283,1934,1752,1779,1871
432853,-15580,-2264,-34236,-1468,-3800,1207,103,-865,748,-462,399,4328,1,30,903,1815,1855,2099,2283,1934,1752,1779,1871
433854,-15580,-2204,-34171,-1403,-3800,1163,103,-850,761,-276,477,3997,12,28,905,1760,1824,2150,2340,1970,1781,1839,1959
434855,-15584,-2144,-34106,-1338,-3800,1169,108,-839,758,-211,504,3748,10,41,906,1760,1824,2150,2340,1970,1781,1839,1959
435856,-15580,-2084,-34041,-1273,-3800,1176,114,-807,757,-205,581,3496,-4,35,905,1760,1824,2150,2340,1970,1781,1839,1959
436857,-15580,-2008,-33976,-1208,-3800,963,123,-742,762,-216,622,3270,2,26,901,1760,1824,2150,2340,1970,1781,1839,1959
437858,-15572,-1972,-33911,-1143,-3800,1498,137,-671,748,-226,551,3083,-3,28,908,1760,1824,2150,2340,1970,1781,1839,1959
438859,-15572,-1900,-33846,-1078,-3800,1041,163,-628,725,-184,516,2953,-5,41,902,1824,1910,2146,2343,2121,1898,1960,2097
439860,-15580,-1824,-33781,-1013,-3800,977,195,-599,721,-68,436,2929,10,29,906,1824,1910,2146,2343,2121,1898,1960,2097
440861,-15564,-1780,-33716,-948,-3800,1403,234,-566,726,-53,370,2964,2,35,904,1824,1910,2146,2343,2121,1898,1960,2097
441862,-15592,-1680,-33651,-883,-3800,661,276,-541,725,-59,306,2891,-5,36,904,1824,1910,2146,2343,2121,1898,1960,2097
442863,-15588,-1624,-33586,-818,-3800,1222,319,-535,728,-81,190,3002,13,37,910,1824,1910,2146,2343,2121,1898,1960,2097
443864,-15580,-1556,-33521,-753,-3800,1069,358,-550,748,-116,127,3152,-4,32,905,1824,1910,2146,2343,2121,1898,1960,2097
444865,-15584,-1492,-33456,-688,-3800,1121,386,-567,759,-41,63,3283,-2,28,903,1906,2046,2176,2352,2128,1896,1925,2208
445866,-15572,-1428,-33391,-623,-3800,1122,401,-590,775,-20,24,3506,1,32,906,1906,2046,2176,2352,2128,1896,1925,2208
446867,-15580,-1364,-33326,-558,-3800,1123,407,-622,817,101,93,3689,28,27,906,1906,2046,2176,2352,2128,1896,1925,2208
447868,-15588,-1288,-33261,-493,-3800,960,399,-652,845,174,42,3810,13,27,906,1906,2046,2176,2352,2128,1896,1925,2208
448870,-15572,-1232,-33196,-428,-3800,1222,382,-681,874,134,50,4047,1,40,906,1906,2046,2176,2352,2128,1896,1925,2208
449870,-15576,-1160,-33131,-363,-3800,1013,353,-719,911,249,107,4166,4,37,905,1801,1863,2098,2279,1959,1775,1809,1903
450871,-15588,-1108,-33066,-298,-3800,1279,321,-733,937,470,121,4257,1,31,907,1801,1863,2098,2279,1959,1775,1809,1903
451872,-15572,-1044,-33001,-233,-3800,1131,288,-739,952,503,140,4369,7,27,905,1801,1863,2098,2279,1959,1775,1809,1903
452873,-15580,-976,-32936,-168,-3800,1078,252,-737,971,492,222,4316,-3,32,904,1801,1863,2098,2279,1959,1775,1809,1903
453874,-15572,-920,-32871,-103,-3800,1239,217,-728,989,502,201,4330,-3,33,906,1801,1863,2098,2279,1959,1775,1809,1903
454875,-15584,-864,-32672,96,-3800,2101,186,-718,988,500,249,4335,8,38,905,1801,1863,2098,2279,1959,1775,1809,1903
455876,-15580,-796,-32607,161,-3800,1948,162,-718,991,454,305,4057,10,38,894,1774,1816,2065,2256,1958,1773,1827,1947
456877,-15588,-720,-32542,226,-3800,1834,147,-716,986,445,263,3916,10,36,895,1774,1816,2065,2256,1958,1773,1827,1947
457878,-15580,-624,-32477,291,-3800,1547,145,-725,988,301,359,3838,5,41,898,1774,1816,2065,2256,1958,1773,1827,1947
458879,-15580,-532,-32412,356,-3800,1564,156,-727,998,217,304,3613,6,47,901,1774,1816,2065,2256,1958,1773,1827,1947
459880,-15576,-440,-32347,421,-3800,1532,181,-727,977,135,277,3692,6,62,901,1774,1816,2065,2256,1958,1773,1827,1947
460881,-15580,-332,-32282,486,-3800,1280,207,-764,942,32,297,3354,-3,58,901,1803,1885,2131,2319,2107,1896,1939,2218
461882,-15588,-212,-32217,551,-3800,1063,235,-801,932,-30,399,3440,5,52,903,1803,1885,2131,2319,2107,1896,1939,2218
462883,-15592,-108,-32152,616,-3800,1215,272,-832,961,50,529,3234,13,61,907,1803,1885,2131,2319,2107,1896,1939,2218
463884,-15580,0,-32087,681,-3800,1114,303,-845,949,77,420,3259,0,51,905,1803,1885,2131,2319,2107,1896,1939,2218
464885,-15580,92,-32022,746,-3800,1281,326,-878,924,-55,367,3237,4,62,906,1803,1885,2131,2319,2107,1896,1939,2218
465886,-15588,176,-31957,811,-3800,1358,340,-906,941,62,502,3541,2,52,905,1803,1885,2131,2319,2107,1896,1939,2218
466887,-15580,280,-31892,876,-3800,1060,347,-879,957,387,632,3538,-3,54,904,1846,1946,2192,2360,2176,1936,1975,2107
467888,-15576,376,-31827,941,-3800,1123,354,-833,972,744,568,3749,-4,45,907,1846,1946,2192,2360,2176,1936,1975,2107
468889,-15580,488,-31762,1006,-3800,866,358,-803,993,661,666,3997,13,60,906,1846,1946,2192,2360,2176,1936,1975,2107
469890,-15580,564,-31697,1071,-3800,1302,317,-786,978,636,653,3815,11,59,909,1846,1946,2192,2360,2176,1936,1975,2107
470891,-15576,640,-31632,1136,-3800,1289,258,-773,969,561,541,4196,2,45,904,1846,1946,2192,2360,2176,1936,1975,2107
471892,-15580,740,-31567,1201,-3800,946,206,-764,982,752,576,4163,-4,44,904,1833,1920,2151,2327,2069,1956,2050,2008
472893,-15584,816,-31502,1266,-3800,1233,160,-766,1023,774,599,4195,-4,54,908,1833,1920,2151,2327,2069,1956,2050,2008
473894,-15580,900,-31437,1331,-3800,1111,103,-772,1020,793,457,4199,-4,54,905,1833,1920,2151,2327,2069,1956,2050,2008
474895,-15576,976,-31372,1396,-3800,1197,62,-791,1017,466,267,4606,-5,54,907,1833,1920,2151,2327,2069,1956,2050,2008
475896,-15576,1080,-31307,1461,-3800,800,37,-841,1040,568,308,4469,1,49,905,1833,1920,2151,2327,2069,1956,2050,2008
476897,-15588,1168,-31242,1526,-3800,972,28,-851,1056,805,349,4592,-2,39,909,1833,1920,2151,2327,2069,1956,2050,2008
477898,-15576,1228,-31177,1591,-3800,1328,20,-848,1062,918,67,4312,0,41,908,1777,1840,2087,2263,2031,1833,1855,1977
478899,-15580,1312,-31112,1656,-3800,1004,28,-835,1053,456,68,4534,-4,45,903,1777,1840,2087,2263,2031,1833,1855,1977
479900,-15580,1396,-31047,1721,-3800,981,28,-867,1051,477,82,4007,-4,50,907,1777,1840,2087,2263,2031,1833,1855,1977
480901,-15584,1476,-30982,1786,-3800,1014,33,-879,1062,564,160,4198,8,42,908,1777,1840,2087,2263,2031,1833,1855,1977
481902,-15580,1540,-30917,1851,-3800,1215,24,-889,1063,646,279,3716,10,34,912,1777,1840,2087,2263,2031,1833,1855,1977
482903,-15580,1608,-30852,1916,-3800,1161,15,-877,1067,556,294,3779,-5,34,905,1760,1837,2103,2351,2191,1903,1915,2044
483904,-15584,1688,-30787,1981,-3800,993,-5,-864,1055,843,452,3331,13,38,905,1760,1837,2103,2351,2191,1903,1915,2044
484905,-15580,1752,-30722,2046,-3800,1194,-36,-852,1067,581,561,3335,10,33,907,1760,1837,2103,2351,2191,1903,1915,2044
485906,-15592,1824,-30657,2111,-3800,1086,-73,-826,1075,464,646,3128,4,40,895,1760,1837,2103,2351,2191,1903,1915,2044
486907,-15580,1904,-30592,2176,-3800,968,-114,-800,1087,583,647,3089,-3,33,906,1760,1837,2103,2351,2191,1903,1915,2044
487908,-15580,1972,-30527,2241,-3800,1114,-140,-737,1099,725,646,3297,12,44,908,1760,1837,2103,2351,2191,1903,1915,2044
488909,-15580,2024,-30462,2306,-3800,1330,-143,-686,1126,1005,524,3220,-6,38,906,1811,1903,2151,2333,2128,1919,1957,2084
489910,-15576,2100,-30397,2371,-3800,1017,-149,-647,1129,461,440,3414,8,41,897,1811,1903,2151,2333,2128,1919,1957,2084
490911,-15576,2192,-30332,2436,-3800,784,-160,-632,1105,520,437,3482,5,32,907,1811,1903,2151,2333,2128,1919,1957,2084
491912,-15584,2268,-30267,2501,-3800,971,-126,-541,1164,369,466,4054,0,44,910,1811,1903,2151,2333,2128,1919,1957,2084
492913,-15576,2312,-30202,2566,-3800,1397,-44,-425,1175,1279,-32,3270,6,43,908,1811,1903,2151,2333,2128,1919,1957,2084
493914,-15584,2380,-30137,2631,-3800,1093,-1,-520,1149,1870,-283,2965,4,40,898,1799,1965,2219,2313,2106,1876,1902,2006
494915,-15584,2480,-30072,2696,-3800,650,4,-670,1174,712,185,4136,10,40,906,1799,1965,2219,2313,2106,1876,1902,2006
495916,-15580,2540,-30007,2761,-3800,1156,18,-613,1212,962,368,3582,13,45,909,1799,1965,2219,2313,2106,1876,1902,2006
496917,-15580,2608,-29942,2826,-3800,1053,27,-511,1200,1408,80,3658,-4,42,906,1799,1965,2219,2313,2106,1876,1902,2006
497918,-15580,2656,-29877,2891,-3800,1323,45,-559,1162,1158,-12,3572,-4,41,903,1799,1965,2219,2313,2106,1876,1902,2006
498919,-15580,2732,-29812,2956,-3800,960,51,-602,1142,1199,117,3979,10,39,904,1799,1965,2219,2313,2106,1876,1902,2006
499920,-15580,2792,-29747,3021,-3800,1166,15,-605,1148,906,162,4160,10,27,907,1776,1848,2085,2281,1982,1779,1809,1899
500921,-15584,2864,-29682,3086,-3800,1008,-19,-563,1145,1414,207,3814,9,41,905,1776,1848,2085,2281,1982,1779,1809,1899
501922,-15580,2916,-29617,3151,-3800,1274,-56,-539,1162,1660,-171,4064,1,30,905,1776,1848,2085,2281,1982,1779,1809,1899
502923,-15572,2992,-29552,3216,-3800,961,-71,-525,1170,1447,-134,3828,1,31,904,1776,1848,2085,2281,1982,1779,1809,1899
503924,-15584,3040,-29487,3281,-3800,1332,-78,-485,1175,1356,-105,4007,-8,42,908,1776,1848,2085,2281,1982,1779,1809,1899
504925,-15572,3096,-29422,3346,-3800,1243,-79,-429,1183,1231,-135,3675,8,39,904,1861,1906,2115,2324,1951,1775,1828,1924
505926,-15580,3172,-29357,3411,-3800,979,-91,-398,1211,1251,-254,3629,10,44,903,1861,1906,2115,2324,1951,1775,1828,1924
506927,-15572,3244,-29292,3476,-3800,1021,-87,-366,1234,1478,-228,3587,11,46,907,1861,1906,2115,2324,1951,1775,1828,1924
507928,-15576,3312,-29227,3541,-3800,1067,-59,-328,1247,1212,-103,3606,13,38,907,1861,1906,2115,2324,1951,1775,1828,1924
508929,-15580,3384,-29162,3606,-3800,1008,-24,-288,1258,1186,-209,3315,8,34,907,1861,1906,2115,2324,1951,1775,1828,1924
509930,-15576,3452,-29097,3671,-3800,1055,30,-273,1264,1098,-253,3458,0,37,906,1861,1906,2115,2324,1951,1775,1828,1924
510931,-15572,3536,-29032,3736,-3800,832,91,-282,1256,1019,-105,3416,10,39,907,1840,1924,2167,2378,2056,1865,1912,2017
511932,-15584,3608,-28967,3801,-3800,973,142,-292,1253,1025,48,3286,2,50,909,1840,1924,2167,2378,2056,1865,1912,2017
512933,-15572,3676,-28902,3866,-3800,1020,180,-269,1237,1200,124,3399,-2,42,906,1840,1924,2167,2378,2056,1865,1912,2017
513934,-15572,3756,-28837,3931,-3800,852,212,-249,1207,1193,110,3335,5,49,906,1840,1924,2167,2378,2056,1865,1912,2017
514935,-15580,3832,-28772,3996,-3800,889,245,-241,1201,1016,320,3427,-2,51,909,1840,1924,2167,2378,2056,1865,1912,2017
515936,-15584,3924,-28707,4061,-3800,656,279,-237,1200,1353,294,3373,2,47,909,1851,1935,2175,2387,2102,1887,1932,2024
516937,-15572,4012,-28642,4126,-3800,678,318,-198,1161,1466,343,3704,1,41,911,1851,1935,2175,2387,2102,1887,1932,2024
517938,-15584,4068,-28577,4191,-3800,1089,350,-179,1126,1451,174,3781,-1,47,910,1851,1935,2175,2387,2102,1887,1932,2024
518939,-15584,4136,-28512,4256,-3800,935,376,-133,1098,1362,156,4187,12,47,907,1851,1935,2175,2387,2102,1887,1932,2024
519940,-15580,4208,-28447,4321,-3800,876,389,-85,1079,1427,206,4167,-3,42,908,1851,1935,2175,2387,2102,1887,1932,2024
520941,-15580,4268,-28382,4386,-3800,1033,396,-58,1063,1723,77,4271,1,45,909,1851,1935,2175,2387,2102,1887,1932,2024
521942,-15568,4340,-28317,4451,-3800,874,408,-24,1075,1524,-116,4347,7,35,907,1825,1900,2126,2332,2023,1818,1972,2053
522943,-15584,4420,-28252,4516,-3800,756,404,-6,1063,1153,-151,4305,13,38,909,1825,1900,2126,2332,2023,1818,1972,2053
523944,-15584,4500,-28187,4581,-3800,737,389,14,1053,1192,-180,4311,5,40,910,1825,1900,2126,2332,2023,1818,1972,2053
524945,-15584,4568,-28122,4646,-3800,884,365,28,1072,1485,-251,4325,-4,37,910,1825,1900,2126,2332,2023,1818,1972,2053
525946,-15580,4652,-28057,4711,-3800,661,346,51,1094,1559,-388,4306,-6,47,909,1825,1900,2126,2332,2023,1818,1972,2053
526947,-15580,4716,-27992,4776,-3800,912,337,80,1096,1282,-402,4274,4,38,911,1806,1882,2122,2328,1966,1796,1837,1938
527948,-15580,4792,-27927,4841,-3800,748,339,119,1101,1275,-318,4217,8,39,909,1806,1882,2122,2328,1966,1796,1837,1938
528949,-15580,4876,-27862,4906,-3800,625,359,164,1098,1694,-332,4090,4,36,910,1806,1882,2122,2328,1966,1796,1837,1938
529950,-15576,4944,-27797,4971,-3800,821,387,223,1115,1021,-655,4046,-3,39,910,1806,1882,2122,2328,1966,1796,1837,1938
530951,-15584,5048,-27732,5036,-3800,324,403,263,1107,873,-404,3422,-2,36,909,1806,1882,2122,2328,1966,1796,1837,1938
531952,-15568,5124,-27667,5101,-3800,660,435,290,1131,1546,-670,3229,6,44,913,1806,1882,2122,2328,1966,1796,1837,1938
532953,-15572,5208,-27602,5166,-3800,537,459,279,1115,2510,-825,2896,4,35,911,1826,1896,2163,2375,2104,1978,2034,2009
533954,-15580,5268,-27537,5231,-3800,843,485,220,1066,1946,-784,2955,0,43,912,1826,1896,2163,2375,2104,1978,2034,2009
534955,-15580,5336,-27472,5296,-3800,740,513,192,1020,1365,-406,2994,4,47,909,1826,1896,2163,2375,2104,1978,2034,2009
535956,-15572,5416,-27407,5361,-3800,571,532,192,954,1527,-88,2855,10,43,910,1826,1896,2163,2375,2104,1978,2034,2009
536957,-15568,5484,-27342,5426,-3800,718,526,170,897,1539,248,2772,0,50,912,1826,1896,2163,2375,2104,1978,2034,2009
537958,-15576,5556,-27277,5491,-3800,659,491,173,877,1288,491,3216,5,51,910,1855,1932,2170,2388,2088,1880,1924,2014
538959,-15576,5640,-27212,5556,-3800,486,428,201,859,1365,436,3143,13,43,880,1855,1932,2170,2388,2088,1880,1924,2014
539960,-15568,5704,-27147,5621,-3800,737,371,233,837,1304,386,3526,7,49,912,1855,1932,2170,2388,2088,1880,1924,2014
540961,-15572,5772,-27082,5686,-3800,684,327,234,825,1298,368,3628,-6,48,911,1855,1932,2170,2388,2088,1880,1924,2014
541962,-15568,5852,-27017,5751,-3800,515,314,264,824,1365,113,3896,4,47,911,1855,1932,2170,2388,2088,1880,1924,2014
542963,-15572,5932,-26952,5816,-3800,497,321,304,819,1423,38,4205,-1,51,902,1855,1932,2170,2388,2088,1880,1924,2014
543964,-15568,5996,-26887,5881,-3800,698,350,339,834,1232,-189,4296,9,44,912,1784,1865,2102,2341,2153,1839,1885,1990
544965,-15572,6068,-26822,5946,-3800,590,380,365,846,1430,-618,4170,10,52,911,1784,1865,2102,2341,2153,1839,1885,1990
545966,-15576,6128,-26757,6011,-3800,746,412,378,847,1442,-795,4586,-5,34,911,1784,1865,2102,2341,2153,1839,1885,1990
546967,-15572,6208,-26692,6076,-3800,477,437,352,848,1570,-757,4218,4,47,901,1784,1865,2102,2341,2153,1839,1885,1990
547968,-15576,6284,-26627,6141,-3800,514,451,347,854,1288,-773,4380,13,38,912,1784,1865,2102,2341,2153,1839,1885,1990
548969,-15572,6360,-26562,6206,-3800,501,469,389,846,1340,-837,4078,-2,38,912,1712,1810,2052,2224,2049,1843,1873,1993
549970,-15572,6424,-26497,6271,-3800,652,472,380,810,1681,-692,3702,10,38,913,1712,1810,2052,2224,2049,1843,1873,1993
550971,-15572,6480,-26432,6336,-3800,762,449,327,777,1345,-466,3761,12,44,906,1712,1810,2052,2224,2049,1843,1873,1993
551972,-15572,6548,-26367,6401,-3800,608,409,282,738,1255,-323,3491,0,43,910,1712,1810,2052,2224,2049,1843,1873,1993
552973,-15572,6600,-26302,6466,-3800,824,346,251,689,1205,-68,3358,-1,35,911,1712,1810,2052,2224,2049,1843,1873,1993
553974,-15576,6664,-26237,6531,-3800,675,265,241,640,1200,105,3212,-6,29,909,1712,1810,2052,2224,2049,1843,1873,1993
554975,-15564,6740,-26172,6596,-3800,512,194,254,605,1366,52,3144,-6,33,906,1797,1996,2254,2361,2075,1877,1919,2031
555976,-15576,6804,-26107,6661,-3800,663,148,255,558,1573,50,2874,-6,41,912,1797,1996,2254,2361,2075,1877,1919,2031
556977,-15560,6868,-26042,6726,-3800,664,122,213,511,1217,4,3083,-6,36,911,1797,1996,2254,2361,2075,1877,1919,2031
557978,-15572,6908,-25977,6791,-3800,995,97,174,456,1199,38,2945,5,39,911,1797,1996,2254,2361,2075,1877,1919,2031
558979,-15580,6968,-25912,6856,-3800,751,59,156,431,1116,272,3438,7,33,906,1797,1996,2254,2361,2075,1877,1919,2031
559980,-15564,7032,-25847,6921,-3800,702,30,207,424,1324,208,3543,9,28,910,1872,1952,2193,2400,2117,1912,1952,2045
560981,-15576,7088,-25782,6986,-3800,813,29,277,430,1269,120,3786,-5,28,911,1872,1952,2193,2400,2117,1912,1952,2045
561982,-15572,7160,-25717,7051,-3800,604,50,292,420,905,72,3880,-2,34,910,1872,1952,2193,2400,2117,1912,1952,2045
562983,-15572,7192,-25652,7116,-3800,1145,88,296,397,562,100,4217,1,29,909,1872,1952,2193,2400,2117,1912,1952,2045
563984,-15568,7248,-25587,7181,-3800,856,131,327,393,684,80,4440,4,28,905,1872,1952,2193,2400,2117,1912,1952,2045
564985,-15584,7324,-25522,7246,-3800,592,164,357,407,940,-29,4412,0,35,909,1872,1952,2193,2400,2117,1912,1952,2045
565986,-15572,7380,-25457,7311,-3800,853,188,359,407,890,-72,4365,12,31,911,1833,1872,2102,2282,2083,1882,1911,2016
566987,-15576,7452,-25392,7376,-3800,645,210,343,399,670,19,4560,11,40,907,1833,1872,2102,2282,2083,1882,1911,2016
567988,-15572,7516,-25327,7441,-3800,746,221,337,391,482,5,4610,13,48,911,1833,1872,2102,2282,2083,1882,1911,2016
568989,-15560,7580,-25262,7506,-3800,747,224,323,363,537,35,4549,7,41,910,1833,1872,2102,2282,2083,1882,1911,2016
569990,-15564,7656,-25197,7571,-3800,584,223,322,337,598,41,4555,-5,35,910,1833,1872,2102,2282,2083,1882,1911,2016
570991,-15568,7716,-25132,7636,-3800,790,220,336,327,978,2,4410,-6,40,910,1754,1836,2088,2288,2037,1837,1872,1971
571992,-15564,7788,-25067,7701,-3800,631,208,332,295,1156,-117,4096,8,38,910,1754,1836,2088,2288,2037,1837,1872,1971
572993,-15568,7860,-25002,7766,-3800,623,182,302,254,824,-41,3927,13,34,911,1754,1836,2088,2288,2037,1837,1872,1971
573994,-15568,7928,-24937,7831,-3800,668,143,314,226,649,29,3909,1,36,911,1754,1836,2088,2288,2037,1837,1872,1971
574995,-15568,8000,-24872,7896,-3800,610,99,362,191,890,18,3742,11,36,910,1754,1836,2088,2288,2037,1837,1872,1971
575998,-15568,8068,-24807,7961,-3800,656,63,414,156,1090,-93,3607,11,46,911,1754,1836,2088,2288,2037,1837,1872,1971
576997,-15572,8136,-24742,8026,-3800,652,41,420,140,1138,-218,3436,-5,34,911,1846,1923,2183,2405,2039,1854,1892,2001
577998,-15580,8200,-24677,8091,-3800,703,39,421,141,754,-171,3442,8,45,911,1846,1923,2183,2405,2039,1854,1892,2001
578999,-15580,8272,-24612,8156,-3800,595,35,446,124,645,-138,3465,-3,49,910,1846,1923,2183,2405,2039,1854,1892,2001
580000,-15568,8352,-24547,8221,-3800,477,53,467,114,856,-193,3432,5,46,911,1846,1923,2183,2405,2039,1854,1892,2001
581001,-15572,8404,-24482,8286,-3800,842,69,459,129,712,-110,3443,0,35,911,1846,1923,2183,2405,2039,1854,1892,2001
582002,-15568,8480,-24417,8351,-3800,529,100,476,137,563,-91,3595,9,40,909,1902,1968,2218,2428,2080,1884,2096,2156
583003,-15572,8548,-24352,8416,-3800,625,132,495,136,394,35,3544,4,51,911,1902,1968,2218,2428,2080,1884,2096,2156
584004,-15564,8616,-24287,8481,-3800,622,161,501,136,304,207,3672,0,45,911,1902,1968,2218,2428,2080,1884,2096,2156
585005,-15560,8700,-24222,8546,-3800,399,192,495,150,276,203,3664,5,37,911,1902,1968,2218,2428,2080,1884,2096,2156
586006,-15564,8784,-24157,8611,-3800,375,215,471,148,195,323,3938,-2,35,913,1902,1968,2218,2428,2080,1884,2096,2156
587007,-15576,8864,-24092,8676,-3800,407,225,477,151,-9,301,3947,11,54,913,1902,1968,2218,2428,2080,1884,2096,2156
588008,-15564,8964,-24027,8741,-3800,114,219,470,121,812,611,3883,11,50,913,1827,1899,2129,2328,2045,1839,1880,1970
589009,-15572,9072,-23962,8806,-3800,-38,223,489,105,1891,1077,4076,-3,49,915,1827,1899,2129,2328,2045,1839,1880,1970
590010,-15564,9240,-23897,8871,-3800,-914,170,656,107,2190,962,3152,9,37,915,1827,1899,2129,2328,2045,1839,1880,1970
591011,-15556,9428,-23832,8936,-3800,-1315,36,894,51,1554,1,3197,12,49,908,1827,1899,2129,2328,2045,1839,1880,1970
592012,-15564,9488,-23767,9001,-3800,291,-90,1029,-64,-970,-1091,3836,-1,31,903,1827,1899,2129,2328,2045,1839,1880,1970
593013,-15560,9544,-23702,9066,-3800,352,-198,1247,-230,-846,-1972,4630,5,22,913,1773,1845,2079,2266,2112,1927,1847,1954
594014,-15560,9576,-23637,9131,-3800,692,-280,1593,-284,484,-2242,3986,3,24,913,1773,1845,2079,2266,2112,1927,1847,1954
595015,-15556,9616,-23572,9196,-3800,623,-345,1784,-236,1360,-1525,2447,9,24,911,1773,1845,2079,2266,2112,1927,1847,1954
596016,-15576,9664,-23507,9261,-3800,544,-335,1775,-152,622,-1298,2461,1,43,919,1773,1845,2079,2266,2112,1927,1847,1954
597017,-15564,9716,-23442,9326,-3800,508,-234,1643,-81,-409,-1385,2801,9,30,912,1773,1845,2079,2266,2112,1927,1847,1954
598018,-15560,9780,-23377,9391,-3800,360,-70,1488,-35,-1222,-1351,3025,6,34,911,1773,1845,2079,2266,2112,1927,1847,1954
599019,-15564,9828,-23312,9456,-3800,580,78,1356,-34,-1865,-940,3480,-4,45,913,1703,1761,2025,2223,2097,1912,1899,1970
600020,-15564,9860,-23247,9521,-3800,821,137,1232,-39,-1485,-554,3226,-3,45,901,1703,1761,2025,2223,2097,1912,1899,1970
601021,-15552,9908,-23182,9586,-3800,641,91,1059,-30,-715,-90,3307,0,37,910,1703,1761,2025,2223,2097,1912,1899,1970
602022,-15560,9980,-23117,9651,-3800,333,-7,884,-9,-319,358,3016,2,48,912,1703,1761,2025,2223,2097,1912,1899,1970
603023,-15560,10072,-23052,9716,-3800,50,-84,814,35,570,604,3182,-2,48,913,1703,1761,2025,2223,2097,1912,1899,1970
604024,-15560,10168,-22987,9781,-3800,-39,-103,907,73,1398,801,3602,12,44,901,1712,1782,2151,2364,2044,1867,1906,1994
605025,-15564,10288,-22922,9846,-3800,-406,-72,1060,66,1651,809,3708,9,45,915,1712,1782,2151,2364,2044,1867,1906,1994
606026,-15568,10456,-22857,9911,-3800,-1132,-33,1207,28,1843,591,3808,-5,48,913,1712,1782,2151,2364,2044,1867,1906,1994
607027,-15544,10540,-22792,9976,-3800,-105,-10,1347,8,2362,574,3511,11,56,904,1712,1782,2151,2364,2044,1867,1906,1994
608028,-15564,10608,-22727,10041,-3800,91,-42,1482,-25,2050,414,3725,7,43,908,1712,1782,2151,2364,2044,1867,1906,1994
609029,-15560,10676,-22662,10106,-3800,87,-122,1615,-91,1151,240,3459,-4,42,915,1712,1782,2151,2364,2044,1867,1906,1994
610030,-15564,10740,-22597,10171,-3800,138,-189,1716,-132,1225,-127,3470,1,40,915,1846,1921,2146,2355,2015,1802,1876,1996
611031,-15564,10812,-22532,10236,-3800,29,-233,1686,-149,1021,-248,3051,-1,46,915,1846,1921,2146,2355,2015,1802,1876,1996
612032,-15552,10892,-22467,10301,-3800,-89,-237,1578,-173,2,-432,3396,-6,33,911,1846,1921,2146,2355,2015,1802,1876,1996
613033,-15556,10956,-22402,10366,-3800,112,-211,1415,-203,-921,-504,3403,2,31,915,1846,1921,2146,2355,2015,1802,1876,1996
614034,-15568,11016,-22337,10431,-3800,167,-145,1228,-218,-1165,-675,3610,6,36,915,1846,1921,2146,2355,2015,1802,1876,1996
615035,-15556,11088,-22272,10496,-3800,9,-71,1037,-243,-959,-760,3782,5,37,913,1956,2069,2208,2376,2016,1797,1847,1982
616036,-15560,11140,-22207,10561,-3800,275,5,829,-254,-1119,-674,3740,11,38,913,1956,2069,2208,2376,2016,1797,1847,1982
617037,-15556,11220,-22142,10626,-3800,-94,47,611,-242,-903,-283,3957,13,42,914,1956,2069,2208,2376,2016,1797,1847,1982
618038,-15552,11284,-22077,10691,-3800,107,52,467,-226,-933,94,4271,8,40,915,1956,2069,2208,2376,2016,1797,1847,1982
619039,-15560,11336,-22012,10756,-3800,272,39,444,-208,-499,325,4550,12,33,915,1956,2069,2208,2376,2016,1797,1847,1982
620040,-15564,11412,-21947,10821,-3800,-41,34,459,-168,281,568,4696,7,45,912,1956,2069,2208,2376,2016,1797,1847,1982
621041,-15564,11484,-21882,10886,-3800,1,59,527,-122,920,670,4980,3,40,915,1854,1950,2175,2350,2006,1798,1869,1995
622042,-15560,11560,-21817,10951,-3800,-64,114,608,-94,1452,638,4910,-6,37,915,1854,1950,2175,2350,2006,1798,1869,1995
623043,-15556,11632,-21752,11016,-3800,-22,168,672,-79,1501,894,4747,0,32,915,1854,1950,2175,2350,2006,1798,1869,1995
624046,-15576,11696,-21687,11081,-3800,79,196,754,-63,1548,1032,4767,-6,46,914,1854,1950,2175,2350,2006,1798,1869,1995
625045,-15560,11744,-21622,11146,-3800,300,199,840,-59,1518,1165,4528,-3,47,915,1854,1950,2175,2350,2006,1798,1869,1995
626046,-15564,11804,-21557,11211,-3800,156,192,818,-63,1328,1214,4160,-5,32,914,1879,1957,2176,2394,2058,1873,1935,2035
627047,-15552,11864,-21492,11276,-3800,161,168,694,-60,796,1343,4212,-4,37,915,1879,1957,2176,2394,2058,1873,1935,2035
628048,-15556,11952,-21427,11341,-3800,-217,163,529,-66,174,1085,4206,13,36,914,1879,1957,2176,2394,2058,1873,1935,2035
629049,-15560,12016,-21362,11406,-3800,84,182,316,-83,24,990,4072,0,39,914,1879,1957,2176,2394,2058,1873,1935,2035
630050,-15568,12100,-21297,11471,-3800,-189,224,109,-92,5,881,4546,-2,33,915,1879,1957,2176,2394,2058,1873,1935,2035
631051,-15560,12160,-21232,11536,-3800,116,275,-34,-108,-627,559,4680,-5,43,915,1901,1949,2204,2449,2137,1944,1959,2201
632052,-15568,12232,-21167,11601,-3800,-43,328,-121,-130,-327,305,4535,-6,38,913,1901,1949,2204,2449,2137,1944,1959,2201
633053,-15564,12316,-21102,11666,-3800,-216,385,-171,-137,264,-48,4611,-6,35,915,1901,1949,2204,2449,2137,1944,1959,2201
634054,-15560,12376,-21037,11731,-3800,90,425,-173,-151,168,-287,4678,-3,41,915,1901,1949,2204,2449,2137,1944,1959,2201
635055,-15568,12448,-20972,11796,-3800,-69,458,-131,-157,243,-454,4531,-6,35,915,1901,1949,2204,2449,2137,1944,1959,2201
636056,-15572,12504,-20907,11861,-3800,142,477,-46,-161,341,-414,4896,-2,42,915,1901,1949,2204,2449,2137,1944,1959,2201
637057,-15560,12560,-20842,11926,-3800,153,479,64,-142,194,-228,4898,-6,45,915,1895,1969,2246,2427,2134,1905,1931,2062
638058,-15560,12648,-20777,11991,-3800,-276,459,165,-108,242,-28,4742,0,33,915,1895,1969,2246,2427,2134,1905,1931,2062
639059,-15560,12724,-20712,12056,-3800,-140,416,264,-82,-44,292,4851,-6,38,914,1895,1969,2246,2427,2134,1905,1931,2062
640060,-15564,12772,-20647,12121,-3800,231,341,339,-52,-151,395,4554,-7,34,914,1895,1969,2246,2427,2134,1905,1931,2062
641061,-15560,12832,-20582,12186,-3800,87,246,390,-39,-238,402,4571,1,34,914,1895,1969,2246,2427,2134,1905,1931,2062
642062,-15564,12892,-20517,12251,-3800,93,150,407,-28,-383,482,4541,8,44,915,1884,1976,2209,2384,2060,1967,2071,2023
643063,-15568,12960,-20452,12316,-3800,-12,73,373,-9,-41,487,4132,12,48,915,1884,1976,2209,2384,2060,1967,2071,2023
644064,-15564,13028,-20387,12381,-3800,-15,15,291,13,8,631,4122,9,39,915,1884,1976,2209,2384,2060,1967,2071,2023
645065,-15556,13092,-20322,12446,-3800,36,-33,214,3,-300,677,4101,-3,29,915,1884,1976,2209,2384,2060,1967,2071,2023
646066,-15572,13168,-20257,12511,-3800,-128,-71,174,-18,-122,594,4163,6,39,915,1884,1976,2209,2384,2060,1967,2071,2023
647067,-15560,13224,-20192,12576,-3800,132,-92,122,-27,330,495,4178,10,37,915,1884,1976,2209,2384,2060,1967,2071,2023
648068,-15552,13292,-20127,12641,-3800,-21,-86,84,-46,506,350,4191,9,30,915,1804,1867,2104,2286,2127,1916,1944,2074
649069,-15564,13344,-20062,12706,-3800,195,-55,49,-59,566,224,4228,-4,29,914,1804,1867,2104,2286,2127,1916,1944,2074
650070,-15556,13400,-19997,12771,-3800,156,-1,40,-58,852,118,4195,-3,36,915,1804,1867,2104,2286,2127,1916,1944,2074
651071,-15564,13460,-19932,12836,-3800,111,58,30,-61,1141,-16,3952,-2,39,915,1804,1867,2104,2286,2127,1916,1944,2074
652072,-15564,13516,-19867,12901,-3800,172,104,54,-71,1167,-187,3995,3,32,915,1804,1867,2104,2286,2127,1916,1944,2074
653073,-15556,13564,-19802,12966,-3800,293,141,109,-71,1176,-256,3654,9,36,896,1731,1803,2063,2334,2268,1956,1958,2085
654074,-15552,13636,-19737,13031,-3800,-16,151,140,-54,945,-254,3498,13,39,914,1731,1803,2063,2334,2268,1956,1958,2085
655075,-15568,13688,-19672,13096,-3800,249,145,160,-33,822,-87,3430,11,40,915,1731,1803,2063,2334,2268,1956,1958,2085
656076,-15560,13740,-19607,13161,-3800,265,113,143,-18,595,-187,3080,0,45,914,1731,1803,2063,2334,2268,1956,1958,2085
657077,-15568,13788,-19542,13226,-3800,335,61,88,7,144,32,3299,-6,37,904,1731,1803,2063,2334,2268,1956,1958,2085
658078,-15556,13868,-19477,13291,-3800,-83,-9,58,26,-105,59,3273,-1,43,914,1731,1803,2063,2334,2268,1956,1958,2085
659079,-15552,13952,-19412,13356,-3800,-156,-92,49,35,55,149,3201,12,33,915,1781,1860,2119,2315,2085,1868,1894,1999
660080,-15560,14016,-19347,13421,-3800,94,-172,56,57,76,277,3368,-5,32,915,1781,1860,2119,2315,2085,1868,1894,1999
661081,-15552,14096,-19282,13486,-3800,-124,-249,52,63,-49,348,3461,-7,43,906,1781,1860,2119,2315,2085,1868,1894,1999
662082,-15560,14164,-19217,13551,-3800,22,-315,76,51,-260,184,3627,8,45,915,1781,1860,2119,2315,2085,1868,1894,1999
663083,-15556,14204,-19152,13616,-3800,403,-365,94,40,16,252,3757,11,37,915,1781,1860,2119,2315,2085,1868,1894,1999
664084,-15552,14220,-19087,13681,-3800,762,-395,116,7,215,70,4033,-5,43,913,1816,2008,2224,2324,2017,1919,1851,1970
665085,-15560,14248,-19022,13746,-3800,657,-415,165,-36,223,86,4133,-6,44,905,1816,2008,2224,2324,2017,1919,1851,1970
666086,-15556,14296,-18957,13811,-3800,427,-415,231,-65,450,70,4234,1,41,910,1816,2008,2224,2324,2017,1919,1851,1970
667087,-15564,14376,-18892,13876,-3800,9,-394,297,-86,917,46,4046,0,45,913,1816,2008,2224,2324,2017,1919,1851,1970
668088,-15564,14456,-18827,13941,-3800,-9,-347,390,-114,1070,22,4149,3,38,915,1816,2008,2224,2324,2017,1919,1851,1970
669089,-15552,14536,-18762,14006,-3800,-28,-286,451,-130,850,10,3849,-3,46,911,1816,2008,2224,2324,2017,1919,1851,1970
670090,-15560,14616,-18697,14071,-3800,-47,-218,472,-125,527,45,3951,3,50,916,1794,1874,2094,2295,2050,1843,1880,1996
671091,-15552,14680,-18632,14136,-3800,154,-161,438,-132,593,65,3728,-6,41,915,1794,1874,2094,2295,2050,1843,1880,1996
672092,-15568,14768,-18567,14201,-3800,-174,-117,363,-138,404,238,3745,2,43,915,1794,1874,2094,2295,2050,1843,1880,1996
673093,-15564,14844,-18502,14266,-3800,-37,-95,296,-123,677,442,3472,3,38,912,1794,1874,2094,2295,2050,1843,1880,1996
674094,-15564,14908,-18437,14331,-3800,113,-100,237,-126,975,565,3380,11,33,915,1794,1874,2094,2295,2050,1843,1880,1996
675095,-15564,14980,-18372,14396,-3800,5,-113,218,-144,887,651,3452,-6,34,915,1865,1888,2144,2370,2046,1858,1894,1973
676096,-15564,15044,-18307,14461,-3800,106,-133,201,-147,1064,703,3235,-1,44,915,1865,1888,2144,2370,2046,1858,1894,1973
677097,-15560,15112,-18242,14526,-3800,52,-152,195,-146,1051,712,3433,-6,45,913,1865,1888,2144,2370,2046,1858,1894,1973
678098,-15560,15148,-18177,14591,-3800,487,-168,195,-149,1149,708,3342,-5,44,915,1865,1888,2144,2370,2046,1858,1894,1973
679099,-15572,15248,-18112,14656,-3800,-356,-172,222,-153,1168,607,3494,-4,46,913,1865,1888,2144,2370,2046,1858,1894,1973
680100,-15552,15344,-18047,14721,-3800,-344,-169,275,-155,1039,417,3647,-6,35,913,1865,1888,2144,2370,2046,1858,1894,1973
681101,-15556,15404,-17982,14786,-3800,112,-143,335,-162,1181,165,3721,10,32,912,1866,1925,2163,2388,2025,1840,1881,1979
682102,-15556,15476,-17917,14851,-3800,-47,-116,357,-176,1291,-83,3687,-4,28,914,1866,1925,2163,2388,2025,1840,1881,1979
683103,-15568,15528,-17852,14916,-3800,218,-79,353,-189,857,-324,3882,5,32,914,1866,1925,2163,2388,2025,1840,1881,1979
684104,-15564,15588,-17787,14981,-3800,125,-34,367,-214,649,-427,3962,11,30,914,1866,1925,2163,2388,2025,1840,1881,1979
685105,-15560,15640,-17722,15046,-3800,240,14,370,-247,515,-466,3887,7,25,914,1866,1925,2163,2388,2025,1840,1881,1979
686106,-15552,15692,-17657,15111,-3800,256,52,357,-259,324,-337,4005,6,39,915,1830,1899,2140,2331,2014,1806,1847,1958
687107,-15556,15740,-17592,15176,-3800,326,80,327,-261,33,-243,4196,0,40,914,1830,1899,2140,2331,2014,1806,1847,1958
688108,-15560,15788,-17527,15241,-3800,347,97,294,-270,-122,-148,4136,-6,37,914,1830,1899,2140,2331,2014,1806,1847,1958
689109,-15560,15840,-17462,15306,-3800,313,109,265,-268,120,-17,4169,-1,31,913,1830,1899,2140,2331,2014,1806,1847,1958
690110,-15560,15912,-17397,15371,-3800,54,115,245,-255,174,57,4228,7,25,914,1830,1899,2140,2331,2014,1806,1847,1958
691111,-15556,15980,-17332,15436,-3800,99,124,251,-256,269,177,4223,-1,28,915,1830,1899,2140,2331,2014,1806,1847,1958
692112,-15556,16024,-17267,15501,-3800,425,127,271,-251,627,230,4173,7,38,915,1813,1899,2128,2326,2008,1801,2028,2099
693113,-15568,16068,-17202,15566,-3800,451,124,284,-237,912,289,3835,11,29,913,1813,1899,2128,2326,2008,1801,2028,2099
694114,-15564,16128,-17137,15631,-3800,257,113,324,-239,837,331,4111,12,27,913,1813,1899,2128,2326,2008,1801,2028,2099
695115,-15572,16196,-17072,15696,-3800,153,98,385,-250,1021,321,3721,-6,31,914,1813,1899,2128,2326,2008,1801,2028,2099
696116,-15564,16256,-17007,15761,-3800,258,84,413,-237,1156,304,3772,8,30,915,1813,1899,2128,2326,2008,1801,2028,2099
697117,-15564,16316,-16942,15826,-3800,264,85,405,-223,1005,328,3719,8,37,914,1862,1938,2165,2382,2055,1860,1916,2027
698118,-15560,16376,-16877,15891,-3800,270,101,375,-223,854,167,3724,7,39,914,1862,1938,2165,2382,2055,1860,1916,2027
699119,-15560,16416,-16812,15956,-3684,551,130,348,-222,878,25,3719,13,34,914,1862,1938,2165,2382,2055,1860,1916,2027
700120,-15568,16488,-16747,16021,-3495,142,159,303,-219,846,-42,3682,9,17,911,1862,1938,2165,2382,2055,1860,1916,2027
701121,-15572,16572,-16682,16086,-3460,-31,196,267,-231,920,-146,3764,-1,42,914,1862,1938,2165,2382,2055,1860,1916,2027
702122,-15568,16620,-16617,16151,-3487,439,226,225,-240,832,-191,3664,9,34,915,1862,1938,2165,2382,2055,1860,1916,2027
703123,-15564,16688,-16552,16216,-3413,185,254,189,-240,628,-199,3863,5,35,913,1862,1922,2172,2380,2213,1997,1931,2037
704124,-15564,16756,-16487,16281,-3284,182,278,158,-243,266,-169,3886,7,27,914,1862,1922,2172,2380,2213,1997,1931,2037
705125,-15560,16816,-16288,16480,-3096,451,290,128,-250,108,-102,4154,0,31,914,1862,1922,2172,2380,2213,1997,1931,2037
706126,-15552,16884,-16223,16545,-3077,348,291,98,-232,406,-154,4095,-7,30,913,1862,1922,2172,2380,2213,1997,1931,2037
707127,-15564,16944,-16158,16610,-2734,454,298,101,-218,345,-123,4486,-3,27,914,1862,1922,2172,2380,2213,1997,1931,2037
708128,-15572,17008,-16093,16675,-2694,404,298,122,-218,61,-79,4428,10,39,913,1828,1897,2123,2338,2070,1854,1890,2002
709129,-15572,17080,-16028,16740,-2715,295,298,156,-212,312,-89,4443,5,43,913,1828,1897,2123,2338,2070,1854,1890,2002
710130,-15564,17136,-15963,16805,-2746,506,295,181,-186,273,19,4557,3,43,914,1828,1897,2123,2338,2070,1854,1890,2002
711131,-15560,17216,-15898,16870,-2621,188,285,201,-168,49,111,4402,5,31,913,1828,1897,2123,2338,2070,1854,1890,2002
712132,-15564,17272,-15833,16935,-2437,499,267,239,-146,57,193,4547,-5,47,914,1828,1897,2123,2338,2070,1854,1890,2002
713133,-15564,17360,-15768,17000,-2409,71,235,285,-128,6,225,4397,13,35,913,1828,1897,2123,2338,2070,1854,1890,2002
714134,-15568,17428,-15703,17065,-2274,317,201,308,-112,105,259,4245,-4,44,903,1814,1898,2237,2398,2046,1833,1886,1991
715135,-15568,17516,-15638,17130,-2245,38,167,330,-108,83,292,4284,11,47,914,1814,1898,2237,2398,2046,1833,1886,1991
716136,-15552,17568,-15573,17195,-2385,504,136,322,-111,70,349,4123,7,35,915,1814,1898,2237,2398,2046,1833,1886,1991
717137,-15564,17644,-15508,17260,-1941,191,119,311,-119,160,265,4123,5,32,911,1814,1898,2237,2398,2046,1833,1886,1991
718138,-15556,17708,-15443,17325,-2122,342,111,281,-130,254,200,4006,-4,34,906,1814,1898,2237,2398,2046,1833,1886,1991
719139,-15560,17780,-15378,17390,-1887,233,115,258,-146,285,72,3904,1,39,914,1841,1916,2161,2360,2088,1887,1925,2051
720140,-15560,17848,-15313,17455,-1858,280,135,256,-162,384,68,3922,-6,35,914,1841,1916,2161,2360,2088,1887,1925,2051
721141,-15560,17932,-15248,17520,-1779,57,159,251,-177,561,-25,3785,4,46,914,1841,1916,2161,2360,2088,1887,1925,2051
722142,-15568,18016,-15183,17585,-1589,32,186,245,-192,538,-19,3819,-6,41,907,1841,1916,2161,2360,2088,1887,1925,2051
723143,-15556,18080,-15118,17650,-1774,284,207,224,-193,476,74,3740,7,45,915,1841,1916,2161,2360,2088,1887,1925,2051
724144,-15568,18148,-15053,17715,-1380,230,226,221,-196,382,73,3812,-6,37,914,1841,1916,2161,2360,2088,1887,1925,2051
725145,-15568,18228,-14988,17780,-1450,62,234,210,-199,362,146,3773,-5,45,914,1902,1995,2171,2364,2128,1916,1937,2053
726146,-15560,18316,-14923,17845,-1481,-66,237,205,-190,480,190,3788,-3,45,911,1902,1995,2171,2364,2128,1916,1937,2053
727147,-15560,18384,-14858,17910,-1301,180,231,187,-179,377,297,3967,0,37,915,1902,1995,2171,2364,2128,1916,1937,2053
728148,-15564,18464,-14793,17975,-1166,11,218,166,-178,244,365,3883,-2,42,914,1902,1995,2171,2364,2128,1916,1937,2053
729149,-15580,18528,-14728,18040,-917,212,195,177,-175,153,424,4034,11,37,915,1902,1995,2171,2364,2128,1916,1937,2053
730150,-15560,18596,-14663,18105,-1313,158,168,194,-166,84,341,3936,2,28,911,1829,1896,2141,2335,2061,1852,1886,1995
731151,-15568,18644,-14598,18170,-872,429,147,181,-165,169,323,4063,-3,38,915,1829,1896,2141,2335,2061,1852,1886,1995
732152,-15560,18696,-14533,18235,-1003,395,121,152,-162,-61,358,4152,12,23,913,1829,1896,2141,2335,2061,1852,1886,1995
733153,-15568,18756,-14468,18300,-713,300,96,152,-150,-83,319,4114,5,24,913,1829,1896,2141,2335,2061,1852,1886,1995
734154,-15560,18812,-14403,18365,-843,361,76,171,-144,64,295,4135,12,36,911,1829,1896,2141,2335,2061,1852,1886,1995
735155,-15560,18876,-14338,18430,-664,262,63,192,-161,98,225,4095,6,24,914,1829,1896,2141,2335,2061,1852,1886,1995
736156,-15560,18924,-14273,18495,-583,483,45,179,-178,-42,198,4133,12,25,914,1799,1875,2107,2293,2033,1825,1869,1988
737157,-15556,18992,-14208,18560,-559,229,36,159,-182,-153,167,4017,13,32,913,1799,1875,2107,2293,2033,1825,1869,1988
738158,-15572,19044,-14143,18625,-209,445,39,168,-195,106,116,4050,-6,36,912,1799,1875,2107,2293,2033,1825,1869,1988
739159,-15560,19088,-14078,18690,-494,570,43,181,-216,243,62,3933,0,34,913,1799,1875,2107,2293,2033,1825,1869,1988
740160,-15556,19168,-14013,18755,-319,101,61,169,-222,159,67,3789,-7,27,908,1799,1875,2107,2293,2033,1825,1869,1988
741161,-15544,19212,-13948,18820,-353,577,76,165,-234,183,142,3839,1,38,914,1796,1881,2125,2311,2067,1858,1882,2155
742162,-15556,19260,-13883,18885,41,548,82,165,-245,307,215,3583,-1,37,910,1796,1881,2125,2311,2067,1858,1882,2155
743163,-15560,19356,-13818,18950,26,-90,91,167,-259,323,204,3641,-6,36,912,1796,1881,2125,2311,2067,1858,1882,2155
744164,-15560,19428,-13753,19015,55,201,92,167,-274,510,297,3452,3,43,915,1796,1881,2125,2311,2067,1858,1882,2155
745165,-15568,19476,-13688,19080,245,522,89,147,-277,583,383,3458,-7,34,915,1796,1881,2125,2311,2067,1858,1882,2155
746166,-15568,19548,-13623,19145,226,213,88,119,-284,347,443,3481,5,29,912,1796,1881,2125,2311,2067,1858,1882,2155
747167,-15560,19612,-13558,19210,196,314,78,107,-292,249,499,3658,6,33,913,1832,1907,2156,2355,2086,1880,1914,2026
748168,-15564,19680,-13493,19275,431,260,69,96,-294,553,519,3555,-4,31,913,1832,1907,2156,2355,2086,1880,1914,2026
749169,-15552,19748,-13428,19340,296,256,57,68,-292,493,553,3655,8,25,912,1832,1907,2156,2355,2086,1880,1914,2026
750170,-15564,19812,-13363,19405,691,308,51,40,-295,339,544,3762,-2,38,912,1832,1907,2156,2355,2086,1880,1914,2026
751174,-15564,19872,-13298,19470,622,364,41,23,-297,323,513,3883,7,38,908,1832,1907,2156,2355,2086,1880,1914,2026
752172,-15536,19940,-13233,19535,318,259,40,21,-294,348,539,4016,2,32,909,1841,1906,2149,2349,2059,1977,2026,2004
753173,-15532,19996,-13168,19600,692,420,37,15,-286,338,473,4020,6,44,912,1841,1906,2149,2349,2059,1977,2026,2004
754174,-15516,20056,-13103,19665,603,376,46,25,-275,281,388,4230,21,29,909,1841,1906,2149,2349,2059,1977,2026,2004
755175,-15508,20128,-13038,19730,774,218,51,30,-278,223,356,4238,16,44,909,1841,1906,2149,2349,2059,1977,2026,2004
756176,-15480,20188,-12973,19795,570,374,56,33,-277,220,285,4214,23,41,909,1841,1906,2149,2349,2059,1977,2026,2004
757177,-15456,20236,-12908,19860,671,545,68,21,-263,192,287,4218,26,41,909,1841,1906,2149,2349,2059,1977,2026,2004
758178,-15424,20304,-12843,19925,612,290,77,17,-260,20,203,4276,32,33,908,1811,1884,2127,2318,2049,1841,1874,1994
759179,-15388,20384,-12778,19990,599,122,80,23,-262,99,164,4160,29,39,909,1811,1884,2127,2318,2049,1841,1874,1994
760180,-15336,20428,-12713,20055,415,597,84,36,-261,308,188,4155,33,35,910,1811,1884,2127,2318,2049,1841,1874,1994
761181,-15296,20492,-12648,20120,597,348,85,49,-259,302,155,4059,41,44,910,1811,1884,2127,2318,2049,1841,1874,1994
762182,-15244,20528,-12583,20185,464,734,81,59,-263,257,129,3965,23,31,909,1811,1884,2127,2318,2049,1841,1874,1994
763183,-15204,20620,-12518,20250,645,1,74,70,-265,327,229,3863,22,37,908,1822,1900,2148,2436,2144,1856,1892,2012
764184,-15164,20680,-12453,20315,677,407,69,82,-262,304,225,3731,42,45,910,1822,1900,2148,2436,2144,1856,1892,2012
765185,-15100,20748,-12388,20380,379,302,54,78,-263,421,280,3721,45,46,909,1822,1900,2148,2436,2144,1856,1892,2012
766186,-15044,20808,-12323,20445,491,408,49,82,-258,526,234,3611,32,32,911,1822,1900,2148,2436,2144,1856,1892,2012
767187,-14980,20872,-12258,20510,393,360,34,80,-254,550,340,3703,46,44,910,1822,1900,2148,2436,2144,1856,1892,2012
768188,-14912,20940,-12193,20575,341,306,36,92,-251,603,275,3808,37,36,909,1822,1900,2148,2436,2144,1856,1892,2012
769189,-14872,21004,-12128,20640,722,357,34,93,-233,499,228,3676,33,29,911,1851,1923,2168,2371,2084,1876,1914,2025
770190,-14796,21068,-12063,20705,260,358,39,88,-224,439,346,3732,42,45,909,1851,1923,2168,2371,2084,1876,1914,2025
771191,-14740,21144,-11998,20770,522,195,49,78,-213,443,272,3802,47,38,911,1851,1923,2168,2371,2084,1876,1914,2025
772192,-14664,21200,-11933,20835,259,455,63,76,-198,562,203,3951,31,41,911,1851,1923,2168,2371,2084,1876,1914,2025
773193,-14600,21260,-11868,20900,412,411,77,64,-182,654,254,3997,48,30,911,1851,1923,2168,2371,2084,1876,1914,2025
774194,-14524,21324,-11803,20965,250,362,93,45,-153,444,62,3925,47,29,911,1836,2008,2233,2349,2080,1872,1904,2011
775195,-14476,21376,-11738,21030,622,528,108,27,-136,479,202,4144,37,39,912,1836,2008,2233,2349,2080,1872,1904,2011
776196,-14396,21460,-11673,21095,204,105,124,20,-128,432,146,4008,39,41,909,1836,2008,2233,2349,2080,1872,1904,2011
777197,-14328,21532,-11608,21160,352,246,138,30,-117,586,115,4254,33,43,912,1836,2008,2233,2349,2080,1872,1904,2011
778198,-14256,21576,-11543,21225,294,622,151,49,-99,632,101,4284,34,40,913,1836,2008,2233,2349,2080,1872,1904,2011
779199,-14196,21636,-11478,21290,451,428,152,49,-77,550,-5,4030,45,28,911,1836,2008,2233,2349,2080,1872,1904,2011
780200,-14132,21688,-11413,21355,404,543,150,77,-74,472,133,4329,50,38,910,1809,1879,2122,2321,2054,1843,1880,1991
781201,-14056,21748,-11348,21420,241,449,144,87,-65,415,105,3916,37,37,910,1809,1879,2122,2321,2054,1843,1880,1991
782202,-14008,21812,-11283,21485,613,400,133,92,-61,529,70,4164,33,28,911,1809,1879,2122,2321,2054,1843,1880,1991
783203,-13944,21872,-11218,21550,415,456,129,115,-58,648,100,4044,31,34,910,1809,1879,2122,2321,2054,1843,1880,1991
784204,-13860,21932,-11153,21615,143,463,110,136,-41,568,61,3989,31,32,910,1809,1879,2122,2321,2054,1843,1880,1991
785205,-13808,21976,-11088,21680,560,688,103,158,-33,496,19,4014,31,26,911,1881,1914,2150,2352,2051,1844,1888,2002
786206,-13748,22052,-11023,21745,467,275,93,161,-30,462,85,3880,29,42,908,1881,1914,2150,2352,2051,1844,1888,2002
787207,-13704,22088,-10958,21810,694,810,91,163,-18,406,25,3947,47,44,910,1881,1914,2150,2352,2051,1844,1888,2002
788208,-13620,22160,-10893,21875,171,351,79,159,-11,477,76,3824,48,44,907,1881,1914,2150,2352,2051,1844,1888,2002
789209,-13560,22220,-10828,21940,478,507,81,164,-14,535,101,3844,31,27,911,1881,1914,2150,2352,2051,1844,1888,2002
790210,-13516,22292,-10763,22005,705,348,72,155,-1,477,53,3781,42,28,910,1881,1914,2150,2352,2051,1844,1888,2002
791211,-13456,22336,-10698,22070,512,724,78,147,7,547,107,3864,36,30,909,1851,1923,2174,2378,2084,1876,1913,2028
792212,-13376,22392,-10633,22135,245,585,85,159,9,571,128,3983,44,42,908,1851,1923,2174,2378,2084,1876,1913,2028
793213,-13324,22456,-10568,22200,612,486,95,168,18,664,91,3887,32,31,909,1851,1923,2174,2378,2084,1876,1913,2028
794214,-13264,22500,-10503,22265,519,762,118,188,29,836,293,4152,36,33,909,1851,1923,2174,2378,2084,1876,1913,2028
795215,-13208,22568,-10438,22330,581,458,136,195,35,704,266,3999,36,35,907,1851,1923,2174,2378,2084,1876,1913,2028
796216,-13152,22640,-10373,22395,593,399,154,216,37,614,144,4245,33,32,908,1840,1911,2155,2355,2093,1884,1916,2025
797217,-13104,22704,-10308,22460,715,500,165,213,50,679,235,3960,38,41,909,1840,1911,2155,2355,2093,1884,1916,2025
798218,-13028,22756,-10243,22525,353,666,181,192,64,629,246,4050,44,38,908,1840,1911,2155,2355,2093,1884,1916,2025
799219,-12956,22816,-10178,22590,396,572,188,175,67,547,234,4040,48,37,909,1840,1911,2155,2355,2093,1884,1916,2025
800220,-12888,22844,-10113,22655,443,1017,200,159,65,620,331,4028,33,38,909,1840,1911,2155,2355,2093,1884,1916,2025
801222,-12844,22908,-10048,22720,770,568,197,149,77,496,209,4188,41,35,906,1840,1911,2155,2355,2093,1884,1916,2025
802222,-12768,22976,-9983,22785,357,514,194,146,75,657,241,4100,33,43,903,1817,1888,2130,2336,2064,1857,2052,2105
803223,-12708,23060,-9918,22850,564,291,191,160,72,717,176,4116,35,28,909,1817,1888,2130,2336,2064,1857,2052,2105
804224,-12640,23088,-9853,22915,462,1036,181,173,72,646,204,4286,45,38,909,1817,1888,2130,2336,2064,1857,2052,2105
805225,-12560,23144,-9788,22980,294,697,175,195,72,454,144,4191,46,37,907,1817,1888,2130,2336,2064,1857,2052,2105
806226,-12508,23192,-9723,23045,661,818,166,211,71,502,148,4206,40,33,907,1817,1888,2130,2336,2064,1857,2052,2105
807227,-12448,23252,-9658,23110,568,674,160,217,69,678,79,4044,29,36,907,1829,1903,2147,2350,2051,1847,1887,2001
808228,-12396,23296,-9593,23175,685,900,158,205,67,572,130,4105,31,37,906,1829,1903,2147,2350,2051,1847,1887,2001
809229,-12340,23348,-9528,23240,647,816,146,192,55,326,61,3899,42,38,905,1829,1903,2147,2350,2051,1847,1887,2001
810230,-12268,23424,-9463,23305,440,502,139,191,54,442,64,3878,39,39,905,1829,1903,2147,2350,2051,1847,1887,2001
811231,-12216,23460,-9398,23370,706,1037,135,180,59,581,122,3914,40,26,907,1829,1903,2147,2350,2051,1847,1887,2001
812232,-12144,23512,-9333,23435,449,853,136,177,57,425,86,3835,49,25,906,1829,1903,2147,2350,2051,1847,1887,2001
813233,-12068,23576,-9268,23500,386,704,139,188,57,366,167,3895,46,39,904,1847,1925,2172,2371,2167,1969,1936,2022
814234,-12016,23620,-9203,23565,704,979,142,171,59,477,195,3666,34,38,907,1847,1925,2172,2371,2167,1969,1936,2022
815235,-11936,23692,-9138,23630,337,621,155,174,57,471,233,4046,48,44,905,1847,1925,2172,2371,2167,1969,1936,2022
816236,-11880,23744,-9073,23695,649,887,168,177,55,581,247,3767,40,31,906,1847,1925,2172,2371,2167,1969,1936,2022
817237,-11816,23820,-9008,23760,551,573,175,192,55,641,215,3943,44,45,907,1847,1925,2172,2371,2167,1969,1936,2022
818238,-11764,23864,-8943,23825,718,999,186,180,49,665,293,3803,35,41,906,1846,1921,2161,2358,2085,1877,1914,2026
819239,-11704,23952,-8878,23890,625,421,198,158,54,509,283,3826,49,31,903,1846,1921,2161,2358,2085,1877,1914,2026
820240,-11632,24004,-8813,23955,468,887,223,166,55,391,355,4090,40,28,905,1846,1921,2161,2358,2085,1877,1914,2026
821241,-11572,24052,-8748,24020,625,957,238,134,77,306,303,3814,34,33,907,1846,1921,2161,2358,2085,1877,1914,2026
822242,-11516,24116,-8683,24085,687,759,255,117,82,597,331,4097,31,40,905,1846,1921,2161,2358,2085,1877,1914,2026
823243,-11448,24172,-8618,24150,534,870,269,116,85,648,212,3873,43,31,904,1846,1921,2161,2358,2085,1877,1914,2026
824244,-11388,24240,-8553,24215,641,716,302,85,88,685,32,3827,48,29,905,1823,1892,2223,2416,2084,1853,1888,1988
825245,-11336,24296,-8488,24280,758,877,335,32,112,895,-7,3816,51,41,906,1823,1892,2223,2416,2084,1853,1888,1988
826246,-11272,24348,-8423,24345,610,943,368,30,134,794,343,3949,41,43,905,1823,1892,2223,2416,2084,1853,1888,1988
827247,-11196,24420,-8358,24410,449,684,395,109,151,359,455,4155,35,47,904,1823,1892,2223,2416,2084,1853,1888,1988
828248,-11112,24468,-8293,24475,327,1005,404,165,163,469,451,3963,44,47,906,1823,1892,2223,2416,2084,1853,1888,1988
829249,-11040,24548,-8228,24540,469,587,395,188,175,631,380,3960,33,33,907,1827,1898,2138,2348,2018,1816,1857,1954
830250,-11000,24620,-8163,24605,901,678,400,184,188,491,420,3821,48,33,907,1827,1898,2138,2348,2018,1816,1857,1954
831251,-10928,24684,-8098,24670,493,779,380,145,181,235,294,3683,43,38,906,1827,1898,2138,2348,2018,1816,1857,1954
832252,-10852,24768,-8033,24735,431,506,364,121,150,212,225,3752,45,43,905,1827,1898,2138,2348,2018,1816,1857,1954
833253,-10780,24824,-7968,24800,473,867,330,97,132,481,328,3617,35,32,908,1827,1898,2138,2348,2018,1816,1857,1954
834254,-10736,24892,-7903,24865,850,714,323,133,115,491,371,3895,33,31,908,1827,1898,2138,2348,2018,1816,1857,1954
835255,-10660,24964,-7838,24930,437,655,306,169,93,299,261,3721,32,49,905,1902,2024,2211,2388,2014,1820,1862,1971
836256,-10604,25020,-7773,24995,699,866,317,191,72,373,227,3843,33,43,905,1902,2024,2211,2388,2014,1820,1862,1971
837257,-10536,25096,-7708,25060,547,603,322,201,69,449,159,3754,48,44,906,1902,2024,2211,2388,2014,1820,1862,1971
838258,-10492,25152,-7643,25125,873,864,334,203,66,370,127,3755,31,44,906,1902,2024,2211,2388,2014,1820,1862,1971
839259,-10424,25224,-7578,25190,571,655,338,217,61,317,203,3881,31,42,904,1902,2024,2211,2388,2014,1820,1862,1971
840260,-10328,25304,-7513,25255,185,537,350,237,54,349,260,3821,34,41,905,1853,1922,2172,2368,2067,1873,1905,2021
841261,-10292,25388,-7448,25320,971,463,357,272,65,417,264,3870,31,31,909,1853,1922,2172,2368,2067,1873,1905,2021
842262,-10228,25448,-7383,25385,623,770,373,287,80,481,326,3777,38,32,908,1853,1922,2172,2368,2067,1873,1905,2021
843263,-10180,25508,-7318,25450,845,776,386,293,96,244,316,3922,32,33,905,1853,1922,2172,2368,2067,1873,1905,2021
844264,-10120,25592,-7253,25515,702,453,405,296,117,205,423,3882,42,32,905,1853,1922,2172,2368,2067,1873,1905,2021
845265,-10044,25644,-7188,25580,490,868,413,271,126,288,544,3889,51,42,905,1853,1922,2172,2368,2067,1873,1905,2021
846266,-9992,25720,-7123,25645,807,555,415,253,120,312,555,3873,38,27,906,1841,1884,2135,2330,2095,1894,1918,2027
847267,-9928,25760,-7058,25710,659,1035,416,236,100,315,740,4046,39,40,906,1841,1884,2135,2330,2095,1894,1918,2027
848268,-9864,25832,-6993,25775,661,627,411,207,86,189,639,3929,35,42,904,1841,1884,2135,2330,2095,1894,1918,2027
849269,-9804,25896,-6928,25840,718,728,404,195,60,319,708,4236,32,38,905,1841,1884,2135,2330,2095,1894,1918,2027
850270,-9748,25952,-6863,25905,780,839,385,192,26,400,717,4031,51,41,906,1841,1884,2135,2330,2095,1894,1918,2027
851271,-9680,25996,-6798,25970,628,1015,365,191,-2,381,632,4183,43,42,905,1794,1866,2119,2317,2082,1880,1904,2100
852272,-9624,26068,-6733,26035,791,656,337,198,-34,395,629,4054,41,34,904,1794,1866,2119,2317,2082,1880,1904,2100
853273,-9564,26120,-6668,26100,748,922,313,201,-64,333,482,4005,36,45,901,1794,1866,2119,2317,2082,1880,1904,2100
854274,-9492,26188,-6603,26165,590,718,285,217,-96,338,382,4114,50,41,904,1794,1866,2119,2317,2082,1880,1904,2100
855275,-9428,26252,-6538,26230,692,770,258,221,-126,288,375,4048,48,44,904,1794,1866,2119,2317,2082,1880,1904,2100
856276,-9368,26308,-6473,26295,749,881,233,233,-146,231,209,3991,47,32,907,1811,1887,2149,2342,2082,1880,1905,2029
857277,-9304,26356,-6408,26360,702,1001,211,246,-161,245,163,4060,49,45,905,1811,1887,2149,2342,2082,1880,1905,2029
858278,-9256,26416,-6343,26425,923,857,188,258,-180,207,161,3876,49,35,904,1811,1887,2149,2342,2082,1880,1905,2029
859279,-9196,26496,-6278,26490,781,589,165,257,-201,173,95,3910,46,44,902,1811,1887,2149,2342,2082,1880,1905,2029
860280,-9132,26568,-6213,26555,733,681,139,249,-213,25,163,3742,31,36,902,1811,1887,2149,2342,2082,1880,1905,2029
861281,-9092,26620,-6148,26620,1065,947,109,232,-218,-126,214,3827,49,37,905,1811,1887,2149,2342,2082,1880,1905,2029
862282,-9036,26688,-6083,26685,877,743,89,226,-222,-105,313,3909,34,35,906,1831,1913,2173,2359,2101,1955,2069,2167
863283,-8984,26744,-6018,26750,944,904,79,219,-223,-15,326,3818,34,45,899,1831,1913,2173,2359,2101,1955,2069,2167
864284,-8920,26796,-5953,26815,796,970,71,207,-221,85,392,3926,45,38,903,1831,1913,2173,2359,2101,1955,2069,2167
865285,-8836,26868,-5888,26880,524,711,69,206,-230,118,434,3959,33,38,902,1831,1913,2173,2359,2101,1955,2069,2167
866286,-8800,26940,-5823,26945,1161,703,55,188,-243,123,499,3929,33,41,902,1831,1913,2173,2359,2101,1955,2069,2167
867287,-8744,26984,-5758,27010,923,1078,46,178,-261,119,501,4080,44,45,906,1821,1898,2151,2342,2103,1898,1923,2033
868288,-8684,27028,-5693,27075,880,1104,40,156,-273,104,699,4032,40,30,901,1821,1898,2151,2342,2103,1898,1923,2033
869289,-8620,27084,-5628,27140,833,965,36,154,-283,188,801,4200,37,44,899,1821,1898,2151,2342,2103,1898,1923,2033
870290,-8564,27132,-5563,27205,945,1086,29,173,-303,330,662,4099,37,42,898,1821,1898,2151,2342,2103,1898,1923,2033
871291,-8488,27200,-5498,27270,682,832,26,175,-326,503,605,4103,50,46,901,1821,1898,2151,2342,2103,1898,1923,2033
872292,-8436,27264,-5433,27335,999,883,28,186,-349,370,542,4184,36,43,899,1821,1898,2151,2342,2103,1898,1923,2033
873293,-8372,27332,-5368,27400,851,830,27,183,-357,316,518,4100,39,39,905,1809,1878,2128,2348,2170,1999,1907,2007
874294,-8308,27396,-5303,27465,854,881,29,193,-379,393,480,4260,39,43,901,1809,1878,2128,2348,2170,1999,1907,2007
875295,-8248,27456,-5238,27530,911,937,31,192,-387,311,445,4107,33,32,903,1809,1878,2128,2348,2170,1999,1907,2007
876296,-8196,27520,-5173,27595,1029,888,35,194,-397,251,404,4219,32,31,902,1809,1878,2128,2348,2170,1999,1907,2007
877297,-8128,27580,-5108,27660,826,944,30,187,-409,-14,306,4040,30,31,901,1809,1878,2128,2348,2170,1999,1907,2007
878298,-8076,27632,-5043,27725,1043,1060,23,178,-411,-12,227,4115,37,29,900,1823,1893,2151,2363,2057,1863,1887,1993
879299,-8008,27696,-4978,27790,840,911,11,151,-398,-46,223,3930,36,40,901,1823,1893,2151,2363,2057,1863,1887,1993
880300,-7980,27760,-4913,27855,1386,912,3,158,-400,31,361,4153,37,28,898,1823,1893,2151,2363,2057,1863,1887,1993
881301,-7924,27808,-4848,27920,1048,1133,1,157,-379,-272,108,3871,44,35,902,1823,1893,2151,2363,2057,1863,1887,1993
882302,-7860,27876,-4783,27985,951,880,2,161,-358,137,410,4130,41,44,896,1823,1893,2151,2363,2057,1863,1887,1993
883303,-7788,27936,-4718,28050,844,986,16,163,-327,204,179,3862,51,46,898,1823,1893,2151,2363,2057,1863,1887,1993
884304,-7724,28004,-4653,28115,946,882,30,153,-296,154,220,4049,46,47,900,1859,1932,2292,2495,2062,1868,1896,2005
885305,-7664,28060,-4588,28180,1003,1043,36,158,-250,189,298,3910,50,33,901,1859,1932,2292,2495,2062,1868,1896,2005
886306,-7604,28144,-4523,28245,1010,670,46,186,-206,157,415,4201,33,46,901,1859,1932,2292,2495,2062,1868,1896,2005
887307,-7552,28212,-4458,28310,1127,866,52,220,-169,361,342,4059,48,45,898,1859,1932,2292,2495,2062,1868,1896,2005
888308,-7488,28264,-4393,28375,981,1082,98,215,-122,627,324,3948,41,48,901,1859,1932,2292,2495,2062,1868,1896,2005
889309,-7436,28336,-4328,28440,1147,823,160,192,-66,276,404,4063,51,51,899,1881,1946,2197,2407,2060,1859,1894,1997
890310,-7368,28408,-4263,28505,945,815,201,180,-18,200,531,3970,51,49,899,1881,1946,2197,2407,2060,1859,1894,1997
891311,-7324,28464,-4198,28570,1271,1026,236,202,4,440,745,4109,46,52,900,1881,1946,2197,2407,2060,1859,1894,1997
892312,-7260,28548,-4133,28635,1024,653,267,226,11,391,964,4002,35,43,902,1881,1946,2197,2407,2060,1859,1894,1997
893313,-7204,28620,-4068,28700,1136,794,316,258,3,246,1048,4223,36,51,897,1881,1946,2197,2407,2060,1859,1894,1997
894314,-7136,28672,-4003,28765,984,1060,346,256,-3,52,971,4088,51,36,902,1881,1946,2197,2407,2060,1859,1894,1997
895315,-7092,28744,-3938,28830,1311,802,382,248,-22,339,912,4055,53,47,900,1932,2040,2173,2395,2030,1826,1866,1956
896316,-7016,28816,-3873,28895,898,794,406,219,-25,482,868,4007,39,42,899,1932,2040,2173,2395,2030,1826,1866,1956
897317,-6952,28884,-3808,28960,1050,840,433,204,-16,372,618,4103,56,33,898,1932,2040,2173,2395,2030,1826,1866,1956
898318,-6884,28948,-3743,29025,998,891,440,214,-15,638,840,4162,37,49,903,1932,2040,2173,2395,2030,1826,1866,1956
899319,-6808,29000,-3678,29090,886,1057,452,204,14,258,621,3879,52,47,900,1932,2040,2173,2395,2030,1826,1866,1956
900320,-6740,29064,-3613,29155,984,909,455,213,49,87,475,4324,35,37,901,1887,1937,2185,2410,2003,1812,1853,1951
901321,-6688,29136,-3548,29220,1201,800,472,233,95,286,504,4063,51,37,900,1887,1937,2185,2410,2003,1812,1853,1951
902322,-6620,29188,-3483,29285,998,1066,498,237,163,258,266,4170,35,34,901,1887,1937,2185,2410,2003,1812,1853,1951
903323,-6568,29260,-3418,29350,1215,807,539,240,243,138,227,4166,33,38,899,1887,1937,2185,2410,2003,1812,1853,1951
904324,-6512,29324,-3353,29415,1178,909,571,246,331,248,257,4040,31,44,897,1887,1937,2185,2410,2003,1812,1853,1951
905325,-6472,29376,-3288,29480,1409,1074,610,255,415,219,242,4052,36,36,898,1887,1937,2185,2410,2003,1812,1853,1951
906326,-6408,29440,-3223,29545,1111,926,645,280,488,239,322,3987,37,39,898,1884,1946,2206,2419,2034,1849,1881,1990
907327,-6328,29504,-3158,29610,894,927,689,331,545,540,389,4235,46,41,894,1884,1946,2206,2419,2034,1849,1881,1990
908328,-6276,29588,-3093,29675,1261,654,720,329,595,400,343,3737,34,41,899,1884,1946,2206,2419,2034,1849,1881,1990
909329,-6216,29648,-3028,29740,1169,960,741,271,620,355,632,3830,34,41,901,1884,1946,2206,2419,2034,1849,1881,1990
910330,-6164,29696,-2963,29805,1286,1131,746,221,641,201,618,3598,53,38,900,1884,1946,2206,2419,2034,1849,1881,1990
911331,-6104,29776,-2898,29870,1193,712,745,200,647,250,867,3971,46,43,898,1887,1945,2210,2424,2066,1870,1900,2116
912332,-6048,29828,-2833,29935,1255,1078,747,194,627,525,1082,3771,36,45,895,1887,1945,2210,2424,2066,1870,1900,2116
913333,-5988,29888,-2768,30000,1213,984,755,190,609,575,1098,3990,35,39,900,1887,1945,2210,2424,2066,1870,1900,2116
914334,-5900,29960,-2703,30065,836,826,762,165,586,401,1105,3952,49,50,895,1887,1945,2210,2424,2066,1870,1900,2116
915335,-5836,30044,-2638,30130,1138,652,769,134,570,469,1012,4003,36,51,897,1887,1945,2210,2424,2066,1870,1900,2116
916336,-5780,30116,-2573,30195,1250,794,785,146,558,503,1084,4207,46,37,903,1887,1945,2210,2424,2066,1870,1900,2116
917337,-5724,30188,-2508,30260,1262,785,796,173,542,439,1014,4100,33,43,901,1862,1919,2166,2369,2074,1867,1900,2011
918338,-5672,30244,-2443,30325,1330,996,813,219,552,588,876,4369,35,36,899,1862,1919,2166,2369,2074,1867,1900,2011
919339,-5604,30320,-2378,30390,1127,733,828,244,571,654,935,4121,50,38,898,1862,1919,2166,2369,2074,1867,1900,2011
920340,-5524,30384,-2313,30455,960,884,854,242,591,271,723,4139,50,50,895,1862,1919,2166,2369,2074,1867,1900,2011
921341,-5472,30428,-2248,30520,1327,1160,862,226,620,196,617,4057,49,39,899,1862,1919,2166,2369,2074,1867,1900,2011
922342,-5416,30492,-2183,30585,1290,911,879,229,655,247,582,4128,48,51,900,1825,1896,2152,2341,2072,1980,2041,2011
923343,-5364,30564,-2118,30650,1357,802,883,227,705,57,535,3967,47,40,894,1825,1896,2152,2341,2072,1980,2041,2011
924344,-5280,30628,-2053,30715,935,904,887,243,743,199,555,4060,37,48,897,1825,1896,2152,2341,2072,1980,2041,2011
925345,-5232,30692,-1988,30780,1406,905,886,239,784,244,682,3732,50,42,897,1825,1896,2152,2341,2072,1980,2041,2011
926346,-5172,30752,-1923,30845,1264,961,875,216,820,22,645,3813,34,44,901,1825,1896,2152,2341,2072,1980,2041,2011
927347,-5112,30832,-1858,30910,1272,693,863,200,853,113,694,3778,34,41,895,1825,1896,2152,2341,2072,1980,2041,2011
928348,-5052,30896,-1793,30975,1279,895,842,188,875,362,868,3666,47,53,897,1832,1909,2179,2377,2072,1878,1895,2005
929349,-5004,30976,-1728,31040,1451,677,820,166,878,184,819,3660,51,38,899,1832,1909,2179,2377,2072,1878,1895,2005
930350,-4940,31036,-1663,31105,1253,933,792,138,873,302,919,3710,43,55,897,1832,1909,2179,2377,2072,1878,1895,2005
931351,-4864,31112,-1598,31170,1091,719,766,126,852,490,1007,3786,54,50,897,1832,1909,2179,2377,2072,1878,1895,2005
932352,-4808,31180,-1533,31235,1353,816,745,110,830,521,870,3607,49,39,897,1832,1909,2179,2377,2072,1878,1895,2005
933353,-4760,31248,-1468,31300,1475,812,718,105,809,519,980,3864,45,52,901,1850,1912,2182,2469,2174,1883,1900,2012
934354,-4708,31320,-1403,31365,1442,753,700,123,781,441,1003,3770,46,54,897,1850,1912,2182,2469,2174,1883,1900,2012
935355,-4656,31392,-1338,31430,1460,745,686,144,752,635,1041,3985,45,45,895,1850,1912,2182,2469,2174,1883,1900,2012
936356,-4592,31448,-1273,31495,1312,956,679,167,735,689,1091,3851,40,50,896,1850,1912,2182,2469,2174,1883,1900,2012
937357,-4504,31516,-1208,31560,985,802,672,194,710,572,1238,4101,39,41,896,1850,1912,2182,2469,2174,1883,1900,2012
938358,-4452,31588,-1143,31625,1452,744,665,204,702,340,1072,3871,54,38,895,1850,1912,2182,2469,2174,1883,1900,2012
939359,-4388,31648,-1078,31690,1305,900,659,200,683,336,1126,3836,37,48,900,1819,1881,2143,2334,2092,1892,1908,2024
940360,-4340,31716,-1013,31755,1527,796,655,232,687,146,998,4053,47,46,897,1819,1881,2143,2334,2092,1892,1908,2024
941361,-4268,31788,-948,31820,1219,738,647,256,690,271,1045,3895,54,50,897,1819,1881,2143,2334,2092,1892,1908,2024
942362,-4212,31840,-883,31885,1431,1003,645,283,692,113,1016,3898,37,40,895,1819,1881,2143,2334,2092,1892,1908,2024
943363,-4128,31876,-818,31950,1060,1239,634,278,699,45,1057,3830,34,46,899,1819,1881,2143,2334,2092,1892,1908,2024
944364,-4068,31964,-753,32015,1367,561,630,275,714,4,1045,3862,39,38,895,1790,1971,2241,2324,2099,1899,1911,2027
945365,-4024,32044,-688,32080,1594,642,614,274,712,16,969,3848,50,51,896,1790,1971,2241,2324,2099,1899,1911,2027
946366,-3968,32120,-623,32145,1457,679,602,281,701,187,921,3878,32,43,899,1790,1971,2241,2324,2099,1899,1911,2027
947367,-3904,32180,-558,32210,1359,885,586,274,712,123,964,3736,44,51,895,1790,1971,2241,2324,2099,1899,1911,2027
948368,-3840,32240,-493,32275,1361,891,567,268,706,22,1236,3837,47,39,897,1790,1971,2241,2324,2099,1899,1911,2027
949369,-3784,32312,-428,32340,1473,733,552,294,700,20,1153,3967,41,39,896,1790,1971,2241,2324,2099,1899,1911,2027
950370,-3712,32376,-363,32405,1267,834,527,346,684,363,1040,3900,49,42,896,1806,1885,2164,2361,2096,1899,1907,2020
951371,-3652,32444,-298,32470,1424,780,500,379,666,581,1011,3869,33,45,895,1806,1885,2164,2361,2096,1899,1907,2020
952372,-3600,32516,-233,32535,1541,722,476,393,635,544,1090,3957,33,37,898,1806,1885,2164,2361,2096,1899,1907,2020
953373,-3576,32568,-168,32600,1942,988,448,393,614,262,1093,3830,27,43,895,1806,1885,2164,2361,2096,1899,1907,2020
954374,-3508,32612,-103,32665,1390,1113,414,424,577,458,1162,4094,45,48,895,1806,1885,2164,2361,2096,1899,1907,2020
955375,-3460,32680,96,32864,1825,973,389,478,541,636,1205,3895,42,49,886,1890,1905,2186,2387,2081,1892,1901,2009
956376,-3396,32760,161,32929,1628,805,359,522,495,692,1161,3832,29,58,891,1890,1905,2186,2387,2081,1892,1901,2009
957377,-3356,32824,226,32994,1960,1006,325,533,455,568,1116,3807,48,55,890,1890,1905,2186,2387,2081,1892,1901,2009
958378,-3280,32900,291,33059,1498,843,296,538,413,519,1122,3906,36,47,894,1890,1905,2186,2387,2081,1892,1901,2009
959379,-3208,32960,356,33124,1540,1049,270,544,384,325,1195,3919,55,52,888,1890,1905,2186,2387,2081,1892,1901,2009
960380,-3148,33032,421,33189,1698,890,249,551,369,206,1348,4074,57,46,895,1890,1905,2186,2387,2081,1892,1901,2009
961381,-3084,33112,486,33254,1650,772,236,590,360,83,1171,4088,48,52,892,1828,1890,2171,2367,2086,1898,1903,2015
962382,-3004,33188,551,33319,1434,808,236,654,362,312,1188,4254,49,60,892,1828,1890,2171,2367,2086,1898,1903,2015
963383,-2928,33252,616,33384,1472,960,246,699,369,463,1168,4447,46,50,893,1828,1890,2171,2367,2086,1898,1903,2015
964384,-2868,33332,681,33449,1679,741,253,710,380,-114,1235,4293,47,56,896,1828,1890,2171,2367,2086,1898,1903,2015
965385,-2752,33404,746,33514,919,833,249,763,379,-564,1321,4366,51,49,895,1828,1890,2171,2367,2086,1898,1903,2015
966386,-2672,33464,811,33579,1351,989,209,866,420,-34,449,4518,57,53,894,1795,1871,2151,2348,2106,1912,1918,2032
967387,-2604,33540,876,33644,1499,776,156,972,482,896,616,4381,57,54,901,1795,1871,2151,2348,2106,1912,1918,2032
968388,-2536,33612,941,33709,1497,818,117,992,544,1147,412,4597,41,57,895,1795,1871,2151,2348,2106,1912,1918,2032
969389,-2472,33680,1006,33774,1549,864,106,928,543,47,1061,4142,58,59,895,1795,1871,2151,2348,2106,1912,1918,2032
970390,-2388,33756,1071,33839,1277,751,100,902,475,-802,1610,4250,50,50,895,1795,1871,2151,2348,2106,1912,1918,2032
971391,-2308,33824,1136,33904,1311,847,70,893,399,33,1218,4001,50,46,894,1795,1871,2151,2348,2106,1912,1918,2032
972392,-2236,33904,1201,33969,1403,679,35,875,360,733,1143,3663,49,45,897,1813,1884,2173,2379,2143,1945,2079,2190
973393,-2172,33972,1266,34034,1505,825,6,845,322,331,1354,3704,37,59,896,1813,1884,2173,2379,2143,1945,2079,2190
974394,-2096,34044,1331,34099,1343,767,-22,835,261,-155,1390,3753,47,57,898,1813,1884,2173,2379,2143,1945,2079,2190
975395,-2048,34100,1396,34164,1716,978,-65,850,188,159,1428,4187,57,44,895,1813,1884,2173,2379,2143,1945,2079,2190
976398,-1972,34180,1461,34229,1353,659,-88,895,117,771,1256,3767,51,58,897,1813,1884,2173,2379,2143,1945,2079,2190
977397,-1892,34248,1526,34294,1286,806,-94,944,57,810,1249,3941,44,54,891,1841,1907,2190,2381,2147,1935,1940,2066
978398,-1812,34328,1591,34359,1270,637,-97,988,21,787,1181,3948,46,51,898,1841,1907,2190,2381,2147,1935,1940,2066
979399,-1748,34380,1656,34424,1472,1003,-82,1040,13,774,1159,4090,50,43,897,1841,1907,2190,2381,2147,1935,1940,2066
980400,-1684,34452,1721,34489,1474,745,-90,1081,25,372,1144,4108,37,44,900,1841,1907,2190,2381,2147,1935,1940,2066
981401,-1616,34520,1786,34554,1422,791,-89,1115,39,213,1048,4096,53,56,895,1841,1907,2190,2381,2147,1935,1940,2066
982402,-1544,34592,1851,34619,1365,732,-92,1126,46,295,925,4248,45,49,896,1841,1907,2190,2381,2147,1935,1940,2066
983403,-1472,34656,1916,34684,1357,834,-89,1065,90,181,1301,3938,45,44,896,1814,1893,2165,2340,2174,2007,1889,1999
984404,-1400,34728,1981,34749,1350,725,-83,1004,125,-211,1187,3965,49,54,897,1814,1893,2165,2340,2174,2007,1889,1999
985405,-1324,34800,2046,34814,1288,717,-84,928,161,-379,1004,3895,40,47,897,1814,1893,2165,2340,2174,2007,1889,1999
986406,-1260,34872,2111,34879,1440,708,-94,887,176,-20,1261,3887,55,58,898,1814,1893,2165,2340,2174,2007,1889,1999
987407,-1196,34940,2176,34944,1443,754,-101,827,177,-20,1286,3633,49,46,899,1814,1893,2165,2340,2174,2007,1889,1999
988408,-1116,35028,2241,35009,1226,476,-126,757,173,169,1484,3785,53,47,897,1807,1890,2158,2353,2023,1836,1860,1967
989409,-1060,35096,2306,35074,1538,723,-154,689,136,243,1663,3455,45,47,895,1807,1890,2158,2353,2023,1836,1860,1967
990410,-992,35152,2371,35139,1386,884,-180,637,95,85,1786,3574,50,57,899,1807,1890,2158,2353,2023,1836,1860,1967
991411,-908,35240,2436,35204,1164,456,-213,630,44,54,1791,3673,48,46,895,1807,1890,2158,2353,2023,1836,1860,1967
992412,-836,35292,2501,35269,1307,921,-223,659,-22,754,1590,3531,38,44,896,1807,1890,2158,2353,2023,1836,1860,1967
993413,-768,35368,2566,35334,1354,608,-222,671,-81,810,1757,3410,55,40,902,1807,1890,2158,2353,2023,1836,1860,1967
994414,-708,35428,2631,35399,1461,814,-210,682,-146,620,1525,3278,39,51,897,1847,1915,2279,2476,2040,1846,1876,1996
995415,-636,35496,2696,35464,1305,710,-199,705,-202,718,1367,3491,39,58,899,1847,1915,2279,2476,2040,1846,1876,1996
996416,-556,35572,2761,35529,1188,597,-190,718,-272,850,1330,3192,58,55,895,1847,1915,2279,2476,2040,1846,1876,1996
997417,-488,35648,2826,35594,1335,584,-169,708,-321,696,1412,3295,49,44,899,1847,1915,2279,2476,2040,1846,1876,1996
998418,-432,35724,2891,35659,1497,570,-162,690,-367,101,1359,3390,47,43,901,1847,1915,2279,2476,2040,1846,1876,1996
999419,-336,35792,2956,35724,961,666,-139,648,-383,113,1150,3528,55,56,899,1843,1910,2174,2357,2053,1856,1875,1993
1000420,-276,35840,3021,35789,1418,937,-121,634,-384,281,1363,3750,60,47,898,1843,1910,2174,2357,2053,1856,1875,1993
1001421,-192,35904,3086,35854,1096,738,-108,602,-360,-104,1097,3627,41,55,903,1843,1910,2174,2357,2053,1856,1875,1993
1002422,-120,35972,3151,35919,1238,685,-78,566,-349,-492,1329,3886,42,50,895,1843,1910,2174,2357,2053,1856,1875,1993
1003423,-48,36044,3216,35984,1232,626,-67,533,-330,-349,1305,3350,42,53,901,1843,1910,2174,2357,2053,1856,1875,1993
1004424,28,36088,3281,36049,1169,1002,-81,525,-290,6,1254,3430,43,38,899,1843,1910,2174,2357,2053,1856,1875,1993
1005425,88,36148,3346,36114,1377,808,-92,514,-245,-53,1324,3279,53,44,900,1860,1984,2148,2339,2032,1846,1863,1968
1006426,176,36212,3411,36179,999,759,-118,496,-239,-367,1599,3398,56,51,896,1860,1984,2148,2339,2032,1846,1863,1968
1007427,248,36264,3476,36244,1193,925,-133,486,-244,-13,1381,3344,49,52,895,1860,1984,2148,2339,2032,1846,1863,1968
1008428,324,36332,3541,36309,1131,720,-140,486,-253,174,1560,3653,50,40,902,1860,1984,2148,2339,2032,1846,1863,1968
1009429,392,36400,3606,36374,1228,717,-164,510,-283,262,1515,3418,47,44,898,1860,1984,2148,2339,2032,1846,1863,1968
1010430,464,36464,3671,36439,1170,768,-191,533,-311,212,1535,3583,37,44,901,1808,1876,2144,2342,2040,1856,1871,1979
1011431,540,36536,3736,36504,1108,659,-216,579,-370,357,1700,3600,44,48,899,1808,1876,2144,2342,2040,1856,1871,1979
1012432,600,36624,3801,36569,1316,431,-213,614,-419,512,1329,3239,55,60,899,1808,1876,2144,2342,2040,1856,1871,1979
1013433,672,36684,3866,36634,1158,787,-208,648,-470,521,1229,3623,45,47,901,1808,1876,2144,2342,2040,1856,1871,1979
