%  Data file recorded 2016/8/28  18:6:54
%  Stride Frequency         = [1, 1]
%  Lead In /Lead Out        = 
%  Deltas (Fractional)      = [0.25, 0.25, 0.25],[0.25, 0.25, 0.25]
%  Phase                    = 32768
%  Experiment.py 
%  Motor Gains    = [5000, 400, 200, 0, 300, 5000, 400, 200, 0, 300]
% Columns: 
% time | Right Leg Pos | Left Leg Pos | Commanded Right Leg Pos | Commanded Left Leg Pos | DCR | DCL | GyroX | GyroY | GyroZ | AX | AY | AZ | RBEMF | LBEMF | VBatt | S1 | S2 | S3 | S4 | S5 | S6 | S7 | S8
332,19436,-13616,19332,-13436,-3800,3800,-24,-8,2,-13,113,3952,14,4,860,1774,1978,2162,2242,2043,1813,1869,1994
1333,19436,-13624,19332,-13436,-3800,3800,-25,-7,0,-20,112,3942,10,-3,860,1774,1978,2162,2242,2043,1813,1869,1994
2334,19432,-13612,19332,-13436,-3800,3800,-25,-4,0,-12,114,3917,5,10,860,1774,1978,2162,2242,2043,1813,1869,1994
3335,19428,-13612,19332,-13436,-3800,3800,-21,-4,-1,-5,134,3982,-2,-4,860,1774,1978,2162,2242,2043,1813,1869,1994
4336,19440,-13612,19332,-13436,-3800,3800,-21,-6,1,22,144,3960,-5,6,860,1774,1978,2162,2242,2043,1813,1869,1994
5337,19436,-13624,19332,-13436,-3800,3800,-22,-6,0,12,149,3898,-4,11,860,1736,1850,2075,2241,2041,1811,1867,1993
6338,19440,-13616,19332,-13436,-3800,3800,-23,-5,1,-15,146,3917,7,-1,860,1736,1850,2075,2241,2041,1811,1867,1993
7339,19428,-13612,19332,-13436,-3800,3800,-27,-7,-2,-12,131,3936,14,-3,860,1736,1850,2075,2241,2041,1811,1867,1993
8340,19428,-13620,19332,-13436,-3800,3800,-28,-8,-4,23,111,3916,13,7,860,1736,1850,2075,2241,2041,1811,1867,1993
9341,19440,-13612,19332,-13436,-3800,3800,-28,-6,-3,15,122,3908,14,4,860,1736,1850,2075,2241,2041,1811,1867,1993
10347,19424,-13608,19332,-13436,-3800,3800,-25,-6,-1,7,118,3938,14,-4,860,1736,1850,2075,2241,2041,1811,1867,1993
11343,19432,-13624,19332,-13436,-3800,3800,-25,-5,-2,14,93,3943,13,1,860,1803,1851,2075,2242,2041,1813,1868,1993
12344,19448,-13612,19332,-13436,-3800,3800,-24,-5,-2,17,82,3955,13,10,860,1803,1851,2075,2242,2041,1813,1868,1993
13345,19424,-13628,19332,-13436,-3800,3800,-25,-4,-2,18,79,3957,13,2,860,1803,1851,2075,2242,2041,1813,1868,1993
14346,19428,-13608,19332,-13436,-3800,3800,-27,-8,-4,14,89,3956,12,-4,860,1803,1851,2075,2242,2041,1813,1868,1993
15347,19444,-13620,19332,-13436,-3800,3800,-27,-7,-7,11,93,3955,6,10,860,1803,1851,2075,2242,2041,1813,1868,1993
16348,19416,-13620,19332,-13436,-3800,3800,-27,-5,-5,-13,108,3947,4,6,860,1737,1851,2075,2243,2041,1813,1869,1994
17349,19436,-13616,19332,-13436,-3800,3800,-27,-3,-6,-20,91,3921,3,-3,860,1737,1851,2075,2243,2041,1813,1869,1994
18350,19432,-13620,19332,-13436,-3800,3800,-26,-5,-7,3,108,3962,-4,5,860,1737,1851,2075,2243,2041,1813,1869,1994
19351,19436,-13620,19332,-13436,-3800,3800,-28,-7,-7,16,126,3965,-6,10,859,1737,1851,2075,2243,2041,1813,1869,1994
20352,19444,-13620,19332,-13436,-3800,3800,-26,-7,-7,20,100,3975,1,8,859,1737,1851,2075,2243,2041,1813,1869,1994
21353,19436,-13616,19332,-13436,-3800,3800,-27,-6,-7,4,117,3968,1,-1,860,1738,1854,2078,2246,2044,1813,1869,1994
22354,19432,-13612,19332,-13436,-3800,3800,-24,-5,-8,-9,94,3983,-2,11,860,1738,1854,2078,2246,2044,1814,1870,1996
23355,19432,-13612,19332,-13436,-3800,3800,-24,-6,-8,-13,106,3963,2,-2,860,1738,1854,2078,2246,2044,1814,1870,1996
24356,19436,-13608,19332,-13436,-3800,3800,-25,-6,-9,13,114,3957,-5,10,860,1738,1854,2078,2246,2044,1814,1870,1996
25357,19428,-13616,19332,-13436,-3800,3800,-28,-6,-7,31,126,3951,-5,4,860,1738,1854,2078,2246,2044,1814,1870,1996
26358,19440,-13624,19332,-13436,-3800,3800,-28,-8,-6,33,112,3938,-5,-3,860,1738,1854,2078,2246,2044,1814,1870,1996
27359,19436,-13620,19332,-13436,-3800,3800,-26,-8,-6,8,83,3967,-3,10,860,1739,1853,2077,2244,2042,1813,2054,2115
28360,19424,-13616,19332,-13436,-3800,3800,-23,-7,-7,22,101,3952,1,-2,860,1739,1853,2077,2244,2042,1813,2054,2115
29361,19432,-13608,19332,-13436,-3800,3800,-19,-7,-7,20,86,3932,-4,3,860,1739,1853,2077,2244,2042,1813,2054,2115
30362,19428,-13616,19332,-13436,-3800,3800,-21,-7,-5,28,97,3912,-4,6,860,1739,1853,2077,2244,2042,1813,2054,2115
31363,19432,-13616,19332,-13436,-3800,3800,-23,-8,-4,1,117,3913,-3,-3,860,1739,1853,2077,2244,2042,1813,2054,2115
32364,19432,-13624,19332,-13436,-3800,3800,-25,-7,-4,31,111,3915,-5,1,860,1739,1852,2076,2245,2043,1813,1870,1995
33365,19436,-13620,19332,-13436,-3800,3800,-21,-5,-4,65,96,3919,-1,6,860,1739,1852,2076,2245,2043,1813,1870,1995
34366,19436,-13620,19332,-13436,-3800,3800,-20,-5,-3,55,104,3935,3,-4,860,1739,1852,2076,2245,2043,1813,1870,1995
35367,19436,-13624,19332,-13436,-3800,3800,-21,-7,-3,49,106,3916,8,7,860,1739,1852,2076,2245,2043,1813,1870,1995
36368,19436,-13608,19332,-13436,-3800,3800,-19,-9,-3,35,90,3931,12,4,859,1739,1852,2076,2245,2043,1813,1870,1995
37369,19444,-13612,19332,-13436,-3800,3800,-19,-7,-3,26,97,3941,12,-3,859,1739,1852,2076,2245,2043,1813,1870,1995
38371,19436,-13616,19332,-13436,-3800,3800,-20,-4,-3,11,83,3945,9,2,860,1739,1852,2076,2243,2144,1929,1868,1993
39371,19440,-13624,19332,-13436,-3800,3800,-20,-4,-2,15,103,3942,13,1,860,1739,1852,2076,2243,2144,1929,1868,1993
40372,19444,-13608,19332,-13436,-3800,3800,-19,-6,-2,21,105,3965,10,-1,860,1739,1852,2076,2243,2144,1929,1868,1993
41373,19440,-13620,19332,-13436,-3800,3800,-19,-8,0,9,106,3953,6,10,860,1739,1852,2076,2243,2144,1929,1868,1993
42374,19420,-13624,19332,-13436,-3800,3800,-19,-6,0,13,104,3948,0,-1,860,1739,1852,2076,2243,2144,1929,1868,1993
43375,19432,-13612,19332,-13436,-3800,3800,-17,-5,-1,32,112,3937,-5,0,860,1739,1852,2077,2244,2041,1813,1868,1993
44376,19436,-13620,19332,-13436,-3800,3800,-16,-8,1,31,107,3957,-5,11,860,1739,1852,2077,2244,2041,1813,1868,1993
45377,19440,-13620,19332,-13436,-3800,3800,-16,-8,0,36,127,3943,1,-3,860,1739,1852,2077,2244,2041,1813,1868,1993
46378,19436,-13612,19332,-13436,-3800,3800,-18,-6,0,36,107,3928,4,3,860,1739,1852,2077,2244,2041,1813,1868,1993
47379,19440,-13604,19332,-13436,-3800,3800,-20,-4,3,27,90,3926,7,9,860,1739,1852,2077,2244,2041,1813,1868,1993
48380,19432,-13620,19332,-13436,-3800,3800,-18,-3,2,26,108,3911,14,2,860,1739,1852,2077,2244,2041,1813,1868,1993
49381,19428,-13612,19332,-13436,-3800,3800,-16,-7,1,6,128,3930,11,9,860,1740,1853,2188,2334,2044,1816,1872,1996
50382,19432,-13628,19332,-13436,-3800,3800,-15,-7,2,19,140,3942,12,-4,860,1740,1853,2188,2334,2044,1816,1872,1996
51383,19432,-13620,19332,-13436,-3800,3800,-15,-5,4,14,137,3957,7,11,860,1740,1853,2188,2334,2044,1816,1872,1996
52384,19420,-13616,19332,-13436,-3800,3800,-17,-6,3,9,108,3942,5,-2,859,1740,1853,2188,2334,2044,1816,1872,1996
53385,19436,-13620,19332,-13436,-3800,3800,-18,-6,3,12,116,3924,6,-4,858,1740,1853,2188,2334,2044,1816,1872,1996
54386,19432,-13628,19332,-13436,-3800,3800,-18,-5,1,21,122,3925,14,9,860,1738,1852,2076,2242,2041,1812,1868,1992
55387,19432,-13620,19332,-13436,-3800,3800,-15,-6,3,22,123,3957,14,5,860,1738,1852,2076,2242,2041,1812,1868,1992
56388,19440,-13628,19332,-13436,-3800,3800,-16,-6,3,14,112,3937,10,-4,860,1738,1852,2076,2242,2041,1812,1868,1992
57389,19432,-13620,19332,-13436,-3800,3800,-15,-6,6,18,123,3928,12,11,860,1738,1852,2076,2242,2041,1812,1868,1992
58391,19436,-13628,19332,-13436,-3800,3800,-15,-4,5,8,122,3959,13,-3,860,1738,1852,2076,2242,2041,1812,1868,1992
59391,19436,-13624,19332,-13436,-3800,3800,-16,-4,4,0,127,3942,14,6,860,1738,1852,2076,2242,2041,1812,1868,1992
60392,19432,-13628,19332,-13436,-3800,3800,-18,-6,4,-8,139,3933,11,-2,860,1817,1960,2073,2239,2039,1811,1866,1991
61393,19432,-13628,19332,-13436,-3800,3800,-18,-4,4,-16,115,3931,4,3,860,1817,1960,2073,2239,2039,1811,1866,1991
62394,19436,-13616,19332,-13436,-3800,3800,-17,-4,3,-16,90,3971,3,9,860,1817,1960,2073,2239,2039,1811,1866,1991
63395,19432,-13616,19332,-13436,-3800,3800,-19,-6,2,-8,111,3962,-5,-3,860,1817,1960,2073,2239,2039,1811,1866,1991
64396,19428,-13608,19332,-13436,-3800,3800,-21,-7,3,-6,120,3967,-1,9,860,1817,1960,2073,2239,2039,1811,1866,1991
65397,19440,-13620,19332,-13436,-3800,3800,-21,-7,3,24,124,3936,-2,2,860,1737,1851,2075,2241,2042,1814,1869,1995
66398,19444,-13616,19332,-13436,-3800,3800,-19,-4,4,-9,130,3928,3,6,860,1737,1851,2075,2241,2042,1814,1869,1995
67399,19436,-13616,19332,-13436,-3800,3800,-20,-5,1,-27,140,3935,10,6,860,1737,1851,2075,2241,2042,1814,1869,1995
68400,19436,-13628,19332,-13436,-3800,3800,-22,-6,1,-5,129,3924,12,-4,860,1737,1851,2075,2241,2042,1814,1869,1995
69401,19432,-13624,19332,-13436,-3800,3800,-21,-6,1,10,103,3952,13,10,859,1737,1851,2075,2241,2042,1814,1869,1995
70402,19428,-13620,19332,-13436,-3800,3800,-20,-6,1,1,114,3902,8,9,859,1737,1851,2075,2241,2042,1814,1869,1995
71403,19440,-13620,19332,-13436,-3800,3800,-20,-8,0,16,115,3937,13,7,860,1737,1851,2074,2243,2041,1813,1869,1994
72404,19436,-13604,19332,-13436,-3800,3800,-20,-6,-2,6,122,3928,13,-2,860,1737,1851,2074,2243,2041,1813,1869,1994
73405,19436,-13616,19332,-13436,-3800,3800,-22,-5,0,1,118,3899,13,7,860,1737,1851,2074,2243,2041,1813,1869,1994
74406,19436,-13616,19332,-13436,-3800,3800,-22,-5,-3,27,130,3915,13,10,860,1737,1851,2074,2243,2041,1813,1869,1994
75407,19436,-13624,19332,-13436,-3800,3800,-23,-5,-4,8,118,3917,4,-4,860,1737,1851,2074,2243,2041,1813,1869,1994
76408,19436,-13632,19332,-13436,-3800,3800,-26,-5,-5,4,107,3934,-4,4,860,1738,1853,2076,2244,2044,1814,1868,2122
77409,19432,-13620,19332,-13436,-3800,3800,-25,-5,-4,-26,125,3947,-5,10,860,1738,1853,2076,2244,2044,1814,1868,2122
78410,19432,-13624,19332,-13436,-3800,3800,-25,-6,-3,8,122,3935,1,-3,860,1738,1853,2076,2244,2044,1814,1868,2122
79411,19432,-13624,19332,-13436,-3800,3800,-27,-6,-5,13,105,3935,11,9,860,1738,1853,2076,2244,2044,1814,1868,2122
80412,19436,-13616,19332,-13436,-3800,3800,-27,-6,-7,17,121,3972,14,9,860,1738,1853,2076,2244,2044,1814,1868,2122
81413,19424,-13612,19332,-13436,-3800,3800,-27,-6,-7,25,107,3965,10,-4,860,1738,1853,2076,2244,2044,1814,1868,2122
82414,19432,-13620,19332,-13436,-3800,3800,-27,-6,-5,5,113,3939,-2,5,860,1738,1850,2074,2242,2041,1813,1869,1994
83415,19428,-13628,19332,-13436,-3800,3800,-26,-4,-7,11,128,3941,-5,7,860,1738,1850,2074,2242,2041,1813,1869,1994
84416,19440,-13608,19332,-13436,-3800,3800,-25,-6,-9,7,127,3916,3,0,860,1738,1850,2074,2242,2041,1813,1869,1994
85417,19436,-13612,19332,-13436,-3800,3800,-26,-7,-6,0,92,3924,13,11,860,1738,1850,2074,2242,2041,1813,1869,1994
86418,19428,-13620,19332,-13436,-3800,3800,-23,-4,-4,11,111,3927,7,1,859,1738,1850,2074,2242,2041,1813,1869,1994
87419,19428,-13620,19332,-13436,-3800,3800,-25,-3,-4,4,103,3957,-5,-1,858,1735,1849,2073,2239,2039,1949,2027,1994
88420,19432,-13616,19332,-13436,-3800,3800,-28,-5,-2,5,106,3943,-2,5,860,1735,1849,2073,2239,2039,1949,2027,1994
89421,19432,-13620,19332,-13436,-3800,3800,-27,-8,-5,22,100,3954,-3,9,860,1735,1849,2073,2239,2039,1949,2027,1994
90422,19428,-13624,19332,-13436,-3800,3800,-25,-7,-10,-2,122,3919,5,-4,860,1735,1849,2073,2239,2039,1949,2027,1994
91423,19432,-13608,19332,-13436,-3800,3800,-26,-6,-8,-2,99,3945,11,10,860,1735,1849,2073,2239,2039,1949,2027,1994
92424,19424,-13616,19332,-13436,-3800,3800,-28,-7,-6,-3,84,3960,10,5,860,1735,1849,2073,2239,2039,1949,2027,1994
93425,19424,-13616,19332,-13436,-3800,3800,-29,-5,-6,21,99,3947,12,-2,860,1739,1853,2076,2243,2041,1813,1869,1994
94426,19440,-13616,19332,-13436,-3800,3800,-26,-4,-6,12,125,3957,0,9,860,1739,1853,2076,2243,2041,1813,1869,1994
95427,19440,-13620,19332,-13436,-3800,3800,-23,-5,-6,7,113,3930,-5,4,860,1739,1853,2076,2243,2041,1813,1869,1994
96428,19428,-13616,19332,-13436,-3800,3800,-25,-4,-6,20,101,3944,1,2,860,1739,1853,2076,2243,2041,1813,1869,1994
97429,19440,-13620,19332,-13436,-3800,3800,-27,-5,-4,30,101,3916,14,7,860,1739,1853,2076,2243,2041,1813,1869,1994
98430,19452,-13628,19332,-13436,-3800,3800,-27,-5,-3,38,83,3945,8,-4,860,1739,1851,2075,2355,2126,1813,1869,1995
99431,19444,-13612,19332,-13436,-3800,3800,-25,-4,-4,20,96,3962,-5,11,860,1739,1851,2075,2355,2126,1813,1869,1995
100432,19436,-13612,19332,-13436,-3800,3800,-26,-5,-5,49,102,3941,0,1,860,1739,1851,2075,2355,2126,1813,1869,1995
101433,19432,-13612,19332,-13436,-3800,3800,-26,-6,-4,48,97,3936,2,-3,860,1739,1851,2075,2355,2126,1813,1869,1995
102434,19428,-13624,19332,-13436,-3800,3800,-25,-5,-4,40,116,3917,9,11,860,1739,1851,2075,2355,2126,1813,1869,1995
103435,19432,-13620,19332,-13436,-3800,3800,-24,-5,-2,17,113,3920,14,3,859,1739,1851,2075,2355,2126,1813,1869,1995
104436,19428,-13608,19332,-13436,-3800,3800,-21,-8,-2,33,88,3916,7,-3,858,1740,1854,2076,2244,2042,1813,1868,1993
105437,19432,-13632,19332,-13436,-3800,3800,-22,-7,1,23,90,3912,-3,5,860,1740,1854,2076,2244,2042,1813,1868,1993
106438,19444,-13624,19332,-13436,-3800,3800,-21,-4,0,19,101,3918,-5,9,860,1740,1854,2076,2244,2042,1813,1868,1993
107439,19440,-13628,19332,-13436,-3800,3800,-19,-4,0,32,104,3909,0,-3,860,1740,1854,2076,2244,2042,1813,1868,1993
108440,19428,-13624,19332,-13436,-3800,3800,-19,-7,0,10,110,3915,10,7,860,1740,1854,2076,2244,2042,1813,1868,1993
109441,19444,-13624,19332,-13436,-3800,3800,-20,-7,2,13,88,3923,10,10,859,1739,1981,2166,2243,2040,1811,1867,1992
110442,19432,-13624,19332,-13436,-3800,3800,-22,-6,0,0,82,3928,1,2,860,1739,1981,2166,2243,2040,1811,1867,1992
111443,19440,-13624,19332,-13436,-3800,3800,-23,-10,1,18,98,3917,-5,0,859,1739,1981,2166,2243,2040,1811,1867,1992
112444,19436,-13620,19332,-13436,-3800,3800,-22,-9,1,16,94,3910,2,9,860,1739,1981,2166,2243,2040,1811,1867,1992
113445,19432,-13616,19332,-13436,-3800,3800,-19,-7,3,31,105,3933,8,10,860,1739,1981,2166,2243,2040,1811,1867,1992
114446,19424,-13628,19332,-13436,-3800,3800,-16,-7,2,6,97,3924,13,-4,860,1739,1981,2166,2243,2040,1811,1867,1992
115447,19440,-13624,19332,-13436,-3800,3800,-16,-8,1,30,84,3913,-4,-1,859,1735,1849,2073,2242,2039,1811,1867,1996
116448,19436,-13632,19332,-13436,-3800,3800,-16,-9,0,-6,81,3891,-5,8,860,1735,1849,2073,2242,2039,1811,1867,1996
117449,19432,-13624,19332,-13436,-3800,3800,-17,-8,1,-6,125,3948,-2,4,860,1735,1849,2073,2242,2039,1811,1867,1996
118450,19424,-13612,19332,-13436,-3800,3800,-15,-7,0,28,135,3966,8,-3,860,1735,1849,2073,2242,2039,1811,1867,1996
119451,19436,-13624,19332,-13436,-3800,3800,-15,-7,2,23,103,3969,14,-1,860,1735,1849,2073,2242,2039,1811,1867,1996
120452,19436,-13608,19332,-13436,-3800,3800,-16,-8,2,31,109,3959,6,10,859,1807,1851,2076,2243,2041,1812,1867,1993
121453,19432,-13620,19332,-13436,-3800,3800,-15,-10,2,9,114,3960,-4,6,859,1807,1851,2076,2243,2041,1812,1867,1993
122454,19440,-13620,19332,-13436,-3800,3800,-16,-8,2,20,112,3962,10,2,859,1807,1851,2076,2243,2041,1812,1867,1993
123455,19436,-13624,19332,-13436,-3800,3800,-16,-6,0,12,113,3931,9,0,859,1807,1851,2076,2243,2041,1812,1867,1993
124456,19444,-13620,19332,-13436,-3800,3800,-15,-8,1,17,117,3910,-4,10,860,1807,1851,2076,2243,2041,1812,1867,1993
125457,19448,-13608,19332,-13436,-3800,3800,-17,-7,3,24,112,3938,-5,7,859,1807,1851,2076,2243,2041,1812,1867,1993
126458,19440,-13620,19332,-13436,-3800,3800,-16,-6,4,11,109,3955,2,-4,860,1739,1851,2076,2243,2042,1813,1868,1993
127459,19436,-13624,19332,-13436,-3800,3800,-15,-7,4,15,123,3948,13,1,859,1739,1851,2076,2243,2042,1813,1868,1993
128460,19440,-13612,19332,-13436,-3800,3800,-14,-8,3,0,132,3928,13,10,859,1739,1851,2076,2243,2042,1813,1868,1993
129461,19436,-13612,19332,-13436,-3800,3800,-16,-6,2,5,131,3922,6,3,859,1739,1851,2076,2243,2042,1813,1868,1993
130462,19436,-13624,19332,-13436,-3800,3800,-21,-7,-1,23,119,3944,-3,-3,859,1739,1851,2076,2243,2042,1813,1868,1993
131463,19432,-13612,19332,-13436,-3800,3800,-21,-7,1,-1,117,3985,-3,-2,859,1740,1850,2076,2244,2042,1814,1869,1996
132464,19452,-13616,19332,-13436,-3800,3800,-18,-6,2,-5,121,3948,8,10,860,1740,1850,2076,2244,2042,1814,1869,1996
133465,19444,-13624,19332,-13436,-3800,3800,-16,-7,0,2,125,3927,14,2,859,1740,1850,2076,2244,2042,1814,1869,1996
134466,19444,-13620,19332,-13436,-3800,3800,-19,-9,-1,24,132,3940,13,-3,860,1740,1850,2076,2244,2042,1814,1869,1996
135467,19444,-13616,19332,-13436,-3800,3800,-19,-7,-4,7,116,3912,6,8,860,1740,1850,2076,2244,2042,1814,1869,1996
136468,19444,-13624,19332,-13436,-3800,3800,-17,-5,-4,-1,112,3921,-4,7,859,1740,1850,2076,2244,2042,1814,1869,1996
137469,19436,-13616,19332,-13436,-3800,3800,-18,-6,-4,7,109,3938,-4,-2,859,1738,1850,2074,2242,2042,1813,2060,2102
138470,19440,-13632,19332,-13436,-3800,3800,-19,-7,-4,1,127,3948,2,-1,858,1738,1850,2074,2242,2042,1813,2060,2102
139471,19440,-13620,19332,-13436,-3800,3800,-19,-5,-3,-16,147,3937,2,2,860,1738,1850,2074,2242,2042,1813,2060,2102
140472,19440,-13612,19332,-13436,-3800,3800,-20,-4,-1,9,125,3918,2,11,860,1738,1850,2074,2242,2042,1813,2060,2102
141473,19432,-13608,19332,-13436,-3800,3800,-22,-6,-3,3,130,3966,9,2,860,1738,1850,2074,2242,2042,1813,2060,2102
142474,19440,-13604,19332,-13436,-3800,3800,-24,-6,-5,-1,111,3951,13,-4,860,1739,1852,2076,2242,2043,1813,1869,1995
143475,19440,-13616,19332,-13436,-3800,3800,-21,-6,-5,17,109,3966,14,0,860,1739,1852,2076,2242,2043,1813,1869,1995
144476,19432,-13620,19332,-13436,-3800,3800,-22,-4,-3,-4,116,3959,2,10,860,1739,1852,2076,2242,2043,1813,1869,1995
145477,19440,-13624,19332,-13436,-3800,3800,-22,-6,-4,7,109,3939,-5,3,860,1739,1852,2076,2242,2043,1813,1869,1995
146478,19432,-13608,19332,-13436,-3800,3800,-25,-8,-4,-11,108,3954,-3,-4,860,1739,1852,2076,2242,2043,1813,1869,1995
147479,19424,-13608,19332,-13436,-3800,3800,-25,-6,-4,17,122,3970,12,11,860,1739,1852,2076,2242,2043,1813,1869,1995
148480,19448,-13620,19332,-13436,-3800,3800,-24,-4,-2,-7,92,3929,3,7,860,1738,1850,2074,2241,2147,1927,1869,1995
149481,19432,-13612,19332,-13436,-3800,3800,-25,-5,-3,8,98,3947,-5,-3,860,1738,1850,2074,2241,2147,1927,1869,1995
150482,19436,-13616,19332,-13436,-3800,3800,-26,-6,-5,16,114,3962,-2,9,860,1738,1850,2074,2241,2147,1927,1869,1995
151483,19424,-13620,19332,-13436,-3800,3800,-27,-6,-4,6,114,3943,13,8,860,1738,1850,2074,2241,2147,1927,1869,1995
152484,19428,-13628,19332,-13436,-3800,3800,-27,-9,-5,26,102,3917,13,-2,860,1738,1850,2074,2241,2147,1927,1869,1995
153485,19452,-13624,19332,-13436,-3800,3800,-26,-11,-6,39,117,3932,-1,5,860,1738,1851,2074,2242,2041,1813,1868,1993
154486,19428,-13624,19332,-13436,-3800,3800,-27,-6,-3,15,108,3948,-5,10,859,1738,1851,2074,2242,2041,1813,1868,1993
155487,19432,-13624,19332,-13436,-3800,3800,-27,-4,-3,-7,94,3926,-2,2,858,1738,1851,2074,2242,2041,1813,1868,1993
156488,19420,-13640,19332,-13436,-3800,3800,-28,-7,-3,12,80,3943,-3,-4,860,1738,1851,2074,2242,2041,1813,1868,1993
157489,19428,-13604,19332,-13436,-3800,3800,-28,-9,-3,12,79,3922,1,3,860,1738,1851,2074,2242,2041,1813,1868,1993
158490,19432,-13612,19332,-13436,-3800,3800,-27,-7,-4,12,70,3916,6,10,860,1738,1851,2074,2242,2041,1813,1868,1993
159491,19444,-13624,19332,-13436,-3800,3800,-27,-6,-7,26,102,3972,14,-4,860,1740,1854,2188,2340,2044,1814,1870,1996
160492,19424,-13620,19332,-13436,-3800,3800,-27,-6,-7,2,97,3999,-2,2,860,1740,1854,2188,2340,2044,1814,1870,1996
161493,19440,-13616,19332,-13436,-3800,3800,-28,-6,-5,12,87,3973,-4,8,860,1740,1854,2188,2340,2044,1814,1870,1996
162494,19440,-13636,19332,-13436,-3800,3800,-28,-7,-2,9,90,3957,11,6,860,1740,1854,2188,2340,2044,1814,1870,1996
163495,19436,-13628,19332,-13436,-3800,3800,-27,-7,-3,14,95,3954,6,-1,860,1740,1854,2188,2340,2044,1814,1870,1996
164496,19440,-13620,19332,-13436,-3800,3800,-25,-8,-2,-1,80,3927,-5,-3,860,1739,1852,2076,2244,2040,1813,1869,1994
165497,19428,-13620,19332,-13436,-3800,3800,-24,-6,-2,24,117,3950,9,10,860,1739,1852,2076,2244,2040,1813,1869,1994
166498,19440,-13628,19332,-13436,-3800,3800,-23,-6,-2,8,103,3934,6,8,860,1739,1852,2076,2244,2040,1813,1869,1994
167499,19432,-13616,19332,-13436,-3800,3800,-24,-5,-2,1,101,3927,-4,1,860,1739,1852,2076,2244,2040,1813,1869,1994
168500,19436,-13620,19332,-13436,-3800,3800,-25,-6,-2,13,84,3917,-3,-3,860,1739,1852,2076,2244,2040,1813,1869,1994
169501,19436,-13620,19332,-13436,-3800,3800,-24,-5,-1,14,77,3943,10,8,860,1739,1852,2076,2244,2040,1813,1869,1994
170502,19424,-13616,19332,-13436,-3800,3800,-22,-5,-1,1,92,3967,14,11,860,1815,1966,2076,2244,2041,1812,1868,1993
171503,19440,-13616,19332,-13436,-3800,3800,-21,-4,-3,-1,111,3951,5,-1,861,1815,1966,2076,2244,2041,1812,1868,1993
172504,19432,-13620,19332,-13436,-3800,3800,-21,-6,-2,16,95,3949,-6,-4,859,1815,1966,2076,2244,2041,1812,1868,1993
173505,19444,-13616,19332,-13436,-3800,3800,-18,-8,-1,10,109,3985,-4,-1,860,1815,1966,2076,2244,2041,1812,1868,1993
174506,19440,-13620,19332,-13436,-3800,3800,-18,-9,-3,19,98,4012,-2,10,860,1815,1966,2076,2244,2041,1812,1868,1993
175507,19428,-13628,19332,-13436,-3800,3800,-20,-7,-1,17,100,4003,-5,0,860,1740,1852,2076,2244,2040,1812,1868,1993
176508,19448,-13624,19332,-13436,-3800,3800,-22,-6,1,-1,114,3956,-5,-3,860,1740,1852,2076,2244,2040,1812,1868,1993
177509,19420,-13624,19332,-13436,-3800,3800,-21,-6,-1,-2,110,3962,6,10,860,1740,1852,2076,2244,2040,1812,1868,1993
178510,19440,-13620,19332,-13436,-3800,3800,-20,-6,-2,26,99,3927,11,6,860,1740,1852,2076,2244,2040,1812,1868,1993
179511,19448,-13624,19332,-13436,-3800,3800,-18,-6,-1,-8,105,3952,5,-3,860,1740,1852,2076,2244,2040,1812,1868,1993
180512,19452,-13616,19332,-13436,-3800,3800,-17,-9,1,14,102,3943,-4,6,860,1740,1852,2076,2244,2040,1812,1868,1993
181513,19444,-13624,19332,-13436,-3800,3800,-16,-9,0,5,98,3926,-1,11,860,1740,1851,2076,2242,2039,1811,1867,1994
182514,19428,-13640,19332,-13436,-3800,3800,-16,-7,1,29,129,3943,9,9,860,1740,1851,2076,2242,2039,1811,1867,1994
183515,19452,-13616,19332,-13436,-3800,3800,-17,-7,1,27,112,3926,12,-3,860,1740,1851,2076,2242,2039,1811,1867,1994
184516,19440,-13624,19332,-13436,-3800,3800,-15,-6,0,30,95,3939,-5,-1,860,1740,1851,2076,2242,2039,1811,1867,1994
185519,19432,-13620,19332,-13436,-3800,3800,-15,-7,-2,16,105,3958,-3,9,860,1740,1851,2076,2242,2039,1811,1867,1994
186518,19440,-13616,19332,-13436,-3800,3800,-16,-8,0,7,114,3931,13,1,860,1741,1854,2077,2246,2043,1814,1869,2126
187519,19432,-13620,19332,-13436,-3800,3800,-17,-9,0,15,107,3914,8,-4,860,1741,1854,2077,2246,2043,1814,1869,2126
188520,19436,-13616,19332,-13436,-3800,3800,-18,-9,0,23,106,3923,0,7,859,1741,1854,2077,2246,2043,1814,1869,2126
189521,19428,-13616,19332,-13436,-3800,3800,-16,-9,1,19,98,3941,-4,7,859,1741,1854,2077,2246,2043,1814,1869,2126
190522,19440,-13624,19332,-13436,-3800,3800,-13,-7,1,21,120,3939,1,3,860,1741,1854,2077,2246,2043,1814,1869,2126
191523,19428,-13620,19332,-13436,-3800,3800,-14,-6,2,-15,121,3919,-1,-3,860,1741,1854,2077,2246,2043,1814,1869,2126
192524,19436,-13620,19332,-13436,-3800,3800,-16,-6,1,9,104,3964,11,11,860,1739,1852,2076,2243,2042,1813,1869,1994
193525,19428,-13612,19332,-13436,-3800,3800,-16,-8,-1,19,128,3979,14,0,860,1739,1852,2076,2243,2042,1813,1869,1994
194526,19444,-13608,19332,-13436,-3800,3800,-15,-6,0,-1,126,3954,13,-4,860,1739,1852,2076,2243,2042,1813,1869,1994
195527,19436,-13608,19332,-13436,-3800,3800,-14,-3,2,39,127,3932,0,10,860,1739,1852,2076,2243,2042,1813,1869,1994
196528,19440,-13620,19332,-13436,-3800,3800,-16,-5,0,25,127,3960,-5,7,860,1739,1852,2076,2243,2042,1813,1869,1994
197529,19436,-13616,19332,-13436,-3800,3800,-16,-8,1,14,120,3937,-5,-3,860,1739,1851,2075,2242,2042,1954,2025,1997
198530,19440,-13628,19332,-13436,-3800,3800,-16,-8,1,20,132,3918,10,3,860,1739,1851,2075,2242,2042,1954,2025,1997
199531,19440,-13616,19332,-13436,-3800,3800,-17,-5,0,32,110,3918,11,11,860,1739,1851,2075,2242,2042,1954,2025,1997
200532,19436,-13620,19332,-13436,-3800,3800,-18,-4,0,16,102,3961,5,8,860,1739,1851,2075,2242,2042,1954,2025,1997
201533,19432,-13620,19332,-13436,-3800,3800,-19,-6,0,31,108,3939,-5,-4,861,1739,1851,2075,2242,2042,1954,2025,1997
202534,19436,-13620,19397,-13371,327,728,-19,-7,-2,21,108,3921,4,3,861,1739,1851,2075,2242,2042,1954,2025,1997
203535,19420,-13616,19462,-13306,675,753,-20,-7,-3,33,92,3928,13,10,853,1739,1851,2074,2241,2042,1813,1869,1993
204536,19444,-13612,19527,-13241,225,827,-19,-8,1,25,87,3925,3,15,851,1739,1851,2074,2241,2042,1813,1869,1993
205537,19448,-13600,19592,-13176,550,792,-20,-12,0,2,125,3949,17,11,853,1739,1851,2074,2241,2042,1813,1869,1993
206538,19456,-13596,19657,-13111,570,967,-21,-16,1,-38,97,3909,5,20,850,1739,1851,2074,2241,2042,1813,1869,1993
207539,19476,-13568,19722,-13046,475,712,-23,-15,3,11,111,3954,6,11,850,1739,1851,2074,2241,2042,1813,1869,1993
208540,19492,-13556,19787,-12981,585,976,-22,-14,3,-89,97,3968,10,24,853,1740,1823,2055,2347,2127,1807,1855,1984
209541,19504,-13532,19852,-12916,699,877,-21,-22,0,-23,50,3931,27,18,850,1740,1823,2055,2347,2127,1807,1855,1984
210542,19536,-13504,19917,-12851,490,873,-22,-30,-2,50,148,3895,13,14,850,1740,1823,2055,2347,2127,1807,1855,1984
211543,19564,-13472,19982,-12786,585,863,-25,-33,4,-99,68,3905,30,32,851,1740,1823,2055,2347,2127,1807,1855,1984
212544,19600,-13444,20047,-12721,520,958,-26,-34,7,-77,27,3928,22,33,851,1740,1823,2055,2347,2127,1807,1855,1984
213545,19648,-13408,20112,-12656,391,894,-23,-23,-1,-65,85,4011,27,36,851,1740,1823,2055,2347,2127,1807,1855,1984
214546,19688,-13356,20177,-12591,522,710,-25,-34,3,-71,36,3879,40,39,852,1739,1855,2075,2243,2047,1815,1875,1999
215547,19732,-13316,20242,-12526,498,891,-23,-51,7,-169,34,4013,39,30,852,1739,1855,2075,2243,2047,1815,1875,1999
216548,19776,-13272,20307,-12461,524,866,-25,-50,6,-95,67,4043,38,33,851,1739,1855,2075,2243,2047,1815,1875,1999
217549,19824,-13204,20372,-12396,494,564,-30,-51,5,-20,24,3896,43,45,851,1739,1855,2075,2243,2047,1815,1875,1999
218550,19868,-13160,20437,-12331,570,889,-31,-54,-3,-152,18,4040,31,46,854,1739,1855,2075,2243,2047,1815,1875,1999
219551,19932,-13100,20502,-12266,322,696,-32,-52,-3,-165,-25,3987,40,43,851,1741,1971,2171,2247,2042,1813,1871,1998
220552,19984,-13008,20567,-12201,488,264,-26,-60,-13,-69,45,4001,46,50,854,1741,1971,2171,2247,2042,1813,1871,1998
221553,20048,-12956,20632,-12136,339,779,-37,-72,-14,-246,-55,3972,50,47,856,1741,1971,2171,2247,2042,1813,1871,1998
222554,20104,-12900,20697,-12071,450,740,-40,-66,-8,-181,-36,4046,39,38,854,1741,1971,2171,2247,2042,1813,1871,1998
223555,20156,-12844,20762,-12006,516,752,-38,-80,-11,-51,-31,3851,42,41,852,1741,1971,2171,2247,2042,1813,1871,1998
224556,20228,-12768,20827,-11941,259,489,-41,-80,-16,-194,-75,3973,35,48,853,1741,1971,2171,2247,2042,1813,1871,1998
225557,20300,-12704,20892,-11876,250,640,-36,-75,-17,-180,-62,4139,43,42,856,1743,1856,2078,2245,2046,1817,1875,2002
226558,20372,-12640,20957,-11811,242,642,-38,-90,-14,-267,-119,3958,38,50,856,1743,1856,2078,2245,2046,1817,1875,2002
227559,20436,-12568,21022,-11746,343,534,-31,-81,-9,-208,-166,4086,52,37,856,1743,1856,2078,2245,2046,1817,1875,2002
228560,20500,-12512,21087,-11681,345,745,-22,-89,-12,-172,-167,4048,46,44,856,1743,1856,2078,2245,2046,1817,1875,2002
229561,20576,-12444,21152,-11616,182,592,-12,-110,-6,-129,-140,3991,46,41,854,1743,1856,2078,2245,2046,1817,1875,2002
230562,20628,-12380,21217,-11551,497,643,-2,-152,-3,-202,-129,3987,36,49,856,1818,1860,2078,2245,2044,1816,1874,2000
231563,20696,-12300,21282,-11486,294,425,0,-167,0,-358,-158,4066,53,54,854,1818,1860,2078,2245,2044,1816,1874,2000
232564,20772,-12236,21347,-11421,180,626,-3,-166,0,-237,-97,4011,47,50,856,1818,1860,2078,2245,2044,1816,1874,2000
233565,20840,-12172,21412,-11356,278,629,-2,-165,3,-83,-188,3949,53,51,856,1818,1860,2078,2245,2044,1816,1874,2000
234566,20896,-12108,21477,-11291,439,630,-4,-148,-7,28,-145,4048,45,38,855,1818,1860,2078,2245,2044,1816,1874,2000
235571,20968,-12040,21542,-11226,230,576,-3,-138,-7,16,-141,3957,42,40,854,1818,1860,2078,2245,2044,1816,1874,2000
236568,21020,-11960,21607,-11161,496,409,-10,-144,-3,-68,-212,4079,48,52,856,1750,1861,2079,2250,2035,1807,1870,1992
237569,21100,-11904,21672,-11096,129,720,-3,-153,-10,-198,-13,4001,40,50,856,1750,1861,2079,2250,2035,1807,1870,1992
238570,21148,-11836,21737,-11031,549,566,-9,-173,-11,-261,-177,3939,48,51,855,1750,1861,2079,2250,2035,1807,1870,1992
239571,21216,-11764,21802,-10966,296,509,-5,-178,-19,-260,-109,4053,33,51,854,1750,1861,2079,2250,2035,1807,1870,1992
240572,21288,-11700,21867,-10901,237,610,-5,-195,-19,-100,-120,3984,41,45,855,1750,1861,2079,2250,2035,1807,1870,1992
241573,21348,-11652,21932,-10836,393,831,1,-211,-14,-107,-180,4030,42,40,856,1751,1861,2075,2249,2031,1804,1869,1991
242574,21416,-11580,21997,-10771,291,522,12,-225,-11,-254,-241,3988,45,47,853,1751,1861,2075,2249,2031,1804,1869,1991
243575,21472,-11508,22062,-10706,452,515,28,-231,-13,-146,-270,3988,46,36,856,1751,1861,2075,2249,2031,1804,1869,1991
244576,21528,-11432,22127,-10641,463,451,38,-226,-11,-89,-166,4114,43,49,855,1751,1861,2075,2249,2031,1804,1869,1991
245577,21592,-11380,22192,-10576,364,767,56,-216,-10,-11,-209,4018,51,49,856,1751,1861,2075,2249,2031,1804,1869,1991
246578,21656,-11316,22257,-10511,366,619,69,-215,6,-95,-300,4030,48,37,854,1749,1859,2076,2246,2034,1804,2056,2098
247579,21712,-11260,22322,-10446,477,730,95,-202,12,-77,-202,3946,52,45,855,1749,1859,2076,2246,2034,1804,2056,2098
248580,21780,-11208,22387,-10381,323,796,96,-211,19,-27,-214,3894,52,49,853,1749,1859,2076,2246,2034,1804,2056,2098
249581,21856,-11136,22452,-10316,210,538,109,-195,23,-8,-195,4074,37,34,854,1749,1859,2076,2246,2034,1804,2056,2098
250582,21920,-11080,22517,-10251,361,749,108,-205,36,-37,-170,3878,53,48,856,1749,1859,2076,2246,2034,1804,2056,2098
251583,21980,-11012,22582,-10186,418,596,127,-218,44,-83,-77,3939,45,36,854,1749,1859,2076,2246,2034,1804,2056,2098
252584,22036,-10956,22647,-10121,479,758,124,-223,46,-133,-11,3952,42,37,854,1749,1851,2066,2253,2023,1797,1860,1977
253585,22096,-10888,22712,-10056,435,604,131,-249,49,-113,-106,3841,41,44,853,1749,1851,2066,2253,2023,1797,1860,1977
254586,22172,-10828,22777,-9991,222,710,123,-249,51,-3,-35,4081,36,46,854,1749,1851,2066,2253,2023,1797,1860,1977
255587,22224,-10752,22842,-9926,539,498,143,-253,55,26,32,3935,45,47,855,1749,1851,2066,2253,2023,1797,1860,1977
256588,22284,-10700,22907,-9861,445,814,139,-242,65,183,57,3948,40,30,854,1749,1851,2066,2253,2023,1797,1860,1977
257589,22340,-10620,22972,-9796,506,445,157,-242,67,117,-112,3952,40,35,851,1755,1861,2080,2256,2122,1913,1876,1979
258590,22392,-10592,23037,-9731,572,1141,164,-207,52,146,-197,3935,35,43,855,1755,1861,2080,2256,2122,1913,1876,1979
259591,22476,-10536,23102,-9666,150,803,181,-161,45,121,-66,4009,34,41,849,1755,1861,2080,2256,2122,1913,1876,1979
260592,22540,-10476,23167,-9601,401,759,191,-115,50,180,-59,3943,33,36,854,1755,1861,2080,2256,2122,1913,1876,1979
261593,22584,-10440,23232,-9536,677,1094,213,-92,56,157,-2,4050,45,27,853,1755,1861,2080,2256,2122,1913,1876,1979
262594,22656,-10388,23297,-9471,318,911,230,-123,71,-102,38,3960,45,44,849,1755,1861,2080,2256,2122,1913,1876,1979
263595,22712,-10324,23362,-9406,530,762,248,-154,78,-265,10,3995,41,38,852,1749,1856,2076,2248,2023,1797,1856,1976
264596,22768,-10260,23427,-9341,541,763,259,-176,88,-237,15,4060,50,28,852,1749,1856,2076,2248,2023,1797,1856,1976
265597,22836,-10204,23492,-9276,387,875,279,-178,97,-61,-23,3988,40,35,853,1749,1856,2076,2248,2023,1797,1856,1976
266598,22884,-10164,23557,-9211,658,1106,292,-181,110,-48,26,4077,44,37,852,1749,1856,2076,2248,2023,1797,1856,1976
267599,22956,-10116,23622,-9146,350,1028,295,-173,125,-85,12,3859,50,28,848,1749,1856,2076,2248,2023,1797,1856,1976
268600,23028,-10044,23687,-9081,342,719,291,-179,146,-215,51,3953,52,44,851,1749,1858,2173,2353,2039,1799,1860,1982
269601,23096,-10008,23752,-9016,388,1204,297,-158,154,-213,10,3780,36,36,854,1749,1858,2173,2353,2039,1799,1860,1982
270602,23144,-9956,23817,-8951,659,1021,308,-136,160,-75,-15,4150,42,34,849,1749,1858,2173,2353,2039,1799,1860,1982
271603,23212,-9900,23882,-8886,406,982,325,-128,160,227,105,4017,53,42,849,1749,1858,2173,2353,2039,1799,1860,1982
272604,23280,-9844,23947,-8821,403,993,320,-101,162,237,31,3940,57,44,851,1749,1858,2173,2353,2039,1799,1860,1982
273605,23348,-9788,24012,-8756,399,1005,328,-80,182,164,179,4029,45,44,851,1749,1858,2173,2353,2039,1799,1860,1982
274606,23408,-9736,24077,-8691,505,1071,321,-79,185,-97,190,3922,39,44,849,1756,1864,2083,2256,2032,1802,1864,1988
275607,23484,-9684,24142,-8626,293,1088,329,-92,172,-71,136,4034,36,42,850,1756,1864,2083,2256,2032,1802,1864,1988
276608,23540,-9628,24207,-8561,554,1049,345,-92,168,177,215,4039,41,31,850,1756,1864,2083,2256,2032,1802,1864,1988
277609,23632,-9580,24272,-8496,71,1170,348,-115,181,25,151,3871,33,35,849,1756,1864,2083,2256,2032,1802,1864,1988
278610,23696,-9536,24337,-8431,422,1246,351,-135,186,-103,178,3973,43,43,851,1756,1864,2083,2256,2032,1802,1864,1988
279611,23740,-9460,24402,-8366,699,833,354,-165,191,-216,192,4002,35,44,848,1808,1974,2096,2242,2038,1806,1865,1996
280612,23800,-9416,24467,-8301,505,1260,367,-186,185,-44,190,4062,52,36,850,1808,1974,2096,2242,2038,1806,1865,1996
282614,23920,-9280,24597,-8171,517,802,387,-199,196,68,171,3859,35,33,849,1808,1974,2096,2242,2038,1806,1865,1996
283616,23992,-9224,24662,-8106,359,1114,387,-184,208,0,200,4185,39,40,852,1808,1974,2096,2242,2038,1806,1865,1996
284616,24044,-9172,24727,-8041,625,1180,382,-193,213,-95,113,3830,47,45,850,1808,1974,2096,2242,2038,1806,1865,1996
285617,24088,-9104,24792,-7976,751,977,388,-186,220,-13,190,4146,50,29,847,1741,1855,2075,2233,2045,1809,1869,2003
286618,24168,-9072,24857,-7911,283,1468,383,-179,213,138,184,3882,38,43,849,1741,1855,2075,2233,2045,1809,1869,2003
287619,24232,-9004,24922,-7846,485,1015,378,-182,210,179,192,3813,58,44,847,1741,1855,2075,2233,2045,1809,1869,2003
288620,24292,-8940,24987,-7781,541,1066,366,-192,220,58,174,4011,54,40,850,1741,1855,2075,2233,2045,1809,1869,2003
289621,24364,-8880,25052,-7716,382,1123,365,-218,234,-103,165,3878,38,47,849,1741,1855,2075,2233,2045,1809,1869,2003
290622,24428,-8812,25117,-7651,484,1020,359,-249,234,-206,83,3873,41,37,850,1748,1856,2066,2232,2049,1815,1875,2012
291623,24484,-8760,25182,-7586,596,1236,358,-259,237,-48,151,4042,49,43,849,1748,1856,2066,2232,2049,1815,1875,2012
292624,24548,-8700,25247,-7521,497,1143,355,-278,244,104,242,3783,36,40,847,1748,1856,2066,2232,2049,1815,1875,2012
293625,24632,-8640,25312,-7456,224,1149,344,-298,257,83,117,4037,36,37,849,1748,1856,2066,2232,2049,1815,1875,2012
294626,24680,-8576,25377,-7391,694,1101,339,-316,273,-141,188,3845,35,40,851,1748,1856,2066,2232,2049,1815,1875,2012
295627,24744,-8516,25442,-7326,497,1157,331,-315,258,-54,234,3936,52,46,847,1748,1856,2066,2232,2049,1815,1875,2012
296628,24804,-8440,25507,-7261,553,945,327,-322,245,198,178,4070,55,44,849,1733,1847,2069,2225,2053,1815,1869,2114
297629,24876,-8388,25572,-7196,394,1261,330,-307,242,376,239,4021,54,45,850,1733,1847,2069,2225,2053,1815,1869,2114
298630,24936,-8336,25637,-7131,550,1277,329,-311,255,195,229,3973,39,35,848,1733,1847,2069,2225,2053,1815,1869,2114
299631,25000,-8252,25702,-7066,502,854,335,-306,234,63,386,4064,43,40,847,1733,1847,2069,2225,2053,1815,1869,2114
300632,25056,-8200,25767,-7001,613,1270,328,-329,213,134,309,4138,44,37,851,1733,1847,2069,2225,2053,1815,1869,2114
301633,25128,-8132,25832,-6936,405,1067,342,-338,208,455,256,4129,50,49,847,1727,1841,2063,2222,2056,1818,1874,2008
302634,25188,-8060,25897,-6871,562,1009,346,-329,212,233,216,4144,52,39,850,1727,1841,2063,2222,2056,1818,1874,2008
303635,25240,-8020,25962,-6806,678,1440,342,-278,205,87,304,4062,53,35,850,1727,1841,2063,2222,2056,1818,1874,2008
304636,25308,-7936,26027,-6741,474,867,325,-237,190,178,375,4097,50,45,844,1727,1841,2063,2222,2056,1818,1874,2008
305637,25360,-7876,26092,-6676,690,1174,320,-243,181,162,298,3938,38,50,851,1727,1841,2063,2222,2056,1818,1874,2008
306638,25400,-7816,26157,-6611,872,1180,327,-251,169,2,382,4104,34,49,847,1727,1841,2063,2222,2056,1818,1874,2008
307639,25464,-7756,26222,-6546,573,1188,334,-258,157,-37,286,4009,52,41,845,1732,1846,2072,2238,2052,1916,2034,2065
308640,25504,-7692,26287,-6481,903,1139,341,-268,150,89,386,4023,38,50,846,1732,1846,2072,2238,2052,1916,2034,2065
309641,25564,-7628,26352,-6416,659,1141,341,-293,155,-10,306,3855,42,35,846,1732,1846,2072,2238,2052,1916,2034,2065
310642,25652,-7564,26417,-6351,282,1142,341,-310,157,19,284,3803,41,44,847,1732,1846,2072,2238,2052,1916,2034,2065
311643,25708,-7528,26482,-6286,693,1528,337,-326,157,-126,256,3833,59,33,850,1732,1846,2072,2238,2052,1916,2034,2065
312644,25804,-7476,26547,-6221,155,1344,347,-321,144,-66,218,3797,54,29,843,1741,1858,2087,2253,2041,1810,1865,1992
313645,25860,-7412,26612,-6156,667,1196,363,-299,138,115,158,3946,55,42,848,1741,1858,2087,2253,2041,1810,1865,1992
314646,25932,-7368,26677,-6091,459,1472,380,-296,141,176,214,3990,49,43,847,1741,1858,2087,2253,2041,1810,1865,1992
315647,25992,-7312,26742,-6026,615,1333,400,-257,114,196,382,4120,56,35,845,1741,1858,2087,2253,2041,1810,1865,1992
316648,26048,-7244,26807,-5961,676,1181,402,-228,105,342,421,4094,50,30,846,1741,1858,2087,2253,2041,1810,1865,1992
317649,26116,-7204,26872,-5896,523,1561,425,-240,100,542,662,4025,43,44,847,1741,1858,2087,2253,2041,1810,1865,1992
318650,26188,-7144,26937,-5831,465,1318,439,-233,83,410,535,4004,52,40,844,1748,1860,2082,2306,2110,1882,1848,1970
319651,26236,-7084,27002,-5766,786,1324,434,-237,78,403,373,3979,55,42,847,1748,1860,2082,2306,2110,1882,1848,1970
320652,26312,-7036,27067,-5701,423,1496,436,-194,69,422,442,4260,54,45,844,1748,1860,2082,2306,2110,1882,1848,1970
321653,26352,-6968,27132,-5636,904,1242,451,-145,66,266,480,4340,46,34,845,1748,1860,2082,2306,2110,1882,1848,1970
322654,26416,-6900,27197,-5571,605,1240,475,-111,54,239,437,4274,49,41,844,1748,1860,2082,2306,2110,1882,1848,1970
323655,26484,-6844,27262,-5506,551,1401,490,-149,40,231,427,4037,41,36,847,1728,1855,2073,2242,2005,1781,1845,1967
324656,26544,-6796,27327,-5441,658,1523,499,-202,20,113,365,3982,37,34,845,1728,1855,2073,2242,2005,1781,1845,1967
325657,26604,-6744,27392,-5376,664,1488,499,-230,-2,-143,451,3975,43,34,842,1728,1855,2073,2242,2005,1781,1845,1967
326658,26660,-6668,27457,-5311,725,1176,503,-236,-25,-132,588,4015,50,31,843,1728,1855,2073,2242,2005,1781,1845,1967
327659,26716,-6604,27522,-5246,737,1327,512,-279,-48,175,580,3808,56,34,847,1728,1855,2073,2242,2005,1781,1845,1967
328660,26780,-6548,27587,-5181,639,1439,532,-321,-70,418,545,3870,48,42,845,1728,1855,2073,2242,2005,1781,1845,1967
329661,26836,-6500,27652,-5116,750,1560,533,-361,-78,304,393,3737,53,47,844,1752,1898,2182,2359,2027,1797,1851,1977
330662,26904,-6456,27717,-5051,597,1637,547,-382,-72,104,407,3768,36,35,842,1752,1898,2182,2359,2027,1797,1851,1977
331663,26984,-6388,27782,-4986,429,1333,561,-348,-75,144,295,3895,53,40,841,1752,1898,2182,2359,2027,1797,1851,1977
332664,27040,-6336,27847,-4921,740,1550,586,-302,-79,323,180,4080,54,38,847,1752,1898,2182,2359,2027,1797,1851,1977
333665,27108,-6284,27912,-4856,586,1567,623,-265,-64,539,256,4025,48,31,842,1752,1898,2182,2359,2027,1797,1851,1977
334666,27164,-6236,27977,-4791,748,1637,648,-247,-56,487,199,3948,53,42,843,1762,1883,2103,2260,2050,1798,1861,2015
335667,27224,-6152,28042,-4726,704,1165,674,-244,-61,322,300,4034,36,33,841,1762,1883,2103,2260,2050,1798,1861,2015
336668,27288,-6104,28107,-4661,655,1636,697,-255,-55,103,234,4210,54,50,847,1762,1883,2103,2260,2050,1798,1861,2015
337669,27352,-6044,28172,-4596,657,1493,733,-285,-64,67,149,4191,41,47,842,1762,1883,2103,2260,2050,1798,1861,2015
338670,27416,-5984,28237,-4531,659,1499,748,-324,-75,43,249,4252,39,47,844,1762,1883,2103,2260,2050,1798,1861,2015
339671,27484,-5912,28302,-4466,605,1342,760,-366,-89,-35,378,4377,52,38,843,1762,1883,2103,2260,2050,1798,1861,2015
340672,27548,-5860,28367,-4401,657,1608,754,-382,-118,147,458,4271,43,36,845,1821,1985,2077,2238,2024,1788,1854,1981
341673,27596,-5792,28432,-4336,878,1405,762,-407,-137,129,509,4151,50,32,842,1821,1985,2077,2238,2024,1788,1854,1981
342674,27648,-5748,28497,-4271,844,1730,749,-416,-156,-54,578,4157,45,30,842,1821,1985,2077,2238,2024,1788,1854,1981
343675,27712,-5680,28562,-4206,696,1428,754,-447,-198,71,573,4088,48,31,839,1821,1985,2077,2238,2024,1788,1854,1981
344676,27756,-5628,28627,-4141,972,1645,756,-465,-216,210,450,4292,37,41,844,1821,1985,2077,2238,2024,1788,1854,1981
345677,27832,-5580,28692,-4076,558,1715,750,-490,-212,275,352,3985,53,30,839,1757,1869,2081,2253,2019,1789,1859,1991
346678,27904,-5512,28757,-4011,601,1463,750,-473,-200,154,352,4124,45,34,842,1757,1869,2081,2253,2019,1789,1859,1991
347679,27956,-5484,28822,-3946,867,2008,752,-442,-186,181,245,4009,42,32,845,1757,1869,2081,2253,2019,1789,1859,1991
348680,27996,-5408,28887,-3881,1047,1396,775,-398,-183,286,187,4035,47,36,836,1757,1869,2081,2253,2019,1789,1859,1991
349681,28064,-5352,28952,-3816,694,1657,784,-389,-186,331,131,3942,40,42,841,1757,1869,2081,2253,2019,1789,1859,1991
350682,28124,-5296,29017,-3751,801,1668,812,-405,-179,211,119,3929,57,41,841,1757,1869,2081,2253,2019,1789,1859,1991
351683,28180,-5236,29082,-3686,862,1626,843,-422,-172,50,157,3905,42,47,840,1762,1875,2093,2256,2044,1809,1867,2001
352684,28244,-5164,29147,-3621,764,1467,852,-395,-187,-129,173,4029,52,33,840,1762,1875,2093,2256,2044,1809,1867,2001
353685,28300,-5108,29212,-3556,875,1679,856,-405,-190,-66,331,3913,53,39,843,1762,1875,2093,2256,2044,1809,1867,2001
354686,28368,-5060,29277,-3491,721,1800,887,-468,-204,220,324,3710,57,47,840,1762,1875,2093,2256,2044,1809,1867,2001
355687,28444,-4980,29342,-3426,609,1382,946,-570,-212,56,179,3842,42,50,839,1762,1875,2093,2256,2044,1809,1867,2001
356688,28512,-4916,29407,-3361,705,1585,984,-698,-213,-427,-36,3733,40,37,845,1740,1849,2072,2232,2036,1797,1853,2098
357689,28568,-4840,29472,-3296,866,1421,964,-812,-231,-549,12,3696,56,52,843,1740,1849,2072,2232,2036,1797,1853,2098
358690,28636,-4788,29537,-3231,713,1738,957,-737,-256,-470,-20,4892,57,47,843,1740,1849,2072,2232,2036,1797,1853,2098
359691,28716,-4704,29602,-3166,545,1315,954,-650,-237,537,219,4457,44,48,839,1740,1849,2072,2232,2036,1797,1853,2098
360692,28788,-4648,29667,-3101,636,1677,932,-606,-202,1146,274,4431,56,47,846,1740,1849,2072,2232,2036,1797,1853,2098
361693,28844,-4560,29732,-3036,848,1250,874,-598,-182,477,411,4140,44,37,842,1740,1849,2072,2232,2036,1797,1853,2098
362694,28916,-4516,29797,-2971,640,1825,819,-574,-185,-90,444,4298,50,50,844,1735,1849,2059,2217,1999,1759,1847,1983
363695,28984,-4444,29862,-2906,686,1468,763,-525,-189,188,231,4291,35,39,840,1735,1849,2059,2217,1999,1759,1847,1983
364696,29028,-4360,29927,-2841,1013,1295,727,-424,-210,471,88,4297,44,49,844,1735,1849,2059,2217,1999,1759,1847,1983
365697,29096,-4300,29992,-2776,709,1602,721,-371,-198,169,321,4378,50,52,843,1735,1849,2059,2217,1999,1759,1847,1983
366698,29156,-4244,30057,-2711,815,1663,705,-321,-203,187,526,3932,42,47,842,1735,1849,2059,2217,1999,1759,1847,1983
367699,29204,-4180,30122,-2646,987,1565,675,-354,-240,-224,325,3718,36,35,840,1731,1848,2061,2217,2080,1937,2043,2048
368700,29256,-4120,30187,-2581,953,1622,667,-417,-272,-412,457,3734,37,51,840,1731,1848,2061,2217,2080,1937,2043,2048
369701,29324,-4040,30252,-2516,749,1354,681,-478,-267,-153,401,3748,42,41,840,1731,1848,2061,2217,2080,1937,2043,2048
370702,29380,-3980,30317,-2451,911,1611,718,-528,-263,-109,184,3599,40,42,844,1731,1848,2061,2217,2080,1937,2043,2048
371703,29444,-3908,30382,-2386,813,1452,742,-598,-259,-468,59,3486,54,36,840,1731,1848,2061,2217,2080,1937,2043,2048
372704,29508,-3852,30447,-2321,814,1664,784,-620,-243,-477,35,3918,37,38,842,1731,1848,2061,2217,2080,1937,2043,2048
373705,29580,-3780,30512,-2256,706,1457,809,-624,-223,-369,-22,3666,36,51,840,1719,1835,2079,2227,2144,1880,1933,2079
374706,29648,-3720,30577,-2191,753,1613,822,-599,-194,-182,85,3869,44,50,844,1719,1835,2079,2227,2144,1880,1933,2079
375707,29684,-3652,30642,-2126,1189,1510,817,-575,-158,213,379,4029,50,48,841,1719,1835,2079,2227,2144,1880,1933,2079
376708,29764,-3588,30707,-2061,621,1562,807,-569,-132,307,350,3931,36,37,837,1719,1835,2079,2227,2144,1880,1933,2079
377709,29824,-3540,30772,-1996,877,1783,779,-549,-109,524,339,4120,39,51,843,1719,1835,2079,2227,2144,1880,1933,2079
378710,29884,-3472,30837,-1931,884,1530,744,-486,-79,455,460,4312,48,43,838,1700,1816,2047,2298,2157,1805,1847,1989
379711,29936,-3400,30902,-1866,1000,1472,693,-418,-76,443,667,4066,43,44,841,1700,1816,2047,2298,2157,1805,1847,1989
380712,29988,-3344,30967,-1801,1016,1684,624,-366,-70,457,643,4209,35,41,841,1700,1816,2047,2298,2157,1805,1847,1989
381713,30052,-3272,31032,-1736,868,1476,551,-338,-63,410,788,4106,49,50,838,1700,1816,2047,2298,2157,1805,1847,1989
382714,30100,-3204,31097,-1671,1089,1523,464,-334,-46,294,719,3923,51,37,842,1700,1816,2047,2298,2157,1805,1847,1989
383715,30168,-3156,31162,-1606,835,1794,394,-327,-37,119,774,4113,52,51,839,1700,1816,2047,2298,2157,1805,1847,1989
384716,30240,-3076,31227,-1541,777,1376,341,-336,-44,61,636,3758,40,46,839,1715,1823,2040,2197,2015,1779,1841,1982
385717,30300,-3020,31292,-1476,933,1688,315,-360,-50,83,497,3950,37,47,843,1715,1823,2040,2197,2015,1779,1841,1982
386718,30360,-2956,31357,-1411,941,1589,313,-401,-59,-152,341,3882,46,50,839,1715,1823,2040,2197,2015,1779,1841,1982
387719,30404,-2896,31422,-1346,1166,1647,333,-463,-76,-190,353,3879,41,48,840,1715,1823,2040,2197,2015,1779,1841,1982
388720,30468,-2840,31487,-1281,917,1708,367,-530,-71,-289,313,4060,51,42,838,1715,1823,2040,2197,2015,1779,1841,1982
389721,30512,-2752,31552,-1216,1194,1281,402,-569,-60,-125,187,3837,53,47,839,1701,1940,2147,2185,2091,1839,1886,2046
390722,30580,-2704,31617,-1151,890,1801,433,-580,-51,123,233,4041,40,52,841,1701,1940,2147,2185,2091,1839,1886,2046
391723,30628,-2636,31682,-1086,1161,1549,469,-562,-26,312,308,3901,40,50,838,1701,1940,2147,2185,2091,1839,1886,2046
392724,30696,-2584,31747,-1021,908,1765,489,-526,12,281,491,3918,46,46,838,1701,1940,2147,2185,2091,1839,1886,2046
393725,30744,-2504,31812,-956,1179,1397,495,-498,51,215,509,3665,43,53,837,1701,1940,2147,2185,2091,1839,1886,2046
394726,30808,-2448,31877,-891,981,1709,490,-470,85,346,655,3702,42,38,840,1701,1940,2147,2185,2091,1839,1886,2046
395727,30876,-2376,31942,-826,928,1501,478,-435,123,323,717,3725,57,43,838,1705,1833,2072,2212,2093,1833,1891,2040
396728,30924,-2312,32007,-761,1199,1603,467,-412,160,414,862,3763,53,51,841,1705,1833,2072,2212,2093,1833,1891,2040
397729,30984,-2248,32072,-696,1056,1605,439,-412,191,469,925,3739,42,40,837,1705,1833,2072,2212,2093,1833,1891,2040
398730,31036,-2180,32137,-631,1171,1551,409,-471,205,411,952,3712,44,52,839,1705,1833,2072,2212,2093,1833,1891,2040
399731,31116,-2120,32202,-566,804,1658,364,-510,207,329,864,3797,51,39,838,1705,1833,2072,2212,2093,1833,1891,2040
400732,31192,-2048,32267,-501,841,1500,300,-504,204,207,790,3728,61,40,840,1817,1857,2071,2223,2028,1788,1845,1971
401733,31264,-1992,32332,-436,883,1712,213,-464,184,176,791,3668,50,54,842,1817,1857,2071,2223,2028,1788,1845,1971
402734,31336,-1936,32397,-371,875,1724,113,-411,161,-281,704,3998,44,44,839,1817,1857,2071,2223,2028,1788,1845,1971
403735,31400,-1864,32462,-306,976,1515,64,-400,159,63,761,4087,44,53,839,1817,1857,2071,2223,2028,1788,1845,1971
404736,31480,-1768,32527,-241,759,1179,66,-452,198,667,576,3997,51,44,841,1817,1857,2071,2223,2028,1788,1845,1971
405737,31560,-1712,32592,-176,740,1690,84,-489,214,197,428,4239,46,41,846,1817,1857,2071,2223,2028,1788,1845,1971
406738,31628,-1628,32657,-111,888,1317,116,-488,198,-88,540,4052,42,38,841,1717,1813,2042,2186,2044,1806,1843,1989
407739,31680,-1588,32722,-46,1103,1898,170,-477,195,311,327,4283,44,48,843,1717,1813,2042,2186,2044,1806,1843,1989
408740,31740,-1520,32787,19,1010,1545,221,-472,201,521,317,4228,39,39,835,1717,1813,2042,2186,2044,1806,1843,1989
409741,31812,-1448,32852,84,852,1488,268,-474,236,222,462,4207,41,43,839,1717,1813,2042,2186,2044,1806,1843,1989
410744,31864,-1384,32917,149,1118,1589,299,-473,279,395,548,3965,55,44,840,1717,1813,2042,2186,2044,1806,1843,1989
411743,31924,-1312,32982,214,1025,1481,327,-455,315,296,582,3974,46,35,838,1659,1768,2016,2199,2104,1840,1880,2000
412744,31972,-1260,33047,279,1196,1747,327,-455,345,94,659,3752,57,50,840,1659,1768,2016,2199,2104,1840,1880,2000
413745,32036,-1208,33112,344,997,1764,334,-417,374,156,948,3900,53,36,836,1659,1768,2016,2199,2104,1840,1880,2000
414746,32100,-1136,33177,409,999,1506,320,-394,408,287,1189,3696,42,46,838,1659,1768,2016,2199,2104,1840,1880,2000
415747,32148,-1068,33242,474,1220,1553,290,-376,438,502,1246,3639,57,50,839,1659,1768,2016,2199,2104,1840,1880,2000
416748,32236,-1012,33307,539,693,1715,247,-364,463,337,1357,3479,50,41,837,1659,1768,2016,2199,2104,1840,1880,2000
417749,32304,-956,33372,604,939,1726,194,-339,472,54,1377,3572,44,47,840,1735,1855,2086,2255,2063,1819,2023,2131
418750,32344,-908,33437,669,1320,1848,159,-314,466,232,1343,3650,46,35,838,1735,1855,2086,2255,2063,1819,2023,2131
419751,32412,-844,33502,734,967,1649,117,-298,458,472,1419,3692,53,42,833,1735,1855,2086,2255,2063,1819,2023,2131
420752,32456,-780,33567,799,1293,1651,100,-302,456,516,1410,3789,43,39,838,1735,1855,2086,2255,2063,1819,2023,2131
421753,32532,-704,33632,864,880,1489,83,-305,454,408,1163,3772,38,51,836,1735,1855,2086,2255,2063,1819,2023,2131
422754,32588,-648,33697,929,1141,1750,83,-290,433,383,1114,3933,42,50,841,1763,1867,2091,2239,2030,1795,1844,1981
423755,32648,-608,33762,994,1097,1981,93,-274,411,196,985,4017,51,42,837,1763,1867,2091,2239,2030,1795,1844,1981
424756,32724,-532,33827,1059,885,1518,125,-263,387,508,907,4235,43,49,834,1763,1867,2091,2239,2030,1795,1844,1981
425757,32788,-480,33892,1124,1036,1835,148,-286,375,507,710,4150,60,49,841,1763,1867,2091,2239,2030,1795,1844,1981
426758,32840,-412,33957,1189,1203,1632,188,-316,378,401,796,4301,53,50,836,1763,1867,2091,2239,2030,1795,1844,1981
427759,32900,-360,34022,1254,1109,1848,217,-323,381,466,845,4254,56,36,835,1763,1867,2091,2239,2030,1795,1844,1981
428760,32980,-296,34087,1319,842,1700,254,-293,396,464,801,4264,43,40,835,1712,1817,2057,2192,2136,1928,1838,1986
429761,33032,-244,34152,1384,1208,1867,280,-274,425,705,951,4187,49,33,839,1712,1817,2057,2192,2136,1928,1838,1986
430762,33092,-184,34217,1449,1114,1773,308,-260,437,644,1003,4161,41,35,834,1712,1817,2057,2192,2136,1928,1838,1986
431763,33156,-140,34282,1514,1066,2000,305,-253,444,336,1074,4108,44,35,835,1712,1817,2057,2192,2136,1928,1838,1986
432764,33212,-72,34347,1579,1177,1696,310,-256,459,312,1305,4041,59,42,834,1712,1817,2057,2192,2136,1928,1838,1986
433765,33264,-8,34412,1644,1244,1748,292,-260,492,566,1443,4029,60,34,836,1707,1831,2068,2212,2025,1796,1848,1986
434766,33332,56,34477,1709,1040,1750,272,-256,501,483,1487,3963,54,50,835,1707,1831,2068,2212,2025,1796,1848,1986
435767,33420,88,34542,1774,763,2191,233,-279,519,242,1577,3853,41,47,836,1707,1831,2068,2212,2025,1796,1848,1986
436768,33484,156,34607,1839,1064,1738,210,-297,529,208,1476,3867,55,37,833,1707,1831,2068,2212,2025,1796,1848,1986
437769,33548,208,34672,1904,1066,1955,174,-312,516,376,1554,3889,54,31,837,1707,1831,2068,2212,2025,1796,1848,1986
438770,33604,268,34737,1969,1178,1861,170,-328,499,404,1715,3938,54,42,834,1707,1831,2068,2212,2025,1796,1848,1986
439771,33664,344,34802,2034,1134,1648,156,-345,481,459,1649,4071,50,53,835,1743,1857,2192,2360,2047,1815,1867,2007
440772,33720,404,34867,2099,1196,1855,164,-332,449,573,1519,4050,54,54,837,1743,1857,2192,2360,2047,1815,1867,2007
441773,33796,468,34932,2164,932,1807,176,-336,412,477,1527,4106,40,54,835,1743,1857,2192,2360,2047,1815,1867,2007
442774,33856,532,34997,2229,1139,1809,200,-343,371,527,1321,4116,55,54,837,1743,1857,2192,2360,2047,1815,1867,2007
443775,33924,600,35062,2294,1036,1755,224,-345,324,705,1161,4257,40,55,835,1743,1857,2192,2360,2047,1815,1867,2007
444776,33980,668,35127,2359,1197,1753,257,-353,300,503,1215,4207,55,42,835,1734,1855,2091,2216,2064,1824,1864,2016
445777,34036,732,35192,2424,1209,1805,295,-334,280,455,1145,4323,54,49,835,1734,1855,2091,2216,2064,1824,1864,2016
446778,34104,808,35257,2489,1055,1642,319,-303,254,431,1045,4368,42,58,835,1734,1855,2091,2216,2064,1824,1864,2016
447779,34168,868,35322,2554,1107,1849,339,-290,230,375,1038,4174,54,46,838,1734,1855,2091,2216,2064,1824,1864,2016
448780,34224,940,35387,2619,1218,1691,345,-285,217,457,1197,4349,44,57,836,1734,1855,2091,2216,2064,1824,1864,2016
449781,34292,1012,35452,2684,1066,1683,347,-274,209,292,1282,4372,54,43,836,1734,1855,2091,2216,2064,1824,1864,2016
450782,34360,1072,35517,2749,1062,1840,353,-263,223,460,1235,4332,53,57,837,1816,1968,2096,2224,2048,1792,1840,1984
451783,34436,1140,35716,2948,1800,2588,351,-283,221,442,1405,4387,62,41,836,1816,1968,2096,2224,2048,1792,1840,1984
452784,34496,1200,35781,3013,2006,2694,341,-311,226,45,1409,4259,59,49,818,1816,1968,2096,2224,2048,1792,1840,1984
453785,34572,1284,35846,3078,1793,2371,327,-334,210,154,1480,4421,55,53,816,1816,1968,2096,2224,2048,1792,1840,1984
454786,34668,1392,35911,3143,1506,2020,304,-347,210,-34,1545,4373,74,43,823,1816,1968,2096,2224,2048,1792,1840,1984
455787,34760,1468,35976,3208,1523,2407,287,-362,219,348,1648,4370,82,69,830,1752,1871,2110,2253,2031,1799,1847,1991
456788,34848,1560,36041,3273,1546,2175,266,-375,231,403,1598,4543,73,65,825,1752,1871,2110,2253,2031,1799,1847,1991
457789,34972,1660,36106,3338,1024,2033,260,-392,218,492,1524,4353,70,58,828,1752,1871,2110,2253,2031,1799,1847,1991
458790,35080,1768,36171,3403,1172,1880,249,-419,193,425,1655,4660,71,75,835,1752,1871,2110,2253,2031,1799,1847,1991
459791,35184,1884,36236,3468,1175,1719,250,-433,160,457,1742,4582,71,63,836,1752,1871,2110,2253,2031,1799,1847,1991
460796,35308,1984,36301,3533,854,1876,265,-416,108,389,1704,4838,87,77,837,1752,1871,2110,2253,2031,1799,1847,1991
461793,35396,2096,36366,3598,1276,1670,278,-404,60,672,1621,4747,83,76,836,1746,1858,2092,2243,2058,1825,1875,2028
462794,35516,2184,36431,3663,808,1943,300,-404,25,995,1650,4810,68,60,837,1746,1858,2092,2243,2058,1825,1875,2028
463795,35624,2252,36496,3728,907,2189,328,-395,-7,776,1645,4736,73,69,838,1746,1858,2092,2243,2058,1825,1875,2028
464796,35716,2384,36561,3793,1074,1308,346,-415,-61,348,1293,4572,70,61,835,1746,1858,2092,2243,2058,1825,1875,2028
465797,35832,2480,36626,3858,712,1721,384,-416,-116,388,1670,4881,82,67,842,1746,1858,2092,2243,2058,1825,1875,2028
466798,35924,2560,36691,3923,980,1903,416,-415,-135,632,1581,4456,64,54,841,1765,1881,2128,2278,2109,1861,1904,2185
467799,36032,2648,36756,3988,727,1775,477,-415,-150,984,1427,4725,73,59,836,1765,1881,2128,2278,2109,1861,1904,2185
468800,36136,2724,36821,4053,730,1913,524,-494,-172,259,1242,4536,72,50,839,1765,1881,2128,2278,2109,1861,1904,2185
469801,36208,2796,36886,4118,1121,1954,552,-559,-194,-704,1349,4773,60,53,838,1765,1881,2128,2278,2109,1861,1904,2185
470802,36296,2872,36951,4183,894,1892,512,-557,-221,-456,1585,4344,56,47,834,1765,1881,2128,2278,2109,1861,1904,2185
471803,36384,2936,37016,4248,866,2043,423,-494,-262,18,1651,4487,72,58,837,1783,1913,2162,2307,2081,1837,1885,2031
472804,36472,3020,37081,4313,838,1771,320,-406,-299,226,1622,4344,66,42,836,1783,1913,2162,2307,2081,1837,1885,2031
473805,36568,3092,37146,4378,700,1912,261,-360,-293,418,1596,4576,61,46,839,1783,1913,2162,2307,2081,1837,1885,2031
474806,36644,3164,37211,4443,938,1905,193,-380,-305,52,1556,4334,68,47,838,1783,1913,2162,2307,2081,1837,1885,2031
475807,36736,3248,37276,4508,705,1732,165,-373,-339,-249,1498,4453,49,58,836,1783,1913,2162,2307,2081,1837,1885,2031
476808,36804,3332,37341,4573,1001,1709,170,-322,-365,191,1594,4662,51,51,841,1783,1913,2162,2307,2081,1837,1885,2031
477809,36872,3428,37406,4638,997,1522,191,-349,-353,293,1563,4411,50,49,839,1767,1881,2113,2251,2080,1965,2018,2032
478810,36964,3500,37471,4703,664,1814,237,-349,-363,480,1451,4735,61,61,839,1767,1881,2113,2251,2080,1965,2018,2032
479811,37040,3584,37536,4768,852,1641,277,-364,-376,260,1515,4717,62,56,840,1767,1881,2113,2251,2080,1965,2018,2032
480812,37092,3660,37601,4833,1168,1728,306,-349,-408,344,1529,4469,59,51,841,1767,1881,2113,2251,2080,1965,2018,2032
481813,37184,3780,37666,4898,635,1111,325,-356,-448,223,1555,4748,44,61,837,1767,1881,2113,2251,2080,1965,2018,2032
482814,37248,3868,37731,4963,986,1483,356,-367,-481,445,1645,4379,47,62,847,1678,1789,2040,2174,2086,1846,1867,2011
483815,37316,3944,37796,5028,932,1621,390,-396,-475,739,1725,4367,41,60,842,1678,1789,2040,2174,2086,1846,1867,2011
484816,37392,4028,37861,5093,820,1498,433,-426,-516,674,1801,4310,57,55,840,1678,1789,2040,2174,2086,1846,1867,2011
485817,37444,4120,37926,5158,1136,1366,460,-488,-571,21,1686,3994,58,61,842,1678,1789,2040,2174,2086,1846,1867,2011
486818,37508,4184,37991,5223,987,1717,473,-546,-613,101,1819,4066,57,48,841,1678,1789,2040,2174,2086,1846,1867,2011
487819,37600,4268,38056,5288,604,1444,469,-533,-619,435,1883,3925,44,53,838,1678,1789,2040,2174,2086,1846,1867,2011
488820,37672,4348,38121,5353,846,1476,452,-516,-636,495,1890,3593,53,63,844,1679,1815,2069,2323,2148,1789,1832,1988
489821,37732,4444,38186,5418,1002,1238,431,-510,-660,162,1885,3458,42,50,843,1679,1815,2069,2323,2148,1789,1832,1988
490822,37808,4524,38251,5483,789,1421,412,-536,-691,307,2158,3311,60,53,844,1679,1815,2069,2323,2148,1789,1832,1988
491823,37880,4600,38316,5548,831,1458,409,-538,-707,317,1997,3351,64,53,844,1679,1815,2069,2323,2148,1789,1832,1988
492824,37948,4672,38381,5613,877,1499,400,-563,-712,272,1757,3185,43,57,843,1679,1815,2069,2323,2148,1789,1832,1988
493825,38016,4756,38446,5678,873,1327,389,-583,-713,49,1671,3223,44,61,842,1760,1888,2144,2292,1984,1744,1808,1952
494826,38092,4836,38511,5743,760,1359,389,-565,-702,94,1712,3227,48,56,844,1760,1888,2144,2292,1984,1744,1808,1952
495827,38172,4928,38576,5808,692,1176,408,-547,-686,318,1687,3382,46,54,844,1760,1888,2144,2292,1984,1744,1808,1952
496828,38248,5012,38641,5873,729,1254,420,-556,-689,249,1495,3242,62,52,847,1760,1888,2144,2292,1984,1744,1808,1952
497829,38348,5096,38706,5938,387,1230,449,-557,-673,145,1468,3359,57,54,846,1760,1888,2144,2292,1984,1744,1808,1952
498830,38416,5180,38771,6003,783,1207,485,-536,-640,454,1602,3425,59,52,848,1760,1888,2144,2292,1984,1744,1808,1952
499831,38496,5252,38836,6068,615,1350,520,-496,-637,432,1526,3577,55,55,846,1759,2011,2191,2223,1963,1727,1782,1916
500832,38568,5316,38901,6133,706,1451,537,-497,-662,245,1567,3602,53,48,846,1759,2011,2191,2223,1963,1727,1782,1916
501833,38628,5396,38966,6198,862,1233,566,-521,-674,91,1738,3604,58,60,844,1759,2011,2191,2223,1963,1727,1782,1916
502834,38716,5480,39031,6263,484,1160,581,-542,-677,410,1784,3454,48,51,845,1759,2011,2191,2223,1963,1727,1782,1916
503835,38780,5544,39096,6328,786,1412,604,-559,-679,388,1748,3501,48,53,848,1759,2011,2191,2223,1963,1727,1782,1916
504836,38840,5624,39161,6393,842,1193,614,-616,-685,43,1780,3249,57,44,844,1698,1800,2022,2162,1939,1720,1770,1898
505837,38928,5688,39226,6458,464,1394,636,-664,-704,44,1916,3280,47,44,845,1698,1800,2022,2162,1939,1720,1770,1898
506838,39008,5756,39291,6523,546,1342,666,-726,-690,387,1758,3088,47,44,846,1698,1800,2022,2162,1939,1720,1770,1898
507839,39084,5832,39356,6588,583,1228,692,-771,-670,485,1640,3002,47,50,846,1698,1800,2022,2162,1939,1720,1770,1898
508840,39152,5912,39421,6653,679,1160,719,-807,-657,168,1734,2772,42,59,847,1698,1800,2022,2162,1939,1720,1770,1898
509841,39220,5972,39486,6718,675,1417,759,-815,-645,140,1802,2932,44,44,847,1698,1800,2022,2162,1939,1720,1770,1898
510842,39304,6048,39551,6783,452,1204,801,-819,-624,479,1766,2734,49,49,845,1787,1787,2019,2175,1985,1761,1811,1943
511843,39368,6128,39616,6848,703,1135,844,-824,-587,842,1560,2697,55,57,848,1787,1787,2019,2175,1985,1761,1811,1943
512844,39452,6192,39681,6913,430,1337,876,-817,-547,835,1541,2582,45,47,845,1787,1787,2019,2175,1985,1761,1811,1943
513845,39524,6272,39746,6978,572,1119,908,-779,-520,429,1516,2729,54,52,847,1787,1787,2019,2175,1985,1761,1811,1943
514846,39616,6344,39811,7043,290,1211,918,-737,-494,286,1389,2685,58,59,849,1787,1787,2019,2175,1985,1761,1811,1943
515847,39692,6428,39876,7108,476,1038,940,-701,-469,544,1299,2645,41,52,850,1719,1827,2057,2208,1997,1764,1814,1946
516848,39760,6500,39941,7173,572,1179,947,-684,-408,466,1294,2586,57,46,850,1719,1827,2057,2208,1997,1764,1814,1946
517849,39832,6572,40006,7238,514,1171,956,-685,-364,226,1489,2610,57,49,847,1719,1827,2057,2208,1997,1764,1814,1946
518850,39912,6644,40071,7303,396,1163,951,-674,-361,-182,1389,2733,42,55,849,1719,1827,2057,2208,1997,1764,1814,1946
519851,39992,6720,40136,7368,377,1100,950,-703,-347,-55,1407,2662,56,50,849,1719,1827,2057,2208,1997,1764,1814,1946
520852,40052,6780,40201,7433,633,1306,926,-746,-323,191,1391,2727,46,52,849,1719,1827,2057,2208,1997,1764,1814,1946
521853,40128,6860,40266,7498,420,1038,893,-761,-308,129,1299,2816,41,39,846,1721,1828,2052,2188,1959,1723,1773,1905
522854,40188,6932,40331,7563,626,1130,853,-791,-269,-130,1003,2788,42,50,850,1721,1828,2052,2188,1959,1723,1773,1905
523855,40260,6996,40396,7628,468,1231,818,-765,-235,-225,970,3137,52,42,848,1721,1828,2052,2188,1959,1723,1773,1905
524856,40340,7056,40461,7693,349,1287,790,-723,-196,71,924,3140,56,39,848,1721,1828,2052,2188,1959,1723,1773,1905
525857,40424,7120,40526,7758,276,1239,779,-685,-162,495,908,3154,59,37,848,1721,1828,2052,2188,1959,1723,1773,1905
526858,40504,7188,40591,7823,308,1186,767,-667,-123,500,795,3274,56,47,849,1679,1784,2004,2128,1974,1741,1912,2072
527859,40576,7248,40656,7888,399,1292,753,-629,-81,634,876,3242,48,47,849,1679,1784,2004,2128,1974,1741,1912,2072
528860,40644,7324,40721,7953,445,1078,749,-557,-54,609,1097,3382,42,42,848,1679,1784,2004,2128,1974,1741,1912,2072
529861,40716,7384,40786,8018,387,1285,737,-473,-32,619,1102,3122,55,50,847,1679,1784,2004,2128,1974,1741,1912,2072
530862,40788,7456,40851,8083,378,1127,734,-415,-2,841,1111,3069,57,47,847,1679,1784,2004,2128,1974,1741,1912,2072
531863,40864,7552,40916,8148,315,789,729,-424,9,844,1336,2646,42,45,850,1679,1784,2004,2128,1974,1741,1912,2072
532864,40936,7632,40981,8213,356,971,715,-477,14,101,1224,2481,47,59,853,1636,1740,1980,2115,2059,1823,1860,2003
533865,41020,7708,41046,8278,183,1008,715,-529,51,-20,1290,2336,41,48,851,1636,1740,1980,2115,2059,1823,1860,2003
534866,41088,7792,41111,8343,380,885,713,-593,85,100,1386,2045,45,58,852,1636,1740,1980,2115,2059,1823,1860,2003
535867,41144,7864,41176,8408,541,1027,715,-689,119,72,1178,1841,39,51,852,1636,1740,1980,2115,2059,1823,1860,2003
536868,41220,7940,41241,8473,277,963,727,-829,151,94,1062,1750,57,44,850,1636,1740,1980,2115,2059,1823,1860,2003
537869,41296,8008,41306,8538,264,1059,743,-929,184,2,1074,1851,44,45,851,1649,1755,1999,2143,2191,1967,1871,2000
538870,41372,8100,41371,8603,250,728,734,-930,232,66,1294,2373,52,51,851,1649,1755,1999,2143,2191,1967,1871,2000
539871,41452,8180,41436,8668,182,859,710,-836,304,563,930,2648,45,50,854,1649,1755,1999,2143,2191,1967,1871,2000
540872,41532,8260,41501,8733,164,841,657,-729,344,1235,825,2624,59,61,853,1649,1755,1999,2143,2191,1967,1871,2000
541873,41600,8324,41566,8798,310,1042,577,-587,388,956,744,3577,42,51,854,1649,1755,1999,2143,2191,1967,1871,2000
542874,41704,8420,41631,8863,-188,604,515,-479,444,970,986,3155,47,60,851,1649,1755,1999,2143,2191,1967,1871,2000
543875,41772,8496,41696,8928,259,841,451,-406,472,1071,1016,3108,49,51,846,1659,1776,1997,2118,1998,1750,1795,1936
544876,41828,8568,41761,8993,420,883,363,-369,531,623,271,3434,59,56,852,1659,1776,1997,2118,1998,1750,1795,1936
545877,41912,8660,41826,9058,47,600,270,-323,578,387,438,2901,59,54,852,1659,1776,1997,2118,1998,1750,1795,1936
546878,42000,8744,41891,9123,-32,677,176,-253,606,-8,617,3251,49,52,855,1659,1776,1997,2118,1998,1750,1795,1936
547879,42072,8832,41956,9188,160,599,74,-190,634,67,358,3311,57,54,855,1659,1776,1997,2118,1998,1750,1795,1936
548880,42160,8912,42021,9253,-68,681,-24,-185,650,328,478,2861,44,64,856,1624,1753,2083,2200,2007,1767,1805,1957
549881,42224,9012,42086,9318,233,388,-119,-223,666,292,662,2727,41,56,855,1624,1753,2083,2200,2007,1767,1805,1957
550882,42288,9100,42151,9383,234,510,-184,-241,682,-148,587,2850,50,60,857,1624,1753,2083,2200,2007,1767,1805,1957
551883,42356,9172,42216,9448,181,702,-230,-227,680,94,765,2748,52,61,856,1624,1753,2083,2200,2007,1767,1805,1957
552884,42436,9252,42281,9513,12,584,-262,-204,682,468,565,2797,49,52,855,1624,1753,2083,2200,2007,1767,1805,1957
553885,42516,9344,42346,9578,-6,401,-287,-155,679,573,681,2817,41,50,856,1624,1753,2083,2200,2007,1767,1805,1957
554886,42580,9436,42411,9643,195,368,-312,-97,696,485,698,2600,44,47,857,1610,1719,1974,2100,2148,1898,1910,2068
555887,42656,9520,42476,9708,32,445,-340,-48,710,710,680,2654,48,56,857,1610,1719,1974,2100,2148,1898,1910,2068
556888,42720,9596,42541,9773,183,532,-365,5,733,686,640,2524,52,47,857,1610,1719,1974,2100,2148,1898,1910,2068
557889,42800,9676,42606,9838,-35,463,-392,74,770,758,753,2521,40,43,856,1610,1719,1974,2100,2148,1898,1910,2068
558890,42856,9768,42671,9903,276,280,-422,172,806,865,816,2497,48,58,857,1610,1719,1974,2100,2148,1898,1910,2068
559891,42924,9828,42736,9968,121,686,-469,276,836,805,769,2573,44,52,857,1687,1825,1975,2105,2190,1930,1930,2065
560892,43004,9912,42801,10033,-47,363,-524,360,869,1105,1079,2556,37,46,856,1687,1825,1975,2105,2190,1930,1930,2065
561893,43100,9988,42866,10098,-285,450,-576,404,890,1193,1127,2401,37,47,858,1687,1825,1975,2105,2190,1930,1930,2065
562894,43200,10056,42931,10163,-378,546,-613,453,911,694,858,2494,49,56,857,1687,1825,1975,2105,2190,1930,1930,2065
563895,43276,10136,42996,10228,-91,378,-678,484,933,650,897,2588,44,45,855,1687,1825,1975,2105,2190,1930,1930,2065
564896,43328,10232,43061,10293,225,140,-750,527,941,555,984,2328,44,52,857,1687,1825,1975,2105,2190,1930,1930,2065
565897,43396,10316,43126,10358,21,267,-830,627,963,464,785,2886,36,47,858,1605,1715,1959,2102,2068,1823,1834,1939
566898,43476,10396,43191,10423,-147,298,-918,759,1010,527,552,3048,49,53,859,1605,1715,1959,2102,2068,1823,1834,1939
567899,43508,10472,43256,10488,493,335,-1015,845,1051,987,571,2764,38,47,851,1605,1715,1959,2102,2068,1823,1834,1939
568900,43580,10560,43321,10553,-16,157,-1101,903,1067,723,681,3061,53,42,855,1605,1715,1959,2102,2068,1823,1834,1939
569901,43644,10640,43386,10618,86,239,-1187,984,1091,-86,436,3126,47,53,859,1605,1715,1959,2102,2068,1823,1834,1939
570902,43724,10716,43451,10683,-134,275,-1250,1051,1091,923,662,2701,36,51,858,1611,1715,1958,2080,1964,1752,1774,1905
571903,43792,10804,43516,10748,13,97,-1298,1027,1094,914,450,2563,50,52,852,1611,1715,1958,2080,1964,1752,1774,1905
572904,43864,10876,43581,10813,-46,289,-1350,1027,1101,439,-81,2553,49,49,858,1611,1715,1958,2080,1964,1752,1774,1905
573905,43940,10948,43646,10878,-109,280,-1392,1095,1099,437,68,2401,35,51,858,1611,1715,1958,2080,1964,1752,1774,1905
574906,44008,11024,43711,10943,-13,217,-1440,1221,1089,672,245,2744,39,38,854,1611,1715,1958,2080,1964,1752,1774,1905
575907,44084,11112,43776,11008,-126,39,-1513,1361,1076,989,287,2480,37,51,858,1611,1715,1958,2080,1964,1752,1774,1905
576908,44172,11168,43841,11073,-305,450,-1614,1495,1078,1272,290,2417,47,44,854,1613,1724,1982,2117,2015,1785,1815,2079
577909,44220,11248,43906,11138,216,131,-1708,1625,1085,1294,293,2596,38,45,854,1613,1724,1982,2117,2015,1785,1815,2079
578910,44276,11308,43971,11203,126,387,-1799,1765,1106,1091,645,2420,39,50,859,1613,1724,1982,2117,2015,1785,1815,2079
579911,44328,11388,44036,11268,192,119,-1880,1940,1130,1212,766,2517,33,45,857,1613,1724,1982,2117,2015,1785,1815,2079
580912,44376,11448,44101,11333,263,375,-1939,2067,1130,1468,871,2323,43,52,857,1613,1724,1982,2117,2015,1785,1815,2079
581913,44448,11528,44166,11398,-46,107,-2003,2115,1119,1093,941,2183,43,46,857,1616,1736,1974,2124,2103,1871,1890,2014
582914,44512,11612,44231,11463,55,34,-2064,2120,1126,651,755,2020,39,50,858,1616,1736,1974,2124,2103,1871,1890,2014
583915,44596,11688,44296,11528,-218,120,-2111,2175,1125,853,1112,2354,53,52,860,1616,1736,1974,2124,2103,1871,1890,2014
584916,44652,11760,44361,11593,143,162,-2153,2229,1128,774,1008,2072,39,46,847,1616,1736,1974,2124,2103,1871,1890,2014
585919,44704,11832,44426,11658,209,153,-2198,2258,1126,568,790,2230,45,55,857,1616,1736,1974,2124,2103,1871,1890,2014
586918,44752,11920,44491,11723,280,-75,-2243,2263,1136,94,574,2183,49,47,858,1616,1736,1974,2124,2103,1871,1890,2014
587919,44820,12008,44556,11788,25,-103,-2285,2287,1140,336,632,2336,34,54,858,1579,1679,1927,2077,2115,1996,2036,2028
588920,44904,12076,44621,11853,-198,143,-2318,2340,1151,373,506,2519,49,44,859,1579,1679,1927,2077,2115,1996,2036,2028
589921,44972,12164,44686,11918,-2,-136,-2361,2417,1169,885,446,2512,46,43,848,1579,1679,1927,2077,2115,1996,2036,2028
590922,45052,12296,44751,11983,-170,-768,-2420,2485,1163,1054,191,2685,39,43,857,1579,1679,1927,2077,2115,1996,2036,2028
591923,45108,12416,44816,12048,141,-685,-2489,2552,1160,563,-11,2325,39,42,846,1579,1679,1927,2077,2115,1996,2036,2028
592924,45156,12488,44881,12113,262,-93,-2542,2677,1184,938,84,2610,46,39,853,1548,1659,1914,2020,2045,1824,1824,1938
593925,45240,12548,44946,12178,-211,63,-2617,2775,1203,720,38,2626,48,30,857,1548,1659,1914,2020,2045,1824,1824,1938
594926,45304,12608,45011,12243,40,69,-2716,2852,1168,82,55,2650,33,36,848,1548,1659,1914,2020,2045,1824,1824,1938
595927,45360,12660,45076,12308,151,185,-2824,2886,1134,372,217,2423,34,32,857,1548,1659,1914,2020,2045,1824,1824,1938
596928,45440,12712,45141,12373,-168,201,-2934,2900,1130,1106,582,2303,38,30,858,1548,1659,1914,2020,2045,1824,1824,1938
597929,45520,12764,45206,12438,-187,216,-3061,2944,1121,1386,605,2147,47,46,850,1548,1659,1914,2020,2045,1824,1824,1938
598930,45588,12824,45271,12503,-40,122,-3181,3012,1092,994,86,1909,51,31,847,1583,1698,1920,2144,2088,1792,1800,1938
599931,45652,12876,45336,12568,11,238,-3266,3060,1070,371,167,2052,50,34,857,1583,1698,1920,2144,2088,1792,1800,1938
600932,45704,12932,45401,12633,177,199,-3313,3001,1110,-326,466,2023,35,30,858,1583,1698,1920,2144,2088,1792,1800,1938
601933,45784,13012,45466,12698,-192,-120,-3327,2860,1126,-389,183,2690,43,47,858,1583,1698,1920,2144,2088,1792,1800,1938
602934,45864,13064,45531,12763,-210,246,-3285,2684,1132,-610,-127,3262,51,47,849,1583,1698,1920,2144,2088,1792,1800,1938
603935,45948,13124,45596,12828,-283,152,-3183,2422,1173,-678,-248,3864,47,43,846,1596,1730,1960,2092,2024,1786,1832,1946
604936,46004,13192,45661,12893,77,49,-3032,2009,1199,-573,-3,4438,36,39,855,1596,1730,1960,2092,2024,1786,1832,1946
605937,46056,13256,45726,12958,143,99,-2882,1584,1169,-625,69,4801,53,50,859,1596,1730,1960,2092,2024,1786,1832,1946
606938,46120,13324,45791,13023,-6,45,-2755,1230,1149,-326,246,5037,49,46,859,1596,1730,1960,2092,2024,1786,1832,1946
607939,46208,13388,45856,13088,-334,96,-2653,969,1158,352,653,5326,48,47,859,1596,1730,1960,2092,2024,1786,1832,1946
608940,46272,13440,45921,13153,-33,262,-2607,809,1190,251,579,5361,46,50,858,1596,1730,1960,2092,2024,1786,1832,1946
609941,46340,13524,45986,13218,-87,-161,-2580,799,1185,900,1044,5953,39,42,858,1721,1971,2162,2268,2006,1760,1899,2055
610942,46396,13592,46051,13283,74,35,-2557,762,1167,1238,1000,5277,36,50,859,1721,1971,2162,2268,2006,1760,1899,2055
611943,46448,13672,46116,13348,140,-133,-2524,648,1149,1166,866,5237,46,38,859,1721,1971,2162,2268,2006,1760,1899,2055
612944,46528,13744,46181,13413,-229,-42,-2471,447,1148,957,716,4827,36,39,858,1721,1971,2162,2268,2006,1760,1899,2055
613945,46588,13832,46246,13478,27,-271,-2432,169,1161,396,232,4537,40,46,854,1721,1971,2162,2268,2006,1760,1899,2055
614946,46656,13904,46311,13543,-77,-79,-2395,-118,1175,74,5,4746,41,41,857,2089,2267,2391,2593,2018,1775,1957,2115
615947,46720,13968,46376,13608,-25,22,-2342,-404,1176,-42,-168,4702,48,49,857,2089,2267,2391,2593,2018,1775,1957,2115
616948,46748,14036,46441,13673,470,-32,-2271,-670,1196,-813,-619,5086,47,46,859,2089,2267,2391,2593,2018,1775,1957,2115
617949,46836,14128,46506,13738,-308,-365,-2184,-917,1221,-1131,-784,5441,47,44,857,2089,2267,2391,2593,2018,1775,1957,2115
618950,46904,14208,46571,13803,-62,-233,-2076,-1181,1249,-1299,-869,5745,33,54,847,2089,2267,2391,2593,2018,1775,1957,2115
619951,46968,14292,46636,13868,-12,-306,-1967,-1442,1291,-1330,-1307,6249,36,35,858,2089,2267,2391,2593,2018,1775,1957,2115
620952,47040,14364,46701,13933,-120,-166,-1840,-1618,1294,-1309,-1187,6964,33,50,858,2307,2447,2514,2678,2013,1773,1909,2053
621953,47080,14436,46766,13998,310,-174,-1706,-1764,1286,-1481,-1054,7127,45,46,854,2307,2447,2514,2678,2013,1773,1909,2053
622954,47148,14492,46831,14063,-43,37,-1593,-1901,1280,-1522,-1226,7418,49,34,857,2307,2447,2514,2678,2013,1773,1909,2053
623955,47224,14568,46896,14128,-157,-227,-1491,-1989,1268,-1104,-869,7415,46,47,860,2307,2447,2514,2678,2013,1773,1909,2053
624956,47288,14616,46961,14193,-6,144,-1394,-2042,1297,-930,-1105,7295,36,37,851,2307,2447,2514,2678,2013,1773,1909,2053
625957,47364,14704,47026,14258,-169,-384,-1305,-2072,1281,-688,-791,7291,33,45,858,2078,2183,2335,2526,1992,1786,1884,1967
626958,47408,14760,47091,14323,257,26,-1251,-2127,1229,-757,-571,6717,34,35,849,2078,2183,2335,2526,1992,1786,1884,1967
627959,47488,14832,47156,14388,-213,-182,-1229,-2206,1174,-640,-522,6370,33,47,857,2078,2183,2335,2526,1992,1786,1884,1967
628960,47556,14880,47221,14453,-66,138,-1217,-2228,1133,-405,-458,6194,40,46,847,2078,2183,2335,2526,1992,1786,1884,1967
629961,47616,14956,47286,14518,40,-225,-1223,-2221,1111,-106,-479,5926,57,43,856,2078,2183,2335,2526,1992,1786,1884,1967
630962,47688,15004,47351,14583,-119,146,-1200,-2128,1074,189,-229,6232,44,44,858,2078,2183,2335,2526,1992,1786,1884,1967
631963,47728,15084,47416,14648,312,-273,-1168,-1984,1049,156,-321,6265,46,47,852,1905,1962,2190,2447,2035,1880,1960,2022
632964,47816,15132,47481,14713,-316,147,-1096,-1836,1044,470,-523,6508,47,42,856,1905,1962,2190,2447,2035,1880,1960,2022
633965,47896,15196,47546,14778,-235,-52,-973,-1740,1048,89,-806,6083,48,47,857,1905,1962,2190,2447,2035,1880,1960,2022
634966,47968,15240,47611,14843,-143,224,-817,-1638,1072,-366,-1562,6616,35,44,857,1905,1962,2190,2447,2035,1880,1960,2022
635968,48040,15312,47676,14908,-153,-135,-661,-1529,1113,6,-1526,6403,36,31,859,1905,1962,2190,2447,2035,1880,1960,2022
636968,48092,15360,47741,14973,113,186,-535,-1441,1158,-302,-1556,5574,36,32,851,1798,1864,2132,2406,2188,2015,2130,2180
637969,48168,15432,47806,15038,-200,-122,-444,-1279,1205,-657,-1387,5947,51,42,856,1798,1864,2132,2406,2188,2015,2130,2180
638970,48224,15488,47871,15103,61,88,-392,-1155,1238,-607,-1303,4790,41,37,850,1798,1864,2132,2406,2188,2015,2130,2180
639971,48320,15536,47936,15168,-477,208,-381,-1000,1279,-680,-1738,4836,48,33,856,1798,1864,2132,2406,2188,2015,2130,2180
640972,48388,15540,48001,15233,-131,833,-403,-889,1283,-856,-1340,4538,38,46,855,1798,1864,2132,2406,2188,2015,2130,2180
641973,48416,15560,48066,15298,414,688,-434,-856,1264,-1340,-1282,4176,34,36,856,1798,1864,2132,2406,2188,2015,2130,2180
642974,48488,15640,48131,15363,-145,-81,-460,-788,1221,-1425,-1536,4517,46,38,853,1828,1908,2164,2435,2099,1905,1912,1954
643975,48560,15692,48196,15428,-154,285,-471,-662,1166,-254,-1468,4424,34,40,852,1828,1908,2164,2435,2099,1905,1912,1954
644976,48612,15752,48261,15493,112,191,-482,-547,1130,644,-1729,4605,35,49,851,1828,1908,2164,2435,2099,1905,1912,1954
645977,48676,15816,48326,15558,-37,143,-508,-435,1083,632,-1608,4573,38,43,856,1828,1908,2164,2435,2099,1905,1912,1954
646978,48728,15868,48391,15623,129,308,-535,-246,1024,140,-1729,4939,27,41,859,1828,1908,2164,2435,2099,1905,1912,1954
647979,48788,15944,48456,15688,35,-6,-571,23,956,429,-1887,5545,33,36,858,1847,1912,2138,2354,1996,1863,1990,1893
648980,48840,16008,48521,15753,151,145,-615,263,918,1140,-1909,5056,25,49,857,1847,1912,2138,2354,1996,1863,1990,1893
649981,48892,16068,48586,15818,166,201,-642,496,896,1519,-1943,5378,26,44,859,1847,1912,2138,2354,1996,1863,1990,1893
650982,48952,16128,48651,15883,72,207,-671,634,874,1072,-2070,4706,28,45,858,1847,1912,2138,2354,1996,1863,1990,1893
651983,49004,16188,48716,15948,188,214,-679,749,819,855,-1969,5299,24,48,858,1847,1912,2138,2354,1996,1863,1990,1893
652984,49056,16232,48781,16013,204,439,-682,815,798,837,-2063,4630,33,33,858,1847,1912,2138,2354,1996,1863,1990,1893
653985,49104,16312,48846,16078,275,-29,-655,820,795,983,-1954,4647,41,44,857,1774,1860,2055,2254,1972,1773,1855,1948
654986,49128,16368,48911,16143,625,282,-621,754,800,574,-1907,4412,40,48,858,1774,1860,2055,2254,1972,1773,1855,1948
655987,49188,16424,48976,16208,181,293,-585,646,797,436,-2003,3983,34,43,856,1774,1860,2055,2254,1972,1773,1855,1948
656988,49228,16480,49041,16273,461,304,-538,560,783,451,-1813,3969,26,33,857,1774,1860,2055,2254,1972,1773,1855,1948
657989,49272,16536,49106,16338,437,315,-489,487,799,418,-1870,3493,31,42,856,1774,1860,2055,2254,1972,1773,1855,1948
658990,49328,16584,49171,16403,298,435,-416,432,821,615,-1668,3899,42,34,856,1717,1829,2063,2329,2196,1895,1969,2057
659991,49384,16652,49236,16468,309,181,-335,348,835,309,-1745,3399,30,42,856,1717,1829,2063,2329,2196,1895,1969,2057
660992,49428,16724,49301,16533,484,122,-253,291,831,378,-1816,3786,22,46,857,1717,1829,2063,2329,2196,1895,1969,2057
661993,49472,16772,49366,16598,509,443,-190,242,826,780,-1729,3237,42,43,857,1717,1829,2063,2329,2196,1895,1969,2057
662994,49532,16832,49431,16663,315,299,-136,202,812,973,-1755,3467,32,48,855,1717,1829,2063,2329,2196,1895,1969,2057
663995,49580,16884,49496,16728,486,415,-101,200,795,851,-1706,3534,28,34,856,1717,1829,2063,2329,2196,1895,1969,2057
664996,49616,16964,49561,16793,671,47,-84,150,756,1030,-1768,3197,46,43,856,1764,1888,2088,2312,2084,1856,1934,2012
665997,49676,17024,49626,16858,377,303,-82,90,717,981,-1849,3505,47,36,854,1764,1888,2088,2312,2084,1856,1934,2012
666998,49720,17060,49691,16923,603,638,-92,51,671,936,-1841,3498,41,39,856,1764,1888,2088,2312,2084,1856,1934,2012
667999,49788,17120,49756,16988,299,344,-111,51,609,919,-1996,3995,42,49,853,1764,1888,2088,2312,2084,1856,1934,2012
669000,49848,17172,49821,17053,406,460,-149,53,540,1156,-1901,3928,47,38,856,1764,1888,2088,2312,2084,1856,1934,2012
670001,49904,17248,49886,17118,467,147,-170,29,489,1027,-1997,4145,29,42,856,1826,2032,2218,2324,1931,1714,1802,1888
671002,49960,17304,49951,17183,478,408,-182,-6,432,796,-1925,4295,28,40,856,1826,2032,2218,2324,1931,1714,1802,1888
672003,50016,17368,50016,17248,489,309,-203,-39,384,350,-1998,4105,33,37,855,1826,2032,2218,2324,1931,1714,1802,1888
673004,50052,17444,50081,17313,774,146,-225,-28,318,366,-1542,4303,46,47,855,1826,2032,2218,2324,1931,1714,1802,1888
674005,50116,17484,50146,17378,425,626,-277,-136,320,-3,-1895,3328,50,51,854,1826,2032,2218,2324,1931,1714,1802,1888
675006,50168,17552,50211,17443,591,271,-277,-234,273,-405,-1749,3287,34,35,854,1826,2032,2218,2324,1931,1714,1802,1888
676007,50220,17624,50276,17508,607,213,-293,-308,217,129,-1827,3956,52,38,854,1803,1907,2090,2278,1911,1711,1802,1907
677008,50288,17684,50341,17573,403,369,-300,-497,227,484,-1505,1965,41,37,855,1803,1907,2090,2278,1911,1711,1802,1907
678009,50336,17744,50406,17638,674,375,-231,-619,230,-366,-2027,3660,51,35,856,1803,1907,2090,2278,1911,1711,1802,1907
679010,50408,17796,50471,17703,365,491,-135,-650,237,-138,-2080,3605,39,43,854,1803,1907,2090,2278,1911,1711,1802,1907
680011,50456,17872,50536,17768,686,178,-24,-672,253,757,-1893,3221,47,47,855,1803,1907,2090,2278,1911,1711,1802,1907
681012,50524,17936,50601,17833,432,329,93,-605,266,1129,-1921,4272,47,50,854,1795,1850,2042,2225,2011,1797,1881,1986
682013,50576,17988,50666,17898,648,495,191,-563,276,1156,-1542,3717,41,38,856,1795,1850,2042,2225,2011,1797,1881,1986
683014,50656,18060,50731,17963,280,236,259,-526,293,1024,-1269,3991,53,39,852,1795,1850,2042,2225,2011,1797,1881,1986
684015,50728,18128,50796,18028,372,282,286,-456,308,1027,-1204,3916,47,37,855,1795,1850,2042,2225,2011,1797,1881,1986
685016,50792,18184,50861,18093,473,443,281,-400,309,964,-772,3652,53,40,857,1795,1850,2042,2225,2011,1797,1881,1986
686020,50856,18240,50926,18158,474,454,280,-344,297,909,-741,3768,38,50,856,1795,1850,2042,2225,2011,1797,1881,1986
687018,50924,18296,50991,18223,421,465,263,-360,279,585,-757,3390,42,35,855,1741,1850,2040,2265,2022,1815,1893,1957
688019,51000,18372,51056,18288,308,202,257,-424,255,308,-963,3218,54,36,855,1741,1850,2040,2265,2022,1815,1893,1957
689020,51076,18424,51121,18353,294,518,274,-483,236,-41,-1235,3374,49,48,856,1741,1850,2040,2265,2022,1815,1893,1957
690021,51136,18488,51186,18418,501,369,293,-545,197,16,-1237,3412,37,40,856,1741,1850,2040,2265,2022,1815,1893,1957
691022,51212,18548,51251,18483,287,425,334,-569,158,62,-1449,3761,41,38,856,1741,1850,2040,2265,2022,1815,1893,1957
692023,51276,18604,51316,18548,438,486,364,-585,124,13,-1597,3895,34,30,856,1782,1867,2083,2333,2002,1801,1853,1921
693024,51344,18664,51381,18613,385,442,397,-544,90,191,-1798,3953,51,45,855,1782,1867,2083,2333,2002,1801,1853,1921
694025,51412,18720,51446,18678,381,503,420,-461,74,262,-1919,4215,34,44,855,1782,1867,2083,2333,2002,1801,1853,1921
695026,51464,18780,51511,18743,597,459,439,-363,63,341,-2009,4174,31,32,855,1782,1867,2083,2333,2002,1801,1853,1921
696027,51544,18836,51576,18808,229,520,462,-252,57,313,-2115,4320,48,33,854,1782,1867,2083,2333,2002,1801,1853,1921
697028,51588,18896,51641,18873,704,476,468,-138,66,462,-2041,4351,32,46,855,1797,1885,2114,2334,1973,1774,1987,2033
698029,51644,18948,51706,18938,565,592,492,-33,85,727,-2031,4379,32,34,854,1797,1885,2114,2334,1973,1774,1987,2033
699030,51716,19012,51771,19003,357,444,504,53,117,596,-1990,4384,38,47,853,1797,1885,2114,2334,1973,1774,1987,2033
700031,51776,19068,51836,19068,513,555,515,154,132,639,-1777,4444,48,44,853,1797,1885,2114,2334,1973,1774,1987,2033
701032,51824,19132,51901,19133,683,456,514,225,154,742,-1553,4140,34,33,854,1797,1885,2114,2334,1973,1774,1987,2033
702033,51880,19196,52100,19332,758,621,510,294,175,861,-1368,4190,47,51,853,1797,1885,2114,2334,1973,1774,1987,2033
703034,51940,19260,52165,19397,714,622,510,348,186,780,-1095,4032,34,39,852,1796,1893,2111,2324,1979,1796,1864,1940
704035,52004,19316,52230,19462,665,733,512,391,187,746,-929,4017,37,40,851,1796,1893,2111,2324,1979,1796,1864,1940
705036,52056,19400,52295,19527,831,360,517,421,194,692,-788,3931,40,45,851,1796,1893,2111,2324,1979,1796,1864,1940
706037,52132,19468,52360,19592,518,556,542,419,183,798,-685,3791,57,40,852,1796,1893,2111,2324,1979,1796,1864,1940
707038,52188,19532,52425,19657,779,607,580,441,166,986,-600,3935,42,52,853,1796,1893,2111,2324,1979,1796,1864,1940
708039,52244,19600,52490,19722,790,553,626,446,149,987,-471,3840,47,44,852,1773,1862,2075,2301,2137,1955,1905,1986
709040,52320,19680,52555,19787,526,385,683,475,120,811,-318,4127,51,53,851,1773,1862,2075,2301,2137,1955,1905,1986
710041,52396,19748,52620,19852,513,531,736,474,98,612,-547,3797,40,51,853,1773,1862,2075,2301,2137,1955,1905,1986
711042,52468,19820,52685,19917,555,473,800,473,74,846,-497,4186,42,53,854,1773,1862,2075,2301,2137,1955,1905,1986
712043,52536,19908,52750,19982,602,245,864,433,59,890,-579,3696,38,37,854,1773,1862,2075,2301,2137,1955,1905,1986
713044,52608,19956,52815,20047,543,766,922,410,53,804,-713,3995,57,41,855,1773,1862,2075,2301,2137,1955,1905,1986
714045,52656,20032,52880,20112,864,402,974,407,50,679,-759,3866,39,51,854,1750,1851,2071,2282,2052,1829,1882,1978
715046,52736,20128,52945,20177,446,114,1011,398,53,769,-820,3758,59,54,852,1750,1851,2071,2282,2052,1829,1882,1978
716047,52816,20200,53010,20242,427,406,1041,410,54,996,-824,4097,41,38,854,1750,1851,2071,2282,2052,1829,1882,1978
717048,52884,20256,53075,20307,574,617,1061,425,58,988,-891,3865,46,52,855,1750,1851,2071,2282,2052,1829,1882,1978
718049,52952,20324,53140,20372,570,463,1070,437,68,1020,-900,3942,37,47,853,1750,1851,2071,2282,2052,1829,1882,1978
719050,53020,20384,53205,20437,566,569,1076,450,90,966,-773,3993,38,39,853,1781,1892,2207,2394,1981,1763,1827,1931
720051,53092,20472,53270,20502,508,191,1065,464,112,842,-864,3864,45,50,853,1781,1892,2207,2394,1981,1763,1827,1931
721052,53148,20556,53335,20567,719,218,1052,475,117,1024,-730,3889,53,52,855,1781,1892,2207,2394,1981,1763,1827,1931
722053,53212,20612,53400,20632,620,579,1024,472,122,979,-659,3680,39,53,855,1781,1892,2207,2394,1981,1763,1827,1931
723054,53280,20672,53465,20697,566,535,998,454,130,759,-608,3698,55,47,854,1781,1892,2207,2394,1981,1763,1827,1931
724055,53344,20736,53530,20762,618,486,969,447,130,589,-439,3729,42,37,853,1781,1892,2207,2394,1981,1763,1827,1931
725056,53420,20796,53595,20827,455,542,939,414,129,508,-374,3449,44,42,853,1811,1919,2131,2319,1965,1755,1823,1931
726057,53480,20872,53660,20892,661,329,922,383,119,488,-283,3643,37,36,854,1811,1919,2131,2319,1965,1755,1823,1931
727058,53536,20952,53725,20957,722,261,927,332,108,510,-191,3571,37,37,854,1811,1919,2131,2319,1965,1755,1823,1931
728059,53596,21020,53790,21022,678,407,944,298,96,596,-123,3771,37,40,854,1811,1919,2131,2319,1965,1755,1823,1931
729060,53664,21088,53855,21087,575,403,982,277,96,618,-63,3780,38,51,854,1811,1919,2131,2319,1965,1755,1823,1931
730061,53732,21160,53920,21152,571,345,1019,264,85,625,104,3845,38,47,854,1824,1975,2082,2263,2037,1818,1878,1994
731062,53804,21232,53985,21217,512,336,1069,253,63,668,123,3889,43,47,854,1824,1975,2082,2263,2037,1818,1878,1994
732063,53864,21288,54050,21282,669,547,1115,240,59,752,112,3891,37,30,855,1824,1975,2082,2263,2037,1818,1878,1994
733064,53936,21348,54115,21347,510,503,1161,231,65,802,146,3950,35,34,854,1824,1975,2082,2263,2037,1818,1878,1994
734065,53984,21400,54180,21412,831,619,1204,223,73,704,88,3744,43,30,851,1824,1975,2082,2263,2037,1818,1878,1994
735066,54044,21448,54245,21477,687,690,1244,206,82,605,78,3752,36,40,853,1824,1975,2082,2263,2037,1818,1878,1994
736067,54116,21516,54310,21542,528,436,1270,199,96,558,93,3601,54,45,850,1726,1828,2056,2241,2082,1858,1901,2011
737068,54180,21568,54375,21607,630,652,1293,183,117,600,119,3522,38,44,851,1726,1828,2056,2241,2082,1858,1901,2011
738069,54236,21648,54440,21672,741,284,1309,183,145,505,28,3596,50,44,854,1726,1828,2056,2241,2082,1858,1901,2011
739070,54328,21692,54505,21737,259,759,1330,176,167,562,190,3661,52,38,852,1726,1828,2056,2241,2082,1858,1901,2011
740071,54372,21752,54570,21802,884,566,1340,201,180,429,183,3657,38,46,853,1726,1828,2056,2241,2082,1858,1901,2011
741072,54444,21812,54635,21867,526,572,1333,211,199,484,93,3631,55,42,854,1744,1854,2096,2256,2048,1824,1864,1968
742073,54512,21888,54700,21932,572,358,1317,249,215,468,31,3622,36,39,851,1744,1854,2096,2256,2048,1824,1864,1968
743074,54592,21960,54765,21997,404,400,1298,265,225,341,72,3722,39,32,853,1744,1854,2096,2256,2048,1824,1864,1968
744075,54672,22008,54830,22062,385,720,1291,268,239,194,35,3788,48,40,854,1744,1854,2096,2256,2048,1824,1864,1968
745076,54724,22052,54895,22127,751,796,1284,265,237,215,-18,4094,43,29,855,1744,1854,2096,2256,2048,1824,1864,1968
746077,54788,22124,54960,22192,602,438,1297,289,223,316,-46,4361,38,44,853,1744,1854,2096,2256,2048,1824,1864,1968
747078,54844,22188,55025,22257,713,539,1298,277,202,365,18,4071,45,35,850,1773,1869,2113,2302,1990,1778,1821,2042
748079,54920,22256,55090,22322,450,485,1290,250,189,265,-23,4306,39,37,854,1773,1869,2113,2302,1990,1778,1821,2042
749080,54980,22316,55155,22387,656,592,1271,241,176,436,114,4348,40,38,852,1773,1869,2113,2302,1990,1778,1821,2042
750081,55040,22384,55220,22452,662,489,1264,267,164,575,103,4428,36,31,854,1773,1869,2113,2302,1990,1778,1821,2042
751082,55096,22444,55285,22517,723,595,1224,294,150,854,304,4100,34,37,850,1773,1869,2113,2302,1990,1778,1821,2042
752083,55164,22500,55350,22582,570,656,1175,312,151,683,471,3588,53,45,852,1783,1883,2123,2311,2013,1807,1861,1979
753084,55220,22564,55415,22647,731,557,1127,331,164,285,367,3968,35,32,852,1783,1883,2123,2311,2013,1807,1861,1979
754085,55272,22628,55480,22712,796,558,1111,344,179,327,279,3840,42,38,852,1783,1883,2123,2311,2013,1807,1861,1979
755086,55356,22676,55545,22777,374,779,1125,397,181,795,297,3927,34,42,852,1783,1883,2123,2311,2013,1807,1861,1979
756087,55408,22744,55610,22842,790,525,1160,443,186,948,344,3990,45,32,851,1783,1883,2123,2311,2013,1807,1861,1979
757088,55468,22800,55675,22907,696,686,1210,467,203,632,347,4011,41,49,853,1783,1883,2123,2311,2013,1807,1861,1979
759090,55596,22928,55805,23037,599,489,1282,456,220,566,664,3731,53,47,851,1774,1875,2112,2291,2112,1995,2128,2053
760091,55660,23000,55870,23102,650,480,1318,439,222,218,614,3918,54,33,851,1774,1875,2112,2291,2112,1995,2128,2053
761092,55708,23060,55935,23167,871,636,1352,442,233,165,243,4079,52,33,853,1774,1875,2112,2291,2112,1995,2128,2053
762093,55776,23112,56000,23232,617,752,1390,445,227,595,518,4177,50,42,853,1774,1875,2112,2291,2112,1995,2128,2053
763094,55844,23156,56065,23297,613,878,1411,414,214,569,666,4122,45,44,850,1741,1845,2089,2271,2113,1883,1909,2017
764095,55892,23236,56130,23362,884,409,1404,347,219,45,789,3745,53,41,851,1741,1845,2089,2271,2113,1883,1909,2017
765096,55972,23296,56195,23427,466,665,1388,270,209,-288,690,3917,53,44,850,1741,1845,2089,2271,2113,1883,1909,2017
766097,56028,23364,56260,23492,777,562,1355,181,187,-109,402,4182,46,36,851,1741,1845,2089,2271,2113,1883,1909,2017
767098,56100,23412,56325,23557,569,833,1298,121,166,660,583,3952,51,44,853,1741,1845,2089,2271,2113,1883,1909,2017
768099,56168,23456,56390,23622,615,908,1254,105,161,705,541,4169,40,31,850,1741,1845,2089,2271,2113,1883,1909,2017
769100,56216,23520,56455,23687,886,659,1213,126,153,352,321,4345,48,31,850,1751,1855,2101,2366,2135,1819,1855,1980
770101,56284,23596,56520,23752,633,496,1177,176,151,570,462,4516,45,44,850,1751,1855,2101,2366,2135,1819,1855,1980
771102,56344,23648,56585,23817,739,812,1149,247,173,919,361,4385,51,33,849,1751,1855,2101,2366,2135,1819,1855,1980
772103,56408,23696,56650,23882,690,883,1114,319,193,879,297,4481,43,36,853,1751,1855,2101,2366,2135,1819,1855,1980
773104,56476,23764,56715,23947,636,630,1091,370,202,566,257,4300,52,45,850,1751,1855,2101,2366,2135,1819,1855,1980
774105,56524,23828,56780,24012,907,681,1070,416,203,578,171,4188,50,49,850,1765,1872,2116,2274,2049,1829,1870,2011
775106,56576,23896,56845,24077,873,627,1053,437,200,667,179,4099,50,49,851,1765,1872,2116,2274,2049,1829,1870,2011
776107,56628,23968,56910,24142,889,569,1038,413,199,420,248,3800,51,38,849,1765,1872,2116,2274,2049,1829,1870,2011
777108,56692,24024,56975,24207,740,780,1030,399,196,-93,475,4137,50,46,850,1765,1872,2116,2274,2049,1829,1870,2011
778109,56752,24080,57040,24272,797,791,1017,341,195,-273,623,3710,40,34,851,1765,1872,2116,2274,2049,1829,1870,2011
779110,56828,24144,57105,24337,584,692,1015,301,188,-100,643,3938,39,36,850,1765,1872,2116,2274,2049,1829,1870,2011
780111,56892,24204,57170,24402,735,748,1009,258,180,-73,845,3683,36,45,849,1739,1951,2207,2271,2103,1883,1903,2015
781112,56952,24272,57235,24467,791,645,987,227,189,-610,855,4030,44,37,852,1739,1951,2207,2271,2103,1883,1903,2015
782113,57016,24340,57300,24532,742,641,947,225,180,-270,741,4150,39,47,850,1739,1951,2207,2271,2103,1883,1903,2015
783114,57080,24396,57365,24597,743,802,891,187,166,811,556,3524,39,47,850,1739,1951,2207,2271,2103,1883,1903,2015
784115,57140,24444,57430,24662,800,923,846,33,175,1451,616,2923,42,44,851,1739,1951,2207,2271,2103,1883,1903,2015
785116,57204,24504,57495,24727,751,779,799,-155,198,-108,1327,2973,38,42,848,1753,1855,2107,2283,2147,1918,1943,2073
786117,57272,24568,57560,24792,697,730,762,-137,170,-900,1393,4241,53,35,847,1753,1855,2107,2283,2147,1918,1943,2073
787118,57320,24636,57625,24857,968,677,726,-5,150,835,886,4212,45,43,850,1753,1855,2107,2283,2147,1918,1943,2073
788119,57384,24684,57690,24922,770,948,739,99,146,2051,761,4067,51,38,851,1753,1855,2107,2283,2147,1918,1943,2073
789120,57440,24760,57755,24987,881,585,759,118,154,953,690,4046,51,46,848,1753,1855,2107,2283,2147,1918,1943,2073
790121,57512,24816,57820,25052,672,846,772,90,163,379,649,4244,51,46,848,1753,1855,2107,2283,2147,1918,1943,2073
791122,57580,24896,57885,25117,719,527,785,79,173,405,702,4115,45,43,850,1762,1810,2057,2204,2118,1879,1897,2034
792123,57640,24960,57950,25182,825,728,790,88,164,440,534,4476,36,42,850,1762,1810,2057,2204,2118,1879,1897,2034
793124,57692,25044,58015,25247,941,455,787,130,149,488,531,4639,35,47,852,1762,1810,2057,2204,2118,1879,1897,2034
794125,57768,25112,58080,25312,627,652,775,162,138,343,680,4468,36,41,850,1762,1810,2057,2204,2118,1879,1897,2034
795126,57812,25164,58145,25377,1053,868,743,137,132,-69,699,4198,44,51,851,1762,1810,2057,2204,2118,1879,1897,2034
796127,57876,25236,58210,25442,805,609,714,77,120,-422,782,4166,51,51,852,1700,1816,2075,2235,2054,1829,1856,1979
797128,57928,25312,58275,25507,971,546,669,19,108,-472,784,4092,35,49,846,1700,1816,2075,2235,2054,1829,1856,1979
798129,57992,25396,58340,25572,822,422,622,-2,100,-233,832,3914,38,42,851,1700,1816,2075,2235,2054,1829,1856,1979
799130,58028,25464,58405,25637,1208,619,564,-25,95,-80,967,3900,53,40,849,1700,1816,2075,2235,2054,1829,1856,1979
800131,58108,25544,58470,25702,639,451,501,-30,87,-285,989,3777,47,44,851,1700,1816,2075,2235,2054,1829,1856,1979
801132,58164,25612,58535,25767,950,598,445,-32,76,-264,1155,3764,54,48,847,1700,1816,2075,2235,2054,1829,1856,1979
802133,58220,25680,58600,25832,961,594,398,-33,73,-106,1140,3619,38,44,851,1779,1890,2154,2341,2053,1847,1884,2007
803134,58288,25748,58665,25897,808,590,362,-17,63,270,1212,3677,48,45,848,1779,1890,2154,2341,2053,1847,1884,2007
804135,58336,25812,58730,25962,1079,642,336,39,42,407,1252,3927,46,40,849,1779,1890,2154,2341,2053,1847,1884,2007
805136,58400,25868,58795,26027,881,753,330,91,21,394,1168,3596,35,47,851,1779,1890,2154,2341,2053,1847,1884,2007
806137,58456,25908,58860,26092,992,983,338,159,1,370,1086,4052,52,33,847,1779,1890,2154,2341,2053,1847,1884,2007
807138,58508,25988,58925,26157,1058,465,366,200,-25,520,1211,3903,41,46,849,1804,1897,2158,2335,2106,1896,2071,2158
808139,58580,26032,58990,26222,799,940,398,225,-44,447,1127,4126,51,42,846,1804,1897,2158,2335,2106,1896,2071,2158
809140,58648,26100,59055,26287,845,637,440,251,-62,400,1070,3976,44,43,849,1804,1897,2158,2335,2106,1896,2071,2158
810141,58700,26156,59120,26352,1062,798,488,254,-83,311,1226,4181,46,42,847,1804,1897,2158,2335,2106,1896,2071,2158
811144,58760,26228,59185,26417,968,589,526,230,-84,-84,982,4024,37,48,850,1804,1897,2158,2335,2106,1896,2071,2158
812143,58828,26292,59250,26482,865,690,549,213,-93,-41,1136,4274,41,49,847,1804,1897,2158,2335,2106,1896,2071,2158
813144,58868,26336,59315,26547,1245,966,570,199,-96,-87,1212,4145,46,48,849,1747,1834,2100,2280,2072,1860,1872,1974
814145,58936,26396,59380,26612,891,772,586,191,-94,-355,1211,4307,38,37,849,1747,1834,2100,2280,2072,1860,1872,1974
815146,59000,26484,59445,26677,943,395,595,203,-104,-328,1148,4341,45,38,843,1747,1834,2100,2280,2072,1860,1872,1974
816147,59056,26544,59510,26742,1054,751,593,196,-96,-346,946,4208,34,50,848,1747,1834,2100,2280,2072,1860,1872,1974
817148,59116,26600,59575,26807,1011,812,579,212,-96,-156,1047,4400,47,36,851,1747,1834,2100,2280,2072,1860,1872,1974
818149,59148,26656,59640,26872,1401,823,544,231,-84,-115,998,4168,40,51,847,1738,1812,2064,2280,2090,1925,1834,1923
819150,59216,26724,59705,26937,947,670,501,271,-77,20,1121,4261,43,42,846,1738,1812,2064,2280,2090,1925,1834,1923
820151,59268,26780,59770,27002,1163,830,456,293,-71,-242,1100,3899,39,51,841,1738,1812,2064,2280,2090,1925,1834,1923
821152,59328,26848,59835,27067,1069,677,427,339,-81,-153,1031,4220,54,48,849,1738,1812,2064,2280,2090,1925,1834,1923
822153,59396,26920,59900,27132,967,618,408,364,-89,-140,932,3874,38,36,845,1738,1812,2064,2280,2090,1925,1834,1923
823154,59452,26960,59965,27197,1128,1049,387,369,-97,-151,887,3755,38,36,847,1738,1812,2064,2280,2090,1925,1834,1923
824155,59508,27020,60030,27262,1139,805,380,383,-111,-239,828,3717,54,38,849,1799,1899,2160,2348,2039,1839,1878,2008
825156,59588,27088,60095,27327,820,701,381,380,-122,-192,975,3752,39,44,844,1799,1899,2160,2348,2039,1839,1878,2008
826157,59644,27136,60160,27392,1131,972,385,366,-137,-26,903,3445,39,41,846,1799,1899,2160,2348,2039,1839,1878,2008
827158,59708,27212,60225,27457,1034,609,384,359,-157,79,782,3493,50,38,849,1799,1899,2160,2348,2039,1839,1878,2008
828159,59756,27276,60290,27522,1254,761,382,329,-177,120,803,3389,55,45,845,1799,1899,2160,2348,2039,1839,1878,2008
829160,59820,27352,60355,27587,1056,597,389,289,-185,136,872,3321,37,49,848,1798,1897,2256,2423,2092,1874,1902,2032
830161,59876,27404,60420,27652,1167,913,401,278,-190,104,987,3599,40,49,844,1798,1897,2256,2423,2092,1874,1902,2032
831162,59964,27484,60485,27717,738,545,427,287,-196,-85,1034,3678,51,50,848,1798,1897,2256,2423,2092,1874,1902,2032
832163,60016,27564,60550,27782,1205,527,454,321,-198,-39,1022,3949,53,47,844,1798,1897,2256,2423,2092,1874,1902,2032
833164,60084,27612,60615,27847,1002,947,478,338,-193,83,961,3838,50,35,851,1798,1897,2256,2423,2092,1874,1902,2032
834165,60132,27680,60680,27912,1272,694,489,319,-172,41,933,3710,51,37,847,1798,1897,2256,2423,2092,1874,1902,2032
835166,60208,27732,60745,27977,909,910,502,262,-134,-204,1048,3773,45,41,846,1753,1848,2096,2258,2071,1851,1876,1989
836167,60256,27800,60810,28042,1280,706,486,217,-133,-326,1319,3975,49,40,843,1753,1848,2096,2258,2071,1851,1876,1989
837168,60316,27840,60875,28107,1137,1086,480,175,-125,-330,1229,3809,34,35,845,1753,1848,2096,2258,2071,1851,1876,1989
838169,60376,27904,60940,28172,1143,788,464,136,-114,-27,1281,4046,37,37,845,1753,1848,2096,2258,2071,1851,1876,1989
839170,60440,27956,61005,28237,1094,955,463,107,-90,-212,1130,3961,39,41,843,1753,1848,2096,2258,2071,1851,1876,1989
840171,60492,28020,61070,28302,1260,806,452,78,-84,-85,1158,4084,36,50,845,1776,1928,2066,2244,2022,1810,1843,1957
841172,60540,28076,61135,28367,1331,917,436,47,-76,48,1108,4001,44,48,844,1776,1928,2066,2244,2022,1810,1843,1957
842173,60616,28140,61200,28432,968,818,405,26,-63,-18,1115,4000,37,39,844,1776,1928,2066,2244,2022,1810,1843,1957
843174,60684,28212,61265,28497,1065,709,377,31,-71,-15,1106,3958,56,47,842,1776,1928,2066,2244,2022,1810,1843,1957
844175,60732,28272,61330,28562,1335,866,358,28,-71,-27,987,3771,54,42,847,1776,1928,2066,2244,2022,1810,1843,1957
845176,60792,28328,61395,28627,1192,926,349,55,-78,137,910,3920,40,40,847,1776,1928,2066,2244,2022,1810,1843,1957
846177,60844,28388,61460,28692,1308,883,333,72,-74,-74,782,3733,40,40,843,1755,1856,2116,2294,2038,1833,1867,1996
847178,60900,28468,61525,28757,1269,614,326,88,-80,105,746,3683,40,54,844,1755,1856,2116,2294,2038,1833,1867,1996
848179,60960,28528,61590,28822,1226,871,311,59,-74,164,692,3367,40,52,843,1755,1856,2116,2294,2038,1833,1867,1996
849180,61028,28580,61655,28887,1122,987,314,49,-74,79,828,3671,56,49,846,1755,1856,2116,2294,2038,1833,1867,1996
850181,61096,28644,61720,28952,1118,838,304,22,-68,-260,940,3398,52,47,844,1755,1856,2116,2294,2038,1833,1867,1996
851182,61148,28720,61785,29017,1335,675,303,11,-70,-283,858,3607,40,52,845,1798,1897,2169,2345,2089,1874,1897,2018
852183,61212,28788,61850,29082,1186,771,300,13,-62,-114,869,3550,51,38,845,1798,1897,2169,2345,2089,1874,1897,2018
853184,61272,28856,61915,29147,1242,768,295,2,-59,46,1062,3593,55,49,843,1798,1897,2169,2345,2089,1874,1897,2018
854185,61344,28920,61980,29212,1084,819,285,-22,-40,-370,1035,3696,52,39,844,1798,1897,2169,2345,2089,1874,1897,2018
855186,61396,28968,62045,29277,1351,1040,281,-29,-26,-204,1193,3813,52,45,845,1798,1897,2169,2345,2089,1874,1897,2018
856187,61464,29044,62110,29342,1147,676,263,-50,-11,-89,1173,3671,52,40,846,1798,1897,2169,2345,2089,1874,1897,2018
857188,61528,29100,62175,29407,1198,938,248,-58,3,-22,1249,3962,40,41,841,1783,1871,2137,2311,2080,1871,1892,2118
858189,61588,29172,62240,29472,1254,730,235,-37,13,133,1298,4082,49,49,846,1783,1871,2137,2311,2080,1871,1892,2118
859190,61636,29236,62305,29537,1426,831,218,-14,26,165,1254,4104,48,47,844,1783,1871,2137,2311,2080,1871,1892,2118
860191,61700,29300,62370,29602,1227,832,215,-4,42,236,1292,4296,36,47,845,1783,1871,2137,2311,2080,1871,1892,2118
861192,61768,29352,62435,29667,1174,998,218,4,47,158,1378,4228,38,52,842,1783,1871,2137,2311,2080,1871,1892,2118
862193,61824,29408,62500,29732,1335,959,220,26,57,74,1182,4442,49,44,844,1720,1841,2095,2240,2048,1856,1872,1988
863194,61860,29472,62565,29797,1621,860,233,55,68,284,1071,4231,39,41,843,1720,1841,2095,2240,2048,1856,1872,1988
864195,61928,29536,62630,29862,1217,861,239,67,80,277,991,4253,47,50,842,1720,1841,2095,2240,2048,1856,1872,1988
865196,61964,29616,62695,29927,1653,643,238,73,86,150,1001,4106,39,57,839,1720,1841,2095,2240,2048,1856,1872,1988
866197,62020,29668,62760,29992,1414,1010,230,80,94,99,1032,4137,36,47,844,1720,1841,2095,2240,2048,1856,1872,1988
867198,62084,29740,62825,30057,1316,751,222,94,99,125,967,3996,45,50,841,1720,1841,2095,2240,2048,1856,1872,1988
868199,62120,29800,62890,30122,1701,908,210,104,109,50,911,3921,50,53,840,1737,1831,2107,2293,2068,1979,2031,2002
869200,62184,29880,62955,30187,1353,639,197,100,112,174,899,3749,37,44,844,1737,1831,2107,2293,2068,1979,2031,2002
870201,62220,29928,63020,30252,1739,1060,182,83,126,-37,837,3696,39,46,838,1737,1831,2107,2293,2068,1979,2031,2002
871202,62292,29988,63085,30317,1281,916,156,75,122,-147,1007,3714,52,55,843,1737,1831,2107,2293,2068,1979,2031,2002
872203,62340,30060,63150,30382,1601,758,135,82,144,-72,973,3699,44,43,837,1737,1831,2107,2293,2068,1979,2031,2002
873204,62412,30140,63215,30447,1294,639,108,100,174,158,1030,3728,52,57,843,1792,1886,2167,2359,2080,1870,1889,2008
874205,62476,30204,63280,30512,1395,841,83,121,189,186,871,3551,59,42,841,1792,1886,2167,2359,2080,1870,1889,2008
875206,62544,30280,63345,30577,1341,678,56,134,200,299,826,3705,54,52,845,1792,1886,2167,2359,2080,1870,1889,2008
876207,62588,30336,63410,30642,1667,939,30,147,212,319,1065,3780,51,44,843,1792,1886,2167,2359,2080,1870,1889,2008
877208,62652,30392,63475,30707,1419,950,10,161,243,67,950,3886,57,43,845,1792,1886,2167,2359,2080,1870,1889,2008
878209,62732,30456,63540,30772,1201,851,-1,208,253,283,1129,4033,59,43,839,1792,1886,2167,2359,2080,1870,1889,2008
879210,62804,30528,63605,30837,1292,743,-11,244,274,322,1005,4050,46,45,841,1804,1896,2160,2425,2176,1872,1887,2004
880211,62864,30604,63670,30902,1449,679,-12,281,296,428,1054,4186,42,45,844,1804,1896,2160,2425,2176,1872,1887,2004
881212,62924,30668,63735,30967,1455,830,-3,287,301,364,1156,4126,43,50,844,1804,1896,2160,2425,2176,1872,1887,2004
882213,62992,30728,63800,31032,1352,887,-7,284,300,310,1151,4370,38,44,843,1804,1896,2160,2425,2176,1872,1887,2004
883214,63060,30796,63865,31097,1349,784,-6,302,294,413,1222,4283,39,44,842,1804,1896,2160,2425,2176,1872,1887,2004
884215,63108,30852,63930,31162,1620,945,0,305,304,302,1254,4288,37,50,842,1745,1837,2095,2271,2076,1861,1881,1993
885216,63176,30928,63995,31227,1366,681,-1,328,311,288,1234,4401,47,47,844,1745,1837,2095,2271,2076,1861,1881,1993
886217,63232,30992,64060,31292,1528,833,-19,347,318,327,1153,4100,41,45,839,1745,1837,2095,2271,2076,1861,1881,1993
887218,63288,31072,64125,31357,1539,614,-28,358,328,394,1210,4088,44,44,843,1745,1837,2095,2271,2076,1861,1881,1993
888219,63352,31144,64190,31422,1440,706,-48,327,351,103,1120,3813,49,47,839,1745,1837,2095,2271,2076,1861,1881,1993
889220,63416,31196,64255,31487,1442,972,-57,312,362,179,1090,3894,45,47,843,1745,1837,2095,2271,2076,1861,1881,1993
890221,63464,31260,64320,31552,1663,823,-75,299,381,245,1117,3856,53,58,843,1735,1933,2211,2296,2083,1874,1893,2009
891222,63524,31348,64385,31617,1520,495,-91,324,396,327,1002,3856,54,58,841,1735,1933,2211,2296,2083,1874,1893,2009
892223,63580,31444,64450,31682,1581,358,-109,346,409,413,1005,3871,42,48,839,1735,1933,2211,2296,2083,1874,1893,2009
893224,63632,31488,64515,31747,1647,1034,-107,364,420,432,1019,3770,39,44,843,1735,1933,2211,2296,2083,1874,1893,2009
894225,63696,31560,64580,31812,1499,675,-103,371,430,291,1136,3838,56,56,844,1735,1933,2211,2296,2083,1874,1893,2009
895226,63756,31624,64645,31877,1555,776,-90,375,430,333,1091,3732,60,47,838,1768,1860,2144,2311,2079,1868,1882,1988
896227,63832,31680,64710,31942,1342,887,-95,385,442,491,916,3741,57,57,843,1768,1860,2144,2311,2079,1868,1882,1988
897228,63900,31748,64775,32007,1439,734,-103,399,457,524,1034,3724,49,54,841,1768,1860,2144,2311,2079,1868,1882,1988
898229,63960,31828,64840,32072,1545,565,-117,410,459,287,1144,3719,43,60,843,1768,1860,2144,2311,2079,1868,1882,1988
899230,64028,31884,64905,32137,1442,876,-137,421,446,380,1115,3901,57,46,843,1768,1860,2144,2311,2079,1868,1882,1988
900231,64096,31948,64970,32202,1438,778,-152,437,442,525,1147,3779,56,42,843,1768,1860,2144,2311,2079,1868,1882,1988
901232,64164,32024,65035,32267,1435,614,-169,463,439,476,1248,3933,40,53,842,1836,1886,2144,2320,2047,1840,1872,1983
902233,64220,32100,65100,32332,1597,601,-192,492,440,353,1241,3903,44,57,843,1836,1886,2144,2320,2047,1840,1872,1983
903234,64288,32156,65165,32397,1443,863,-213,529,429,452,1409,4044,54,44,844,1836,1886,2144,2320,2047,1840,1872,1983
904235,64340,32228,65230,32462,1659,654,-234,535,435,465,1361,3957,44,48,840,1836,1886,2144,2320,2047,1840,1872,1983
905236,64408,32300,65295,32527,1456,646,-238,535,436,314,1556,4153,37,46,840,1836,1886,2144,2320,2047,1840,1872,1983
906237,64484,32364,65360,32592,1343,747,-254,507,429,33,1468,3929,49,54,841,1779,1871,2135,2319,2047,1845,1871,1981
907238,64544,32436,65425,32657,1549,638,-249,502,423,115,1369,4040,50,51,843,1779,1871,2135,2319,2047,1845,1871,1981
908239,64604,32512,65490,32722,1556,575,-255,499,432,348,1430,3965,53,54,843,1779,1871,2135,2319,2047,1845,1871,1981
909240,64656,32572,65555,32787,1672,781,-247,503,440,316,1340,4061,44,53,842,1779,1871,2135,2319,2047,1845,1871,1981
910241,64716,32616,65620,32852,1578,1007,-244,496,443,109,1389,3937,40,54,843,1779,1871,2135,2319,2047,1845,1871,1981
911244,64780,32688,65685,32917,1530,648,-222,498,428,296,1520,3982,45,58,840,1779,1871,2135,2319,2047,1845,1871,1981
912243,64844,32760,65750,32982,1531,639,-206,507,423,362,1261,3813,57,51,839,1751,1845,2111,2298,2068,1866,1884,1999
913244,64916,32816,65815,33047,1423,850,-190,527,413,491,1330,3974,59,55,842,1751,1845,2111,2298,2068,1866,1884,1999
914245,64960,32900,65880,33112,1800,477,-182,560,401,604,1330,3781,48,47,842,1751,1845,2111,2298,2068,1866,1884,1999
915246,65048,32964,65945,33177,1221,730,-184,581,402,515,1208,3785,41,57,842,1751,1845,2111,2298,2068,1866,1884,1999
916247,65120,33044,66010,33242,1413,511,-185,584,393,490,1370,3634,48,50,840,1751,1845,2111,2298,2068,1866,1884,1999
917248,65184,33108,66075,33307,1515,712,-192,587,370,341,1418,3651,41,52,845,1763,1859,2139,2323,2071,1865,2007,2123
918249,65248,33172,66140,33372,1516,714,-203,594,359,407,1301,3666,45,49,845,1763,1859,2139,2323,2071,1865,2007,2123
919250,65328,33248,66205,33437,1298,550,-221,603,364,389,1289,3522,51,51,842,1763,1859,2139,2323,2071,1865,2007,2123
920251,65396,33300,66270,33502,1445,866,-241,606,358,343,1408,3674,63,55,842,1763,1859,2139,2323,2071,1865,2007,2123
921252,65456,33364,66335,33567,1551,717,-260,587,354,162,1365,3552,58,42,845,1763,1859,2139,2323,2071,1865,2007,2123
922253,65536,33432,66400,33632,1283,664,-295,550,351,43,1397,3624,48,56,841,1781,1871,2146,2329,2047,1844,1862,1974
923254,65604,33504,66465,33697,1431,605,-320,526,327,255,1362,3571,58,43,842,1781,1871,2146,2329,2047,1844,1862,1974
924255,65676,33580,66530,33762,1372,542,-342,514,304,319,1489,3745,41,56,845,1781,1871,2146,2329,2047,1844,1862,1974
925256,65736,33640,66595,33827,1528,748,-351,519,277,333,1415,3862,44,57,844,1781,1871,2146,2329,2047,1844,1862,1974
926257,65812,33712,66660,33892,1316,589,-368,534,257,309,1396,3825,46,51,845,1781,1871,2146,2329,2047,1844,1862,1974
927258,65876,33768,66725,33957,1467,800,-379,536,246,431,1476,3927,63,46,842,1781,1871,2146,2329,2047,1844,1862,1974
928259,65936,33836,66790,34022,1523,647,-381,549,231,424,1397,3901,50,54,845,1758,1852,2116,2287,2132,1976,1896,1985
929260,66024,33896,66855,34087,1146,754,-369,571,212,459,1355,3920,43,48,842,1758,1852,2116,2287,2132,1976,1896,1985
930261,66080,33976,66920,34152,1557,485,-360,571,201,545,1492,3878,43,47,843,1758,1852,2116,2287,2132,1976,1896,1985
931262,66148,34028,66985,34217,1403,851,-357,580,191,227,1497,3704,41,44,845,1758,1852,2116,2287,2132,1976,1896,1985
932263,66212,34104,67050,34282,1455,538,-372,596,189,154,1497,3846,44,43,843,1758,1852,2116,2287,2132,1976,1896,1985
933264,66252,34168,67115,34347,1786,689,-388,616,194,345,1401,3830,55,55,843,1737,1840,2104,2274,2070,1860,1878,1999
934265,66340,34236,67180,34412,1158,635,-403,625,190,530,1451,3776,58,49,844,1737,1840,2104,2274,2070,1860,1878,1999
935266,66404,34296,67245,34477,1460,741,-403,593,176,443,1476,3582,50,43,839,1737,1840,2104,2274,2070,1860,1878,1999
936267,66460,34364,67310,34542,1571,638,-411,549,169,124,1598,3645,56,58,846,1737,1840,2104,2274,2070,1860,1878,1999
937268,66520,34432,67375,34607,1527,634,-423,536,152,130,1573,3704,52,49,842,1737,1840,2104,2274,2070,1860,1878,1999
938272,66592,34504,67440,34672,1370,576,-432,560,136,428,1425,3654,59,57,841,1737,1840,2104,2274,2070,1860,1878,1999
939270,66676,34568,67505,34737,1196,677,-451,585,112,513,1446,3575,58,61,841,1746,1848,2212,2399,2103,1867,1880,1999
940271,66744,34644,67570,34802,1393,513,-461,593,74,475,1495,3477,49,46,845,1746,1848,2212,2399,2103,1867,1880,1999
941272,66808,34724,67635,34867,1445,445,-474,548,46,186,1478,3199,50,59,846,1746,1848,2212,2399,2103,1867,1880,1999
942273,66888,34800,67700,34932,1227,482,-495,547,20,273,1364,3640,47,54,845,1746,1848,2212,2399,2103,1867,1880,1999
943274,66952,34872,67765,34997,1428,523,-541,569,-7,693,1495,3615,61,60,845,1746,1848,2212,2399,2103,1867,1880,1999
944275,67032,34932,67830,35062,1210,679,-564,622,-48,565,1673,3782,62,62,847,1760,1847,2127,2303,2063,1861,1871,1988
945276,67112,35020,67895,35127,1192,302,-578,647,-83,233,1516,3548,62,50,845,1760,1847,2127,2303,2063,1861,1871,1988
946277,67176,35088,67960,35192,1394,548,-560,663,-85,215,1441,3823,46,60,846,1760,1847,2127,2303,2063,1861,1871,1988
947278,67244,35168,68025,35257,1340,380,-574,674,-79,526,1357,3808,44,60,848,1760,1847,2127,2303,2063,1861,1871,1988
948279,67312,35244,68090,35322,1337,417,-584,705,-77,563,1456,3840,45,53,845,1760,1847,2127,2303,2063,1861,1871,1988
949280,67388,35312,68155,35387,1224,513,-608,738,-91,238,1374,3612,44,59,847,1760,1847,2127,2303,2063,1861,1871,1988
950281,67456,35376,68220,35452,1320,564,-624,743,-105,151,1377,3773,44,61,847,1789,1945,2166,2295,2053,1851,1862,1976
951282,67524,35460,68285,35517,1317,291,-641,731,-125,276,1530,3628,58,61,847,1789,1945,2166,2295,2053,1851,1862,1976
952283,67584,35528,68484,35716,1587,651,-669,704,-133,123,1430,3573,55,53,845,1789,1945,2166,2295,2053,1851,1862,1976
953284,67668,35612,68549,35781,1264,428,-709,718,-151,251,1388,3951,43,62,847,1789,1945,2166,2295,2053,1851,1862,1976
954285,67740,35688,68614,35846,1405,514,-727,732,-177,312,1562,3596,58,54,842,1789,1945,2166,2295,2053,1851,1862,1976
955286,67828,35756,68679,35911,1178,611,-748,734,-200,221,1455,3733,64,60,845,1734,1829,2103,2279,2061,1857,1871,1994
956287,67900,35832,68744,35976,1370,497,-757,727,-214,356,1659,3697,51,60,843,1734,1829,2103,2279,2061,1857,1871,1994
957288,67972,35920,68809,36041,1361,319,-768,745,-227,294,1593,3780,63,58,847,1734,1829,2103,2279,2061,1857,1871,1994
958289,68064,36004,68874,36106,1079,346,-782,775,-249,469,1513,3811,64,63,846,1734,1829,2103,2279,2061,1857,1871,1994
959290,68128,36064,68939,36171,1430,652,-781,807,-268,512,1546,3713,51,49,847,1734,1829,2103,2279,2061,1857,1871,1994
960291,68224,36132,69004,36236,993,548,-776,832,-284,406,1505,3626,64,60,849,1734,1829,2103,2279,2061,1857,1871,1994
961292,68316,36208,69069,36301,1011,435,-786,843,-294,296,1441,3580,53,62,844,1767,1831,2105,2278,2080,1869,1883,2008
962293,68392,36276,69134,36366,1197,531,-806,856,-325,493,1422,3649,56,50,849,1767,1831,2105,2278,2080,1869,1883,2008
963294,68468,36344,69199,36431,1184,528,-816,865,-353,409,1535,3517,50,61,850,1767,1831,2105,2278,2080,1869,1883,2008
964295,68560,36420,69264,36496,952,414,-825,865,-375,220,1509,3652,50,64,847,1767,1831,2105,2278,2080,1869,1883,2008
965296,68616,36488,69329,36561,1413,511,-842,844,-399,306,1511,3481,64,49,847,1767,1831,2105,2278,2080,1869,1883,2008
966297,68700,36564,69394,36626,1040,397,-859,853,-428,341,1458,3725,47,52,851,1746,1845,2121,2296,2073,1862,1875,2056
967298,68788,36644,69459,36691,962,329,-886,849,-451,234,1564,3346,65,48,845,1746,1845,2121,2296,2073,1862,1875,2056
968299,68864,36700,69524,36756,1099,640,-898,839,-474,121,1605,3584,67,62,850,1746,1845,2121,2296,2073,1862,1875,2056
969300,68956,36804,69589,36821,866,-8,-919,820,-501,144,1514,3429,66,64,851,1746,1845,2121,2296,2073,1862,1875,2056
970301,69028,36876,69654,36886,1108,384,-943,801,-515,220,1384,3557,49,66,847,1746,1845,2121,2296,2073,1862,1875,2056
971302,69104,36948,69719,36951,1044,375,-965,802,-535,333,1516,3571,56,61,853,1746,1845,2121,2296,2073,1862,1875,2056
972303,69200,37008,69784,37016,757,531,-987,781,-555,172,1534,3605,56,51,848,1753,1847,2123,2299,2047,1842,1860,1979
973304,69276,37108,69849,37081,994,-11,-1002,767,-574,-33,1547,3727,62,58,849,1753,1847,2123,2299,2047,1842,1860,1979
974305,69352,37204,69914,37146,981,1,-1007,762,-586,149,1304,3448,51,52,851,1753,1847,2123,2299,2047,1842,1860,1979
975306,69416,37272,69979,37211,1132,347,-1018,772,-597,484,1364,3814,50,62,852,1753,1847,2123,2299,2047,1842,1860,1979
976307,69508,37356,70044,37276,749,124,-1020,788,-601,158,1436,3648,61,62,852,1753,1847,2123,2299,2047,1842,1860,1979
977308,69584,37444,70109,37341,936,46,-1027,790,-617,193,1412,3598,46,59,849,1742,1838,2104,2274,2042,1875,2024,2083
978309,69668,37516,70174,37406,813,237,-1023,764,-638,239,1378,3635,57,62,853,1742,1838,2104,2274,2042,1875,2024,2083
979310,69732,37572,70239,37471,1064,448,-1029,772,-657,104,1419,3665,41,62,852,1742,1838,2104,2274,2042,1875,2024,2083
980311,69824,37652,70304,37536,681,130,-1027,762,-680,379,1559,3460,58,62,852,1742,1838,2104,2274,2042,1875,2024,2083
981312,69884,37728,70369,37601,1088,166,-1024,740,-714,63,1487,3588,46,61,849,1742,1838,2104,2274,2042,1875,2024,2083
982313,69952,37812,70434,37666,985,43,-1012,720,-740,44,1408,3340,47,60,854,1742,1838,2104,2274,2042,1875,2024,2083
983314,70044,37892,70499,37731,652,75,-1004,686,-766,37,1437,3485,55,57,850,1735,1831,2099,2273,2032,1824,1853,1971
984315,70112,37964,70564,37796,948,166,-1001,659,-804,-117,1489,3287,57,50,852,1735,1831,2099,2273,2032,1824,1853,1971
985316,70200,38036,70629,37861,670,158,-1010,619,-844,-80,1372,3140,53,59,855,1735,1831,2099,2273,2032,1824,1853,1971
986319,70284,38136,70694,37926,697,-235,-1019,603,-874,-6,1503,3382,55,62,851,1735,1831,2099,2273,2032,1824,1853,1971
987318,70348,38208,70759,37991,948,107,-1043,577,-907,79,1357,3095,44,59,854,1735,1831,2099,2273,2032,1824,1853,1971
988319,70440,38292,70824,38056,566,-67,-1070,562,-943,147,1295,3315,42,55,853,1752,1848,2104,2281,2124,1940,1844,1962
989320,70500,38372,70889,38121,972,-35,-1088,531,-966,21,1251,3029,63,48,851,1752,1848,2104,2281,2124,1940,1844,1962
990321,70592,38452,70954,38186,539,-54,-1094,520,-993,-57,1189,3161,56,47,854,1752,1848,2104,2281,2124,1940,1844,1962
991322,70672,38548,71019,38251,671,-292,-1104,496,-1014,-134,1297,3247,53,46,852,1752,1848,2104,2281,2124,1940,1844,1962
992323,70756,38624,71084,38316,598,-55,-1095,507,-1040,43,1138,3137,41,50,856,1752,1848,2104,2281,2124,1940,1844,1962
993324,70832,38684,71149,38381,684,151,-1095,471,-1050,-17,1135,3152,47,52,853,1752,1848,2104,2281,2124,1940,1844,1962
994325,70904,38760,71214,38446,726,-63,-1077,479,-1072,-318,1097,3414,56,57,856,1746,1844,2096,2264,2012,1805,1838,1959
995326,70980,38824,71279,38511,662,88,-1049,462,-1077,-190,1104,3092,43,53,854,1746,1844,2096,2264,2012,1805,1838,1959
996327,71076,38880,71344,38576,376,199,-1021,434,-1091,19,1052,3253,44,54,855,1746,1844,2096,2264,2012,1805,1838,1959
997328,71152,38948,71409,38641,612,46,-1007,395,-1113,-285,1010,3150,57,55,855,1746,1844,2096,2264,2012,1805,1838,1959
998329,71236,39028,71474,38706,489,-124,-995,363,-1138,-216,995,3077,57,57,857,1746,1844,2096,2264,2012,1805,1838,1959
999330,71308,39092,71539,38771,630,78,-992,327,-1160,-153,1039,3173,57,41,855,1725,1821,2183,2331,1995,1787,1823,1939
1000331,71380,39140,71604,38836,622,298,-994,313,-1201,-182,1029,3319,42,44,856,1725,1821,2183,2331,1995,1787,1823,1939
1001332,71464,39200,71669,38901,449,155,-1007,270,-1240,-46,1063,2926,47,43,855,1725,1821,2183,2331,1995,1787,1823,1939
1002333,71540,39288,71734,38966,535,-224,-1014,237,-1274,-136,1099,3097,56,52,854,1725,1821,2183,2331,1995,1787,1823,1939
1003334,71612,39356,71799,39031,577,23,-1034,206,-1318,-342,1058,3001,42,55,856,1725,1821,2183,2331,1995,1787,1823,1939
1004335,71688,39408,71864,39096,513,239,-1048,174,-1364,-352,1052,3045,42,43,855,1725,1821,2183,2331,1995,1787,1823,1939
1005336,71776,39468,71929,39161,335,145,-1055,144,-1404,-155,1094,2923,55,43,856,1732,1825,2068,2247,1977,1775,1818,1932
1006337,71860,39536,71994,39226,362,40,-1051,103,-1417,-10,957,2761,57,53,854,1732,1825,2068,2247,1977,1775,1818,1932
1007338,71924,39604,72059,39291,613,36,-1049,88,-1443,-110,1003,2995,54,44,855,1732,1825,2068,2247,1977,1775,1818,1932
1008339,72012,39656,72124,39356,285,252,-1043,74,-1476,-303,911,2789,50,55,857,1732,1825,2068,2247,1977,1775,1818,1932
1009340,72088,39716,72189,39421,422,158,-1033,83,-1507,-43,842,2954,56,38,856,1732,1825,2068,2247,1977,1775,1818,1932
1010341,72172,39776,72254,39486,300,164,-1031,75,-1515,172,789,2596,40,51,857,1778,1921,2065,2235,1987,1781,1826,1945
1011342,72248,39848,72319,39551,386,6,-1019,55,-1523,-115,806,2969,56,44,857,1778,1921,2065,2235,1987,1781,1826,1945
1012343,72328,39916,72384,39616,318,52,-1005,21,-1539,-486,581,2639,39,51,857,1778,1921,2065,2235,1987,1781,1826,1945
1013344,72408,39980,72449,39681,300,104,-997,19,-1559,-228,560,2929,51,51,857,1778,1921,2065,2235,1987,1781,1826,1945
1014345,72492,40048,72514,39746,226,50,-985,-36,-1561,-150,732,2595,53,40,858,1778,1921,2065,2235,1987,1781,1826,1945
1015346,72592,40120,72579,39811,-16,-10,-982,-65,-1590,-368,650,2912,38,51,858,1778,1921,2065,2235,1987,1781,1826,1945
1016347,72660,40192,72644,39876,380,-18,-981,-94,-1610,-472,627,2722,56,51,858,1720,1818,2056,2226,1988,1778,1820,1937
1017348,72748,40264,72709,39941,102,-27,-982,-118,-1639,-396,545,2769,52,49,859,1720,1818,2056,2226,1988,1778,1820,1937
1018349,72832,40332,72774,40006,129,20,-985,-131,-1641,-330,473,2862,47,48,858,1720,1818,2056,2226,1988,1778,1820,1937
1019350,72908,40412,72839,40071,215,-149,-994,-142,-1647,-261,537,2749,53,42,859,1720,1818,2056,2226,1988,1778,1820,1937
1020351,73012,40476,72904,40136,-182,52,-1016,-147,-1655,-338,380,2743,48,39,859,1720,1818,2056,2226,1988,1778,1820,1937
1021352,73076,40560,72969,40201,318,-221,-1035,-144,-1660,-147,386,2762,34,55,858,1709,1804,2038,2210,1978,1768,1814,1928
1022353,73172,40616,73034,40266,-120,140,-1047,-139,-1678,-152,416,2704,47,55,849,1709,1804,2038,2210,1978,1768,1814,1928
1023354,73256,40672,73099,40331,7,150,-1057,-132,-1697,-266,410,2701,44,45,856,1709,1804,2038,2210,1978,1768,1814,1928
1024355,73340,40748,73164,40396,-16,-113,-1062,-115,-1704,-43,437,2864,39,49,852,1709,1804,2038,2210,1978,1768,1814,1928
1025356,73440,40812,73229,40461,-259,38,-1078,-107,-1716,-104,409,2734,43,42,858,1709,1804,2038,2210,1978,1768,1814,1928
1026357,73524,40880,73294,40526,-82,-16,-1072,-115,-1746,-326,323,2659,42,41,859,1709,1804,2038,2210,1978,1768,1814,1928
1027358,73600,40948,73359,40591,4,-19,-1046,-145,-1790,-307,402,2491,40,45,859,1700,1789,2015,2188,1987,1775,1819,2055
1028359,73688,41012,73424,40656,-174,32,-1023,-209,-1822,-530,321,2517,51,54,859,1700,1789,2015,2188,1987,1775,1819,2055
1029360,73776,41080,73489,40721,-202,-22,-1010,-227,-1824,-220,173,2585,47,45,859,1700,1789,2015,2188,1987,1775,1819,2055
1030361,73848,41176,73554,40786,-10,-411,-1012,-216,-1829,135,342,2480,42,46,849,1700,1789,2015,2188,1987,1775,1819,2055
1031362,73928,41256,73619,40851,-129,-229,-1015,-204,-1835,-135,190,2480,51,54,847,1700,1789,2015,2188,1987,1775,1819,2055
1032363,73988,41316,73684,40916,127,27,-1029,-206,-1841,-253,106,2400,36,41,857,1692,1784,2016,2303,2047,1919,1919,1927
1033364,74072,41392,73749,40981,-197,-186,-1040,-175,-1832,-21,130,2636,51,46,851,1692,1784,2016,2303,2047,1919,1919,1927
1034365,74136,41456,73814,41046,54,-35,-1041,-136,-1801,313,266,2259,42,44,859,1692,1784,2016,2303,2047,1919,1919,1927
