%  Data file recorded 2016/8/28  16:53:5
%  Stride Frequency         = [1, 1]
%  Lead In /Lead Out        = 
%  Deltas (Fractional)      = [0.25, 0.25, 0.25],[0.25, 0.25, 0.25]
%  Phase                    = 32768
%  Experiment.py 
%  Motor Gains    = [5000, 400, 200, 0, 300, 5000, 400, 200, 0, 300]
% Columns: 
% time | Right Leg Pos | Left Leg Pos | Commanded Right Leg Pos | Commanded Left Leg Pos | DCR | DCL | GyroX | GyroY | GyroZ | AX | AY | AZ | RBEMF | LBEMF | VBatt | S1 | S2 | S3 | S4 | S5 | S6 | S7 | S8
87,18184,-14736,18104,-14664,3800,-3800,8,39,-1,-27,-30,3947,0,7,881,1802,1967,2189,2250,2063,1832,1880,2013
1088,18168,-14748,18104,-14664,3800,-3800,5,39,-2,-18,-62,3926,-11,-1,880,1802,1967,2189,2250,2063,1832,1880,2013
2089,18164,-14736,18104,-14664,3800,-3800,4,40,-2,-17,-50,3925,3,-2,880,1802,1967,2189,2250,2063,1832,1880,2013
3090,18164,-14740,18104,-14664,3800,-3800,7,42,-1,-35,-32,3949,8,1,880,1802,1967,2189,2250,2063,1832,1880,2013
4091,18176,-14744,18104,-14664,3800,-3800,7,42,0,-26,-60,3944,-5,-7,880,1802,1967,2189,2250,2063,1832,1880,2013
5092,18172,-14744,18104,-14664,3800,-3800,6,41,-1,-13,-39,3957,-7,7,880,1804,1880,2096,2250,2062,1833,1881,2013
6093,18172,-14728,18104,-14664,3800,-3800,7,40,-2,-10,-52,3971,8,-8,880,1804,1880,2096,2250,2062,1833,1881,2013
7094,18164,-14724,18104,-14664,3800,-3800,11,42,-5,-20,-54,3976,-7,3,880,1804,1880,2096,2250,2062,1833,1881,2013
8095,18172,-14740,18104,-14664,3800,-3800,10,44,-3,-3,-70,3951,-5,1,880,1804,1880,2096,2250,2062,1833,1881,2013
9096,18172,-14748,18104,-14664,3800,-3800,8,42,-2,-32,-36,3967,7,-2,880,1804,1880,2096,2250,2062,1833,1881,2013
10097,18172,-14748,18104,-14664,3800,-3800,9,39,-3,-45,-32,3927,-11,0,880,1804,1880,2096,2250,2062,1833,1881,2013
11098,18176,-14744,18104,-14664,3800,-3800,10,40,-3,-22,-48,3956,-1,-8,880,1861,1881,2097,2251,2063,1836,1882,2013
12099,18164,-14740,18104,-14664,3800,-3800,10,39,-3,-15,-42,3929,8,6,880,1861,1881,2097,2251,2063,1836,1882,2013
13100,18164,-14740,18104,-14664,3800,-3800,10,40,-1,-10,-48,3953,-9,3,880,1861,1881,2097,2251,2063,1836,1882,2013
14101,18164,-14740,18104,-14664,3800,-3800,7,39,-3,-23,-23,3944,-10,-5,880,1861,1881,2097,2251,2063,1836,1882,2013
15102,18156,-14748,18104,-14664,3800,-3800,9,38,-3,-32,-32,3910,-3,0,880,1861,1881,2097,2251,2063,1836,1882,2013
16103,18172,-14736,18104,-14664,3800,-3800,13,40,-2,-54,-35,3917,8,6,880,1802,1880,2095,2250,2062,1833,1881,2013
17104,18172,-14736,18104,-14664,3800,-3800,14,40,-4,-52,-32,3954,-10,-7,880,1802,1880,2095,2250,2062,1833,1881,2013
18105,18172,-14728,18104,-14664,3800,-3800,14,40,-2,-41,-38,3905,-8,7,880,1802,1880,2095,2250,2062,1833,1881,2013
19106,18172,-14736,18104,-14664,3800,-3800,10,38,-1,-48,-42,3907,0,-7,879,1802,1880,2095,2250,2062,1833,1881,2013
20107,18164,-14736,18104,-14664,3800,-3800,8,37,-4,-23,-52,3899,-10,6,878,1802,1880,2095,2250,2062,1833,1881,2013
21108,18172,-14728,18104,-14664,3800,-3800,11,39,-4,-18,-68,3927,-7,-7,880,1802,1880,2095,2250,2062,1833,1881,2013
22109,18180,-14744,18104,-14664,3800,-3800,13,39,-3,-8,-64,3943,7,6,880,1803,1880,2096,2251,2062,1832,1880,2012
23110,18164,-14740,18104,-14664,3800,-3800,12,40,-1,-13,-38,3918,5,4,880,1803,1880,2096,2251,2062,1832,1880,2012
24111,18176,-14736,18104,-14664,3800,-3800,11,39,0,-13,-52,3905,-10,-5,880,1803,1880,2096,2251,2062,1832,1880,2012
25112,18164,-14724,18104,-14664,3800,-3800,9,40,-1,-2,-61,3905,-3,-1,880,1803,1880,2096,2251,2062,1832,1880,2012
26113,18164,-14732,18104,-14664,3800,-3800,12,41,-1,-13,-44,3913,8,-6,880,1803,1880,2096,2251,2062,1832,1880,2012
27114,18172,-14740,18104,-14664,3800,-3800,13,39,0,-9,-81,3927,1,5,880,1802,1880,2096,2250,2063,1833,1945,2097
28115,18168,-14736,18104,-14664,3800,-3800,13,39,0,-45,-50,3931,-11,2,880,1802,1880,2096,2250,2063,1833,1945,2097
29116,18172,-14748,18104,-14664,3800,-3800,14,42,0,-16,-41,3941,6,6,880,1802,1880,2096,2250,2063,1833,1945,2097
30117,18168,-14736,18104,-14664,3800,-3800,14,42,0,-2,-56,3917,3,-5,880,1802,1880,2096,2250,2063,1833,1945,2097
31118,18160,-14744,18104,-14664,3800,-3800,14,40,-1,-23,-56,3907,-11,7,880,1802,1880,2096,2250,2063,1833,1945,2097
32119,18168,-14724,18104,-14664,3800,-3800,15,40,1,0,-65,3946,5,7,880,1802,1880,2096,2250,2063,1833,1945,2097
33120,18164,-14744,18104,-14664,3800,-3800,16,41,1,-13,-43,3947,7,-7,880,1801,1877,2095,2252,2064,1834,1880,2012
34121,18172,-14724,18104,-14664,3800,-3800,13,42,2,-41,-41,3939,-11,7,880,1801,1877,2095,2252,2064,1834,1880,2012
35122,18172,-14744,18104,-14664,3800,-3800,12,38,0,-29,-40,3941,0,-8,880,1801,1877,2095,2252,2064,1834,1880,2012
36123,18172,-14736,18104,-14664,3800,-3800,11,38,-3,-22,-45,3916,7,7,879,1801,1877,2095,2252,2064,1834,1880,2012
37124,18172,-14732,18104,-14664,3800,-3800,12,39,-2,-31,-35,3930,5,7,878,1801,1877,2095,2252,2064,1834,1880,2012
38125,18180,-14748,18104,-14664,3800,-3800,15,39,1,-41,-52,3914,4,-6,880,1801,1880,2095,2251,2168,1918,1881,2013
39126,18172,-14736,18104,-14664,3800,-3800,14,40,1,-26,-33,3894,-5,2,880,1801,1880,2095,2251,2168,1918,1881,2013
40127,18164,-14748,18104,-14664,3800,-3800,12,39,2,-41,-30,3935,-8,7,880,1801,1880,2095,2251,2168,1918,1881,2013
41128,18172,-14732,18104,-14664,3800,-3800,13,38,1,-44,-49,3941,8,-6,880,1801,1880,2095,2251,2168,1918,1881,2013
42129,18168,-14740,18104,-14664,3800,-3800,12,38,0,-38,-72,3891,1,4,880,1801,1880,2095,2251,2168,1918,1881,2013
43130,18168,-14744,18104,-14664,3800,-3800,12,40,1,-59,-25,3916,-8,-5,880,1801,1880,2095,2251,2168,1918,1881,2013
44131,18168,-14732,18104,-14664,3800,-3800,12,40,-2,-38,-19,3933,8,6,880,1801,1879,2096,2251,2063,1833,1880,2013
45132,18176,-14748,18104,-14664,3800,-3800,10,38,-4,-41,-50,3943,0,-7,881,1801,1879,2096,2251,2063,1833,1880,2013
46133,18172,-14732,18104,-14664,3800,-3800,11,37,1,-19,-46,3953,-11,3,880,1801,1879,2096,2251,2063,1833,1880,2013
47134,18176,-14736,18104,-14664,3800,-3800,13,37,2,-20,-37,3922,8,-7,880,1801,1879,2096,2251,2063,1833,1880,2013
48135,18164,-14736,18104,-14664,3800,-3800,11,37,0,-39,-52,3904,0,7,880,1801,1879,2096,2251,2063,1833,1880,2013
49136,18168,-14736,18104,-14664,3800,-3800,13,38,-3,-40,-46,3906,-8,-7,880,1802,1880,2199,2324,2065,1833,1880,2013
50137,18172,-14748,18104,-14664,3800,-3800,13,37,-2,-30,-49,3930,8,6,880,1802,1880,2199,2324,2065,1833,1880,2013
51138,18168,-14732,18104,-14664,3800,-3800,13,36,-2,-28,-40,3935,-9,5,880,1802,1880,2199,2324,2065,1833,1880,2013
52139,18176,-14740,18104,-14664,3800,-3800,9,36,-2,-22,-44,3945,5,3,880,1802,1880,2199,2324,2065,1833,1880,2013
53140,18172,-14748,18104,-14664,3800,-3800,9,41,-4,-16,-57,3901,-6,-5,878,1802,1880,2199,2324,2065,1833,1880,2013
54141,18172,-14732,18104,-14664,3800,-3800,11,41,-4,-27,-44,3951,4,-8,878,1802,1880,2199,2324,2065,1833,1880,2013
55142,18160,-14728,18104,-14664,3800,-3800,10,40,-3,-3,-45,3935,-11,7,880,1801,1877,2095,2253,2066,1834,1882,2013
56143,18172,-14728,18104,-14664,3800,-3800,7,38,-2,-18,-50,3918,7,5,880,1801,1877,2095,2253,2066,1834,1882,2013
57144,18172,-14732,18104,-14664,3800,-3800,8,37,-2,-47,-24,3905,-4,-8,880,1801,1877,2095,2253,2066,1834,1882,2013
58145,18164,-14732,18104,-14664,3800,-3800,10,37,-1,-22,-52,3888,-4,2,880,1801,1877,2095,2253,2066,1834,1882,2013
59146,18180,-14732,18104,-14664,3800,-3800,10,39,-2,-45,-31,3918,8,-7,880,1801,1877,2095,2253,2066,1834,1882,2013
60147,18172,-14736,18104,-14664,3800,-3800,9,41,-3,-23,-55,3915,-6,-6,880,1857,1961,2098,2251,2064,1834,1881,2013
61148,18168,-14740,18104,-14664,3800,-3800,9,43,-5,-15,-54,3933,-5,0,880,1857,1961,2098,2251,2064,1834,1881,2013
62149,18168,-14740,18104,-14664,3800,-3800,10,43,-6,-44,-63,3952,8,-4,880,1857,1961,2098,2251,2064,1834,1881,2013
63150,18160,-14740,18104,-14664,3800,-3800,9,42,-3,-54,-66,3933,-5,-5,880,1857,1961,2098,2251,2064,1834,1881,2013
64151,18164,-14736,18104,-14664,3800,-3800,10,41,-1,-39,-30,3927,-8,2,881,1857,1961,2098,2251,2064,1834,1881,2013
65155,18164,-14736,18104,-14664,3800,-3800,9,38,-2,0,-40,3916,8,6,880,1857,1961,2098,2251,2064,1834,1881,2013
66153,18168,-14736,18104,-14664,3800,-3800,8,38,-4,16,-62,3909,-9,7,880,1802,1879,2095,2251,2063,1833,1880,2012
67154,18164,-14748,18104,-14664,3800,-3800,5,42,-3,-20,-55,3948,3,1,880,1802,1879,2095,2251,2063,1833,1880,2012
68155,18164,-14744,18104,-14664,3800,-3800,6,44,-2,-5,-49,3931,-5,-1,880,1802,1879,2095,2251,2063,1833,1880,2012
69156,18172,-14744,18104,-14664,3800,-3800,7,42,-2,-30,-53,3942,-10,4,880,1802,1879,2095,2251,2063,1833,1880,2012
70157,18168,-14736,18104,-14664,3800,-3800,6,40,-3,-26,-61,3942,5,7,879,1802,1879,2095,2251,2063,1833,1880,2012
71158,18164,-14736,18104,-14664,3800,-3800,7,41,-1,-16,-54,3965,6,4,878,1805,1882,2098,2251,2064,1833,1881,2013
72159,18160,-14732,18104,-14664,3800,-3800,9,42,-1,-13,-47,3941,7,-8,881,1805,1882,2098,2251,2064,1833,1881,2013
73160,18164,-14740,18104,-14664,3800,-3800,8,40,1,-30,-47,3941,-10,6,881,1805,1882,2098,2251,2064,1833,1881,2013
74161,18168,-14732,18104,-14664,3800,-3800,8,41,-1,-50,-61,3943,8,-8,880,1805,1882,2098,2251,2064,1833,1881,2013
75162,18168,-14724,18104,-14664,3800,-3800,9,40,-2,-35,-54,3982,-6,4,880,1805,1882,2098,2251,2064,1833,1881,2013
76163,18160,-14740,18104,-14664,3800,-3800,9,40,1,-22,-52,3955,-6,-7,880,1805,1882,2098,2251,2064,1833,1881,2013
77164,18164,-14740,18104,-14664,3800,-3800,5,43,2,-15,-45,3941,8,-7,881,1801,1880,2096,2252,2063,1831,1882,2120
78165,18168,-14736,18104,-14664,3800,-3800,4,43,1,-18,-29,3932,-6,4,880,1801,1880,2096,2252,2063,1831,1882,2120
79166,18172,-14744,18104,-14664,3800,-3800,9,42,-1,-38,-40,3915,-1,-6,880,1801,1880,2096,2252,2063,1831,1882,2120
80167,18172,-14740,18104,-14664,3800,-3800,11,40,-1,-25,-69,3916,5,-8,880,1801,1880,2096,2252,2063,1831,1882,2120
81168,18168,-14736,18104,-14664,3800,-3800,10,39,0,-54,-49,3943,-7,-8,880,1801,1880,2096,2252,2063,1831,1882,2120
82169,18164,-14732,18104,-14664,3800,-3800,9,38,3,-46,-51,3952,-9,-3,880,1801,1880,2096,2251,2063,1833,1880,2013
83170,18176,-14748,18104,-14664,3800,-3800,10,39,1,-33,-47,3939,6,0,880,1801,1880,2096,2251,2063,1833,1880,2013
84171,18172,-14744,18104,-14664,3800,-3800,9,41,1,-31,-52,3942,8,3,880,1801,1880,2096,2251,2063,1833,1880,2013
85172,18160,-14740,18104,-14664,3800,-3800,8,43,0,-17,-75,3943,-3,6,880,1801,1880,2096,2251,2063,1833,1880,2013
86173,18168,-14728,18104,-14664,3800,-3800,8,39,0,-16,-59,3958,-9,-7,880,1801,1880,2096,2251,2063,1833,1880,2013
87174,18176,-14740,18104,-14664,3800,-3800,8,37,2,-35,-52,3947,-8,-8,878,1801,1880,2096,2251,2063,1833,1880,2013
88175,18168,-14732,18104,-14664,3800,-3800,6,39,2,-37,-51,3931,-7,4,878,1802,1881,2096,2252,2063,1930,1934,2020
89176,18172,-14740,18104,-14664,3800,-3800,8,43,1,-5,-49,3935,4,-5,880,1802,1881,2096,2252,2063,1930,1934,2020
90177,18172,-14736,18104,-14664,3800,-3800,10,43,2,-14,-56,3950,8,1,880,1802,1881,2096,2252,2063,1930,1934,2020
91178,18172,-14736,18104,-14664,3800,-3800,14,40,0,-8,-37,3958,-2,-6,880,1802,1881,2096,2252,2063,1930,1934,2020
92179,18172,-14728,18104,-14664,3800,-3800,14,39,-1,-2,-57,3919,-11,4,880,1802,1881,2096,2252,2063,1930,1934,2020
93180,18164,-14728,18104,-14664,3800,-3800,14,39,1,-30,-62,3897,-1,-4,880,1799,1881,2098,2254,2064,1834,1880,2013
94181,18168,-14740,18104,-14664,3800,-3800,15,41,2,-31,-32,3898,7,6,880,1799,1881,2098,2254,2064,1834,1880,2013
95182,18160,-14740,18104,-14664,3800,-3800,14,40,2,-29,-57,3915,-6,-7,880,1799,1881,2098,2254,2064,1834,1880,2013
96183,18164,-14732,18104,-14664,3800,-3800,11,41,-2,-18,-45,3924,-10,-7,880,1799,1881,2098,2254,2064,1834,1880,2013
97184,18168,-14732,18104,-14664,3800,-3800,11,41,-2,-33,-56,3894,-7,-6,880,1799,1881,2098,2254,2064,1834,1880,2013
98185,18172,-14736,18104,-14664,3800,-3800,12,40,-2,-14,-47,3948,3,7,880,1799,1881,2098,2254,2064,1834,1880,2013
99186,18176,-14732,18104,-14664,3800,-3800,13,39,-3,-17,-53,3932,8,-5,880,1801,1880,2096,2329,2154,1843,1879,2011
100187,18160,-14740,18104,-14664,3800,-3800,13,38,-1,-29,-54,3921,-10,3,880,1801,1880,2096,2329,2154,1843,1879,2011
101188,18164,-14740,18104,-14664,3800,-3800,11,37,0,-25,-52,3924,-5,-7,880,1801,1880,2096,2329,2154,1843,1879,2011
102189,18156,-14740,18104,-14664,3800,-3800,11,40,-1,-34,-58,3947,5,7,880,1801,1880,2096,2329,2154,1843,1879,2011
103190,18168,-14736,18104,-14664,3800,-3800,11,42,-3,-20,-69,3903,1,-2,880,1801,1880,2096,2329,2154,1843,1879,2011
104191,18176,-14744,18104,-14664,3800,-3800,12,42,-2,-19,-54,3905,-11,-2,878,1802,1881,2096,2252,2064,1832,1880,2012
105192,18160,-14732,18104,-14664,3800,-3800,13,42,-2,-44,-59,3902,-3,6,878,1802,1881,2096,2252,2064,1832,1880,2012
106193,18172,-14732,18104,-14664,3800,-3800,13,40,-2,-47,-49,3931,-10,4,880,1802,1881,2096,2252,2064,1832,1880,2012
107194,18164,-14736,18104,-14664,3800,-3800,11,37,-4,-44,-65,3948,5,-7,880,1802,1881,2096,2252,2064,1832,1880,2012
108195,18172,-14748,18104,-14664,3800,-3800,13,38,-3,-28,-51,3907,4,6,880,1802,1881,2096,2252,2064,1832,1880,2012
109196,18168,-14724,18104,-14664,3800,-3800,13,43,-1,-33,-22,3930,-9,-6,880,1802,1881,2096,2252,2064,1832,1880,2012
110197,18168,-14740,18104,-14664,3800,-3800,13,42,0,-49,-29,3964,8,5,881,1800,1952,2195,2264,2063,1834,1880,2014
111198,18176,-14736,18104,-14664,3800,-3800,14,40,1,-41,-36,3929,-3,-8,881,1800,1952,2195,2264,2063,1834,1880,2014
112199,18172,-14740,18104,-14664,3800,-3800,11,39,1,-27,-37,3917,-6,6,880,1800,1952,2195,2264,2063,1834,1880,2014
113202,18164,-14736,18104,-14664,3800,-3800,11,41,-3,-37,-30,3935,6,-5,880,1800,1952,2195,2264,2063,1834,1880,2014
114201,18176,-14740,18104,-14664,3800,-3800,12,41,-3,-20,-53,3915,-10,6,881,1800,1952,2195,2264,2063,1834,1880,2014
115202,18164,-14732,18104,-14664,3800,-3800,12,38,-2,-6,-52,3916,2,4,881,1801,1877,2095,2254,2063,1834,1882,2012
116203,18152,-14728,18104,-14664,3800,-3800,9,38,-1,-6,-46,3942,4,-1,880,1801,1877,2095,2254,2063,1834,1882,2012
117204,18168,-14744,18104,-14664,3800,-3800,9,39,-1,-27,-43,3920,-11,-1,880,1801,1877,2095,2254,2063,1834,1882,2012
118205,18172,-14744,18104,-14664,3800,-3800,10,41,0,-31,-50,3933,7,4,881,1801,1877,2095,2254,2063,1834,1882,2012
119206,18164,-14740,18104,-14664,3800,-3800,11,40,-2,-32,-15,3936,-11,-2,880,1801,1877,2095,2254,2063,1834,1882,2012
120208,18160,-14728,18104,-14664,3800,-3800,11,40,-2,-27,-18,3955,-3,1,879,1801,1877,2095,2254,2063,1834,1882,2012
121208,18160,-14736,18104,-14664,3800,-3800,11,40,-3,-34,-62,3972,6,-6,878,1862,1898,2095,2252,2063,1833,1880,2013
122209,18176,-14740,18104,-14664,3800,-3800,12,40,-3,-24,-60,3941,6,0,880,1862,1898,2095,2252,2063,1833,1880,2013
123210,18160,-14736,18104,-14664,3800,-3800,11,42,-1,-9,-54,3949,-10,-2,880,1862,1898,2095,2252,2063,1833,1880,2013
124211,18164,-14724,18104,-14664,3800,-3800,6,41,0,-25,-37,3949,-2,-7,881,1862,1898,2095,2252,2063,1833,1880,2013
125212,18172,-14748,18104,-14664,3800,-3800,7,40,1,-15,-48,3948,5,7,880,1862,1898,2095,2252,2063,1833,1880,2013
126213,18164,-14732,18104,-14664,3800,-3800,11,40,-1,-15,-44,3936,-10,-6,881,1801,1879,2095,2252,2063,1833,1880,2013
127214,18156,-14752,18104,-14664,3800,-3800,11,39,-1,-20,-38,3946,3,3,880,1801,1879,2095,2252,2063,1833,1880,2013
128215,18172,-14752,18104,-14664,3800,-3800,11,41,0,-26,-48,3932,2,-4,880,1801,1879,2095,2252,2063,1833,1880,2013
129216,18168,-14724,18104,-14664,3800,-3800,11,43,0,-12,-48,3928,-10,1,880,1801,1879,2095,2252,2063,1833,1880,2013
130217,18176,-14736,18104,-14664,3800,-3800,11,43,1,-9,-49,3914,3,-3,880,1801,1879,2095,2252,2063,1833,1880,2013
131218,18168,-14744,18104,-14664,3800,-3800,9,43,1,-14,-56,3943,6,-2,880,1801,1879,2095,2252,2063,1833,1880,2013
132219,18172,-14732,18104,-14664,3800,-3800,10,43,-1,-43,-50,3934,-8,3,880,1802,1880,2096,2252,2064,1832,1880,2012
133220,18168,-14732,18104,-14664,3800,-3800,10,39,-1,-40,-42,3938,-6,0,880,1802,1880,2096,2252,2064,1832,1880,2012
134221,18168,-14740,18104,-14664,3800,-3800,9,37,1,-38,-31,3900,8,-3,880,1802,1880,2096,2252,2064,1832,1880,2012
135222,18176,-14736,18104,-14664,3800,-3800,6,39,2,-7,-61,3924,2,-8,880,1802,1880,2096,2252,2064,1832,1880,2012
136223,18164,-14740,18104,-14664,3800,-3800,8,41,-1,-34,-52,3939,-11,-1,880,1802,1880,2096,2252,2064,1832,1880,2012
137224,18172,-14748,18104,-14664,3800,-3800,8,39,1,-34,-36,3921,1,-6,878,1801,1880,2096,2253,2063,1831,1932,2104
138225,18172,-14728,18104,-14664,3800,-3800,7,41,-1,-36,-43,3919,6,3,878,1801,1880,2096,2253,2063,1831,1932,2104
139226,18164,-14728,18104,-14664,3800,-3800,7,41,-3,-25,-38,3942,-3,-5,880,1801,1880,2096,2253,2063,1831,1932,2104
140227,18172,-14748,18104,-14664,3800,-3800,9,39,-3,-11,-55,3921,-1,6,880,1801,1880,2096,2253,2063,1831,1932,2104
141228,18164,-14732,18104,-14664,3800,-3800,9,39,-2,-24,-21,3934,4,-7,880,1801,1880,2096,2253,2063,1831,1932,2104
142229,18164,-14736,18104,-14664,3800,-3800,10,39,-1,-35,-38,3929,6,4,880,1801,1880,2096,2253,2063,1831,1932,2104
143230,18172,-14744,18104,-14664,3800,-3800,11,42,-1,-44,-58,3956,-9,-7,880,1800,1878,2094,2252,2063,1833,1881,2013
144231,18172,-14744,18104,-14664,3800,-3800,11,44,-2,-24,-51,3939,-11,7,880,1800,1878,2094,2252,2063,1833,1881,2013
145232,18164,-14736,18104,-14664,3800,-3800,9,42,-1,2,-24,3926,3,-8,880,1800,1878,2094,2252,2063,1833,1881,2013
146233,18168,-14744,18104,-14664,3800,-3800,11,39,-1,-36,-39,3916,6,6,880,1800,1878,2094,2252,2063,1833,1881,2013
147234,18172,-14732,18104,-14664,3800,-3800,10,37,0,-44,-31,3939,-4,-2,880,1800,1878,2094,2252,2063,1833,1881,2013
148235,18160,-14732,18104,-14664,3800,-3800,10,39,0,-37,-44,3952,-11,4,880,1801,1879,2095,2254,2128,1923,1912,2012
149236,18160,-14748,18104,-14664,3800,-3800,10,39,1,-30,-73,3954,-1,-1,880,1801,1879,2095,2254,2128,1923,1912,2012
150237,18172,-14748,18104,-14664,3800,-3800,11,41,-2,-20,-50,3951,8,-6,880,1801,1879,2095,2254,2128,1923,1912,2012
151238,18172,-14744,18104,-14664,3800,-3800,11,42,-3,-31,-45,3885,-2,-8,880,1801,1879,2095,2254,2128,1923,1912,2012
152239,18172,-14740,18104,-14664,3800,-3800,9,42,-2,-30,-35,3897,-9,-7,880,1801,1879,2095,2254,2128,1923,1912,2012
153240,18168,-14732,18104,-14664,3800,-3800,9,41,-1,-37,-64,3912,-5,-5,880,1799,1879,2095,2254,2128,1923,1912,2012
154241,18156,-14740,18104,-14664,3800,-3800,9,39,-4,-26,-55,3902,6,6,878,1799,1882,2098,2256,2064,1833,1880,2012
155242,18176,-14748,18104,-14664,3800,-3800,7,40,-2,-22,-56,3910,8,-7,879,1799,1882,2098,2256,2064,1833,1880,2012
156243,18172,-14736,18104,-14664,3800,-3800,10,41,-1,-31,-44,3919,2,-7,880,1799,1882,2098,2256,2064,1833,1880,2012
157244,18160,-14744,18104,-14664,3800,-3800,12,41,-5,-32,-51,3910,5,4,880,1799,1882,2098,2256,2064,1833,1880,2012
158245,18164,-14736,18104,-14664,3800,-3800,10,40,-5,-30,-37,3922,-11,5,880,1799,1882,2098,2256,2064,1833,1880,2012
159246,18168,-14740,18104,-14664,3800,-3800,9,39,-3,-15,-60,3930,3,-2,880,1801,1879,2142,2332,2138,1833,1879,2011
160247,18164,-14740,18104,-14664,3800,-3800,8,40,-1,-33,-48,3929,-3,3,880,1801,1879,2142,2332,2138,1833,1879,2011
161248,18176,-14744,18104,-14664,3800,-3800,10,40,2,-47,-66,3954,-4,1,880,1801,1879,2142,2332,2138,1833,1879,2011
162249,18160,-14740,18104,-14664,3800,-3800,13,39,-1,-43,-80,3957,8,0,880,1801,1879,2142,2332,2138,1833,1879,2011
163250,18168,-14748,18104,-14664,3800,-3800,13,37,-1,-13,-74,3980,-11,-8,880,1801,1879,2142,2332,2138,1833,1879,2011
164251,18168,-14732,18104,-14664,3800,-3800,14,38,-1,-29,-54,3966,4,7,880,1802,1880,2096,2253,2062,1832,1880,2012
165252,18160,-14740,18104,-14664,3800,-3800,14,41,-1,-22,-59,3936,5,-8,880,1802,1880,2096,2253,2062,1832,1880,2012
166253,18168,-14740,18104,-14664,3800,-3800,13,41,-1,-7,-53,3934,-11,0,880,1802,1880,2096,2253,2062,1832,1880,2012
167254,18172,-14740,18104,-14664,3800,-3800,12,40,-2,-14,-43,3967,-2,-3,880,1802,1880,2096,2253,2062,1832,1880,2012
168255,18160,-14740,18104,-14664,3800,-3800,11,38,-3,-22,-43,3941,3,6,880,1802,1880,2096,2253,2062,1832,1880,2012
169256,18168,-14736,18104,-14664,3800,-3800,10,39,-2,-3,-56,3916,8,-1,880,1802,1880,2096,2253,2062,1832,1880,2012
170257,18168,-14740,18104,-14664,3800,-3800,10,39,-2,-37,-53,3930,-9,-3,880,1818,1968,2200,2254,2063,1833,1881,2013
171258,18160,-14728,18104,-14664,3800,-3800,10,40,-1,-36,-28,3911,-7,7,879,1818,1968,2200,2254,2063,1833,1881,2013
172259,18168,-14732,18104,-14664,3800,-3800,11,41,0,-19,-50,3907,4,-7,877,1818,1968,2200,2254,2063,1833,1881,2013
173260,18172,-14740,18104,-14664,3800,-3800,13,40,-1,-34,-55,3920,0,-7,880,1818,1968,2200,2254,2063,1833,1881,2013
174261,18168,-14736,18104,-14664,3800,-3800,13,39,-2,-44,-43,3935,8,-7,880,1818,1968,2200,2254,2063,1833,1881,2013
175262,18160,-14756,18104,-14664,3800,-3800,12,41,-4,-32,-32,3936,3,0,880,1801,1880,2096,2253,2063,1836,1882,2015
176263,18168,-14740,18104,-14664,3800,-3800,12,41,-2,-42,-53,3943,-11,2,880,1801,1880,2096,2253,2063,1836,1882,2015
177264,18176,-14728,18104,-14664,3800,-3800,13,41,-1,-24,-67,3911,-3,6,880,1801,1880,2096,2253,2063,1836,1882,2015
178265,18172,-14744,18104,-14664,3800,-3800,13,40,0,-11,-69,3903,7,-4,880,1801,1880,2096,2253,2063,1836,1882,2015
179266,18172,-14740,18104,-14664,3800,-3800,12,39,-3,-5,-58,3928,-11,-7,880,1801,1880,2096,2253,2063,1836,1882,2015
180267,18164,-14732,18104,-14664,3800,-3800,11,41,-3,-18,-47,3944,-2,2,880,1801,1880,2096,2253,2063,1836,1882,2015
181268,18160,-14728,18104,-14664,3800,-3800,12,42,0,2,-46,3954,6,6,880,1859,1879,2095,2252,2063,1833,1880,2012
182269,18172,-14744,18104,-14664,3800,-3800,12,40,0,-42,-45,3937,-11,-8,880,1859,1879,2095,2252,2063,1833,1880,2012
183270,18168,-14744,18104,-14664,3800,-3800,13,39,1,-45,-53,3918,2,-7,880,1859,1879,2095,2252,2063,1833,1880,2012
184271,18172,-14740,18104,-14664,3800,-3800,13,38,2,-35,-59,3933,0,-2,880,1859,1879,2095,2252,2063,1833,1880,2012
185272,18164,-14732,18104,-14664,3800,-3800,13,39,1,-27,-55,3907,-8,-2,880,1859,1879,2095,2252,2063,1833,1880,2012
186273,18172,-14724,18104,-14664,3800,-3800,11,41,0,-29,-58,3911,2,-1,880,1801,1879,2096,2253,2063,1833,1880,2013
187274,18160,-14740,18104,-14664,3800,-3800,10,41,0,-9,-54,3952,3,-6,880,1801,1879,2096,2253,2063,1833,1880,2013
188275,18168,-14736,18104,-14664,3800,-3800,11,41,-1,-44,-44,3924,-11,6,879,1801,1879,2096,2253,2063,1833,1880,2013
189276,18168,-14732,18104,-14664,3800,-3800,12,40,-3,-25,-30,3941,-8,-8,878,1801,1879,2096,2253,2063,1833,1880,2013
190277,18164,-14740,18104,-14664,3800,-3800,11,38,-1,-27,-44,3933,-1,-7,880,1801,1879,2096,2253,2063,1833,1880,2013
191278,18172,-14744,18104,-14664,3800,-3800,10,41,0,-22,-52,3969,4,-6,880,1801,1879,2096,2253,2063,1833,1880,2013
192279,18172,-14740,18104,-14664,3800,-3800,8,41,-3,-40,-52,3920,-11,-2,880,1801,1877,2095,2255,2065,1834,1881,2016
193280,18176,-14736,18104,-14664,3800,-3800,7,42,-1,-44,-59,3941,6,6,880,1801,1877,2095,2255,2065,1834,1881,2016
194281,18164,-14728,18104,-14664,3800,-3800,8,42,-2,-50,-62,3983,-8,7,880,1801,1877,2095,2255,2065,1834,1881,2016
195282,18172,-14720,18104,-14664,3800,-3800,8,41,-2,-50,-56,3952,-10,-6,880,1801,1877,2095,2255,2065,1834,1881,2016
196283,18164,-14736,18104,-14664,3800,-3800,8,38,-2,-18,-46,3931,4,-4,880,1801,1877,2095,2255,2065,1834,1881,2016
197284,18156,-14732,18104,-14664,3800,-3800,10,39,-3,-14,-41,3924,-3,-5,880,1801,1879,2095,2254,2063,1833,1937,2111
198285,18172,-14740,18104,-14664,3800,-3800,10,39,-3,-12,-43,3925,-10,-6,880,1801,1879,2095,2254,2063,1833,1937,2111
199286,18172,-14736,18104,-14664,3800,-3800,9,39,0,-18,-51,3893,4,-6,880,1801,1879,2095,2254,2063,1833,1937,2111
200287,18172,-14740,18169,-14599,421,647,9,41,-1,-26,-42,3913,5,-3,880,1801,1879,2095,2254,2063,1833,1937,2111
201288,18172,-14728,18234,-14534,499,511,10,43,-4,-27,-78,3920,-11,-6,870,1801,1879,2095,2254,2063,1833,1937,2111
202289,18180,-14740,18299,-14469,470,905,9,42,-4,-34,-47,3933,5,8,871,1801,1879,2095,2254,2063,1833,1937,2111
203290,18180,-14732,18364,-14404,649,725,8,38,-5,-62,-75,3916,14,11,866,1801,1880,2096,2253,2063,1833,1880,2012
204291,18192,-14716,18429,-14339,564,685,8,34,-1,-44,-54,3943,7,12,867,1801,1880,2096,2253,2063,1833,1880,2012
205292,18204,-14688,18494,-14274,629,580,9,35,4,-27,-48,3957,19,18,868,1801,1880,2096,2253,2063,1833,1880,2012
206293,18228,-14680,18559,-14209,529,899,10,27,1,-80,-79,3903,24,16,868,1801,1880,2096,2253,2063,1833,1880,2012
207294,18252,-14660,18624,-14144,579,804,9,19,0,-126,-84,3980,22,14,867,1801,1880,2096,2253,2063,1833,1880,2012
208295,18292,-14620,18689,-14079,409,586,9,20,-3,-32,-22,3961,14,28,867,1802,1880,2096,2254,2161,1930,1881,2014
209296,18320,-14592,18754,-14014,604,781,10,8,-3,-51,-77,3868,14,31,871,1802,1880,2096,2254,2161,1930,1881,2014
210297,18368,-14556,18819,-13949,375,716,9,-10,-3,-163,-195,3928,32,17,867,1802,1880,2096,2254,2161,1930,1881,2014
211298,18396,-14512,18884,-13884,671,642,12,-2,-7,-74,-59,4054,25,35,870,1802,1880,2096,2254,2161,1930,1881,2014
212299,18452,-14476,18949,-13819,332,778,12,0,-8,-17,-140,4023,24,32,868,1802,1880,2096,2254,2161,1930,1881,2014
213300,18492,-14400,19014,-13754,563,265,10,-2,-4,-129,-188,4031,36,23,870,1802,1880,2096,2254,2161,1930,1881,2014
214301,18556,-14356,19079,-13689,264,691,6,-4,-6,-170,-97,3933,29,29,873,1804,1884,2098,2256,2064,1834,1883,2017
215302,18604,-14292,19144,-13624,485,442,5,-7,-11,-107,-112,3927,35,27,872,1804,1884,2098,2256,2064,1834,1883,2017
216303,18648,-14252,19209,-13559,561,772,2,-25,-15,-155,-215,3839,35,23,872,1804,1884,2098,2256,2064,1834,1883,2017
217304,18716,-14216,19274,-13494,258,859,2,-34,-21,-235,-163,3922,38,35,868,1804,1884,2098,2256,2064,1834,1883,2017
218305,18776,-14168,19339,-13429,364,730,-5,-41,-17,-190,-204,3816,37,30,870,1804,1884,2098,2256,2064,1834,1883,2017
219306,18848,-14096,19404,-13364,205,421,-12,-40,-18,-149,-230,4045,44,40,870,1806,1886,2205,2339,2068,1837,1887,2017
220307,18904,-14048,19469,-13299,416,742,-11,-30,-20,-129,-142,4010,30,30,875,1806,1886,2205,2339,2068,1837,1887,2017
221308,18964,-14000,19534,-13234,373,764,-16,-52,-9,-247,-212,3876,42,27,870,1806,1886,2205,2339,2068,1837,1887,2017
222309,19032,-13932,19599,-13169,270,510,-18,-61,-4,-211,-205,4037,29,33,870,1806,1886,2205,2339,2068,1837,1887,2017
223310,19084,-13888,19664,-13104,486,836,-10,-54,-6,-162,-220,4136,29,36,872,1806,1886,2205,2339,2068,1837,1887,2017
224311,19152,-13820,19729,-13039,282,533,-3,-81,-7,-148,-190,3850,42,32,869,1806,1886,2205,2339,2068,1837,1887,2017
225312,19212,-13748,19794,-12974,388,474,4,-97,-6,-363,-239,4020,44,40,874,1802,1880,2091,2248,2064,1834,1884,2017
226313,19280,-13684,19859,-12909,285,576,12,-109,-8,-251,-182,4002,32,43,874,1802,1880,2091,2248,2064,1834,1884,2017
227314,19348,-13620,19924,-12844,282,578,20,-120,-13,-185,-263,4116,35,47,873,1802,1880,2091,2248,2064,1834,1884,2017
228315,19412,-13556,19989,-12779,333,579,25,-138,-10,-293,-275,3934,31,48,873,1802,1880,2091,2248,2064,1834,1884,2017
229316,19492,-13492,20054,-12714,115,580,33,-140,-5,-232,-233,4053,37,46,873,1802,1880,2091,2248,2064,1834,1884,2017
230317,19548,-13408,20119,-12649,427,307,38,-130,-9,-192,-241,4074,29,36,874,1870,1964,2096,2256,2064,1832,1884,2016
231318,19616,-13348,20184,-12584,273,614,33,-133,-15,-227,-267,4071,44,42,874,1870,1964,2096,2256,2064,1832,1884,2016
232319,19684,-13272,20249,-12519,269,401,27,-117,-6,-233,-345,4027,37,32,873,1870,1964,2096,2256,2064,1832,1884,2016
233320,19748,-13204,20314,-12454,320,497,17,-116,1,-174,-321,3940,41,38,875,1870,1964,2096,2256,2064,1832,1884,2016
234321,19816,-13160,20379,-12389,267,824,17,-108,1,-238,-329,4027,47,37,874,1870,1964,2096,2256,2064,1832,1884,2016
235322,19880,-13092,20444,-12324,319,520,19,-110,3,-339,-214,3937,41,43,871,1870,1964,2096,2256,2064,1832,1884,2016
236323,19928,-13012,20509,-12259,540,352,17,-133,1,-337,-220,4091,38,46,874,1816,1894,2104,2269,2058,1829,1879,2011
237324,19992,-12952,20574,-12194,341,608,21,-151,1,-369,-305,3941,28,39,873,1816,1894,2104,2269,2058,1829,1879,2011
238325,20068,-12888,20639,-12129,178,560,25,-178,7,-216,-247,4061,46,35,873,1816,1894,2104,2269,2058,1829,1879,2011
239326,20132,-12828,20704,-12064,329,616,44,-161,8,-294,-259,3996,36,47,874,1816,1894,2104,2269,2058,1829,1879,2011
240327,20184,-12772,20769,-11999,496,677,54,-151,-3,-201,-236,4023,32,34,871,1816,1894,2104,2269,2058,1829,1879,2011
241328,20264,-12688,20834,-11934,127,305,70,-125,-12,-71,-296,4081,44,45,871,1816,1892,2103,2268,2058,1830,1882,2011
242329,20316,-12640,20899,-11869,493,776,86,-122,-4,-127,-278,4082,39,37,877,1816,1892,2103,2268,2058,1830,1882,2011
243330,20388,-12576,20964,-11804,235,577,104,-118,2,-210,-289,3902,43,43,870,1816,1892,2103,2268,2058,1830,1882,2011
244331,20444,-12524,21029,-11739,447,743,124,-123,-4,-194,-214,4086,47,45,874,1816,1892,2103,2268,2058,1830,1882,2011
245332,20520,-12444,21094,-11674,183,375,138,-111,-9,-235,-205,4120,28,44,871,1816,1892,2103,2268,2058,1830,1882,2011
246333,20584,-12368,21159,-11609,334,412,158,-119,-6,-99,-43,4099,32,48,876,1816,1892,2103,2268,2058,1830,1882,2011
247334,20640,-12316,21224,-11544,445,728,162,-124,0,-225,-134,4059,27,45,875,1814,1891,2103,2271,2050,1824,1875,2093
248335,20712,-12252,21289,-11479,237,580,173,-121,5,-85,-138,3975,36,33,871,1814,1891,2103,2271,2050,1824,1875,2093
249336,20768,-12216,21354,-11414,449,966,168,-118,6,-147,-161,4022,45,32,874,1814,1891,2103,2271,2050,1824,1875,2093
250337,20832,-12128,21419,-11349,350,287,168,-101,4,-145,-142,3937,41,40,867,1814,1891,2103,2271,2050,1824,1875,2093
251338,20896,-12072,21484,-11284,351,698,164,-81,7,-88,-171,3812,46,47,875,1814,1891,2103,2271,2050,1824,1875,2093
252339,20948,-12024,21549,-11219,517,820,168,-87,17,-115,-92,3956,26,38,871,1823,1898,2108,2280,2040,1819,1871,1993
253340,21000,-11956,21614,-11154,534,567,180,-56,8,-115,-84,3840,24,33,869,1823,1898,2108,2280,2040,1819,1871,1993
254341,21068,-11884,21679,-11089,330,508,184,-79,4,-88,-124,4028,46,42,872,1823,1898,2108,2280,2040,1819,1871,1993
255342,21132,-11820,21744,-11024,382,610,203,-82,14,-238,-142,3971,44,49,874,1823,1898,2108,2280,2040,1819,1871,1993
256343,21196,-11760,21809,-10959,383,666,222,-96,18,-116,-168,4032,34,42,872,1823,1898,2108,2280,2040,1819,1871,1993
257344,21252,-11696,21874,-10894,494,618,237,-88,11,-4,-147,4144,41,36,870,1823,1898,2108,2280,2040,1819,1871,1993
258345,21308,-11620,21939,-10829,506,455,256,-94,9,-95,-177,3946,31,37,871,1818,1893,2103,2271,2047,1916,1932,2000
259346,21368,-11540,22004,-10764,462,387,277,-93,3,48,-219,4038,35,45,873,1818,1893,2103,2271,2047,1916,1932,2000
260347,21428,-11496,22069,-10699,468,862,295,-91,-2,51,-202,3939,26,46,874,1818,1893,2103,2271,2047,1916,1932,2000
261348,21496,-11436,22134,-10634,364,670,309,-91,-12,25,-33,3957,34,41,869,1818,1893,2103,2271,2047,1916,1932,2000
262349,21544,-11364,22199,-10569,636,511,320,-78,-22,-11,-85,3929,28,37,872,1818,1893,2103,2271,2047,1916,1932,2000
263350,21592,-11308,22264,-10504,657,722,338,-64,-27,38,-35,4116,25,42,871,1807,1887,2101,2265,2047,1819,1872,2002
264351,21664,-11244,22329,-10439,348,623,351,-52,-28,102,-17,3875,29,32,868,1807,1887,2101,2265,2047,1819,1872,2002
265352,21728,-11188,22394,-10374,449,735,358,-57,-24,-51,-23,3995,32,42,873,1807,1887,2101,2265,2047,1819,1872,2002
266353,21788,-11128,22459,-10309,507,691,351,-77,-16,-153,-18,3805,45,44,870,1807,1887,2101,2265,2047,1819,1872,2002
267354,21872,-11068,22524,-10244,183,697,349,-95,-14,-75,73,3958,37,30,870,1807,1887,2101,2265,2047,1819,1872,2002
268355,21924,-11012,22589,-10179,599,759,347,-109,-8,-125,40,3912,38,43,873,1807,1887,2101,2265,2047,1819,1872,2002
269356,22004,-10956,22654,-10114,231,770,348,-109,-8,-42,112,3782,26,38,869,1816,1893,2104,2351,2148,1822,1876,2005
270357,22068,-10888,22719,-10049,433,617,343,-106,-3,22,-12,3862,44,33,872,1816,1893,2104,2351,2148,1822,1876,2005
271358,22132,-10836,22784,-9984,434,834,350,-88,-9,72,-18,4011,30,43,872,1816,1893,2104,2351,2148,1822,1876,2005
272359,22196,-10772,22849,-9919,436,685,359,-83,-1,34,-22,3954,45,39,870,1816,1893,2104,2351,2148,1822,1876,2005
273360,22260,-10700,22914,-9854,437,576,372,-68,6,99,4,3971,30,39,873,1816,1893,2104,2351,2148,1822,1876,2005
274361,22336,-10648,22979,-9789,274,843,385,-59,5,205,-74,4091,30,26,870,1811,1890,2102,2260,2058,1828,1877,2011
275362,22392,-10584,23044,-9724,535,694,397,-48,-1,104,-92,4061,46,36,870,1811,1890,2102,2260,2058,1828,1877,2011
276363,22448,-10552,23109,-9659,546,1135,410,-42,6,4,-190,4025,39,37,870,1811,1890,2102,2260,2058,1828,1877,2011
277364,22504,-10492,23174,-9594,557,792,424,-19,6,-54,-51,4122,42,39,865,1811,1890,2102,2260,2058,1828,1877,2011
278365,22572,-10436,23239,-9529,405,853,424,-25,8,-11,-44,3856,47,40,868,1811,1890,2102,2260,2058,1828,1877,2011
279366,22616,-10388,23304,-9464,730,973,426,-22,14,-55,-49,4101,29,37,870,1811,1890,2102,2260,2058,1828,1877,2011
280367,22688,-10320,23369,-9399,372,721,429,-48,22,-140,-13,3868,40,30,865,1801,1969,2191,2257,2064,1834,1878,2010
281368,22756,-10272,23434,-9334,418,992,433,-73,18,-200,58,3984,45,30,871,1801,1969,2191,2257,2064,1834,1878,2010
282369,22812,-10236,23499,-9269,580,1177,428,-80,17,-103,82,4011,34,26,868,1801,1969,2191,2257,2064,1834,1878,2010
283370,22880,-10192,23564,-9204,426,1104,421,-75,10,151,157,3916,31,36,864,1801,1969,2191,2257,2064,1834,1878,2010
284371,22948,-10116,23629,-9139,423,690,408,-78,20,-29,-25,3949,39,41,866,1801,1969,2191,2257,2064,1834,1878,2010
285372,23024,-10052,23694,-9074,309,841,405,-65,47,-186,107,3962,35,36,871,1803,1878,2099,2262,2069,1837,1884,2018
286373,23084,-10004,23759,-9009,516,1063,400,-46,53,-15,137,3816,37,31,870,1803,1878,2099,2262,2069,1837,1884,2018
287374,23140,-9964,23824,-8944,577,1194,398,-26,55,33,119,4210,43,29,866,1803,1878,2099,2262,2069,1837,1884,2018
288375,23204,-9924,23889,-8879,479,1225,394,-19,53,133,58,3843,31,31,864,1803,1878,2099,2262,2069,1837,1884,2018
289376,23272,-9868,23954,-8814,425,1036,395,-5,64,48,102,4245,47,26,864,1803,1878,2099,2262,2069,1837,1884,2018
290378,23328,-9812,24019,-8749,587,1047,397,3,82,120,101,3842,33,41,867,1803,1878,2099,2262,2069,1837,1884,2018
291378,23404,-9740,24084,-8684,324,840,396,-9,82,-59,104,3919,33,29,863,1854,1882,2100,2256,2077,1841,1888,2026
292379,23468,-9684,24149,-8619,475,1051,395,-10,70,-72,78,3934,48,37,871,1854,1882,2100,2256,2077,1841,1888,2026
293380,23540,-9628,24214,-8554,366,1063,397,-27,67,35,104,3897,31,25,866,1854,1882,2100,2256,2077,1841,1888,2026
294381,23616,-9584,24279,-8489,304,1238,395,-43,68,29,45,3830,30,39,867,1854,1882,2100,2256,2077,1841,1888,2026
295382,23668,-9520,24344,-8424,620,989,391,-60,65,-18,132,3947,36,39,865,1854,1882,2100,2256,2077,1841,1888,2026
296383,23744,-9464,24409,-8359,306,1101,388,-59,59,43,117,4011,45,28,865,1796,1876,2095,2247,2079,1839,1885,2027
297384,23788,-9416,24474,-8294,732,1222,389,-74,58,-3,122,4086,32,32,867,1796,1876,2095,2247,2079,1839,1885,2027
298385,23856,-9344,24539,-8229,429,915,390,-77,60,-92,14,3976,43,35,861,1796,1876,2095,2247,2079,1839,1885,2027
299386,23924,-9292,24604,-8164,426,1180,379,-86,67,-1,207,3987,38,38,868,1796,1876,2095,2247,2079,1839,1885,2027
300387,23988,-9220,24669,-8099,477,922,378,-80,75,34,140,4008,34,28,865,1796,1876,2095,2247,2079,1839,1885,2027
301388,24048,-9176,24734,-8034,533,1299,371,-91,78,96,158,3848,37,42,867,1796,1876,2095,2247,2079,1839,1885,2027
302389,24108,-9124,24799,-7969,540,1214,363,-80,75,79,297,4184,31,36,862,1792,1873,2080,2228,2068,1832,1881,2023
303390,24168,-9072,24864,-7904,546,1231,359,-74,70,38,211,3897,32,28,863,1792,1873,2080,2228,2068,1832,1881,2023
304391,24224,-9008,24929,-7839,607,1083,359,-65,63,128,247,4052,37,39,863,1792,1873,2080,2228,2068,1832,1881,2023
305392,24292,-8932,24994,-7774,454,920,367,-80,72,83,190,3945,45,32,864,1792,1873,2080,2228,2068,1832,1881,2023
306393,24368,-8880,25059,-7709,341,1236,370,-134,78,-144,147,3789,47,41,868,1792,1873,2080,2228,2068,1832,1881,2023
307394,24440,-8816,25124,-7644,382,1088,364,-173,74,-143,207,3913,38,35,864,1794,1877,2095,2247,2067,1836,1946,2126
308395,24512,-8760,25189,-7579,374,1199,355,-176,72,112,180,3917,30,30,865,1794,1877,2095,2247,2067,1836,1946,2126
309396,24560,-8700,25254,-7514,696,1155,346,-184,73,158,83,3890,38,33,865,1794,1877,2095,2247,2067,1836,1946,2126
310397,24640,-8640,25319,-7449,277,1162,345,-187,97,1,132,3911,29,40,863,1794,1877,2095,2247,2067,1836,1946,2126
311398,24708,-8588,25384,-7384,424,1278,346,-180,93,133,95,3915,46,46,866,1794,1877,2095,2247,2067,1836,1946,2126
312399,24764,-8524,25449,-7319,585,1130,359,-185,87,-11,20,4109,34,38,864,1794,1877,2095,2247,2067,1836,1946,2126
313400,24832,-8452,25514,-7254,432,1022,361,-182,74,200,214,3948,30,40,864,1803,1884,2101,2256,2070,1835,1882,2020
314401,24888,-8376,25579,-7189,593,959,369,-191,93,166,129,4023,45,40,867,1803,1884,2101,2256,2070,1835,1882,2020
315402,24940,-8328,25644,-7124,659,1330,375,-183,82,300,293,4076,34,45,866,1803,1884,2101,2256,2070,1835,1882,2020
316403,25012,-8252,25709,-7059,400,968,376,-192,77,95,185,4057,46,32,860,1803,1884,2101,2256,2070,1835,1882,2020
317404,25080,-8200,25774,-6994,448,1284,375,-187,72,197,234,4231,30,33,867,1803,1884,2101,2256,2070,1835,1882,2020
318405,25152,-8136,25839,-6929,389,1136,378,-176,74,188,227,4133,38,44,864,1802,1881,2098,2256,2166,1920,1878,2014
319406,25216,-8064,25904,-6864,490,1027,386,-158,61,229,230,4085,32,31,865,1802,1881,2098,2256,2166,1920,1878,2014
320407,25264,-8016,25969,-6799,711,1348,391,-151,60,137,249,4084,32,41,866,1802,1881,2098,2256,2166,1920,1878,2014
321408,25316,-7940,26034,-6734,678,986,395,-160,59,50,250,4029,42,46,859,1802,1881,2098,2256,2166,1920,1878,2014
322409,25384,-7884,26099,-6669,474,1247,400,-166,60,3,257,4162,34,43,865,1802,1881,2098,2256,2166,1920,1878,2014
323410,25436,-7816,26164,-6604,690,1094,408,-176,52,-102,268,4014,36,44,863,1802,1881,2098,2256,2166,1920,1878,2014
324411,25492,-7752,26229,-6539,652,1145,408,-176,54,97,232,4123,29,32,863,1805,1884,2103,2265,2061,1827,1878,2014
325412,25552,-7700,26294,-6474,608,1312,416,-184,61,172,232,4021,36,36,861,1805,1884,2103,2265,2061,1827,1878,2014
326413,25628,-7628,26359,-6409,395,1054,416,-190,70,120,95,3786,38,30,861,1805,1884,2103,2265,2061,1827,1878,2014
327414,25704,-7572,26424,-6344,381,1266,421,-208,82,-20,84,3821,52,30,867,1805,1884,2103,2265,2061,1827,1878,2014
328415,25752,-7508,26489,-6279,753,1167,436,-203,81,6,116,3862,42,27,864,1805,1884,2103,2265,2061,1827,1878,2014
329416,25820,-7460,26554,-6214,499,1388,452,-195,73,196,170,3976,31,25,861,1812,1892,2221,2340,2066,1830,1877,2014
330417,25888,-7412,26619,-6149,496,1409,475,-187,80,292,102,3981,32,30,861,1812,1892,2221,2340,2066,1830,1877,2014
331418,25960,-7364,26684,-6084,437,1431,493,-195,87,302,123,4060,37,27,860,1812,1892,2221,2340,2066,1830,1877,2014
332419,26020,-7304,26749,-6019,594,1287,511,-188,83,251,190,4012,45,32,861,1812,1892,2221,2340,2066,1830,1877,2014
333420,26084,-7240,26814,-5954,546,1239,522,-181,94,160,314,4145,30,39,860,1812,1892,2221,2340,2066,1830,1877,2014
334421,26140,-7184,26879,-5889,657,1350,536,-171,100,266,348,4013,49,33,863,1812,1892,2221,2340,2066,1830,1877,2014
335422,26204,-7124,26944,-5824,559,1306,539,-175,85,397,312,4045,46,44,859,1812,1890,2106,2265,2050,1817,1867,2001
336423,26260,-7064,27009,-5759,670,1314,548,-197,66,304,363,4076,47,33,862,1812,1890,2106,2265,2050,1817,1867,2001
337424,26324,-6984,27074,-5694,571,1045,549,-215,62,166,415,3950,43,43,860,1812,1890,2106,2265,2050,1817,1867,2001
338426,26372,-6948,27139,-5629,792,1632,545,-225,57,193,424,3999,31,45,865,1812,1890,2106,2265,2050,1817,1867,2001
339426,26452,-6888,27204,-5564,374,1338,545,-245,42,195,358,3849,42,28,853,1812,1890,2106,2265,2050,1817,1867,2001
340427,26520,-6836,27269,-5499,521,1455,545,-270,30,49,234,4066,33,37,862,1870,1961,2101,2263,2042,1808,1861,1983
341428,26564,-6780,27334,-5434,846,1416,548,-292,35,9,287,3995,40,38,860,1870,1961,2101,2263,2042,1808,1861,1983
342429,26628,-6712,27399,-5369,599,1263,557,-301,30,142,287,4073,31,42,853,1870,1961,2101,2263,2042,1808,1861,1983
343430,26692,-6652,27464,-5304,600,1369,563,-308,30,233,214,4041,52,33,862,1870,1961,2101,2263,2042,1808,1861,1983
344431,26744,-6600,27529,-5239,766,1486,575,-320,36,257,242,4088,48,41,859,1870,1961,2101,2263,2042,1808,1861,1983
345432,26820,-6560,27594,-5174,452,1667,585,-317,37,247,150,3991,43,28,856,1870,1961,2101,2263,2042,1808,1861,1983
346433,26880,-6488,27659,-5109,659,1259,602,-309,45,256,195,3898,32,29,856,1802,1884,2111,2263,2056,1824,1874,2020
347434,26940,-6436,27724,-5044,666,1526,613,-311,52,163,196,3915,34,41,861,1802,1884,2111,2263,2056,1824,1874,2020
348435,27012,-6392,27789,-4979,507,1651,630,-310,47,99,117,4008,41,30,856,1802,1884,2111,2263,2056,1824,1874,2020
349436,27064,-6316,27854,-4914,774,1239,648,-316,44,223,274,3973,31,37,856,1802,1884,2111,2263,2056,1824,1874,2020
350437,27132,-6280,27919,-4849,570,1774,664,-312,39,276,221,3890,47,30,860,1802,1884,2111,2263,2056,1824,1874,2020
351438,27192,-6236,27984,-4784,676,1701,669,-314,41,275,193,3934,35,44,854,1804,1889,2105,2256,2073,1833,1883,2026
352439,27256,-6164,28049,-4719,629,1342,675,-342,45,32,293,3879,48,35,854,1804,1889,2105,2256,2073,1833,1883,2026
353440,27332,-6096,28114,-4654,465,1390,679,-351,41,-22,379,4056,31,39,860,1804,1889,2105,2256,2073,1833,1883,2026
354441,27400,-6032,28179,-4589,561,1441,679,-372,33,216,403,3949,29,43,861,1804,1889,2105,2256,2073,1833,1883,2026
355442,27456,-5956,28244,-4524,722,1279,683,-392,39,171,369,4038,26,42,859,1804,1889,2105,2256,2073,1833,1883,2026
356443,27520,-5920,28309,-4459,625,1814,672,-408,26,156,410,4009,33,28,860,1804,1889,2105,2256,2073,1833,1883,2026
357444,27580,-5844,28374,-4394,681,1302,671,-414,20,87,337,3979,31,40,852,1801,1881,2097,2255,2059,1821,1871,2111
358445,27632,-5772,28439,-4329,797,1344,670,-420,17,131,419,4210,35,28,860,1801,1881,2097,2255,2059,1821,1871,2111
359446,27692,-5716,28504,-4264,704,1555,671,-401,2,280,350,4021,45,39,856,1801,1881,2097,2255,2059,1821,1871,2111
360447,27752,-5668,28569,-4199,710,1677,675,-387,3,143,239,4169,32,42,855,1801,1881,2097,2255,2059,1821,1871,2111
361448,27808,-5612,28634,-4134,771,1588,670,-384,-2,222,297,4107,29,37,853,1801,1881,2097,2255,2059,1821,1871,2111
362449,27864,-5552,28699,-4069,783,1545,675,-358,-8,106,263,4097,33,28,854,1796,1874,2092,2249,2056,1823,1871,2010
363450,27916,-5500,28764,-4004,849,1661,675,-331,-1,181,230,3981,33,31,855,1796,1874,2092,2249,2056,1823,1871,2010
364451,27976,-5452,28829,-3939,755,1732,680,-310,5,263,163,3989,33,36,853,1796,1874,2092,2249,2056,1823,1871,2010
365452,28032,-5388,28894,-3874,816,1534,685,-298,3,104,132,3973,33,35,852,1796,1874,2092,2249,2056,1823,1871,2010
366453,28080,-5316,28959,-3809,937,1426,685,-299,6,-37,171,3901,35,31,855,1796,1874,2092,2249,2056,1823,1871,2010
367454,28144,-5256,29024,-3744,739,1583,694,-299,17,-93,197,3944,34,32,855,1796,1874,2092,2249,2056,1823,1871,2010
368455,28216,-5204,29089,-3679,630,1699,695,-317,23,-126,174,3865,54,34,854,1796,1874,2098,2252,2070,1932,1936,2020
369456,28280,-5136,29154,-3614,732,1496,696,-337,21,-138,114,3854,35,43,854,1796,1874,2098,2252,2070,1932,1936,2020
370457,28340,-5084,29219,-3549,788,1712,684,-351,18,-173,215,3954,33,39,855,1796,1874,2098,2252,2070,1932,1936,2020
371458,28404,-5024,29284,-3484,740,1619,676,-365,22,-169,293,3869,35,34,853,1796,1874,2098,2252,2070,1932,1936,2020
372459,28464,-4956,29349,-3419,797,1517,670,-369,21,-77,354,4052,35,48,854,1796,1874,2098,2252,2070,1932,1936,2020
373460,28536,-4884,29414,-3354,638,1458,665,-375,19,-5,255,3916,34,39,855,1794,1874,2095,2252,2074,1835,1881,2023
374461,28604,-4816,29479,-3289,685,1506,654,-365,16,61,374,4194,35,37,858,1794,1874,2095,2252,2074,1835,1881,2023
375462,28676,-4756,29544,-3224,627,1612,647,-362,4,140,361,3969,43,33,857,1794,1874,2095,2252,2074,1835,1881,2023
376463,28744,-4692,29609,-3159,673,1564,635,-352,1,79,369,4132,51,43,854,1794,1874,2095,2252,2074,1835,1881,2023
377464,28824,-4632,29674,-3094,505,1620,621,-333,4,82,365,4143,32,30,856,1794,1874,2095,2252,2074,1835,1881,2023
378465,28876,-4572,29739,-3029,872,1627,613,-313,4,185,393,4208,30,31,856,1788,1869,2085,2315,2160,1835,1881,2023
379466,28944,-4496,29804,-2964,668,1415,613,-291,-3,226,363,4192,33,26,852,1788,1869,2085,2315,2160,1838,1885,2035
380467,29000,-4440,29869,-2899,829,1676,597,-288,-7,230,335,4075,33,37,858,1788,1869,2085,2315,2160,1838,1885,2035
381468,29060,-4388,29934,-2834,786,1742,593,-289,0,24,261,4190,27,42,853,1788,1869,2085,2315,2160,1838,1885,2035
382469,29112,-4316,29999,-2769,902,1484,588,-287,-2,-82,387,4028,38,32,851,1788,1869,2085,2315,2160,1838,1885,2035
383470,29172,-4252,30064,-2704,808,1586,581,-296,-12,-7,219,3853,39,30,854,1788,1869,2085,2315,2160,1838,1885,2035
384471,29228,-4200,30129,-2639,870,1753,578,-312,-1,-74,185,4082,35,29,853,1802,1856,2072,2248,2106,1856,1904,2068
385472,29300,-4152,30194,-2574,662,1824,571,-345,-1,-71,230,3858,31,38,850,1802,1856,2072,2248,2106,1856,1904,2068
386473,29356,-4084,30259,-2509,873,1571,564,-373,6,-334,320,4136,32,42,852,1802,1856,2072,2248,2106,1856,1904,2068
387474,29420,-4012,30324,-2444,775,1513,557,-402,22,-216,372,4006,48,35,852,1802,1856,2072,2248,2106,1856,1904,2068
388475,29488,-3964,30389,-2379,721,1834,555,-427,31,0,357,4153,33,46,856,1802,1856,2072,2248,2106,1856,1904,2068
389476,29568,-3892,30454,-2314,553,1527,551,-483,42,-225,278,3732,31,44,851,1782,1957,2181,2241,2097,1850,1893,2042
390477,29628,-3828,30519,-2249,810,1628,538,-514,43,-296,320,4097,40,46,858,1782,1957,2181,2241,2097,1850,1893,2042
391478,29684,-3772,30584,-2184,871,1740,531,-505,51,-134,401,4116,42,32,853,1782,1957,2181,2241,2097,1850,1893,2042
392479,29756,-3708,30649,-2119,663,1641,523,-494,51,187,443,4193,28,45,850,1782,1957,2181,2241,2097,1850,1893,2042
393480,29804,-3640,30714,-2054,984,1589,523,-484,49,221,475,4216,28,38,852,1782,1957,2181,2241,2097,1850,1893,2042
394481,29872,-3580,30779,-1989,731,1696,511,-482,53,175,505,4094,29,40,851,1782,1957,2181,2241,2097,1850,1893,2042
395482,29932,-3520,30844,-1924,838,1702,507,-473,56,178,559,4301,34,45,853,1790,1875,2097,2240,2083,1837,1884,2033
396483,29992,-3464,30909,-1859,844,1764,498,-467,57,99,522,4106,43,35,851,1790,1875,2097,2240,2083,1837,1884,2033
397484,30032,-3412,30974,-1794,1124,1830,488,-445,51,241,503,4279,43,41,851,1790,1875,2097,2240,2083,1837,1884,2033
398485,30092,-3356,31039,-1729,882,1792,483,-429,68,82,529,4261,28,34,846,1790,1875,2097,2240,2083,1837,1884,2033
399486,30164,-3272,31104,-1664,723,1419,471,-408,82,81,521,4223,36,51,850,1790,1875,2097,2240,2083,1837,1884,2033
400487,30240,-3200,31169,-1599,660,1561,464,-409,107,-21,584,4172,50,35,858,1844,1884,2099,2245,2070,1830,1879,2028
401488,30280,-3136,31234,-1534,1141,1663,464,-415,120,-95,623,4218,48,44,856,1844,1884,2099,2245,2070,1830,1879,2028
402489,30352,-3080,31299,-1469,733,1774,467,-406,125,24,498,4158,28,37,847,1844,1884,2099,2245,2070,1830,1879,2028
403490,30392,-3028,31364,-1404,1163,1841,469,-401,122,59,545,4188,33,34,852,1844,1884,2099,2245,2070,1830,1879,2028
404491,30476,-2952,31429,-1339,591,1528,467,-414,119,-50,533,4105,33,34,845,1844,1884,2099,2245,2070,1830,1879,2028
405492,30536,-2884,31494,-1274,897,1625,477,-423,121,-262,656,4297,50,44,857,1844,1884,2099,2245,2070,1830,1879,2028
406493,30604,-2816,31559,-1209,793,1622,477,-432,126,-187,663,4017,36,33,852,1801,1876,2099,2258,2082,1838,1874,2021
407494,30660,-2756,31624,-1144,955,1728,475,-427,123,37,655,4304,39,44,854,1801,1876,2099,2258,2082,1838,1874,2021
408495,30724,-2708,31689,-1079,856,1900,475,-427,130,22,593,4115,46,47,850,1801,1876,2099,2258,2082,1838,1874,2021
409496,30788,-2620,31754,-1014,859,1373,493,-432,139,12,597,4361,52,35,848,1801,1876,2099,2258,2082,1838,1874,2021
410497,30840,-2568,31819,-949,1025,1839,511,-436,163,-162,628,4316,52,41,854,1801,1876,2099,2258,2082,1838,1874,2021
411498,30900,-2492,31884,-884,931,1526,529,-443,185,3,559,4193,34,34,847,1807,1885,2118,2271,2088,1850,1888,2027
412499,30968,-2440,31949,-819,828,1843,549,-433,193,-2,679,4462,42,48,853,1807,1885,2118,2271,2088,1850,1888,2027
413500,31024,-2368,32014,-754,989,1585,586,-438,209,-93,443,4564,49,32,848,1807,1885,2118,2271,2088,1850,1888,2027
414501,31084,-2284,32079,-689,945,1413,645,-540,218,1127,334,4253,39,33,852,1807,1885,2118,2271,2088,1850,1888,2027
415502,31160,-2240,32144,-624,733,1938,648,-621,216,-496,-268,4606,59,38,855,1807,1885,2118,2271,2088,1850,1888,2027
416503,31248,-2156,32209,-559,555,1416,672,-547,123,-2158,-250,5875,57,35,848,1807,1885,2118,2271,2088,1850,1888,2027
417504,31312,-2092,32274,-494,856,1668,729,-494,149,987,1242,4230,43,39,859,1803,1891,2127,2279,2055,1823,1944,2120
418505,31396,-2044,32339,-429,584,1889,709,-478,200,1954,349,4653,49,37,852,1803,1891,2127,2279,2055,1823,1944,2120
419506,31456,-1968,32404,-364,890,1527,642,-458,166,41,694,4052,54,48,851,1803,1891,2127,2279,2055,1823,1944,2120
420507,31540,-1908,32469,-299,568,1733,594,-420,168,-676,1358,4632,41,39,854,1803,1891,2127,2279,2055,1823,1944,2120
421508,31616,-1832,32534,-234,654,1520,550,-335,180,630,1020,3973,46,51,855,1803,1891,2127,2279,2055,1823,1944,2120
422509,31660,-1744,32599,-169,1080,1343,514,-248,183,1043,958,4150,48,50,857,1865,1928,2144,2321,2060,1812,1880,2035
423510,31736,-1684,32664,-104,667,1699,505,-250,194,169,1351,4253,48,44,855,1865,1928,2144,2321,2060,1812,1880,2035
424511,31808,-1608,32729,-39,709,1487,499,-281,177,-273,857,3925,38,37,854,1865,1928,2144,2321,2060,1812,1880,2035
425512,31864,-1536,32794,26,920,1528,504,-305,157,-207,477,4120,45,39,857,1865,1928,2144,2321,2060,1812,1880,2035
426513,31928,-1468,32859,91,822,1576,516,-364,161,-396,674,4017,44,38,854,1865,1928,2144,2321,2060,1812,1880,2035
427514,31992,-1396,32924,156,823,1518,559,-403,158,-351,509,4250,40,42,852,1865,1928,2144,2321,2060,1812,1880,2035
428515,32052,-1340,32989,221,879,1729,606,-449,153,-135,424,4431,34,46,854,1829,1907,2133,2276,2207,1951,1907,2047
429516,32124,-1276,33054,286,722,1631,664,-525,162,-298,328,4386,43,46,850,1829,1907,2133,2276,2207,1951,1907,2047
430517,32188,-1216,33119,351,823,1687,714,-580,159,-283,356,4376,51,35,855,1829,1907,2133,2276,2207,1951,1907,2047
431518,32244,-1136,33184,416,934,1420,765,-588,150,-20,598,4453,46,44,852,1829,1907,2133,2276,2207,1951,1907,2047
432519,32296,-1072,33249,481,1001,1622,804,-589,146,292,609,4556,34,35,855,1829,1907,2133,2276,2207,1951,1907,2047
433520,32372,-1016,33314,546,687,1733,842,-576,139,380,647,4515,47,44,851,1759,1844,2084,2218,2092,1846,1871,2023
434521,32436,-952,33379,611,840,1635,848,-574,123,309,816,4481,46,44,853,1759,1844,2084,2218,2092,1846,1871,2023
435522,32508,-884,33444,676,731,1582,841,-533,113,452,949,4368,49,44,852,1759,1844,2084,2218,2092,1846,1871,2023
436523,32568,-824,33509,741,887,1689,796,-458,111,785,1189,4173,42,46,855,1759,1844,2084,2218,2092,1846,1871,2023
437524,32620,-760,33574,806,1004,1641,737,-401,117,684,1333,4018,33,47,851,1759,1844,2084,2218,2092,1846,1871,2023
438525,32708,-696,33639,871,526,1642,657,-350,118,583,1380,3841,51,46,851,1759,1844,2084,2218,2092,1846,1871,2023
439526,32768,-628,33704,936,882,1590,585,-319,122,431,1386,3720,37,46,856,1798,1884,2202,2326,2060,1812,1865,2005
440527,32832,-572,33769,1001,834,1751,518,-313,121,266,1372,3644,33,47,853,1798,1884,2202,2326,2060,1812,1865,2005
441528,32904,-500,33834,1066,726,1543,470,-303,106,168,1313,3632,39,35,851,1798,1884,2202,2326,2060,1812,1865,2005
442529,32964,-432,33899,1131,882,1589,420,-320,94,-119,1193,3639,46,45,856,1798,1884,2202,2326,2060,1812,1865,2005
443530,33028,-356,33964,1196,834,1477,403,-344,89,-16,1113,3783,39,39,851,1798,1884,2202,2326,2060,1812,1865,2005
444531,33096,-280,34029,1261,780,1465,425,-394,97,19,914,3668,34,47,853,1810,1885,2110,2254,2090,1852,1884,2042
445532,33160,-220,34094,1326,832,1671,461,-462,98,-298,822,3955,53,31,856,1810,1885,2110,2254,2090,1852,1884,2042
446533,33228,-172,34159,1391,779,1842,497,-497,62,-256,670,3779,40,39,852,1810,1885,2110,2254,2090,1852,1884,2042
447534,33280,-92,34224,1456,995,1424,540,-515,36,72,606,4078,34,42,850,1810,1885,2110,2254,2090,1852,1884,2042
448535,33364,-16,34289,1521,572,1462,584,-522,45,59,611,4006,37,32,854,1810,1885,2110,2254,2090,1852,1884,2042
449536,33432,36,34488,1720,1620,2629,621,-554,65,501,428,3700,33,35,858,1810,1885,2110,2254,2090,1852,1884,2042
450537,33504,120,34553,1785,1561,2206,611,-589,45,85,377,4074,47,46,824,1790,1903,2100,2192,2120,1864,1881,2048
451538,33588,184,34618,1850,1389,2458,536,-536,-42,-508,739,3850,58,46,833,1790,1903,2100,2192,2120,1864,1881,2048
452539,33660,280,34683,1915,1530,2021,422,-368,-82,378,1016,3664,63,58,833,1790,1903,2100,2192,2120,1864,1881,2048
453540,33752,376,34748,1980,1247,1984,316,-237,-57,1191,1030,3635,63,53,839,1790,1903,2100,2192,2120,1864,1881,2048
454541,33856,504,34813,2045,1051,1508,258,-218,-19,454,1030,3686,60,78,844,1790,1903,2100,2192,2120,1864,1881,2048
455542,33952,592,34878,2110,1113,1980,261,-275,-16,-82,1273,3709,64,66,854,1712,1796,2020,2160,2064,1816,1856,2030
456543,34064,716,34943,2175,855,1459,281,-333,-32,181,1315,3784,68,64,846,1712,1796,2020,2160,2064,1816,1856,2030
457544,34156,836,35008,2240,1074,1441,293,-376,-24,216,1348,3654,62,77,857,1712,1796,2020,2160,2064,1816,1856,2030
458545,34280,948,35073,2305,602,1485,276,-386,-15,150,1395,3717,78,65,855,1712,1796,2020,2160,2064,1816,1856,2030
459546,34384,1068,35138,2370,804,1319,228,-368,-28,173,1222,3858,81,80,859,1712,1796,2020,2160,2064,1816,1856,2030
460547,34492,1188,35203,2435,702,1252,188,-325,-20,363,1468,3994,62,72,859,1712,1796,2020,2160,2064,1816,1856,2030
461548,34588,1300,35268,2500,815,1294,134,-317,-19,629,1435,3500,61,60,860,1728,1792,2048,2188,2070,1827,1883,2031
462549,34708,1400,35333,2565,447,1403,101,-320,-55,396,1201,3883,74,57,860,1728,1792,2048,2188,2070,1827,1883,2031
463550,34804,1496,35398,2630,710,1415,84,-349,-96,33,1305,3675,78,60,862,1728,1792,2048,2188,2070,1827,1883,2031
464551,34904,1596,35463,2695,618,1323,85,-393,-119,107,1190,3645,53,58,859,1728,1792,2048,2188,2070,1827,1883,2031
465554,35000,1696,35528,2760,630,1280,94,-403,-126,493,1036,3800,58,55,861,1728,1792,2048,2188,2070,1827,1883,2031
466553,35104,1792,35593,2825,482,1293,110,-448,-135,241,1086,3637,51,63,861,1736,1832,2076,2205,2106,1856,1872,2113
467554,35184,1868,35658,2890,764,1530,121,-454,-157,-44,1024,3943,52,60,863,1736,1832,2076,2205,2106,1856,1872,2113
468555,35276,1948,35723,2955,581,1462,136,-445,-175,231,1063,3679,50,61,857,1736,1832,2076,2205,2106,1856,1872,2113
469556,35376,2032,35788,3020,439,1390,122,-437,-187,501,1030,3789,49,61,860,1736,1832,2076,2205,2106,1856,1872,2113
470557,35456,2132,35853,3085,671,1147,108,-400,-198,465,1123,3711,56,58,861,1736,1832,2076,2205,2106,1856,1872,2113
471558,35552,2200,35918,3150,433,1544,86,-360,-205,492,1262,3631,48,54,863,1736,1832,2076,2205,2106,1856,1872,2113
472559,35632,2284,35983,3215,615,1321,63,-330,-208,480,1268,3575,59,44,860,1771,1863,2107,2239,2074,1828,1860,2016
473560,35720,2368,36048,3280,487,1298,36,-330,-221,401,1308,3519,49,52,861,1771,1863,2107,2239,2074,1828,1860,2016
474561,35796,2440,36113,3345,623,1440,3,-343,-231,39,1511,3684,46,41,863,1771,1863,2107,2239,2074,1828,1860,2016
475562,35872,2532,36178,3410,610,1157,-18,-320,-216,385,1652,3463,39,47,859,1771,1863,2107,2239,2074,1828,1860,2016
476563,35932,2600,36243,3475,817,1454,-37,-297,-183,764,1653,3495,50,50,863,1771,1863,2107,2239,2074,1828,1860,2016
477564,36020,2652,36308,3540,439,1670,-53,-299,-183,470,1699,3328,53,33,856,1794,1882,2105,2243,2039,1865,1896,2052
478565,36096,2704,36373,3605,576,1686,-49,-300,-205,-12,1625,3639,38,31,855,1794,1882,2105,2243,2039,1865,1896,2052
479566,36160,2772,36438,3670,727,1483,-66,-324,-200,129,1788,3557,46,42,855,1794,1882,2105,2243,2039,1865,1896,2052
480567,36240,2836,36503,3735,509,1535,-53,-305,-193,612,1676,3548,37,31,857,1794,1882,2105,2243,2039,1865,1896,2052
481568,36300,2912,36568,3800,765,1371,-45,-287,-199,597,1506,3693,39,47,858,1794,1882,2105,2243,2039,1865,1896,2052
482569,36384,2960,36633,3865,441,1742,-18,-294,-202,432,1581,3539,30,34,858,1794,1882,2105,2243,2039,1865,1896,2052
483570,36436,3024,36698,3930,857,1544,13,-300,-207,467,1474,3667,34,47,856,1762,1841,2063,2200,2031,1797,1830,1976
484571,36508,3084,36763,3995,599,1601,60,-308,-208,587,1286,3473,34,46,855,1762,1841,2063,2200,2031,1797,1830,1976
485572,36592,3164,36828,4060,426,1332,102,-311,-208,527,1310,3637,45,41,856,1762,1841,2063,2200,2031,1797,1830,1976
486573,36640,3236,36893,4125,897,1425,143,-306,-217,367,1368,3529,38,52,862,1762,1841,2063,2200,2031,1797,1830,1976
487574,36712,3308,36958,4190,589,1416,174,-289,-215,511,1415,3468,34,53,856,1762,1841,2063,2200,2031,1797,1830,1976
488575,36788,3388,37023,4255,525,1298,199,-294,-216,680,1422,3385,49,52,860,1738,1817,2053,2225,2116,1885,1825,1966
489576,36868,3448,37088,4320,457,1555,203,-301,-206,481,1399,3257,37,55,862,1738,1817,2053,2225,2116,1885,1825,1966
490577,36924,3544,37153,4385,768,1067,205,-312,-196,351,1441,3168,47,51,858,1738,1817,2053,2225,2116,1885,1825,1966
491578,37000,3616,37218,4450,505,1359,206,-298,-193,513,1618,3219,38,57,862,1738,1817,2053,2225,2116,1885,1825,1966
492579,37064,3688,37283,4515,656,1351,191,-294,-190,518,1497,3006,49,57,861,1738,1817,2053,2225,2116,1885,1825,1966
493580,37132,3792,37348,4580,602,903,169,-297,-181,367,1438,3161,31,48,860,1738,1817,2053,2225,2116,1885,1825,1966
494581,37192,3864,37413,4645,708,1295,153,-288,-152,375,1650,3125,38,54,866,1781,1862,2098,2247,2009,1782,1822,1963
495582,37248,3940,37478,4710,769,1231,147,-269,-117,573,1617,3053,42,54,857,1781,1862,2098,2247,2009,1782,1822,1963
496583,37324,4020,37543,4775,506,1164,143,-249,-94,678,1446,3139,38,51,861,1781,1862,2098,2247,2009,1782,1822,1963
497584,37404,4096,37608,4840,438,1201,133,-261,-88,329,1287,3087,50,52,864,1781,1862,2098,2247,2009,1782,1822,1963
498585,37468,4172,37673,4905,640,1187,131,-263,-79,174,1396,3210,39,50,864,1781,1862,2098,2247,2009,1782,1822,1963
499586,37520,4256,37738,4970,806,1065,130,-249,-59,319,1438,3170,30,52,862,1796,1891,2183,2304,2021,1787,1828,1976
500587,37596,4320,37803,5035,492,1316,125,-231,-26,611,1354,3139,45,41,862,1796,1891,2183,2304,2021,1787,1828,1976
501588,37672,4396,37868,5100,479,1153,130,-239,-11,462,1261,3214,36,58,862,1796,1891,2183,2304,2021,1787,1828,1976
502589,37740,4480,37933,5165,575,1030,142,-246,-6,188,1361,3289,36,43,865,1796,1891,2183,2304,2021,1787,1828,1976
503590,37804,4544,37998,5230,626,1282,164,-263,0,288,1417,3216,39,46,866,1796,1891,2183,2304,2021,1787,1828,1976
504591,37888,4624,38063,5295,353,1064,196,-263,1,592,1407,3456,53,51,862,1796,1891,2183,2304,2021,1787,1828,1976
505592,37952,4692,38128,5360,604,1210,226,-283,10,602,1337,3297,33,52,867,1736,1813,2055,2175,2039,1800,1832,1985
506593,38024,4776,38193,5425,496,987,247,-298,25,240,1359,3353,45,54,863,1736,1813,2055,2175,2039,1800,1832,1985
507594,38104,4864,38258,5490,377,910,256,-299,40,294,1449,3327,52,60,867,1736,1813,2055,2175,2039,1800,1832,1985
508595,38176,4932,38323,5555,469,1156,261,-294,50,580,1422,3459,34,50,869,1736,1813,2055,2175,2039,1800,1832,1985
509596,38232,5012,38388,5620,680,988,252,-296,60,672,1401,3384,31,52,865,1736,1813,2055,2175,2039,1800,1832,1985
510597,38320,5096,38453,5685,252,914,249,-282,96,495,1561,3252,35,50,865,1767,1871,2031,2160,2040,1798,1833,1981
511598,38412,5196,38518,5750,169,673,233,-276,136,568,1605,3137,36,48,869,1767,1871,2031,2160,2040,1798,1833,1981
512599,38476,5256,38583,5815,520,1179,222,-271,150,599,1447,3061,48,45,871,1767,1871,2031,2160,2040,1798,1833,1981
513600,38540,5336,38648,5880,521,911,200,-286,158,514,1492,3196,47,42,864,1767,1871,2031,2160,2040,1798,1833,1981
514601,38616,5388,38713,5945,359,1276,175,-302,185,166,1432,3025,32,47,867,1767,1871,2031,2160,2040,1798,1833,1981
515603,38692,5472,38778,6010,345,853,147,-286,221,373,1433,3112,35,48,865,1767,1871,2031,2160,2040,1798,1833,1981
516603,38768,5540,38843,6075,332,1051,109,-277,262,598,1252,2984,46,43,870,1746,1829,2061,2200,2049,1813,1846,1998
517604,38824,5612,38908,6140,593,992,79,-275,296,446,1260,2952,43,40,868,1746,1829,2061,2200,2049,1813,1846,1998
518605,38888,5692,38973,6205,494,874,50,-281,318,233,1224,2978,43,39,866,1746,1829,2061,2200,2049,1813,1846,1998
519606,38968,5756,39038,6270,276,1075,36,-279,333,215,1198,3074,52,53,868,1746,1829,2061,2200,2049,1813,1846,1998
520607,39032,5820,39103,6335,477,1076,19,-285,373,463,864,3004,35,38,867,1746,1829,2061,2200,2049,1813,1846,1998
521608,39124,5892,39168,6400,94,969,7,-270,402,421,980,3154,33,38,866,1756,1839,2077,2201,2075,1832,1854,2012
522609,39184,5976,39233,6465,500,795,-19,-254,420,247,1101,3079,31,49,870,1756,1839,2077,2201,2075,1832,1854,2012
523610,39256,6048,39298,6530,342,937,-32,-227,436,290,1040,3282,31,52,870,1756,1839,2077,2201,2075,1832,1854,2012
524611,39344,6112,39363,6595,114,1038,-50,-203,448,539,1087,3245,50,53,869,1756,1839,2077,2201,2075,1832,1854,2012
525612,39420,6188,39428,6660,250,875,-67,-197,470,557,1097,3129,36,46,869,1756,1839,2077,2201,2075,1832,1854,2012
526613,39500,6244,39493,6725,182,1137,-91,-169,484,394,1068,3257,35,52,871,1756,1839,2077,2201,2075,1832,1854,2012
527614,39560,6328,39558,6790,438,763,-121,-135,478,391,1187,3310,33,40,868,1730,1813,2048,2167,2079,1829,1851,2085
528615,39636,6416,39623,6855,225,685,-156,-122,493,515,1228,3254,45,43,870,1730,1813,2048,2167,2079,1829,1851,2085
529616,39720,6492,39688,6920,101,822,-188,-98,532,587,1221,3097,44,45,871,1730,1813,2048,2167,2079,1829,1851,2085
530617,39796,6564,39753,6985,188,863,-227,-48,560,569,1184,3189,33,41,872,1730,1813,2048,2167,2079,1829,1851,2085
531618,39868,6632,39818,7050,229,910,-273,-25,568,524,1175,2976,33,37,871,1730,1813,2048,2167,2079,1829,1851,2085
532619,39932,6712,39883,7115,331,742,-323,-18,569,336,1235,3026,50,38,870,1711,1795,2030,2161,2066,1823,1848,1993
533620,40000,6792,39948,7180,277,724,-380,10,600,509,1185,2989,37,46,871,1711,1795,2030,2161,2066,1823,1848,1993
534621,40072,6848,40013,7245,218,1035,-444,53,628,738,1077,2962,48,48,872,1711,1795,2030,2161,2066,1823,1848,1993
535622,40144,6904,40078,7310,210,1046,-516,92,645,567,919,2888,39,32,869,1711,1795,2030,2161,2066,1823,1848,1993
536623,40216,6984,40143,7375,201,728,-567,119,667,417,937,2847,48,34,869,1711,1795,2030,2161,2066,1823,1848,1993
537624,40308,7044,40208,7440,-82,984,-606,185,682,608,1009,2971,32,36,872,1711,1795,2030,2161,2066,1823,1848,1993
538625,40368,7120,40273,7505,325,770,-635,232,711,675,777,2780,37,42,868,1733,1812,2052,2184,2080,1924,1910,2008
539626,40440,7200,40338,7570,165,703,-645,291,734,627,623,2861,39,34,871,1733,1812,2052,2184,2080,1924,1910,2008
540627,40520,7240,40403,7635,47,1234,-659,328,755,558,679,2789,51,43,873,1733,1812,2052,2184,2080,1924,1910,2008
541628,40600,7332,40468,7700,28,551,-671,373,775,457,694,2901,36,38,867,1733,1812,2052,2184,2080,1924,1910,2008
542629,40672,7408,40533,7765,120,737,-698,438,793,516,819,2866,36,37,875,1733,1812,2052,2184,2080,1924,1910,2008
543630,40732,7484,40598,7830,276,724,-722,481,812,579,821,2636,30,52,873,1705,1785,2031,2158,2100,1854,1859,2007
544631,40824,7556,40663,7895,-157,765,-750,525,837,508,764,2840,33,49,872,1705,1785,2031,2158,2100,1854,1859,2007
545632,40888,7632,40728,7960,194,702,-796,574,854,332,820,2735,38,48,860,1705,1785,2031,2158,2100,1854,1859,2007
546633,40956,7712,40793,8025,141,635,-840,685,860,423,857,2893,52,42,870,1705,1785,2031,2158,2100,1854,1859,2007
547634,41040,7800,40858,8090,-83,507,-871,774,865,1007,695,2626,36,45,873,1705,1785,2031,2158,2100,1854,1859,2007
548635,41136,7880,40923,8155,-271,588,-910,848,869,854,719,2779,50,47,873,1705,1785,2031,2158,2100,1854,1859,2007
549636,41220,7968,40988,8220,-144,460,-955,933,863,693,707,2686,49,53,874,1683,1766,1956,2152,2145,1811,1823,1954
550637,41328,8048,41053,8285,-496,542,-1018,992,854,604,729,2519,30,41,867,1683,1766,1956,2152,2145,1811,1823,1954
551638,41448,8148,41118,8350,-713,249,-1091,1057,847,685,628,2767,48,48,874,1683,1766,1956,2152,2145,1811,1823,1954
552639,41508,8228,41183,8415,43,481,-1173,1104,844,753,641,2599,48,57,877,1683,1766,1956,2152,2145,1811,1823,1954
553640,41564,8300,41248,8480,103,572,-1257,1150,838,432,775,2643,47,43,876,1683,1766,1956,2152,2145,1811,1823,1954
554641,41640,8384,41313,8545,-161,399,-1332,1195,831,503,744,2530,48,46,874,1679,1868,2047,2135,2014,1796,1816,1946
555642,41708,8492,41378,8610,-64,47,-1389,1216,852,521,611,2506,32,58,862,1679,1868,2047,2135,2014,1796,1816,1946
556643,41776,8580,41443,8675,-68,268,-1435,1237,853,672,543,2819,46,61,877,1679,1868,2047,2135,2014,1796,1816,1946
557644,41844,8648,41508,8740,-72,515,-1461,1292,848,724,418,2564,29,47,876,1679,1868,2047,2135,2014,1796,1816,1946
558645,41912,8740,41573,8805,-75,182,-1477,1311,847,669,365,2716,45,46,873,1679,1868,2047,2135,2014,1796,1816,1946
559646,41980,8832,41638,8870,-79,149,-1478,1338,865,654,181,2721,44,45,875,1679,1868,2047,2135,2014,1796,1816,1946
560647,42052,8936,41703,8935,-138,-49,-1462,1360,894,889,126,2889,47,52,876,1662,1815,2062,2131,2072,1842,1859,2009
561648,42124,9076,41768,9000,-147,-590,-1432,1353,921,734,130,2717,32,52,870,1662,1815,2062,2131,2072,1842,1859,2009
562649,42200,9220,41833,9065,-210,-737,-1392,1338,941,567,253,3086,43,62,861,1662,1815,2062,2131,2072,1842,1859,2009
563650,42260,9288,41898,9130,-4,210,-1343,1317,946,722,372,2904,33,44,849,1662,1815,2062,2131,2072,1842,1859,2009
564651,42328,9380,41963,9195,-108,-123,-1325,1261,931,571,296,3310,30,43,876,1662,1815,2062,2131,2072,1842,1859,2009
565652,42396,9452,42028,9260,-112,118,-1336,1217,917,541,323,3066,34,46,872,1698,1790,2024,2153,2058,1790,1823,1998
566653,42444,9532,42093,9325,159,0,-1363,1176,921,687,727,3432,44,50,870,1698,1790,2024,2153,2058,1790,1823,1998
567654,42508,9600,42158,9390,-40,146,-1386,1172,918,763,826,3273,40,53,878,1698,1790,2024,2153,2058,1790,1823,1998
568655,42588,9676,42223,9455,-259,33,-1420,1201,913,1019,793,3351,37,55,879,1698,1790,2024,2153,2058,1790,1823,1998
569656,42644,9756,42288,9520,52,-36,-1457,1190,887,866,808,3257,29,40,878,1698,1790,2024,2153,2058,1790,1823,1998
570657,42708,9824,42353,9585,-47,111,-1482,1147,858,513,731,3338,43,43,879,1698,1790,2024,2153,2058,1790,1823,1998
571658,42788,9924,42418,9650,-265,-332,-1513,1091,848,318,704,3477,40,38,879,1867,1892,2098,2255,2009,1780,1839,1972
572659,42852,10008,42483,9715,-64,-155,-1534,1065,847,335,449,3677,44,40,876,1867,1892,2098,2255,2009,1780,1839,1972
573660,42904,10076,42548,9780,102,40,-1540,996,853,277,334,3742,27,43,878,1867,1892,2098,2255,2009,1780,1839,1972
574661,42976,10152,42613,9845,-157,-73,-1505,901,866,-44,141,3835,31,44,879,1867,1892,2098,2255,2009,1780,1839,1972
575662,43044,10224,42678,9910,-111,-32,-1431,775,875,-237,-32,4136,42,42,866,1867,1892,2098,2255,2009,1780,1839,1972
576663,43108,10300,42743,9975,-60,-95,-1338,662,887,-127,-323,4351,33,42,872,1855,1942,2146,2299,2003,1777,1841,1965
577664,43168,10392,42808,10040,-4,-328,-1224,552,901,112,-269,4342,31,40,878,1855,1942,2146,2299,2003,1777,1841,1965
578665,43240,10456,42873,10105,-162,23,-1109,469,921,94,-320,4436,32,36,877,1855,1942,2146,2299,2003,1777,1841,1965
579666,43320,10536,42938,10170,-281,-195,-1003,410,944,125,-273,4626,45,47,866,1855,1942,2146,2299,2003,1777,1841,1965
580667,43372,10616,43003,10235,85,-214,-910,352,964,216,-231,4507,29,43,875,1855,1942,2146,2299,2003,1777,1841,1965
581668,43460,10696,43068,10300,-393,-233,-835,279,983,247,-106,4546,28,42,878,1855,1942,2146,2299,2003,1777,1841,1965
582669,43524,10780,43133,10365,-93,-306,-784,190,988,301,-84,4547,30,35,877,1908,2000,2204,2381,1984,1762,1851,1979
583670,43592,10860,43198,10430,-146,-274,-755,134,1000,212,145,4517,41,48,877,1908,2000,2204,2381,1984,1762,1851,1979
584671,43664,10940,43263,10495,-205,-293,-738,120,1011,241,233,4513,37,35,865,1908,2000,2204,2381,1984,1762,1851,1979
585672,43740,11028,43328,10560,-268,-421,-737,114,1027,152,227,4391,30,39,857,1908,2000,2204,2381,1984,1762,1851,1979
586673,43808,11084,43393,10625,-172,-10,-742,77,1023,113,138,4275,33,35,874,1908,2000,2204,2381,1984,1762,1851,1979
587674,43888,11176,43458,10690,-340,-494,-739,14,1014,-23,101,4422,47,33,879,2024,2091,2274,2478,1967,1745,1879,2045
588675,43956,11252,43523,10755,-195,-307,-729,-66,1011,-161,62,4396,32,38,873,2024,2091,2274,2478,1967,1745,1879,2045
589676,44044,11312,43588,10820,-473,-101,-717,-135,1002,-217,-224,4343,33,41,876,2024,2091,2274,2478,1967,1745,1879,2045
590677,44132,11384,43653,10885,-501,-260,-688,-181,991,-206,-460,4635,52,41,877,2024,2091,2274,2478,1967,1745,1879,2045
591678,44216,11456,43718,10950,-474,-268,-646,-194,993,-372,-648,4750,38,33,877,2024,2091,2274,2478,1967,1745,1879,2045
592679,44292,11528,43783,11015,-388,-278,-575,-202,996,-452,-855,4746,46,46,877,2024,2091,2274,2478,1967,1745,1879,2045
593680,44364,11600,43848,11080,-346,-286,-501,-232,981,-568,-1034,4966,42,34,877,1987,2256,2233,2430,2014,1821,1879,1995
594681,44460,11676,43913,11145,-685,-350,-426,-273,963,-683,-1118,4844,35,33,877,1987,2256,2233,2430,2014,1821,1879,1995
595682,44532,11724,43978,11210,-394,21,-362,-293,960,-748,-1208,5110,51,46,868,1987,2256,2233,2430,2014,1821,1879,1995
596683,44600,11816,44043,11275,-347,-562,-316,-304,965,-364,-1178,4806,55,32,879,1987,2256,2233,2430,2014,1821,1879,1995
597684,44684,11884,44108,11340,-571,-267,-278,-304,948,-248,-1086,4889,52,34,872,1987,2256,2233,2430,2014,1821,1879,1995
598685,44780,11944,44173,11405,-759,-160,-253,-298,939,-671,-1208,4840,35,43,877,1873,1937,2151,2331,2155,1941,1870,2012
599686,44860,12008,44238,11470,-578,-209,-248,-270,944,-650,-1159,4722,53,27,866,1873,1937,2151,2331,2155,1941,1870,2012
600687,44956,12068,44303,11535,-816,-153,-265,-215,945,-164,-1001,4481,40,31,878,1873,1937,2151,2331,2155,1941,1870,2012
601688,45032,12128,44368,11600,-579,-147,-297,-161,952,-44,-964,4190,47,28,878,1873,1937,2151,2331,2155,1941,1870,2012
602689,45128,12188,44433,11665,-868,-142,-326,-119,961,-157,-999,3921,58,45,878,1873,1937,2151,2331,2155,1941,1870,2012
603690,45216,12252,44498,11730,-796,-191,-359,-82,965,-207,-900,3699,41,44,864,1843,1915,2129,2287,2090,1941,1870,2012
604691,45304,12312,44563,11795,-824,-135,-399,-83,950,-180,-963,3557,57,42,878,1843,1915,2129,2287,2090,1887,1931,2034
605692,45408,12388,44628,11860,-1072,-348,-439,-50,932,-221,-869,3707,51,35,878,1843,1915,2129,2287,2090,1887,1931,2034
606693,45500,12436,44693,11925,-956,23,-481,19,913,-168,-712,4008,42,40,876,1843,1915,2129,2287,2090,1887,1931,2034
607694,45604,12496,44758,11990,-1153,-122,-540,57,915,-346,-892,3674,45,38,873,1843,1915,2129,2287,2090,1887,1931,2034
608695,45696,12564,44823,12055,-1036,-226,-584,73,911,-216,-907,4030,62,42,878,1843,1915,2129,2287,2090,1887,1931,2034
609696,45780,12628,44888,12120,-960,-175,-596,65,884,-82,-1071,4070,58,46,878,1814,1888,2164,2371,2107,1898,1922,2029
610697,45908,12692,44953,12185,-1587,-173,-605,59,810,-355,-1186,4343,60,35,878,1814,1888,2164,2371,2107,1898,1922,2029
611698,45992,12740,45018,12250,-1060,47,-634,53,774,-655,-1761,3717,58,34,874,1814,1888,2164,2371,2107,1898,1922,2029
612699,46096,12816,45083,12315,-1359,-317,-658,-2,751,-308,-1404,4099,55,32,879,1814,1888,2164,2371,2107,1898,1922,2029
613700,46208,12864,45148,12380,-1516,54,-655,-84,706,-855,-1309,3866,60,36,877,1814,1888,2164,2371,2107,1898,1922,2029
614701,46300,12916,45213,12445,-1299,20,-658,-200,680,-1317,-1568,3974,58,31,876,1774,1840,2073,2246,2108,1881,1907,2031
615702,46392,12992,45278,12510,-1333,-294,-659,-309,664,-841,-1586,4130,46,34,876,1774,1840,2073,2246,2108,1881,1907,2031
616703,46480,13056,45343,12575,-1311,-143,-657,-435,659,-467,-1481,3734,50,48,877,1774,1840,2073,2246,2108,1881,1907,2031
617704,46584,13100,45408,12640,-1560,132,-631,-541,657,-605,-1381,3924,39,44,878,1774,1840,2073,2246,2108,1881,1907,2031
618705,46688,13168,45473,12705,-1608,-172,-634,-576,685,-699,-1891,3679,42,31,878,1774,1840,2073,2246,2108,1881,1907,2031
619706,46748,13252,45538,12770,-1053,-395,-658,-527,698,380,-1402,4051,48,34,875,1774,1840,2073,2246,2108,1881,1907,2031
620707,46856,13308,45603,12835,-1705,-34,-693,-467,712,389,-1244,3580,41,35,876,1869,1967,2087,2260,2066,1836,1904,2033
621708,46956,13392,45668,12900,-1649,-407,-754,-411,727,243,-1257,3773,53,30,879,1869,1967,2087,2260,2066,1836,1904,2033
622709,47044,13440,45733,12965,-1527,64,-836,-288,770,122,-1556,3907,47,30,876,1869,1967,2087,2260,2066,1836,1904,2033
623710,47120,13492,45798,13030,-1391,29,-912,-231,779,697,-706,3774,58,40,877,1869,1967,2087,2260,2066,1836,1904,2033
624711,47212,13556,45863,13095,-1624,-120,-967,-271,757,173,-849,3478,42,33,879,1869,1967,2087,2260,2066,1836,1904,2033
625712,47304,13596,45928,13160,-1658,210,-1037,-391,743,-400,-1168,3632,52,31,878,1877,1972,2146,2325,2019,1823,1907,2024
626713,47396,13668,45993,13225,-1691,-198,-1092,-509,710,-331,-1327,3280,45,43,878,1877,1972,2146,2325,2019,1823,1907,2024
627714,47444,13716,46058,13290,-1121,122,-1115,-626,657,-604,-1342,3404,38,44,876,1877,1972,2146,2325,2019,1823,1907,2024
628715,47540,13780,46123,13355,-1759,-76,-1117,-736,601,-817,-1436,3481,44,38,878,1877,1972,2146,2325,2019,1823,1907,2024
629716,47612,13852,46188,13420,-1469,-186,-1108,-798,572,-808,-2045,4116,39,31,879,1877,1972,2146,2325,2019,1823,1907,2024
630717,47684,13908,46253,13485,-1477,25,-1064,-831,524,-321,-1922,4447,54,44,878,1877,1972,2146,2325,2019,1823,1907,2024
631718,47764,13956,46318,13550,-1597,146,-1008,-849,481,-337,-2111,4913,33,28,877,1867,1889,2139,2324,2082,1860,1912,2026
632719,47852,14008,46383,13615,-1725,112,-940,-842,433,52,-2127,5296,33,42,878,1867,1889,2139,2324,2082,1860,1912,2026
633720,47936,14072,46448,13680,-1699,-37,-868,-837,408,-131,-2226,5585,50,29,879,1867,1889,2139,2324,2082,1860,1912,2026
634721,48008,14132,46513,13745,-1558,19,-822,-798,408,-214,-2337,5271,32,45,879,1867,1889,2139,2324,2082,1860,1912,2026
635722,48080,14180,46578,13810,-1567,189,-785,-711,411,-61,-2137,5498,32,44,879,1867,1889,2139,2324,2082,1860,1912,2026
636723,48140,14256,46643,13875,-1412,-175,-778,-674,428,30,-2051,5218,30,40,878,1844,1920,2141,2359,2077,1877,1907,2088
637724,48192,14320,46708,13940,-1296,-23,-783,-692,446,195,-1689,4767,30,35,878,1844,1920,2141,2359,2077,1877,1907,2088
638725,48248,14384,46773,14005,-1336,-22,-801,-656,464,328,-1743,4947,42,29,879,1844,1920,2141,2359,2077,1877,1907,2088
639726,48324,14440,46838,14070,-1599,89,-830,-603,492,24,-1713,4656,38,30,879,1844,1920,2141,2359,2077,1877,1907,2088
640727,48380,14504,46903,14135,-1339,-10,-851,-558,522,28,-1486,4836,38,40,879,1844,1920,2141,2359,2077,1877,1907,2088
641728,48428,14560,46968,14200,-1220,101,-858,-508,552,314,-1566,4769,38,29,879,1844,1920,2141,2359,2077,1877,1907,2088
642729,48480,14620,47033,14265,-1254,56,-876,-485,561,586,-1527,4826,31,31,879,1945,2008,2230,2497,2074,1898,1953,2013
643730,48516,14676,47098,14330,-1019,117,-850,-426,539,549,-1680,5220,17,40,879,1945,2008,2230,2497,2074,1898,1953,2013
644731,48580,14732,47163,14395,-1368,128,-819,-364,519,577,-1878,5088,32,27,879,1945,2008,2230,2497,2074,1898,1953,2013
645732,48624,14756,47228,14460,-1094,578,-775,-304,490,628,-1833,5249,33,38,879,1945,2008,2230,2497,2074,1898,1953,2013
646733,48652,14792,47293,14525,-848,464,-732,-297,451,387,-2150,5170,24,32,875,1945,2008,2230,2497,2074,1898,1953,2013
647734,48684,14816,47358,14590,-859,664,-679,-268,383,493,-2166,5488,11,39,875,1977,2035,2262,2534,2094,1980,1996,2020
648735,48704,14892,47423,14655,-654,0,-617,-208,328,536,-2327,5375,13,35,871,1977,2035,2262,2534,2094,1980,1996,2020
649736,48724,14972,47488,14720,-600,-68,-560,-173,298,727,-2276,5153,7,44,879,1977,2035,2262,2534,2094,1980,1996,2020
650737,48748,15044,47553,14785,-600,22,-500,-126,248,630,-2342,5303,12,35,879,1977,2035,2262,2534,2094,1980,1996,2020
651738,48772,15092,47618,14850,-551,343,-456,-74,189,337,-2352,5278,19,45,879,1977,2035,2262,2534,2094,1980,1996,2020
652739,48772,15172,47683,14915,-172,-75,-408,-29,153,400,-2251,5277,15,44,877,1977,2035,2262,2534,2094,1980,1996,2020
653740,48772,15248,47748,14980,-93,-39,-365,17,135,587,-2206,5259,1,28,879,1972,2033,2247,2489,2055,1843,1911,1991
654741,48784,15296,47813,15045,-179,332,-320,51,108,874,-2024,5257,12,40,874,1972,2033,2247,2489,2055,1843,1911,1991
655742,48784,15352,47878,15110,51,243,-290,73,81,807,-1954,5035,3,33,861,1972,2033,2247,2489,2055,1843,1911,1991
656743,48784,15436,47943,15175,129,-130,-278,108,65,646,-1835,5041,2,44,876,1972,2033,2247,2489,2055,1843,1911,1991
657744,48772,15492,48008,15240,373,231,-271,153,66,1091,-1815,4709,-6,30,878,1972,2033,2247,2489,2055,1843,1911,1991
658745,48776,15540,48073,15305,247,352,-273,182,69,1323,-1714,4485,7,39,875,1934,2032,2216,2480,2080,1803,1889,1966
659746,48772,15616,48138,15370,431,-12,-266,207,71,943,-1654,4506,9,40,875,1934,2032,2216,2480,2080,1803,1889,1966
660747,48776,15668,48203,15435,405,304,-260,199,75,571,-1673,4457,-2,30,876,1934,2032,2216,2480,2080,1803,1889,1966
661748,48780,15740,48268,15500,480,45,-231,182,78,998,-1624,4475,12,33,874,1934,2032,2216,2480,2080,1803,1889,1966
662749,48768,15788,48333,15565,773,365,-201,181,68,1280,-1613,4551,-5,26,875,1934,2032,2216,2480,2080,1803,1889,1966
663750,48780,15848,48398,15630,538,221,-158,144,62,939,-1598,4443,3,30,869,1934,2032,2216,2480,2080,1803,1889,1966
664751,48784,15904,48463,15695,712,282,-98,64,47,823,-1687,4120,17,32,873,1922,1995,2173,2403,2010,1815,1891,1973
665752,48780,15972,48528,15760,896,129,-33,-15,18,992,-1693,4186,-2,31,869,1922,1995,2173,2403,2010,1815,1891,1973
666753,48804,16016,48593,15825,596,454,34,-74,-17,1045,-1772,4115,0,44,869,1922,1995,2173,2403,2010,1815,1891,1973
667754,48812,16092,48658,15890,866,41,91,-101,-62,1192,-1749,4040,13,35,870,1922,1995,2173,2403,2010,1815,1891,1973
668755,48840,16144,48723,15955,661,357,145,-135,-106,1186,-1642,3763,6,38,870,1922,1995,2173,2403,2010,1815,1891,1973
669756,48844,16196,48788,16020,1035,373,188,-182,-141,883,-1686,3697,5,30,871,1894,2046,2223,2383,2029,1826,1890,1979
670757,48884,16244,48853,16085,616,443,214,-215,-182,1052,-1631,3592,7,33,866,1894,2046,2223,2383,2029,1826,1890,1979
671758,48916,16296,48918,16150,756,409,223,-226,-221,1202,-1520,3607,21,44,870,1894,2046,2223,2383,2029,1826,1890,1979
672759,48944,16360,48983,16215,851,260,235,-203,-242,1076,-1475,3593,29,40,869,1894,2046,2223,2383,2029,1826,1890,1979
673760,48980,16420,49048,16280,787,317,245,-185,-245,1093,-1424,3486,16,44,869,1894,2046,2223,2383,2029,1826,1890,1979
674761,49036,16484,49113,16345,547,267,252,-166,-249,865,-1365,3595,32,42,870,1894,2046,2223,2383,2029,1826,1890,1979
675762,49096,16540,49178,16410,504,378,257,-150,-247,730,-1341,3561,20,47,873,1917,1990,2188,2404,2000,1788,1859,1952
676763,49128,16584,49243,16475,894,553,261,-145,-239,634,-1264,3465,32,44,873,1917,1990,2188,2404,2000,1788,1859,1952
677764,49196,16644,49308,16540,440,360,261,-128,-234,513,-1230,3543,26,33,867,1917,1990,2188,2404,2000,1788,1859,1952
678765,49256,16724,49373,16605,546,91,265,-87,-234,578,-1121,3605,25,35,873,1917,1990,2188,2404,2000,1788,1859,1952
679766,49308,16780,49438,16670,662,402,266,-76,-206,459,-1231,3241,40,32,874,1917,1990,2188,2404,2000,1788,1859,1952
680767,49376,16836,49503,16735,459,413,276,-72,-196,549,-1026,3637,26,38,871,1980,1972,2160,2371,1977,1774,1839,1925
681768,49428,16892,49568,16800,674,424,295,-59,-190,218,-1067,3482,38,41,873,1980,1972,2160,2371,1977,1774,1839,1925
682769,49504,16960,49633,16865,361,271,324,-66,-191,286,-1005,3716,36,34,869,1980,1972,2160,2371,1977,1774,1839,1925
683770,49544,17016,49698,16930,841,432,359,-56,-198,612,-969,3813,45,48,874,1980,1972,2160,2371,1977,1774,1839,1925
684771,49628,17064,49763,16995,268,552,397,-21,-207,957,-901,3947,27,40,869,1980,1972,2160,2371,1977,1774,1839,1925
685772,49696,17140,49828,17060,465,189,436,7,-216,745,-923,3847,31,43,873,1980,1972,2160,2371,1977,1774,1839,1925
686773,49760,17196,49893,17125,517,450,477,38,-232,723,-752,3921,39,32,874,1847,1910,2116,2330,1985,1789,1839,1927
687774,49812,17264,49958,17190,683,296,511,78,-243,799,-704,3905,47,42,872,1847,1910,2116,2330,1985,1789,1839,1927
688775,49900,17340,50023,17255,205,183,548,85,-255,868,-691,3635,43,47,871,1847,1910,2116,2330,1985,1789,1839,1927
689776,49960,17388,50088,17320,561,553,582,116,-258,989,-646,3695,44,40,876,1847,1910,2116,2330,1985,1789,1839,1927
690779,50028,17456,50153,17385,457,300,610,132,-251,834,-628,3443,39,35,871,1847,1910,2116,2330,1985,1789,1839,1927
691778,50076,17524,50218,17450,728,296,636,171,-252,937,-549,3587,27,36,873,1848,1904,2132,2360,2010,1818,1859,1948
692779,50124,17588,50283,17515,749,347,664,208,-244,1053,-517,3396,36,47,871,1848,1904,2132,2360,2010,1818,1859,1948
693780,50176,17660,50348,17580,714,239,681,253,-226,926,-524,3544,48,45,870,1848,1904,2132,2360,2010,1818,1859,1948
694781,50244,17732,50413,17645,511,230,691,314,-218,962,-427,3531,31,37,871,1848,1904,2132,2360,2010,1818,1859,1948
695782,50328,17784,50478,17710,288,496,706,371,-211,996,-394,3445,41,50,874,1848,1904,2132,2360,2010,1818,1859,1948
696783,50388,17860,50543,17775,594,183,713,422,-193,751,-465,3545,32,46,874,1848,1904,2132,2360,2010,1818,1859,1948
697784,50444,17920,50608,17840,655,389,727,448,-167,514,-416,3243,44,48,873,1892,1951,2179,2407,2015,1820,1910,2044
698785,50524,17992,50673,17905,336,230,748,452,-152,444,-379,3412,31,41,871,1892,1951,2179,2407,2015,1820,1910,2044
699786,50572,18056,50872,18104,921,495,765,462,-134,334,-401,3376,33,38,873,1892,1951,2179,2407,2015,1820,1910,2044
700787,50648,18148,50937,18169,557,112,787,472,-117,316,-378,3489,36,40,868,1892,1951,2179,2407,2015,1820,1910,2044
701788,50724,18204,51002,18234,544,573,810,464,-94,216,-481,3480,40,50,873,1892,1951,2179,2407,2015,1820,1910,2044
702789,50792,18252,51067,18299,641,694,843,470,-81,377,-323,3721,52,47,871,1897,1961,2183,2389,2003,1794,1841,1943
703790,50868,18332,51132,18364,528,276,887,506,-86,479,-275,4023,51,41,869,1897,1961,2183,2389,2003,1794,1841,1943
704791,50944,18404,51197,18429,514,367,926,568,-95,796,-217,3909,41,44,873,1897,1961,2183,2389,2003,1794,1841,1943
705792,51028,18460,51262,18494,391,578,947,584,-100,879,-207,3919,48,50,873,1897,1961,2183,2389,2003,1794,1841,1943
706793,51112,18524,51327,18559,368,479,971,606,-97,560,-197,3913,37,41,873,1897,1961,2183,2389,2003,1794,1841,1943
707794,51200,18588,51392,18624,290,480,976,611,-90,665,-11,3654,55,31,873,1897,1961,2183,2389,2003,1794,1841,1943
708795,51268,18664,51457,18689,536,317,987,612,-96,676,64,3723,54,43,874,1881,1952,2160,2358,2077,1860,1829,1933
709796,51344,18732,51522,18754,423,413,992,622,-99,851,123,3696,35,36,873,1881,1952,2160,2358,2077,1860,1829,1933
710797,51416,18792,51587,18819,464,519,1002,621,-85,922,106,3694,50,32,874,1881,1952,2160,2358,2077,1860,1829,1933
711798,51492,18840,51652,18884,401,690,1011,587,-71,712,159,3550,36,41,872,1881,1952,2160,2358,2077,1860,1829,1933
712799,51564,18900,51717,18949,442,546,1019,556,-51,480,65,3525,32,30,871,1881,1952,2160,2358,2077,1860,1829,1933
713800,51632,18976,51782,19014,489,333,1040,540,-30,793,63,3677,31,35,871,1883,1951,2166,2367,1996,1791,1850,1960
714801,51708,19032,51847,19079,375,594,1078,521,-6,841,-12,3523,39,32,873,1883,1951,2166,2367,1996,1791,1850,1960
715802,51772,19116,51912,19144,526,221,1116,539,3,790,-39,3771,49,36,872,1883,1951,2166,2367,1996,1791,1850,1960
716803,51836,19172,51977,19209,529,582,1155,540,19,998,54,3609,31,34,871,1883,1951,2166,2367,1996,1791,1850,1960
717804,51896,19212,52042,19274,585,812,1193,508,41,864,-22,3483,39,42,871,1883,1951,2166,2367,1996,1791,1850,1960
718805,51960,19280,52107,19339,536,459,1227,445,56,585,76,3491,42,32,868,1883,1951,2166,2367,1996,1791,1850,1960
719806,52036,19352,52172,19404,373,400,1251,365,67,270,-52,3209,47,34,871,1894,1959,2241,2453,2039,1828,1873,1984
720807,52096,19424,52237,19469,579,391,1272,332,65,434,57,3567,43,42,873,1894,1959,2241,2453,2039,1828,1873,1984
721808,52164,19500,52302,19534,475,328,1287,306,67,689,207,3396,39,40,873,1894,1959,2241,2453,2039,1828,1873,1984
722809,52236,19584,52367,19599,416,205,1304,305,70,665,205,3823,38,45,873,1894,1959,2241,2453,2039,1828,1873,1984
723810,52288,19632,52432,19664,682,676,1306,322,67,665,387,3813,29,44,875,1894,1959,2241,2453,2039,1828,1873,1984
724811,52352,19700,52497,19729,534,422,1288,272,72,241,292,3669,39,41,870,1895,1964,2187,2379,2027,1815,1860,1976
725812,52432,19772,52562,19794,315,363,1268,241,61,173,321,3958,40,44,871,1895,1964,2187,2379,2027,1815,1860,1976
726813,52488,19832,52627,19859,626,519,1239,204,52,387,361,3995,30,37,874,1895,1964,2187,2379,2027,1815,1860,1976
727814,52540,19900,52692,19924,692,416,1228,172,37,573,415,4238,36,33,871,1895,1964,2187,2379,2027,1815,1860,1976
728815,52620,19964,52757,19989,324,467,1200,147,27,415,387,4181,47,43,870,1895,1964,2187,2379,2027,1815,1860,1976
729816,52688,20024,52822,20054,470,523,1188,145,22,494,374,4296,34,44,873,1895,1964,2187,2379,2027,1815,1860,1976
730817,52748,20092,52887,20119,576,419,1174,182,24,667,276,4392,33,32,873,1955,2035,2175,2348,2040,1824,1869,2004
731818,52808,20152,52952,20184,582,526,1169,216,21,874,396,4378,30,44,871,1955,2035,2175,2348,2040,1824,1869,2004
732819,52884,20232,53017,20249,369,257,1154,250,7,759,398,4504,37,39,870,1955,2035,2175,2348,2040,1824,1869,2004
733820,52964,20276,53082,20314,301,733,1132,271,10,697,339,4334,28,41,872,1955,2035,2175,2348,2040,1824,1869,2004
734821,53004,20332,53147,20379,831,594,1112,284,4,708,447,4370,44,32,872,1955,2035,2175,2348,2040,1824,1869,2004
735822,53080,20388,53212,20444,368,605,1102,270,13,395,228,4348,31,34,868,1853,1935,2174,2342,2114,1895,1925,2070
736823,53140,20464,53277,20509,575,341,1112,260,13,403,314,4330,33,39,870,1853,1935,2174,2342,2114,1895,1925,2070
737824,53200,20524,53342,20574,581,548,1121,247,12,542,376,4144,33,33,873,1853,1935,2174,2342,2114,1895,1925,2070
738825,53256,20576,53407,20639,642,663,1129,224,19,510,282,4000,29,35,871,1853,1935,2174,2342,2114,1895,1925,2070
739826,53320,20648,53472,20704,543,405,1138,199,16,566,380,4038,36,45,869,1853,1935,2174,2342,2114,1895,1925,2070
740827,53396,20716,53537,20769,380,451,1124,183,26,467,447,3993,44,46,871,1853,1935,2174,2342,2114,1895,1925,2070
741828,53464,20776,53602,20834,476,557,1098,186,28,362,709,3971,26,44,873,1865,1938,2198,2380,2169,1945,1955,2085
742829,53528,20836,53667,20899,527,563,1070,187,13,431,866,4011,43,32,872,1865,1938,2198,2380,2169,1945,1955,2085
743830,53564,20896,53732,20964,913,570,1013,165,-7,394,890,3898,43,33,870,1865,1938,2198,2380,2169,1945,1955,2085
744831,53640,20972,53797,21029,399,356,954,140,-15,256,972,4122,33,45,867,1865,1938,2198,2380,2169,1945,1955,2085
745832,53712,21040,53862,21094,441,452,881,139,-35,315,1074,4352,31,36,872,1865,1938,2198,2380,2169,1945,1955,2085
746833,53768,21104,53927,21159,652,504,823,134,-49,503,1040,4474,44,44,873,1868,1938,2192,2374,2133,1911,1923,2125
747834,53828,21160,53992,21224,608,615,764,138,-62,397,907,4723,30,39,871,1868,1938,2192,2374,2133,1911,1923,2125
748835,53900,21224,54057,21289,449,516,717,156,-78,228,759,4807,26,36,870,1868,1938,2192,2374,2133,1911,1923,2125
749836,53940,21300,54122,21354,880,352,678,182,-94,438,737,4900,27,32,871,1868,1938,2192,2374,2133,1911,1923,2125
750837,54004,21360,54187,21419,581,559,648,193,-105,470,661,4642,38,33,867,1868,1938,2192,2374,2133,1911,1923,2125
751838,54068,21424,54252,21484,582,510,611,226,-112,253,509,4810,42,36,869,1868,1938,2192,2374,2133,1911,1923,2125
752839,54140,21476,54317,21549,474,676,568,254,-110,237,637,4514,49,31,871,1832,1908,2159,2303,2123,1898,1912,2068
753840,54196,21532,54382,21614,685,637,535,274,-101,160,446,4538,33,31,871,1832,1908,2159,2303,2123,1898,1912,2068
754841,54272,21616,54447,21679,422,263,514,304,-110,129,437,4571,49,44,869,1832,1908,2159,2303,2123,1898,1912,2068
755842,54336,21660,54512,21744,573,789,498,344,-134,108,532,4418,31,43,873,1832,1908,2159,2303,2123,1898,1912,2068
756843,54424,21712,54577,21809,245,705,474,362,-144,127,521,4114,45,44,870,1832,1908,2159,2303,2123,1898,1912,2068
757844,54484,21800,54642,21874,601,227,428,343,-132,-24,550,3927,31,36,871,1822,1911,2173,2323,2154,1999,1985,2104
758845,54556,21848,54707,21939,443,748,392,310,-122,-269,779,3825,33,42,873,1822,1911,2173,2323,2154,1999,1985,2104
759846,54620,21912,54772,22004,544,549,348,306,-125,-343,830,3817,44,29,870,1822,1911,2173,2323,2154,1999,1985,2104
760847,54676,21960,54837,22069,655,770,324,335,-129,-148,757,3794,34,29,870,1822,1911,2173,2323,2154,1999,1985,2104
761848,54752,22044,54902,22134,392,296,296,339,-139,-61,872,3788,30,28,869,1822,1911,2173,2323,2154,1999,1985,2104
762849,54812,22108,54967,22199,598,549,280,312,-165,-164,952,3772,41,35,872,1822,1911,2173,2323,2154,1999,1985,2104
763850,54880,22164,55032,22264,494,660,244,259,-181,-276,1056,3594,28,38,871,1847,1927,2183,2351,2144,1918,1930,2057
764851,54932,22220,55097,22329,710,671,213,209,-194,-252,985,3916,32,39,870,1847,1927,2183,2351,2144,1918,1930,2057
765852,55012,22264,55162,22394,342,846,171,199,-209,-130,946,3988,29,43,869,1847,1927,2183,2351,2144,1918,1930,2057
766853,55068,22324,55227,22459,653,652,142,212,-228,129,908,3892,25,40,868,1847,1927,2183,2351,2144,1918,1930,2057
767854,55120,22380,55292,22524,718,713,119,228,-237,146,960,3940,25,39,866,1847,1927,2183,2351,2144,1918,1930,2057
768855,55180,22452,55357,22589,625,505,101,242,-243,-57,703,3861,34,42,867,1843,1910,2152,2388,2177,1881,1881,2000
769856,55236,22520,55422,22654,686,551,83,268,-247,3,480,4018,39,37,869,1843,1910,2152,2388,2177,1881,1881,2000
770857,55288,22548,55487,22719,752,1096,62,251,-236,128,629,3789,31,28,869,1843,1910,2152,2388,2177,1881,1881,2000
771858,55352,22616,55552,22784,604,593,46,254,-220,-117,570,4002,27,43,865,1843,1910,2152,2388,2177,1881,1881,2000
772859,55408,22668,55617,22849,715,808,31,267,-211,-215,403,3848,31,28,865,1843,1910,2152,2388,2177,1881,1881,2000
773860,55464,22732,55682,22914,726,660,44,281,-211,-137,289,3841,45,31,867,1843,1910,2152,2388,2177,1881,1881,2000
774861,55540,22800,55747,22979,462,606,52,285,-195,-165,244,3858,36,36,867,1829,1891,2135,2311,2030,1822,1848,1970
775862,55592,22864,55812,23044,778,657,63,266,-185,-185,331,3712,45,33,869,1829,1891,2135,2311,2030,1822,1848,1970
776863,55660,22912,55877,23109,574,878,70,242,-173,-361,311,3629,42,39,869,1829,1891,2135,2311,2030,1822,1848,1970
777864,55712,22988,55942,23174,790,515,69,211,-154,-425,473,3637,47,27,867,1829,1891,2135,2311,2030,1822,1848,1970
778865,55768,23052,56007,23239,751,666,86,181,-153,-455,321,3519,31,30,867,1829,1891,2135,2311,2030,1822,1848,1970
779866,55836,23112,56072,23304,598,722,90,125,-157,-247,417,3323,28,40,867,1846,1990,2220,2365,2018,1811,1846,1967
780867,55876,23164,56137,23369,978,839,86,92,-155,-155,686,3513,46,41,868,1846,1990,2220,2365,2018,1811,1846,1967
781868,55956,23204,56202,23434,460,1019,61,67,-156,-291,701,3086,40,29,865,1846,1990,2220,2365,2018,1811,1846,1967
782869,56008,23280,56267,23499,826,556,39,76,-189,4,746,3325,34,40,864,1846,1990,2220,2365,2018,1811,1846,1967
783870,56076,23324,56332,23564,623,981,17,73,-217,410,853,2966,41,33,866,1846,1990,2220,2365,2018,1811,1846,1967
784871,56132,23412,56397,23629,784,403,23,82,-244,549,662,3395,46,31,864,1846,1990,2220,2365,2018,1811,1846,1967
785872,56176,23480,56462,23694,960,650,43,82,-253,349,535,3413,39,43,867,1889,1956,2184,2371,2019,1812,1858,1977
786873,56252,23528,56527,23759,546,920,78,82,-246,201,702,3436,32,30,867,1889,1956,2184,2371,2019,1812,1858,1977
787874,56304,23592,56592,23824,862,722,110,114,-226,142,704,3692,36,39,865,1889,1956,2184,2371,2019,1812,1858,1977
788875,56364,23636,56657,23889,768,997,133,137,-223,147,571,3512,34,30,865,1889,1956,2184,2371,2019,1812,1858,1977
789876,56416,23720,56722,23954,884,474,142,157,-214,120,563,3456,34,42,863,1889,1956,2184,2371,2019,1812,1858,1977
790877,56460,23756,56787,24019,1010,1110,161,179,-197,115,595,3675,28,31,865,1945,1973,2154,2337,2009,1797,1840,1931
791878,56528,23820,56852,24084,706,761,185,177,-190,91,529,3564,45,33,862,1945,1973,2154,2337,2009,1797,1840,1931
792879,56584,23904,56917,24149,868,489,212,160,-189,-182,451,3669,32,33,862,1945,1973,2154,2337,2009,1797,1840,1931
793880,56636,23960,56982,24214,934,850,228,142,-183,-142,434,3684,35,42,867,1945,1973,2154,2337,2009,1797,1840,1931
794881,56708,24008,57047,24279,675,970,252,103,-167,-235,343,3841,28,31,865,1945,1973,2154,2337,2009,1797,1840,1931
795882,56752,24068,57112,24344,1051,826,276,88,-166,-330,450,3817,41,38,864,1945,1973,2154,2337,2009,1797,1840,1931
796883,56820,24132,57177,24409,747,778,298,63,-162,-310,485,3865,26,30,862,1839,1903,2142,2335,1995,1801,1835,1941
797884,56868,24172,57242,24474,1018,1108,317,55,-166,20,400,3786,30,42,864,1839,1903,2142,2335,1995,1801,1835,1941
798885,56920,24244,57307,24539,984,700,335,48,-157,150,388,3909,42,37,861,1839,1903,2142,2335,1995,1801,1835,1941
799886,56972,24300,57372,24604,1001,911,347,62,-152,76,408,3878,29,41,860,1839,1903,2142,2335,1995,1801,1835,1941
800887,57040,24372,57437,24669,797,702,349,93,-163,260,437,3851,37,43,862,1839,1903,2142,2335,1995,1801,1835,1941
801888,57100,24420,57502,24734,903,1023,348,119,-177,332,449,3861,32,45,860,1863,1923,2176,2376,2011,1822,1855,1966
802889,57164,24480,57567,24799,854,880,346,149,-173,242,447,3863,44,44,862,1863,1923,2176,2376,2011,1822,1855,1966
803890,57212,24528,57632,24864,1075,1051,348,182,-182,380,621,3941,31,44,862,1863,1923,2176,2376,2011,1822,1855,1966
804891,57272,24604,57697,24929,931,687,349,216,-188,491,586,3664,33,48,861,1863,1923,2176,2376,2011,1822,1855,1966
805892,57328,24684,57762,24994,992,619,338,251,-190,362,613,3886,38,48,861,1863,1923,2176,2376,2011,1822,1855,1966
806893,57388,24740,57827,25059,949,930,331,264,-193,201,497,3716,35,49,864,1863,1923,2176,2376,2011,1822,1855,1966
807894,57432,24800,57892,25124,1175,886,321,259,-186,-14,396,3877,45,35,862,1907,1963,2214,2414,2046,1848,1909,2088
808895,57492,24884,57957,25189,981,563,333,237,-172,-142,534,3818,36,51,860,1907,1963,2214,2414,2046,1848,1909,2088
809896,57536,24924,58022,25254,1207,1143,342,233,-176,-163,438,4023,33,38,862,1907,1963,2214,2414,2046,1848,1909,2088
810897,57600,24996,58087,25319,958,736,361,251,-172,6,419,4158,36,38,863,1907,1963,2214,2414,2046,1848,1909,2088
811898,57668,25072,58152,25384,904,672,391,274,-159,69,395,4242,33,37,857,1907,1963,2214,2414,2046,1848,1909,2088
812899,57724,25156,58217,25449,1066,549,408,293,-170,99,463,4301,29,48,864,1883,1953,2193,2377,2073,1856,1886,2013
813900,57776,25200,58282,25514,1132,1075,422,311,-177,-34,405,4269,32,33,864,1883,1953,2193,2377,2073,1856,1886,2013
814901,57836,25280,58347,25579,1038,606,445,298,-164,-10,639,4413,39,37,863,1883,1953,2193,2377,2073,1856,1886,2013
815902,57892,25336,58412,25644,1099,917,461,320,-156,-44,494,4499,43,47,857,1883,1953,2193,2377,2073,1856,1886,2013
816903,57936,25420,58477,25709,1275,544,485,356,-143,233,428,4481,29,35,864,1883,1953,2193,2377,2073,1856,1886,2013
817904,58008,25484,58542,25774,917,796,513,369,-125,304,479,4335,42,34,859,1883,1953,2193,2377,2073,1856,1886,2013
818905,58052,25544,58607,25839,1293,852,527,362,-105,140,339,4384,47,32,858,1860,1935,2171,2357,2096,1949,1931,2004
819906,58112,25600,58672,25904,1099,914,539,334,-76,31,378,4138,45,48,862,1860,1935,2171,2357,2096,1949,1931,2004
820907,58164,25664,58737,25969,1215,815,530,299,-56,239,538,4261,40,44,857,1860,1935,2171,2357,2096,1949,1931,2004
821908,58216,25736,58802,26034,1231,706,529,308,-50,234,629,4317,42,49,860,1860,1935,2171,2357,2096,1949,1931,2004
822909,58276,25792,58867,26099,1138,917,509,313,-55,333,697,4206,30,47,859,1860,1935,2171,2357,2096,1949,1931,2004
823910,58352,25864,58932,26164,925,709,477,313,-65,546,708,4286,38,35,859,1891,1959,2210,2413,2056,1855,1887,2000
824911,58388,25940,58997,26229,1460,645,457,300,-55,285,574,3986,47,34,859,1891,1959,2210,2413,2056,1855,1887,2000
825912,58464,25988,59062,26294,946,1016,453,317,-62,424,519,4341,30,44,864,1891,1959,2210,2413,2056,1855,1887,2000
826913,58524,26052,59127,26359,1154,817,448,343,-58,579,451,4187,36,49,857,1891,1959,2210,2413,2056,1855,1887,2000
827914,58580,26132,59192,26424,1215,600,453,401,-48,658,500,4321,49,49,860,1891,1959,2210,2413,2056,1855,1887,2000
828915,58644,26204,59257,26489,1116,691,464,471,-51,665,561,4337,43,42,860,1927,1985,2231,2497,2143,1853,1887,2014
829916,58708,26264,59322,26554,1117,848,470,475,-43,379,203,4134,40,43,862,1927,1985,2231,2497,2143,1853,1887,2014
830917,58756,26320,59387,26619,1338,908,474,476,-39,133,330,4336,40,39,862,1927,1985,2231,2497,2143,1853,1887,2014
831918,58828,26384,59452,26684,1030,810,478,447,-31,-102,491,4151,31,40,860,1927,1985,2231,2497,2143,1853,1887,2014
832919,58880,26460,59517,26749,1296,646,478,405,-22,-184,392,4367,29,39,856,1927,1985,2231,2497,2143,1853,1887,2014
833920,58944,26516,59582,26814,1147,907,475,394,-20,-170,438,4421,45,45,861,1927,1985,2231,2497,2143,1853,1887,2014
834921,58988,26572,59647,26879,1423,918,475,369,-20,0,551,4392,29,41,859,1896,1979,2235,2419,2095,1881,1910,2008
835922,59028,26644,59712,26944,1504,710,481,360,16,-219,350,4403,39,35,857,1896,1979,2235,2419,2095,1881,1910,2008
836923,59104,26712,59777,27009,1041,756,478,337,45,-192,589,4329,48,40,854,1896,1979,2235,2419,2095,1881,1910,2008
837924,59156,26788,59842,27074,1357,644,477,335,62,-134,630,4365,31,36,855,1896,1979,2235,2419,2095,1881,1910,2008
838925,59196,26864,59907,27139,1537,630,468,340,73,89,697,4455,30,39,862,1896,1979,2235,2419,2095,1881,1910,2008
839926,59276,26908,59972,27204,1020,1056,463,357,105,154,647,4356,45,46,859,1869,2021,2243,2369,2087,1877,1908,2032
840927,59308,26960,60037,27269,1660,972,457,365,113,251,736,4473,47,43,856,1869,2021,2243,2369,2087,1877,1908,2032
841928,59372,27004,60102,27334,1262,1097,462,389,115,241,585,4307,32,36,858,1869,2021,2243,2369,2087,1877,1908,2032
842929,59444,27084,60167,27399,1154,629,464,398,127,406,626,4304,39,44,849,1869,2021,2243,2369,2087,1877,1908,2032
843930,59492,27124,60232,27464,1475,1160,469,416,130,502,668,4203,34,43,854,1869,2021,2243,2369,2087,1877,1908,2032
844931,59560,27196,60297,27529,1221,751,465,426,121,455,673,4253,44,51,861,1869,2021,2243,2369,2087,1877,1908,2032
845932,59620,27248,60362,27594,1327,1018,469,437,111,430,618,4194,49,41,851,1870,1942,2188,2369,2091,1880,1907,2028
846933,59688,27320,60427,27659,1225,759,473,423,102,367,442,4068,49,37,859,1870,1942,2188,2369,2091,1880,1907,2028
847934,59748,27396,60492,27724,1331,696,479,398,99,336,528,4184,40,37,855,1870,1942,2188,2369,2091,1880,1907,2028
848935,59792,27480,60557,27789,1556,573,477,358,92,199,529,3980,44,51,859,1870,1942,2188,2369,2091,1880,1907,2028
849936,59856,27532,60622,27854,1308,989,471,335,92,134,624,4376,31,52,858,1870,1942,2188,2369,2091,1880,1907,2028
850937,59928,27608,60687,27919,1200,675,463,309,92,119,598,4042,44,49,856,1964,1948,2204,2392,2076,1864,1888,2008
851938,59976,27656,60752,27984,1521,1046,468,260,93,33,561,4187,46,40,855,1964,1948,2204,2392,2076,1864,1888,2008
852939,60044,27724,60817,28049,1267,792,463,218,120,-122,504,4011,38,49,858,1964,1948,2204,2392,2076,1864,1888,2008
853940,60112,27792,60882,28114,1264,789,452,191,149,31,646,4125,40,49,849,1964,1948,2204,2392,2076,1864,1888,2008
854941,60140,27848,60947,28179,1810,951,432,183,172,-96,682,4048,43,49,858,1964,1948,2204,2392,2076,1864,1888,2008
855942,60208,27920,61012,28244,1306,742,415,204,184,91,786,4177,40,43,858,1964,1948,2204,2392,2076,1864,1888,2008
856943,60288,27972,61077,28309,1139,1008,406,219,199,128,688,4071,45,40,847,1888,1952,2196,2385,2050,1842,1874,1998
857944,60332,28040,61142,28374,1614,804,405,256,190,227,739,4307,34,35,857,1888,1952,2196,2385,2050,1842,1874,1998
858945,60400,28112,61207,28439,1311,746,400,270,200,174,668,4020,37,46,856,1888,1952,2196,2385,2050,1842,1874,1998
859946,60452,28164,61272,28504,1526,1012,397,282,202,204,766,4101,45,38,852,1888,1952,2196,2385,2050,1842,1874,1998
860947,60512,28232,61337,28569,1434,808,397,290,194,128,795,4012,44,41,857,1888,1952,2196,2385,2050,1842,1874,1998
861948,60560,28304,61402,28634,1604,749,403,290,177,124,835,4107,30,39,851,1881,1952,2197,2381,2058,1850,1883,2001
862949,60624,28372,61467,28699,1406,797,411,285,174,66,925,3968,30,51,856,1881,1952,2197,2381,2058,1850,1883,2001
863950,60668,28440,61532,28764,1682,793,418,269,171,91,1008,4020,33,36,854,1881,1952,2197,2381,2058,1850,1883,2001
864951,60736,28520,61597,28829,1379,625,426,261,168,19,819,3938,32,39,857,1881,1952,2197,2381,2058,1850,1883,2001
865955,60800,28592,61662,28894,1430,716,443,263,157,114,953,3993,32,44,851,1881,1952,2197,2381,2058,1850,1883,2001
866953,60844,28644,61727,28959,1706,982,483,256,165,173,659,3889,38,35,858,1881,1952,2197,2381,2058,1850,1883,2001
867954,60916,28700,61792,29024,1348,943,502,249,177,202,951,4068,36,37,856,1874,1942,2191,2382,2063,1859,1931,2069
868955,60964,28768,61857,29089,1669,789,525,281,196,18,979,3715,34,47,848,1874,1942,2191,2382,2063,1859,1931,2069
869956,61028,28832,61922,29154,1471,841,535,318,190,395,990,3933,46,48,852,1874,1942,2191,2382,2063,1859,1931,2069
870957,61096,28900,61987,29219,1417,788,558,343,198,128,717,3694,35,47,849,1874,1942,2191,2382,2063,1859,1931,2069
871958,61160,28968,62052,29284,1468,784,553,326,191,110,947,3631,35,51,854,1874,1942,2191,2382,2063,1859,1931,2069
872959,61232,29024,62117,29349,1361,945,552,322,186,66,842,3917,34,51,856,1900,1956,2216,2384,2016,1824,1844,1944
873960,61296,29092,62182,29414,1462,792,547,318,176,-125,882,3692,38,38,855,1900,1956,2216,2384,2016,1824,1844,1944
874961,61348,29160,62247,29479,1628,788,551,340,150,149,1012,3942,32,51,855,1900,1956,2216,2384,2016,1824,1844,1944
875962,61424,29224,62312,29544,1315,839,547,354,131,266,1015,3863,50,51,855,1900,1956,2216,2384,2016,1824,1844,1944
876963,61484,29284,62377,29609,1522,895,553,367,126,79,949,3793,36,50,853,1900,1956,2216,2384,2016,1824,1844,1944
877964,61544,29340,62442,29674,1528,956,540,370,130,-48,1010,3833,44,47,856,1900,1956,2216,2384,2016,1824,1844,1944
878965,61604,29404,62507,29739,1535,858,529,373,117,-19,1023,3875,51,49,853,1887,1945,2199,2397,2102,1893,1841,1952
879966,61660,29464,62572,29804,1596,915,518,360,112,-3,885,3782,35,42,852,1887,1945,2199,2397,2102,1893,1841,1952
880967,61740,29532,62637,29869,1277,811,513,345,97,234,919,3802,52,49,853,1887,1945,2199,2397,2102,1893,1841,1952
881968,61808,29612,62702,29934,1425,643,516,349,80,177,898,3891,34,52,851,1887,1945,2199,2397,2102,1893,1841,1952
882969,61868,29684,62767,29999,1531,734,529,387,67,328,856,4111,34,40,858,1887,1945,2199,2397,2102,1893,1841,1952
883970,61960,29736,62832,30064,1098,1000,521,537,91,-1631,812,4000,43,47,857,1870,1935,2185,2367,2022,1828,1860,1983
884971,61992,29800,62897,30129,1889,851,471,615,89,-722,3,4025,32,48,854,1870,1935,2185,2367,2022,1828,1860,1983
885972,62044,29876,62962,30194,1655,688,416,508,150,4797,-682,4405,30,48,857,1870,1935,2185,2367,2022,1828,1860,1983
886973,62104,29952,63027,30259,1561,675,416,374,161,2820,1409,2857,37,47,845,1870,1935,2185,2367,2022,1828,1860,1983
887974,62176,30000,63092,30324,1404,1046,424,361,91,-3516,993,4157,35,37,851,1870,1935,2185,2367,2022,1828,1860,1983
888975,62252,30072,63157,30389,1340,737,383,402,30,-1834,834,4277,41,39,855,1870,1935,2185,2367,2022,1828,1860,1983
889976,62292,30144,63222,30454,1822,729,367,358,95,1652,252,3207,54,47,853,1854,1925,2234,2422,2090,1883,1911,2048
890977,62364,30216,63287,30519,1413,720,364,219,97,1486,1166,2556,51,50,857,1854,1925,2234,2422,2090,1883,1911,2048
891978,62444,30280,63352,30584,1295,822,352,170,48,-906,1017,3514,39,39,849,1854,1925,2234,2422,2090,1883,1911,2048
892979,62512,30344,63417,30649,1442,823,331,231,5,-446,832,4112,50,49,857,1854,1925,2234,2422,2090,1883,1911,2048
893980,62576,30400,63482,30714,1493,934,332,245,-30,632,1028,3426,52,52,857,1854,1925,2234,2422,2090,1883,1911,2048
894981,62644,30468,63547,30779,1440,780,350,208,-65,780,982,3803,52,52,855,1835,1916,2162,2321,2131,1901,1919,2062
895982,62704,30532,63612,30844,1547,832,354,217,-86,567,1065,3688,41,45,854,1835,1916,2162,2321,2131,1901,1919,2062
896983,62800,30588,63677,30909,1059,943,348,281,-92,-95,1001,3961,42,41,856,1835,1916,2162,2321,2131,1901,1919,2062
897984,62856,30652,63742,30974,1570,845,346,343,-80,177,989,3897,39,49,854,1835,1916,2162,2321,2131,1901,1919,2062
898985,62920,30736,63807,31039,1472,571,346,349,-80,470,1080,4014,46,56,859,1835,1916,2162,2321,2131,1901,1919,2062
899986,63004,30784,63872,31104,1199,1042,346,317,-79,315,640,3939,53,55,853,1835,1916,2162,2321,2131,1901,1919,2062
900987,63076,30856,63937,31169,1341,734,343,263,-76,290,930,3741,35,45,857,1888,1976,2145,2306,2073,1856,1872,1995
901988,63144,30932,64002,31234,1388,670,313,225,-85,18,778,4053,44,39,856,1888,1976,2145,2306,2073,1856,1872,1995
902989,63200,30988,64067,31299,1549,931,284,204,-93,-21,763,3865,36,44,858,1888,1976,2145,2306,2073,1856,1872,1995
903990,63248,31068,64132,31364,1670,613,250,184,-82,184,856,3982,37,42,856,1888,1976,2145,2306,2073,1856,1872,1995
904991,63324,31128,64197,31429,1307,870,215,168,-78,261,944,3972,47,56,849,1888,1976,2145,2306,2073,1856,1872,1995
905992,63392,31196,64262,31494,1404,766,170,135,-71,50,953,3663,40,47,854,1837,1915,2180,2366,2023,1832,1849,1966
906993,63432,31268,64327,31559,1784,708,125,110,-73,129,990,3895,39,45,856,1837,1915,2180,2366,2023,1832,1849,1966
907994,63500,31336,64392,31624,1431,754,81,113,-66,142,848,3722,40,42,856,1837,1915,2180,2366,2023,1832,1849,1966
908995,63548,31404,64457,31689,1702,750,34,135,-58,202,932,3846,32,42,851,1837,1915,2180,2366,2023,1832,1849,1966
909996,63620,31464,64522,31754,1394,857,-12,175,-67,413,1097,3827,30,54,856,1837,1915,2180,2366,2023,1832,1849,1966
910997,63668,31540,64587,31819,1715,643,-34,213,-74,400,1111,3688,44,53,851,1837,1915,2180,2366,2023,1832,1849,1966
911998,63716,31604,64652,31884,1736,794,-49,258,-81,339,1037,3809,48,42,855,1886,1949,2225,2410,2051,1859,1881,2003
912999,63788,31680,64717,31949,1428,631,-49,306,-91,401,1064,3791,49,57,852,1886,1949,2225,2410,2051,1859,1881,2003
914000,63864,31740,64782,32014,1365,838,-41,370,-97,409,1068,3856,49,45,851,1886,1949,2225,2410,2051,1859,1881,2003
915001,63912,31808,64847,32079,1736,734,-31,427,-119,350,1186,3868,38,49,857,1886,1949,2225,2410,2051,1859,1881,2003
916003,63972,31872,64912,32144,1592,786,-7,486,-141,187,1078,3860,40,47,856,1886,1949,2225,2410,2051,1859,1881,2003
917003,64028,31940,64977,32209,1654,732,11,512,-156,102,1320,3915,45,47,851,1872,1950,2215,2376,2100,1907,1915,2122
918004,64100,32032,65042,32274,1445,399,35,534,-179,56,1250,3897,48,51,853,1872,1950,2215,2376,2100,1907,1915,2122
919005,64168,32112,65107,32339,1492,531,46,526,-198,-29,1289,3760,50,52,852,1872,1950,2215,2376,2100,1907,1915,2122
920006,64228,32168,65172,32404,1599,842,54,529,-212,-233,1404,3902,35,51,859,1872,1950,2215,2376,2100,1907,1915,2122
921007,64268,32228,65237,32469,1879,798,63,535,-201,-338,1440,3951,33,44,855,1872,1950,2215,2376,2100,1907,1915,2122
922008,64336,32280,65302,32534,1526,914,74,542,-183,-74,1456,4189,39,49,850,1872,1950,2215,2376,2100,1907,1915,2122
923009,64420,32348,65367,32599,1304,710,80,555,-187,42,1492,4084,43,41,847,1831,1900,2163,2348,2070,1861,1870,1982
924010,64480,32416,65432,32664,1610,706,71,558,-186,83,1323,3899,45,50,852,1831,1900,2163,2348,2070,1861,1870,1982
925011,64532,32484,65497,32729,1726,704,61,568,-182,180,1279,3979,40,40,858,1831,1900,2163,2348,2070,1861,1870,1982
926012,64592,32532,65562,32794,1633,974,38,580,-172,293,1226,4001,38,41,853,1831,1900,2163,2348,2070,1861,1870,1982
927013,64652,32592,65627,32859,1639,830,22,620,-177,464,1240,4083,33,37,851,1831,1900,2163,2348,2070,1861,1870,1982
928014,64716,32656,65692,32924,1591,782,6,659,-171,360,1203,4092,34,52,849,1836,1906,2170,2356,2024,1915,1889,1962
929015,64772,32732,65757,32989,1702,618,-10,710,-187,575,1218,4177,38,44,852,1836,1906,2170,2356,2024,1915,1889,1962
930016,64832,32792,65822,33054,1658,824,-26,746,-174,689,1003,3904,40,41,853,1836,1906,2170,2356,2024,1915,1889,1962
931017,64904,32860,65887,33119,1500,721,-39,779,-172,646,1206,4012,36,47,853,1836,1906,2170,2356,2024,1915,1889,1962
932018,64968,32900,65952,33184,1602,1101,-52,832,-183,292,1189,3961,53,41,851,1836,1906,2170,2356,2024,1915,1889,1962
933019,65028,32976,66017,33249,1659,638,-74,843,-187,413,1114,3861,52,51,855,1836,1906,2170,2356,2024,1915,1889,1962
934020,65100,33048,66082,33314,1500,679,-76,866,-185,453,1201,3992,43,45,848,1865,1933,2202,2379,2038,1843,1860,1993
935021,65176,33120,66147,33379,1437,672,-89,856,-203,371,1223,3677,55,43,853,1865,1933,2202,2379,2038,1843,1860,1993
936022,65244,33188,66212,33444,1534,718,-93,849,-212,96,1156,3724,40,46,856,1865,1933,2202,2379,2038,1843,1860,1993
937023,65320,33248,66277,33509,1421,824,-109,828,-225,129,1262,3573,36,39,857,1865,1933,2202,2379,2038,1843,1860,1993
938024,65392,33312,66342,33574,1462,775,-115,813,-244,62,1279,3667,38,56,853,1865,1933,2202,2379,2038,1843,1860,1993
939025,65464,33388,66407,33639,1455,612,-121,797,-253,-73,1517,3621,37,55,853,1871,1941,2210,2449,2172,1877,1891,2025
940026,65524,33472,66472,33704,1611,489,-135,794,-278,-98,1338,3638,44,54,855,1871,1941,2210,2449,2172,1877,1891,2025
941027,65588,33532,66537,33769,1562,795,-138,799,-283,117,1477,3634,39,42,857,1871,1941,2210,2449,2172,1877,1891,2025
942028,65680,33604,66602,33834,1180,636,-144,797,-292,90,1554,3586,51,51,855,1871,1941,2210,2449,2172,1877,1891,2025
943029,65724,33656,66667,33899,1806,902,-152,786,-310,209,1466,3763,40,41,853,1871,1941,2210,2449,2172,1877,1891,2025
944030,65808,33740,66732,33964,1283,479,-157,775,-321,326,1707,3786,49,49,862,1871,1941,2210,2449,2172,1877,1891,2025
945031,65868,33816,66797,34029,1590,566,-169,763,-333,164,1538,3822,41,51,849,1839,1914,2173,2336,2099,1880,1892,2026
946032,65944,33876,66862,34094,1376,773,-172,779,-336,287,1352,4060,34,54,862,1839,1914,2173,2336,2099,1880,1892,2026
947033,66020,33944,66927,34159,1364,669,-182,785,-335,509,1607,3914,42,41,856,1839,1914,2173,2336,2099,1880,1892,2026
948034,66100,33996,66992,34224,1295,885,-190,779,-345,286,1591,3835,39,39,856,1839,1914,2173,2336,2099,1880,1892,2026
949035,66144,34068,67057,34289,1771,626,-205,765,-345,11,1433,3909,34,39,858,1839,1914,2173,2336,2099,1880,1892,2026
950036,66212,34148,67256,34488,1632,672,-221,772,-343,225,1401,4028,39,49,857,1810,1964,2202,2303,2076,1860,1872,2008
951037,66280,34208,67321,34553,1628,928,-235,773,-340,555,1248,3916,44,48,852,1810,1964,2202,2303,2076,1860,1872,2008
952038,66352,34272,67386,34618,1570,879,-247,751,-345,721,1297,3791,55,46,854,1810,1964,2202,2303,2076,1860,1872,2008
953039,66412,34328,67451,34683,1727,990,-270,681,-345,125,1414,3665,57,51,851,1810,1964,2202,2303,2076,1860,1872,2008
954040,66480,34404,67516,34748,1623,726,-288,663,-354,-75,1311,3764,57,59,852,1810,1964,2202,2303,2076,1860,1872,2008
955041,66568,34500,67581,34813,1346,440,-330,650,-362,312,1140,3531,42,61,846,1810,1964,2202,2303,2076,1860,1872,2008
956042,66636,34572,67646,34878,1592,731,-358,650,-408,620,1046,3679,53,50,851,1819,1893,2192,2352,2064,1860,1888,2032
957043,66732,34648,67711,34943,1205,668,-390,639,-413,425,1135,3365,58,55,860,1819,1893,2192,2352,2064,1860,1888,2032
958044,66816,34716,67776,35008,1332,764,-411,596,-433,102,1533,3466,50,44,854,1819,1893,2192,2352,2064,1860,1888,2032
959045,66900,34800,67841,35073,1309,541,-439,575,-447,-404,1224,3386,47,55,861,1819,1893,2192,2352,2064,1860,1888,2032
960046,66984,34896,67906,35138,1286,353,-473,589,-461,221,1222,3724,52,58,858,1819,1893,2192,2352,2064,1860,1888,2032
961047,67072,34968,67971,35203,1209,644,-494,620,-483,476,1661,3678,47,48,861,1932,1927,2196,2357,2070,1859,1873,2011
962048,67156,35044,68036,35268,1236,581,-512,593,-489,8,1643,3373,45,44,863,1932,1927,2196,2357,2070,1859,1873,2011
963049,67232,35108,68101,35333,1322,732,-534,563,-495,-313,1431,3719,42,57,861,1932,1927,2196,2357,2070,1859,1873,2011
964050,67304,35176,68166,35398,1365,678,-568,561,-507,-216,1465,3706,57,51,861,1932,1927,2196,2357,2070,1859,1873,2011
965051,67396,35264,68231,35463,1082,401,-601,553,-543,158,1597,3463,60,47,859,1932,1927,2196,2357,2070,1859,1873,2011
966052,67468,35340,68296,35528,1323,538,-622,527,-572,24,1437,3551,49,55,859,1932,1927,2196,2357,2070,1859,1873,2011
967053,67548,35408,68361,35593,1206,634,-648,522,-598,-88,1494,3786,57,51,865,1837,1913,2171,2331,2074,1862,1880,2018
968054,67644,35468,68426,35658,968,740,-660,517,-610,-136,1433,3398,51,59,860,1837,1913,2171,2331,2074,1862,1880,2018
969055,67708,35548,68491,35723,1369,472,-672,533,-629,177,1534,3836,46,49,861,1837,1913,2171,2331,2074,1862,1880,2018
970056,67784,35624,68556,35788,1207,509,-677,522,-640,313,1360,3635,38,46,864,1837,1913,2171,2331,2074,1862,1880,2018
971057,67868,35692,68621,35853,1084,605,-678,505,-663,392,1406,3757,61,44,861,1837,1913,2171,2331,2074,1862,1880,2018
972058,67952,35732,68686,35918,1060,986,-674,469,-666,233,1165,3405,56,53,860,1810,1884,2144,2305,2075,1865,1875,2009
973059,68060,35820,68751,35983,708,357,-669,442,-660,78,1319,3694,58,50,861,1810,1884,2144,2305,2075,1865,1875,2009
974060,68116,35892,68816,36048,1370,549,-675,461,-687,-237,1495,3702,40,55,859,1810,1884,2144,2305,2075,1865,1875,2009
975061,68204,35968,68881,36113,942,486,-675,496,-702,-153,1185,3800,41,50,870,1810,1884,2144,2305,2075,1865,1875,2009
976062,68292,36032,68946,36178,914,637,-680,508,-695,290,1170,3591,56,52,860,1810,1884,2144,2305,2075,1865,1875,2009
977063,68372,36092,69011,36243,996,693,-683,487,-680,94,1328,3342,42,44,867,1810,1884,2144,2305,2075,1865,1875,2009
978064,68456,36164,69076,36308,923,534,-711,442,-689,-145,1573,3395,53,44,865,1816,1888,2160,2332,2050,1846,1900,2055
979065,68528,36232,69141,36373,1065,581,-756,401,-723,-411,1261,3280,40,37,864,1816,1888,2160,2332,2050,1846,1900,2055
980066,68608,36288,69206,36438,946,742,-801,386,-742,31,1328,3501,56,53,866,1816,1888,2160,2332,2050,1846,1900,2055
981067,68692,36348,69271,36503,873,698,-847,368,-759,69,1195,3211,51,51,864,1816,1888,2160,2332,2050,1846,1900,2055
982068,68764,36416,69336,36568,1016,595,-880,338,-785,-100,1179,3054,50,55,864,1816,1888,2160,2332,2050,1846,1900,2055
983069,68836,36488,69401,36633,1007,537,-920,329,-833,-160,1193,3268,53,57,865,1856,1921,2190,2369,2028,1827,1846,1977
984070,68936,36560,69466,36698,614,528,-961,320,-872,-257,985,3126,42,44,865,1856,1921,2190,2369,2028,1827,1846,1977
985071,69000,36620,69531,36763,1066,684,-990,321,-900,27,1011,3188,61,43,865,1856,1921,2190,2369,2028,1827,1846,1977
986072,69104,36704,69596,36828,518,361,-1024,321,-932,64,944,3235,38,44,870,1856,1921,2190,2369,2028,1827,1846,1977
987073,69188,36780,69661,36893,746,447,-1035,314,-961,-158,948,3244,57,58,863,1856,1921,2190,2369,2028,1827,1846,1977
988074,69264,36852,69726,36958,832,489,-1038,296,-997,-338,993,3387,35,57,873,1856,1921,2190,2369,2028,1827,1846,1977
989075,69352,36936,69791,37023,654,316,-1023,299,-1001,-343,757,3417,52,55,867,1853,1920,2175,2334,2124,1905,1853,1990
990076,69444,37000,69856,37088,571,567,-1006,312,-1005,-154,789,3661,52,49,866,1853,1920,2175,2334,2124,1905,1853,1990
991077,69516,37080,69921,37153,813,349,-992,334,-1001,-434,882,3408,53,49,871,1853,1920,2175,2334,2124,1905,1853,1990
992078,69592,37168,69986,37218,749,221,-972,342,-1000,-211,1049,3468,41,46,870,1853,1920,2175,2334,2124,1905,1853,1990
993079,69664,37260,70051,37283,792,138,-962,319,-995,-519,996,3387,43,55,869,1853,1920,2175,2334,2124,1905,1853,1990
994080,69744,37316,70116,37348,674,599,-956,299,-986,-514,977,3447,40,41,871,1818,1894,2140,2304,2035,1826,1856,1979
995081,69836,37388,70181,37413,491,390,-946,273,-980,-405,986,3164,36,50,871,1818,1894,2140,2304,2035,1826,1856,1979
996082,69904,37456,70246,37478,787,436,-952,230,-981,-227,1123,3205,36,53,869,1818,1894,2140,2304,2035,1826,1856,1979
997083,69992,37532,70311,37543,509,323,-957,178,-989,-651,1015,3257,45,56,873,1818,1894,2140,2304,2035,1826,1856,1979
998084,70068,37604,70376,37608,645,364,-977,149,-1010,-598,1082,3110,55,44,869,1818,1894,2140,2304,2035,1826,1856,1979
999085,70164,37688,70441,37673,358,191,-985,120,-1035,-353,1030,3051,38,40,873,1818,1894,2140,2304,2035,1826,1856,1979
1000086,70244,37752,70506,37738,539,442,-998,60,-1059,-201,973,2797,52,51,871,1824,1896,2200,2411,2007,1806,1839,1957
1001087,70316,37812,70571,37803,632,499,-999,21,-1085,-423,941,3269,50,55,876,1824,1896,2200,2411,2007,1806,1839,1957
1002088,70392,37880,70636,37868,568,395,-1004,32,-1124,-213,828,3132,48,50,872,1824,1896,2200,2411,2007,1806,1839,1957
1003089,70488,37960,70701,37933,281,227,-993,50,-1140,68,666,3357,38,51,871,1824,1896,2200,2411,2007,1806,1839,1957
1004090,70560,38032,70766,37998,572,318,-983,51,-1162,-50,636,2986,41,54,872,1824,1896,2200,2411,2007,1806,1839,1957
1005091,70656,38112,70831,38063,234,200,-971,28,-1177,-595,585,2963,52,50,876,1870,1926,2170,2361,1985,1788,1822,1941
1006092,70736,38192,70896,38128,416,181,-962,31,-1194,-598,629,3417,35,56,871,1870,1926,2170,2361,1985,1788,1822,1941
1007093,70828,38272,70961,38193,233,163,-948,27,-1224,-137,360,2996,33,48,875,1870,1926,2170,2361,1985,1788,1822,1941
1008094,70908,38364,71026,38258,365,-20,-955,-17,-1244,-301,308,3097,35,52,875,1870,1926,2170,2361,1985,1788,1822,1941
1009095,70996,38448,71091,38323,236,57,-949,-59,-1243,-383,319,2974,32,44,877,1870,1926,2170,2361,1985,1788,1822,1941
1010096,71084,38532,71156,38388,208,34,-946,-124,-1246,-602,346,3025,34,53,877,1870,1926,2170,2361,1985,1788,1822,1941
1011097,71172,38604,71221,38453,180,175,-928,-168,-1254,-913,293,3197,33,46,878,1956,2016,2176,2361,1965,1769,1809,1927
1012098,71252,38668,71286,38518,262,276,-918,-177,-1251,-782,94,2988,39,38,878,1956,2016,2176,2361,1965,1769,1809,1927
1013099,71344,38748,71351,38583,79,58,-893,-190,-1225,-459,262,3087,48,49,878,1956,2016,2176,2361,1965,1769,1809,1927
1014100,71416,38800,71416,38648,321,424,-870,-230,-1198,-939,270,2868,35,46,876,1956,2016,2176,2361,1965,1769,1809,1927
1015101,71508,38888,71481,38713,38,-55,-867,-236,-1181,-981,348,3305,33,42,879,1956,2016,2176,2361,1965,1769,1809,1927
1016102,71588,38944,71546,38778,169,356,-865,-250,-1171,-370,454,2937,44,42,874,1865,1929,2155,2339,1959,1763,1815,1932
1017103,71664,39028,71611,38843,206,-17,-864,-287,-1156,-387,339,2923,30,45,879,1865,1929,2155,2339,1959,1763,1815,1932
1018104,71760,39092,71676,38908,-82,234,-862,-319,-1148,-622,300,2998,40,49,876,1865,1929,2155,2339,1959,1763,1815,1932
1019105,71836,39176,71741,38973,155,-39,-867,-315,-1154,-680,281,3097,46,53,878,1865,1929,2155,2339,1959,1763,1815,1932
1020106,71928,39244,71806,39038,-78,157,-879,-326,-1166,-232,374,2929,32,40,875,1865,1929,2155,2339,1959,1763,1815,1932
1021107,72012,39308,71871,39103,-2,208,-878,-340,-1177,-146,350,2985,30,54,878,1865,1929,2155,2339,1959,1763,1815,1932
1022108,72112,39376,71936,39168,-244,155,-879,-379,-1195,-269,330,2849,47,54,876,1866,1921,2142,2333,1979,1777,1828,1947
1023109,72200,39440,72001,39233,-122,206,-873,-405,-1210,-490,257,2916,28,41,876,1866,1921,2142,2333,1979,1777,1828,1947
1024110,72292,39512,72066,39298,-205,97,-861,-412,-1221,-274,331,2977,46,52,876,1866,1921,2142,2333,1979,1777,1828,1947
1025111,72352,39584,72131,39363,201,89,-843,-442,-1217,-223,99,3008,33,49,870,1866,1921,2142,2333,1979,1777,1828,1947
1026112,72436,39664,72196,39428,-122,-30,-814,-456,-1207,-226,68,3010,50,43,859,1866,1921,2142,2333,1979,1777,1828,1947
1027113,72516,39732,72261,39493,-91,117,-785,-483,-1178,-382,58,3105,31,44,877,1848,1897,2132,2316,2005,1768,1812,2038
1028114,72608,39796,72326,39558,-275,167,-768,-513,-1180,-435,-29,3021,43,51,871,1848,1897,2132,2316,2005,1768,1812,2038
1029115,72660,39868,72391,39623,241,58,-756,-522,-1169,-313,-57,3207,45,35,874,1848,1897,2132,2316,2005,1768,1812,2038
1030116,72740,39932,72456,39688,-127,160,-751,-518,-1148,-263,-49,2990,40,44,877,1848,1897,2132,2316,2005,1768,1812,2038
1031117,72816,40008,72521,39753,-91,-4,-745,-511,-1112,-352,-60,3237,32,37,877,1848,1897,2132,2316,2005,1768,1812,2038
1032118,72896,40076,72586,39818,-159,93,-761,-503,-1103,-406,-106,3230,31,41,869,1848,1897,2132,2316,2005,1768,1812,2038
1033119,72972,40144,72651,39883,-122,89,-781,-499,-1078,-472,-249,2795,47,33,874,1843,1902,2136,2333,2000,1792,1824,1940
1034120,73056,40216,72716,39948,-246,30,-801,-486,-1038,-410,-73,3280,33,43,865,1843,1902,2136,2333,2000,1792,1824,1940
1035121,73136,40272,72781,40013,-214,241,-824,-489,-1016,-526,-114,2840,34,47,869,1843,1902,2136,2333,2000,1792,1824,1940
