%  Data file recorded 2016/3/6  19:17:25
%  Stride Frequency         = [7, 7]
%  Lead In /Lead Out        = 
%  Deltas (Fractional)      = [0.25, 0.25, 0.25],[0.25, 0.25, 0.25]
%  Phase                    = 32768
%  Experiment.py 
%  Motor Gains    = [100, 0, 100, 0, 0, 100, 0, 100, 0, 0]
% Columns: 
% time | Right Leg Pos | Left Leg Pos | Commanded Right Leg Pos | Commanded Left Leg Pos | DCR | DCL | GyroX | GyroY | GyroZ | AX | AY | AZ | RBEMF | LBEMF | VBatt | S1 | S2 | S3 | S4 | S5 | S6 | S7 | S8
161,34000,-43216,9360,9360,-677,1258,-489,-112,45,528,-183,3881,-7,-9,882,1030,1199,989,1357,1952,1357,1541,1442
1162,34000,-43224,9360,9360,-602,1333,-491,-112,45,527,-179,3860,3,6,882,1030,1199,989,1357,1952,1357,1541,1442
2163,33992,-43220,9360,9360,-552,1258,-492,-113,43,529,-150,3855,5,2,882,1030,1199,989,1357,1952,1357,1541,1442
3164,34008,-43208,9360,9360,-702,1208,-492,-118,42,535,-155,3867,-8,-8,882,1030,1199,989,1357,1952,1357,1541,1442
4165,33992,-43220,9360,9360,-502,1358,-495,-120,40,528,-143,3842,5,6,882,1030,1199,989,1357,1952,1357,1541,1442
5166,33988,-43224,9360,9360,-577,1308,-494,-119,36,534,-158,3850,2,-1,882,1032,1199,987,1357,1953,1357,1541,1442
6167,33996,-43216,9360,9360,-652,1233,-495,-119,37,527,-148,3846,-8,-6,882,1032,1199,987,1357,1953,1358,1542,1444
7168,33996,-43220,9360,9360,-602,1308,-493,-121,37,542,-155,3857,7,5,882,1032,1199,987,1357,1953,1358,1542,1444
8169,34000,-43204,9360,9360,-627,1183,-492,-123,36,557,-152,3849,2,-2,882,1032,1199,987,1357,1953,1358,1542,1444
9170,33996,-43212,9360,9360,-577,1333,-492,-122,35,546,-147,3886,-6,-7,882,1032,1199,987,1357,1953,1358,1542,1444
10171,34004,-43220,9360,9360,-652,1333,-494,-122,37,531,-131,3867,-1,6,882,1032,1199,987,1357,1953,1358,1542,1444
11172,33996,-43216,9360,9360,-552,1258,-495,-122,35,527,-123,3870,8,0,882,1032,1201,990,1359,1953,1358,1541,1443
12173,33992,-43208,9360,9360,-577,1233,-493,-123,36,522,-137,3903,4,-8,882,1032,1201,990,1359,1953,1358,1541,1443
13174,34000,-43212,9360,9360,-652,1308,-493,-122,35,510,-121,3909,-8,6,882,1032,1201,990,1359,1953,1358,1541,1443
14175,33996,-43220,9360,9360,-577,1333,-491,-119,32,537,-133,3919,2,4,882,1032,1201,990,1359,1953,1358,1541,1443
15176,33988,-43216,9360,9360,-552,1258,-489,-120,32,512,-130,3938,8,-7,882,1032,1201,990,1359,1953,1358,1541,1443
16177,33988,-43220,9360,9360,-602,1308,-490,-121,33,509,-131,3903,-5,-5,882,1031,1200,990,1358,1952,1357,1541,1441
17178,33992,-43220,9360,9360,-627,1283,-490,-120,33,551,-135,3872,-8,4,882,1031,1200,990,1358,1952,1357,1541,1441
18179,33996,-43220,9360,9360,-627,1283,-490,-120,32,526,-155,3903,3,-4,882,1031,1200,990,1358,1952,1357,1541,1441
19180,34004,-43208,9360,9360,-652,1208,-490,-119,30,526,-147,3906,4,0,879,1031,1200,990,1358,1952,1357,1541,1441
20181,34004,-43216,9360,9360,-602,1333,-491,-120,29,550,-165,3896,-5,5,879,1031,1200,990,1358,1952,1357,1541,1441
21182,34012,-43204,9360,9360,-652,1208,-490,-120,30,550,-161,3886,-8,-9,882,1031,1200,990,1358,1952,1357,1541,1441
22183,33996,-43208,9360,9360,-502,1308,-490,-118,29,549,-162,3853,4,1,882,1031,1199,990,1359,1953,1358,1541,1443
23184,33992,-43216,9360,9360,-577,1333,-490,-115,28,559,-177,3840,5,5,882,1031,1199,990,1359,1953,1358,1541,1443
24185,33992,-43204,9360,9360,-602,1208,-489,-117,29,581,-182,3845,-6,-8,882,1031,1199,990,1359,1953,1358,1541,1443
25186,33992,-43212,9360,9360,-602,1333,-491,-119,27,563,-164,3826,-5,-1,882,1031,1199,990,1359,1953,1358,1541,1443
26187,33996,-43212,9360,9360,-627,1283,-493,-119,24,566,-152,3857,5,6,882,1031,1199,990,1359,1953,1358,1541,1443
27188,33992,-43220,9360,9360,-577,1333,-493,-118,26,543,-164,3852,7,-7,882,1032,1201,992,1360,1955,1359,1543,1443
28189,33988,-43220,9360,9360,-577,1283,-491,-114,29,514,-129,3852,-7,-2,882,1032,1201,992,1360,1955,1359,1543,1443
29190,34008,-43216,9360,9360,-727,1258,-488,-110,31,536,-115,3853,-8,6,882,1032,1201,992,1360,1955,1359,1543,1443
30191,33988,-43216,9360,9360,-477,1283,-488,-111,30,550,-123,3888,-5,-9,882,1032,1201,992,1360,1955,1359,1543,1443
31192,33996,-43208,9360,9360,-652,1233,-491,-112,31,535,-126,3861,8,0,882,1032,1201,992,1360,1955,1359,1543,1443
32193,33996,-43212,9360,9360,-602,1308,-491,-113,30,561,-123,3898,5,6,882,1032,1201,992,1360,1955,1359,1543,1443
33194,34000,-43224,9360,9360,-627,1358,-487,-112,33,534,-137,3899,1,-9,882,1031,1199,990,1359,1954,1357,1540,1442
34195,33996,-43216,9360,9360,-577,1233,-488,-112,34,531,-119,3891,-8,4,882,1031,1199,990,1359,1954,1357,1540,1442
35196,33984,-43208,9360,9360,-527,1233,-490,-112,34,544,-140,3914,-4,1,882,1031,1199,990,1359,1954,1357,1540,1442
36197,33984,-43216,9360,9360,-602,1333,-488,-112,37,526,-144,3919,1,-1,880,1031,1199,990,1359,1954,1357,1540,1442
37198,33992,-43208,9360,9360,-652,1233,-489,-111,39,531,-150,3870,8,-6,879,1031,1199,990,1359,1954,1357,1540,1442
38199,33992,-43208,9360,9360,-602,1283,-487,-113,40,544,-151,3870,4,-6,882,1031,1199,989,1358,1952,1357,1540,1441
39200,34004,-43208,9360,9360,-677,1283,-487,-113,38,574,-178,3872,0,5,882,1031,1199,989,1358,1952,1357,1540,1441
40201,34000,-43212,9360,9360,-577,1308,-486,-111,37,570,-168,3861,-8,-9,882,1031,1199,989,1358,1952,1357,1540,1441
41202,33996,-43204,9360,9360,-577,1233,-486,-110,36,560,-171,3841,-7,-2,882,1031,1199,989,1358,1952,1357,1540,1441
42203,33996,-43220,9360,9360,-602,1383,-486,-109,37,539,-158,3843,-5,2,882,1031,1199,989,1358,1952,1357,1540,1441
43204,34000,-43216,9360,9360,-627,1258,-486,-108,39,552,-161,3835,4,-9,882,1031,1199,989,1358,1952,1357,1540,1441
44205,34000,-43208,9360,9360,-602,1233,-488,-107,39,543,-160,3848,6,3,882,1032,1199,990,1359,1954,1358,1542,1444
45206,34004,-43212,9360,9360,-627,1308,-488,-109,40,555,-150,3864,8,0,882,1032,1199,990,1359,1954,1358,1542,1444
46207,33996,-43208,9360,9360,-552,1258,-487,-109,38,530,-142,3882,3,-6,882,1032,1199,990,1359,1954,1358,1542,1444
47208,33984,-43216,9360,9360,-527,1333,-485,-109,40,511,-127,3875,-3,4,882,1032,1199,990,1359,1954,1358,1542,1444
48209,34008,-43216,9360,9360,-752,1283,-484,-107,42,520,-137,3866,-8,-1,882,1032,1199,990,1359,1954,1358,1542,1444
49210,33992,-43212,9360,9360,-502,1258,-485,-107,40,524,-135,3906,-2,-8,882,1032,1200,989,1358,1952,1357,1541,1442
50211,34000,-43212,9360,9360,-652,1283,-487,-107,40,536,-116,3884,3,-1,882,1032,1200,989,1358,1952,1357,1541,1442
51212,33996,-43212,9360,9360,-577,1283,-486,-107,43,546,-108,3872,7,4,882,1032,1200,989,1358,1952,1357,1541,1442
52213,33992,-43216,9360,9360,-577,1308,-483,-107,42,543,-96,3910,0,-9,882,1032,1200,989,1358,1952,1357,1541,1442
53214,34000,-43224,9360,9360,-652,1333,-483,-109,41,522,-141,3922,-5,-4,879,1032,1200,989,1358,1952,1357,1541,1442
54215,34000,-43220,9360,9360,-602,1258,-484,-111,41,521,-142,3882,-7,2,880,1032,1200,989,1358,1952,1357,1541,1442
55216,33992,-43216,9360,9360,-552,1258,-486,-108,42,522,-132,3863,-2,-8,882,1032,1200,989,1358,1953,1358,1541,1442
56217,34000,-43224,9360,9360,-652,1333,-484,-106,43,520,-162,3889,4,4,882,1032,1200,989,1358,1953,1358,1541,1442
57218,33992,-43224,9360,9360,-552,1283,-483,-107,43,536,-162,3878,8,-2,882,1032,1200,989,1358,1953,1358,1541,1442
58219,33988,-43212,9360,9360,-577,1208,-482,-108,43,524,-150,3875,2,-7,882,1032,1200,989,1358,1953,1358,1541,1442
59220,33988,-43220,9360,9360,-602,1333,-483,-108,43,520,-125,3859,-4,3,882,1032,1200,989,1358,1953,1358,1541,1442
60221,34000,-43220,9360,9360,-677,1283,-485,-108,40,544,-136,3908,-8,0,882,1032,1200,990,1359,1955,1359,1541,1441
61222,33992,-43212,9360,9360,-552,1233,-488,-109,42,538,-156,3898,-1,-9,882,1032,1200,990,1359,1955,1359,1541,1441
62223,33996,-43220,9360,9360,-627,1333,-487,-108,41,530,-158,3900,5,-6,882,1032,1200,990,1359,1955,1359,1541,1441
63224,33992,-43216,9360,9360,-577,1258,-486,-108,41,520,-153,3869,7,6,882,1032,1200,990,1359,1955,1359,1541,1441
64225,33988,-43216,9360,9360,-577,1283,-488,-108,40,525,-151,3869,-4,-6,882,1032,1200,990,1359,1955,1359,1541,1441
65226,33984,-43212,9360,9360,-577,1258,-489,-109,40,527,-157,3886,-9,-9,882,1032,1200,990,1359,1955,1359,1541,1441
66227,34000,-43220,9360,9360,-702,1333,-491,-109,42,546,-167,3920,-8,4,882,1032,1201,990,1359,1955,1358,1542,1444
67228,33996,-43212,9360,9360,-577,1233,-493,-110,42,543,-150,3933,0,-5,882,1032,1201,990,1359,1955,1358,1542,1444
68229,33992,-43208,9360,9360,-577,1258,-494,-113,40,538,-149,3897,5,-8,882,1032,1201,990,1359,1955,1358,1542,1444
69230,33988,-43220,9360,9360,-577,1358,-493,-114,40,532,-144,3887,8,6,882,1032,1201,990,1359,1955,1358,1542,1444
70231,34000,-43212,9360,9360,-677,1233,-493,-114,42,527,-141,3917,3,-9,879,1032,1201,990,1359,1955,1358,1542,1444
71232,34000,-43208,9360,9360,-602,1258,-493,-111,41,518,-137,3902,5,1,879,1030,1199,991,1359,1956,1360,1544,1444
72233,33996,-43212,9360,9360,-577,1308,-492,-112,42,540,-134,3924,-1,3,882,1030,1199,991,1359,1956,1360,1544,1444
73234,33996,-43212,9360,9360,-602,1283,-493,-113,42,540,-128,3959,-8,-8,882,1030,1199,991,1359,1956,1360,1544,1444
74235,34000,-43220,9360,9360,-627,1333,-494,-113,41,527,-123,3929,-8,3,882,1030,1199,991,1359,1956,1360,1544,1444
75237,33996,-43220,9360,9360,-577,1283,-492,-114,39,516,-137,3883,-7,-3,882,1030,1199,991,1359,1956,1360,1544,1444
76237,33980,-43220,9360,9360,-502,1283,-490,-115,38,519,-151,3887,1,-6,882,1030,1199,991,1359,1956,1360,1544,1444
77238,34004,-43228,9360,9360,-752,1333,-492,-115,37,536,-149,3890,8,4,882,1032,1200,990,1358,1955,1358,1542,1444
78239,34000,-43212,9360,9360,-577,1183,-493,-116,37,526,-141,3879,5,0,882,1032,1200,990,1358,1955,1358,1542,1444
79240,34000,-43208,9360,9360,-602,1258,-496,-116,39,494,-149,3874,-8,-7,882,1032,1200,990,1358,1955,1358,1542,1444
80241,33992,-43212,9360,9360,-552,1308,-495,-116,38,522,-158,3873,-5,3,882,1032,1200,990,1358,1955,1358,1542,1444
81242,33996,-43216,9360,9360,-627,1308,-494,-117,33,521,-163,3874,1,-1,881,1032,1200,990,1358,1955,1358,1542,1444
82243,33996,-43220,9360,9360,-602,1308,-494,-117,34,533,-149,3875,7,-6,882,1032,1201,990,1359,1953,1358,1542,1443
83244,33996,-43220,9360,9360,-602,1283,-493,-118,35,506,-159,3862,6,5,882,1032,1201,990,1359,1953,1358,1542,1443
84245,33992,-43208,9360,9360,-577,1208,-495,-119,36,513,-149,3885,4,-1,882,1032,1201,990,1359,1953,1358,1542,1443
85246,33996,-43212,9360,9360,-627,1308,-495,-117,34,531,-147,3876,-4,-8,882,1032,1201,990,1359,1953,1358,1542,1443
86247,33996,-43220,9360,9360,-602,1333,-494,-117,33,551,-139,3877,-5,-3,882,1032,1201,990,1359,1953,1358,1542,1443
87248,34000,-43208,9360,9360,-627,1208,-494,-117,33,561,-129,3886,-4,4,880,1032,1201,990,1359,1953,1358,1542,1443
88249,33992,-43216,9360,9360,-552,1333,-492,-122,32,547,-140,3862,-8,-9,879,1032,1200,990,1359,1953,1357,1539,1442
89250,34000,-43220,9360,9360,-652,1308,-491,-122,32,525,-152,3899,-8,-5,882,1032,1200,990,1359,1953,1357,1539,1442
90251,33996,-43220,9360,9360,-577,1283,-491,-122,31,546,-135,3897,-4,4,882,1032,1200,990,1359,1953,1357,1539,1442
91252,33996,-43212,9360,9360,-602,1233,-489,-121,32,566,-125,3924,8,-7,882,1032,1200,990,1359,1953,1357,1539,1442
92253,34004,-43212,9360,9360,-652,1283,-488,-118,32,524,-144,3900,7,5,882,1032,1200,990,1359,1953,1357,1539,1442
93254,33988,-43212,9360,9360,-502,1283,-489,-117,32,526,-140,3855,4,-2,882,1032,1200,990,1358,1952,1357,1541,1442
94255,33988,-43212,9360,9360,-602,1283,-489,-118,32,527,-139,3881,-4,-5,882,1032,1200,990,1358,1952,1357,1541,1442
95256,33988,-43212,9360,9360,-602,1283,-486,-120,32,526,-138,3880,-5,5,882,1032,1200,990,1358,1952,1357,1541,1442
96257,34000,-43208,9360,9360,-677,1258,-487,-117,29,548,-136,3904,-7,-7,882,1032,1200,990,1358,1952,1357,1541,1442
97258,33992,-43204,9360,9360,-552,1258,-486,-114,29,550,-150,3894,-7,4,882,1032,1200,990,1358,1952,1357,1541,1442
98259,33984,-43196,9360,9360,-552,1233,-485,-114,31,545,-141,3845,-6,4,882,1032,1200,990,1358,1952,1357,1541,1442
99260,34004,-43212,9360,9360,-727,1383,-486,-114,33,560,-153,3825,2,-8,882,1032,1200,990,1360,1953,1358,1541,1442
100261,33996,-43216,9360,9360,-552,1308,-486,-115,33,534,-167,3842,6,6,882,1032,1200,990,1360,1953,1358,1541,1442
101262,33980,-43216,9360,9360,-502,1283,-485,-116,33,559,-155,3867,-3,1,882,1032,1200,990,1360,1953,1358,1541,1442
102264,33992,-43216,9360,9360,-677,1283,-486,-116,33,544,-148,3897,-8,-7,882,1032,1200,990,1360,1953,1358,1541,1442
103264,33988,-43216,9360,9360,-577,1283,-486,-114,34,545,-163,3905,4,5,879,1032,1200,990,1360,1953,1358,1541,1442
104265,34008,-43216,0,0,-469,1283,-485,-114,34,561,-163,3887,5,-7,880,1032,1200,990,1359,1953,1357,1541,1441
105266,33988,-43220,468,468,-207,1578,-485,-115,33,540,-142,3907,6,2,882,1032,1200,990,1359,1953,1357,1541,1441
106267,33992,-43216,936,936,-346,1539,-485,-114,32,536,-140,3911,4,-12,852,1032,1200,990,1359,1953,1357,1541,1441
107268,33992,-43136,1404,1404,-309,1074,-486,-113,33,534,-162,3896,7,2,855,1032,1200,990,1359,1953,1357,1541,1441
108269,33992,-43032,1872,1872,-298,933,-492,-84,27,644,-292,3793,-2,16,865,1032,1200,990,1359,1953,1357,1541,1441
109270,33976,-42896,2340,2340,-186,741,-480,-59,27,712,-213,3756,-10,11,868,1032,1200,990,1359,1953,1357,1541,1441
110271,33984,-42764,2808,2808,-325,774,-467,-44,25,540,-186,3763,4,25,871,1032,1199,990,1359,1954,1358,1542,1441
111272,33984,-42640,3276,3276,-263,832,-463,-50,12,528,-120,4035,3,28,870,1032,1199,990,1359,1954,1358,1542,1441
112273,33976,-42536,3744,3744,-202,966,-476,-55,18,713,-71,3925,3,23,869,1032,1199,990,1359,1954,1358,1542,1441
113274,33972,-42372,4212,4212,-215,599,-483,-98,20,685,-179,3949,4,21,868,1032,1199,990,1359,1954,1358,1542,1441
114275,33980,-42192,4680,4680,-279,506,-488,-114,12,669,-412,3720,-7,25,874,1032,1199,990,1359,1954,1358,1542,1441
115276,33952,-42036,5148,5148,-42,663,-469,-193,-2,484,-317,3641,3,28,874,1031,1197,990,1359,1950,1356,1540,1441
116277,33952,-41888,5616,5616,-205,721,-491,-169,-20,221,-166,4055,-12,27,874,1031,1197,990,1359,1950,1356,1540,1441
117278,33932,-41716,6084,6084,-68,578,-496,-156,-49,655,-174,3984,-11,31,872,1031,1197,990,1359,1950,1356,1540,1441
118279,33904,-41576,6552,6552,-6,787,-535,-91,-67,834,-332,4092,-1,21,875,1031,1197,990,1359,1950,1356,1540,1441
119280,33872,-41404,7020,7020,31,594,-527,-76,-83,842,-183,3810,-2,22,873,1031,1197,990,1359,1950,1356,1540,1441
120281,33860,-41260,7488,7488,-82,777,-524,-60,-95,626,-292,3884,0,32,873,1031,1197,990,1359,1950,1356,1540,1441
121282,33832,-41112,7956,7956,30,759,-505,-104,-100,512,-453,3778,-1,23,870,1031,1200,988,1356,1956,1358,1546,1451
122283,33828,-40972,8424,8424,-109,817,-514,-126,-113,653,-220,3959,2,31,873,1031,1200,988,1356,1956,1358,1546,1451
123284,33816,-40824,8892,8892,-47,775,-491,-142,-118,826,-437,3868,-7,16,871,1031,1200,988,1356,1956,1358,1546,1451
124285,33804,-40680,9360,9360,-35,808,-472,-143,-120,514,-66,3968,-7,25,872,1031,1200,988,1356,1956,1358,1546,1451
125286,33792,-40544,9828,9828,-24,866,-476,-144,-131,314,-374,4082,6,28,872,1031,1200,988,1356,1956,1358,1546,1451
126287,33788,-40412,10296,10296,-62,899,-476,-192,-145,342,-111,3886,-6,17,871,1031,1202,989,1357,1961,1361,1547,1449
127288,33776,-40264,10764,10764,0,807,-463,-247,-131,483,-194,3937,6,15,870,1031,1202,989,1357,1961,1361,1547,1449
128289,33780,-40104,11232,11232,-89,740,-446,-309,-152,596,-273,4011,-7,18,872,1031,1202,989,1357,1961,1361,1547,1449
129290,33772,-39984,11700,11700,-2,998,-463,-362,-184,309,-122,4153,-3,23,871,1031,1202,989,1357,1961,1361,1547,1449
130291,33780,-39860,12168,12168,-91,982,-469,-368,-182,882,-8,4079,-3,16,869,1031,1202,989,1357,1961,1361,1547,1449
131292,33768,-39748,12636,12636,46,1065,-458,-376,-170,1095,48,4098,-7,24,868,1031,1202,989,1357,1961,1361,1547,1449
132293,33792,-39592,13104,13104,-169,798,-451,-370,-193,447,-172,4231,1,22,868,1035,1206,991,1362,1948,1354,1542,1446
133294,33776,-39460,13572,13572,93,956,-437,-357,-236,900,-339,3962,-4,19,871,1035,1206,991,1362,1948,1354,1542,1446
134295,33784,-39296,14040,14040,-46,764,-416,-323,-236,1290,-204,3878,9,22,868,1035,1206,991,1362,1948,1354,1542,1446
135296,33780,-39144,14508,14508,41,846,-401,-292,-243,935,-246,3971,9,33,873,1035,1206,991,1362,1948,1354,1542,1446
136297,33788,-38996,14976,14976,-23,879,-382,-319,-237,608,165,4041,-6,28,871,1035,1206,991,1362,1948,1354,1542,1446
137298,33792,-38852,15444,15444,14,912,-384,-318,-215,845,-92,4076,-5,22,868,1041,1212,995,1367,1942,1352,1537,1437
138299,33776,-38712,15912,15912,150,945,-385,-301,-211,358,-136,4087,-6,19,867,1041,1212,995,1367,1942,1352,1537,1437
139300,33776,-38576,16384,16384,2500,3416,-361,-301,-200,314,-83,3884,-2,15,867,1041,1212,995,1367,1942,1352,1537,1437
140301,33784,-38448,16852,16852,2461,3475,-331,-323,-184,614,-199,3955,-5,-196,766,1041,1212,995,1367,1942,1352,1537,1437
141302,33760,-38224,17320,17320,2673,2881,-321,-363,-170,246,-41,4195,8,-201,769,1041,1212,995,1367,1942,1352,1537,1437
142303,33940,-37880,17788,17788,1405,2134,-323,-345,-180,363,-622,3896,15,12,785,1041,1212,995,1367,1942,1352,1537,1437
143304,34184,-37536,18256,18256,1011,2137,-326,-209,-245,1234,-1040,4276,25,57,831,1039,1208,993,1366,1931,1333,1528,1417
144305,34476,-37192,18724,18724,715,2140,-283,-149,-250,1562,-921,3688,61,51,838,1039,1208,993,1366,1931,1333,1528,1417
145306,34776,-36836,19192,19192,669,2067,-347,-91,-243,1160,-260,4797,53,54,841,1039,1208,993,1366,1931,1333,1528,1417
146307,35060,-36428,19660,19660,774,1744,-401,-192,-276,72,37,4248,60,50,843,1039,1208,993,1366,1931,1333,1528,1417
147308,35384,-36068,20128,20128,527,2046,-451,-265,-284,217,-536,4212,73,65,849,1039,1208,993,1366,1931,1333,1528,1417
148309,35712,-35688,20596,20596,505,1924,-449,-286,-262,315,-563,4659,55,56,847,1022,1202,990,1364,1960,1367,1554,1448
149310,36004,-35320,21064,21064,735,2001,-409,-375,-211,-717,-295,4067,67,59,849,1022,1202,990,1364,1960,1367,1554,1448
150311,36260,-34972,21532,21532,965,2129,-374,-521,-106,-741,-659,4608,67,56,844,1022,1202,990,1364,1960,1367,1554,1448
151312,36540,-34604,22000,22000,820,2006,-303,-717,38,-159,-581,4101,65,56,838,1022,1202,990,1364,1960,1367,1554,1448
152313,36784,-34220,22468,22468,1050,1908,-239,-838,154,-45,-443,4688,57,64,843,1022,1202,990,1364,1960,1367,1554,1448
153314,37096,-33864,22936,22936,629,2086,-158,-860,182,292,-415,5370,66,62,844,1022,1202,990,1364,1960,1367,1554,1448
154315,37364,-33492,23404,23404,909,1989,-70,-797,171,1303,-310,5384,73,55,843,1032,1204,994,1367,2003,1383,1586,1486
155316,37672,-33132,23872,23872,663,2066,-2,-804,287,1760,25,5998,71,70,840,1032,1204,994,1367,2003,1383,1586,1486
156317,37956,-32780,24340,24340,817,2119,-24,-751,397,793,-613,5718,61,58,843,1032,1204,994,1367,2003,1383,1586,1486
157318,38228,-32412,24808,24808,897,2021,24,-740,341,801,883,6137,52,51,840,1032,1204,994,1367,2003,1383,1586,1486
158319,38500,-32060,25276,25276,902,2124,54,-748,282,1784,-411,5899,49,57,842,1032,1204,994,1367,2003,1383,1586,1486
159320,38736,-31708,25744,25744,1132,2127,50,-754,325,1778,384,5931,66,62,840,1070,1259,1021,1405,1988,1367,1579,1476
160321,39028,-31340,26212,26212,787,2030,-2,-832,391,1455,83,5847,67,61,836,1070,1259,1021,1405,1988,1367,1579,1476
161322,39312,-31000,26680,26680,841,2208,13,-903,420,144,-73,5379,68,55,842,1070,1259,1021,1405,1988,1367,1579,1476
162323,39552,-30684,27148,27148,1122,2361,68,-1010,429,121,917,5611,56,37,837,1070,1259,1021,1405,1988,1367,1579,1476
163324,39812,-30320,27616,27616,1002,2064,81,-1120,517,520,-302,5857,47,31,830,1070,1259,1021,1405,1988,1367,1579,1476
164325,40056,-29984,28084,28084,1107,2242,88,-1248,651,21,-1,5561,61,50,838,1070,1259,1021,1405,1988,1367,1579,1476
165326,40348,-29652,28552,28552,812,2270,149,-1397,786,-523,-118,5639,47,36,832,1112,1302,1043,1439,1991,1373,1585,1479
166327,40600,-29336,29020,29020,1067,2374,239,-1463,913,-506,55,6159,44,46,835,1112,1302,1043,1439,1991,1373,1585,1479
167328,40840,-29008,29488,29488,1147,2303,372,-1514,1067,244,-95,5554,48,26,828,1112,1302,1043,1439,1991,1373,1585,1479
168329,41076,-28732,29956,29956,1178,2632,467,-1538,1208,51,-608,6196,55,33,829,1112,1302,1043,1439,1991,1373,1585,1479
169330,41304,-28416,30424,30424,1234,2386,585,-1516,1356,-629,468,5926,49,11,821,1112,1302,1043,1439,1991,1373,1585,1479
170331,41540,-28096,30892,30892,1190,2365,702,-1448,1500,420,-100,5902,50,37,821,1082,1263,1020,1400,1999,1379,1571,1455
171332,41808,-27784,31360,31360,994,2418,800,-1387,1591,154,83,5735,41,33,823,1082,1263,1020,1400,1999,1379,1571,1455
172333,42040,-27476,31828,31828,1225,2447,910,-1348,1670,-303,964,6015,53,32,824,1082,1263,1020,1400,1999,1379,1571,1455
173334,42268,-27184,32296,32296,1256,2552,976,-1335,1729,256,437,5489,50,16,822,1082,1263,1020,1400,1999,1379,1571,1455
174335,42472,-26868,32768,32768,1413,2405,1046,-1349,1786,-204,1535,5564,51,12,819,1082,1263,1020,1400,1999,1379,1571,1455
175336,42692,-26548,33236,33236,1319,2384,1092,-1308,1853,31,729,5479,48,32,818,1082,1263,1020,1400,1999,1379,1571,1455
176337,42916,-26236,33704,33704,1300,2438,1136,-1294,1884,38,1237,5282,52,23,825,1065,1234,1007,1399,1925,1346,1517,1389
177338,43120,-25916,34172,34172,1431,2391,1192,-1308,1923,-464,808,5020,49,31,824,1065,1234,1007,1399,1925,1346,1517,1389
178339,43336,-25612,34640,34640,1362,2495,1262,-1367,2000,-725,862,4861,50,24,820,1065,1234,1007,1399,1925,1346,1517,1389
179340,43544,-25296,35108,35108,1419,2424,1361,-1412,2050,-144,954,4894,35,21,819,1065,1234,1007,1399,1925,1346,1517,1389
180341,43732,-24952,35576,35576,1550,2252,1456,-1526,2117,-695,780,4034,42,21,819,1065,1234,1007,1399,1925,1346,1517,1389
181342,43936,-24640,36044,36044,1457,2456,1497,-1505,2202,-495,202,4999,31,31,822,1075,1239,1015,1394,1879,1332,1498,1387
182343,44144,-24300,36512,36512,1438,2284,1577,-1476,2276,-111,922,4122,39,21,819,1075,1239,1015,1394,1879,1332,1498,1387
183344,44336,-23936,36980,36980,1545,2137,1677,-1362,2407,492,1211,4667,30,35,820,1075,1239,1015,1394,1879,1332,1498,1387
184345,44544,-23572,37448,37448,1451,2139,1735,-1239,2541,892,-183,4128,41,37,825,1075,1239,1015,1394,1879,1332,1498,1387
185346,44720,-23244,37916,37916,1658,2368,1799,-1142,2620,-501,1109,4313,43,40,827,1075,1239,1015,1394,1879,1332,1498,1387
186347,44912,-22892,38384,38384,1565,2220,1931,-987,2745,53,930,3882,30,27,818,1075,1239,1015,1394,1879,1332,1498,1387
187348,45124,-22500,38852,38852,1446,1972,2035,-859,2919,962,860,3962,28,47,823,1056,1227,1001,1358,1861,1298,1482,1383
188349,45300,-22084,39320,39320,1679,1824,2100,-682,3017,73,1117,4309,28,52,830,1056,1227,1001,1358,1861,1298,1482,1383
189350,45476,-21728,39788,39788,1686,2201,2159,-564,3082,-760,1521,3492,42,44,827,1056,1227,1001,1358,1861,1298,1482,1383
190351,45644,-21376,40256,40256,1743,2229,2222,-481,3163,237,1417,3935,40,37,821,1056,1227,1001,1358,1861,1298,1482,1383
191352,45816,-21024,40724,40724,1725,2232,2305,-414,3239,-300,2279,3381,31,31,817,1056,1227,1001,1358,1861,1298,1482,1383
192353,46000,-20636,41192,41192,1657,2009,2403,-350,3300,502,1918,3669,25,45,819,1051,1221,995,1355,1879,1323,1479,1362
193354,46156,-20228,41660,41660,1840,1885,2470,-293,3344,433,2053,3409,37,39,821,1051,1221,995,1355,1879,1323,1479,1362
194355,46316,-19828,42128,42128,1822,1937,2507,-88,3372,114,1980,3663,37,57,824,1051,1221,995,1355,1879,1323,1479,1362
195356,46484,-19404,42596,42596,1780,1788,2577,167,3382,-181,1056,3263,27,68,824,1051,1221,995,1355,1879,1323,1479,1362
196357,46644,-18956,43064,43064,1837,1639,2649,142,3459,-523,1663,3339,27,66,827,1051,1221,995,1355,1879,1323,1479,1362
197358,46808,-18480,43532,43532,1820,1463,2626,177,3504,-476,1192,2798,24,59,828,1051,1221,995,1355,1879,1323,1479,1362
198359,46976,-18016,44000,44000,1802,1539,2706,237,3526,-256,1577,2060,34,75,833,1015,1171,967,1327,1819,1302,1438,1323
199360,47140,-17560,44468,44468,1834,1589,2789,389,3510,1243,2212,2307,21,77,832,1015,1171,967,1327,1819,1302,1438,1323
200361,47276,-17124,44936,44936,2017,1715,2759,542,3494,900,1207,2228,27,79,833,1015,1171,967,1327,1819,1302,1438,1323
201362,47432,-16668,45404,45404,1900,1590,2697,756,3514,-351,1600,2849,33,84,824,1015,1171,967,1327,1819,1302,1438,1323
202365,47564,-16140,45872,45872,2058,1138,2720,939,3614,543,960,1217,15,72,828,1015,1171,967,1327,1819,1302,1438,1323
203364,47700,-15672,46340,46340,2041,1513,2850,986,3682,1065,913,1810,25,83,831,1015,1163,971,1332,1825,1308,1433,1334
204365,47828,-15220,46808,46808,2100,1614,2900,1100,3725,-52,1085,2086,15,89,828,1015,1163,971,1332,1825,1308,1433,1334
205366,47980,-14732,47276,47276,1957,1388,2875,1242,3792,455,999,1796,11,77,825,1015,1163,971,1332,1825,1308,1433,1334
206367,48092,-14212,47744,47744,2216,1187,2860,1416,3845,934,1145,1748,15,89,829,1015,1163,971,1332,1825,1308,1433,1334
207368,48228,-13712,48212,48212,2074,1311,2877,1577,3855,225,1370,1503,23,94,828,1015,1163,971,1332,1825,1308,1433,1334
208369,48368,-13216,48680,48680,2057,1336,2831,1692,3863,1100,1697,2044,7,84,830,1015,1163,971,1332,1825,1308,1433,1334
209370,48480,-12720,49152,49152,2241,1335,2767,1910,3894,1040,1469,2082,10,97,831,997,1148,957,1300,1825,1302,1440,1348
210371,48580,-12248,49620,49620,2325,1485,2724,2158,3958,-98,1638,2172,8,92,824,997,1148,957,1300,1825,1302,1440,1348
211372,48708,-11692,50088,50088,2158,958,2719,2254,3928,1660,1324,1378,9,101,820,997,1148,957,1300,1825,1302,1440,1348
212373,48804,-11208,50556,50556,2367,1407,2616,2361,3913,1251,1636,1835,10,93,834,997,1148,957,1300,1825,1302,1440,1348
213374,48940,-10708,51024,51024,2125,1307,2521,2428,3834,1221,2140,1001,4,96,823,997,1148,957,1300,1825,1302,1440,1348
214375,49068,-10208,51492,51492,2184,1306,2389,2578,3745,1169,1956,1012,9,92,830,971,1128,933,1264,1855,1308,1455,1370
215376,49204,-9608,51960,51960,2142,678,2259,2866,3656,1545,2501,685,16,101,830,971,1128,933,1264,1855,1308,1455,1370
216377,49336,-8928,52428,52428,2175,172,2116,2941,3598,2116,2432,-337,24,114,839,971,1128,933,1264,1855,1308,1455,1370
217378,49468,-8364,52896,52896,2183,895,2100,2509,3425,3583,966,-583,22,122,841,971,1128,933,1264,1855,1308,1455,1370
218379,49604,-7876,53364,53364,2166,1370,1896,2052,3074,2819,728,511,20,106,834,971,1128,933,1264,1855,1308,1455,1370
219380,49744,-7312,53832,53832,2149,892,1464,1841,2853,-659,-771,1618,5,111,828,971,1128,933,1264,1855,1308,1455,1370
220381,49848,-6724,54300,54300,2383,739,1265,1524,2766,-647,-1276,1032,5,103,835,946,1100,918,1232,1940,1345,1499,1458
221382,49944,-6208,54768,54768,2442,1188,1217,1383,2727,1700,-484,523,4,114,828,946,1100,918,1232,1940,1345,1499,1458
222383,50036,-5744,55236,55236,2476,1513,1136,1608,2775,2953,606,2648,-8,109,821,946,1100,918,1232,1940,1345,1499,1458
223384,50100,-5292,55704,55704,2661,1589,795,2303,2651,3586,2,1945,-11,111,813,946,1100,918,1232,1940,1345,1499,1458
224385,50172,-4852,56172,56172,2621,1664,460,2766,2474,3379,-42,-720,-10,115,809,946,1100,918,1232,1940,1345,1499,1458
225386,50248,-4424,56640,56640,2606,1740,181,2912,2452,3694,119,-978,-21,93,809,901,1081,899,1180,2058,1375,1560,1562
226387,50316,-4024,57108,57108,2665,1917,-137,2859,2571,3275,14,-67,-21,92,808,901,1081,899,1180,2058,1375,1560,1562
227388,50404,-3676,57576,57576,2550,2245,-523,2695,2614,2425,763,700,-24,108,799,901,1081,899,1180,2058,1375,1560,1562
228389,50500,-3288,58044,58044,2509,1997,-897,2342,2592,198,367,2577,-22,95,801,901,1081,899,1180,2058,1375,1560,1562
229390,50584,-2856,58512,58512,2593,1723,-1227,1863,2495,-755,1370,2261,-6,90,806,901,1081,899,1180,2058,1375,1560,1562
230391,50660,-2488,58980,58980,2653,2125,-1466,1183,2323,-499,842,2670,2,94,809,887,1063,889,1167,2207,1450,1637,1615
231392,50748,-2092,59448,59448,2587,1952,-1694,671,2115,-171,2110,3382,-16,100,801,887,1063,889,1167,2207,1450,1637,1615
232393,50816,-1700,59916,59916,2722,1979,-1903,329,1910,1646,1693,3968,-18,81,803,887,1063,889,1167,2207,1450,1637,1615
233394,50860,-1304,60384,60384,2882,1956,-2103,262,1701,1742,1420,3883,-11,84,797,887,1063,889,1167,2207,1450,1637,1615
234395,50900,-836,60852,60852,2917,1506,-2212,240,1462,3026,1192,3114,-31,88,798,887,1063,889,1167,2207,1450,1637,1615
235396,50904,-428,61320,61320,3154,1882,-2368,328,1209,3797,659,3424,-66,85,802,887,1063,889,1167,2207,1450,1637,1615
236397,50908,-68,61788,61788,3165,2185,-2633,353,1004,2975,1581,3197,-74,76,788,907,1101,927,1215,2303,1491,1709,1716
237398,50924,344,62256,62256,3101,1861,-2951,422,790,4006,677,3611,-163,82,781,907,1101,927,1215,2303,1491,1709,1716
238399,50920,708,62724,62724,3238,2164,-3299,425,554,3357,610,3329,-164,73,784,907,1101,927,1215,2303,1491,1709,1716
239400,50928,1076,63192,63192,3174,2141,-3647,261,448,1671,1797,4426,-124,66,779,907,1101,927,1215,2303,1491,1709,1716
240401,50936,1412,63660,63660,3185,2344,-4058,238,330,3190,271,4453,-197,67,777,907,1101,927,1215,2303,1491,1709,1716
241402,50940,1748,64128,64128,3221,2347,-4390,177,241,1543,200,3776,-153,53,776,990,1192,982,1303,2174,1447,1658,1631
242403,50968,2068,64596,64596,3082,2451,-4633,203,229,430,910,4235,-165,38,775,990,1192,982,1303,2174,1447,1658,1631
243404,50988,2372,65064,65064,3143,2555,-4791,196,263,1442,798,3972,-183,33,773,990,1192,982,1303,2174,1447,1658,1631
244405,50988,2700,65536,65536,3280,2409,-4909,98,258,653,442,4408,-102,40,773,990,1192,982,1303,2174,1447,1658,1631
245406,51004,3048,66004,66004,3191,2287,-5013,-76,228,-499,399,5273,-131,32,772,990,1192,982,1303,2174,1447,1658,1631
246407,51040,3328,66472,66472,3076,2716,-5057,-204,229,-882,1178,5543,-229,26,778,990,1192,982,1303,2174,1447,1658,1631
247408,51056,3628,66940,66940,3212,2595,-4935,-175,187,-84,1126,6197,-163,42,772,973,1155,954,1284,2071,1415,1588,1492
248409,51112,3940,67408,67408,2972,2524,-4894,302,200,-1862,774,7612,-90,25,767,973,1155,954,1284,2071,1415,1588,1492
249410,51144,4292,67876,67876,3133,2277,-4520,-651,-60,-889,244,4001,-177,22,778,973,1155,954,1284,2071,1415,1588,1492
250411,51140,4600,68344,68344,3370,2556,-4340,-1404,-166,-2574,756,8364,-72,24,776,973,1155,954,1284,2071,1415,1588,1492
251412,51156,4880,68812,68812,3256,2735,-4187,-1375,-388,1097,2273,8605,-129,38,761,973,1155,954,1284,2071,1415,1588,1492
252413,51232,5160,69280,69280,2890,2740,-3912,-916,-613,1086,782,9531,-267,26,766,954,1115,940,1314,1855,1303,1478,1338
253414,51232,5424,69748,69748,3377,2845,-3675,-739,-830,858,2382,7992,-202,5,779,954,1115,940,1314,1855,1303,1478,1338
254415,51220,5732,70216,70216,3463,2574,-3477,-756,-961,590,1988,9159,-57,6,757,954,1115,940,1314,1855,1303,1478,1338
255416,51252,6008,70684,70684,3199,2779,-3464,-306,-1143,1816,1686,8718,-296,-2,758,954,1115,940,1314,1855,1303,1478,1338
256417,51260,6304,71152,71152,3360,2658,-3292,40,-1246,1991,2387,6763,-331,19,766,954,1115,940,1314,1855,1303,1478,1338
257418,51228,6580,71620,71620,3622,2787,-3174,447,-1323,1904,2050,7080,-163,1,756,954,1115,940,1314,1855,1303,1478,1338
258419,51248,6828,72088,72088,3308,2968,-3014,613,-1352,729,1636,7039,-290,21,743,1108,1344,1056,1536,1632,1184,1408,1292
259420,51288,7104,72556,72556,3194,2797,-2872,701,-1246,-9,1700,6976,-196,-1,758,1108,1344,1056,1536,1632,1184,1408,1292
260421,51280,7372,73024,73024,3505,2852,-2667,730,-1147,-8,1575,6890,-240,-15,768,1108,1344,1056,1536,1632,1184,1408,1292
261422,51316,7664,73492,73492,3241,2707,-2378,803,-1077,-660,1154,6818,-163,-2,757,1108,1344,1056,1536,1632,1184,1408,1292
262423,51384,8000,73960,73960,3051,2435,-2002,873,-994,-1370,851,6923,-322,-7,764,1108,1344,1056,1536,1632,1184,1408,1292
263424,51440,8320,74428,74428,3136,2538,-1611,888,-907,-1559,874,7271,-179,1,777,1267,1474,1123,1647,1755,1279,1488,1351
264425,51496,8648,74896,74896,3146,2492,-1175,803,-820,-1733,386,7111,-94,31,774,1267,1474,1123,1647,1755,1279,1488,1351
265426,51620,8932,75364,75364,2729,2771,-726,780,-771,-1687,576,7344,-108,18,770,1267,1474,1123,1647,1755,1279,1488,1351
266427,51704,9192,75832,75832,2989,2926,-260,776,-775,-1814,798,7549,-115,18,780,1267,1474,1123,1647,1755,1279,1488,1351
267428,51768,9620,76300,76300,3123,1877,132,1004,-815,-2223,2507,9674,-25,4,767,1267,1474,1123,1647,1755,1279,1488,1351
268429,51864,10024,76768,76768,2933,2029,496,911,-972,2383,-2176,5172,-40,-11,786,1267,1474,1123,1647,1755,1279,1488,1351
269430,52000,10340,77236,77236,2691,2583,1114,725,-641,-1994,2589,6561,-79,52,792,1159,1327,1049,1513,1783,1296,1455,1307
270431,52140,10688,77704,77704,2674,2386,1328,952,-699,1592,2319,7089,-46,36,788,1159,1327,1049,1513,1783,1296,1455,1307
271432,52304,11176,78172,78172,2531,1510,1190,1349,-977,2427,2603,8772,-10,31,790,1159,1327,1049,1513,1783,1296,1455,1307
272433,52456,11620,78640,78640,2614,1786,1079,1423,-1021,1366,2236,4829,3,49,812,1159,1327,1049,1513,1783,1296,1455,1307
273434,52612,12036,79108,79108,2596,1962,1072,1714,-1155,1148,3564,5892,-2,63,806,1159,1327,1049,1513,1783,1296,1455,1307
274435,52780,12484,79576,79576,2529,1762,1129,2195,-1426,1211,1548,5655,15,60,802,1115,1257,1014,1431,1783,1299,1488,1380
275436,52968,12924,80044,80044,2411,1813,1158,2372,-1533,1902,2465,4552,17,56,812,1115,1257,1014,1431,1783,1299,1488,1380
276437,53148,13360,80512,80512,2468,1839,1127,2316,-1412,1505,666,4273,14,68,812,1115,1257,1014,1431,1783,1299,1488,1380
277438,53388,13788,80980,80980,2098,1890,1180,2257,-1368,638,1061,4296,17,65,812,1115,1257,1014,1431,1783,1299,1488,1380
278439,53620,14288,81448,81448,2154,1439,1342,2332,-1369,-909,263,3863,25,63,818,1115,1257,1014,1431,1783,1299,1488,1380
279440,53844,14868,81920,81920,2210,937,1529,2428,-1284,-1518,-782,3878,36,68,827,1115,1257,1014,1431,1783,1299,1488,1380
280441,54068,15368,82388,82388,2216,1436,1777,2303,-1132,-1699,90,4123,32,74,834,1027,1183,985,1346,2025,1410,1582,1502
281442,54320,15860,82856,82856,2046,1485,1949,2105,-975,-726,-159,4881,44,74,827,1027,1183,985,1346,2025,1410,1582,1502
282443,54580,16412,83324,83324,2001,1108,2040,1926,-848,-567,480,4582,43,67,829,1027,1183,985,1346,2025,1410,1582,1502
283444,54812,16952,83792,83792,2182,1181,2076,1819,-694,-791,237,4009,34,70,836,1027,1183,985,1346,2025,1410,1582,1502
284445,55064,17448,84260,84260,2062,1456,2062,1909,-571,940,923,3676,35,75,832,1027,1183,985,1346,2025,1410,1582,1502
285446,55316,17988,84728,84728,2068,1179,1987,2069,-561,2041,2357,3197,35,73,832,993,1170,981,1331,2010,1380,1558,1476
286447,55564,18512,85196,85196,2098,1278,1833,2206,-597,1640,2529,3245,48,91,836,993,1170,981,1331,2010,1380,1558,1476
287448,55832,19012,85664,85664,1978,1427,1536,2171,-663,2131,3207,3075,52,91,833,993,1170,981,1331,2010,1380,1558,1476
288449,56108,19588,86132,86132,1933,949,1278,2122,-768,2112,3264,2557,43,94,833,993,1170,981,1331,2010,1380,1558,1476
289450,56400,20144,86600,86600,1837,1072,1066,2176,-951,2137,3926,3037,45,83,842,993,1170,981,1331,2010,1380,1558,1476
290451,56700,20768,87068,87068,1791,643,908,2211,-1142,1955,3653,2434,60,102,842,993,1170,981,1331,2010,1380,1558,1476
291452,56996,21380,87536,87536,1820,715,764,2321,-1288,2083,3048,3449,51,104,846,1031,1199,973,1320,1942,1338,1523,1453
292453,57284,22052,88004,88004,1875,335,675,2315,-1429,2239,3103,2239,66,92,848,1031,1199,973,1320,1942,1338,1523,1453
293454,57616,22576,88472,88472,1603,1258,613,2440,-1524,1703,1092,2523,65,100,851,1031,1199,973,1320,1942,1338,1523,1453
294455,57936,23096,88940,88940,1681,1282,676,2252,-1592,911,1433,2034,53,107,846,1031,1199,973,1320,1942,1338,1523,1453
295456,58260,23632,89408,89408,1660,1180,711,2138,-1652,198,1428,1849,72,105,844,1031,1199,973,1320,1942,1338,1523,1453
296457,58584,24200,89876,89876,1663,978,787,1947,-1620,188,559,2613,64,110,845,961,1111,932,1237,1997,1369,1513,1457
297458,58904,24792,90344,90344,1692,825,788,1935,-1539,56,466,1935,56,115,848,961,1111,932,1237,1997,1369,1513,1457
298459,59264,25348,90812,90812,1445,1048,933,1831,-1437,-31,-200,1370,59,120,850,961,1111,932,1237,1997,1369,1513,1457
299460,59596,25780,91280,91280,1623,1824,1057,1766,-1386,295,945,1071,76,116,853,961,1111,932,1237,1997,1369,1513,1457
300461,59948,26416,91748,91748,1501,545,1082,1655,-1363,686,389,529,66,120,839,961,1111,932,1237,1997,1369,1513,1457
301462,60280,27052,92216,92216,1629,540,1007,1535,-1343,189,2019,369,76,120,856,961,1111,932,1237,1997,1369,1513,1457
302463,60624,27724,92684,92684,1557,310,843,1562,-1398,1503,439,-256,64,130,854,932,1097,925,1249,1839,1286,1429,1351
303464,61020,28380,93152,93152,1234,406,706,1507,-1455,1501,1967,-660,65,128,857,932,1097,925,1249,1839,1286,1429,1351
304465,61380,28896,93620,93620,1462,1280,535,1457,-1520,1678,2664,-128,70,134,863,932,1097,925,1249,1839,1286,1429,1351
305466,61720,29476,94088,94088,1590,877,338,1346,-1581,1565,2218,0,83,118,850,932,1097,925,1249,1839,1286,1429,1351
306467,62092,30092,94556,94556,1392,648,86,1389,-1742,633,2026,-98,65,117,852,932,1097,925,1249,1839,1286,1429,1351
307468,62468,30660,95024,95024,1369,946,-51,1256,-1970,823,2446,-632,70,128,858,984,1152,935,1276,1728,1235,1400,1335
308469,62888,31204,95492,95492,1095,1094,-184,1197,-2214,1781,2394,38,76,117,851,984,1152,935,1276,1728,1235,1400,1335
309470,63312,31760,95960,95960,1072,1017,-276,964,-2385,1750,1984,226,69,122,859,984,1152,935,1276,1728,1235,1400,1335
310471,63696,32320,96428,96428,1324,990,-411,797,-2545,1291,1416,1022,77,129,860,984,1152,935,1276,1728,1235,1400,1335
311472,64060,32908,96896,96896,1451,812,-402,549,-2676,1197,461,-31,75,124,856,984,1152,935,1276,1728,1235,1400,1335
312473,64428,33448,97364,97364,1429,1110,-297,621,-2798,2310,241,996,83,120,855,984,1152,935,1276,1728,1235,1400,1335
313474,64836,33984,97832,97832,1180,1133,-28,559,-2790,2236,-226,-672,80,134,853,948,1103,912,1206,1916,1324,1496,1481
314475,65264,34532,98304,98304,1056,1056,184,430,-2715,1219,-189,-184,77,114,855,948,1103,912,1206,1916,1324,1496,1481
315476,65668,35140,98772,98772,1208,678,291,101,-2677,-779,145,-12,93,117,860,948,1103,912,1206,1916,1324,1496,1481
316477,66068,35688,99240,99240,1234,1051,342,-257,-2645,-429,76,510,92,133,862,948,1103,912,1206,1916,1324,1496,1481
317478,66484,36264,99708,99708,1136,873,376,-464,-2526,609,574,739,94,124,857,948,1103,912,1206,1916,1324,1496,1481
318479,66896,36884,100176,100176,1162,595,416,-625,-2420,628,336,-199,84,115,860,925,1101,912,1208,1860,1277,1451,1408
319480,67368,37464,100644,100644,787,842,320,-745,-2413,527,2206,145,95,133,863,925,1101,912,1208,1860,1277,1451,1408
320481,67780,38120,101112,101112,1163,362,102,-940,-2482,1088,1375,-540,88,129,866,925,1101,912,1208,1860,1277,1451,1408
321482,68204,38752,101580,101580,1089,508,-156,-1118,-2568,1589,3165,-765,90,126,866,925,1101,912,1208,1860,1277,1451,1408
322483,68580,39372,102048,102048,1392,580,-497,-1096,-2614,2123,1637,-704,87,113,865,925,1101,912,1208,1860,1277,1451,1408
323484,69004,40032,102516,102516,1093,325,-866,-1061,-2669,1877,2960,-795,99,118,860,925,1101,912,1208,1860,1277,1451,1408
324485,69460,40592,102984,102984,893,948,-1134,-1060,-2747,1084,1018,-1525,98,108,867,996,1178,938,1264,1736,1218,1408,1357
325486,69916,41364,103452,103452,893,-385,-1257,-1139,-2863,248,887,-1509,108,111,862,996,1178,938,1264,1736,1218,1408,1357
326487,70380,42028,103920,103920,843,286,-1296,-1287,-2880,316,-334,-1223,107,114,867,996,1178,938,1264,1736,1218,1408,1357
327488,70796,42732,104388,104388,1145,30,-1239,-1569,-2843,-1296,-2068,-891,85,123,871,996,1178,938,1264,1736,1218,1408,1357
328489,71192,43424,104856,104856,1271,99,-1108,-1726,-2906,-1479,-1548,-210,90,119,867,996,1178,938,1264,1736,1218,1408,1357
329490,71660,44172,105324,105324,821,-258,-1039,-2052,-2831,-1128,-2100,-1384,94,120,867,943,1089,900,1187,1876,1297,1446,1398
330491,72152,44832,105792,105792,671,288,-758,-2122,-3011,1287,2310,1917,98,123,870,943,1089,900,1187,1876,1297,1446,1398
331492,72636,45492,106260,106260,720,283,-593,-1646,-3213,2828,635,2468,109,122,873,943,1089,900,1187,1876,1297,1446,1398
332493,73072,46144,106728,106728,1021,329,-512,-1370,-2802,-52,-3241,1211,94,119,872,943,1089,900,1187,1876,1297,1446,1398
333494,73480,46796,107196,107196,1198,324,-603,-1712,-2200,-2168,-4591,237,97,128,868,943,1089,900,1187,1876,1297,1446,1398
334495,73952,47496,107664,107664,798,18,-741,-1947,-1818,-5144,-260,-280,92,112,866,943,1089,900,1187,1876,1297,1446,1398
335496,74424,48132,108132,108132,797,414,-511,-1490,-2231,-442,2334,971,98,112,873,896,1041,888,1210,1824,1281,1422,1320
336497,74840,48768,108600,108600,1149,410,-415,-1226,-2441,2251,289,1251,92,125,871,896,1041,888,1210,1824,1281,1422,1320
337498,75308,49408,109068,109068,824,381,-785,-1041,-2083,1934,-1428,1388,87,116,866,896,1041,888,1210,1824,1281,1422,1320
338499,75760,50120,109536,109536,924,-75,-1213,-837,-1836,-401,1490,1262,95,111,871,896,1041,888,1210,1824,1281,1422,1320
339500,76228,50692,110004,110004,824,798,-1351,-447,-2038,-495,2050,1344,99,114,871,896,1041,888,1210,1824,1281,1422,1320
340501,76684,51256,110472,110472,899,845,-1294,2,-2360,1504,1907,1007,93,111,866,1006,1157,954,1362,1779,1279,1449,1319
341502,77180,51832,110940,110940,649,768,-1430,312,-2390,2314,1669,2729,99,105,864,1006,1157,954,1362,1779,1279,1449,1319
342503,77612,52408,111408,111408,1050,765,-1695,448,-2247,727,-325,1311,94,112,865,1006,1157,954,1362,1779,1279,1449,1319
343504,78084,53020,111876,111876,800,536,-1691,430,-2240,-1512,1134,1166,101,111,864,1006,1157,954,1362,1779,1279,1449,1319
344505,78532,53572,112344,112344,950,909,-1506,569,-2402,-455,-313,2586,92,110,869,1006,1157,954,1362,1779,1279,1449,1319
345506,78976,54120,112812,112812,976,932,-1481,825,-2454,1294,-1104,3173,91,112,862,1006,1157,954,1362,1779,1279,1449,1319
346507,79480,54696,113280,113280,600,755,-1473,1218,-2302,915,-2812,4017,96,105,863,1051,1186,996,1400,2011,1422,1564,1438
347508,79896,55224,113748,113748,1151,1053,-1429,1461,-2183,-818,-1489,3131,89,115,869,1051,1186,996,1400,2011,1422,1564,1438
348509,80312,55852,114216,114216,1152,424,-1363,1712,-2110,-515,-2826,4318,89,118,858,1051,1186,996,1400,2011,1422,1564,1438
349510,80764,56392,114688,114688,928,973,-1273,2221,-2013,390,-1945,4039,85,113,865,1051,1186,996,1400,2011,1422,1564,1438
350511,81216,56940,115156,115156,928,921,-1156,2639,-1875,90,-1483,4512,78,126,862,1051,1186,996,1400,2011,1422,1564,1438
351512,81688,57400,115624,115624,803,1471,-1068,3076,-1752,-652,-1286,4795,78,123,864,998,1137,979,1371,2071,1439,1567,1412
352513,82124,57928,116092,116092,1029,1045,-950,3392,-1718,-721,865,5013,84,109,857,998,1137,979,1371,2071,1439,1567,1412
353514,82568,58408,116560,116560,979,1344,-984,3705,-1825,1200,2166,6838,91,117,861,998,1137,979,1371,2071,1439,1567,1412
354515,83036,58840,117028,117028,829,1645,-1284,4061,-1964,1165,2700,7708,94,118,855,998,1137,979,1371,2071,1439,1567,1412
355516,83484,59280,117496,117496,955,1596,-1856,3654,-1827,-3129,1559,3314,84,116,853,998,1137,979,1371,2071,1439,1567,1412
356517,83980,59644,117964,117964,654,2073,-2440,3455,-1722,-4727,635,8198,101,97,854,998,1137,979,1371,2071,1439,1567,1412
357518,84492,60024,118432,118432,553,1975,-2811,3505,-1871,-1035,2456,8121,109,118,846,1018,1156,977,1406,2021,1418,1612,1497
358519,85012,60308,118900,118900,502,2580,-3119,3340,-2048,1371,1614,9325,108,85,849,1018,1156,977,1406,2021,1418,1612,1497
359520,85432,60604,119368,119368,1128,2509,-3336,3218,-2077,-78,249,9139,89,87,832,1018,1156,977,1406,2021,1418,1612,1497
360521,85868,60876,119836,119836,1029,2664,-3341,3006,-2151,-2262,-1138,9016,107,72,827,1018,1156,977,1406,2021,1418,1612,1497
361522,86372,61152,120304,120304,603,2644,-2983,2217,-2260,-2419,-1399,10156,114,67,826,1018,1156,977,1406,2021,1418,1612,1497
362523,86896,61400,120772,120772,477,2824,-2532,1469,-2546,-1124,-3011,12015,108,48,830,1030,1193,1023,1393,2729,1743,2055,2087
363524,87428,61600,121240,121240,425,3131,-1962,693,-2949,-3476,-7595,11591,96,36,825,1030,1193,1023,1393,2729,1743,2055,2087
364525,87956,61792,121708,121708,449,3187,-1323,167,-3152,-1951,-4195,10893,93,-1,815,1030,1193,1023,1393,2729,1743,2055,2087
365526,88520,61964,122176,122176,221,3320,-798,-105,-3271,1465,-1010,12199,119,-44,813,1030,1193,1023,1393,2729,1743,2055,2087
366527,88980,62140,122644,122644,871,3302,-743,-371,-3465,1863,354,10419,118,-79,809,1030,1193,1023,1393,2729,1743,2055,2087
367528,89520,62276,123112,123112,370,3560,-1107,-969,-3603,563,1384,10441,100,-145,800,1030,1193,1023,1393,2729,1743,2055,2087
368529,90104,62396,123580,123580,92,3668,-1650,-1390,-3575,1809,1202,7926,119,-113,796,1172,1496,1165,1572,2418,1495,2025,1930
369530,90700,62512,124048,124048,14,3702,-2053,-1671,-3493,2119,2034,9053,116,-229,789,1172,1496,1165,1572,2418,1495,2025,1930
370531,91280,62632,124516,124516,111,3685,-2389,-1730,-3569,695,1677,9674,106,-97,787,1172,1496,1165,1572,2418,1495,2025,1930
371532,91748,62724,124984,124984,811,3800,-2626,-1939,-3721,217,2297,9894,107,-43,788,1172,1496,1165,1572,2418,1495,2025,1930
372533,92148,62828,125452,125452,1238,3800,-2749,-2260,-3753,-427,1789,9346,125,-75,780,1172,1496,1165,1572,2418,1495,2025,1930
373534,92784,62912,125920,125920,-242,3800,-2749,-2755,-3673,-1377,312,8869,119,249,760,1387,1736,1168,1571,1935,1284,1726,1686
374535,93416,63036,126388,126388,-221,3696,-2909,-3451,-3239,-1369,-3141,10099,119,238,782,1387,1736,1168,1571,1935,1284,1726,1686
375536,94168,63172,126856,126856,-977,3629,-3569,-4255,-2553,1945,-1813,16183,125,266,787,1387,1736,1168,1571,1935,1284,1726,1686
376537,94712,63300,127324,127324,321,3688,-3724,-5819,-2494,-1522,550,11877,131,-51,779,1387,1736,1168,1571,1935,1284,1726,1686
377538,95264,63432,127792,127792,269,3671,-2857,-6419,-2989,-7002,-1843,7458,112,-193,789,1387,1736,1168,1571,1935,1284,1726,1686
378539,95824,63596,128260,128260,216,3478,-1209,-6460,-3643,-5163,-1630,5570,114,-83,791,1387,1736,1168,1571,1935,1284,1726,1686
380541,96936,63992,129196,129196,262,3316,243,-7973,-3744,-4780,-2737,9348,108,-238,808,1100,1315,994,1300,1922,1287,1523,1481
381542,97500,64196,129664,129664,185,3248,305,-9312,-3695,-4873,-3062,4812,99,-77,806,1100,1315,994,1300,1922,1287,1523,1481
382543,98024,64444,130132,130132,433,2978,601,-9993,-3811,-2561,-1852,2218,106,-101,810,1100,1315,994,1300,1922,1287,1523,1481
383544,98524,64716,130600,130600,583,2833,822,-10420,-3883,-1942,-508,1299,104,-85,817,1100,1315,994,1300,1922,1287,1523,1481
384545,99000,65024,131072,131072,733,2612,544,-10655,-3993,800,1611,3982,105,-22,821,1056,1237,1003,1364,1652,1179,1369,1299
385546,99480,65300,131540,131540,707,2817,-52,-10388,-3993,3493,1429,4464,105,-6,827,1056,1237,1003,1364,1652,1179,1369,1299
386547,99916,65624,132008,132008,983,2520,-443,-9804,-3872,3636,-42,3340,100,13,823,1056,1237,1003,1364,1652,1179,1369,1299
387548,100540,65972,132476,132476,-196,2373,-466,-9550,-3609,1073,1549,2000,98,7,829,1056,1237,1003,1364,1652,1179,1369,1299
388549,101192,66368,132944,132944,-375,2075,-424,-9569,-3385,-758,2729,2368,110,43,837,1056,1237,1003,1364,1652,1179,1369,1299
389550,101720,66832,133412,133412,398,1650,-461,-10075,-3457,1757,4768,-663,118,41,844,1056,1237,1003,1364,1652,1179,1369,1299
390551,102200,67284,133880,133880,698,1725,-292,-10595,-3486,3022,526,1946,108,50,854,1144,1294,1014,1387,1661,1219,1425,1359
391552,102704,67736,134348,134348,547,1726,-90,-10363,-3100,-3441,320,3111,114,65,851,1144,1294,1014,1387,1661,1219,1425,1359
392553,103224,68184,134816,134816,446,1751,350,-9967,-2696,-6565,-218,3154,108,58,852,1144,1294,1014,1387,1661,1219,1425,1359
393554,103728,68656,135284,135284,545,1601,795,-9858,-2115,-8728,-36,2799,98,64,848,1144,1294,1014,1387,1661,1219,1425,1359
394555,104296,69136,135752,135752,142,1551,1126,-10407,-1602,-6425,-459,945,107,68,854,1144,1294,1014,1387,1661,1219,1425,1359
395556,104824,69588,136220,136220,391,1726,1124,-10897,-1444,-1536,260,3480,109,68,857,968,1114,931,1244,1924,1323,1445,1337
396557,105308,70060,136688,136688,666,1601,907,-10993,-1498,-111,2666,2518,118,77,852,968,1114,931,1244,1924,1323,1445,1337
397558,105748,70492,137156,137156,941,1852,547,-10445,-1703,3008,572,2968,95,68,854,968,1114,931,1244,1924,1323,1445,1337
398559,106256,71020,137624,137624,515,1251,277,-9837,-1853,424,-14,1407,107,73,843,968,1114,931,1244,1924,1323,1445,1337
399560,106768,71508,138092,138092,489,1500,-34,-9110,-2212,1632,358,3370,104,69,860,968,1114,931,1244,1924,1323,1445,1337
400561,107280,71992,138560,138560,488,1525,-188,-8756,-2560,5295,-860,1314,109,68,856,968,1114,931,1244,1924,1323,1445,1337
401562,107724,72468,139028,139028,914,1575,-264,-8195,-2486,3180,-1639,5222,100,73,856,934,1060,924,1246,1896,1346,1448,1332
402563,108176,73096,139496,139496,864,621,-286,-7647,-2290,980,-3103,5179,89,85,852,934,1060,924,1246,1896,1346,1448,1332
403564,108588,73676,139964,139964,1116,918,-311,-7258,-2012,1045,-3441,5954,100,71,866,934,1060,924,1246,1896,1346,1448,1332
404565,109028,74376,140432,140432,941,162,-202,-6706,-1474,-460,-900,6888,98,72,858,934,1060,924,1246,1896,1346,1448,1332
405566,109408,75240,140900,140900,1318,-872,-359,-5842,-1007,-705,-643,7171,73,86,868,934,1060,924,1246,1896,1346,1448,1332
406567,109752,75932,141368,141368,1546,197,-587,-5308,-710,1781,-1060,3175,73,89,851,951,1065,954,1366,2133,1518,1620,1404
407568,110108,76620,141836,141836,1474,217,-742,-5317,-178,1343,-2266,591,59,75,858,951,1065,954,1366,2133,1518,1620,1404
408569,110440,77240,142304,142304,1627,638,-1044,-5603,109,3337,-1794,1966,75,76,860,951,1065,954,1366,2133,1518,1620,1404
409570,110764,77740,142772,142772,1681,1387,-1640,-5273,147,1434,-1395,4289,66,71,853,951,1065,954,1366,2133,1518,1620,1404
410571,111060,78308,143240,143240,1860,960,-2295,-4359,20,1178,-2146,3894,55,83,837,951,1065,954,1366,2133,1518,1620,1404
411572,111316,78804,143708,143708,2115,1409,-2606,-3469,38,1029,-2357,3666,43,85,842,951,1065,954,1366,2133,1518,1620,1404
412573,111536,79444,144176,144176,2346,505,-2790,-2815,156,3048,-1997,3950,42,89,830,1080,1202,1044,1558,2454,1658,1789,1537
413574,111772,80008,144644,144644,2252,978,-2951,-2091,292,1405,-2648,5187,43,85,834,1080,1202,1044,1558,2454,1658,1789,1537
414575,111984,80560,145112,145112,2408,1050,-2998,-1570,345,-489,-2578,5073,30,84,832,1080,1202,1044,1558,2454,1658,1789,1537
415576,112192,81056,145580,145580,2440,1400,-2950,-1169,363,-942,-3077,5371,21,97,825,1080,1202,1044,1558,2454,1658,1789,1537
416577,112396,81716,146048,146048,2471,370,-2779,-621,392,1056,-3651,6102,10,96,823,1080,1202,1044,1558,2454,1658,1789,1537
417578,112576,82344,146516,146516,2628,566,-2437,-275,549,2368,-4561,5871,7,92,832,1017,1139,993,1413,2618,1658,1729,1495
418579,112744,82908,146984,146984,2710,964,-2190,210,754,1812,-4160,8264,15,104,827,1017,1139,993,1413,2618,1658,1729,1495
419580,112904,83504,147456,147456,2768,761,-2073,838,969,1367,-4491,8378,-6,114,821,1017,1139,993,1413,2618,1658,1729,1495
420581,113072,84136,147924,147924,2725,532,-2059,1510,1170,2597,-3126,7740,-19,102,820,1017,1139,993,1413,2618,1658,1729,1495
421582,113232,84868,148392,148392,2783,-100,-2104,2090,1423,3007,-2650,6939,-25,117,822,1017,1139,993,1413,2618,1658,1729,1495
422583,113408,85476,148860,148860,2690,672,-2325,2644,1653,3604,-1321,6914,-5,101,823,1017,1139,993,1413,2618,1658,1729,1495
423584,113588,86048,149328,149328,2672,894,-2711,3176,1802,3805,-1160,6594,-21,120,823,987,1126,970,1417,1864,1312,1423,1227
424585,113756,86652,149796,149796,2754,691,-3097,3739,1841,3392,9,6164,-4,121,821,987,1126,970,1417,1864,1312,1423,1227
425586,113944,87284,150264,150264,2636,512,-3345,4261,1878,2655,-1081,5222,-8,116,817,987,1126,970,1417,1864,1312,1423,1227
426587,114148,87904,150732,150732,2543,583,-3453,4634,1978,2970,-1299,5467,-13,118,825,987,1126,970,1417,1864,1312,1423,1227
427590,114316,88476,151200,151200,2775,881,-3479,4803,2109,2523,-2286,5572,2,120,824,987,1126,970,1417,1864,1312,1423,1227
428589,114456,89068,151668,151668,2958,753,-3489,5048,2171,2429,-2228,4914,-1,119,818,1108,1246,1033,1523,1766,1311,1471,1315
429590,114640,89676,152136,152136,2690,649,-3316,5266,2195,2400,-2578,4716,-17,109,815,1108,1246,1033,1523,1766,1311,1471,1315
430591,114836,90320,152604,152604,2622,420,-3160,5588,2115,2682,-2445,4042,-37,115,825,1108,1246,1033,1523,1766,1311,1471,1315
431592,115064,90884,153072,153072,2427,918,-2894,5855,2011,2475,-2319,3787,-3,115,829,1108,1246,1033,1523,1766,1311,1471,1315
432593,115288,91484,153540,153540,2458,690,-2554,6112,1877,3384,-2277,3309,7,121,827,1108,1246,1033,1523,1766,1311,1471,1315
433594,115468,91980,154008,154008,2740,1339,-2091,6191,1785,2373,-2215,3485,18,102,830,1108,1246,1033,1523,1766,1311,1471,1315
434595,115664,92588,154476,154476,2647,635,-1736,6350,1657,2235,-2485,3903,11,117,813,1089,1241,1038,1455,2075,1426,1607,1457
435596,115836,93144,154944,154944,2804,958,-1417,6492,1561,2044,-1632,4445,-3,99,824,1089,1241,1038,1455,2075,1426,1607,1457
436597,116044,93704,155412,155412,2586,931,-1166,6588,1466,2170,-1338,3271,9,109,814,1089,1241,1038,1455,2075,1426,1607,1457
437598,116248,94244,155880,155880,2617,1054,-990,6648,1328,1675,590,3208,-15,109,823,1089,1241,1038,1455,2075,1426,1607,1457
438599,116456,94776,156348,156348,2598,1103,-829,6643,1231,2419,425,4330,13,118,820,1089,1241,1038,1455,2075,1426,1607,1457
439600,116656,95340,156816,156816,2655,900,-845,6726,1098,2948,1609,3427,1,112,822,1055,1217,988,1387,1771,1242,1419,1280
440601,116832,95888,157284,157284,2812,998,-780,6781,1018,2633,1602,4768,15,116,820,1055,1217,988,1387,1771,1242,1419,1280
441602,117044,96396,157752,157752,2593,1247,-776,6901,935,2543,286,3581,-8,109,817,1055,1217,988,1387,1771,1242,1419,1280
442603,117252,96908,158220,158220,2625,1221,-656,6807,870,2136,1404,3541,-6,99,821,1055,1217,988,1387,1771,1242,1419,1280
443604,117452,97440,158688,158688,2681,1095,-522,6812,769,3212,1209,4738,13,116,820,1055,1217,988,1387,1771,1242,1419,1280
444605,117672,98012,159156,159156,2562,842,-403,6853,712,3383,1155,4102,4,113,817,1055,1217,988,1387,1771,1242,1419,1280
445606,117892,98504,159624,159624,2568,1342,-208,7074,720,2095,-553,5225,4,115,826,1047,1219,966,1358,1549,1147,1320,1241
446607,118116,98980,160092,160092,2549,1441,196,6958,646,1605,-1903,2529,31,115,819,1047,1219,966,1358,1549,1147,1320,1241
447608,118376,99528,160560,160560,2329,990,628,6959,441,1848,-830,3715,34,119,820,1047,1219,966,1358,1549,1147,1320,1241
448609,118624,100180,161028,161028,2410,335,1002,6802,204,3795,-201,2727,21,117,832,1047,1219,966,1358,1549,1147,1320,1241
449610,118912,100728,161496,161496,2164,983,1297,6517,44,3566,-747,2355,41,114,836,1047,1219,966,1358,1549,1147,1320,1241
450611,119188,101292,161964,161964,2244,881,1481,6211,-162,2859,-1396,2588,43,137,838,1055,1238,1004,1376,1632,1196,1369,1306
451612,119464,101884,162432,162432,2249,703,1688,6305,-419,2479,268,2488,47,126,836,1055,1238,1004,1376,1632,1196,1369,1306
452613,119804,102484,162900,162900,1852,650,1935,6528,-623,3268,-1234,2306,60,131,838,1055,1238,1004,1376,1632,1196,1369,1306
453614,120124,103100,163368,163368,1980,546,2186,6497,-866,2171,236,1463,61,132,845,1055,1238,1004,1376,1632,1196,1369,1306
454615,120420,103724,163840,163840,2135,492,2401,6099,-1187,1789,1241,1538,65,124,845,1055,1238,1004,1376,1632,1196,1369,1306
455616,120744,104352,164308,164308,1963,463,2508,5708,-1352,1727,259,515,59,119,844,1088,1273,1016,1400,1707,1237,1434,1348
456617,121088,105012,164776,164776,1841,259,2577,5367,-1475,1859,2032,108,58,112,849,1088,1273,1016,1400,1707,1237,1434,1348
457618,121428,105624,165244,165244,1869,555,2745,5330,-1667,865,3336,1037,64,124,852,1088,1273,1016,1400,1707,1237,1434,1348
458619,121820,106264,165712,165712,1546,376,2852,5092,-1828,1590,1405,51,66,115,849,1088,1273,1016,1400,1707,1237,1434,1348
459620,122184,106860,166180,166180,1724,648,2966,4863,-1907,1194,3064,772,77,118,857,1088,1273,1016,1400,1707,1237,1434,1348
460621,122540,107532,166648,166648,1776,168,3225,4471,-1950,1402,2077,-47,76,125,852,1088,1273,1016,1400,1707,1237,1434,1348
461622,122900,108168,167116,167116,1754,389,3431,4227,-2112,1413,2215,812,83,112,852,1029,1204,953,1298,1750,1240,1433,1369
462623,123276,108956,167584,167584,1656,-569,3660,3922,-2253,913,1427,-17,84,114,852,1029,1204,953,1298,1750,1240,1433,1369
463624,123684,109708,168052,168052,1458,-351,3811,3858,-2355,2412,1408,1949,70,124,851,1029,1204,953,1298,1750,1240,1433,1369
464625,124076,110348,168520,168520,1560,345,3954,3782,-2435,2508,1187,969,82,110,857,1029,1204,953,1298,1750,1240,1433,1369
465626,124456,111020,168988,168988,1637,140,4119,3726,-2575,1985,470,708,66,113,857,1029,1204,953,1298,1750,1240,1433,1369
466627,124836,111636,169456,169456,1639,486,4348,3663,-2743,1869,1058,955,84,105,858,947,1124,908,1196,1665,1174,1332,1301
467628,125268,112360,169924,169924,1315,-195,4555,3463,-2911,2955,727,227,88,127,856,947,1124,908,1196,1665,1174,1332,1301
468629,125704,113016,170392,170392,1291,225,4630,3389,-3093,2108,1244,1223,86,100,862,947,1124,908,1196,1665,1174,1332,1301
469630,126092,113688,170860,170860,1592,120,4694,3097,-3297,1393,1271,-91,72,106,863,947,1124,908,1196,1665,1174,1332,1301
470631,126512,114320,171328,171328,1394,366,4682,2972,-3417,935,487,428,74,112,858,947,1124,908,1196,1665,1174,1332,1301
471632,126952,114992,171796,171796,1269,111,4697,2792,-3536,1925,234,-1131,87,118,861,947,1124,908,1196,1665,1174,1332,1301
472633,127356,115588,172264,172264,1496,583,4707,2573,-3707,1573,1232,-664,96,107,865,960,1131,929,1226,1578,1148,1298,1261
473634,127812,116160,172732,172732,1171,731,4721,2134,-3882,433,-432,-2968,88,122,857,960,1131,929,1226,1578,1148,1298,1261
474635,128280,116764,173200,173200,1096,527,4681,1746,-4080,456,502,-927,82,113,861,960,1131,929,1226,1578,1148,1298,1261
475636,128732,117372,173668,173668,1197,499,4639,1334,-4211,696,745,-1779,89,114,864,960,1131,929,1226,1578,1148,1298,1261
476637,129200,118028,174136,174136,1097,194,4599,968,-4270,1206,1072,-1131,97,109,864,960,1131,929,1226,1578,1148,1298,1261
477638,129616,118600,174604,174604,1423,717,4599,748,-4331,614,1254,-1119,87,125,867,981,1145,931,1239,1698,1222,1407,1386
478639,130060,119192,175072,175072,1248,589,4659,461,-4375,1032,2021,-2713,99,111,855,981,1145,931,1239,1698,1222,1407,1386
479640,130564,119724,175540,175540,873,962,4584,418,-4428,1640,2087,-910,88,118,861,981,1145,931,1239,1698,1222,1407,1386
480641,131028,120356,176008,176008,1123,333,4529,203,-4490,1655,2216,-2017,84,125,864,981,1145,931,1239,1698,1222,1407,1386
481642,131456,120876,176476,176476,1349,1032,4392,72,-4514,2124,2138,-1310,95,124,866,981,1145,931,1239,1698,1222,1407,1386
482643,131932,121444,176944,176944,1048,729,4315,-162,-4510,1891,1621,-62,99,120,855,981,1145,931,1239,1698,1222,1407,1386
483644,132412,122020,177412,177412,1023,677,4140,-289,-4526,996,1617,-666,100,109,864,933,1103,894,1170,1890,1301,1497,1487
484645,132924,122532,177880,177880,822,1076,4143,-423,-4584,1130,1143,-205,101,122,864,933,1103,894,1170,1890,1301,1497,1487
485646,133400,123124,178348,178348,1047,573,4068,-563,-4621,1168,1397,-367,96,123,862,933,1103,894,1170,1890,1301,1497,1487
486647,133852,123636,178816,178816,1197,1072,3990,-750,-4673,1199,1003,-1314,115,105,865,933,1103,894,1170,1890,1301,1497,1487
487648,134324,124188,179284,179284,1072,820,3829,-865,-4727,1178,758,298,97,120,859,933,1103,894,1170,1890,1301,1497,1487
488649,134796,124712,179752,179752,1072,993,3592,-1038,-4757,1064,1030,-1668,92,111,862,884,1048,876,1134,1972,1320,1480,1456
489650,135284,125204,180224,180224,972,1193,3293,-1391,-4947,3611,-1045,-1492,100,125,861,884,1048,876,1134,1972,1320,1480,1456
490651,135828,125692,180692,180692,620,1217,3181,-990,-5009,-82,1862,2372,113,128,859,884,1048,876,1134,1972,1320,1480,1456
491652,136396,126100,181160,181160,467,1719,3294,-342,-5659,4260,6723,4478,109,119,862,884,1048,876,1134,1972,1320,1480,1456
492653,136880,126496,181628,181628,992,1795,3001,-294,-5638,2190,-4643,704,107,110,856,884,1048,876,1134,1972,1320,1480,1456
493654,137364,126840,182096,182096,992,2124,2688,-54,-4965,765,-6636,6529,121,111,850,884,1048,876,1134,1972,1320,1480,1456
494655,137848,127276,182564,182564,991,1549,1836,-797,-4131,-2446,-3598,-738,124,113,842,888,1040,893,1185,1931,1344,1480,1425
495656,138416,127692,183032,183032,464,1676,1165,-1929,-3925,-5468,4150,3593,116,90,850,888,1040,893,1185,1931,1344,1480,1425
496657,138892,128084,183500,183500,1039,1827,621,-1933,-4248,-2300,-736,4715,103,100,856,888,1040,893,1185,1931,1344,1480,1425
497658,139376,128456,183968,183968,988,1955,146,-1558,-4090,-45,-1843,2171,116,111,847,888,1040,893,1185,1931,1344,1480,1425
498659,139828,128788,184436,184436,1189,2208,-121,-1302,-3564,-1858,-225,2131,102,90,844,888,1040,893,1185,1931,1344,1480,1425
499660,140308,129168,184904,184904,1013,1910,-313,-1824,-3581,-2522,-1205,1566,94,77,836,943,1085,945,1285,2491,1636,1862,1813
500661,140788,129528,185372,185372,1013,2038,-531,-1905,-3815,-896,858,5393,89,70,843,943,1085,945,1285,2491,1636,1862,1813
501662,141256,129828,185840,185840,1088,2417,-1033,-1625,-3803,2081,-637,4969,102,89,839,943,1085,945,1285,2491,1636,1862,1813
502663,141724,130148,186308,186308,1088,2296,-1492,-1358,-3708,1706,1402,4069,103,84,831,943,1085,945,1285,2491,1636,1862,1813
503664,142192,130508,186776,186776,1088,2048,-1819,-1411,-3741,1167,1697,4629,102,61,833,943,1085,945,1285,2491,1636,1862,1813
504665,142608,130844,187244,187244,1414,2201,-2059,-1384,-4049,994,1248,3471,99,65,838,943,1085,945,1285,2491,1636,1862,1813
505666,143064,131148,187712,187712,1165,2405,-2394,-1434,-4248,855,3036,4722,93,56,832,956,1114,967,1294,3083,1843,2117,2025
506667,143536,131448,188180,188180,1064,2435,-2857,-1316,-4248,2137,2267,4293,85,56,830,956,1114,967,1294,3083,1843,2117,2025
507668,143948,131744,188648,188648,1441,2464,-3349,-1232,-4310,566,-179,5184,86,51,828,956,1114,967,1294,3083,1843,2117,2025
508669,144396,132092,189116,189116,1216,2142,-3796,-1294,-4345,-1950,143,6911,78,44,821,956,1114,967,1294,3083,1843,2117,2025
509670,144844,132376,189584,189584,1217,2546,-4181,-1026,-4134,835,1614,7952,91,41,832,956,1114,967,1294,3083,1843,2117,2025
510671,145280,132652,190052,190052,1293,2601,-4590,-746,-3957,1350,1211,6831,85,36,823,949,1121,957,1268,2654,1650,1838,1783
511672,145716,132968,190520,190520,1293,2355,-4912,-848,-3830,-1184,604,7600,84,14,820,949,1121,957,1268,2654,1650,1838,1783
512673,146144,133284,190988,190988,1344,2358,-5373,-1215,-3677,-2613,-319,7695,86,14,819,949,1121,957,1268,2654,1650,1838,1783
513674,146552,133548,191456,191456,1471,2688,-5756,-1517,-3483,-1437,513,7988,76,32,824,949,1121,957,1268,2654,1650,1838,1783
514675,146956,133808,191924,191924,1497,2718,-6166,-1105,-3370,1034,-1713,8251,86,22,812,949,1121,957,1268,2654,1650,1838,1783
515676,147344,134072,192392,192392,1599,2698,-6370,-638,-3290,599,-699,8467,77,9,809,949,1121,957,1268,2654,1650,1838,1783
516677,147780,134360,192860,192860,1300,2553,-6648,-316,-3200,-701,-918,9745,80,0,809,935,1106,955,1273,2255,1487,1654,1600
517678,148176,134648,193328,193328,1552,2557,-6986,-238,-3243,-333,-420,9154,69,3,814,935,1106,955,1273,2255,1487,1654,1600
518679,148536,134912,193796,193796,1779,2712,-7295,-106,-3271,-876,-170,8557,66,3,813,935,1106,955,1273,2255,1487,1654,1600
519680,148916,135128,194264,194264,1657,3018,-7408,-35,-3444,-144,1454,8138,77,-7,805,935,1106,955,1273,2255,1487,1654,1600
520681,149292,135352,194732,194732,1684,2974,-7348,-173,-3644,-457,1904,8684,60,-26,799,935,1106,955,1273,2255,1487,1654,1600
521682,149720,135552,195200,195200,1360,3131,-7211,-467,-3730,-2161,1206,9577,84,-55,799,1031,1195,1037,1447,2347,1571,1764,1609
522683,150136,135816,195668,195668,1436,2736,-6958,-876,-3862,-2519,1899,8710,72,-48,800,1031,1195,1037,1447,2347,1571,1764,1609
523684,150524,136032,196136,196136,1613,3042,-6517,-1275,-3985,-2956,2604,8855,69,-88,801,1031,1195,1037,1447,2347,1571,1764,1609
524685,150900,136264,196608,196608,1690,2948,-6050,-1674,-4182,-781,3755,9175,68,-26,796,1031,1195,1037,1447,2347,1571,1764,1609
525686,151272,136500,197076,197076,1718,2928,-5740,-1758,-4319,-966,3937,9176,72,-62,799,1031,1195,1037,1447,2347,1571,1764,1609
526687,151676,136752,197544,197544,1519,2834,-5536,-1759,-4381,-326,4781,8411,88,-38,800,1031,1195,1037,1447,2347,1571,1764,1609
527688,152188,136960,198012,198012,843,3115,-5409,-1758,-4298,-340,4320,7195,91,-40,804,1181,1369,1122,1670,2059,1433,1674,1481
528689,152632,137156,198480,198480,1269,3197,-5298,-1633,-4195,824,5068,7875,97,-40,804,1181,1369,1122,1670,2059,1433,1674,1481
529690,153096,137364,198948,198948,1144,3128,-5195,-1368,-4072,1135,4014,7804,104,-84,787,1181,1369,1122,1670,2059,1433,1674,1481
530691,153564,137580,199416,199416,1119,3084,-5004,-1202,-3871,155,4360,7700,99,-87,802,1181,1369,1122,1670,2059,1433,1674,1481
531692,154032,137860,199884,199884,1119,2689,-4716,-988,-3585,-52,3422,8315,97,-73,797,1181,1369,1122,1670,2059,1433,1674,1481
532693,154584,138132,200352,200352,592,2744,-4535,-1031,-3229,-1064,1976,7628,108,-66,817,1387,1613,1197,1742,1670,1226,1440,1325
533694,155052,138412,200820,200820,1117,2698,-4168,-1114,-2950,-2666,1962,7659,100,-11,821,1387,1613,1197,1742,1670,1226,1440,1325
534695,155544,138676,201288,201288,966,2803,-3752,-1254,-2734,-2112,705,7089,98,-31,817,1387,1613,1197,1742,1670,1226,1440,1325
535696,156040,138952,201756,201756,941,2733,-3218,-1294,-2582,-2371,-66,7735,99,-26,815,1387,1613,1197,1742,1670,1226,1440,1325
536697,156560,139228,202224,202224,789,2737,-2555,-1385,-2448,-3160,171,8010,95,-29,816,1387,1613,1197,1742,1670,1226,1440,1325
537698,157136,139484,202692,202692,437,2868,-2055,-1819,-2322,-3133,-411,7431,90,-14,818,1387,1613,1197,1742,1670,1226,1440,1325
538699,157652,139748,203160,203160,811,2823,-1530,-2321,-2276,-3309,943,6576,100,-22,815,1241,1408,1092,1487,1590,1163,1316,1224
539700,158168,140116,203628,203628,809,2175,-1170,-2871,-2297,-2534,1715,6552,110,-26,816,1241,1408,1092,1487,1590,1163,1316,1224
540701,158692,140520,204096,204096,758,1952,-821,-3103,-2358,-2487,1782,5251,98,-19,833,1241,1408,1092,1487,1590,1163,1316,1224
541702,159256,140880,204564,204564,506,2229,-667,-3281,-2277,-1166,2110,5542,88,17,840,1241,1408,1092,1487,1590,1163,1316,1224
542703,159836,141164,205032,205032,403,2709,-947,-3136,-1806,2412,96,6972,97,21,835,1241,1408,1092,1487,1590,1163,1316,1224
543704,160372,141496,205500,205500,676,2412,-1513,-3362,-1520,4538,9798,10705,111,16,827,1087,1238,990,1342,1635,1176,1373,1302
544705,160896,141932,205968,205968,750,1763,-1584,-3390,-1973,2475,4175,4906,100,-7,833,1087,1238,990,1342,1635,1176,1373,1302
545706,161468,142412,206436,206436,447,1488,-945,-3099,-2357,234,2732,-851,106,22,845,1087,1238,990,1342,1635,1176,1373,1302
546707,162072,142876,206904,206904,244,1588,2,-3268,-2036,-4870,3474,-709,105,56,853,1087,1238,990,1342,1635,1176,1373,1302
547708,162644,143288,207372,207372,441,1914,274,-3282,-1896,-460,-500,2695,117,54,855,1087,1238,990,1342,1635,1176,1373,1302
548709,163236,143672,207840,207840,313,2091,352,-3555,-1621,-1391,1697,817,100,51,847,1087,1238,990,1342,1635,1176,1373,1302
549710,163788,144164,208308,208308,561,1416,545,-3840,-1250,-1061,-515,-1562,99,50,846,1043,1197,974,1333,1902,1345,1561,1486
550711,164336,144608,208776,208776,584,1716,841,-3781,-825,-1849,-93,-3195,110,63,855,1043,1197,974,1333,1902,1345,1561,1486
551712,164892,145080,209244,209244,532,1541,1016,-3897,-353,-1763,-58,-2569,108,69,851,1043,1197,974,1333,1902,1345,1561,1486
552713,165456,145616,209712,209712,480,1139,899,-4076,-66,-19,-197,-693,117,73,853,1043,1197,974,1333,1902,1345,1561,1486
553714,166048,146124,210180,210180,302,1313,692,-3782,18,867,68,754,104,78,862,1043,1197,974,1333,1902,1345,1561,1486
554715,166604,146600,210648,210648,525,1513,770,-3573,197,-917,747,496,121,81,860,1020,1184,967,1303,1838,1266,1404,1290
555716,167144,147048,211116,211116,623,1689,943,-3487,280,-931,1050,870,121,82,857,1020,1184,967,1303,1838,1266,1404,1290
556717,167660,147556,211584,211584,772,1313,1098,-3575,100,-126,1454,946,104,86,851,1020,1184,967,1303,1838,1266,1404,1290
557718,168184,148116,212052,212052,720,985,1208,-3738,-27,-1035,770,964,116,85,857,1020,1184,967,1303,1838,1266,1404,1290
558719,168696,148708,212520,212520,794,782,1324,-3813,-255,110,-107,186,124,92,862,1020,1184,967,1303,1838,1266,1404,1290
559720,169308,149280,212992,212992,166,905,1460,-3955,-487,-3528,1986,1516,109,97,866,1020,1184,967,1303,1838,1266,1404,1290
560721,169848,149872,213460,213460,614,777,1552,-4142,-705,-2449,1076,2941,119,98,869,959,1080,910,1234,1587,1151,1251,1149
561722,170396,150308,213928,213928,562,1753,1532,-4259,-816,784,1949,1625,129,92,868,959,1080,910,1234,1587,1151,1251,1149
562723,170924,150916,214396,214396,686,674,1524,-4533,-673,34,1847,1158,129,91,853,959,1080,910,1234,1587,1151,1251,1149
563724,171448,151500,214864,214864,709,821,1518,-4838,-465,-472,1119,2160,105,96,865,959,1080,910,1234,1587,1151,1251,1149
564725,172072,152088,215332,215332,81,794,1385,-4493,-562,3170,-238,295,115,111,867,959,1080,910,1234,1587,1151,1251,1149
565726,172644,152652,215800,215800,403,941,1496,-4300,-511,1304,-305,-751,117,113,871,967,1099,928,1278,1634,1207,1367,1321
566727,173144,153184,216268,216268,852,1140,1828,-4178,-73,-422,-2844,-991,119,115,867,967,1099,928,1278,1634,1207,1367,1321
567728,173704,153780,216736,216736,475,737,1982,-3739,282,3465,-2050,627,119,105,861,967,1099,928,1278,1634,1207,1367,1321
568729,174260,154304,217204,217204,498,1185,1890,-3205,515,3215,1983,25,127,124,869,967,1099,928,1278,1634,1207,1367,1321
569730,174844,154892,217672,217672,320,782,1649,-2852,583,2968,1644,-132,111,103,864,967,1099,928,1278,1634,1207,1367,1321
570731,175328,155456,218140,218140,945,930,1343,-2850,914,-354,480,-2370,116,112,871,967,1099,928,1278,1634,1207,1367,1321
571732,175836,155988,218608,218608,794,1128,885,-2568,1186,772,1014,-79,105,128,863,1036,1209,978,1354,1888,1344,1552,1461
572733,176336,156524,219076,219076,843,1102,379,-2023,1217,2727,1366,1407,100,120,862,1036,1209,978,1354,1888,1344,1552,1461
573734,176780,157000,219544,219544,1194,1476,27,-1774,1163,2443,-2140,-1026,111,112,861,1036,1209,978,1354,1888,1344,1552,1461
574735,177200,157568,220012,220012,1345,899,-141,-1729,965,-355,-2584,2831,98,126,850,1036,1209,978,1354,1888,1344,1552,1461
575736,177656,158120,220480,220480,1120,997,-243,-1906,780,512,-1677,3407,77,122,855,1036,1209,978,1354,1888,1344,1552,1461
576737,178024,158692,220948,220948,1672,869,-232,-1551,804,1810,-2489,4968,87,106,858,958,1091,917,1228,2364,1531,1648,1526
577738,178368,159324,221416,221416,1825,490,-96,-1164,774,1420,-3659,5214,75,116,851,958,1091,917,1228,2364,1531,1648,1526
578739,178676,159840,221884,221884,2054,1214,21,-610,677,-1834,-3249,4462,67,114,850,958,1091,917,1228,2364,1531,1648,1526
579740,178948,160388,222352,222352,2284,1012,213,-274,560,210,-2705,5165,56,98,836,958,1091,917,1228,2364,1531,1648,1526
580741,179224,160896,222820,222820,2264,1261,202,-116,676,486,-2767,4215,40,96,830,958,1091,917,1228,2364,1531,1648,1526
581742,179472,161464,223288,223288,2444,884,41,111,906,-540,-1399,6410,45,113,828,958,1091,917,1228,2364,1531,1648,1526
582743,179704,161924,223756,223756,2550,1559,-284,631,1049,-452,-1058,6671,32,115,828,867,992,889,1248,2304,1520,1586,1382
583744,179888,162436,224224,224224,2857,1233,-581,1082,1200,1112,-14,5754,17,113,815,867,992,889,1248,2304,1520,1586,1382
584745,180076,162984,224692,224692,2839,1006,-933,1532,1472,2547,-260,6611,17,109,814,867,992,889,1248,2304,1520,1586,1382
585746,180276,163492,225160,225160,2770,1255,-1318,1999,1817,2204,361,6180,-16,121,816,867,992,889,1248,2304,1520,1586,1382
586747,180456,164088,225628,225628,2902,702,-1714,2332,2072,1768,-171,5941,-23,112,816,867,992,889,1248,2304,1520,1586,1382
587748,180656,164692,226096,226096,2784,649,-2037,2536,2301,1657,31,5810,-11,111,818,1034,1167,1023,1554,2088,1509,1639,1415
588749,180844,165252,226564,226564,2866,921,-2285,2729,2555,3015,-485,5384,-22,135,820,1034,1167,1023,1554,2088,1509,1639,1415
589750,181016,165856,227032,227032,2973,643,-2451,2829,2762,3021,-1121,5479,-4,118,815,1034,1167,1023,1554,2088,1509,1639,1415
590751,181200,166448,227500,227500,2905,715,-2529,3049,2775,3670,-1086,6145,-15,120,813,1034,1167,1023,1554,2088,1509,1639,1415
591752,181348,167048,227968,227968,3138,662,-2589,3582,2806,4002,-1055,6999,-39,123,815,1034,1167,1023,1554,2088,1509,1639,1415
592753,181524,167624,228436,228436,2970,809,-2649,4171,2850,4147,-2092,6291,-27,122,807,1034,1167,1023,1554,2088,1509,1639,1415
593754,181676,168156,228904,228904,3128,1083,-2616,4545,2815,3479,-2206,6807,-69,108,811,1187,1322,1129,1626,2372,1615,1775,1598
594755,181848,168720,229376,229376,3010,880,-2462,4764,2707,3509,-1628,7161,-36,113,804,1187,1322,1129,1626,2372,1615,1775,1598
595756,182036,169344,229844,229844,2917,502,-2236,4857,2620,4057,-1925,8124,-74,108,808,1187,1322,1129,1626,2372,1615,1775,1598
596757,182204,169884,230312,230312,3049,1025,-1977,4894,2629,3310,-929,8575,-57,100,817,1187,1322,1129,1626,2372,1615,1775,1598
597758,182360,170476,230780,230780,3132,697,-1805,4956,2644,1780,-895,9443,-41,99,806,1187,1322,1129,1626,2372,1615,1775,1598
598759,182512,171000,231248,231248,3164,1120,-1707,5045,2739,1313,-306,9277,-62,97,809,1089,1247,1031,1422,2213,1435,1615,1467
599760,182664,171544,231716,231716,3172,994,-1691,5202,2847,2407,889,9715,-114,96,804,1089,1247,1031,1422,2213,1435,1615,1467
600761,182844,172144,232184,232184,3004,640,-1715,5536,2946,2191,2309,9762,-120,107,804,1089,1247,1031,1422,2213,1435,1615,1467
601762,183036,172748,232652,232652,2936,612,-1799,5987,3069,3127,2114,9619,-96,92,812,1089,1247,1031,1422,2213,1435,1615,1467
602763,183244,173332,233120,233120,2842,734,-1864,6162,3218,2026,2303,8490,-30,119,816,1089,1247,1031,1422,2213,1435,1615,1467
603764,183448,173916,233588,233588,2874,731,-1981,6278,3334,2226,2304,9253,-26,100,817,1089,1247,1031,1422,2213,1435,1615,1467
604765,183652,174572,234056,234056,2880,277,-2095,6232,3484,3190,1833,7628,-10,107,817,1049,1237,976,1384,1864,1294,1504,1379
605766,183896,175296,234524,234524,2636,-155,-2119,6370,3610,3279,1321,7693,-4,121,821,1049,1237,976,1384,1864,1294,1504,1379
606767,184156,175968,234992,234992,2541,166,-1991,6513,3612,3332,520,6370,4,117,830,1049,1237,976,1384,1864,1294,1504,1379
607768,184400,176608,235460,235460,2646,361,-1838,6620,3529,3695,151,6089,20,114,833,1049,1237,976,1384,1864,1294,1504,1379
608769,184688,177256,235928,235928,2375,307,-1632,6569,3467,3720,-796,5595,31,105,832,1049,1237,976,1384,1864,1294,1504,1379
609770,184964,177940,236396,236396,2455,77,-1308,6427,3362,3047,-431,3800,34,107,837,1098,1278,1049,1484,1953,1392,1555,1417
610771,185256,178584,236864,236864,2359,322,-903,6293,3143,2793,-1158,5021,52,118,837,1098,1278,1049,1484,1953,1392,1555,1417
611772,185556,179220,237332,237332,2314,368,-569,6117,2892,3261,-678,4581,36,110,837,1098,1278,1049,1484,1953,1392,1555,1417
612773,185876,179868,237800,237800,2192,289,-297,6018,2627,4139,-1215,4913,51,112,838,1098,1278,1049,1484,1953,1392,1555,1417
613774,186168,180492,238268,238268,2371,435,0,5846,2437,2745,-1062,3663,42,110,842,1098,1278,1049,1484,1953,1392,1555,1417
614775,186472,181148,238736,238736,2300,230,265,5677,2262,3779,-342,3701,62,113,835,1098,1278,1049,1484,1953,1392,1555,1417
615776,186776,181752,239204,239204,2304,552,481,5463,2047,3614,1174,3085,56,103,841,1149,1304,1086,1527,1807,1297,1444,1305
616777,187084,182424,239672,239672,2283,122,510,5401,1857,3799,728,4374,54,112,838,1149,1304,1086,1527,1807,1297,1444,1305
617778,187456,183056,240140,240140,1886,368,525,5062,1793,2893,1908,2451,50,110,842,1149,1304,1086,1527,1807,1297,1444,1305
618779,187800,183716,240608,240608,2064,188,509,4883,1676,2637,3751,5243,60,113,849,1149,1304,1086,1527,1807,1297,1444,1305
619780,188160,184324,241076,241076,1966,510,542,4911,1560,2510,2492,3593,62,115,847,1149,1304,1086,1527,1807,1297,1444,1305
620781,188532,184916,241544,241544,1894,607,688,4952,1488,3466,2814,3804,78,104,847,1109,1285,999,1394,1594,1165,1361,1287
621782,188908,185500,242012,242012,1871,654,882,4943,1521,3449,1582,4023,72,120,847,1109,1285,999,1394,1594,1165,1361,1287
622783,189360,186064,242480,242480,1396,777,1019,4828,1496,2939,1425,4597,85,103,848,1109,1285,999,1394,1594,1165,1361,1287
623784,189788,186632,242948,242948,1547,749,1271,4668,1368,1606,624,4014,79,115,855,1109,1285,999,1394,1594,1165,1361,1287
624785,190220,187216,243416,243416,1523,647,1655,4591,1170,1867,-446,3277,79,117,854,1109,1285,999,1394,1594,1165,1361,1287
625786,190680,187768,243884,243884,1348,845,2077,4637,928,1619,-454,3137,86,119,857,1109,1285,999,1394,1594,1165,1361,1287
626787,191168,188400,244352,244352,1173,341,2443,4626,643,1356,-66,2909,105,116,857,995,1190,933,1253,1682,1190,1404,1366
627788,191636,188944,244820,244820,1298,889,2671,4377,374,1178,1401,1638,104,120,864,995,1190,933,1253,1682,1190,1404,1366
628789,192156,189472,245288,245288,972,987,2895,4021,181,1508,407,1457,93,122,857,995,1190,933,1253,1682,1190,1404,1366
629790,192668,189980,245760,245760,1021,1111,2879,3960,15,3489,861,866,88,132,861,995,1190,933,1253,1682,1190,1404,1366
630791,193132,190488,246228,246228,1321,1110,2905,3751,-195,3982,898,1239,110,117,859,995,1190,933,1253,1682,1190,1404,1366
631792,193640,190960,246696,246696,1045,1335,2954,3711,-509,2114,204,839,99,107,851,1007,1209,964,1297,1726,1226,1419,1376
632793,194152,191396,247164,247164,1019,1561,2994,3066,-809,1217,408,135,98,112,855,1007,1209,964,1297,1726,1226,1419,1376
633794,194728,191820,247632,247632,616,1637,3061,2222,-1096,1256,-111,606,103,119,852,1007,1209,964,1297,1726,1226,1419,1376
634795,195268,192192,248100,248100,839,1964,2992,1356,-1439,1897,440,328,104,93,854,1007,1209,964,1297,1726,1226,1419,1376
635796,195756,192544,248568,248568,1164,2092,2862,1010,-2157,5100,4874,711,101,91,846,1007,1209,964,1297,1726,1226,1419,1376
636797,196304,192808,249036,249036,787,2647,2261,1432,-1838,-1686,-2046,131,96,93,838,1007,1209,964,1297,1726,1226,1419,1376
637798,196852,193116,249504,249504,785,2376,1754,1478,-1147,-5657,-3430,1406,97,98,832,1032,1200,976,1304,1808,1286,1500,1505
638799,197412,193468,249972,249972,708,2104,1795,651,-1390,3984,-3292,725,120,74,837,1032,1200,976,1304,1808,1286,1500,1505
639800,197928,193852,250440,250440,982,1906,1838,-265,-1269,-2037,299,552,114,85,845,1032,1200,976,1304,1808,1286,1500,1505
640801,198464,194224,250908,250908,855,1983,1801,-524,-1084,-3887,149,4743,108,99,846,1032,1200,976,1304,1808,1286,1500,1505
641802,199020,194596,251376,251376,728,1986,1645,-653,-1119,76,-1934,2730,119,98,843,1032,1200,976,1304,1808,1286,1500,1505
642803,199548,194944,251844,251844,901,2139,1554,-881,-1035,-1978,-1895,2596,114,79,842,929,1090,905,1160,2181,1427,1688,1746
643804,200148,195264,252312,252312,448,2317,1607,-1382,-1040,-3478,-422,2542,123,85,841,929,1090,905,1160,2181,1427,1688,1746
644805,200684,195568,252780,252780,846,2421,1476,-1175,-1450,442,-760,7126,110,72,841,929,1090,905,1160,2181,1427,1688,1746
645806,201220,195860,253248,253248,845,2501,1294,-1691,-1515,-1811,379,1013,134,56,834,929,1090,905,1160,2181,1427,1688,1746
646807,201772,196184,253716,253716,743,2304,1041,-1887,-1609,-616,-588,4541,110,48,831,929,1090,905,1160,2181,1427,1688,1746
647808,202284,196500,254184,254184,992,2358,804,-2253,-1768,-2083,524,1254,125,36,835,929,1090,905,1160,2181,1427,1688,1746
648809,202812,196796,254652,254652,890,2487,601,-2865,-1918,-2522,3239,1915,102,51,832,909,1106,910,1177,2293,1433,1729,1717
649810,203400,197084,255120,255120,512,2541,285,-3785,-1979,-1326,2210,787,122,50,831,909,1106,910,1177,2293,1433,1729,1717
650811,203948,197428,255588,255588,760,2194,-61,-4602,-2041,-2469,1693,1252,110,40,831,909,1106,910,1177,2293,1433,1729,1717
651812,204432,197764,256056,256056,1160,2248,-426,-4909,-2041,-4102,2604,2415,116,27,835,909,1106,910,1177,2293,1433,1729,1717
652814,204984,198056,256524,256524,733,2527,-749,-4957,-1998,-2418,1067,2595,117,50,833,909,1106,910,1177,2293,1433,1729,1717
653814,205500,198340,256992,256992,957,2581,-1096,-4730,-1983,-513,-457,3191,115,28,828,993,1201,963,1265,2071,1371,1621,1636
654815,206076,198652,257460,257460,579,2410,-1343,-4679,-1939,-245,-805,3451,103,19,826,993,1201,963,1265,2071,1371,1621,1636
655816,206604,198980,257928,257928,878,2314,-1667,-4536,-1817,380,-1219,5598,116,8,833,993,1201,963,1265,2071,1371,1621,1636
656817,207172,199284,258396,258396,625,2468,-1799,-4838,-1630,-189,363,2986,109,27,833,993,1201,963,1265,2071,1371,1621,1636
657818,207720,199564,258864,258864,748,2622,-1874,-5001,-1447,-1235,-1724,3895,102,32,830,993,1201,963,1265,2071,1371,1621,1636
658819,208240,199848,259332,259332,922,2602,-1873,-5165,-1342,-1215,-1221,3319,102,14,820,993,1201,963,1265,2071,1371,1621,1636
659820,208820,200212,259800,259800,544,2104,-2040,-4958,-1183,-1167,-1378,5822,99,4,823,976,1138,960,1252,2033,1397,1564,1524
660821,209356,200524,260268,260268,817,2433,-2110,-4862,-1013,-1367,-1057,4326,109,14,836,976,1138,960,1252,2033,1397,1564,1524
661822,209924,200832,260736,260736,615,2462,-2112,-4964,-800,-2993,742,4100,111,40,830,976,1138,960,1252,2033,1397,1564,1524
662823,210480,201160,261204,261204,688,2340,-2130,-5353,-516,-4946,-139,3904,108,25,832,976,1138,960,1252,2033,1397,1564,1524
663824,211020,201500,261672,261672,786,2269,-2278,-5871,-531,-3756,2894,1217,119,14,834,976,1138,960,1252,2033,1397,1564,1524
664825,211544,201936,262144,262144,885,1669,-2435,-6757,-747,-1488,3094,2870,119,40,832,955,1086,943,1295,2004,1384,1526,1401
665826,212112,202348,262612,262612,607,1821,-2861,-6816,-646,-5284,2783,5021,100,38,842,955,1086,943,1295,2004,1384,1526,1401
666827,212636,202772,263080,263080,881,1747,-3363,-6341,-901,-2115,5790,2795,97,53,847,955,1086,943,1295,2004,1384,1526,1401
667828,213160,203208,263548,263548,880,1673,-3690,-5938,-1342,239,2959,1492,112,55,846,955,1086,943,1295,2004,1384,1526,1401
668829,213716,203716,264016,264016,678,1222,-3745,-5593,-1668,-736,2274,2946,109,63,849,955,1086,943,1295,2004,1384,1526,1401
669830,214240,204304,264484,264484,876,719,-3997,-5429,-1830,-2209,1009,3608,108,61,856,998,1142,960,1317,2131,1437,1526,1401
670831,214832,204808,264952,264952,448,1243,-4162,-5249,-1986,-848,2619,4155,100,78,864,998,1142,960,1317,2131,1437,1631,1544
671832,215344,205272,265420,265420,947,1493,-4128,-5351,-2132,225,1343,2385,110,65,861,998,1142,960,1317,2131,1437,1631,1544
672833,215928,205752,265888,265888,494,1393,-3959,-5423,-2201,176,350,2457,114,55,851,998,1142,960,1317,2131,1437,1631,1544
673834,216392,206240,266356,266356,1244,1342,-3819,-5319,-2100,-381,-123,3897,101,59,856,998,1142,960,1317,2131,1437,1631,1544
674835,216924,206656,266824,266824,818,1793,-3626,-4800,-1875,-192,-587,4017,115,63,851,998,1142,960,1317,2131,1437,1631,1544
675836,217476,207092,267292,267292,691,1669,-3471,-3908,-1670,44,-1080,4614,110,65,847,972,1129,969,1303,2142,1459,1607,1524
676837,218016,207576,267760,267760,764,1369,-3254,-3176,-1466,-618,-103,3373,121,49,851,972,1129,969,1303,2142,1459,1607,1524
677838,218532,208072,268228,268228,913,1293,-3240,-2781,-1323,-920,1128,3397,120,59,854,972,1129,969,1303,2142,1459,1607,1524
678839,219128,208576,268696,268696,410,1242,-3425,-2785,-1184,-1376,1845,2814,119,52,856,972,1129,969,1303,2142,1459,1607,1524
679840,219680,209032,269164,269164,683,1543,-3590,-2835,-1037,-1219,2041,1292,116,59,858,972,1129,969,1303,2142,1459,1607,1524
680841,220292,209492,269632,269632,304,1518,-3709,-2916,-1009,-1663,2133,-215,113,55,853,1007,1157,983,1382,1725,1267,1370,1219
681842,220864,209932,270100,270100,552,1643,-3892,-3121,-1139,-2019,3169,-624,121,68,857,1007,1157,983,1382,1725,1267,1370,1219
682843,221456,210400,270568,270568,424,1468,-4180,-3201,-1248,-1344,2035,-240,124,64,851,1007,1157,983,1382,1725,1267,1370,1219
683844,222056,210852,271036,271036,370,1569,-4724,-3058,-1024,1181,1547,1810,111,54,856,1007,1157,983,1382,1725,1267,1370,1219
684845,222672,211340,271504,271504,267,1343,-5322,-2994,-965,3407,3675,5433,115,61,855,1007,1157,983,1382,1725,1267,1370,1219
685846,223252,211696,271972,271972,489,2171,-5421,-2953,-1209,-1064,2890,1651,121,61,860,1007,1157,983,1382,1725,1267,1370,1219
686847,223924,212024,272440,272440,-91,2350,-4946,-2502,-1766,-2394,2669,1080,120,77,846,1037,1142,964,1336,1695,1241,1351,1239
687848,224540,212808,272908,272908,255,-508,-4275,-1901,-2355,-3595,351,269,124,63,843,1037,1142,964,1336,1695,1241,1351,1239
688849,225132,213412,273376,273376,402,613,-3908,-1462,-2686,-1954,-1296,875,126,63,867,1037,1142,964,1336,1695,1241,1351,1239
689850,225740,213944,273844,273844,299,1062,-3430,-1627,-2485,-741,-3489,-729,134,92,871,1037,1142,964,1336,1695,1241,1351,1239
690851,226332,214384,274312,274312,396,1638,-2838,-1929,-2096,1855,-3170,-1448,113,86,867,1037,1142,964,1336,1695,1241,1351,1239
691852,227052,214892,274780,274780,-410,1212,-2513,-2066,-2021,2455,-3027,-2420,127,108,856,958,1082,928,1260,1754,1239,1380,1294
692853,227780,215512,275248,275248,-467,508,-2770,-2306,-2188,212,-1671,-885,114,104,860,958,1082,928,1260,1754,1239,1380,1294
693854,228432,216156,275716,275716,4,354,-3552,-2453,-2315,692,1738,1727,118,92,868,958,1082,928,1260,1754,1239,1380,1294
694855,228944,216724,276184,276184,878,826,-4499,-1938,-2247,2980,3093,588,120,108,875,958,1082,928,1260,1754,1239,1380,1294
695856,229460,217304,276652,276652,852,748,-5039,-1149,-2062,3525,1188,-30,115,109,867,958,1082,928,1260,1754,1239,1380,1294
696857,230000,217880,277120,277120,700,771,-5044,-667,-1833,-58,669,-590,118,103,866,958,1082,928,1260,1754,1239,1380,1294
697858,230564,218420,277588,277588,548,994,-4836,-1009,-1795,-2928,-552,-291,114,104,865,969,1128,910,1225,1821,1283,1500,1465
698859,231224,219060,278056,278056,-57,365,-4551,-1574,-1784,-2525,-911,676,111,114,867,969,1128,910,1225,1821,1283,1500,1465
699860,231860,219604,278528,278528,89,963,-4243,-1993,-1628,-462,-1420,735,115,116,871,969,1128,910,1225,1821,1283,1500,1465
700861,232412,220160,278996,278996,612,886,-3948,-2175,-1541,411,-1,433,122,110,871,969,1128,910,1225,1821,1283,1500,1465
701862,232952,220784,279464,279464,685,457,-3731,-2276,-1642,-317,830,700,122,111,867,969,1128,910,1225,1821,1283,1500,1465
702863,233552,221352,279932,279932,307,805,-3664,-2049,-1838,1282,544,1175,117,122,870,911,1083,903,1196,2013,1336,1522,1451
703864,234124,221892,280400,280400,479,978,-3623,-1715,-1868,3033,-752,-915,132,115,870,911,1083,903,1196,2013,1336,1522,1451
704865,234668,222444,280868,280868,652,901,-3593,-1291,-1935,4179,-408,1423,128,115,867,911,1083,903,1196,2013,1336,1522,1451
705866,235236,223048,281336,281336,500,573,-3627,-1223,-2072,2602,-266,-283,113,108,866,911,1083,903,1196,2013,1336,1522,1451
706867,235776,223608,281804,281804,673,845,-3696,-1339,-2270,1586,-96,905,131,105,870,911,1083,903,1196,2013,1336,1522,1451
707868,236356,224128,282272,282272,420,1094,-3727,-1494,-2366,1535,-1781,-425,114,117,868,911,1083,903,1196,2013,1336,1522,1451
708869,236924,224708,282740,282740,493,716,-3672,-1188,-2292,-59,-1414,1826,116,121,866,999,1159,964,1327,1676,1203,1329,1203
709870,237476,225268,283208,283208,591,839,-3559,-1337,-2288,-2308,-6,483,132,125,869,999,1159,964,1327,1676,1203,1329,1203
710871,238012,225816,283676,283676,689,912,-3389,-1553,-2398,-2198,-1693,2460,122,113,868,999,1159,964,1327,1676,1203,1329,1203
711872,238524,226328,284144,284144,838,1136,-3188,-1757,-2300,-2001,-3491,2032,116,107,866,999,1159,964,1327,1676,1203,1329,1203
712873,239084,226844,284612,284612,536,1110,-2855,-1806,-2044,-2253,-2129,4644,96,122,862,999,1159,964,1327,1676,1203,1329,1203
713874,239540,227364,285080,285080,1186,1084,-2510,-1715,-1865,-848,-3073,5424,95,114,864,1056,1182,981,1409,1558,1170,1315,1183
714875,239980,227904,285548,285548,1287,957,-2228,-1248,-1600,865,-3519,7111,98,100,859,1056,1182,981,1409,1558,1170,1315,1183
715876,240360,228408,286016,286016,1664,1181,-1953,-1179,-1180,1163,-2848,6931,71,104,856,1056,1182,981,1409,1558,1170,1315,1183
716877,240724,228868,286484,286484,1767,1456,-1779,-806,-909,2223,-4182,9646,61,103,845,1056,1182,981,1409,1558,1170,1315,1183
717878,241076,229280,286952,286952,1845,1758,-1410,-68,-983,406,-3505,10117,69,99,839,1056,1182,981,1409,1558,1170,1315,1183
718879,241372,229724,287420,287420,2199,1558,-1273,677,-870,1559,-3804,9927,59,94,833,1056,1182,981,1409,1558,1170,1315,1183
719880,241608,230204,287888,287888,2579,1333,-1060,959,-720,2237,-2258,9788,42,98,827,1145,1299,1039,1559,1775,1284,1523,1348
720881,241824,230660,288356,288356,2711,1483,-854,1287,-782,478,-1997,11242,21,98,822,1145,1299,1039,1559,1775,1284,1523,1348
721882,242040,231148,288824,288824,2717,1283,-553,1385,-740,279,-3545,9627,2,81,814,1145,1299,1039,1559,1775,1284,1523,1348
722883,242220,231588,289292,289292,2949,1583,-243,1510,-534,1891,-2496,12116,-1,92,813,1145,1299,1039,1559,1775,1284,1523,1348
723884,242400,232052,289760,289760,2956,1433,60,1473,-194,138,-3853,11574,-27,94,805,1145,1299,1039,1559,1775,1284,1523,1348
724885,242552,232572,290228,290228,3138,1082,510,1394,-26,-2619,-3020,11463,-49,79,803,1339,1503,1187,1875,2423,1608,1960,1669
725886,242692,233008,290696,290696,3221,1608,1036,1227,64,-1081,-4440,12110,-96,79,801,1339,1503,1187,1875,2423,1608,1960,1669
726887,242812,233448,291164,291164,3355,1584,1511,1013,327,134,-4337,10992,-113,84,793,1339,1503,1187,1875,2423,1608,1960,1669
727888,242944,233832,291632,291632,3288,1936,1944,1101,643,164,-4801,13567,-212,93,785,1339,1503,1187,1875,2423,1608,1960,1669
728889,243092,234324,292100,292100,3196,1260,2361,1266,893,529,-5669,12436,-158,84,783,1339,1503,1187,1875,2423,1608,1960,1669
729890,243240,234748,292568,292568,3204,1686,2663,1431,1142,425,-5806,13503,-108,77,791,1339,1503,1187,1875,2423,1608,1960,1669
730891,243388,235184,293036,293036,3212,1612,2839,1899,1337,2440,-5333,13072,-125,81,791,1451,1645,1263,1956,2344,1548,1827,1554
731892,243540,235596,293504,293504,3194,1763,2867,2280,1626,3795,-5443,12963,-155,82,790,1451,1645,1263,1956,2344,1548,1827,1554
732893,243696,236064,293972,293972,3177,1413,2844,2630,2025,3838,-5521,13160,-121,83,792,1451,1645,1263,1956,2344,1548,1827,1554
733894,243880,236540,294440,294440,3009,1363,2767,3211,2380,2738,-4267,13847,-131,78,793,1451,1645,1263,1956,2344,1548,1827,1554
734895,244032,236944,294912,294912,3217,1815,2807,3362,2664,1742,-5562,12304,-53,86,801,1451,1645,1263,1956,2344,1548,1827,1554
735896,244212,237416,295380,295380,3049,1390,2986,3368,2893,1470,-3823,13512,-124,81,795,1358,1512,1158,1716,1987,1390,1603,1396
736897,244384,237872,295848,295848,3106,1490,3084,3600,3182,1940,-4300,13219,-46,90,797,1358,1512,1158,1716,1987,1390,1603,1396
737898,244604,238392,296316,296316,2812,1089,3127,3815,3454,2944,-3011,12068,-53,92,800,1358,1512,1158,1716,1987,1390,1603,1396
738899,244820,238992,296784,296784,2843,585,3307,3629,3685,411,-4035,12032,3,99,810,1358,1512,1158,1716,1987,1390,1603,1396
739900,245084,239592,297252,297252,2548,582,3421,3581,3743,612,-2967,13114,1,92,817,1358,1512,1158,1716,1987,1390,1603,1396
740901,245356,240240,297720,297720,2503,278,3598,3937,3818,1594,-4022,12436,19,113,825,1358,1512,1158,1716,1987,1390,1603,1396
741902,245608,240788,298188,298188,2633,901,3772,4291,4026,783,-3266,9481,33,105,832,1118,1251,1016,1455,2163,1454,1662,1494
742903,245876,241428,298656,298656,2538,322,3868,4270,4185,299,-3103,8238,28,101,826,1118,1251,1016,1455,2163,1454,1662,1494
743904,246168,242052,299124,299124,2392,418,3968,4121,4276,375,-2550,7772,28,110,830,1118,1251,1016,1455,2163,1454,1662,1494
744905,246520,242752,299592,299592,2020,-63,4034,4547,4438,1582,-3146,7116,38,116,835,1118,1251,1016,1455,2163,1454,1662,1494
745906,246836,243396,300060,300060,2249,283,4058,5222,4521,3568,-2425,6276,55,102,843,1118,1251,1016,1455,2163,1454,1662,1494
746907,247136,243968,300528,300528,2353,730,4043,5482,4604,2341,-1786,5059,45,111,842,1065,1236,1024,1460,2300,1512,1718,1537
747908,247452,244648,300996,300996,2257,50,3985,5246,4738,1869,-2096,5099,53,104,837,1065,1236,1024,1460,2300,1512,1718,1537
748909,247768,245256,301464,301464,2260,497,3844,5226,4894,88,-1105,3857,61,111,839,1065,1236,1024,1460,2300,1512,1718,1537
749910,248124,245956,301932,301932,2013,-84,3648,5679,4865,2452,-2240,4039,46,100,841,1065,1236,1024,1460,2300,1512,1718,1537
750911,248444,246536,302400,302400,2242,663,3615,5797,4899,2261,-538,1908,60,95,842,1065,1236,1024,1460,2300,1512,1718,1537
751912,248768,247124,302868,302868,2220,610,3685,5342,4981,2466,-719,2603,60,107,842,1065,1236,1024,1460,2300,1512,1718,1537
752913,249112,247720,303336,303336,2098,557,3465,5087,4970,2063,-1552,4193,68,104,838,1084,1243,1026,1451,2009,1394,1535,1380
753914,249460,248400,303804,303804,2076,27,3348,5073,4985,2248,-690,1444,64,114,841,1084,1243,1026,1451,2009,1394,1535,1380
754915,249804,248920,304272,304272,2104,1026,3497,5123,4916,4115,-540,2575,81,109,846,1084,1243,1026,1451,2009,1394,1535,1380
755916,250220,249544,304740,304740,1656,372,3558,5146,4785,3810,-335,4499,68,112,844,1084,1243,1026,1451,2009,1394,1535,1380
756917,250592,250164,305208,305208,1933,393,3461,5007,4672,2530,667,3321,79,107,847,1084,1243,1026,1451,2009,1394,1535,1380
757918,250972,250696,305676,305676,1885,942,3412,5045,4545,3512,608,4038,69,111,851,995,1132,946,1274,1740,1236,1362,1290
758919,251352,251252,306144,306144,1887,790,3493,5250,4383,3647,-322,2291,72,118,845,995,1132,946,1274,1740,1236,1362,1290
759920,251744,251804,306612,306612,1814,813,3534,5369,4198,3628,2532,3351,74,114,845,995,1132,946,1274,1740,1236,1362,1290
760921,252164,252388,307080,307080,1640,610,3429,5664,4037,3911,104,4735,81,120,847,995,1132,946,1274,1740,1236,1362,1290
761922,252560,252988,307548,307548,1792,507,3270,5551,3927,3283,1745,1311,82,113,850,995,1132,946,1274,1740,1236,1362,1290
762923,252952,253572,308016,308016,1819,604,3129,5365,3804,2844,1412,3091,72,128,852,995,1132,946,1274,1740,1236,1362,1290
763924,253356,254080,308484,308484,1745,1078,3178,5001,3662,1941,335,323,72,111,849,939,1103,914,1215,1714,1222,1388,1360
764925,253776,254592,308952,308952,1647,1052,3268,5032,3506,2110,2645,2065,78,113,847,939,1103,914,1215,1714,1222,1388,1360
765926,254248,255164,309420,309420,1321,674,3210,5497,3163,5734,2819,2897,94,125,847,939,1103,914,1215,1714,1222,1388,1360
766927,254692,255672,309888,309888,1497,1073,2900,6491,3407,567,889,114,93,119,854,939,1103,914,1215,1714,1222,1388,1360
767928,255148,256152,310356,310356,1422,1248,2586,6943,3970,-3513,-776,-693,83,112,851,939,1103,914,1215,1714,1222,1388,1360
768929,255620,256624,310824,310824,1322,1298,2540,6595,4338,-2934,-3206,-906,88,109,849,960,1143,943,1268,1941,1361,1533,1461
769930,256124,257148,311296,311296,1121,971,2707,5705,4468,-3326,-326,-1711,108,117,851,960,1143,943,1268,1941,1361,1533,1461
770931,256652,257592,311764,311764,970,1472,3040,4723,4324,-2155,-253,-1406,100,120,856,960,1143,943,1268,1941,1361,1533,1461
771932,257136,258032,312232,312232,1245,1498,3136,4887,4181,861,586,2484,99,115,856,960,1143,943,1268,1941,1361,1533,1461
772933,257636,258460,312700,312700,1144,1574,2959,4868,4101,1797,2207,-244,95,115,852,960,1143,943,1268,1941,1361,1533,1461
773934,258140,258836,313168,313168,1118,1901,2621,4943,3804,363,2315,1780,101,102,850,960,1143,943,1268,1941,1361,1533,1461
774935,258628,259256,313636,313636,1217,1627,2333,4807,3452,-2269,2655,-98,103,88,847,973,1109,941,1289,1991,1362,1513,1406
775936,259124,259620,314104,314104,1167,1980,2077,4529,3146,-1195,3328,1785,104,103,845,973,1109,941,1289,1991,1362,1513,1406
776937,259704,259996,314572,314572,639,1907,1912,4188,2776,-457,1892,1295,104,102,844,973,1109,941,1289,1991,1362,1513,1406
777938,260240,260348,315040,315040,912,2060,1802,3486,2503,-2016,3249,1321,116,87,845,973,1109,941,1289,1991,1362,1513,1406
778939,260732,260696,315508,315508,1187,2088,1768,2924,2300,-2014,143,1550,93,84,845,973,1109,941,1289,1991,1362,1513,1406
779940,261204,261076,315976,315976,1312,1890,1612,2352,2176,-825,1559,1343,92,93,839,960,1094,927,1237,1953,1335,1530,1546
780941,261728,261400,316444,316444,985,2243,1408,2333,2082,2021,-168,2572,94,96,836,960,1094,927,1237,1953,1335,1530,1546
781942,262288,261700,316912,316912,758,2397,1207,2198,2196,-59,420,-370,108,70,838,960,1094,927,1237,1953,1335,1530,1546
782943,262796,262012,317380,317380,1082,2326,1089,2111,2273,-9,925,2803,108,63,837,960,1094,927,1237,1953,1335,1530,1546
783944,263320,262428,317848,317848,981,1678,726,1985,2397,643,-2543,2006,101,70,834,960,1094,927,1237,1953,1335,1530,1546
784945,263836,262820,318316,318316,1030,1829,437,1751,2703,-1710,163,4004,103,93,838,960,1094,927,1237,1953,1335,1530,1546
785946,264436,263224,318784,318784,501,1756,139,1771,2893,-108,50,4191,109,81,846,940,1133,921,1160,1962,1305,1583,1674
786947,265004,263644,319252,319252,699,1657,-253,1735,2986,-1706,-884,3589,124,68,848,940,1133,921,1160,1962,1305,1583,1674
787948,265528,264028,319720,319720,973,1884,-661,1563,3219,-2770,-809,3637,111,63,850,940,1133,921,1160,1962,1305,1583,1674
788949,266036,264488,320188,320188,1072,1409,-1266,1509,3427,183,-278,5098,126,59,847,940,1133,921,1160,1962,1305,1583,1674
789950,266580,264860,320656,320656,845,1962,-1669,739,3540,-1585,-1207,1164,114,63,848,940,1133,921,1160,1962,1305,1583,1674
790951,267136,265192,321124,321124,768,2215,-1949,259,3346,-3328,1895,5082,103,59,846,924,1132,914,1164,2312,1474,1764,1802
791952,267636,265576,321592,321592,1117,1892,-2019,-342,3042,-2518,325,1860,121,42,838,924,1132,914,1164,2312,1474,1764,1802
792953,268220,265980,322060,322060,589,1769,-1965,-696,2635,-2135,-727,2204,115,40,834,924,1132,914,1164,2312,1474,1764,1802
793954,268724,266340,322528,322528,1088,2046,-1961,-1206,2334,-3523,-890,2722,107,50,843,924,1132,914,1164,2312,1474,1764,1802
794955,269272,266704,322996,322996,811,2024,-1858,-1815,2110,-2137,-1104,2689,110,48,846,924,1132,914,1164,2312,1474,1764,1802
795956,269808,267036,323464,323464,884,2227,-1762,-2024,1726,1164,-3163,3621,103,47,838,924,1132,914,1164,2312,1474,1764,1802
796957,270324,267392,323932,323932,1008,2080,-1496,-2202,1377,977,-4110,4659,116,36,840,890,1035,903,1125,2508,1560,1631,1654
797958,270928,267780,324400,324400,455,1882,-1140,-2171,1102,2225,-7249,6172,121,40,833,890,1035,903,1125,2508,1560,1631,1654
798959,271456,268156,324868,324868,929,1959,-629,-2240,971,2016,-7888,6268,112,35,835,890,1035,903,1125,2508,1560,1631,1654
799960,272024,268488,325336,325336,676,2237,-119,-2099,803,2950,-9593,8930,110,35,846,890,1035,903,1125,2508,1560,1631,1654
800961,272584,268824,325804,325804,724,2216,412,-1924,632,2670,-9667,8843,125,25,838,890,1035,903,1125,2508,1560,1631,1654
801962,273144,269244,326272,326272,722,1692,762,-1929,511,3184,-9952,8112,103,27,832,786,883,864,1018,1677,1216,1144,1157
802963,273740,269656,326740,326740,493,1743,891,-1948,481,2692,-10541,8757,103,51,835,786,883,864,1018,1677,1216,1144,1157
803964,274280,270064,327208,327208,842,1770,942,-2038,521,1551,-9283,7609,121,47,848,786,883,864,1018,1677,1216,1144,1157
804965,274848,270400,327680,327680,664,2223,967,-2202,544,1275,-9277,7315,105,44,848,786,883,864,1018,1677,1216,1144,1157
805966,275432,270764,328148,328148,562,2050,923,-2263,455,834,-8907,8507,104,19,844,786,883,864,1018,1677,1216,1144,1157
806967,275996,271184,328616,328616,684,1702,829,-2407,419,-440,-8184,7137,100,34,835,786,883,864,1018,1677,1216,1144,1157
807968,276648,271612,329084,329084,130,1653,524,-2626,493,-553,-6957,6875,127,33,841,841,948,923,1133,1299,1050,1062,1084
808969,277196,272016,329552,329552,778,1804,212,-2958,625,-2021,-4397,4732,112,33,847,841,948,923,1133,1299,1050,1062,1084
809970,277800,272360,330020,330020,424,2182,-120,-3224,633,-1826,-3791,2722,97,44,850,841,948,923,1133,1299,1050,1062,1084
810971,278344,272716,330488,330488,798,2110,-451,-3508,587,-1539,-3582,1229,122,20,845,841,948,923,1133,1299,1050,1062,1084
811972,278936,273128,330956,330956,495,1761,-764,-3669,638,-2362,-3334,-27,116,27,839,841,948,923,1133,1299,1050,1062,1084
812973,279536,273536,331424,331424,441,1788,-1043,-3783,682,-1837,-3458,-715,114,43,838,1067,1248,1098,1439,1730,1295,1466,1490
813974,280260,273912,331892,331892,-340,1990,-1142,-3808,748,-576,-3025,-1667,111,49,847,1067,1248,1098,1439,1730,1295,1466,1490
814975,280884,274284,332360,332360,281,2017,-1190,-3783,838,-1564,-2982,-1676,119,46,848,1067,1248,1098,1439,1730,1295,1466,1490
815976,281472,274680,332828,332828,503,1869,-1152,-3903,824,-1062,-2935,-2011,108,36,843,1067,1248,1098,1439,1730,1295,1466,1490
816977,282020,275036,333296,333296,751,2122,-1168,-4016,821,-925,-3125,-1873,118,41,844,1067,1248,1098,1439,1730,1295,1466,1490
817978,282528,275396,333764,333764,1000,2100,-1086,-4054,850,-176,-2704,-2100,115,44,847,1067,1248,1098,1439,1730,1295,1466,1490
818979,283176,275776,334232,334232,121,1977,-998,-3905,835,1093,-3741,-896,134,54,837,1229,1426,1199,1575,1994,1410,1496,1410
819980,283756,276172,334700,334700,543,1878,-876,-3559,956,370,-4827,407,121,52,837,1229,1426,1199,1575,1994,1410,1496,1410
820981,284356,276668,335168,335168,415,1253,-856,-3376,984,779,-3658,1819,115,58,846,1229,1426,1199,1575,1994,1410,1496,1410
821982,284928,277112,335636,335636,587,1578,-848,-3225,815,1390,-2691,3662,133,65,846,1229,1426,1199,1575,1994,1410,1496,1410
822983,285560,277496,336104,336104,208,1955,-820,-3146,760,1149,-2115,3190,135,67,860,1229,1426,1199,1575,1994,1410,1496,1410
823984,286240,277864,336572,336572,-97,2058,-868,-3280,743,659,-627,5014,127,64,851,1110,1188,1049,1410,1385,1108,1089,975
824985,286864,278380,337040,337040,250,1132,-1228,-3500,708,-176,-1250,4955,131,63,849,1110,1188,1049,1410,1385,1108,1089,975
825986,287488,278884,337508,337508,246,1206,-1506,-3396,618,-1334,-762,4593,124,81,847,1110,1188,1049,1410,1385,1108,1089,975
826987,288108,279352,337976,337976,267,1431,-1491,-3054,536,-2100,-979,2926,127,65,864,1110,1188,1049,1410,1385,1108,1089,975
827990,288796,279780,338444,338444,-163,1682,-1418,-2927,442,-1892,165,4563,137,70,862,1110,1188,1049,1410,1385,1108,1089,975
828989,289516,280260,338912,338912,-370,1356,-1511,-3078,370,-2018,544,4879,130,75,858,1110,1188,1049,1410,1385,1108,1089,975
829990,290172,280776,339380,339380,26,1130,-1666,-3361,352,-1881,877,3696,133,75,855,991,1040,944,1314,1394,1132,1198,1127
830991,290816,281256,339848,339848,97,1355,-1675,-3422,345,-2017,1288,1566,136,76,859,991,1040,944,1314,1394,1132,1198,1127
831992,291452,281772,340316,340316,142,1129,-1540,-3059,235,-1362,1062,576,142,82,865,991,1040,944,1314,1394,1132,1198,1127
832993,292056,282276,340784,340784,339,1203,-1288,-2513,72,-1222,1048,-239,117,85,861,991,1040,944,1314,1394,1132,1198,1127
833994,292752,282832,341252,341252,-241,876,-1041,-2108,-101,-1158,1785,-196,116,87,865,991,1040,944,1314,1394,1132,1198,1127
834995,293488,283328,341720,341720,-498,1250,-827,-1941,-259,-1217,2195,-320,141,100,864,1014,1167,991,1367,2112,1448,1707,1647
835996,294108,283916,342188,342188,223,672,-687,-1765,-357,-1518,2789,-743,133,90,864,1014,1167,991,1367,2112,1448,1707,1647
836997,294720,284616,342656,342656,270,-34,-506,-1364,-405,-896,3232,-1185,115,100,857,1014,1167,991,1367,2112,1448,1707,1647
837998,295308,285192,343124,343124,417,739,-377,-757,-469,530,2385,-2372,138,120,872,1014,1167,991,1367,2112,1448,1707,1647
838999,295836,285736,343592,343592,790,937,-269,-212,-550,287,2445,-2609,132,108,877,1014,1167,991,1367,2112,1448,1707,1647
840000,296420,286256,344064,344064,438,1086,-176,-108,-671,-672,2867,-826,114,112,869,1014,1167,991,1367,2112,1448,1707,1647
841001,296968,286744,344532,344532,661,1285,-207,-55,-595,-2033,3476,2239,129,118,864,1090,1306,1021,1402,2037,1369,1553,1415
842002,297576,287272,345000,345000,282,1034,-342,591,-478,1378,2321,3031,129,113,866,1090,1306,1021,1402,2037,1369,1553,1415
843003,298264,287904,345468,345468,-223,380,-192,1140,-502,720,3172,649,117,118,862,1090,1306,1021,1402,2037,1369,1553,1415
844004,298856,288476,345936,345936,374,752,31,1369,-557,-1588,2182,1714,127,125,867,1090,1306,1021,1402,2037,1369,1553,1415
845005,299432,289052,346404,346404,471,725,80,1340,-626,-95,1542,2280,126,141,874,1090,1306,1021,1402,2037,1369,1553,1415
846006,300000,289640,346872,346872,519,647,-141,1331,-590,-401,1422,3236,122,135,871,1001,1116,920,1283,1485,1127,1185,1067
847007,300592,290296,347340,347340,366,217,-225,1290,-664,-1390,209,2656,115,144,871,1001,1116,920,1283,1485,1127,1185,1067
848008,301176,290948,347808,347808,413,238,-163,1313,-871,-2492,227,3752,130,141,871,1001,1116,920,1283,1485,1127,1185,1067
849009,301760,291592,348276,348276,410,283,-3,1339,-1091,-1263,-670,3094,131,145,876,1001,1116,920,1283,1485,1127,1185,1067
850010,302324,292168,348744,348744,533,706,134,1213,-1218,-366,-798,2879,120,142,875,1001,1116,920,1283,1485,1127,1185,1067
851011,302952,292768,349212,349212,129,553,211,1285,-1290,-550,-331,2417,136,144,875,1001,1116,920,1283,1485,1127,1185,1067
852012,303596,293300,349680,349680,25,976,292,1419,-1458,-466,-1533,579,141,142,870,937,1017,903,1252,1533,1186,1269,1194
853013,304152,293912,350148,350148,572,472,452,1870,-1671,-421,-306,890,129,132,872,937,1017,903,1252,1533,1186,1269,1194
854014,304768,294540,350616,350616,194,369,600,2147,-1794,-775,-1022,-419,130,144,869,937,1017,903,1252,1533,1186,1269,1194
855015,305344,295136,351084,351084,441,565,647,2217,-1968,-1490,148,404,123,153,872,937,1017,903,1252,1533,1186,1269,1194
856016,305992,295788,351552,351552,-13,211,677,2295,-2150,-2750,1079,43,116,152,876,937,1017,903,1252,1533,1186,1269,1194
857017,306552,296512,352020,352020,535,-245,1136,2582,-2117,-1185,1051,-2158,127,142,873,1010,1159,975,1357,1958,1375,1594,1492
858018,307116,297120,352488,352488,507,476,1690,2981,-1988,3885,-1271,-4458,132,133,878,1010,1159,975,1357,1958,1375,1594,1492
859019,307656,297672,352956,352956,655,824,1752,2222,-1790,485,1696,-8371,132,147,873,1010,1159,975,1357,1958,1375,1594,1492
860020,308252,298224,353424,353424,302,822,842,1790,-1850,-5588,4809,3337,107,140,873,1010,1159,975,1357,1958,1375,1594,1492
861021,308892,298784,353892,353892,23,770,156,2297,-2076,-2216,3484,2931,113,121,867,1010,1159,975,1357,1958,1375,1594,1492
862022,309420,299316,354360,354360,722,943,586,3333,-1920,4380,-1458,-1499,125,134,870,1010,1159,975,1357,1958,1375,1594,1492
863023,309972,299888,354828,354828,570,691,1377,3640,-1574,5071,-501,-4895,116,124,873,1066,1252,965,1321,1933,1300,1524,1429
864024,310496,300444,355296,355296,743,789,1557,2876,-1505,735,2890,-1258,103,116,864,1066,1252,965,1321,1933,1300,1524,1429
865025,311040,301040,355764,355764,616,536,1048,1996,-1629,-221,3692,3424,102,127,869,1066,1252,965,1321,1933,1300,1524,1429
866026,311624,301644,356232,356232,364,482,408,1518,-1625,950,1444,2081,107,117,867,1066,1252,965,1321,1933,1300,1524,1429
867027,312136,302268,356700,356700,812,353,280,1848,-1671,1444,900,2030,114,112,870,1066,1252,965,1321,1933,1300,1524,1429
868028,312620,302908,357168,357168,987,249,631,1942,-1678,-1216,-2273,619,108,104,873,940,1083,872,1152,1706,1188,1320,1280
869029,313100,303568,357636,357636,1012,120,997,1905,-1712,-1177,-714,3097,94,129,869,940,1083,872,1152,1706,1188,1320,1280
870030,313596,304216,358104,358104,911,190,870,1325,-1661,-753,-429,4369,102,117,865,940,1083,872,1152,1706,1188,1320,1280
871031,314036,304948,358572,358572,1262,-341,640,1221,-1642,1360,233,5795,106,109,866,940,1083,872,1152,1706,1188,1320,1280
872032,314496,305744,359040,359040,1137,-749,463,1143,-1675,2030,142,2256,83,121,869,940,1083,872,1152,1706,1188,1320,1280
873033,314884,306476,359508,359508,1589,-356,416,1534,-1601,385,-1295,3358,80,98,861,940,1083,872,1152,1706,1188,1320,1280
874034,315264,307088,359976,359976,1641,391,260,1705,-1476,159,-20,3000,83,108,856,888,1022,886,1167,1810,1284,1417,1393
875035,315656,307780,360448,360448,1568,-115,44,2182,-1378,1214,-1303,3908,78,105,855,888,1022,886,1167,1810,1284,1417,1393
876036,316012,308328,360916,360916,1796,783,19,2293,-1420,2305,-814,-384,70,95,856,888,1022,886,1167,1810,1284,1417,1393
877037,316400,308900,361384,361384,1598,631,101,2127,-1262,725,-1103,-56,77,90,857,888,1022,886,1167,1810,1284,1417,1393
878039,316760,309500,361852,361852,1775,453,109,1928,-1063,164,-249,1080,76,91,847,888,1022,886,1167,1810,1284,1417,1393
879039,317104,310128,362320,362320,1878,274,-18,1541,-852,-2017,1390,2160,66,106,852,999,1147,994,1375,2176,1499,1679,1532
880040,317432,310708,362788,362788,1982,571,-88,1373,-758,-1719,2066,1647,60,114,851,999,1147,994,1375,2176,1499,1679,1532
881041,317756,311260,363256,363256,2010,744,-150,1575,-852,-3010,3239,3060,73,105,851,999,1147,994,1375,2176,1499,1679,1532
882042,318088,311848,363724,363724,1964,516,-18,1531,-847,-7036,5816,1419,52,104,844,999,1147,994,1375,2176,1499,1679,1532
883043,318404,312360,364192,364192,2067,990,-125,1306,-838,-5392,4687,2312,52,97,842,999,1147,994,1375,2176,1499,1679,1532
884044,318728,313004,364660,364660,2021,161,-412,546,-884,-5768,6424,3824,61,99,845,999,1147,994,1375,2176,1499,1679,1532
885045,319048,313536,365128,365128,2050,859,-896,-703,-776,-5596,7099,4572,65,107,837,1074,1234,1011,1462,2150,1456,1660,1526
886046,319356,314068,365596,365596,2128,858,-1473,-1780,-559,-3314,6542,9768,51,85,847,1074,1234,1011,1462,2150,1456,1660,1526
887047,319688,314632,366064,366064,1982,655,-2078,-1965,-318,-2555,5653,9434,60,106,837,1074,1234,1011,1462,2150,1456,1660,1526
888048,319972,315144,366532,366532,2286,979,-2368,-1711,-102,-526,3463,10939,53,94,837,1074,1234,1011,1462,2150,1456,1660,1526
889049,320272,315652,367000,367000,2190,1003,-2463,-1461,109,287,2983,10812,49,95,843,1074,1234,1011,1462,2150,1456,1660,1526
890050,320552,316136,367468,367468,2320,1153,-2421,-1403,306,1350,1297,11448,41,80,831,1026,1202,985,1251,2392,1533,1803,1928
891051,320852,316576,367936,367936,2199,1428,-2304,-1369,459,4337,87,10775,48,100,833,1026,1202,985,1251,2392,1533,1803,1928
892052,321156,317060,368404,368404,2178,1153,-2255,-1064,591,4648,-394,11877,44,103,829,1026,1202,985,1251,2392,1533,1803,1928
893053,321500,317492,368872,368872,1931,1479,-2231,-664,692,2056,1041,11354,51,95,829,1026,1202,985,1251,2392,1533,1803,1928
894054,321816,317968,369340,369340,2110,1204,-2226,-299,680,563,695,10813,58,86,834,1026,1202,985,1251,2392,1533,1803,1928
895055,322124,318396,369808,369808,2164,1505,-2152,8,649,-17,2042,9983,53,88,833,1026,1202,985,1251,2392,1533,1803,1928
896056,322404,318836,370276,370276,2343,1430,-2171,-259,772,-2575,2881,8866,49,94,833,996,1241,1025,1264,2587,1585,1816,1830
897057,322692,319184,370744,370744,2298,2008,-2485,-1139,947,-5912,4265,10236,42,80,826,996,1241,1025,1264,2587,1585,1816,1830
898058,323028,319596,371212,371212,2001,1610,-3105,-2076,1131,-7361,5379,10828,55,83,823,996,1241,1025,1264,2587,1585,1816,1830
899059,323340,319968,371680,371680,2155,1862,-3648,-2866,1355,-7554,6837,9133,53,74,813,996,1241,1025,1264,2587,1585,1816,1830
900060,323636,320348,372148,372148,2259,1814,-4094,-3507,1576,-7992,6249,9395,57,86,831,996,1241,1025,1264,2587,1585,1816,1830
901061,323940,320720,372616,372616,2213,1866,-4551,-4300,1856,-8820,7196,8781,46,88,823,1107,1308,1068,1465,2315,1556,1821,1714
902062,324256,321088,373084,373084,2142,1894,-5054,-4560,2118,-5850,6289,9202,51,72,817,1107,1308,1068,1465,2315,1556,1821,1714
903063,324572,321464,373552,373552,2145,1846,-5200,-4704,2350,-3943,6332,7174,63,71,818,1107,1308,1068,1465,2315,1556,1821,1714
904064,324944,321792,374020,374020,1798,2150,-5353,-4558,2481,-2849,4908,9094,47,76,818,1107,1308,1068,1465,2315,1556,1821,1714
905065,325272,322120,374488,374488,2076,2153,-5515,-4407,2659,-1229,4401,9170,61,68,818,1107,1308,1068,1465,2315,1556,1821,1714
906066,325596,322440,374956,374956,2105,2207,-5503,-4053,2766,774,3358,8064,60,59,822,1091,1259,1044,1408,2609,1696,1904,1804
907067,325908,322756,375424,375424,2183,2235,-5223,-3353,2619,2245,2696,8043,51,55,816,1091,1259,1044,1408,2609,1696,1904,1804
908068,326224,323124,375892,375892,2162,1913,-4687,-2726,2522,886,3233,7729,62,65,814,1091,1259,1044,1408,2609,1696,1904,1804
909069,326568,323444,376360,376360,1990,2216,-4295,-1977,2428,1721,1175,10084,48,73,813,1091,1259,1044,1408,2609,1696,1904,1804
910070,326896,323760,376832,376832,2094,2245,-4053,-1412,2419,-804,1547,9127,55,64,820,1091,1259,1044,1408,2609,1696,1904,1804
911071,327244,324064,377300,377300,1972,2324,-3787,-1399,2369,-1991,2942,8706,62,51,816,1091,1259,1044,1408,2609,1696,1904,1804
912072,327568,324372,377768,377768,2125,2303,-3743,-1485,2254,-2481,2265,8671,67,41,814,1019,1166,1022,1417,2024,1408,1460,1280
913073,327908,324676,378236,378236,2028,2332,-3820,-1269,2176,-4651,2571,7677,70,49,814,1019,1166,1022,1417,2024,1408,1460,1280
914074,328284,324932,378704,378704,1805,2637,-3834,-1141,2119,-5396,3849,5382,72,51,813,1019,1166,1022,1417,2024,1408,1460,1280
915075,328680,325184,379172,379172,1682,2668,-3918,-1105,2099,-5387,2682,5145,62,17,813,1019,1166,1022,1417,2024,1408,1460,1280
916076,329048,325388,379640,379640,1860,2974,-4055,-1302,1972,-5846,3987,5053,62,25,804,1019,1166,1022,1417,2024,1408,1460,1280
917077,329432,325608,380108,380108,1762,2880,-4133,-1661,1808,-5819,2782,4996,64,-17,809,1103,1220,1044,1535,1511,1175,1271,1146
918078,329804,325820,380576,380576,1839,2936,-4060,-1995,1716,-3226,2271,4891,73,-7,799,1103,1220,1044,1535,1511,1175,1271,1146
919079,330224,326052,381044,381044,1540,2817,-3765,-1703,1566,-299,1294,5086,83,-3,802,1103,1220,1044,1535,1511,1175,1271,1146
920080,330628,326296,381512,381512,1642,2748,-3180,-1282,1383,147,-787,5480,90,1,801,1103,1220,1044,1535,1511,1175,1271,1146
921081,331048,326572,381980,381980,1543,2552,-2594,-1007,1216,446,-1604,6382,84,9,807,1103,1220,1044,1535,1511,1175,1271,1146
922082,331472,326884,382448,382448,1519,2331,-2032,-848,970,3410,-2480,6834,94,23,807,1103,1220,1044,1535,1511,1175,1271,1146
923083,331920,327184,382916,382916,1370,2410,-1250,-1059,752,5808,-5684,5420,93,30,817,1088,1200,1032,1348,1556,1176,1236,1224
924084,332368,327516,383384,383384,1370,2213,-406,-1129,472,5951,-5403,8032,88,36,823,1088,1200,1032,1348,1556,1176,1236,1224
925085,332832,327796,383852,383852,1270,2543,314,-851,255,5363,-7858,6103,100,48,821,1088,1200,1032,1348,1556,1176,1236,1224
926086,333340,328076,384320,384320,994,2548,915,-263,-27,6730,-7668,5375,96,20,823,1088,1200,1032,1348,1556,1176,1236,1224
927087,333816,328292,384788,384788,1194,2954,1255,381,-299,7658,-6779,3486,115,22,823,1088,1200,1032,1348,1556,1176,1236,1224
928088,334272,328400,385256,385256,1319,3638,1472,512,-458,8654,-1686,4247,111,-7,827,1022,1168,1062,1352,1320,1040,1069,1028
929089,334796,328752,385724,385724,893,2115,1282,-342,-470,6136,-5449,64,115,-140,811,1022,1168,1062,1352,1320,1040,1069,1028
930090,335344,329128,386192,386192,741,1968,1017,-1087,-574,-827,-6349,-1805,109,67,791,1022,1168,1062,1352,1320,1040,1069,1028
931091,335860,329564,386660,386660,940,1593,953,-1544,-552,-5169,-6870,-3293,103,58,838,1022,1168,1062,1352,1320,1040,1069,1028
932092,336316,329984,387128,387128,1315,1695,1176,-1005,-40,-4348,-12316,519,93,73,844,1022,1168,1062,1352,1320,1040,1069,1028
933093,336772,330396,387596,387596,1315,1746,574,77,479,2115,-6577,7060,99,73,849,1022,1168,1062,1352,1320,1040,1069,1028
934094,337204,330776,388064,388064,1466,1948,-513,556,949,-1271,-3904,3132,103,62,840,1207,1357,1163,1562,1139,976,1032,960
935095,337684,331240,388532,388532,1166,1423,-1429,245,1064,-1951,-4611,594,95,63,839,1207,1357,1163,1562,1139,976,1032,960
936096,338144,331736,389000,389000,1291,1223,-1577,-691,1122,-2969,-6156,-875,100,64,833,1207,1357,1163,1562,1139,976,1032,960
937097,338700,332140,389468,389468,689,1799,-1499,-1984,1165,-4047,-6937,-2832,98,60,846,1207,1357,1163,1562,1139,976,1032,960
938098,339220,332536,389936,389936,913,1851,-1325,-3101,848,-2497,-7169,-4635,104,40,846,1207,1357,1163,1562,1139,976,1032,960
939099,339732,332928,390404,390404,962,1878,-675,-3677,-139,-252,-4791,-5634,97,43,843,1270,1368,1225,1675,1604,1291,1316,1243
940100,340332,333256,390872,390872,408,2281,-172,-3353,-510,4052,-4911,-2355,116,36,842,1270,1368,1225,1675,1604,1291,1316,1243
941101,340980,333644,391340,391340,104,1908,22,-3021,-559,7237,-6365,-774,102,21,840,1270,1368,1225,1675,1604,1291,1316,1243
942102,341560,333976,391808,391808,526,2261,74,-2539,-529,6804,-5260,1580,105,42,836,1270,1368,1225,1675,1604,1291,1316,1243
943103,342140,334268,392276,392276,524,2516,153,-2189,-595,4974,-3319,435,125,20,846,1270,1368,1225,1675,1604,1291,1316,1243
944104,342696,334572,392744,392744,671,2445,271,-1853,-761,5603,-3930,342,108,10,836,1270,1368,1225,1675,1604,1291,1316,1243
945105,343168,334964,393216,393216,1196,1897,107,-1602,-528,3904,-4983,1024,112,12,830,1254,1334,1212,1649,1441,1158,1162,1046
946106,343676,335312,393684,393684,970,2175,-320,-1383,-41,1847,-3203,2250,111,45,830,1254,1334,1212,1649,1441,1158,1162,1046
947107,344284,335652,394152,394152,342,2228,-804,-1270,102,1218,-2253,1983,114,29,838,1254,1334,1212,1649,1441,1158,1162,1046
948108,344872,335944,394620,394620,464,2532,-1106,-1178,51,765,-2719,424,115,25,833,1254,1334,1212,1649,1441,1158,1162,1046
949109,345480,336260,395088,395088,336,2386,-1407,-1161,128,-499,-3108,1666,121,15,836,1254,1334,1212,1649,1441,1158,1162,1046
950110,346056,336664,395556,395556,533,1837,-1669,-1482,235,-1903,-2961,820,121,17,828,1265,1299,1140,1625,1179,1018,1035,931
951111,346636,337028,396024,396024,505,2090,-1841,-1920,188,-2449,35,1548,116,37,833,1265,1299,1140,1625,1179,1018,1035,931
952112,347268,337360,396492,396492,176,2293,-1915,-2145,-112,-647,200,1088,117,29,845,1265,1299,1140,1625,1179,1018,1035,931
953113,347812,337684,396960,396960,724,2347,-1820,-1928,-443,-63,-1355,937,124,11,838,1265,1299,1140,1625,1179,1018,1035,931
954114,348360,338012,397428,397428,697,2325,-1631,-1809,-584,-1563,-1488,873,113,17,838,1265,1299,1140,1625,1179,1018,1035,931
955115,348952,338368,397896,397896,419,2153,-1329,-1885,-748,-1570,-1170,980,115,22,829,1265,1299,1140,1625,1179,1018,1035,931
956116,349532,338736,398364,398364,492,2080,-1018,-1796,-830,-2216,-2908,1433,113,28,830,1144,1222,1073,1450,1595,1236,1322,1270
957117,350188,339076,398832,398832,12,2258,-621,-1691,-893,-966,-110,344,133,24,838,1144,1222,1073,1450,1595,1236,1322,1270
958118,350852,339392,399300,399300,-43,2412,-196,-1431,-1014,795,84,449,117,31,839,1144,1222,1073,1450,1595,1236,1322,1270
959119,351448,339728,399768,399768,379,2290,174,-1155,-997,-553,514,-1169,121,22,838,1144,1222,1073,1450,1595,1236,1322,1270
960120,352024,340052,400236,400236,502,2369,380,-780,-831,-1287,1377,134,111,28,834,1144,1222,1073,1450,1595,1236,1322,1270
961121,352616,340428,400704,400704,399,2046,464,-505,-634,173,1316,-68,133,18,836,1082,1235,1043,1415,1879,1316,1467,1361
962122,353212,340816,401172,401172,370,1973,564,-374,-438,183,1818,101,117,35,834,1082,1235,1043,1415,1879,1316,1467,1361
963123,353876,341152,401640,401640,-59,2301,679,-273,-184,-395,2933,1318,114,45,843,1082,1235,1043,1415,1879,1316,1467,1361
964124,354504,341536,402108,402108,162,2003,625,-32,-64,-229,3773,2690,126,30,845,1082,1235,1043,1415,1879,1316,1467,1361
965125,355120,341912,402576,402576,233,2056,557,237,114,-370,4029,2601,132,35,837,1082,1235,1043,1415,1879,1316,1467,1361
966126,355740,342292,403044,403044,204,2033,411,554,295,369,4135,3091,129,43,842,1082,1235,1043,1415,1879,1316,1467,1361
967127,356400,342680,403512,403512,-50,1985,287,528,521,-924,2771,2374,124,48,843,1084,1215,990,1394,1545,1161,1278,1172
968128,357056,343104,403980,403980,-30,1761,129,668,608,-758,3443,4279,123,51,844,1084,1215,990,1394,1545,1161,1278,1172
969129,357712,343484,404448,404448,-34,2038,98,569,582,-2254,2044,2850,130,58,843,1084,1215,990,1394,1545,1161,1278,1172
970130,358376,343904,404916,404916,-89,1789,208,517,486,-2176,2668,3969,130,50,852,1084,1215,990,1394,1545,1161,1278,1172
971131,359056,344352,405384,405384,-194,1615,387,364,407,-1407,1457,2692,124,51,847,1084,1215,990,1394,1545,1161,1278,1172
972132,359652,344780,405852,405852,327,1741,584,-29,387,-2629,1914,2040,122,55,847,1011,1111,947,1303,1703,1260,1386,1320
973133,360244,345228,406320,406320,349,1616,734,-343,304,-3432,669,1848,109,54,851,1011,1111,947,1303,1703,1260,1386,1320
974134,360876,345664,406788,406788,95,1692,977,-497,184,-2565,-261,507,121,60,849,1011,1111,947,1303,1703,1260,1386,1320
975135,361428,346128,407256,407256,593,1517,1287,-357,36,-1919,361,1452,129,65,854,1011,1111,947,1303,1703,1260,1386,1320
976136,361944,346604,407724,407724,817,1442,1546,-235,-50,-1944,825,2065,129,86,855,1011,1111,947,1303,1703,1260,1386,1320
977137,362556,347068,408192,408192,214,1517,1721,-237,-57,-1774,1344,2091,121,85,854,1011,1111,947,1303,1703,1260,1386,1320
