%  Data file recorded 2016/10/2  21:13:15
%  Stride Frequency         = [1, 1]
%  Lead In /Lead Out        = 
%  Deltas (Fractional)      = [0.25, 0.25, 0.25],[0.25, 0.25, 0.25]
%  Phase                    = 32768
%  Experiment.py 
%  Motor Gains    = [5000, 400, 200, 0, 300, 5000, 400, 200, 0, 300]
% Columns: 
% time | Right Leg Pos | Left Leg Pos | Commanded Right Leg Pos | Commanded Left Leg Pos | DCR | DCL | GyroX | GyroY | GyroZ | AX | AY | AZ | RBEMF | LBEMF | VBatt | S1 | S2 | S3 | S4 | S5 | S6 | S7 | S8
675,15860,-15932,16686,-16082,1558,3800,-10,-6,3,-119,104,3918,-4,-5,858,1789,1881,2068,2224,2045,1805,1873,1988
1676,15860,-15944,16686,-16082,1608,3800,-14,-3,3,-124,108,3950,5,9,857,1789,1881,2068,2224,2045,1805,1873,1988
2677,15852,-15940,16686,-16082,1719,3800,-13,-7,2,-138,114,3945,12,0,857,1789,1881,2068,2224,2045,1805,1873,1988
3678,15864,-15940,16686,-16082,1454,3800,-12,-9,1,-128,74,3931,-5,8,857,1789,1881,2068,2224,2045,1805,1873,1988
4679,15860,-15944,16686,-16082,1659,3800,-13,-7,2,-135,84,3917,-2,4,858,1789,1881,2068,2224,2045,1805,1873,1988
5680,15856,-15932,16686,-16082,1664,3800,-11,-6,3,-144,79,3952,7,-2,857,1790,1881,2070,2226,2046,1806,1876,1992
6681,15856,-15932,16686,-16082,1615,3800,-10,-8,2,-131,99,3965,11,8,858,1790,1881,2070,2226,2046,1806,1876,1992
7682,15852,-15940,16686,-16082,1670,3800,-10,-9,3,-111,94,3913,-5,-5,857,1790,1881,2070,2226,2046,1806,1876,1992
8683,15868,-15940,16686,-16082,1400,3800,-9,-7,1,-120,63,3908,-6,9,857,1790,1881,2070,2226,2046,1806,1876,1992
9684,15852,-15944,16686,-16082,1821,3800,-9,-8,4,-138,90,3917,-3,-4,857,1790,1881,2070,2226,2046,1806,1876,1992
10685,15852,-15940,16686,-16082,1621,3800,-14,-8,4,-119,122,3935,10,8,858,1790,1881,2070,2226,2046,1806,1876,1992
11686,15860,-15932,16686,-16082,1511,3800,-13,-7,5,-128,106,3943,11,-2,857,1789,1879,2068,2222,2045,1805,1873,1989
12687,15860,-15948,16686,-16082,1612,3800,-11,-7,3,-135,66,3938,-6,10,857,1789,1879,2068,2222,2045,1805,1873,1989
13688,15864,-15932,16686,-16082,1557,3800,-12,-8,2,-118,85,3907,6,-5,858,1789,1879,2068,2222,2045,1805,1873,1989
14689,15856,-15948,16686,-16082,1717,3800,-14,-5,4,-125,94,3903,12,7,858,1789,1879,2068,2222,2045,1805,1873,1989
15690,15860,-15932,16686,-16082,1563,3800,-15,-4,4,-135,89,3907,10,-4,858,1789,1879,2068,2222,2045,1805,1873,1989
16691,15852,-15940,16686,-16082,1723,3800,-15,-5,3,-135,86,3953,-5,8,857,1788,1879,2070,2226,2047,1807,1874,1992
17692,15852,-15936,16686,-16082,1623,3800,-13,-7,2,-112,85,3939,3,0,857,1788,1879,2070,2226,2047,1807,1874,1992
18693,15860,-15932,16686,-16082,1514,3800,-12,-6,1,-127,95,3883,13,7,858,1788,1879,2070,2226,2047,1807,1874,1992
19694,15856,-15936,16686,-16082,1669,3800,-12,-6,4,-151,97,3920,5,5,856,1788,1879,2070,2226,2047,1807,1874,1992
20696,15852,-15944,16686,-16082,1674,3800,-11,-9,6,-123,129,3928,12,-4,857,1788,1879,2070,2226,2047,1807,1874,1992
21696,15856,-15932,16686,-16082,1569,3800,-12,-10,4,-140,109,3937,8,10,858,1788,1878,2067,2222,2043,1806,1873,1989
22697,15856,-15944,16686,-16082,1620,3800,-12,-6,2,-125,101,3956,-6,-3,858,1788,1878,2067,2222,2043,1806,1873,1989
23698,15860,-15928,16686,-16082,1565,3800,-12,-6,2,-127,117,3930,0,8,858,1788,1878,2067,2222,2043,1806,1873,1989
24699,15864,-15928,16686,-16082,1560,3800,-14,-7,2,-107,106,3938,12,-5,858,1788,1878,2067,2222,2043,1806,1873,1989
25700,15852,-15944,16686,-16082,1776,3800,-17,-6,6,-117,106,3927,-6,9,858,1788,1878,2067,2222,2043,1806,1873,1989
26701,15868,-15944,16686,-16082,1406,3800,-15,-7,5,-125,80,3905,12,1,858,1788,1878,2067,2222,2043,1806,1873,1989
27702,15856,-15940,16686,-16082,1771,3800,-13,-8,4,-134,87,3940,-4,3,858,1790,1880,2069,2223,2046,1806,1874,1988
28703,15860,-15932,16686,-16082,1567,3800,-11,-8,2,-153,81,3930,7,8,858,1790,1880,2069,2223,2046,1806,1874,1988
29704,15856,-15928,16686,-16082,1672,3800,-12,-7,2,-138,102,3929,13,-4,858,1790,1880,2069,2223,2046,1806,1874,1988
30705,15868,-15944,16686,-16082,1457,3800,-14,-9,1,-119,88,3927,-5,10,858,1790,1880,2069,2223,2046,1806,1874,1988
31706,15856,-15944,16686,-16082,1773,3800,-14,-9,-2,-115,116,3919,0,-3,857,1790,1880,2069,2223,2046,1806,1874,1988
32707,15872,-15944,16686,-16082,1403,3800,-13,-8,2,-124,111,3925,13,1,858,1788,1880,2067,2224,2045,1805,1873,1989
33708,15860,-15940,16686,-16082,1768,3800,-15,-7,2,-115,97,3945,-6,5,858,1788,1880,2067,2224,2045,1805,1873,1989
34709,15864,-15932,16686,-16082,1564,3800,-15,-9,1,-112,95,3931,9,-4,858,1788,1880,2067,2224,2045,1805,1873,1989
35710,15860,-15932,16686,-16082,1669,3800,-16,-9,0,-129,99,3913,9,10,858,1788,1880,2067,2224,2045,1805,1873,1989
36711,15848,-15932,16686,-16082,1783,3800,-15,-7,-2,-94,76,3914,-4,-4,856,1788,1880,2067,2224,2045,1805,1873,1989
37712,15848,-15940,16686,-16082,1633,3800,-10,-6,-1,-96,84,3949,2,1,858,1788,1880,2067,2224,2045,1805,1873,1989
38713,15852,-15940,16686,-16082,1580,3800,-10,-6,1,-111,94,3983,8,4,857,1790,1882,2070,2226,2046,1808,1873,1990
39714,15856,-15940,16686,-16082,1575,3800,-12,-8,0,-103,112,3948,2,4,858,1790,1882,2070,2226,2046,1808,1873,1990
40715,15864,-15944,16686,-16082,1515,3800,-16,-8,-1,-102,103,3919,-4,4,858,1790,1882,2070,2226,2046,1808,1873,1990
41716,15860,-15944,16686,-16082,1671,3800,-15,-7,-3,-98,85,3956,10,-2,858,1790,1882,2070,2226,2046,1808,1873,1990
42717,15860,-15944,16686,-16082,1621,3800,-16,-8,-3,-121,58,3935,2,0,858,1790,1882,2070,2226,2046,1808,1873,1990
43718,15860,-15948,16686,-16082,1621,3800,-14,-7,-3,-111,91,3928,-6,2,858,1788,1879,2067,2223,2043,1805,1873,1988
44719,15852,-15940,16686,-16082,1732,3800,-15,-10,-1,-110,87,3954,8,6,858,1788,1879,2067,2223,2043,1805,1873,1988
45720,15852,-15932,16686,-16082,1632,3800,-13,-10,0,-101,94,3953,4,-1,858,1788,1879,2067,2223,2043,1805,1873,1988
46721,15864,-15944,16686,-16082,1467,3800,-12,-8,0,-110,46,3943,-4,9,858,1788,1879,2067,2223,2043,1805,1873,1988
47722,15852,-15936,16686,-16082,1783,3800,-16,-6,0,-104,73,3958,8,-4,858,1788,1879,2067,2223,2043,1805,1873,1988
48723,15856,-15932,16686,-16082,1578,3800,-15,-8,1,-106,97,3930,4,9,858,1788,1879,2067,2223,2043,1805,1873,1988
49724,15860,-15944,16686,-16082,1573,3800,-15,-8,3,-136,68,3921,-4,-4,857,1790,1882,2070,2228,2046,1808,1873,1989
50725,15864,-15928,16686,-16082,1569,3800,-14,-6,0,-133,48,3921,9,7,857,1790,1882,2070,2228,2046,1808,1873,1989
51726,15856,-15924,16686,-16082,1729,3800,-12,-5,-2,-116,68,3916,-1,-3,858,1790,1882,2070,2228,2046,1808,1873,1989
52727,15864,-15944,16686,-16082,1519,3800,-12,-7,0,-119,72,3907,-4,7,857,1790,1882,2070,2228,2046,1808,1873,1989
53728,15864,-15940,16686,-16082,1619,3800,-14,-9,2,-127,86,3934,1,3,856,1790,1882,2070,2228,2046,1808,1873,1989
54729,15860,-15932,16686,-16082,1675,3800,-14,-9,4,-129,98,3937,6,-3,857,1788,1879,2067,2223,2044,1805,1873,1989
55730,15860,-15932,16686,-16082,1625,3800,-14,-6,0,-123,81,3945,12,10,857,1788,1879,2067,2223,2044,1805,1873,1989
56731,15856,-15940,16686,-16082,1680,3800,-13,-7,-1,-132,92,3947,13,-3,857,1788,1879,2067,2223,2044,1805,1873,1989
57732,15856,-15940,16686,-16082,1631,3800,-12,-6,0,-130,97,3939,6,9,857,1788,1879,2067,2223,2044,1805,1873,1989
58733,15860,-15944,16686,-16082,1576,3800,-10,-4,2,-121,103,3928,-6,1,857,1788,1879,2067,2223,2044,1805,1873,1989
59734,15860,-15928,16686,-16082,1626,3800,-12,-6,3,-85,82,3906,-4,-1,858,1788,1879,2067,2223,2044,1805,1873,1989
60735,15856,-15932,16686,-16082,1682,3800,-13,-8,1,-116,74,3935,9,1,857,1790,1882,2069,2226,2046,1806,1874,1988
61736,15848,-15940,16686,-16082,1741,3800,-12,-7,1,-117,87,3952,13,-1,858,1790,1882,2069,2226,2046,1806,1874,1988
62737,15856,-15932,16686,-16082,1532,3800,-11,-6,3,-113,100,3929,7,9,858,1790,1882,2069,2226,2046,1806,1874,1988
63738,15856,-15944,16686,-16082,1633,3800,-12,-5,2,-101,97,3925,-2,-1,857,1790,1882,2069,2226,2046,1806,1874,1988
64739,15848,-15944,16686,-16082,1742,3800,-11,-5,0,-108,75,3904,-4,8,858,1790,1882,2069,2226,2046,1806,1874,1988
65740,15860,-15944,16686,-16082,1478,3800,-10,-7,1,-100,95,3903,3,-4,857,1788,1880,2067,2225,2045,1805,1874,1988
66741,15856,-15944,16686,-16082,1684,3800,-12,-8,3,-110,91,3924,10,6,858,1788,1880,2067,2225,2045,1805,1874,1988
67742,15860,-15928,16686,-16082,1579,3800,-13,-7,4,-119,90,3933,-5,-5,858,1788,1880,2067,2225,2045,1805,1874,1988
68743,15852,-15940,16686,-16082,1739,3800,-11,-4,5,-140,104,3886,-4,9,857,1788,1880,2067,2225,2045,1805,1874,1988
69744,15852,-15932,16686,-16082,1639,3800,-11,-3,6,-153,110,3923,13,-4,857,1788,1880,2067,2225,2045,1805,1874,1988
70745,15856,-15928,16686,-16082,1585,3800,-12,-6,6,-134,90,3919,-5,3,856,1788,1880,2067,2225,2045,1805,1874,1988
71746,15856,-15928,16686,-16082,1635,3800,-12,-8,6,-146,95,3943,0,10,857,1790,1880,2070,2226,2046,1806,1874,1990
72747,15860,-15940,16686,-16082,1580,3800,-11,-6,4,-112,101,3972,-6,-1,857,1790,1880,2070,2226,2046,1806,1874,1990
73748,15864,-15944,16686,-16082,1576,3800,-15,-4,6,-146,93,3927,12,9,858,1790,1880,2070,2226,2046,1806,1874,1990
74749,15856,-15936,16686,-16082,1736,3800,-15,-6,5,-136,72,3938,12,-5,858,1790,1880,2070,2226,2046,1806,1874,1990
75750,15852,-15940,16686,-16082,1691,3800,-14,-8,4,-125,74,3919,-6,9,857,1790,1880,2070,2226,2046,1806,1874,1990
76751,15852,-15944,16686,-16082,1642,3800,-13,-9,5,-134,113,3914,2,-5,858,1788,1880,2068,2224,2045,1805,1874,1989
77752,15872,-15940,16686,-16082,1367,3800,-12,-10,5,-127,108,3925,9,8,857,1788,1880,2068,2224,2045,1805,1874,1989
78753,15872,-15940,16686,-16082,1617,3800,-13,-9,4,-143,91,3911,9,-1,857,1788,1880,2068,2224,2045,1805,1874,1989
79754,15852,-15940,16686,-16082,1893,3800,-14,-7,3,-126,92,3926,-6,3,857,1788,1880,2068,2224,2045,1805,1874,1989
80755,15856,-15944,16686,-16082,1588,3800,-14,-7,5,-134,99,3893,-2,8,858,1788,1880,2068,2224,2045,1805,1874,1989
81756,15852,-15924,16686,-16082,1693,3800,-14,-9,5,-138,99,3926,12,1,857,1788,1880,2068,2224,2045,1805,1874,1989
82757,15856,-15940,16686,-16082,1589,3800,-14,-10,5,-125,123,3922,6,9,857,1789,1881,2070,2228,2047,1808,1874,1992
83758,15860,-15940,16686,-16082,1584,3800,-11,-9,4,-105,123,3918,-5,-3,857,1789,1881,2070,2228,2047,1808,1874,1992
84759,15856,-15936,16686,-16082,1689,3800,-11,-10,1,-115,89,3919,-3,9,857,1789,1881,2070,2228,2047,1808,1874,1992
85760,15856,-15928,16686,-16082,1639,3800,-12,-7,-2,-107,86,3927,9,-2,858,1789,1881,2070,2228,2047,1808,1874,1992
86761,15856,-15932,16686,-16082,1640,3800,-14,-6,2,-122,84,3936,13,5,858,1789,1881,2070,2228,2047,1808,1874,1992
87762,15864,-15940,16686,-16082,1530,3800,-12,-6,3,-140,62,3940,-2,-2,856,1788,1879,2067,2224,2044,1804,1873,1988
88763,15852,-15940,16686,-16082,1795,3800,-12,-10,1,-139,73,3941,-2,-4,858,1788,1879,2067,2224,2044,1804,1873,1988
89764,15856,-15940,16686,-16082,1591,3800,-12,-10,2,-131,111,3914,-3,10,857,1788,1879,2067,2224,2044,1804,1873,1988
90765,15848,-15928,16686,-16082,1750,3800,-13,-9,2,-112,99,3914,-4,-5,857,1788,1879,2067,2224,2044,1804,1873,1988
91766,15860,-15928,16686,-16082,1486,3800,-13,-7,1,-113,95,3918,12,9,857,1788,1879,2067,2224,2044,1804,1873,1988
92767,15852,-15936,16686,-16082,1747,3800,-14,-6,2,-129,85,3933,6,-2,857,1788,1879,2067,2224,2044,1804,1873,1988
93768,15856,-15932,16686,-16082,1592,3800,-16,-6,1,-112,88,3929,-6,9,858,1787,1879,2068,2226,2046,1807,1874,1988
94769,15860,-15944,16686,-16082,1587,3800,-14,-4,-2,-101,76,3906,3,0,858,1787,1879,2068,2226,2046,1807,1874,1988
95770,15864,-15940,16686,-16082,1583,3800,-14,-4,-3,-132,86,3913,9,1,857,1787,1879,2068,2226,2046,1807,1874,1988
96771,15856,-15940,16686,-16082,1743,3800,-14,-6,1,-138,73,3945,12,0,858,1787,1879,2068,2226,2046,1807,1874,1988
97772,15856,-15932,16686,-16082,1643,3800,-13,-7,-2,-130,79,3943,1,3,857,1787,1879,2068,2226,2046,1807,1874,1988
98773,15856,-15940,16686,-16082,1644,3800,-14,-7,-2,-113,78,3936,-6,5,857,1788,1879,2067,2225,2046,1805,1873,1989
99774,15856,-15940,16686,-16082,1644,3800,-14,-4,-1,-129,87,3955,1,2,858,1788,1879,2067,2225,2046,1805,1873,1989
100775,15860,-15932,16686,-16082,1589,3800,-14,-7,0,-137,94,3970,13,6,857,1788,1879,2067,2225,2046,1805,1873,1989
101776,15856,-15936,16686,-16082,1694,3800,-12,-7,-1,-116,93,3952,9,-3,858,1788,1879,2067,2225,2046,1805,1873,1989
102777,15860,-15936,16686,-16082,1590,3800,-12,-9,-1,-107,79,3953,-6,8,857,1788,1879,2067,2225,2046,1805,1873,1989
103778,15860,-15940,16686,-16082,1640,3800,-10,-9,0,-131,101,3909,-3,-5,857,1788,1879,2067,2225,2046,1805,1873,1989
104779,15868,-15928,16686,-16082,1530,3800,-9,-7,-2,-110,68,3892,8,3,856,1787,1879,2070,2228,2046,1806,1876,1992
105780,15860,-15940,16686,-16082,1741,3800,-11,-6,-1,-104,82,3944,12,7,858,1787,1879,2070,2228,2046,1806,1876,1992
106781,15860,-15932,16686,-16082,1641,3800,-13,-7,0,-109,80,3949,3,-5,857,1787,1879,2070,2228,2046,1806,1876,1992
107782,15852,-15932,16686,-16082,1751,3800,-11,-11,-1,-117,72,3928,-6,10,857,1787,1879,2070,2228,2046,1806,1876,1992
108783,15856,-15948,16686,-16082,1597,3800,-10,-9,-1,-109,92,3945,11,-5,858,1787,1879,2070,2228,2046,1806,1876,1992
109784,15852,-15932,16686,-16082,1702,3800,-12,-7,2,-112,81,3932,-1,10,858,1789,1880,2068,2225,2045,1805,1873,1988
110785,15848,-15944,16686,-16082,1706,3800,-13,-5,3,-124,92,3923,-3,-1,858,1789,1880,2068,2225,2045,1805,1873,1988
111786,15856,-15944,16686,-16082,1548,3800,-13,-7,2,-100,97,3967,11,9,857,1789,1880,2068,2225,2045,1805,1873,1988
112787,15856,-15940,16686,-16082,1648,3800,-13,-9,0,-111,112,3933,-6,0,857,1789,1880,2068,2225,2045,1805,1873,1988
113788,15864,-15940,16686,-16082,1538,3800,-12,-9,1,-99,88,3895,-2,2,857,1789,1880,2068,2225,2045,1805,1873,1988
114789,15864,-15924,16686,-16082,1639,3800,-11,-7,2,-100,84,3879,13,5,857,1789,1880,2068,2225,2045,1805,1873,1988
115790,15864,-15932,16686,-16082,1639,3800,-13,-9,2,-112,112,3921,4,-4,858,1785,1875,2067,2223,2043,1806,1871,1991
116791,15856,-15932,16686,-16082,1749,3800,-15,-8,3,-145,95,3924,-4,-1,857,1785,1875,2067,2223,2043,1806,1871,1991
117792,15852,-15928,16686,-16082,1704,3800,-14,-7,4,-122,87,3924,-3,9,857,1785,1875,2067,2223,2043,1806,1871,1991
118793,15864,-15940,16686,-16082,1490,3800,-11,-7,4,-121,98,3910,12,-3,858,1785,1875,2067,2223,2043,1806,1871,1991
119794,15864,-15936,16686,-16082,1640,3800,-10,-9,5,-121,97,3938,11,-1,858,1785,1875,2067,2223,2043,1806,1871,1991
120795,15852,-15944,16686,-16082,1805,3800,-12,-10,5,-141,78,3950,-5,6,857,1787,1880,2068,2225,2045,1805,1873,1988
121796,15860,-15940,16686,-16082,1546,3800,-11,-7,3,-128,84,3945,11,-5,856,1787,1880,2068,2225,2045,1805,1873,1988
122797,15852,-15944,16686,-16082,1756,3800,-13,-4,3,-126,83,3922,9,-4,857,1787,1880,2068,2225,2045,1805,1873,1988
123798,15856,-15936,16686,-16082,1601,3800,-12,-3,3,-129,72,3916,-6,10,857,1787,1880,2068,2225,2045,1805,1873,1988
124799,15856,-15940,16686,-16082,1652,3800,-13,-4,5,-129,99,3935,9,2,857,1787,1880,2068,2225,2045,1805,1873,1988
125800,15856,-15940,16686,-16082,1652,3800,-11,-6,2,-129,93,3945,8,-4,857,1787,1880,2068,2225,2045,1805,1873,1988
126801,15860,-15936,16686,-16082,1597,3800,-10,-5,1,-125,84,3963,-6,10,858,1788,1880,2067,2227,2045,1807,1873,1987
127802,15860,-15940,16686,-16082,1648,3800,-9,-7,1,-112,103,3923,12,-3,858,1788,1880,2067,2227,2045,1807,1873,1987
128803,15856,-15940,16686,-16082,1703,3800,-10,-9,2,-126,92,3916,5,0,858,1788,1880,2067,2227,2045,1807,1873,1987
129804,15852,-15932,16686,-16082,1708,3800,-10,-7,2,-114,103,3936,-1,8,858,1788,1880,2067,2227,2045,1807,1873,1987
130805,15856,-15940,16686,-16082,1604,3800,-12,-5,4,-102,106,3942,10,-5,857,1788,1880,2067,2227,2045,1807,1873,1987
131806,15848,-15936,16686,-16082,1763,3800,-12,-7,3,-134,83,3931,-6,7,858,1787,1879,2067,2226,2046,1807,1874,1990
132807,15864,-15944,16686,-16082,1444,3800,-12,-6,5,-122,87,3903,12,1,857,1787,1879,2067,2226,2046,1807,1874,1990
133808,15856,-15936,16686,-16082,1754,3800,-14,-6,6,-110,82,3923,-5,-3,858,1787,1879,2067,2226,2046,1807,1874,1990
134809,15856,-15944,16686,-16082,1655,3800,-14,-6,4,-131,79,3928,-1,8,858,1787,1879,2067,2226,2046,1807,1874,1990
135810,15852,-15944,16686,-16082,1710,3800,-11,-6,5,-138,86,3934,13,-1,857,1787,1879,2067,2226,2046,1807,1874,1990
136811,15860,-15940,16686,-16082,1550,3800,-10,-8,4,-124,108,3937,-4,-2,858,1787,1879,2067,2226,2046,1807,1874,1990
137812,15864,-15952,16686,-16082,1596,3800,-12,-7,3,-121,78,3921,-2,7,857,1788,1879,2067,2225,2045,1805,1873,1987
138813,15852,-15932,16686,-16082,1811,3800,-15,-8,2,-105,74,3920,13,5,856,1788,1879,2067,2225,2045,1805,1873,1987
139814,15844,-15948,16686,-16082,1770,3800,-17,-5,3,-86,80,3896,12,2,857,1788,1879,2067,2225,2045,1805,1873,1987
140815,15860,-15940,16686,-16082,1452,3800,-12,-4,5,-106,80,3912,7,-5,858,1788,1879,2067,2225,2045,1805,1873,1987
141816,15852,-15944,16686,-16082,1762,3800,-11,-6,6,-127,80,3931,-5,7,858,1788,1879,2067,2225,2045,1805,1873,1987
142817,15852,-15936,16686,-16082,1662,3800,-10,-8,3,-105,74,3925,11,10,858,1788,1879,2068,2225,2045,1806,1873,1988
143818,15868,-15944,16686,-16082,1443,3800,-11,-8,1,-110,83,3935,9,1,858,1788,1879,2068,2225,2045,1806,1873,1988
144819,15852,-15944,16686,-16082,1863,3800,-13,-9,0,-133,113,3918,-6,2,857,1788,1879,2068,2225,2045,1806,1873,1988
145820,15856,-15936,16686,-16082,1608,3800,-13,-9,0,-128,97,3924,7,10,857,1788,1879,2068,2225,2045,1806,1873,1988
146821,15852,-15936,16686,-16082,1714,3800,-13,-10,2,-121,81,3961,12,6,858,1788,1879,2068,2225,2045,1806,1873,1988
147822,15856,-15936,16686,-16082,1609,3800,-14,-10,2,-124,94,3965,5,-5,857,1788,1879,2068,2225,2045,1806,1873,1988
148823,15852,-15940,16686,-16082,1714,3800,-14,-8,2,-127,86,3957,-5,3,857,1787,1879,2067,2226,2046,1807,1871,1987
149824,15848,-15928,16686,-16082,1719,3800,-13,-5,-1,-117,69,3959,3,10,857,1787,1879,2067,2226,2046,1807,1871,1987
150825,15864,-15924,16686,-16082,1450,3800,-15,-7,-1,-101,90,3973,8,-3,857,1787,1879,2067,2226,2046,1807,1871,1987
151826,15856,-15932,16686,-16082,1760,3800,-15,-7,0,-132,100,3937,-5,-2,857,1787,1879,2067,2226,2046,1807,1871,1987
152827,15856,-15928,16686,-16082,1660,3800,-13,-7,-1,-138,91,3918,6,9,858,1787,1879,2067,2226,2046,1807,1871,1987
153828,15860,-15944,16686,-16082,1606,3800,-13,-7,-3,-152,81,3973,11,1,858,1787,1879,2067,2226,2044,1806,1874,1989
154829,15860,-15928,16686,-16082,1656,3800,-13,-7,3,-148,86,3957,-6,-3,858,1787,1879,2067,2226,2044,1806,1874,1989
155830,15852,-15936,16686,-16082,1766,3800,-12,-8,3,-131,99,3947,4,9,856,1787,1879,2067,2226,2044,1806,1874,1989
156831,15852,-15940,16686,-16082,1667,3800,-13,-7,0,-148,100,3936,9,4,857,1787,1879,2067,2226,2044,1806,1874,1989
157832,15864,-15928,16686,-16082,1502,3800,-12,-8,-1,-149,89,3949,13,-3,858,1787,1879,2067,2226,2044,1806,1874,1989
158833,15864,-15924,16686,-16082,1652,3800,-12,-10,-1,-145,68,3937,4,-4,857,1787,1879,2067,2226,2044,1806,1874,1989
159834,15856,-15936,16686,-16082,1763,3800,-15,-11,-3,-130,94,3912,-6,10,858,1789,1879,2068,2225,2044,1805,1873,1987
160835,15856,-15932,16686,-16082,1663,3800,-14,-7,0,-137,114,3929,-4,3,858,1789,1879,2068,2225,2044,1805,1873,1987
161836,15860,-15932,16686,-16082,1608,3800,-16,-4,1,-127,106,3932,-1,-5,858,1789,1879,2068,2225,2044,1805,1873,1987
162837,15868,-15940,16686,-16082,1549,3800,-14,-4,-1,-143,99,3907,12,9,857,1789,1879,2068,2225,2044,1805,1873,1987
163838,15856,-15944,16686,-16082,1814,3800,-13,-5,-1,-153,91,3916,5,6,857,1789,1879,2068,2225,2044,1805,1873,1987
164839,15852,-15944,16686,-16082,1719,3800,-13,-7,1,-135,79,3895,-3,-5,857,1787,1878,2067,2226,2045,1805,1874,1989
165840,15852,-15932,16686,-16082,1670,3800,-17,-10,0,-129,80,3898,-1,9,858,1787,1878,2067,2226,2045,1805,1874,1989
166841,15856,-15944,16686,-16082,1615,3800,-15,-11,0,-129,92,3924,13,6,858,1787,1878,2067,2226,2045,1805,1874,1989
167842,15860,-15944,16686,-16082,1610,3800,-11,-7,0,-124,96,3928,8,-4,858,1787,1878,2067,2226,2045,1805,1874,1989
168843,15856,-15936,16686,-16082,1715,3800,-11,-4,3,-100,67,3954,-6,7,858,1787,1878,2067,2226,2045,1805,1874,1989
169844,15860,-15932,16686,-16082,1611,3800,-12,-8,2,-116,63,3938,5,8,858,1787,1878,2067,2226,2045,1805,1874,1989
170845,15856,-15932,16686,-16082,1716,3800,-15,-10,0,-124,84,3945,12,-2,858,1787,1879,2065,2223,2042,1803,1871,1987
171846,15852,-15940,16686,-16082,1721,3800,-15,-10,-1,-150,96,3948,5,7,857,1787,1879,2065,2223,2042,1803,1871,1987
172847,15856,-15944,16686,-16082,1617,3800,-14,-7,-2,-119,50,3911,-6,4,856,1787,1879,2065,2223,2042,1803,1871,1987
173848,15856,-15944,16686,-16082,1667,3800,-12,-6,0,-123,76,3948,-6,-4,857,1787,1879,2065,2223,2042,1803,1871,1987
174849,15852,-15940,16686,-16082,1722,3800,-11,-6,0,-151,76,3935,-5,9,857,1787,1879,2065,2223,2042,1803,1871,1987
175850,15852,-15944,16686,-16082,1673,3800,-9,-7,4,-117,92,3944,12,-3,857,1789,1881,2069,2227,2045,1805,1874,1990
176851,15868,-15944,16686,-16082,1453,3800,-11,-7,3,-105,93,3950,11,2,857,1789,1881,2069,2227,2045,1805,1874,1990
177852,15860,-15940,16686,-16082,1763,3800,-11,-8,1,-113,81,3951,-6,2,858,1789,1881,2069,2227,2045,1805,1874,1990
178853,15852,-15940,16686,-16082,1774,3800,-13,-8,0,-106,88,3935,6,-2,858,1789,1881,2069,2227,2045,1805,1874,1990
179854,15852,-15936,16686,-16082,1674,3800,-12,-10,0,-109,96,3933,13,9,857,1789,1881,2069,2227,2045,1805,1874,1990
180855,15860,-15932,16686,-16082,1564,3800,-11,-12,0,-103,84,3942,-2,-2,858,1789,1881,2069,2227,2045,1805,1874,1990
181856,15864,-15924,16686,-16082,1610,3800,-11,-10,2,-103,110,3918,0,10,858,1788,1880,2068,2227,2046,1803,1871,1990
182857,15864,-15924,16686,-16082,1660,3800,-13,-8,5,-113,105,3917,8,-3,858,1788,1880,2068,2227,2046,1803,1871,1990
183858,15856,-15936,16686,-16082,1770,3800,-14,-9,6,-124,114,3914,5,7,858,1788,1880,2068,2227,2046,1803,1871,1990
184859,15860,-15932,16686,-16082,1615,3800,-13,-9,5,-97,106,3944,-6,9,857,1788,1880,2068,2227,2046,1803,1871,1990
185860,15856,-15932,16686,-16082,1721,3800,-11,-7,4,-106,70,3952,-6,-3,858,1788,1880,2068,2227,2046,1803,1871,1990
186861,15864,-15940,16686,-16082,1561,3800,-12,-6,3,-112,70,3926,8,4,858,1787,1879,2067,2226,2045,1805,1873,1988
187862,15872,-15932,16686,-16082,1551,3800,-13,-5,4,-129,76,3942,7,9,857,1787,1879,2067,2226,2045,1805,1873,1988
188863,15856,-15936,16686,-16082,1872,3800,-14,-6,2,-117,95,3926,-3,-4,858,1787,1879,2067,2226,2045,1805,1873,1988
189864,15860,-15940,16686,-16082,1617,3800,-12,-7,1,-115,61,3922,-3,3,856,1787,1879,2067,2226,2045,1805,1873,1988
190865,15852,-15932,16686,-16082,1777,3800,-12,-7,1,-110,78,3934,0,1,858,1787,1879,2067,2226,2045,1805,1873,1988
191866,15860,-15928,16686,-16082,1568,3800,-11,-6,1,-107,100,3931,-2,8,857,1787,1879,2067,2226,2045,1805,1873,1988
192867,15860,-15928,16686,-16082,1668,3800,-9,-6,5,-120,77,3894,11,4,858,1789,1879,2065,2223,2046,1807,1876,1990
193868,15864,-15940,16686,-16082,1613,3800,-11,-8,6,-134,86,3911,4,-5,858,1789,1879,2065,2223,2046,1807,1876,1990
194869,15860,-15936,16686,-16082,1719,3800,-15,-7,3,-139,110,3915,-6,1,858,1789,1879,2065,2223,2046,1807,1876,1990
195870,15856,-15956,16686,-16082,1724,3800,-12,-7,0,-134,80,3914,7,9,857,1789,1879,2065,2223,2046,1807,1876,1990
196871,15864,-15940,16686,-16082,1564,3800,-9,-9,3,-133,86,3940,9,0,858,1789,1879,2065,2223,2046,1807,1876,1990
197872,15860,-15940,16686,-16082,1720,3800,-10,-9,5,-144,68,3910,-4,-5,857,1787,1878,2067,2226,2045,1806,1874,1989
198873,15860,-15936,16686,-16082,1670,3800,-13,-7,6,-117,73,3936,0,9,858,1787,1878,2067,2226,2045,1806,1874,1989
199874,15864,-15944,16686,-16082,1615,3800,-14,-4,4,-125,67,3922,12,6,858,1787,1878,2067,2226,2045,1806,1874,1989
200875,15856,-15944,16751,-16017,1617,335,-13,-2,2,-120,97,3910,11,-4,857,1787,1878,2067,2226,2045,1806,1874,1989
201876,15856,-15936,16816,-15952,1596,304,-13,-6,3,-116,69,3915,-4,9,840,1787,1878,2067,2226,2045,1806,1874,1989
202877,15872,-15936,16881,-15887,1456,483,-13,-7,3,-98,72,3926,13,15,841,1787,1878,2067,2226,2045,1806,1874,1989
203878,15900,-15928,16946,-15822,1352,453,-16,-8,4,-137,39,3889,35,24,842,1783,1875,2068,2227,2046,1807,1876,1990
204879,15944,-15924,17011,-15757,1178,578,-22,-5,13,-179,-25,3934,27,25,844,1783,1875,2068,2227,2046,1807,1876,1990
205880,16008,-15916,17076,-15692,929,598,-28,-4,22,-42,51,3947,40,19,845,1783,1875,2068,2227,2046,1807,1876,1990
206881,16076,-15912,17141,-15627,877,722,-31,-27,24,-185,62,3680,39,12,845,1783,1875,2068,2227,2046,1807,1876,1990
207882,16148,-15888,17206,-15562,818,522,-33,-51,18,-370,140,3858,54,14,847,1783,1875,2068,2227,2046,1807,1876,1990
208883,16228,-15880,17271,-15497,701,792,-34,-42,14,-158,33,3997,48,23,849,1787,1881,2068,2228,2049,1807,1874,1992
209884,16336,-15868,17336,-15432,298,807,-27,-29,17,24,-60,3964,65,26,848,1787,1881,2068,2228,2049,1807,1874,1992
210885,16412,-15828,17401,-15367,685,487,-17,-23,21,-109,-21,3937,52,22,851,1787,1881,2068,2228,2049,1807,1874,1992
211886,16496,-15792,17466,-15302,563,573,-12,-17,18,-284,76,4136,47,25,850,1787,1881,2068,2228,2049,1807,1874,1992
212887,16604,-15784,17531,-15237,210,993,-7,-17,20,-147,-6,4002,51,21,851,1787,1881,2068,2228,2049,1807,1874,1992
213888,16680,-15744,17596,-15172,597,624,-6,-24,16,-125,-49,4026,49,32,849,1787,1881,2068,2228,2049,1807,1874,1992
214889,16776,-15692,17661,-15107,310,490,-10,-37,16,-252,-12,3876,63,34,850,1783,1875,2063,2223,2047,1807,1878,1996
215890,16856,-15648,17726,-15042,492,615,-13,-56,11,-322,109,3895,65,36,853,1783,1875,2063,2223,2047,1807,1878,1996
216891,16956,-15588,17791,-14977,199,421,-11,-80,22,-460,40,3775,58,29,851,1783,1875,2063,2223,2047,1807,1878,1996
217892,17024,-15552,17856,-14912,596,758,-14,-95,22,-407,21,3859,45,38,854,1783,1875,2063,2223,2047,1807,1878,1996
218893,17096,-15508,17921,-14847,538,683,-12,-105,21,-266,67,3911,41,35,849,1783,1875,2063,2223,2047,1807,1878,1996
219894,17164,-15448,17986,-14782,584,489,-18,-95,24,-76,97,4075,44,34,850,1792,1881,2066,2228,2044,1804,1875,1992
220895,17240,-15404,18051,-14717,471,715,-13,-118,20,-178,76,3898,54,46,851,1792,1881,2066,2228,2044,1804,1875,1992
221896,17300,-15336,18116,-14652,678,412,-14,-110,16,-446,-44,3955,54,49,851,1792,1881,2066,2228,2044,1804,1875,1992
222897,17356,-15280,18181,-14587,739,573,-8,-94,17,-255,73,4099,54,45,851,1792,1881,2066,2228,2044,1804,1875,1992
223898,17452,-15232,18246,-14522,202,694,7,-85,16,-49,-28,4011,50,49,848,1792,1881,2066,2228,2044,1804,1875,1992
224899,17512,-15164,18311,-14457,658,441,9,-93,8,-179,46,4055,48,51,852,1792,1881,2066,2228,2044,1804,1875,1992
225900,17588,-15104,18376,-14392,444,548,17,-96,9,-462,-26,3875,37,46,851,1796,1888,2073,2233,2042,1803,1875,1989
226901,17644,-15028,18441,-14327,706,334,8,-105,5,-298,15,4120,53,51,852,1796,1888,2073,2233,2042,1803,1875,1989
227902,17724,-14952,18506,-14262,388,321,16,-121,-5,-260,-64,3876,49,37,852,1796,1888,2073,2233,2042,1803,1875,1989
228903,17804,-14892,18571,-14197,370,527,7,-137,-8,-472,-42,3978,54,49,854,1796,1888,2073,2233,2042,1803,1875,1989
229904,17860,-14836,18636,-14132,681,589,13,-145,-14,-391,102,3897,50,36,853,1796,1888,2073,2233,2042,1803,1875,1989
230905,17916,-14764,18701,-14067,693,380,5,-152,-10,-374,-23,3898,48,46,850,1798,1889,2076,2238,2038,1802,1874,1988
231906,17976,-14696,18766,-14002,649,427,11,-162,-19,-262,-36,3995,44,35,851,1798,1889,2076,2238,2038,1802,1874,1988
232907,18036,-14640,18831,-13937,655,589,10,-157,-22,-298,1,3966,35,39,851,1798,1889,2076,2238,2038,1802,1874,1988
233908,18104,-14592,18896,-13872,552,709,18,-158,-20,-314,-21,3979,50,48,850,1798,1889,2076,2238,2038,1802,1874,1988
234909,18152,-14532,18961,-13807,823,566,10,-162,-23,-305,17,3858,45,35,850,1798,1889,2076,2238,2038,1802,1874,1988
235910,18212,-14468,19026,-13742,679,517,26,-158,-36,-300,130,4102,32,42,849,1796,1886,2072,2238,2038,1802,1874,1988
236911,18256,-14396,19091,-13677,906,409,28,-157,-26,-357,25,4059,37,48,850,1796,1886,2072,2235,2041,1803,1871,1985
237912,18316,-14344,19156,-13612,712,675,41,-162,-28,-309,73,4113,47,49,849,1796,1886,2072,2235,2041,1803,1871,1985
238913,18364,-14264,19221,-13547,883,307,50,-156,-38,-277,83,4207,34,51,849,1796,1886,2072,2235,2041,1803,1871,1985
239914,18448,-14208,19286,-13482,409,618,55,-166,-37,-301,78,4000,34,46,850,1796,1886,2072,2235,2041,1803,1871,1985
240915,18488,-14144,19351,-13417,991,520,67,-163,-42,-280,147,4153,49,40,850,1796,1886,2072,2235,2041,1803,1871,1985
241916,18536,-14080,19416,-13352,912,521,67,-171,-60,-262,149,4020,34,45,847,1792,1883,2071,2235,2044,1806,1877,1991
242917,18604,-14012,19481,-13287,658,468,69,-165,-63,-239,-22,4062,38,41,848,1792,1883,2071,2235,2044,1806,1877,1991
243918,18644,-13940,19546,-13222,1040,410,73,-149,-64,-112,89,4011,46,40,851,1792,1883,2071,2235,2044,1806,1877,1991
244919,18708,-13888,19611,-13157,741,676,64,-141,-66,-252,37,3954,33,45,848,1792,1883,2071,2235,2044,1806,1877,1991
245921,18748,-13812,19676,-13092,1071,362,59,-134,-76,-230,74,3887,45,41,849,1792,1883,2071,2235,2044,1806,1877,1991
246921,18804,-13764,19741,-13027,883,733,55,-154,-83,-283,74,3890,51,40,847,1798,1891,2078,2243,2049,1811,1878,1993
247922,18856,-13688,19806,-12962,949,371,55,-158,-78,-300,7,3927,54,42,847,1798,1891,2078,2243,2049,1811,1878,1993
248923,18924,-13624,19871,-12897,747,522,56,-164,-81,-262,12,3990,45,54,849,1798,1891,2078,2243,2049,1811,1878,1993
249924,18976,-13564,19936,-12832,962,578,60,-161,-85,-237,77,4017,43,46,849,1798,1891,2078,2243,2049,1811,1878,1993
250925,19056,-13492,20001,-12767,594,420,70,-161,-82,-123,48,4070,53,49,847,1798,1891,2078,2243,2049,1811,1878,1993
251926,19112,-13444,20066,-12702,906,741,84,-184,-72,-34,-64,3842,56,50,852,1798,1891,2078,2243,2049,1811,1878,1993
252927,19168,-13372,20131,-12637,917,433,119,-195,-90,-287,-129,3794,43,44,847,1796,1886,2075,2236,2050,1809,1877,1990
253928,19236,-13292,20196,-12572,763,314,147,-171,-110,-624,-203,4076,37,40,849,1796,1886,2075,2236,2050,1809,1877,1990
254929,19296,-13244,20261,-12507,870,736,156,-111,-121,-238,-80,4077,46,46,851,1796,1886,2075,2236,2050,1809,1877,1990
255930,19352,-13168,20326,-12442,931,373,155,-64,-121,-51,0,4044,35,35,847,1796,1886,2075,2236,2050,1809,1877,1990
256931,19400,-13112,20391,-12377,1052,634,143,-25,-131,-246,101,3955,50,50,849,1796,1886,2075,2236,2050,1809,1877,1990
257932,19464,-13052,20456,-12312,854,590,135,-38,-139,-487,157,4053,39,39,845,1792,1885,2069,2233,2026,1789,1862,1967
258933,19540,-12996,20521,-12247,691,652,124,-64,-144,-494,155,3897,36,43,848,1792,1885,2069,2233,2026,1789,1862,1967
259934,19588,-12928,20586,-12182,1063,498,110,-91,-142,-298,171,3987,35,34,849,1792,1885,2069,2233,2026,1789,1862,1967
260935,19636,-12864,20651,-12117,1084,549,84,-76,-129,-235,146,3990,49,46,847,1792,1885,2069,2233,2026,1789,1862,1967
261936,19688,-12816,20716,-12052,1049,771,69,-65,-113,-271,35,3912,49,38,847,1792,1885,2069,2233,2026,1789,1862,1967
262937,19760,-12752,20781,-11987,792,572,63,-82,-104,-472,13,3900,44,38,845,1792,1885,2069,2233,2026,1789,1862,1967
263938,19824,-12676,20846,-11922,893,409,81,-96,-118,-462,38,3859,48,38,849,1789,1877,2062,2231,2030,1800,1872,1986
264939,19868,-12620,20911,-11857,1170,670,99,-134,-112,-285,-54,3786,32,36,849,1789,1877,2062,2231,2030,1800,1872,1986
265940,19928,-12552,20976,-11792,976,517,129,-148,-108,-15,-92,3966,36,49,845,1789,1877,2062,2231,2030,1800,1872,1986
266941,19980,-12496,21041,-11727,1092,678,153,-159,-102,43,-30,3933,49,54,847,1789,1877,2062,2231,2030,1800,1872,1986
267942,20032,-12444,21106,-11662,1109,744,175,-146,-106,13,-106,3881,36,43,846,1789,1877,2062,2231,2030,1800,1872,1986
268943,20096,-12384,21171,-11597,960,651,203,-141,-106,-67,-87,3916,44,48,845,1784,1874,2065,2223,2051,1809,1878,1997
269944,20152,-12320,21236,-11532,1072,602,226,-133,-118,-56,40,3843,53,45,847,1784,1874,2065,2223,2051,1809,1878,1997
270945,20196,-12244,21301,-11467,1247,439,238,-117,-124,-44,11,3894,48,54,846,1784,1874,2065,2223,2051,1809,1878,1997
271946,20264,-12176,21366,-11402,944,535,242,-124,-132,-29,143,3943,49,53,845,1784,1874,2065,2223,2051,1809,1878,1997
272947,20332,-12116,21431,-11337,941,642,237,-139,-132,-150,154,3796,38,43,847,1784,1874,2065,2223,2051,1809,1878,1997
273948,20400,-12072,21496,-11272,937,868,228,-166,-132,-317,146,3773,41,40,847,1784,1874,2065,2223,2051,1809,1878,1997
274949,20464,-11996,21561,-11207,990,455,212,-176,-138,-351,202,3734,41,47,844,1796,1891,2075,2235,2036,1792,1868,1983
275950,20524,-11936,21626,-11142,1046,662,186,-190,-128,-298,154,3806,43,36,847,1796,1891,2075,2235,2036,1792,1868,1983
276951,20576,-11876,21691,-11077,1162,668,158,-186,-111,-221,118,3853,33,47,846,1796,1891,2075,2235,2036,1792,1868,1983
277952,20644,-11820,21756,-11012,959,729,139,-186,-102,-211,174,3864,34,51,845,1796,1891,2075,2235,2036,1792,1868,1983
278953,20696,-11736,21821,-10947,1175,357,125,-194,-95,-211,86,3858,51,54,846,1796,1891,2075,2235,2036,1792,1868,1983
279954,20752,-11700,21886,-10882,1137,992,128,-203,-85,-264,4,3995,35,38,846,1796,1891,2071,2225,2036,1795,1869,1991
280955,20804,-11640,21951,-10817,1203,698,140,-210,-79,-100,25,4018,35,49,842,1796,1891,2071,2225,2036,1795,1869,1991
281956,20856,-11572,22016,-10752,1220,594,160,-192,-75,62,-34,4066,50,51,844,1796,1891,2071,2225,2036,1795,1869,1991
282957,20916,-11516,22081,-10687,1126,756,177,-186,-71,116,14,4012,51,50,844,1796,1891,2071,2225,2036,1795,1869,1991
283958,20980,-11452,22146,-10622,1077,658,196,-154,-65,91,27,4252,40,50,844,1796,1891,2071,2225,2036,1795,1869,1991
284959,21036,-11392,22211,-10557,1189,714,216,-124,-68,239,39,4141,44,55,846,1796,1891,2071,2225,2036,1795,1869,1991
285960,21088,-11328,22276,-10492,1255,666,229,-87,-77,355,-26,3964,53,49,844,1778,1871,2061,2217,2058,1815,1881,1998
286961,21140,-11256,22341,-10427,1272,557,245,-84,-65,-3,235,4184,53,50,843,1778,1871,2061,2217,2058,1815,1881,1998
287962,21200,-11188,22406,-10362,1178,604,262,-91,-54,-73,327,3980,45,46,844,1778,1871,2061,2217,2058,1815,1881,1998
288963,21260,-11128,22471,-10297,1185,711,276,-118,-64,4,232,3969,47,46,845,1778,1871,2061,2217,2058,1815,1881,1998
289964,21304,-11060,22536,-10232,1410,607,296,-134,-80,100,338,4347,47,52,844,1778,1871,2061,2217,2058,1815,1881,1998
290965,21372,-11016,22601,-10167,1108,933,299,-144,-76,-83,257,4000,38,41,842,1789,1878,2077,2249,2058,1821,1885,1992
291966,21432,-10944,22666,-10102,1214,575,296,-159,-76,-89,324,3962,46,52,841,1789,1878,2077,2249,2058,1821,1885,1992
292967,21480,-10876,22731,-10037,1386,622,279,-169,-76,-55,313,3829,46,43,844,1789,1878,2077,2249,2058,1821,1885,1992
293968,21536,-10828,22796,-9972,1297,892,257,-186,-75,-53,249,3759,57,54,843,1789,1878,2077,2249,2058,1821,1885,1992
294969,21592,-10756,22861,-9907,1308,585,231,-188,-70,1,163,3935,59,46,842,1789,1878,2077,2249,2058,1821,1885,1992
295970,21664,-10680,22926,-9842,1100,521,217,-181,-66,94,244,3928,65,53,843,1789,1878,2077,2249,2058,1821,1885,1992
296971,21744,-10612,22991,-9777,982,618,214,-145,-57,198,210,4084,61,44,846,1816,1904,2096,2267,2047,1812,1876,1992
297972,21812,-10552,23056,-9712,1129,725,217,-95,-45,178,60,4142,41,35,846,1816,1904,2096,2267,2047,1812,1876,1992
298973,21880,-10508,23121,-9647,1125,951,217,-54,-47,141,38,4078,58,46,844,1816,1904,2096,2267,2047,1812,1876,1992
299974,21960,-10464,23186,-9582,958,976,213,-7,-50,240,34,4047,51,39,842,1816,1904,2096,2267,2047,1812,1876,1992
300975,22024,-10396,23251,-9517,1159,672,210,26,-51,246,102,4113,38,33,844,1816,1904,2096,2267,2047,1812,1876,1992
301976,22080,-10340,23316,-9452,1271,834,219,56,-45,76,146,4111,39,37,844,1798,1892,2081,2234,2052,1807,1874,1996
302977,22140,-10284,23381,-9387,1227,845,238,82,-56,55,177,4423,53,45,842,1798,1892,2081,2234,2052,1807,1874,1996
303978,22200,-10232,23446,-9322,1234,911,262,88,-67,33,125,4321,51,48,842,1798,1892,2081,2234,2052,1807,1874,1996
304979,22260,-10172,23511,-9257,1241,818,274,80,-69,-102,183,4299,45,40,842,1798,1892,2081,2234,2052,1807,1874,1996
305980,22324,-10120,23576,-9192,1193,934,278,49,-75,-167,387,4178,40,49,842,1798,1892,2081,2234,2052,1807,1874,1996
306981,22376,-10048,23641,-9127,1359,677,279,38,-89,-192,442,4163,38,37,842,1798,1892,2081,2234,2052,1807,1874,1996
307982,22440,-9980,23706,-9062,1211,723,272,35,-109,-108,488,4231,51,43,842,1776,1872,2064,2220,2057,1812,1879,1997
308983,22496,-9936,23771,-8997,1322,1049,264,34,-116,-31,412,4148,42,35,842,1776,1872,2064,2220,2057,1812,1879,1997
309984,22560,-9868,23836,-8932,1224,746,258,33,-114,-59,401,4036,52,50,839,1776,1872,2064,2220,2057,1812,1879,1997
310985,22608,-9824,23901,-8867,1445,1072,244,44,-114,19,454,4070,42,36,843,1776,1872,2064,2220,2057,1812,1879,1997
311986,22664,-9772,23966,-8802,1357,988,238,59,-122,153,454,4040,58,39,838,1776,1872,2064,2220,2057,1812,1879,1997
312987,22728,-9720,24031,-8737,1258,1004,233,76,-129,214,513,4028,53,49,839,1783,1878,2072,2235,2068,1826,1893,2014
313988,22800,-9644,24096,-8672,1151,691,229,83,-114,22,157,3895,59,53,841,1783,1878,2072,2235,2068,1826,1893,2014
314989,22844,-9584,24161,-8607,1526,897,228,81,-99,192,428,3977,55,48,844,1783,1878,2072,2235,2068,1826,1893,2014
315990,22916,-9544,24226,-8542,1169,1179,231,83,-103,31,413,3827,42,46,838,1783,1878,2072,2235,2068,1826,1893,2014
316991,22984,-9492,24291,-8477,1215,1045,237,96,-99,100,225,4025,50,50,839,1783,1878,2072,2235,2068,1826,1893,2014
317992,23072,-9428,24356,-8412,938,897,241,94,-95,293,235,3837,57,36,841,1783,1878,2072,2235,2068,1826,1893,2014
318993,23140,-9376,24421,-8347,1184,1063,240,85,-74,-161,90,3626,62,40,844,1792,1884,2081,2240,2070,1824,1885,2007
319994,23200,-9320,24486,-8282,1291,1024,228,73,-69,-272,287,4000,52,35,840,1792,1884,2081,2240,2070,1824,1885,2007
320995,23256,-9252,24551,-8217,1352,871,224,74,-84,0,372,3818,39,45,840,1792,1884,2081,2240,2070,1824,1885,2007
321996,23328,-9192,24616,-8152,1144,977,211,60,-90,131,300,3886,53,53,840,1792,1884,2081,2240,2070,1824,1885,2007
322997,23404,-9136,24681,-8087,1081,1038,208,37,-107,-6,449,3994,47,43,842,1792,1884,2081,2240,2070,1824,1885,2007
323998,23444,-9096,24746,-8022,1562,1270,216,30,-128,-119,455,4093,47,48,841,1783,1877,2070,2220,2049,1801,1866,1988
324999,23500,-9020,24811,-7957,1374,806,219,49,-143,224,308,4173,38,46,835,1783,1877,2070,2220,2049,1801,1866,1988
326000,23560,-8960,24876,-7892,1330,1013,213,51,-151,3,471,3909,39,39,840,1783,1877,2070,2220,2049,1801,1866,1988
327001,23628,-8912,24941,-7827,1227,1184,202,70,-171,-163,610,4327,50,41,839,1783,1877,2070,2220,2049,1801,1866,1988
328002,23680,-8856,25006,-7762,1443,1096,189,84,-173,-167,474,4036,54,45,839,1783,1877,2070,2220,2049,1801,1866,1988
329003,23740,-8800,25071,-7697,1350,1107,184,83,-178,-80,565,4041,40,35,837,1783,1877,2070,2220,2049,1801,1866,1988
330004,23816,-8736,25136,-7632,1137,1008,186,49,-178,-133,617,4063,44,52,838,1776,1868,2064,2216,2043,1800,1872,1996
331005,23868,-8688,25201,-7567,1454,1230,181,36,-164,-184,417,3917,44,38,842,1776,1868,2064,2216,2043,1800,1872,1996
332006,23920,-8628,25266,-7502,1470,1086,172,12,-149,-175,606,3745,56,38,836,1776,1868,2064,2216,2043,1800,1872,1996
333007,23992,-8572,25331,-7437,1212,1148,169,26,-137,-324,585,3876,46,52,837,1776,1868,2064,2216,2043,1800,1872,1996
334008,24048,-8492,25396,-7372,1423,830,174,31,-136,12,496,4047,48,45,839,1776,1868,2064,2216,2043,1800,1872,1996
335009,24104,-8440,25461,-7307,1435,1196,187,55,-127,92,451,3873,47,47,840,1776,1857,2049,2236,2071,1808,1872,2016
336010,24148,-8392,25526,-7242,1612,1267,198,48,-108,-32,544,3924,58,52,836,1776,1857,2049,2236,2071,1808,1872,2016
337011,24252,-8344,25591,-7177,814,1288,225,56,-110,266,575,4115,48,38,834,1776,1857,2049,2236,2071,1808,1872,2016
338012,24340,-8276,25656,-7112,987,1035,245,56,-117,430,600,3946,51,41,841,1776,1857,2049,2236,2071,1808,1872,2016
339013,24396,-8232,25721,-7047,1398,1361,256,71,-121,-242,524,3839,59,37,843,1776,1857,2049,2236,2071,1808,1872,2016
340014,24480,-8160,25786,-6982,1026,1003,252,69,-120,-611,461,3762,46,42,836,1776,1857,2049,2236,2071,1808,1872,2016
341015,24532,-8112,25851,-6917,1442,1324,253,87,-135,-218,611,4124,45,53,843,1787,1883,2083,2245,2063,1819,1880,1996
342016,24600,-8044,25916,-6852,1239,1072,245,89,-121,-434,473,3748,44,37,835,1787,1883,2083,2245,2063,1819,1880,1996
343017,24684,-8000,25981,-6787,1016,1397,232,51,-129,-447,758,3906,47,43,838,1787,1883,2083,2245,2063,1819,1880,1996
344018,24736,-7936,26046,-6722,1433,1148,211,-34,-158,-28,666,3662,43,50,839,1787,1883,2083,2245,2063,1819,1880,1996
345019,24792,-7852,26111,-6657,1394,876,200,-98,-162,351,564,3893,54,50,836,1787,1883,2083,2245,2063,1819,1880,1996
346020,24856,-7796,26176,-6592,1296,1237,191,-136,-161,-339,744,3735,54,44,840,1796,1881,2080,2240,2039,1798,1863,1986
347021,24904,-7760,26241,-6527,1517,1524,184,-138,-178,-540,719,4031,56,46,838,1796,1881,2080,2240,2039,1798,1863,1986
348022,24968,-7704,26306,-6462,1319,1285,182,-118,-183,360,531,4171,57,35,832,1796,1881,2080,2240,2039,1798,1863,1986
349023,25032,-7656,26371,-6397,1320,1406,194,-83,-182,592,664,4104,45,37,837,1796,1881,2080,2240,2039,1798,1863,1986
350024,25104,-7600,26436,-6332,1212,1317,199,-43,-170,-241,418,4067,54,37,836,1796,1881,2080,2240,2039,1798,1863,1986
351025,25156,-7544,26501,-6267,1478,1329,196,-10,-153,-112,422,4202,55,43,838,1796,1881,2080,2240,2039,1798,1863,1986
352026,25212,-7480,26566,-6202,1440,1231,209,16,-135,61,515,4029,45,34,835,1788,1880,2068,2214,2042,1796,1868,1996
353027,25284,-7412,26631,-6137,1232,1178,221,24,-118,-27,391,4122,44,43,835,1788,1880,2068,2214,2042,1796,1868,1996
354028,25324,-7360,26696,-6072,1663,1394,246,32,-127,-9,557,4356,47,51,838,1788,1880,2068,2214,2042,1796,1868,1996
355029,25380,-7304,26761,-6007,1474,1356,255,12,-108,11,369,3933,54,46,832,1788,1880,2068,2214,2042,1796,1868,1996
356030,25436,-7244,26826,-5942,1486,1312,262,6,-117,442,768,4349,47,40,834,1788,1880,2068,2214,2042,1796,1868,1996
357031,25512,-7188,26891,-5877,1223,1374,275,3,-141,-333,840,3936,57,53,835,1777,1875,2070,2224,2058,1810,1879,2003
358032,25596,-7128,26956,-5812,1101,1330,287,-31,-159,-612,700,4153,53,53,837,1777,1875,2070,2224,2058,1810,1879,2003
359033,25664,-7060,27021,-5747,1297,1227,298,-70,-166,-13,615,3927,56,51,838,1777,1875,2070,2224,2058,1810,1879,2003
360034,25752,-7008,27086,-5682,1020,1443,319,-116,-177,24,697,4004,39,39,836,1777,1875,2070,2224,2058,1810,1879,2003
361035,25816,-6948,27151,-5617,1321,1350,328,-89,-201,-422,630,4339,45,53,837,1777,1875,2070,2224,2058,1810,1879,2003
362036,25868,-6856,27216,-5552,1488,917,351,-21,-205,-554,437,4113,43,52,836,1777,1875,2070,2224,2058,1810,1879,2003
363037,25924,-6812,27281,-5487,1449,1544,358,3,-204,-191,545,4108,48,50,838,1798,1895,2094,2260,2060,1816,1884,1999
364038,25980,-6736,27346,-5422,1461,1131,362,48,-208,-273,366,4349,56,53,833,1798,1895,2094,2260,2060,1816,1884,1999
365039,26036,-6696,27411,-5357,1472,1612,365,70,-215,-147,380,4162,51,40,837,1798,1895,2094,2260,2060,1816,1884,1999
366040,26116,-6636,27476,-5292,1155,1368,367,82,-207,-189,358,4159,54,38,832,1798,1895,2094,2260,2060,1816,1884,1999
367041,26180,-6580,27541,-5227,1356,1430,357,48,-216,149,436,3858,46,54,837,1798,1895,2094,2260,2060,1816,1884,1999
368042,26240,-6520,27606,-5162,1413,1386,345,-8,-232,421,393,3931,58,41,835,1826,1913,2111,2289,2045,1811,1875,1985
369043,26304,-6464,27671,-5097,1364,1448,349,-59,-241,279,401,3916,60,53,834,1826,1913,2111,2289,2045,1811,1875,1985
370044,26372,-6396,27736,-5032,1312,1295,345,-91,-254,-106,378,3778,63,54,834,1826,1913,2111,2289,2045,1811,1875,1985
371045,26436,-6348,27801,-4967,1363,1566,360,-91,-273,-84,329,4128,57,43,836,1826,1913,2111,2289,2045,1811,1875,1985
372046,26508,-6292,27866,-4902,1255,1477,360,-70,-288,480,323,4212,48,49,834,1826,1913,2111,2289,2045,1811,1875,1985
373047,26580,-6256,27931,-4837,1247,1764,371,-18,-305,496,215,4142,66,46,835,1826,1913,2111,2289,2045,1811,1875,1985
374048,26636,-6200,27996,-4772,1459,1525,373,5,-307,46,230,4104,63,35,832,1824,1904,2096,2256,2016,1792,1872,1984
375049,26708,-6152,28061,-4707,1250,1646,387,30,-312,242,119,4437,67,41,832,1824,1904,2096,2256,2016,1792,1872,1984
376050,26760,-6096,28126,-4642,1517,1557,398,44,-317,738,203,4251,65,45,833,1824,1904,2096,2256,2016,1792,1872,1984
377051,26824,-6052,28191,-4577,1368,1734,426,83,-348,454,429,4413,51,41,830,1824,1904,2096,2256,2016,1792,1872,1984
378052,26912,-5996,28256,-4512,1041,1596,445,132,-367,-153,477,4349,51,39,830,1824,1904,2096,2256,2016,1792,1872,1984
379053,26992,-5964,28321,-4447,1124,1936,470,134,-395,-76,552,4304,56,44,835,1781,1877,2059,2217,2045,1801,1871,1993
380054,27092,-5904,28386,-4382,831,1593,478,139,-410,52,376,4242,48,39,830,1781,1877,2059,2217,2045,1801,1871,1993
381055,27156,-5868,28451,-4317,1283,1929,490,136,-433,-190,447,4147,47,30,836,1781,1877,2059,2217,2045,1801,1871,1993
382056,27228,-5820,28516,-4252,1175,1801,493,151,-444,-647,553,4320,45,37,828,1781,1877,2059,2217,2045,1801,1871,1993
383057,27288,-5788,28581,-4187,1331,2041,499,156,-443,-832,360,4242,44,35,831,1781,1877,2059,2217,2045,1801,1871,1993
384058,27336,-5732,28646,-4122,1503,1753,488,171,-425,-708,131,4341,48,41,826,1781,1877,2059,2217,2045,1801,1871,1993
385059,27416,-5668,28711,-4057,1084,1655,483,154,-423,-626,337,3997,55,28,829,1771,1871,2063,2237,2054,1812,1884,2000
386060,27468,-5644,28776,-3992,1451,2205,460,141,-431,-445,366,4102,58,47,834,1771,1871,2063,2237,2054,1812,1884,2000
387061,27552,-5576,28841,-3927,1028,1652,450,72,-445,243,415,3691,46,39,823,1771,1871,2063,2237,2054,1812,1884,2000
388062,27616,-5524,28906,-3862,1280,1869,428,-39,-452,728,442,3676,47,34,835,1771,1871,2063,2237,2054,1812,1884,2000
389063,27692,-5484,28971,-3797,1117,2050,431,-57,-467,198,440,3680,57,46,830,1771,1871,2063,2237,2054,1812,1884,2000
390064,27748,-5424,29036,-3732,1379,1807,430,-104,-471,-727,339,3501,57,50,829,1802,1895,2096,2260,2079,1837,1901,2029
391065,27820,-5352,29101,-3667,1170,1648,432,-91,-499,563,308,4527,48,38,830,1802,1895,2096,2260,2079,1837,1901,2029
392066,27892,-5280,29166,-3602,1163,1641,438,-11,-511,913,163,3582,66,52,834,1802,1895,2096,2260,2079,1837,1901,2029
393067,27952,-5232,29231,-3537,1319,1963,438,-23,-511,39,227,3905,52,51,834,1802,1895,2096,2260,2079,1837,1901,2029
394068,28008,-5180,29296,-3472,1381,1928,450,29,-510,260,31,4309,50,40,827,1802,1895,2096,2260,2079,1837,1901,2029
395069,28064,-5096,29361,-3407,1392,1506,456,-14,-526,1290,172,3473,65,48,828,1802,1895,2096,2260,2079,1837,1901,2029
396070,28160,-5024,29426,-3342,855,1649,458,-8,-532,762,355,4577,61,58,834,1796,1885,2080,2225,2068,1814,1879,2008
397071,28240,-4948,29491,-3277,1037,1585,478,-2,-549,-260,463,3883,49,51,836,1796,1885,2080,2225,2068,1814,1879,2008
398072,28328,-4876,29556,-3212,910,1628,479,-84,-558,-316,456,4453,53,55,836,1796,1885,2080,2225,2068,1814,1879,2008
399073,28416,-4832,29621,-3147,881,2004,496,-63,-563,-224,404,4551,59,46,836,1796,1885,2080,2225,2068,1814,1879,2008
400074,28492,-4756,29686,-3082,1019,1591,480,-79,-576,-337,810,4139,49,53,832,1796,1885,2080,2225,2068,1814,1879,2008
401075,28560,-4696,29751,-3017,1115,1798,462,-67,-577,-858,643,4829,49,49,835,1768,1864,2050,2200,2040,1788,1864,1986
402076,28624,-4596,29816,-2952,1168,1255,436,-50,-549,-1092,454,4242,39,46,833,1768,1864,2050,2200,2040,1788,1864,1986
403077,28676,-4540,29881,-2887,1333,1817,423,-79,-533,-1199,639,4429,41,39,837,1768,1864,2050,2200,2040,1788,1864,1986
404078,28768,-4476,29946,-2822,801,1720,412,-117,-519,-730,789,4281,46,45,831,1768,1864,2050,2200,2040,1788,1864,1986
405079,28836,-4416,30011,-2757,1098,1776,391,-201,-502,107,540,3875,58,36,836,1768,1864,2050,2200,2040,1788,1864,1986
406080,28896,-4352,30076,-2692,1204,1728,379,-279,-481,-435,585,3890,45,48,834,1768,1864,2050,2200,2040,1788,1864,1986
407081,28956,-4284,30141,-2627,1211,1675,380,-329,-468,-1308,701,3550,58,36,833,1780,1881,2072,2235,2069,1820,1894,2026
408082,29036,-4212,30206,-2562,943,1617,388,-366,-474,-555,645,3973,45,48,833,1780,1881,2072,2235,2069,1820,1894,2026
409083,29100,-4160,30271,-2497,1145,1884,394,-359,-457,158,390,3784,61,44,835,1780,1881,2072,2235,2069,1820,1894,2026
410084,29180,-4108,30336,-2432,927,1899,421,-361,-440,148,429,3766,61,43,832,1780,1881,2072,2235,2069,1820,1894,2026
411085,29240,-4052,30401,-2367,1184,1861,436,-363,-438,-230,406,3719,52,48,831,1780,1881,2072,2235,2069,1820,1894,2026
412086,29292,-3996,30466,-2302,1300,1873,452,-375,-436,57,463,3799,59,41,832,1806,1895,2103,2252,2090,1838,1900,2032
413087,29348,-3932,30531,-2237,1262,1775,469,-340,-436,496,491,3990,53,39,830,1806,1895,2103,2252,2090,1838,1900,2032
414088,29460,-3844,30596,-2172,504,1448,493,-328,-443,635,496,3829,61,49,832,1806,1895,2103,2252,2090,1838,1900,2032
415089,29564,-3804,30661,-2107,557,2079,502,-335,-437,552,586,4032,61,39,840,1806,1895,2103,2252,2090,1838,1900,2032
416090,29644,-3740,30726,-2042,839,1780,498,-327,-422,69,476,3880,59,39,834,1806,1895,2103,2252,2090,1838,1900,2032
417091,29708,-3672,30791,-1977,1041,1728,487,-321,-420,-345,697,4035,41,37,835,1806,1895,2103,2252,2090,1838,1900,2032
418092,29772,-3604,30856,-1912,1043,1725,479,-354,-421,-637,754,4110,52,43,833,1814,1899,2092,2244,2040,1790,1853,1968
419093,29840,-3536,30921,-1847,989,1721,464,-386,-407,-516,803,4305,36,46,834,1814,1899,2092,2244,2040,1790,1853,1968
420094,29912,-3476,30986,-1782,931,1828,444,-399,-388,-452,861,4241,49,51,834,1814,1899,2092,2244,2040,1790,1853,1968
421097,29964,-3432,31051,-1717,1197,2055,427,-405,-376,-705,1042,4136,54,38,834,1814,1899,2092,2244,2040,1790,1853,1968
422096,30032,-3352,31116,-1652,994,1587,421,-465,-360,-707,1037,4006,39,50,830,1814,1899,2092,2244,2040,1790,1853,1968
423097,30100,-3300,31181,-1587,991,1954,400,-589,-347,-489,953,3915,59,52,836,1779,1862,2055,2222,2021,1779,1848,1968
424098,30168,-3224,31246,-1522,987,1640,399,-676,-305,-954,911,3900,51,40,832,1779,1862,2055,2222,2021,1779,1848,1968
425099,30236,-3160,31311,-1457,985,1792,408,-710,-247,-1277,706,4018,47,46,835,1779,1862,2055,2222,2021,1779,1848,1968
426100,30308,-3096,31376,-1392,926,1795,418,-699,-190,-823,734,3914,41,49,834,1779,1862,2055,2222,2021,1779,1848,1968
427101,30376,-3052,31441,-1327,973,2070,451,-683,-134,-502,672,3948,42,33,834,1779,1862,2055,2222,2021,1779,1848,1968
428102,30456,-2988,31506,-1262,805,1822,467,-677,-106,-430,643,3783,41,46,829,1779,1862,2055,2222,2021,1779,1848,1968
429103,30524,-2904,31571,-1197,952,1550,489,-678,-79,-398,764,3850,60,35,835,1775,1870,2068,2214,2060,1807,1876,2018
430104,30568,-2852,31636,-1132,1278,1966,511,-639,-57,-115,871,3976,44,53,837,1775,1870,2068,2214,2060,1807,1876,2018
431105,30640,-2764,31701,-1067,920,1489,531,-605,-41,104,795,3757,61,50,830,1775,1870,2068,2214,2060,1807,1876,2018
432106,30716,-2716,31766,-1002,856,2011,543,-585,-45,155,906,3972,56,48,837,1775,1870,2068,2214,2060,1807,1876,2018
433107,30748,-2640,31831,-937,1448,1647,547,-567,-43,112,846,3761,59,39,832,1775,1870,2068,2214,2060,1807,1876,2018
434108,30816,-2568,31896,-872,994,1690,542,-542,-41,360,988,3781,47,46,831,1800,1888,2088,2236,2070,1816,1877,2006
435109,30904,-2512,31961,-807,717,1902,527,-531,-41,118,1102,3797,49,46,835,1800,1888,2088,2236,2070,1816,1877,2006
436110,30984,-2452,32026,-742,798,1858,515,-568,-41,-318,1093,3697,66,40,835,1800,1888,2088,2236,2070,1816,1877,2006
437111,31076,-2368,32091,-677,616,1536,497,-626,-59,-562,1198,3952,52,43,835,1800,1888,2088,2236,2070,1816,1877,2006
438112,31168,-2308,32156,-612,584,1843,486,-628,-57,-689,899,3921,55,46,839,1800,1888,2088,2236,2070,1816,1877,2006
439113,31224,-2248,32221,-547,1045,1849,461,-635,-27,-644,864,3912,53,50,837,1800,1888,2088,2236,2070,1816,1877,2006
440114,31312,-2192,32286,-482,616,1911,443,-684,4,-1117,863,3923,52,48,833,1798,1875,2080,2235,2049,1804,1860,1981
441115,31384,-2120,32351,-417,809,1703,425,-775,23,-710,905,3862,61,36,834,1798,1875,2080,2235,2049,1804,1860,1981
442116,31456,-2056,32416,-352,800,1805,413,-887,59,-225,832,4012,45,36,836,1798,1875,2080,2235,2049,1804,1860,1981
443117,31536,-1996,32481,-287,683,1862,404,-946,100,-467,1001,3844,57,37,834,1798,1875,2080,2235,2049,1804,1860,1981
444118,31604,-1928,32546,-222,829,1758,401,-969,121,-852,1036,3883,47,35,835,1798,1875,2080,2235,2049,1804,1860,1981
445119,31684,-1880,32611,-157,661,2030,392,-983,151,-449,978,4021,61,35,833,1772,1856,2060,2208,2056,1810,1869,2006
446120,31748,-1812,32676,-92,863,1777,394,-961,195,220,1030,4074,44,48,833,1772,1856,2060,2208,2056,1810,1869,2006
447121,31808,-1752,32741,-27,919,1883,391,-934,245,-258,861,3970,53,39,834,1772,1856,2060,2208,2056,1810,1869,2006
448122,31880,-1692,32806,38,761,1890,408,-918,290,-505,893,4019,59,39,833,1772,1856,2060,2208,2056,1810,1869,2006
449123,31952,-1620,32871,103,753,1733,421,-905,333,-96,968,4036,59,46,834,1772,1856,2060,2208,2056,1810,1869,2006
450124,32008,-1548,33070,302,1815,2575,428,-879,354,53,876,3790,42,34,836,1772,1856,2060,2208,2056,1810,1869,2006
451125,32088,-1504,33135,367,1497,2951,423,-878,371,-154,1026,3897,45,34,819,1761,1858,2057,2191,2076,1817,1880,2024
452126,32180,-1436,33200,432,1315,2649,412,-875,388,-93,1183,4038,57,40,812,1761,1858,2057,2191,2076,1817,1880,2024
453127,32256,-1336,33265,497,1501,2206,391,-887,385,282,1105,3827,73,24,818,1761,1858,2057,2191,2076,1817,1880,2024
454128,32368,-1252,33330,562,995,2384,368,-916,387,-330,1034,3782,73,36,823,1761,1858,2057,2191,2076,1817,1880,2024
455129,32468,-1148,33395,627,1102,2087,353,-918,378,-997,1109,4031,72,58,827,1761,1858,2057,2191,2076,1817,1880,2024
456130,32584,-1036,33460,692,840,1931,331,-923,374,-1112,929,3711,69,55,829,1781,1878,2079,2208,2080,1829,1887,2020
457131,32704,-944,33525,757,724,2148,311,-974,370,-116,1096,3896,84,72,833,1781,1878,2079,2208,2080,1829,1887,2020
458132,32796,-836,33590,822,1041,1896,284,-1092,367,62,1080,3817,71,59,833,1781,1878,2079,2208,2080,1829,1887,2020
459133,32900,-720,33655,887,843,1734,268,-1171,364,-746,1232,4044,77,71,834,1781,1878,2079,2208,2080,1829,1887,2020
460134,32996,-616,33720,952,906,1838,253,-1217,345,-740,1346,3715,79,66,836,1781,1878,2079,2208,2080,1829,1887,2020
461135,33096,-524,33785,1017,814,1956,247,-1228,335,-198,1398,4147,67,70,835,1776,1868,2079,2208,2080,1829,1887,2020
462136,33208,-412,33850,1082,606,1648,237,-1235,347,264,1281,4176,68,74,833,1776,1868,2065,2209,2081,1827,1882,2020
463137,33304,-308,33915,1147,768,1702,238,-1226,362,-108,1086,4044,63,68,838,1776,1868,2065,2209,2081,1827,1882,2020
464138,33420,-196,33980,1212,457,1544,221,-1210,396,-365,1278,4412,77,58,838,1776,1868,2065,2209,2081,1827,1882,2020
465139,33548,-100,34045,1277,230,1707,230,-1194,437,32,1297,4050,61,70,841,1776,1868,2065,2209,2081,1827,1882,2020
466140,33640,20,34110,1342,647,1340,219,-1207,512,425,697,3696,59,55,841,1776,1868,2065,2209,2081,1827,1882,2020
467141,33744,104,34175,1407,450,1768,180,-1186,592,-1280,1349,3941,62,53,842,1780,1876,2084,2224,2080,1832,1882,2019
468142,33836,192,34240,1472,567,1690,167,-1140,604,-1289,1061,3942,66,49,839,1780,1876,2084,2224,2080,1832,1882,2019
469143,33912,272,34305,1537,753,1773,158,-1141,635,300,1529,4105,55,66,839,1780,1876,2084,2224,2080,1832,1882,2019
470144,33992,388,34370,1602,686,1260,141,-1165,656,979,1562,4108,68,49,838,1780,1876,2084,2224,2080,1832,1882,2019
471146,34076,472,34435,1667,613,1638,117,-1207,664,-450,1408,3813,65,54,842,1780,1876,2084,2224,2080,1832,1882,2019
472146,34168,556,34500,1732,480,1615,96,-1228,663,-1198,1593,3806,61,57,840,1776,1869,2080,2223,2076,1827,1875,2007
473147,34244,640,34565,1797,666,1593,74,-1245,651,-357,1315,3691,54,52,840,1776,1869,2080,2223,2076,1827,1875,2007
474148,34332,712,34630,1862,488,1734,46,-1247,657,237,1193,4087,53,50,839,1776,1869,2080,2223,2076,1827,1875,2007
475149,34404,816,34695,1927,680,1288,19,-1238,665,-290,1432,3838,48,50,839,1776,1869,2080,2223,2076,1827,1875,2007
476150,34484,932,34760,1992,561,1075,14,-1260,650,-474,1163,3651,62,57,842,1776,1869,2080,2223,2076,1827,1875,2007
477151,34556,1016,34825,2057,653,1452,-16,-1332,636,-41,1002,3699,63,55,845,1776,1869,2080,2223,2076,1827,1875,2007
478152,34644,1120,34890,2122,426,1156,-88,-1329,604,-568,1110,3798,59,46,842,1764,1852,2064,2202,2080,1824,1866,2003
479153,34712,1204,34955,2187,672,1382,-214,-1168,556,-375,1224,3631,50,49,844,1764,1852,2064,2202,2080,1824,1866,2003
480154,34784,1276,35020,2252,614,1525,-355,-936,534,422,1028,3461,47,49,843,1764,1852,2064,2202,2080,1824,1866,2003
481155,34872,1380,35085,2317,386,1077,-454,-799,550,370,1043,3626,59,50,840,1764,1852,2064,2202,2080,1824,1866,2003
482156,34948,1476,35150,2382,522,1139,-463,-760,601,-296,889,3769,41,59,846,1764,1852,2064,2202,2080,1824,1866,2003
483157,35028,1552,35215,2447,454,1377,-415,-785,642,-555,631,3647,55,47,846,1735,1822,2029,2150,2114,1858,1892,2036
484158,35104,1660,35280,2512,490,925,-337,-816,679,-489,720,3583,49,47,844,1735,1822,2029,2150,2114,1858,1892,2036
485159,35176,1732,35345,2577,532,1366,-292,-811,723,-148,787,3580,59,45,847,1735,1822,2029,2150,2114,1858,1892,2036
486160,35248,1804,35410,2642,523,1358,-298,-742,782,-50,755,3532,57,60,844,1735,1822,2029,2150,2114,1858,1892,2036
487161,35328,1904,35475,2707,405,966,-317,-651,842,-73,955,3540,56,48,843,1735,1822,2029,2150,2114,1858,1892,2036
488162,35380,1988,35540,2772,771,1143,-344,-573,891,-176,1058,3535,53,59,847,1735,1822,2029,2150,2114,1858,1892,2036
489163,35468,2072,35605,2837,293,1120,-363,-541,925,-239,1166,3229,56,45,845,1668,1760,1983,2122,2113,1858,1884,2000
490164,35540,2152,35670,2902,484,1152,-393,-540,958,-262,1244,3090,54,43,847,1668,1760,1983,2122,2113,1858,1884,2000
491165,35600,2224,35735,2967,640,1243,-432,-567,995,-241,1180,3120,56,53,846,1668,1760,1983,2122,2113,1858,1884,2000
492166,35664,2292,35800,3032,592,1290,-480,-579,1022,-114,1254,2980,39,48,844,1668,1760,1983,2122,2113,1858,1884,2000
493167,35728,2380,35865,3097,594,1013,-528,-537,1038,-162,1121,2947,43,56,844,1668,1760,1983,2122,2113,1858,1884,2000
494168,35796,2468,35930,3162,540,985,-585,-458,1046,140,1156,3176,48,54,846,1694,1779,1996,2156,2043,1799,1837,1943
495169,35868,2548,35995,3227,482,1066,-641,-400,1042,269,1071,2895,52,49,847,1694,1779,1996,2156,2043,1799,1837,1943
496170,35932,2632,36060,3292,583,993,-683,-330,1048,340,1063,3149,53,52,845,1694,1779,1996,2156,2043,1799,1837,1943
497171,35984,2728,36125,3357,749,806,-713,-265,1060,655,958,2802,40,55,846,1694,1779,1996,2156,2043,1799,1837,1943
498172,36056,2808,36190,3422,490,988,-729,-229,1059,493,726,2879,51,46,847,1694,1779,1996,2156,2043,1799,1837,1943
499173,36144,2900,36255,3487,262,805,-745,-209,1058,228,664,3086,57,42,847,1694,1779,1996,2156,2043,1799,1837,1943
500174,36220,2980,36320,3552,399,937,-751,-175,1069,139,427,2961,56,54,850,1731,1813,2023,2167,2006,1766,1813,1932
501175,36300,3064,36385,3617,330,865,-758,-122,1091,281,396,3047,36,46,849,1731,1813,2023,2167,2006,1766,1813,1932
502176,36356,3140,36450,3682,641,951,-756,-84,1129,236,412,3093,43,55,849,1731,1813,2023,2167,2006,1766,1813,1932
503177,36428,3216,36515,3747,433,938,-741,-63,1160,218,356,2841,44,54,847,1731,1813,2023,2167,2006,1766,1813,1932
504178,36500,3292,36580,3812,424,924,-731,-84,1195,43,546,2938,49,49,847,1731,1813,2023,2167,2006,1766,1813,1932
505179,36560,3364,36645,3877,580,966,-722,-104,1234,-15,622,2872,52,54,849,1730,1824,2024,2157,2000,1756,1814,1937
506180,36632,3428,36710,3942,422,1068,-723,-108,1267,339,722,2914,37,55,847,1730,1824,2024,2157,2000,1756,1814,1937
507181,36688,3520,36775,4007,633,685,-724,-119,1316,219,821,2878,54,52,847,1730,1824,2024,2157,2000,1756,1814,1937
508182,36768,3588,36840,4072,314,981,-724,-120,1370,62,817,2908,55,57,848,1730,1824,2024,2157,2000,1756,1814,1937
509183,36852,3652,36905,4137,241,1033,-735,-145,1411,268,896,2797,35,59,849,1730,1824,2024,2157,2000,1756,1814,1937
510184,36912,3728,36970,4202,547,869,-743,-175,1458,278,891,2839,45,59,848,1730,1824,2024,2157,2000,1756,1814,1937
511185,36968,3816,37035,4267,608,692,-748,-208,1485,491,1032,2946,42,63,848,1742,1844,2025,2174,2000,1761,1836,1946
512186,37020,3908,37100,4332,674,609,-747,-237,1508,506,970,2900,49,57,848,1742,1844,2025,2174,2000,1761,1836,1946
513187,37104,4004,37165,4397,251,521,-719,-234,1526,825,1117,3271,35,57,847,1742,1844,2025,2174,2000,1761,1836,1946
514188,37156,4092,37230,4462,667,593,-687,-257,1537,1038,958,2843,45,46,851,1742,1844,2025,2174,2000,1761,1836,1946
515189,37216,4184,37295,4527,573,510,-657,-289,1515,809,711,3173,47,48,851,1742,1844,2025,2174,2000,1761,1836,1946
516190,37280,4264,37360,4592,524,642,-634,-330,1512,660,686,3264,37,46,850,1746,1843,2018,2167,2012,1770,1841,1955
517191,37352,4348,37425,4657,416,569,-606,-355,1513,709,542,3141,36,56,850,1746,1843,2018,2167,2012,1770,1841,1955
518192,37400,4420,37490,4722,736,711,-577,-366,1512,1019,501,3326,47,53,851,1746,1843,2018,2167,2012,1770,1841,1955
519193,37472,4500,37555,4787,428,593,-546,-400,1509,813,468,3266,45,54,850,1746,1843,2018,2167,2012,1770,1841,1955
520194,37548,4592,37620,4852,364,410,-516,-409,1492,722,439,3419,54,56,850,1746,1843,2018,2167,2012,1770,1841,1955
521195,37620,4668,37685,4917,406,596,-497,-422,1468,747,301,3269,38,59,852,1746,1843,2018,2167,2012,1770,1841,1955
522196,37676,4748,37750,4982,617,528,-491,-433,1457,790,328,3428,48,55,852,1749,1856,2033,2176,1999,1755,1825,1946
523197,37744,4836,37815,5047,463,400,-499,-441,1466,614,343,3323,50,54,851,1749,1856,2033,2176,1999,1755,1825,1946
524198,37816,4908,37880,5112,405,592,-504,-438,1467,437,356,3301,41,56,852,1749,1856,2033,2176,1999,1755,1825,1946
525199,37900,4976,37945,5177,232,638,-523,-443,1472,420,297,3427,40,59,852,1749,1856,2033,2176,1999,1755,1825,1946
526200,37968,5068,38010,5242,429,305,-539,-462,1489,427,295,3108,54,47,852,1749,1856,2033,2176,1999,1755,1825,1946
527201,38040,5160,38075,5307,370,272,-566,-467,1496,328,339,3281,47,43,853,1770,1883,2060,2201,1997,1759,1835,1955
528202,38104,5244,38140,5372,471,349,-574,-459,1511,452,390,3329,44,44,854,1770,1883,2060,2201,1997,1759,1835,1955
529203,38184,5328,38205,5437,253,326,-580,-455,1512,575,412,3226,56,53,853,1770,1883,2060,2201,1997,1759,1835,1955
530204,38240,5400,38270,5502,564,467,-579,-431,1510,537,400,3508,53,57,853,1770,1883,2060,2201,1997,1759,1835,1955
531205,38320,5476,38335,5567,246,405,-580,-398,1495,627,495,3498,51,46,853,1770,1883,2060,2201,1997,1759,1835,1955
532206,38396,5560,38400,5632,282,281,-573,-357,1486,798,350,3549,51,58,853,1770,1883,2060,2201,1997,1759,1835,1955
533207,38456,5652,38465,5697,488,148,-561,-327,1476,880,493,3729,51,51,854,1762,1876,2047,2186,2038,1799,1869,1986
534208,38528,5720,38530,5762,330,445,-530,-305,1458,809,502,3602,38,53,854,1762,1876,2047,2186,2038,1799,1869,1986
535209,38604,5804,38595,5827,267,222,-509,-273,1425,855,393,3751,49,59,853,1762,1876,2047,2186,2038,1799,1869,1986
536210,38684,5880,38660,5892,198,308,-480,-254,1387,1006,412,3727,53,58,854,1762,1876,2047,2186,2038,1799,1869,1986
537211,38740,5964,38725,5957,509,185,-435,-212,1362,995,275,4148,51,51,855,1762,1876,2047,2186,2038,1799,1869,1986
538212,38824,6052,38790,6022,136,107,-406,-147,1328,767,457,3881,46,49,854,1718,1822,2004,2150,2071,1827,1880,1990
539213,38896,6136,38855,6087,277,134,-406,-118,1302,780,586,3516,38,56,855,1718,1822,2004,2150,2071,1827,1880,1990
540214,38988,6232,38920,6152,-6,-54,-417,-96,1279,832,312,3890,36,46,856,1718,1822,2004,2150,2071,1827,1880,1990
541215,39060,6364,38985,6217,235,-586,-423,-83,1246,798,124,3852,41,57,856,1718,1822,2004,2150,2071,1827,1880,1990
542216,39116,6488,39050,6282,446,-559,-400,-30,1226,815,532,4095,48,46,854,1718,1822,2004,2150,2071,1827,1880,1990
543217,39208,6596,39115,6347,-37,-411,-374,12,1200,704,490,3480,50,50,851,1718,1822,2004,2150,2071,1827,1880,1990
544218,39284,6680,39180,6412,150,-135,-372,11,1150,417,82,3921,39,45,853,1715,1820,2011,2169,2053,1816,1867,1971
545219,39356,6728,39245,6477,191,336,-391,-9,1121,321,16,3783,39,36,855,1715,1820,2011,2169,2053,1816,1867,1971
546220,39452,6804,39310,6542,-147,-27,-407,0,1117,430,132,3786,51,35,856,1715,1820,2011,2169,2053,1816,1867,1971
547221,39564,6872,39375,6607,-404,69,-428,35,1126,731,12,3826,53,45,850,1715,1820,2011,2169,2053,1816,1867,1971
548222,39716,6940,39440,6672,-1010,65,-447,95,1119,778,-105,3679,38,45,843,1715,1820,2011,2169,2053,1816,1867,1971
549223,39824,7000,39505,6737,-513,171,-480,142,1092,773,-147,3693,43,44,856,1747,1862,2051,2204,2031,1888,1952,1975
550224,39952,7064,39570,6802,-840,123,-506,194,1066,737,-97,3679,47,38,856,1747,1862,2051,2204,2031,1888,1952,1975
551225,40036,7144,39635,6867,-313,-96,-539,251,1043,558,88,3584,38,35,856,1747,1862,2051,2204,2031,1888,1952,1975
552226,40100,7224,39700,6932,-62,-115,-556,305,994,628,211,3425,45,43,856,1747,1862,2051,2204,2031,1888,1952,1975
553227,40172,7276,39765,6997,-171,251,-557,303,953,607,170,3515,40,42,856,1747,1862,2051,2204,2031,1888,1952,1975
554228,40252,7344,39830,7062,-290,47,-534,296,900,693,228,3782,36,38,851,1747,1862,2051,2204,2031,1888,1952,1975
555229,40300,7424,39895,7127,131,-121,-496,265,851,647,32,3599,39,37,843,1770,1878,2060,2196,2050,1806,1874,1997
556230,40388,7496,39960,7192,-397,-30,-453,247,808,595,51,3986,50,44,857,1770,1878,2060,2196,2050,1806,1874,1997
557231,40464,7560,40025,7257,-260,72,-414,233,784,366,-102,3696,55,53,852,1770,1878,2060,2196,2050,1806,1874,1997
558232,40536,7628,40090,7322,-219,18,-386,239,765,416,-264,4044,45,49,857,1770,1878,2060,2196,2050,1806,1874,1997
559233,40604,7704,40155,7387,-174,-95,-363,247,749,570,-220,4059,51,43,856,1770,1878,2060,2196,2050,1806,1874,1997
560234,40664,7780,40220,7452,-67,-109,-357,240,750,497,-133,3953,38,55,857,1733,1850,2018,2157,2040,1794,1869,1984
561235,40756,7856,40285,7517,-500,-123,-357,249,764,352,-194,4027,53,49,846,1733,1850,2018,2157,2040,1794,1869,1984
562236,40832,7940,40350,7582,-314,-247,-368,227,766,600,-22,3818,39,51,855,1733,1850,2018,2157,2040,1794,1869,1984
563237,40904,8000,40415,7647,-272,60,-377,206,730,582,99,3791,37,46,856,1733,1850,2018,2157,2040,1794,1869,1984
564238,40976,8096,40480,7712,-281,-428,-396,181,700,430,95,3794,38,43,845,1733,1850,2018,2157,2040,1794,1869,1984
565239,41056,8172,40545,7777,-400,-192,-399,184,662,392,157,3873,56,42,856,1733,1850,2018,2157,2040,1794,1869,1984
566240,41136,8236,40610,7842,-419,-40,-397,177,625,530,76,3634,49,54,855,1742,1857,2017,2171,2032,1796,1875,1982
567241,41196,8316,40675,7907,-162,-259,-399,152,590,378,-43,3593,42,52,856,1742,1857,2017,2171,2032,1796,1875,1982
568242,41268,8400,40740,7972,-321,-333,-399,86,555,174,-127,3282,52,40,853,1742,1857,2017,2171,2032,1796,1875,1982
569243,41332,8460,40805,8037,-220,-27,-398,15,529,48,-307,3409,55,42,856,1742,1857,2017,2171,2032,1796,1875,1982
570244,41420,8540,40870,8102,-549,-295,-382,0,515,202,-512,3347,40,48,855,1742,1857,2017,2171,2032,1796,1875,1982
571245,41520,8600,40935,8167,-742,-39,-366,-21,513,303,-658,3459,44,48,843,1765,1873,2043,2199,2047,1795,1879,1995
572246,41576,8668,41000,8232,-181,-143,-344,-6,497,322,-818,3598,59,42,854,1765,1873,2043,2199,2047,1795,1879,1995
573247,41656,8748,41065,8297,-499,-311,-325,3,479,134,-668,3425,58,56,857,1765,1873,2043,2199,2047,1795,1879,1995
574248,41748,8808,41130,8362,-682,-56,-307,22,478,-29,-766,3710,44,43,846,1765,1873,2043,2199,2047,1795,1879,1995
575249,41840,8888,41195,8427,-716,-324,-287,46,479,314,-848,3623,57,49,856,1765,1873,2043,2199,2047,1795,1879,1995
576250,41932,8964,41260,8492,-749,-288,-272,48,470,236,-669,3685,49,48,855,1765,1873,2043,2199,2047,1795,1879,1995
577251,42020,9032,41325,8557,-727,-191,-269,28,447,-148,-551,3481,60,50,855,1770,1878,2027,2166,2034,1791,1861,1971
578252,42124,9100,41390,8622,-975,-195,-277,11,437,-177,-649,3697,57,41,856,1770,1878,2027,2166,2034,1791,1861,1971
579253,42204,9168,41455,8687,-694,-200,-292,-7,423,59,-417,3566,59,39,856,1770,1878,2027,2166,2034,1791,1861,1971
580254,42296,9256,41520,8752,-877,-478,-304,-57,410,-191,-392,3253,51,54,855,1770,1878,2027,2166,2034,1791,1861,1971
581255,42392,9320,41585,8817,-965,-177,-324,-122,391,-494,-343,3488,49,46,855,1770,1878,2027,2166,2034,1791,1861,1971
582256,42480,9384,41650,8882,-894,-175,-344,-207,376,-296,-462,3401,48,36,853,1764,1866,2030,2190,1990,1775,1854,1951
583257,42560,9452,41715,8947,-812,-229,-340,-264,372,34,-476,3581,56,39,856,1764,1866,2030,2190,1990,1775,1854,1951
584258,42668,9528,41780,9012,-1214,-343,-343,-284,376,64,-554,3679,67,49,856,1764,1866,2030,2190,1990,1775,1854,1951
585259,42756,9596,41845,9077,-994,-247,-355,-200,375,210,-616,3941,53,48,856,1764,1866,2030,2190,1990,1775,1854,1951
586260,42876,9648,41910,9142,-1461,-31,-363,-110,379,580,-524,3994,52,39,856,1764,1866,2030,2190,1990,1775,1854,1951
587261,42972,9724,41975,9207,-1199,-345,-373,-16,391,656,-819,4241,59,52,856,1764,1866,2030,2190,1990,1775,1854,1951
588262,43068,9780,42040,9272,-1237,-84,-383,63,423,416,-888,4152,59,44,857,1747,1828,2008,2172,2027,1798,1876,1984
589263,43204,9856,42105,9337,-1824,-348,-398,165,447,-43,-880,4126,68,51,855,1747,1828,2008,2172,2027,1798,1876,1984
590264,43284,9936,42170,9402,-1143,-416,-422,226,456,-29,-983,3774,74,47,856,1747,1828,2008,2172,2027,1798,1876,1984
591265,43384,10012,42235,9467,-1436,-380,-422,182,434,113,-1013,3780,66,36,855,1747,1828,2008,2172,2027,1798,1876,1984
592266,43528,10068,42300,9532,-2083,-119,-403,77,419,-609,-992,3448,74,39,854,1747,1828,2008,2172,2027,1798,1876,1984
593267,43628,10132,42365,9597,-1576,-218,-385,-85,398,-783,-768,3495,64,45,855,1758,1848,2040,2221,2095,1867,1916,2019
594268,43744,10192,42430,9662,-1839,-162,-366,-230,365,-760,-831,3648,72,46,857,1758,1848,2040,2221,2095,1867,1916,2019
595269,43848,10252,42495,9727,-1737,-156,-336,-343,339,-997,-770,3529,64,38,856,1758,1848,2040,2221,2095,1867,1916,2019
596270,43968,10320,42560,9792,-2004,-260,-299,-395,304,-658,-1022,3675,61,36,856,1758,1848,2040,2221,2095,1867,1916,2019
597271,44084,10364,42625,9857,-2018,66,-274,-443,271,-169,-1194,3508,65,36,847,1758,1848,2040,2221,2095,1867,1916,2019
598272,44220,10436,42690,9922,-2355,-293,-259,-555,246,50,-902,3201,70,40,855,1758,1848,2040,2221,2095,1867,1916,2019
599273,44320,10496,42755,9987,-1948,-138,-239,-618,225,211,-949,3289,66,51,855,1785,1880,2083,2265,2100,1860,1917,2015
600274,44460,10560,42820,10052,-2540,-187,-244,-619,215,56,-1022,3452,66,46,856,1785,1880,2083,2265,2100,1860,1917,2015
601275,44604,10636,42885,10117,-2687,-350,-277,-478,242,212,-1111,4159,81,46,852,1785,1880,2083,2265,2100,1860,1917,2015
602276,44720,10700,42950,10182,-2400,-199,-340,-238,306,979,-1071,4754,86,54,856,1785,1880,2083,2265,2100,1860,1917,2015
603277,44844,10776,43015,10247,-2573,-362,-432,-45,363,1173,-956,4716,83,52,855,1785,1880,2083,2265,2100,1860,1917,2015
604278,44976,10844,43080,10312,-2755,-267,-519,73,387,349,-1008,4765,71,46,856,1837,1936,2093,2268,1997,1761,1864,1957
605279,45108,10908,43145,10377,-2838,-216,-597,76,404,-70,-1039,4606,70,46,853,1837,1936,2093,2268,1997,1761,1864,1957
606280,45220,10968,43210,10442,-2646,-160,-656,-16,434,-506,-1305,4209,69,33,856,1837,1936,2093,2268,1997,1761,1864,1957
607281,45348,11024,43275,10507,-2924,-99,-688,-178,461,-902,-1083,4312,72,36,856,1837,1936,2093,2268,1997,1761,1864,1957
608282,45492,11096,43340,10572,-3220,-307,-670,-375,448,-910,-1062,4417,82,33,856,1837,1936,2093,2268,1997,1761,1864,1957
609283,45628,11148,43405,10637,-3208,-42,-633,-613,427,-1349,-1048,4106,87,49,856,1837,1936,2093,2268,1997,1761,1864,1957
610284,45756,11204,43470,10702,-3186,-81,-540,-790,357,-983,-1009,4744,79,43,856,1808,1896,2060,2251,2055,1834,1907,2013
611285,45908,11264,43535,10767,-3593,-125,-461,-935,292,-895,-1168,4173,76,50,857,1808,1896,2060,2251,2055,1834,1907,2013
612286,46044,11332,43600,10832,-3481,-229,-380,-1048,236,167,-1111,4532,73,39,857,1808,1896,2060,2251,2055,1834,1907,2013
613287,46196,11392,43665,10897,-3788,-123,-311,-1123,187,890,-1263,4086,78,34,856,1808,1896,2060,2251,2055,1834,1907,2013
614288,46328,11440,43730,10962,-3621,47,-252,-1103,157,626,-1216,4182,81,42,856,1808,1896,2060,2251,2055,1834,1907,2013
615289,46464,11500,43795,11027,-3759,-97,-228,-903,160,739,-935,4680,88,51,855,1812,1913,2107,2290,2137,1890,1967,2079
616290,46608,11556,43860,11092,-3800,-36,-265,-688,186,1351,-758,4088,75,49,856,1812,1913,2107,2290,2137,1890,1967,2079
617291,46736,11620,43925,11157,-3800,-135,-330,-512,206,1389,-734,4359,82,54,856,1812,1913,2107,2290,2137,1890,1967,2079
618292,46868,11672,43990,11222,-3800,31,-430,-409,217,1282,-786,3961,93,46,857,1812,1913,2107,2290,2137,1890,1967,2079
619293,47024,11732,44055,11287,-3800,-63,-519,-371,236,742,-728,3843,77,42,857,1812,1913,2107,2290,2137,1890,1967,2079
620294,47168,11792,44120,11352,-3800,-58,-605,-366,279,111,-929,3862,88,50,857,1812,1913,2107,2290,2137,1890,1967,2079
621295,47296,11868,44185,11417,-3800,-271,-672,-418,326,-46,-1194,3994,79,50,857,1892,1960,2160,2362,2088,1861,1933,2012
622296,47464,11920,44250,11482,-3800,45,-724,-520,376,-845,-1252,4079,82,49,857,1892,1960,2160,2362,2088,1861,1933,2012
623297,47592,11984,44315,11547,-3800,-104,-741,-627,420,-1195,-1410,4460,81,55,856,1892,1960,2160,2362,2088,1861,1933,2012
624298,47720,12064,44380,11612,-3800,-322,-723,-766,427,-610,-1253,4608,93,48,857,1892,1960,2160,2362,2088,1861,1933,2012
625299,47868,12124,44445,11677,-3800,-66,-680,-891,413,-295,-1364,4959,79,51,856,1892,1960,2160,2362,2088,1861,1933,2012
626300,47976,12188,44510,11742,-3800,-116,-603,-948,383,152,-1479,5468,83,53,844,1821,1896,2092,2279,2093,1868,1899,1999
627301,48132,12240,44575,11807,-3800,50,-535,-951,382,174,-1569,5331,77,52,857,1821,1896,2092,2279,2093,1868,1899,1999
628302,48256,12308,44640,11872,-3800,-154,-468,-776,365,777,-1549,6389,90,44,856,1821,1896,2092,2279,2093,1868,1899,1999
629303,48396,12356,44705,11937,-3800,117,-430,-581,354,1507,-1394,5299,76,40,857,1821,1896,2092,2279,2093,1868,1899,1999
630304,48508,12432,44770,12002,-3800,-246,-413,-378,337,1862,-1347,5524,74,40,842,1821,1896,2092,2279,2093,1868,1899,1999
631305,48624,12472,44835,12067,-3800,233,-446,-178,319,2055,-1000,5290,74,41,857,1821,1896,2092,2279,2093,1868,1899,1999
632306,48776,12536,44900,12132,-3800,-66,-470,42,296,1515,-818,5181,86,50,854,1769,1857,2071,2264,2105,1872,1929,2019
633307,48888,12596,44965,12197,-3800,-10,-504,178,284,1434,-794,4995,85,53,855,1769,1857,2071,2264,2105,1872,1929,2019
634308,48980,12652,45030,12262,-3800,51,-528,245,271,1485,-767,4535,78,50,852,1769,1857,2071,2264,2105,1872,1929,2019
635309,49136,12712,45095,12327,-3800,8,-569,244,271,844,-515,4242,77,41,857,1769,1857,2071,2264,2105,1872,1929,2019
636310,49256,12768,45160,12392,-3800,69,-616,214,290,-96,-807,3962,60,36,857,1769,1857,2071,2264,2105,1872,1929,2019
637311,49360,12836,45225,12457,-3800,-85,-644,141,295,31,-786,4217,62,42,857,1866,1947,2160,2410,2130,1896,1972,2032
638312,49488,12888,45290,12522,-3800,130,-639,67,313,29,-894,3965,67,40,854,1866,1947,2160,2410,2130,1896,1972,2032
639313,49588,12944,45355,12587,-3800,91,-604,36,320,200,-1112,4539,59,47,857,1866,1947,2160,2410,2130,1896,1972,2032
640314,49672,13008,45420,12652,-3800,-8,-565,60,336,697,-1431,4731,56,42,857,1866,1947,2160,2410,2130,1896,1972,2032
641315,49800,13072,45485,12717,-3800,-7,-521,118,345,1010,-1304,4809,74,38,857,1866,1947,2160,2410,2130,1896,1972,2032
642316,49888,13156,45550,12782,-3800,-280,-479,166,353,858,-1412,5014,59,38,856,1866,1947,2160,2410,2130,1896,1972,2032
643317,49988,13216,45615,12847,-3800,26,-427,226,347,1599,-1398,5176,64,49,857,1891,1974,2161,2414,2120,1894,1942,2014
644318,50092,13260,45680,12912,-3800,252,-365,231,325,1824,-1325,4705,59,46,856,1891,1974,2161,2414,2120,1894,1942,2014
645319,50184,13312,45745,12977,-3800,167,-302,238,281,1494,-1166,4948,54,38,857,1891,1974,2161,2414,2120,1894,1942,2014
646322,50264,13384,45810,13042,-3800,-92,-265,294,265,1568,-1501,4896,48,37,856,1891,1974,2161,2414,2120,1894,1942,2014
647321,50360,13440,45875,13107,-3800,119,-227,350,248,2206,-1113,4784,65,40,857,1891,1974,2161,2414,2120,1894,1942,2014
648322,50440,13496,45940,13172,-3800,130,-195,418,225,1896,-1011,4815,53,36,857,1873,1961,2150,2358,2029,1800,1875,1950
649323,50512,13552,46005,13237,-3800,141,-191,438,190,1578,-1106,4566,49,36,855,1873,1961,2150,2358,2029,1800,1875,1950
650324,50596,13612,46070,13302,-3800,97,-202,488,169,1808,-1170,4776,55,45,855,1873,1961,2150,2358,2029,1800,1875,1950
651325,50696,13672,46135,13367,-3800,103,-210,519,139,2226,-818,4658,43,35,857,1873,1961,2150,2358,2029,1800,1875,1950
652326,50772,13712,46200,13432,-3800,384,-202,517,102,1505,-855,4306,56,-50,857,1873,1961,2150,2358,2029,1800,1875,1950
653327,50832,13744,46265,13497,-3800,523,-180,453,63,940,-932,4457,41,46,857,1873,1961,2150,2358,2029,1800,1875,1950
654328,50908,13740,46330,13562,-3800,1057,-157,355,45,760,-1026,4112,46,46,855,1878,1972,2129,2340,1969,1756,1852,1928
655329,50984,13784,46395,13627,-3800,483,-124,270,16,893,-768,4181,46,43,855,1878,1972,2129,2340,1969,1756,1852,1928
656330,51068,13848,46460,13692,-3800,234,-77,166,-9,730,-868,3456,52,56,850,1878,1972,2129,2340,1969,1756,1852,1928
657331,51128,13912,46525,13757,-3800,235,-27,116,-26,461,-894,3985,36,59,854,1878,1972,2129,2340,1969,1756,1852,1928
658332,51200,14000,46590,13822,-3800,-93,30,71,-33,863,-1079,3357,30,56,856,1878,1972,2129,2340,1969,1756,1852,1928
659333,51268,14064,46655,13887,-3800,208,93,59,-29,1049,-1078,3743,45,50,856,1865,1963,2126,2337,2014,1794,1868,1972
660334,51340,14140,46720,13952,-3800,45,151,69,-44,1050,-983,3499,45,49,857,1865,1963,2126,2337,2014,1794,1868,1972
661335,51388,14224,46785,14017,-3800,-78,196,84,-53,977,-927,3464,29,43,856,1865,1963,2126,2337,2014,1794,1868,1972
662336,51444,14300,46850,14082,-3800,8,234,100,-56,1007,-947,3469,40,45,857,1865,1963,2126,2337,2014,1794,1868,1972
663337,51492,14392,46915,14147,-3800,-225,273,101,-57,1311,-914,3238,39,48,847,1865,1963,2126,2337,2014,1794,1868,1972
664338,51536,14448,46980,14212,-3800,236,292,95,-61,1312,-911,3313,27,41,857,1865,1963,2126,2337,2014,1794,1868,1972
665339,51592,14512,47045,14277,-3800,138,318,85,-81,982,-834,3478,30,40,856,1845,1938,2106,2292,2020,1797,1871,1950
666340,51624,14588,47110,14342,-3800,-27,334,87,-91,973,-863,3284,36,40,854,1845,1938,2106,2292,2020,1797,1871,1950
667341,51672,14660,47175,14407,-3800,15,360,68,-102,910,-853,3565,18,35,849,1845,1938,2106,2292,2020,1797,1871,1950
668342,51712,14716,47240,14472,-3800,226,381,51,-112,659,-852,3473,28,33,857,1845,1938,2106,2292,2020,1797,1871,1950
669343,51752,14788,47305,14537,-3800,17,405,19,-128,692,-754,3526,33,41,857,1845,1938,2106,2292,2020,1797,1871,1950
670344,51788,14840,47370,14602,-3800,283,419,-13,-136,607,-775,3630,19,36,856,1800,1880,2057,2252,1982,1765,1828,1906
671345,51808,14896,47435,14667,-3800,244,443,-29,-144,480,-793,3586,30,42,854,1800,1880,2057,2252,1982,1765,1828,1906
672346,51836,14948,47500,14732,-3800,310,473,-33,-148,485,-795,3580,28,45,856,1800,1880,2057,2252,1982,1765,1828,1906
673347,51864,15020,47565,14797,-3800,51,484,-25,-152,411,-734,3543,16,32,856,1800,1880,2057,2252,1982,1765,1828,1906
674348,51888,15052,47630,14862,-3800,592,496,-9,-151,334,-641,3484,10,30,856,1800,1880,2057,2252,1982,1765,1828,1906
675349,51920,15116,47695,14927,-3800,193,509,23,-147,357,-641,3604,20,31,856,1800,1880,2057,2252,1982,1765,1828,1906
676350,51952,15196,47760,14992,-3800,-26,517,59,-147,236,-596,3406,26,46,854,1773,1847,2037,2235,1975,1761,1827,1913
677351,51948,15252,47825,15057,-3800,284,524,97,-126,211,-589,3355,8,45,856,1773,1847,2037,2235,1975,1761,1827,1913
678352,51976,15308,47890,15122,-3800,295,536,133,-98,102,-544,3386,7,42,857,1773,1847,2037,2235,1975,1761,1827,1913
679353,51988,15356,47955,15187,-3800,416,554,166,-78,6,-422,3412,23,38,855,1773,1847,2037,2235,1975,1761,1827,1913
680354,52016,15416,48020,15252,-3800,272,563,199,-63,-72,-416,3371,6,45,856,1773,1847,2037,2235,1975,1761,1827,1913
681355,52008,15492,48085,15317,-3592,59,581,218,-37,22,-280,3219,19,35,855,1787,1867,2059,2260,2022,1804,1868,1948
682356,52028,15532,48150,15382,-3800,539,600,253,-8,-49,-318,3434,21,44,856,1787,1867,2059,2260,2022,1804,1868,1948
683357,52040,15604,48215,15447,-3726,131,625,270,19,47,-286,3294,7,31,854,1787,1867,2059,2260,2022,1804,1868,1948
684358,52056,15660,48280,15512,-3717,342,646,295,41,32,-232,3453,16,30,852,1787,1867,2059,2260,2022,1804,1868,1948
685359,52064,15740,48345,15577,-3549,24,673,312,56,45,-235,3324,15,32,857,1787,1867,2059,2260,2022,1804,1868,1948
686360,52048,15808,48410,15642,-3151,170,699,349,62,-30,-234,3580,0,36,856,1787,1867,2059,2260,2022,1804,1868,1948
687361,52076,15868,48475,15707,-3657,276,730,376,60,103,-186,3466,-1,33,857,1809,1885,2086,2286,2038,1819,1875,1966
688362,52068,15932,48540,15772,-3120,227,755,384,64,281,-121,3504,18,41,856,1809,1885,2086,2286,2038,1819,1875,1966
689363,52064,15972,48605,15837,-3087,558,773,392,68,89,-67,3695,-1,42,856,1809,1885,2086,2286,2038,1819,1875,1966
690364,52060,16044,48670,15902,-3005,149,785,412,72,153,-88,3721,2,29,856,1809,1885,2086,2286,2038,1819,1875,1966
691365,52068,16100,48735,15967,-3086,360,799,438,73,217,-88,3916,-3,38,854,1809,1885,2086,2286,2038,1819,1875,1966
692366,52076,16160,48800,16032,-3018,315,823,459,68,67,-65,4035,-3,44,857,1820,1886,2092,2287,2019,1797,1851,1939
693367,52072,16216,48865,16097,-2784,376,839,468,84,189,-142,3963,6,35,856,1820,1886,2092,2287,2019,1797,1851,1939
694368,52060,16272,48930,16162,-2592,387,844,463,108,198,24,4022,14,35,856,1820,1886,2092,2287,2019,1797,1851,1939
695369,52084,16336,48995,16227,-2993,288,841,469,120,93,-36,4002,-2,36,856,1820,1886,2092,2287,2019,1797,1851,1939
696371,52064,16412,49060,16292,-2340,125,846,483,140,55,-9,4019,14,31,844,1820,1886,2092,2287,2019,1797,1851,1939
697371,52076,16456,49125,16357,-2677,551,868,509,149,126,92,4247,10,31,856,1828,1900,2102,2272,2000,1785,1847,1942
698372,52060,16524,49190,16422,-2229,247,893,524,168,205,-202,4284,1,33,857,1828,1900,2102,2272,2000,1785,1847,1942
699373,52064,16588,49255,16487,-2405,298,925,526,182,226,9,4513,8,41,854,1828,1900,2102,2272,2000,1785,1847,1942
700374,52068,16652,49454,16686,-2168,463,959,539,197,62,-18,4348,12,32,845,1828,1900,2102,2272,2000,1785,1847,1942
701375,52072,16728,49519,16751,-2095,300,976,542,202,89,16,4381,9,33,854,1828,1900,2102,2272,2000,1785,1847,1942
702376,52068,16792,49584,16816,-1912,451,988,550,190,134,239,4117,0,33,855,1828,1900,2102,2272,2000,1785,1847,1942
703377,52080,16860,49649,16881,-2048,397,964,495,181,-5,354,3848,3,47,856,1828,1925,2126,2323,2037,1819,1886,1988
704378,52072,16932,49714,16946,-1710,339,926,414,179,-120,388,3747,-2,44,851,1828,1925,2126,2323,2037,1819,1886,1988
705379,52068,17008,49779,17011,-1677,275,894,338,167,-108,528,3852,5,37,855,1828,1925,2126,2323,2037,1819,1886,1988
706380,52076,17076,49844,17076,-1758,372,880,276,146,-25,501,4083,15,36,856,1828,1925,2126,2323,2037,1819,1886,1988
707381,52084,17140,49909,17141,-1690,423,864,234,131,257,404,4228,15,35,856,1828,1925,2126,2323,2037,1819,1886,1988
708382,52080,17220,49974,17206,-1456,204,860,238,103,537,482,4499,1,46,853,1859,1951,2152,2332,2106,1868,1934,2064
709383,52068,17300,50039,17271,-1263,186,844,226,89,599,325,4178,15,49,855,1859,1951,2152,2332,2106,1868,1934,2064
710384,52084,17380,50104,17336,-1553,168,836,218,75,568,449,4435,12,37,856,1859,1951,2152,2332,2106,1868,1934,2064
711385,52084,17444,50169,17401,-1275,369,831,210,47,536,331,4405,-3,32,856,1859,1951,2152,2332,2106,1868,1934,2064
712386,52072,17488,50234,17466,-1032,645,822,192,26,728,346,4324,-1,33,854,1859,1951,2152,2332,2106,1868,1934,2064
713387,52076,17564,50299,17531,-1158,231,815,163,20,600,400,4451,1,45,856,1859,1951,2152,2332,2106,1868,1934,2064
714388,52092,17644,50364,17596,-1249,163,808,142,-3,476,425,4464,12,48,853,1820,1919,2122,2272,2161,1909,1955,2143
715389,52092,17716,50429,17661,-971,254,806,117,-23,476,308,4633,15,33,856,1820,1919,2122,2272,2161,1909,1955,2143
716390,52096,17788,50494,17726,-946,246,823,96,-57,516,364,4895,1,41,856,1820,1919,2122,2272,2161,1909,1955,2143
717391,52088,17852,50559,17791,-708,347,823,70,-108,437,513,4638,0,47,854,1820,1919,2122,2272,2161,1909,1955,2143
718392,52096,17908,50624,17856,-839,458,769,-4,-139,431,564,4185,15,32,854,1820,1919,2122,2272,2161,1909,1955,2143
719393,52088,17976,50689,17921,-550,304,674,-108,-159,93,717,3702,9,39,856,1773,1881,2095,2240,2123,1899,1937,2068
720394,52100,18044,50754,17986,-737,301,582,-227,-179,-179,770,4066,-3,36,854,1773,1881,2095,2240,2123,1899,1937,2068
721395,52104,18124,50819,18051,-562,132,510,-311,-215,43,810,4052,-1,33,856,1773,1881,2095,2240,2123,1899,1937,2068
722396,52092,18196,50884,18116,-269,224,460,-330,-246,273,837,4181,-3,33,856,1773,1881,2095,2240,2123,1899,1937,2068
723397,52104,18272,50949,18181,-504,160,410,-285,-266,517,759,4202,11,44,857,1773,1881,2095,2240,2123,1899,1937,2068
724398,52092,18328,51014,18246,-111,421,365,-231,-288,469,747,4329,-3,31,856,1773,1881,2095,2240,2123,1899,1937,2068
725399,52096,18408,51079,18311,-237,103,331,-165,-317,427,686,4372,10,31,856,1764,1849,2082,2225,2144,1894,1932,2068
726400,52088,18464,51144,18376,2,414,303,-119,-341,556,537,4172,5,43,855,1764,1849,2082,2225,2144,1894,1932,2068
727401,52096,18536,51209,18441,-129,206,275,-94,-365,534,531,4145,14,41,857,1764,1849,2082,2225,2144,1894,1932,2068
728402,52088,18600,51274,18506,160,307,252,-63,-384,276,578,4037,-4,42,855,1764,1849,2082,2225,2144,1894,1932,2068
729403,52088,18672,51339,18571,138,198,233,-43,-411,156,633,4006,-3,39,849,1764,1849,2082,2225,2144,1894,1932,2068
730404,52100,18732,51404,18636,53,354,213,-33,-451,82,680,3910,9,43,855,1743,1839,2067,2220,2141,1893,1916,2042
731405,52096,18804,51469,18701,337,196,194,-33,-484,-13,639,3849,-2,28,856,1743,1839,2067,2220,2141,1893,1916,2042
732406,52088,18872,51534,18766,476,242,181,-45,-511,-57,535,3693,10,44,855,1743,1839,2067,2220,2141,1893,1916,2042
733407,52092,18932,51599,18831,400,347,172,-75,-541,-77,572,3587,12,44,855,1743,1839,2067,2220,2141,1893,1916,2042
734408,52092,18980,51664,18896,529,518,150,-108,-563,-68,651,3539,19,29,852,1743,1839,2067,2220,2141,1893,1916,2042
735409,52096,19056,51729,18961,554,155,115,-108,-583,4,720,3603,10,44,852,1743,1839,2067,2220,2141,1893,1916,2042
736410,52092,19116,51794,19026,738,361,77,-89,-612,129,673,3629,25,30,851,1751,1841,2075,2255,2098,1868,1892,1988
737411,52088,19164,51859,19091,822,531,52,-31,-634,296,504,3569,26,46,853,1751,1841,2075,2255,2098,1868,1892,1988
738412,52132,19232,51924,19156,248,278,25,14,-637,450,494,3517,25,46,850,1751,1841,2075,2255,2098,1868,1892,1988
739413,52156,19288,51989,19221,548,439,-9,49,-628,657,361,3601,30,39,849,1751,1841,2075,2255,2098,1868,1892,1988
740414,52192,19352,52054,19286,433,340,-54,66,-634,556,613,3512,31,46,855,1751,1841,2075,2255,2098,1868,1892,1988
741415,52228,19408,52119,19351,468,451,-89,85,-658,69,829,3692,37,32,851,1788,1865,2087,2273,2033,1814,1856,1952
742416,52252,19476,52184,19416,668,297,-105,129,-667,-33,698,3679,38,37,853,1788,1865,2087,2273,2033,1814,1856,1952
743417,52300,19548,52249,19481,389,239,-114,173,-654,351,689,3779,24,33,852,1788,1865,2087,2273,2033,1814,1856,1952
744418,52340,19612,52314,19546,519,340,-108,203,-636,330,694,3646,44,42,851,1788,1865,2087,2273,2033,1814,1856,1952
745419,52400,19668,52379,19611,275,451,-99,210,-628,-99,775,3730,28,33,854,1788,1865,2087,2273,2033,1814,1856,1952
746420,52452,19752,52444,19676,391,78,-87,193,-626,-369,617,3694,29,39,853,1788,1865,2087,2273,2033,1814,1856,1952
747421,52496,19808,52509,19741,516,439,-69,182,-612,-235,455,3581,26,33,853,1781,1859,2070,2243,2023,1802,1852,1959
748422,52544,19856,52574,19806,487,559,-39,182,-615,293,475,3834,31,42,855,1781,1859,2070,2243,2023,1802,1852,1959
749423,52580,19936,52639,19871,673,141,-8,176,-607,380,310,3660,45,35,852,1781,1859,2070,2243,2023,1802,1852,1959
750424,52660,19980,52704,19936,104,617,28,168,-615,232,293,3731,45,40,851,1781,1859,2070,2243,2023,1802,1852,1959
751425,52732,20044,52769,20001,196,368,51,162,-615,79,251,3680,43,44,851,1781,1859,2070,2243,2023,1802,1852,1959
752426,52772,20096,52834,20066,627,534,81,157,-615,105,496,3612,49,42,852,1784,1873,2081,2254,2031,1800,1857,1968
753427,52828,20168,52899,20131,438,275,103,146,-598,28,458,3592,50,36,854,1784,1873,2081,2254,2031,1800,1857,1968
754428,52880,20212,52964,20196,504,651,104,160,-566,-36,278,3469,50,37,850,1784,1873,2081,2254,2031,1800,1857,1968
755429,52956,20272,53029,20261,191,457,89,179,-523,121,441,3487,35,44,853,1784,1873,2081,2254,2031,1800,1857,1968
756430,53028,20332,53094,20326,232,463,88,152,-508,-77,467,2972,45,44,850,1784,1873,2081,2254,2031,1800,1857,1968
757431,53100,20392,53159,20391,224,469,76,100,-493,-340,461,3129,53,32,854,1784,1873,2081,2254,2031,1800,1857,1968
758432,53168,20468,53224,20456,270,256,66,63,-473,-107,534,3257,52,33,853,1833,1919,2117,2303,2030,1803,1867,1967
759433,53232,20524,53289,20521,321,517,47,63,-439,171,618,3448,51,46,854,1833,1919,2117,2303,2030,1803,1867,1967
760434,53312,20592,53354,20586,103,363,41,45,-417,242,620,3456,45,45,855,1833,1919,2117,2303,2030,1803,1867,1967
761435,53352,20660,53419,20651,633,360,46,37,-398,160,477,3718,48,44,853,1833,1919,2117,2303,2030,1803,1867,1967
762436,53416,20712,53484,20716,335,575,47,6,-368,76,371,3668,37,37,855,1833,1919,2117,2303,2030,1803,1867,1967
763437,53500,20768,53549,20781,61,536,73,-1,-353,354,405,4090,39,35,852,1844,1914,2110,2292,2032,1808,1864,1968
764438,53560,20848,53614,20846,367,218,99,-24,-324,238,196,3935,38,33,852,1844,1914,2110,2292,2032,1808,1864,1968
765439,53620,20896,53679,20911,374,639,126,-23,-296,328,157,4258,45,38,854,1844,1914,2110,2292,2032,1808,1864,1968
766440,53680,20972,53744,20976,380,275,157,-35,-269,273,112,4038,52,30,854,1844,1914,2110,2292,2032,1808,1864,1968
767441,53736,21040,53809,21041,441,372,179,-71,-230,111,38,4003,50,42,851,1844,1914,2110,2292,2032,1808,1864,1968
768442,53804,21116,53874,21106,287,258,194,-84,-192,-13,52,4062,36,35,852,1844,1914,2110,2292,2032,1808,1864,1968
769443,53888,21164,53939,21171,64,629,202,-104,-148,-253,45,3843,55,44,851,1801,1874,2083,2255,2047,1821,1870,1981
770444,53936,21236,54004,21236,535,321,216,-84,-109,-216,40,4067,33,34,855,1801,1874,2083,2255,2047,1821,1870,1981
771445,54020,21308,54069,21301,61,312,229,-71,-81,-178,99,3826,32,44,853,1801,1874,2083,2255,2047,1821,1870,1981
772446,54076,21364,54134,21366,422,523,236,-46,-45,-10,114,4085,35,30,852,1801,1874,2083,2255,2047,1821,1870,1981
773447,54132,21412,54199,21431,433,644,234,-20,-13,17,223,3892,46,42,855,1801,1874,2083,2255,2047,1821,1870,1981
774448,54192,21476,54264,21496,389,445,219,-3,15,55,275,3999,40,32,852,1807,1890,2102,2285,2073,1841,1892,1997
775449,54256,21520,54329,21561,341,721,215,30,28,135,350,3959,38,44,851,1807,1890,2102,2285,2073,1841,1892,1997
776450,54316,21592,54394,21626,397,362,204,65,41,113,290,3886,51,39,853,1807,1890,2102,2285,2073,1841,1892,1997
777451,54376,21652,54459,21691,403,518,199,107,46,228,391,3916,34,43,851,1807,1890,2102,2285,2073,1841,1892,1997
778452,54432,21728,54524,21756,464,305,182,138,48,281,352,3808,49,33,853,1807,1890,2102,2285,2073,1841,1892,1997
779453,54500,21768,54589,21821,310,785,184,115,57,89,249,3720,41,45,852,1807,1890,2102,2285,2073,1841,1892,1997
780454,54552,21836,54654,21886,526,432,174,86,70,-102,351,3940,43,30,853,1831,1910,2122,2319,2087,1857,1905,2001
781455,54620,21900,54719,21951,322,483,181,82,77,-45,263,3976,41,44,850,1831,1910,2122,2319,2087,1857,1905,2001
782456,54696,21956,54784,22016,209,594,177,87,83,370,285,3877,33,33,852,1831,1910,2122,2319,2087,1857,1905,2001
783457,54764,22040,54849,22081,305,221,177,60,104,337,250,4046,37,32,853,1831,1910,2122,2319,2087,1857,1905,2001
784458,54820,22088,54914,22146,466,691,189,56,120,280,219,4282,35,42,853,1831,1910,2122,2319,2087,1857,1905,2001
785459,54872,22144,54979,22211,532,602,197,75,142,305,68,4413,47,45,853,1828,1902,2119,2308,2078,1853,1893,1994
786460,54944,22208,55044,22276,274,504,210,99,168,607,223,4482,33,34,849,1828,1902,2119,2308,2078,1853,1893,1994
787461,55004,22252,55109,22341,430,779,223,116,191,639,167,4472,31,33,850,1828,1902,2119,2308,2078,1853,1893,1994
788462,55048,22328,55174,22406,655,366,237,137,210,511,107,4532,42,39,853,1828,1902,2119,2308,2078,1853,1893,1994
789463,55092,22408,55239,22471,681,297,238,172,221,560,89,4507,29,38,850,1828,1902,2119,2308,2078,1853,1893,1994
790464,55160,22476,55304,22536,378,444,237,212,230,737,169,4406,38,37,851,1828,1902,2119,2308,2078,1853,1893,1994
791465,55228,22536,55369,22601,375,550,238,233,241,671,286,4289,48,44,851,1809,1893,2111,2295,2067,1841,1888,1996
792466,55292,22596,55434,22666,426,556,240,237,243,347,310,4241,36,42,853,1809,1893,2111,2295,2067,1841,1888,1996
793467,55332,22656,55499,22731,756,562,237,237,247,232,342,4212,33,44,852,1809,1893,2111,2295,2067,1841,1888,1996
794468,55396,22728,55564,22796,458,404,241,227,241,288,463,4085,35,32,852,1809,1893,2111,2295,2067,1841,1888,1996
795469,55444,22784,55629,22861,678,614,239,200,228,231,491,4083,37,44,849,1809,1893,2111,2295,2067,1841,1888,1996
796470,55496,22840,55694,22926,644,625,244,173,213,150,515,4107,30,43,852,1834,1921,2133,2323,2080,1849,1902,2008
797471,55564,22904,55759,22991,441,527,252,133,194,98,558,3989,39,34,849,1834,1921,2133,2323,2080,1849,1902,2008
798472,55620,22976,55824,23056,602,418,247,122,179,182,583,4022,49,31,849,1834,1921,2133,2323,2080,1849,1902,2008
799473,55668,23044,55889,23121,722,464,252,114,152,431,576,3937,38,45,852,1834,1921,2133,2323,2080,1849,1902,2008
800474,55724,23100,55954,23186,633,625,256,94,140,362,556,4065,44,28,851,1834,1921,2133,2323,2080,1849,1902,2008
801475,55784,23152,56019,23251,589,691,277,110,133,302,561,4191,34,44,850,1834,1921,2133,2323,2080,1849,1902,2008
802476,55832,23204,56084,23316,760,707,284,141,129,499,610,4201,32,42,849,1847,1937,2143,2327,2077,1846,1900,2007
803477,55884,23268,56149,23381,726,558,297,162,123,665,586,4134,43,32,847,1847,1937,2143,2327,2077,1846,1900,2007
804478,55956,23336,56214,23446,468,505,307,152,139,457,489,4240,35,32,847,1847,1937,2143,2327,2077,1846,1900,2007
805479,56012,23400,56279,23511,679,557,332,161,143,290,406,4335,42,31,849,1847,1937,2143,2327,2077,1846,1900,2007
806480,56064,23468,56344,23576,745,503,344,166,143,429,377,4219,47,29,851,1847,1937,2143,2327,2077,1846,1900,2007
807481,56116,23520,56409,23641,761,719,362,163,145,513,448,4085,49,35,849,1839,1926,2136,2318,2057,1833,1880,1983
808482,56176,23564,56474,23706,667,845,362,130,156,320,438,4168,46,28,849,1839,1926,2136,2318,2057,1833,1880,1983
809483,56244,23628,56539,23771,564,596,379,106,157,196,442,4188,35,45,847,1839,1926,2136,2318,2057,1833,1880,1983
810484,56296,23672,56604,23836,779,872,389,78,160,188,452,4221,34,32,847,1839,1926,2136,2318,2057,1833,1880,1983
811485,56368,23748,56669,23901,521,458,403,84,156,344,475,4142,33,46,850,1839,1926,2136,2318,2057,1833,1880,1983
812486,56416,23800,56734,23966,842,774,406,81,148,413,503,4028,36,46,846,1839,1926,2136,2318,2057,1833,1880,1983
813487,56468,23856,56799,24031,808,735,405,72,136,308,518,3926,29,46,852,1826,1908,2121,2308,2039,1822,1868,1968
814488,56528,23924,56864,24096,715,581,399,64,120,312,594,4012,33,49,846,1826,1908,2121,2308,2039,1822,1868,1968
815489,56580,23964,56929,24161,831,962,394,72,100,174,511,3957,36,38,847,1826,1908,2121,2308,2039,1822,1868,1968
816490,56636,24032,56994,24226,792,608,402,76,89,270,650,3958,48,36,849,1826,1908,2121,2308,2039,1822,1868,1968
817491,56688,24108,57059,24291,857,495,408,60,76,209,675,4027,50,44,845,1826,1908,2121,2308,2039,1822,1868,1968
818492,56744,24192,57124,24356,818,372,421,61,69,130,549,3889,41,40,848,1827,1906,2122,2310,2052,1832,1881,1982
819493,56804,24256,57189,24421,774,623,429,56,67,239,563,3933,40,40,847,1827,1906,2122,2310,2052,1832,1881,1982
820494,56856,24300,57254,24486,890,899,441,65,67,188,586,3853,37,39,847,1827,1906,2122,2310,2052,1832,1881,1982
821495,56908,24376,57319,24551,907,485,447,62,80,39,561,3849,48,46,848,1827,1906,2122,2310,2052,1832,1881,1982
822496,56988,24440,57384,24616,539,637,469,69,87,36,575,3899,40,49,845,1827,1906,2122,2310,2052,1832,1881,1982
823497,57036,24508,57449,24681,960,584,474,80,90,80,466,3904,52,44,847,1827,1906,2122,2310,2052,1832,1881,1982
824498,57088,24576,57514,24746,926,580,478,93,88,193,452,3866,32,34,850,1822,1904,2118,2302,2068,1842,1889,1993
825499,57156,24640,57579,24811,722,631,474,102,94,67,408,3848,35,35,846,1822,1904,2118,2302,2068,1842,1889,1993
826500,57208,24704,57644,24876,938,632,466,114,97,65,383,3854,51,34,847,1822,1904,2118,2302,2068,1842,1889,1993
827501,57272,24752,57709,24941,790,853,465,135,96,169,402,3834,37,37,849,1822,1904,2118,2302,2068,1842,1889,1993
828502,57340,24804,57774,25006,736,819,463,126,105,115,555,3817,55,36,846,1822,1904,2118,2302,2068,1842,1889,1993
829503,57396,24868,57839,25071,897,670,461,134,108,44,487,3863,53,48,846,1818,1901,2111,2294,2064,1838,1884,1984
830504,57468,24932,57904,25136,689,672,463,130,118,96,315,3670,42,41,847,1818,1901,2111,2294,2064,1838,1884,1984
831505,57520,25004,57969,25201,955,563,471,110,128,47,403,3714,32,36,847,1818,1901,2111,2294,2064,1838,1884,1984
832506,57560,25064,58034,25266,1135,719,458,82,140,-68,277,3767,49,37,848,1818,1901,2111,2294,2064,1838,1884,1984
833507,57608,25124,58099,25331,1057,725,451,94,155,162,320,3846,49,42,847,1818,1901,2111,2294,2064,1838,1884,1984
834508,57668,25184,58164,25396,913,731,457,83,165,137,466,4020,40,44,844,1818,1901,2111,2294,2064,1838,1884,1984
835509,57736,25224,58229,25461,809,1012,466,87,168,-104,333,4031,53,47,845,1801,1881,2094,2274,2052,1829,1873,1976
836510,57800,25292,58294,25526,861,658,465,82,170,-5,385,4019,39,45,844,1801,1881,2094,2274,2052,1829,1873,1976
837511,57852,25344,58359,25591,1026,875,460,72,171,288,327,3858,36,40,843,1801,1881,2094,2274,2052,1829,1873,1976
838512,57912,25440,58424,25656,933,287,448,57,180,164,327,3966,39,36,847,1801,1881,2094,2274,2052,1829,1873,1976
839513,57960,25476,58489,25721,1104,1073,442,39,190,87,388,3834,43,46,844,1801,1881,2094,2274,2052,1829,1873,1976
840514,58024,25536,58554,25786,905,779,435,29,196,65,489,4055,50,44,849,1795,1877,2093,2275,2057,1835,1881,1987
841515,58080,25612,58619,25851,1016,565,433,31,207,32,473,4030,38,49,841,1795,1877,2093,2275,2057,1835,1881,1987
842516,58140,25684,58684,25916,973,607,425,48,210,255,403,4029,34,44,846,1795,1877,2093,2275,2057,1835,1881,1987
843517,58188,25744,58749,25981,1143,763,419,54,217,239,388,3815,45,40,846,1795,1877,2093,2275,2057,1835,1881,1987
844518,58252,25812,58814,26046,946,659,402,31,226,46,449,3695,52,35,847,1795,1877,2093,2275,2057,1835,1881,1987
845519,58292,25880,58879,26111,1276,655,381,13,237,-69,375,3825,39,37,843,1795,1877,2093,2275,2057,1835,1881,1987
846520,58352,25948,58944,26176,1032,652,380,29,236,104,356,3932,37,48,846,1815,1899,2116,2300,2080,1853,1904,2014
847521,58404,26008,59009,26241,1148,758,382,22,231,350,437,3952,50,51,843,1815,1899,2116,2300,2080,1853,1904,2014
848522,58472,26096,59074,26306,945,381,378,23,249,60,247,3935,50,53,845,1815,1899,2116,2300,2080,1853,1904,2014
849523,58536,26140,59139,26371,997,956,377,20,254,-37,472,3878,40,39,844,1815,1899,2116,2300,2080,1853,1904,2014
850524,58576,26204,59204,26436,1327,708,390,18,265,-60,334,3984,44,42,848,1815,1899,2116,2300,2080,1853,1904,2014
851525,58648,26284,59269,26501,919,489,390,2,291,-52,305,4061,42,45,843,1823,1910,2127,2307,2094,1863,1910,2014
852526,58716,26360,59334,26566,965,526,407,24,298,142,480,4166,43,53,843,1823,1910,2127,2307,2094,1863,1910,2014
853527,58784,26420,59399,26631,962,732,412,15,320,-54,303,4044,49,50,847,1823,1910,2127,2307,2094,1863,1910,2014
854528,58832,26488,59464,26696,1233,628,409,19,334,-89,312,4250,51,50,846,1823,1910,2127,2307,2094,1863,1910,2014
855529,58908,26548,59529,26761,870,735,412,13,338,55,464,4153,44,52,845,1823,1910,2127,2307,2094,1863,1910,2014
856530,58956,26616,59594,26826,1240,631,402,-7,353,-10,352,4148,45,40,843,1823,1910,2127,2307,2094,1863,1910,2014
857531,59004,26704,59659,26891,1262,353,400,-5,365,20,469,4320,41,52,847,1819,1905,2122,2305,2072,1846,1892,1990
858532,59048,26760,59724,26956,1338,764,387,-21,376,61,532,4181,36,56,843,1819,1905,2122,2305,2072,1846,1892,1990
859533,59108,26828,59789,27021,1144,610,384,-18,385,19,412,4319,50,40,845,1819,1905,2122,2305,2072,1846,1892,1990
860534,59180,26896,59854,27086,985,606,364,-10,391,147,608,4163,36,55,841,1819,1905,2122,2305,2072,1846,1892,1990
861535,59212,26956,59919,27151,1527,714,366,-17,388,117,559,4193,38,44,845,1819,1905,2122,2305,2072,1846,1892,1990
862536,59268,27024,59984,27216,1238,610,355,-11,384,81,534,4161,35,42,847,1827,1905,2125,2316,2063,1845,1891,1989
863537,59328,27120,60049,27281,1194,222,356,-29,385,45,609,4072,38,57,843,1827,1905,2125,2316,2063,1845,1891,1989
864538,59384,27180,60114,27346,1255,678,347,-11,383,230,527,4179,36,52,846,1827,1905,2125,2316,2063,1845,1891,1989
865539,59432,27256,60179,27411,1376,465,350,-5,377,302,440,3985,43,38,843,1827,1905,2125,2316,2063,1845,1891,1989
866540,59500,27320,60244,27476,1123,616,341,-10,388,126,496,4055,50,37,843,1827,1905,2125,2316,2063,1845,1891,1989
867541,59532,27368,60309,27541,1613,837,354,7,392,101,535,4079,46,37,845,1827,1905,2125,2316,2063,1845,1891,1989
868542,59600,27420,60374,27606,1160,803,362,0,396,152,566,4014,33,41,838,1835,1915,2135,2323,2077,1857,1901,2005
869543,59656,27492,60439,27671,1321,544,383,-9,402,-19,616,4146,39,37,842,1835,1915,2135,2323,2077,1857,1901,2005
870544,59700,27556,60504,27736,1497,645,390,7,407,26,536,4095,53,33,841,1835,1915,2135,2323,2077,1857,1901,2005
871547,59776,27608,60569,27801,1084,811,406,25,419,182,545,4006,54,46,841,1835,1915,2135,2323,2077,1857,1901,2005
872546,59824,27648,60634,27866,1455,992,416,30,425,19,678,4041,47,35,843,1835,1915,2135,2323,2077,1857,1901,2005
873547,59880,27688,60699,27931,1366,1022,434,52,422,-43,639,4179,51,32,837,1831,1916,2139,2320,2075,1855,1897,1999
874548,59940,27764,60764,27996,1322,559,438,50,428,48,639,3975,50,46,838,1831,1916,2139,2320,2075,1855,1897,1999
875549,60000,27820,60829,28061,1329,820,449,40,438,-19,683,4053,42,50,843,1831,1916,2139,2320,2075,1855,1897,1999
876550,60052,27888,60894,28126,1445,667,454,46,429,10,715,4064,51,34,840,1831,1916,2139,2320,2075,1855,1897,1999
877551,60100,27936,60959,28191,1516,938,454,51,426,80,676,3979,35,49,841,1831,1916,2139,2320,2075,1855,1897,1999
878552,60164,27992,61024,28256,1318,849,446,59,422,127,796,4074,44,50,838,1831,1916,2139,2320,2075,1855,1897,1999
879553,60224,28052,61089,28321,1374,805,439,59,414,133,787,4066,37,44,841,1831,1915,2133,2322,2048,1830,1876,1972
880554,60276,28108,61154,28386,1490,866,430,64,407,148,771,4016,54,37,840,1831,1915,2133,2322,2048,1830,1876,1972
881555,60328,28184,61219,28451,1507,602,425,76,399,193,816,4066,33,45,838,1831,1915,2133,2322,2048,1830,1876,1972
882556,60380,28240,61284,28516,1523,863,425,90,391,227,730,4012,48,55,840,1831,1915,2133,2322,2048,1830,1876,1972
883557,60452,28312,61349,28581,1264,655,423,108,374,428,792,3991,37,55,838,1831,1915,2133,2322,2048,1830,1876,1972
884558,60496,28384,61414,28646,1641,646,424,99,368,263,791,3937,51,43,842,1827,1907,2125,2315,2040,1828,1873,1972
885559,60572,28440,61479,28711,1228,857,429,123,361,186,696,4069,52,57,838,1827,1907,2125,2315,2040,1828,1873,1972
886560,60608,28516,61544,28776,1763,595,433,109,353,146,639,3788,45,55,840,1827,1907,2125,2315,2040,1828,1873,1972
887561,60672,28592,61609,28841,1415,581,440,85,337,246,779,3871,47,55,835,1827,1907,2125,2315,2040,1828,1873,1972
888562,60732,28668,61674,28906,1471,568,458,58,347,139,663,3815,49,56,842,1827,1907,2125,2315,2040,1828,1873,1972
889563,60784,28736,61739,28971,1587,664,465,53,343,295,787,3865,40,53,840,1827,1907,2125,2315,2040,1828,1873,1972
890564,60844,28816,61804,29036,1494,496,490,74,334,335,846,4033,41,55,839,1819,1899,2125,2313,2058,1846,1885,1987
891565,60888,28884,61869,29101,1720,642,499,93,336,485,852,4093,57,56,841,1819,1899,2125,2313,2058,1846,1885,1987
892566,60956,28964,61934,29166,1417,474,515,117,344,353,737,3958,47,54,837,1819,1899,2125,2313,2058,1846,1885,1987
893567,61020,29020,61999,29231,1469,785,525,107,336,334,970,3909,48,43,842,1819,1899,2125,2313,2058,1846,1885,1987
894568,61072,29076,62064,29296,1634,796,530,95,324,217,881,3897,42,43,839,1819,1899,2125,2313,2058,1846,1885,1987
895569,61132,29136,62129,29361,1542,752,530,85,305,340,1015,3724,51,41,837,1818,1903,2128,2312,2065,1845,1886,1988
896570,61192,29200,62194,29426,1548,703,521,82,293,370,905,3913,52,41,838,1818,1903,2128,2312,2065,1845,1886,1988
897571,61248,29268,62259,29491,1609,650,512,87,283,452,894,3884,40,50,839,1818,1903,2128,2312,2065,1845,1886,1988
898572,61304,29336,62324,29556,1621,647,505,77,280,399,836,3772,46,55,838,1818,1903,2128,2312,2065,1845,1886,1988
899573,61376,29396,62389,29621,1412,753,504,75,276,111,926,3912,57,54,838,1818,1903,2128,2312,2065,1845,1886,1988
900574,61444,29448,62454,29686,1459,869,505,99,243,264,761,3961,55,41,840,1818,1903,2128,2312,2065,1845,1886,1988
901575,61500,29508,62519,29751,1620,775,518,159,246,1265,553,4707,39,54,839,1827,1913,2134,2317,2057,1835,1879,1984
902576,61536,29604,62584,29816,1906,287,541,199,251,841,1006,4217,51,57,837,1827,1913,2134,2317,2057,1835,1879,1984
903577,61600,29656,62649,29881,1558,853,538,203,243,119,634,4145,45,46,837,1827,1913,2134,2317,2057,1835,1879,1984
904578,61692,29724,62714,29946,1175,649,527,220,238,257,838,4142,57,57,837,1827,1913,2134,2317,2057,1835,1879,1984
905579,61740,29788,62779,30011,1746,701,503,205,224,464,1142,3965,47,49,844,1827,1913,2134,2317,2057,1835,1879,1984
906580,61800,29848,62844,30076,1603,757,499,225,224,514,632,4178,52,54,836,1822,1909,2133,2320,2059,1846,1887,1987
907581,61852,29912,62909,30141,1719,708,481,233,231,631,875,4032,52,46,838,1822,1909,2133,2320,2059,1846,1887,1987
908582,61908,30000,62974,30206,1681,380,476,235,220,378,911,3975,50,43,837,1822,1909,2133,2320,2059,1846,1887,1987
909583,61968,30068,63039,30271,1637,626,458,224,219,331,712,3896,39,53,839,1822,1909,2133,2320,2059,1846,1887,1987
910584,62024,30132,63104,30336,1698,679,453,220,204,604,1012,3891,46,46,838,1822,1909,2133,2320,2059,1846,1887,1987
911585,62060,30192,63169,30401,1984,735,440,217,199,565,871,4068,36,51,837,1824,1908,2133,2320,2059,1846,1887,1987
912586,62120,30252,63234,30466,1690,741,440,236,198,517,788,3899,50,43,833,1824,1908,2136,2328,2088,1873,1904,2008
913587,62176,30340,63299,30531,1752,363,428,244,207,538,818,3940,47,49,836,1824,1908,2136,2328,2088,1873,1904,2008
914588,62232,30384,63364,30596,1763,938,431,247,209,543,814,3826,53,56,839,1824,1908,2136,2328,2088,1873,1904,2008
915589,62296,30444,63429,30661,1666,744,429,247,197,709,865,3824,41,41,834,1824,1908,2136,2328,2088,1873,1904,2008
916590,62344,30508,63494,30726,1886,696,434,269,181,872,941,4124,41,52,837,1824,1908,2136,2328,2088,1873,1904,2008
917591,62432,30576,63559,30791,1358,642,429,311,180,427,854,4197,56,49,835,1812,1894,2130,2309,2101,1877,1905,2011
918592,62468,30644,63624,30856,2045,638,420,394,141,529,963,4066,43,50,841,1812,1894,2130,2309,2101,1877,1905,2011
919593,62548,30724,63689,30921,1476,470,395,435,152,2007,465,4535,48,47,833,1812,1894,2130,2309,2101,1877,1905,2011
920594,62628,30800,63754,30986,1459,507,381,423,168,1558,857,4113,48,58,840,1812,1894,2130,2309,2101,1877,1905,2011
921595,62680,30864,63819,31051,1825,658,376,373,119,-468,1397,3677,45,44,840,1812,1894,2130,2309,2101,1877,1905,2011
922596,62752,30912,63884,31116,1567,879,342,377,85,-180,819,4243,45,55,836,1796,1880,2112,2288,2088,1864,1896,2002
923597,62832,30992,63949,31181,1449,461,314,410,96,1082,935,4149,63,58,837,1796,1880,2112,2288,2088,1864,1896,2002
924598,62888,31064,64014,31246,1760,553,307,414,90,888,1199,3804,54,50,841,1796,1880,2112,2288,2088,1864,1896,2002
925599,62964,31124,64079,31311,1498,709,284,420,82,-75,944,4092,40,43,837,1796,1880,2112,2288,2088,1864,1896,2002
926600,63032,31180,64144,31376,1594,770,263,437,66,287,1198,4125,54,44,839,1796,1880,2112,2288,2088,1864,1896,2002
927601,63080,31252,64209,31441,1866,561,253,430,63,552,990,3916,55,41,838,1796,1880,2112,2288,2088,1864,1896,2002
928602,63156,31312,64274,31506,1502,717,231,448,57,356,968,3935,44,59,836,1789,1881,2113,2290,2090,1864,1897,2011
929603,63212,31388,64339,31571,1764,504,208,483,40,484,1096,3968,42,46,839,1789,1881,2113,2290,2090,1864,1897,2011
930604,63272,31460,64404,31636,1720,545,187,505,25,510,981,3838,41,45,838,1789,1881,2113,2290,2090,1864,1897,2011
931605,63356,31540,64469,31701,1397,427,172,527,9,477,992,3745,50,43,838,1789,1881,2113,2290,2090,1864,1897,2011
932606,63412,31576,64534,31766,1759,1012,158,535,-1,453,1170,3847,52,41,841,1789,1881,2113,2290,2090,1864,1897,2011
933607,63468,31648,64599,31831,1770,554,152,545,-15,552,1099,3891,52,39,833,1802,1896,2132,2306,2098,1876,1902,2016
934608,63516,31712,64664,31896,1892,655,136,568,-23,551,1124,3859,45,49,837,1802,1896,2132,2306,2098,1876,1902,2016
935609,63568,31768,64729,31961,1858,766,132,595,-47,613,1159,3890,43,43,835,1802,1896,2132,2306,2098,1876,1902,2016
936610,63644,31832,64794,32026,1545,667,117,595,-64,425,1253,3757,37,43,835,1802,1896,2132,2306,2098,1876,1902,2016
937611,63708,31884,64859,32091,1697,833,112,588,-105,370,1245,3795,42,43,838,1802,1896,2132,2306,2098,1876,1902,2016
938612,63772,31960,64924,32156,1698,521,93,589,-149,162,1321,3633,44,43,835,1802,1896,2132,2306,2098,1876,1902,2016
939613,63840,32020,64989,32221,1645,727,75,612,-180,984,941,4224,59,54,838,1806,1889,2130,2311,2084,1866,1890,1996
940614,63896,32076,65054,32286,1806,788,51,639,-163,1282,926,4153,58,48,837,1806,1889,2130,2311,2084,1866,1890,1996
941615,63964,32152,65119,32351,1653,524,37,571,-196,94,1637,3475,52,55,835,1806,1889,2130,2311,2084,1866,1890,1996
942616,64040,32196,65184,32416,1540,950,11,535,-238,-443,1149,3868,44,53,838,1806,1889,2130,2311,2084,1866,1890,1996
943617,64116,32268,65249,32481,1528,592,-27,531,-270,569,1430,4009,46,54,837,1806,1889,2130,2311,2084,1866,1890,1996
944618,64188,32340,65314,32546,1569,583,-35,527,-279,691,1452,3580,44,54,840,1797,1879,2119,2298,2068,1852,1882,1988
945619,64248,32392,65379,32611,1725,849,-59,516,-291,107,1233,3816,51,52,839,1797,1879,2119,2298,2068,1852,1882,1988
946620,64320,32468,65444,32676,1568,535,-74,540,-304,173,1342,4145,59,45,835,1797,1879,2119,2298,2068,1852,1882,1988
947621,64404,32520,65509,32741,1394,851,-75,560,-334,293,1422,3786,56,46,839,1797,1879,2119,2298,2068,1852,1882,1988
948622,64452,32580,65574,32806,1866,757,-93,579,-342,695,949,4235,56,43,839,1797,1879,2119,2298,2068,1852,1882,1988
949623,64512,32648,65639,32871,1722,654,-98,620,-340,780,1197,4187,38,42,834,1797,1879,2119,2298,2068,1852,1882,1988
950624,64572,32708,65838,33070,1893,923,-88,623,-355,91,1411,3780,56,46,836,1788,1863,2091,2280,2076,1839,1871,2008
951625,64644,32776,65903,33135,1734,821,-101,636,-378,53,1221,3990,40,54,833,1788,1863,2091,2280,2076,1839,1871,2008
952626,64716,32848,65968,33200,1727,762,-128,649,-407,409,1448,3627,42,62,836,1788,1863,2091,2280,2076,1839,1871,2008
953627,64772,32908,66033,33265,1938,918,-148,621,-445,-106,1518,3522,61,56,836,1788,1863,2091,2280,2076,1839,1871,2008
954628,64880,33000,66098,33330,1236,485,-177,632,-493,-513,1250,3565,48,58,832,1788,1863,2091,2280,2076,1839,1871,2008
955629,64972,33064,66163,33395,1403,837,-227,622,-497,422,895,3950,65,49,842,1798,1893,2127,2298,2092,1866,1899,2017
956630,65036,33136,66228,33460,1755,728,-281,580,-496,1084,1146,3237,65,45,839,1798,1893,2127,2298,2092,1866,1899,2017
957631,65132,33220,66293,33525,1318,555,-364,468,-470,148,1016,3252,61,53,836,1798,1893,2127,2298,2092,1866,1899,2017
958632,65208,33276,66358,33590,1554,917,-439,410,-467,-157,1205,3305,59,54,842,1798,1893,2127,2298,2092,1866,1899,2017
959633,65272,33356,66423,33655,1707,598,-497,384,-473,205,955,3586,52,57,837,1798,1893,2127,2298,2092,1866,1899,2017
960634,65372,33436,66488,33720,1214,580,-511,396,-509,605,1294,3525,68,50,838,1798,1893,2127,2298,2092,1866,1899,2017
961635,65440,33520,66553,33785,1611,507,-493,384,-548,231,1207,3588,56,55,843,1792,1878,2113,2269,2114,1883,1909,2039
962636,65528,33600,66618,33850,1333,539,-480,416,-590,168,1088,3894,52,59,839,1792,1878,2113,2269,2114,1883,1909,2039
963637,65620,33680,66683,33915,1250,520,-481,438,-610,561,960,3723,64,51,842,1792,1878,2113,2269,2114,1883,1909,2039
964638,65696,33736,66748,33980,1438,831,-462,428,-652,880,1475,3733,61,46,843,1792,1878,2113,2269,2114,1883,1909,2039
965639,65780,33820,66813,34045,1314,458,-460,370,-661,293,1297,3650,57,51,839,1792,1878,2113,2269,2114,1883,1909,2039
966640,65844,33888,66878,34110,1567,654,-471,369,-676,5,1101,3928,63,48,843,1746,1836,2070,2220,2113,1872,1898,2020
967641,65920,33968,66943,34175,1403,486,-485,393,-696,511,1232,3821,63,45,839,1746,1836,2070,2220,2113,1872,1898,2020
968642,66000,34048,67008,34240,1335,468,-483,400,-721,673,1527,3659,57,63,842,1746,1836,2070,2220,2113,1872,1898,2020
969643,66076,34120,67073,34305,1373,560,-505,368,-733,23,1515,3672,47,59,843,1746,1836,2070,2220,2113,1872,1898,2020
970644,66132,34188,67138,34370,1634,607,-525,375,-735,-487,1365,3451,44,48,842,1746,1836,2070,2220,2113,1872,1898,2020
971645,66204,34256,67203,34435,1426,603,-574,394,-729,51,1399,3794,59,58,839,1746,1836,2070,2220,2113,1872,1898,2020
972646,66272,34340,67268,34500,1472,380,-610,386,-715,304,1477,3553,47,48,840,1754,1849,2081,2253,2062,1837,1873,1977
973647,66348,34408,67333,34565,1359,576,-641,323,-735,-147,1761,3346,51,61,842,1754,1849,2081,2253,2062,1837,1873,1977
974648,66424,34480,67398,34630,1346,518,-675,266,-735,-861,1507,3400,58,51,842,1754,1849,2081,2253,2062,1837,1873,1977
975649,66500,34556,67463,34695,1333,454,-706,257,-727,-429,1397,3407,42,61,842,1754,1849,2081,2253,2062,1837,1873,1977
976650,66544,34632,67528,34760,1759,441,-744,275,-723,282,1235,3563,56,54,843,1754,1849,2081,2253,2062,1837,1873,1977
977651,66632,34692,67593,34825,1182,647,-777,267,-729,169,1223,3344,60,44,837,1804,1892,2130,2312,2040,1828,1861,1972
978652,66704,34780,67658,34890,1373,269,-793,259,-754,-112,1356,3371,59,58,843,1804,1892,2130,2312,2040,1828,1861,1972
979653,66764,34856,67723,34955,1530,405,-793,267,-772,2,1310,3376,61,57,844,1804,1892,2130,2312,2040,1828,1861,1972
980654,66848,34928,67788,35020,1207,447,-796,311,-780,169,1052,3639,61,54,842,1804,1892,2130,2312,2040,1828,1861,1972
981655,66928,34988,67853,35085,1239,603,-788,356,-787,481,1099,3480,65,58,845,1804,1892,2130,2312,2040,1828,1861,1972
982656,67000,35052,67918,35150,1331,554,-775,377,-815,450,1403,3679,48,54,843,1804,1892,2130,2312,2040,1828,1861,1972
983657,67080,35108,67983,35215,1213,665,-749,370,-848,91,1305,3449,57,54,843,1816,1894,2137,2305,2053,1837,1863,1978
984658,67160,35184,68048,35280,1194,402,-737,368,-858,-187,1260,3557,47,44,843,1816,1894,2137,2305,2053,1837,1863,1978
985659,67240,35256,68113,35345,1177,443,-735,426,-876,238,1260,3876,59,52,845,1816,1894,2137,2305,2053,1837,1863,1978
986660,67312,35312,68178,35410,1269,654,-734,445,-893,577,1338,3544,48,54,845,1816,1894,2137,2305,2053,1837,1863,1978
987661,67392,35380,68243,35475,1150,500,-728,413,-923,-34,1626,3451,59,52,843,1816,1894,2137,2305,2053,1837,1863,1978
988662,67460,35448,68308,35540,1298,497,-732,362,-939,-587,1619,3525,61,43,845,1798,1871,2109,2286,2042,1827,1860,1962
989663,67544,35516,68373,35605,1074,493,-733,333,-961,-411,1731,3539,56,48,842,1798,1871,2109,2286,2042,1827,1860,1962
990664,67612,35584,68438,35670,1271,489,-744,334,-958,-83,1625,3497,46,44,846,1798,1871,2109,2286,2042,1827,1860,1962
991665,67692,35648,68503,35735,1103,541,-748,323,-957,-20,1762,3484,54,50,844,1798,1871,2109,2286,2042,1827,1860,1962
992666,67772,35720,68568,35800,1085,432,-755,297,-956,-431,1825,3427,45,46,845,1798,1871,2109,2286,2042,1827,1860,1962
993667,67844,35780,68633,35865,1177,589,-762,270,-949,-604,1588,3300,43,41,847,1798,1871,2109,2286,2042,1827,1860,1962
994668,67912,35844,68698,35930,1223,540,-770,299,-930,-137,1515,3693,51,46,844,1787,1867,2092,2275,2030,1814,1855,1962
995669,68004,35908,68763,35995,891,542,-777,317,-919,256,1492,3418,62,56,844,1787,1867,2092,2275,2030,1814,1855,1962
996670,68092,35964,68828,36060,913,653,-770,329,-904,-141,1405,3425,64,45,847,1787,1867,2092,2275,2030,1814,1855,1962
997671,68168,36044,68893,36125,1050,334,-755,345,-900,-221,1308,3534,47,41,846,1787,1867,2092,2275,2030,1814,1855,1962
998672,68240,36108,68958,36190,1092,536,-747,377,-895,-72,1164,3455,60,50,847,1787,1867,2092,2275,2030,1814,1855,1962
999673,68336,36184,69023,36255,754,372,-751,445,-902,274,949,3330,47,43,845,1785,1871,2101,2268,2038,1818,1856,1976
1000674,68416,36248,69088,36320,936,523,-768,574,-926,660,1054,2964,49,44,850,1785,1871,2101,2268,2038,1818,1856,1976
1001675,68504,36320,69153,36385,808,415,-777,633,-957,856,1098,2719,47,51,847,1785,1871,2101,2268,2038,1818,1856,1976
1002676,68612,36396,69218,36450,506,351,-766,542,-954,65,947,2939,48,47,849,1785,1871,2101,2268,2038,1818,1856,1976
1003677,68672,36468,69283,36515,1112,393,-764,418,-966,-779,1095,3257,52,53,852,1785,1871,2101,2268,2038,1818,1856,1976
1004678,68752,36540,69348,36580,844,384,-762,403,-981,-484,1044,3051,55,44,846,1785,1871,2101,2268,2038,1818,1856,1976
1005679,68840,36588,69413,36645,716,705,-758,370,-1001,125,974,3007,52,62,849,1784,1861,2095,2261,2031,1810,1840,1949
1006680,68924,36668,69478,36710,744,287,-763,287,-1004,-239,1063,2993,45,50,846,1784,1861,2095,2261,2031,1810,1840,1949
1007681,68984,36768,69543,36775,1050,-6,-780,155,-1015,-893,1245,2857,48,46,850,1784,1861,2095,2261,2031,1810,1840,1949
1008682,69088,36836,69608,36840,452,390,-805,78,-1038,-637,1174,2883,56,46,849,1784,1861,2095,2261,2031,1810,1840,1949
1009683,69160,36912,69673,36905,844,277,-835,79,-1039,-89,1208,3224,61,60,852,1784,1861,2095,2261,2031,1810,1840,1949
1010684,69240,36996,69738,36970,725,154,-851,92,-1035,487,1459,3211,41,57,850,1763,1839,2066,2236,2012,1792,1840,1952
1011685,69324,37052,69803,37035,653,515,-860,92,-1002,-19,1212,3122,58,49,851,1763,1839,2066,2236,2012,1792,1840,1952
1012686,69400,37128,69868,37100,740,251,-883,125,-979,9,1423,3571,41,45,850,1763,1839,2066,2236,2012,1792,1840,1952
1013687,69484,37216,69933,37165,617,73,-907,146,-951,135,1141,2910,42,45,851,1763,1839,2066,2236,2012,1792,1840,1952
1014688,69556,37292,69998,37230,758,210,-919,192,-940,435,1185,3561,44,55,853,1763,1839,2066,2236,2012,1792,1840,1952
1015689,69644,37364,70063,37295,530,251,-929,187,-918,183,1079,2999,56,53,851,1763,1839,2066,2236,2012,1792,1840,1952
1016690,69736,37428,70128,37360,447,352,-939,173,-905,-136,990,3326,56,51,852,1755,1843,2049,2209,2034,1805,1860,1985
1017691,69804,37516,70193,37425,744,24,-935,156,-902,-65,953,3276,42,55,853,1755,1843,2049,2209,2034,1805,1860,1985
1018692,69884,37588,70258,37490,576,216,-924,97,-906,-173,903,2974,50,55,852,1755,1843,2049,2209,2034,1805,1860,1985
1019693,69952,37660,70323,37555,722,207,-907,13,-896,-527,922,3163,48,59,852,1755,1843,2049,2209,2034,1805,1860,1985
1020694,70028,37732,70388,37620,609,199,-891,-46,-899,-507,785,3055,39,46,852,1755,1843,2049,2209,2034,1805,1860,1985
1021695,70124,37800,70453,37685,321,245,-872,-118,-890,-290,860,3276,49,49,852,1751,1841,2063,2223,2070,1831,1876,2004
1022696,70208,37868,70518,37750,448,240,-858,-179,-890,-460,823,3022,58,56,854,1751,1841,2063,2223,2070,1831,1876,2004
1023697,70288,37960,70583,37815,480,-93,-866,-244,-885,-798,770,2999,38,44,853,1751,1841,2063,2223,2070,1831,1876,2004
1024698,70376,38028,70648,37880,352,204,-889,-272,-895,-402,920,2836,53,59,854,1751,1841,2063,2223,2070,1831,1876,2004
1025699,70472,38092,70713,37945,215,255,-920,-274,-890,-79,732,3176,43,52,854,1751,1841,2063,2223,2070,1831,1876,2004
1026700,70548,38168,70778,38010,451,92,-955,-265,-891,9,886,3143,35,50,855,1751,1841,2063,2223,2070,1831,1876,2004
1027701,70636,38252,70843,38075,273,-32,-999,-271,-882,-186,868,2892,50,46,854,1783,1872,2094,2257,2048,1810,1858,1977
1028702,70716,38328,70908,38140,355,55,-1044,-276,-865,-255,728,3250,47,53,856,1783,1872,2094,2257,2048,1810,1858,1977
1029703,70772,38420,70973,38205,666,-178,-1088,-273,-846,-156,672,3144,43,45,855,1783,1872,2094,2257,2048,1810,1858,1977
1030704,70852,38520,71038,38270,348,-321,-1127,-264,-839,23,617,3408,40,49,852,1783,1872,2094,2257,2048,1810,1858,1977
1031705,70928,38596,71103,38335,384,-34,-1158,-268,-821,-67,648,3340,53,43,854,1783,1872,2094,2257,2048,1810,1858,1977
1032706,71048,38688,71168,38400,-233,-267,-1182,-295,-799,-473,685,3209,40,49,855,1791,1869,2081,2246,2031,1803,1851,1969
1033707,71128,38756,71233,38465,249,29,-1197,-342,-786,-470,570,3376,56,44,856,1791,1869,2081,2246,2031,1803,1851,1969
