%  Data file recorded 2016/10/2  21:42:51
%  Stride Frequency         = [1, 1]
%  Lead In /Lead Out        = 
%  Deltas (Fractional)      = [0.25, 0.25, 0.25],[0.25, 0.25, 0.25]
%  Phase                    = 32768
%  Experiment.py 
%  Motor Gains    = [5000, 400, 200, 0, 300, 5000, 400, 200, 0, 300]
% Columns: 
% time | Right Leg Pos | Left Leg Pos | Commanded Right Leg Pos | Commanded Left Leg Pos | DCR | DCL | GyroX | GyroY | GyroZ | AX | AY | AZ | RBEMF | LBEMF | VBatt | S1 | S2 | S3 | S4 | S5 | S6 | S7 | S8
964,16592,-16064,16650,-16118,-3800,-3535,-15,-8,2,-155,130,3914,13,3,821,1753,1871,2067,2235,2031,1791,1865,1983
1965,16600,-16060,16650,-16118,-3800,-3740,-17,-8,2,-139,123,3929,5,10,821,1753,1871,2067,2235,2031,1791,1865,1983
2966,16584,-16064,16650,-16118,-3800,-3635,-16,-5,1,-150,127,3932,-4,7,821,1753,1871,2067,2235,2031,1791,1865,1983
3967,16576,-16060,16650,-16118,-3800,-3740,-14,-6,1,-141,108,3905,13,1,821,1753,1871,2067,2235,2031,1791,1865,1983
4968,16584,-16068,16650,-16118,-3800,-3581,-14,-8,0,-143,140,3937,4,-1,821,1753,1871,2067,2235,2034,1792,1865,1982
5969,16588,-16060,16650,-16118,-3800,-3790,-13,-6,1,-131,118,3922,-3,-2,821,1753,1871,2067,2235,2034,1792,1865,1982
6970,16584,-16060,16650,-16118,-3800,-3690,-14,-6,1,-140,144,3908,12,2,821,1753,1871,2067,2235,2034,1792,1865,1982
7971,16592,-16068,16650,-16118,-3800,-3581,-14,-8,1,-141,130,3900,14,9,821,1753,1871,2067,2235,2034,1792,1865,1982
8972,16584,-16056,16650,-16118,-3800,-3800,-14,-7,1,-144,126,3898,0,10,821,1753,1871,2067,2235,2034,1792,1865,1982
9973,16592,-16064,16650,-16118,-3800,-3585,-15,-3,3,-158,127,3900,1,7,821,1753,1872,2067,2235,2031,1790,1863,1983
10974,16592,-16052,16650,-16118,-3800,-3800,-14,-6,3,-156,114,3881,13,3,821,1753,1872,2067,2235,2031,1790,1863,1983
11975,16592,-16060,16650,-16118,-3800,-3590,-14,-6,1,-144,128,3897,1,-3,821,1753,1872,2067,2235,2031,1790,1863,1983
12976,16588,-16072,16650,-16118,-3800,-3526,-11,-6,2,-150,112,3927,-2,-2,821,1753,1872,2067,2235,2031,1790,1863,1983
13977,16584,-16064,16650,-16118,-3800,-3785,-11,-6,1,-167,104,3948,9,5,821,1753,1872,2067,2235,2031,1790,1863,1983
14978,16588,-16064,16650,-16118,-3800,-3685,-11,-5,0,-190,99,3951,13,9,821,1753,1872,2067,2235,2031,1790,1863,1983
15979,16592,-16060,16650,-16118,-3800,-3740,-11,-3,2,-172,107,3945,-4,0,821,1753,1870,2067,2237,2035,1793,1866,1984
16980,16588,-16060,16650,-16118,-3800,-3690,-12,-6,5,-139,88,3936,-4,-3,821,1753,1870,2067,2237,2035,1793,1866,1984
17981,16588,-16060,16650,-16118,-3800,-3690,-11,-7,3,-161,97,3909,2,9,821,1753,1870,2067,2237,2035,1793,1866,1984
18982,16588,-16060,16650,-16118,-3800,-3690,-12,-5,3,-163,101,3923,13,11,822,1753,1870,2067,2237,2035,1793,1866,1984
19983,16592,-16076,16650,-16118,-3800,-3471,-13,-6,2,-170,125,3928,14,11,820,1753,1870,2067,2237,2035,1793,1866,1984
20984,16580,-16060,16650,-16118,-3800,-3800,-16,-9,1,-173,132,3935,11,10,820,1755,1871,2067,2235,2031,1791,1863,1983
21985,16580,-16056,16650,-16118,-3800,-3746,-15,-12,2,-136,129,3945,13,8,821,1755,1871,2067,2235,2031,1791,1863,1983
22986,16588,-16064,16650,-16118,-3800,-3586,-12,-10,4,-136,119,3903,8,4,821,1755,1871,2067,2235,2031,1791,1863,1983
23987,16584,-16060,16650,-16118,-3800,-3741,-13,-6,4,-152,107,3935,-2,-3,821,1755,1871,2067,2235,2031,1791,1863,1983
24988,16592,-16056,16650,-16118,-3800,-3746,-14,-4,2,-142,110,3957,1,-1,821,1755,1871,2067,2235,2031,1791,1863,1983
25989,16588,-16064,16650,-16118,-3800,-3586,-14,-6,2,-160,127,3931,12,5,821,1755,1871,2067,2235,2031,1791,1863,1983
26990,16584,-16056,16650,-16118,-3800,-3796,-12,-8,2,-158,116,3954,4,11,821,1755,1872,2068,2236,2035,1793,1866,1983
27991,16584,-16052,16650,-16118,-3800,-3751,-13,-7,2,-151,106,3929,-4,10,822,1755,1872,2068,2236,2035,1793,1866,1983
28992,16588,-16064,16650,-16118,-3800,-3536,-16,-6,3,-154,116,3915,8,9,821,1755,1872,2068,2236,2035,1793,1866,1983
29993,16580,-16076,16650,-16118,-3800,-3522,-14,-8,2,-158,123,3957,11,3,821,1755,1872,2068,2236,2035,1793,1866,1983
30994,16588,-16060,16650,-16118,-3800,-3800,-13,-8,3,-143,122,3946,-4,2,821,1755,1872,2068,2236,2035,1793,1866,1983
31995,16592,-16068,16650,-16118,-3800,-3582,-13,-7,5,-134,104,3909,3,3,821,1754,1871,2067,2236,2035,1794,1865,1985
32996,16584,-16056,16650,-16118,-3800,-3800,-12,-4,1,-133,141,3907,11,-3,821,1754,1871,2067,2236,2035,1794,1865,1985
33997,16576,-16056,16650,-16118,-3800,-3696,-13,-5,0,-153,135,3934,-4,0,821,1754,1871,2067,2236,2035,1794,1865,1985
34998,16596,-16064,16650,-16118,-3800,-3586,-14,-7,2,-159,122,3941,-1,2,821,1754,1871,2067,2236,2035,1794,1865,1985
35999,16588,-16056,16650,-16118,-3800,-3796,-13,-6,3,-158,136,3923,14,11,821,1754,1871,2067,2236,2035,1794,1865,1985
37000,16580,-16064,16650,-16118,-3800,-3586,-12,-8,2,-156,128,3911,6,12,820,1754,1871,2067,2236,2035,1794,1865,1985
38002,16592,-16072,16650,-16118,-3800,-3577,-11,-6,5,-142,112,3908,12,12,821,1753,1871,2067,2235,2034,1792,1865,1982
39002,16576,-16056,16650,-16118,-3800,-3800,-9,-5,5,-166,113,3928,-2,5,821,1753,1871,2067,2235,2034,1792,1865,1982
40003,16588,-16064,16650,-16118,-3800,-3586,-9,-6,4,-172,127,3979,8,-2,821,1753,1871,2067,2235,2034,1792,1865,1982
41004,16596,-16060,16650,-16118,-3800,-3741,-11,-6,2,-161,130,3943,11,-1,821,1753,1871,2067,2235,2034,1792,1865,1982
42008,16596,-16056,16650,-16118,-3800,-3746,-11,-6,1,-175,107,3900,-4,10,821,1753,1871,2067,2235,2034,1792,1865,1982
43006,16592,-16056,16650,-16118,-3800,-3696,-13,-5,1,-145,105,3893,14,12,822,1754,1871,2068,2236,2034,1792,1865,1983
44007,16596,-16056,16650,-16118,-3800,-3696,-13,-5,3,-141,103,3924,3,10,821,1754,1871,2068,2236,2034,1792,1865,1983
45008,16596,-16064,16650,-16118,-3800,-3586,-12,-5,3,-150,103,3948,-1,-1,821,1754,1871,2068,2236,2034,1792,1865,1983
46009,16592,-16060,16650,-16118,-3800,-3741,-12,-5,2,-142,104,3956,14,-2,821,1754,1871,2068,2236,2034,1792,1865,1983
47010,16592,-16060,16650,-16118,-3800,-3691,-11,-4,0,-124,128,3927,5,-2,821,1754,1871,2068,2236,2034,1792,1865,1983
48011,16580,-16052,16650,-16118,-3800,-3800,-10,-7,2,-134,133,3924,-4,11,821,1754,1871,2068,2236,2034,1792,1865,1983
49012,16588,-16064,16650,-16118,-3800,-3536,-9,-8,3,-139,141,3928,13,9,821,1753,1870,2066,2235,2034,1793,1866,1984
50013,16580,-16076,16650,-16118,-3800,-3522,-10,-11,4,-162,138,3919,5,3,821,1753,1870,2066,2235,2034,1793,1866,1984
51014,16600,-16060,16650,-16118,-3800,-3800,-11,-7,1,-169,139,3935,1,-3,821,1753,1870,2066,2235,2034,1793,1866,1984
52015,16580,-16072,16650,-16118,-3800,-3527,-13,-6,0,-155,139,3921,12,1,821,1753,1870,2066,2235,2034,1793,1866,1984
53016,16596,-16076,16650,-16118,-3800,-3622,-16,-6,-1,-180,138,3948,-4,6,820,1753,1870,2066,2235,2034,1793,1866,1984
54017,16588,-16060,16650,-16118,-3800,-3800,-15,-6,1,-184,135,3960,11,12,820,1753,1870,2066,2235,2034,1792,1865,1983
55018,16592,-16056,16650,-16118,-3800,-3746,-12,-4,1,-172,125,3942,13,12,821,1753,1870,2066,2235,2034,1792,1865,1983
56019,16580,-16068,16650,-16118,-3800,-3532,-12,-6,1,-153,119,3961,14,11,821,1753,1870,2066,2235,2034,1792,1865,1983
57020,16588,-16056,16650,-16118,-3800,-3800,-12,-6,2,-152,129,3935,-3,-2,821,1753,1870,2066,2235,2034,1792,1865,1983
58021,16592,-16072,16650,-16118,-3800,-3477,-11,-4,2,-150,124,3925,3,-2,821,1753,1870,2066,2235,2034,1792,1865,1983
59022,16580,-16064,16650,-16118,-3800,-3786,-14,-3,0,-162,113,3904,13,3,821,1753,1870,2066,2235,2034,1792,1865,1983
60023,16588,-16060,16650,-16118,-3800,-3741,-14,-4,-1,-142,132,3907,4,11,821,1753,1872,2067,2236,2035,1793,1865,1984
61024,16592,-16068,16650,-16118,-3800,-3582,-12,-7,1,-148,130,3918,-4,9,821,1753,1872,2067,2236,2035,1793,1865,1984
62025,16588,-16056,16650,-16118,-3800,-3800,-12,-8,2,-155,121,3917,0,2,821,1753,1872,2067,2236,2035,1793,1865,1984
63026,16580,-16064,16650,-16118,-3800,-3586,-15,-8,2,-145,123,3927,14,-3,821,1753,1872,2067,2236,2035,1793,1865,1984
64027,16592,-16048,16650,-16118,-3800,-3800,-17,-8,1,-163,131,3888,-3,-1,821,1753,1872,2067,2236,2035,1793,1865,1984
65028,16576,-16056,16650,-16118,-3800,-3597,-15,-9,1,-161,133,3903,0,6,821,1753,1871,2066,2235,2035,1793,1866,1984
66029,16584,-16056,16650,-16118,-3800,-3697,-13,-8,2,-142,114,3909,14,12,821,1753,1871,2066,2235,2035,1793,1866,1984
67030,16588,-16060,16650,-16118,-3800,-3642,-13,-7,3,-146,112,3910,-4,9,821,1753,1871,2066,2235,2035,1793,1866,1984
68031,16584,-16060,16650,-16118,-3800,-3692,-12,-8,1,-151,123,3908,-3,7,821,1753,1871,2066,2235,2035,1793,1866,1984
69032,16596,-16072,16650,-16118,-3800,-3528,-12,-8,2,-150,115,3913,13,-2,821,1753,1871,2066,2235,2035,1793,1866,1984
70033,16584,-16076,16650,-16118,-3800,-3623,-11,-8,4,-149,100,3921,8,-3,820,1754,1872,2066,2235,2034,1793,1864,1984
71034,16584,-16076,16650,-16118,-3800,-3673,-14,-9,5,-156,127,3922,3,-3,820,1754,1872,2066,2235,2034,1793,1864,1984
72035,16592,-16072,16650,-16118,-3800,-3728,-16,-9,5,-157,107,3942,12,-2,821,1754,1872,2066,2235,2034,1793,1864,1984
73036,16588,-16076,16650,-16118,-3800,-3623,-16,-7,3,-149,127,3956,4,0,821,1754,1872,2066,2235,2034,1793,1864,1984
74037,16580,-16064,16650,-16118,-3800,-3800,-15,-7,0,-167,127,3900,0,1,821,1754,1872,2066,2235,2034,1793,1864,1984
75038,16588,-16072,16650,-16118,-3800,-3578,-13,-7,1,-170,134,3882,-4,11,821,1754,1872,2066,2235,2034,1793,1864,1984
76039,16580,-16056,16650,-16118,-3800,-3800,-14,-5,2,-184,120,3931,4,11,821,1753,1872,2067,2236,2034,1793,1865,1982
77040,16580,-16064,16650,-16118,-3800,-3587,-11,-3,2,-155,112,3890,11,8,821,1753,1872,2067,2236,2034,1793,1865,1982
78041,16588,-16064,16650,-16118,-3800,-3687,-12,-5,2,-130,111,3900,11,-3,821,1753,1872,2067,2236,2034,1793,1865,1982
79042,16588,-16060,16650,-16118,-3800,-3742,-14,-7,3,-130,148,3920,1,1,821,1753,1872,2067,2236,2034,1793,1865,1982
80043,16580,-16060,16650,-16118,-3800,-3692,-15,-6,2,-140,106,3947,-3,10,821,1753,1872,2067,2236,2034,1793,1865,1982
81044,16596,-16064,16650,-16118,-3800,-3637,-14,-6,2,-145,91,3931,2,4,821,1754,1872,2066,2236,2034,1792,1865,1984
82045,16600,-16056,16650,-16118,-3800,-3797,-12,-7,3,-169,85,3919,12,-3,821,1754,1872,2066,2236,2034,1792,1865,1984
83046,16584,-16064,16650,-16118,-3800,-3587,-10,-8,3,-158,116,3911,6,1,821,1754,1872,2066,2236,2034,1792,1865,1984
84047,16576,-16064,16650,-16118,-3800,-3687,-12,-9,1,-167,135,3916,-4,12,821,1754,1872,2066,2236,2034,1792,1865,1984
85048,16588,-16064,16650,-16118,-3800,-3687,-14,-8,4,-141,154,3949,10,6,821,1754,1872,2066,2236,2034,1792,1865,1984
86049,16576,-16052,16650,-16118,-3800,-3800,-14,-7,4,-140,148,3950,12,-1,821,1754,1872,2066,2236,2034,1792,1865,1984
87050,16588,-16060,16650,-16118,-3800,-3592,-15,-6,3,-128,125,3966,-4,0,820,1754,1870,2066,2234,2034,1792,1865,1982
88051,16588,-16056,16650,-16118,-3800,-3747,-9,-3,1,-142,131,3959,6,2,819,1754,1870,2066,2234,2034,1792,1865,1982
89052,16596,-16060,16650,-16118,-3800,-3642,-8,-4,1,-150,145,3931,-1,2,821,1754,1870,2066,2234,2034,1792,1865,1982
90053,16588,-16060,16650,-16118,-3800,-3692,-12,-9,5,-155,126,3935,14,11,821,1754,1870,2066,2234,2034,1792,1865,1982
91054,16584,-16060,16650,-16118,-3800,-3692,-12,-7,7,-152,126,3923,-4,2,821,1754,1870,2066,2234,2034,1792,1865,1982
92055,16584,-16064,16650,-16118,-3800,-3637,-9,-7,5,-145,125,3916,-1,-1,821,1754,1872,2067,2236,2034,1792,1864,1984
93056,16596,-16060,16650,-16118,-3800,-3742,-11,-7,3,-151,135,3891,12,1,821,1754,1872,2067,2236,2034,1792,1864,1984
94057,16580,-16052,16650,-16118,-3800,-3800,-12,-6,4,-149,105,3911,-4,11,821,1754,1872,2067,2236,2034,1792,1864,1984
95058,16584,-16076,16650,-16118,-3800,-3373,-12,-6,4,-145,109,3911,5,10,821,1754,1872,2067,2236,2034,1792,1864,1984
96059,16584,-16056,16650,-16118,-3800,-3800,-10,-5,3,-155,109,3887,9,-2,821,1754,1872,2067,2236,2034,1792,1864,1984
97060,16580,-16056,16650,-16118,-3800,-3697,-9,-5,0,-146,104,3914,-4,-2,821,1754,1872,2067,2236,2034,1792,1864,1984
98061,16588,-16056,16650,-16118,-3800,-3697,-10,-6,-2,-134,110,3905,4,7,821,1753,1870,2066,2235,2034,1792,1865,1984
99062,16592,-16048,16650,-16118,-3800,-3800,-11,-8,0,-139,118,3924,11,8,821,1753,1870,2066,2235,2034,1792,1865,1984
100063,16588,-16072,16650,-16118,-3800,-3378,-13,-8,1,-135,132,3931,-2,0,821,1753,1870,2066,2235,2034,1792,1865,1984
101064,16584,-16060,16650,-16118,-3800,-3800,-12,-7,0,-157,131,3936,14,-3,821,1753,1870,2066,2235,2034,1792,1865,1984
102065,16588,-16068,16650,-16118,-3800,-3583,-11,-5,1,-152,129,3926,-1,9,821,1753,1870,2066,2235,2034,1792,1865,1984
103066,16588,-16056,16650,-16118,-3800,-3800,-12,-6,3,-136,137,3929,3,12,821,1756,1872,2068,2236,2036,1793,1865,1984
104067,16580,-16060,16650,-16118,-3800,-3642,-13,-7,3,-155,131,3920,13,10,820,1756,1872,2068,2236,2036,1793,1865,1984
105068,16600,-16052,16650,-16118,-3800,-3800,-11,-10,3,-163,159,3953,6,0,820,1756,1872,2068,2236,2036,1793,1865,1984
106069,16584,-16060,16650,-16118,-3800,-3593,-8,-9,3,-162,151,3946,9,2,821,1756,1872,2068,2236,2036,1793,1865,1984
107070,16588,-16064,16650,-16118,-3800,-3638,-9,-5,3,-160,125,3918,7,-1,821,1756,1872,2068,2236,2036,1793,1865,1984
108071,16584,-16076,16650,-16118,-3800,-3524,-11,-3,2,-146,111,3942,-5,-2,821,1756,1872,2068,2236,2036,1793,1865,1984
109072,16592,-16060,16650,-16118,-3800,-3800,-12,-5,2,-159,122,3913,8,2,821,1753,1870,2067,2235,2035,1792,1865,1983
110073,16576,-16060,16650,-16118,-3800,-3693,-13,-9,0,-155,114,3906,14,9,821,1753,1870,2067,2235,2035,1792,1865,1983
111074,16588,-16060,16650,-16118,-3800,-3693,-13,-9,0,-155,144,3938,0,7,821,1753,1870,2067,2235,2035,1792,1865,1983
112075,16592,-16060,16650,-16118,-3800,-3693,-12,-6,3,-155,131,3966,-2,1,821,1753,1870,2067,2235,2035,1792,1865,1983
113076,16588,-16064,16650,-16118,-3800,-3638,-12,-7,4,-165,130,3929,10,-2,821,1753,1870,2067,2235,2035,1792,1865,1983
114077,16588,-16064,16650,-16118,-3800,-3688,-13,-6,0,-140,132,3929,4,-1,821,1756,1872,2066,2234,2034,1793,1865,1984
115078,16584,-16060,16650,-16118,-3800,-3743,-16,-7,-2,-116,98,3920,-4,8,821,1756,1872,2066,2234,2034,1793,1865,1984
116079,16596,-16052,16650,-16118,-3800,-3800,-16,-7,-2,-167,119,3898,-5,11,821,1756,1872,2066,2234,2034,1793,1865,1984
117080,16580,-16056,16650,-16118,-3800,-3648,-15,-6,-1,-143,99,3897,5,8,821,1756,1872,2066,2234,2034,1793,1865,1984
118081,16588,-16056,16650,-16118,-3800,-3698,-15,-4,4,-142,110,3903,13,2,821,1756,1872,2066,2234,2034,1793,1865,1984
119082,16588,-16072,16650,-16118,-3800,-3479,-13,-5,4,-148,127,3960,0,-2,821,1756,1872,2066,2234,2034,1793,1865,1984
120083,16580,-16056,16650,-16118,-3800,-3800,-13,-8,2,-153,142,3933,-2,0,821,1754,1870,2066,2234,2034,1792,1865,1983
121084,16588,-16060,16650,-16118,-3800,-3643,-14,-8,-1,-157,129,3936,13,4,820,1754,1870,2066,2234,2034,1792,1865,1983
122085,16588,-16060,16650,-16118,-3800,-3693,-13,-8,1,-197,145,3946,14,5,820,1754,1870,2066,2234,2034,1792,1865,1983
123086,16580,-16072,16650,-16118,-3800,-3529,-13,-7,2,-182,114,3931,13,12,821,1754,1870,2066,2234,2034,1792,1865,1983
124087,16596,-16056,16650,-16118,-3800,-3800,-12,-6,0,-154,140,3927,13,11,821,1754,1870,2066,2234,2034,1792,1865,1983
125088,16588,-16064,16650,-16118,-3800,-3588,-12,-6,0,-151,125,3910,-1,8,820,1754,1872,2067,2236,2035,1793,1865,1983
126089,16584,-16064,16650,-16118,-3800,-3688,-14,-7,1,-152,126,3916,-2,-3,821,1754,1872,2067,2236,2035,1793,1865,1983
127090,16588,-16068,16650,-16118,-3800,-3634,-16,-8,1,-142,143,3957,14,-2,820,1754,1872,2067,2236,2035,1793,1865,1983
128091,16592,-16064,16650,-16118,-3800,-3738,-16,-6,3,-149,156,3974,-1,1,821,1754,1872,2067,2236,2035,1793,1865,1983
129092,16588,-16056,16650,-16118,-3800,-3798,-12,-6,5,-154,145,3956,9,10,821,1754,1872,2067,2236,2035,1793,1865,1983
130093,16596,-16068,16650,-16118,-3800,-3534,-12,-5,4,-148,129,3930,5,12,820,1754,1872,2067,2236,2035,1793,1865,1983
131094,16592,-16056,16650,-16118,-3800,-3800,-12,-5,4,-133,130,3927,-4,11,821,1755,1871,2067,2236,2034,1793,1865,1983
132095,16596,-16056,16650,-16118,-3800,-3698,-13,-8,3,-132,113,3935,14,4,821,1755,1871,2067,2236,2034,1793,1865,1983
133096,16592,-16060,16650,-16118,-3800,-3643,-14,-5,-1,-137,126,3981,-4,3,820,1755,1871,2067,2236,2034,1793,1865,1983
134097,16596,-16072,16650,-16118,-3800,-3529,-13,-4,-2,-132,137,3954,8,-1,820,1755,1871,2067,2236,2034,1793,1865,1983
135098,16588,-16056,16650,-16118,-3800,-3800,-16,-6,3,-144,123,3943,2,0,820,1755,1871,2067,2236,2034,1793,1865,1983
136099,16584,-16068,16650,-16118,-3800,-3534,-14,-6,5,-158,127,3934,-2,9,821,1755,1871,2067,2236,2035,1792,1865,1982
137100,16584,-16068,16650,-16118,-3800,-3684,-13,-6,2,-139,121,3908,6,11,821,1755,1871,2067,2236,2035,1792,1865,1982
138101,16592,-16064,16650,-16118,-3800,-3738,-13,-7,1,-135,119,3922,9,-2,820,1755,1871,2067,2236,2035,1792,1865,1982
139102,16588,-16060,16650,-16118,-3800,-3743,-12,-9,3,-161,95,3927,-5,0,819,1755,1871,2067,2236,2035,1792,1865,1982
140104,16592,-16060,16650,-16118,-3800,-3693,-14,-8,1,-147,107,3916,0,1,821,1755,1871,2067,2236,2035,1792,1865,1982
141104,16588,-16068,16650,-16118,-3800,-3584,-14,-8,2,-133,111,3965,-4,-1,821,1755,1871,2067,2236,2035,1792,1865,1982
142105,16588,-16060,16650,-16118,-3800,-3793,-12,-8,0,-158,114,3956,13,6,821,1755,1871,2063,2235,2034,1794,1867,1984
143106,16580,-16052,16650,-16118,-3800,-3800,-13,-5,-1,-160,95,3931,6,9,821,1755,1871,2063,2235,2034,1794,1867,1984
144107,16584,-16056,16650,-16118,-3800,-3648,-13,-5,0,-160,108,3943,-5,10,821,1755,1871,2063,2235,2034,1794,1867,1984
145108,16576,-16060,16650,-16118,-3800,-3643,-14,-4,3,-168,103,3949,1,8,821,1755,1871,2063,2235,2034,1794,1867,1984
146109,16580,-16060,16650,-16118,-3800,-3693,-10,-4,3,-159,115,3920,9,1,821,1755,1871,2063,2235,2034,1794,1867,1984
147110,16588,-16052,16650,-16118,-3800,-3800,-11,-5,2,-155,117,3905,12,-3,821,1756,1871,2067,2235,2034,1792,1865,1982
148111,16592,-16060,16650,-16118,-3800,-3594,-14,-5,3,-143,112,3900,-4,-2,821,1756,1871,2067,2235,2034,1792,1865,1982
149112,16596,-16068,16650,-16118,-3800,-3585,-13,-4,5,-155,111,3929,-3,4,821,1756,1871,2067,2235,2034,1792,1865,1982
150113,16592,-16060,16650,-16118,-3800,-3794,-12,-5,2,-149,119,3930,12,12,821,1756,1871,2067,2235,2034,1792,1865,1982
151114,16592,-16068,16650,-16118,-3800,-3585,-10,-5,-1,-159,103,3902,9,11,821,1756,1871,2067,2235,2034,1792,1865,1982
152115,16588,-16068,16650,-16118,-3800,-3685,-9,-6,2,-149,107,3905,-2,7,821,1756,1871,2067,2235,2034,1792,1865,1982
153116,16588,-16060,16650,-16118,-3800,-3794,-11,-8,0,-160,118,3943,0,-2,821,1758,1873,2068,2236,2034,1793,1865,1984
154117,16584,-16068,16650,-16118,-3800,-3585,-13,-6,-1,-160,104,3935,12,-3,821,1758,1873,2068,2236,2034,1793,1865,1984
155118,16584,-16072,16650,-16118,-3800,-3630,-13,-2,1,-165,134,3965,14,-2,820,1758,1873,2068,2236,2034,1793,1865,1984
156119,16588,-16060,16650,-16118,-3800,-3800,-12,-3,5,-159,111,3920,2,5,819,1758,1873,2068,2236,2034,1793,1865,1984
157120,16588,-16064,16650,-16118,-3800,-3639,-9,-4,5,-173,109,3895,10,3,821,1758,1873,2068,2236,2034,1793,1865,1984
158121,16588,-16064,16650,-16118,-3800,-3689,-10,-3,3,-142,125,3904,3,8,821,1754,1870,2067,2236,2035,1793,1865,1983
159122,16584,-16068,16650,-16118,-3800,-3635,-12,-5,1,-126,108,3903,-4,10,821,1754,1870,2067,2236,2035,1793,1865,1983
160123,16588,-16064,16650,-16118,-3800,-3739,-11,-6,3,-155,124,3933,10,5,821,1754,1870,2067,2236,2035,1793,1865,1983
161124,16592,-16056,16650,-16118,-3800,-3799,-10,-6,5,-138,134,3926,12,-1,821,1754,1870,2067,2236,2035,1793,1865,1983
162125,16592,-16060,16650,-16118,-3800,-3644,-15,-8,5,-145,130,3922,-4,-1,821,1754,1870,2067,2236,2035,1793,1865,1983
163126,16584,-16064,16650,-16118,-3800,-3639,-12,-6,2,-165,137,3914,2,-2,821,1754,1870,2067,2236,2035,1793,1865,1983
164127,16588,-16044,16650,-16118,-3800,-3800,-9,-4,2,-163,130,3904,6,-2,821,1754,1870,2065,2234,2034,1792,1865,1983
165128,16588,-16056,16650,-16118,-3800,-3549,-9,-4,4,-143,138,3944,14,8,821,1754,1870,2065,2234,2034,1792,1865,1983
166129,16584,-16056,16650,-16118,-3800,-3699,-9,-6,4,-137,129,3946,-1,10,821,1754,1870,2065,2234,2034,1792,1865,1983
167130,16588,-16068,16650,-16118,-3800,-3535,-10,-4,3,-157,121,3934,-3,11,821,1754,1870,2065,2234,2034,1792,1865,1983
168131,16592,-16064,16650,-16118,-3800,-3739,-10,-3,2,-155,122,3931,-4,2,821,1754,1870,2065,2234,2034,1792,1865,1983
169132,16588,-16064,16650,-16118,-3800,-3689,-12,-5,3,-170,132,3898,0,-3,821,1755,1871,2067,2236,2034,1793,1863,1983
170133,16584,-16056,16650,-16118,-3800,-3799,-12,-6,2,-160,138,3893,2,-2,821,1755,1871,2067,2236,2034,1793,1863,1983
171134,16580,-16048,16650,-16118,-3800,-3800,-13,-5,2,-144,153,3948,11,8,821,1755,1871,2067,2236,2034,1793,1863,1983
172135,16576,-16064,16650,-16118,-3800,-3489,-12,-7,3,-145,132,3938,12,11,822,1755,1871,2067,2236,2034,1793,1863,1983
173136,16588,-16060,16650,-16118,-3800,-3744,-11,-6,3,-150,99,3893,4,12,820,1755,1871,2067,2236,2034,1793,1863,1983
174137,16584,-16052,16650,-16118,-3800,-3800,-12,-7,3,-133,133,3913,10,9,821,1755,1871,2067,2236,2034,1793,1863,1983
175138,16588,-16064,16650,-16118,-3800,-3539,-14,-8,3,-147,135,3913,2,1,821,1755,1871,2067,2236,2035,1793,1865,1982
176139,16584,-16052,16650,-16118,-3800,-3800,-12,-8,3,-164,118,3912,-4,-3,821,1755,1871,2067,2236,2035,1793,1865,1982
177140,16592,-16072,16650,-16118,-3800,-3430,-10,-8,3,-160,101,3928,2,0,821,1755,1871,2067,2236,2035,1793,1865,1982
178141,16580,-16068,16650,-16118,-3800,-3735,-14,-6,3,-150,114,3932,14,7,821,1755,1871,2067,2236,2035,1793,1865,1982
179142,16580,-16052,16650,-16118,-3800,-3800,-13,-8,2,-161,127,3943,10,12,821,1755,1871,2067,2236,2035,1793,1865,1982
180143,16584,-16064,16650,-16118,-3800,-3539,-13,-6,0,-158,118,3938,-4,2,821,1756,1871,2068,2236,2036,1792,1865,1984
181144,16588,-16060,16650,-16118,-3800,-3744,-12,-6,0,-141,131,3923,1,-3,821,1756,1871,2068,2236,2036,1792,1865,1984
182145,16592,-16056,16650,-16118,-3800,-3749,-15,-7,2,-130,122,3919,13,2,821,1756,1871,2068,2236,2036,1792,1865,1984
183146,16592,-16060,16650,-16118,-3800,-3644,-14,-6,1,-167,100,3953,2,11,822,1756,1871,2068,2236,2036,1792,1865,1984
184147,16576,-16064,16650,-16118,-3800,-3639,-11,-6,1,-167,111,3930,-2,6,821,1756,1871,2068,2236,2036,1792,1865,1984
185148,16592,-16052,16650,-16118,-3800,-3800,-9,-8,2,-165,116,3902,11,5,821,1756,1871,2068,2236,2036,1792,1865,1984
186149,16588,-16064,16650,-16118,-3800,-3539,-12,-7,3,-144,121,3957,3,-3,821,1755,1871,2066,2235,2034,1792,1865,1982
187150,16588,-16060,16650,-16118,-3800,-3745,-12,-7,2,-134,143,3956,1,-3,821,1755,1871,2066,2235,2034,1792,1865,1982
188151,16580,-16064,16650,-16118,-3800,-3640,-12,-9,1,-139,122,3951,14,-3,821,1755,1871,2066,2235,2034,1792,1865,1982
189152,16584,-16068,16650,-16118,-3800,-3636,-12,-7,-1,-136,130,3917,-4,5,820,1755,1871,2066,2235,2034,1792,1865,1982
190153,16592,-16072,16650,-16118,-3800,-3631,-13,-6,0,-133,122,3930,8,7,820,1755,1871,2066,2235,2034,1792,1865,1982
191154,16576,-16048,16650,-16118,-3800,-3800,-14,-8,1,-169,116,3913,2,3,821,1754,1870,2066,2236,2035,1794,1866,1983
192155,16588,-16048,16650,-16118,-3800,-3710,-14,-7,1,-156,115,3920,11,11,822,1754,1870,2066,2236,2035,1794,1866,1983
193156,16580,-16068,16650,-16118,-3800,-3436,-14,-6,0,-168,94,3946,0,12,822,1754,1870,2066,2236,2035,1794,1866,1983
194157,16580,-16060,16650,-16118,-3800,-3795,-12,-4,-2,-145,92,3932,-4,11,822,1754,1870,2066,2236,2035,1794,1866,1983
195158,16588,-16068,16650,-16118,-3800,-3586,-13,-6,-1,-151,112,3906,12,5,821,1754,1870,2066,2236,2035,1794,1866,1983
196159,16584,-16060,16650,-16118,-3800,-3795,-14,-6,1,-175,129,3923,4,3,822,1754,1870,2066,2236,2035,1794,1866,1983
197160,16596,-16060,16650,-16118,-3800,-3695,-12,-8,0,-165,130,3938,-4,1,821,1755,1871,2066,2236,2035,1791,1863,1982
198161,16584,-16064,16650,-16118,-3800,-3640,-14,-10,-1,-150,136,3898,7,-2,821,1755,1871,2066,2236,2035,1791,1863,1982
199162,16604,-16056,16650,-16118,-3800,-3800,-14,-8,1,-157,124,3907,14,-2,822,1755,1871,2066,2236,2035,1791,1863,1982
200163,16592,-16060,16715,-16053,725,483,-13,-7,1,-143,104,3915,3,-1,821,1755,1871,2066,2236,2035,1791,1863,1982
201164,16596,-16068,16780,-15988,599,622,-13,-6,1,-143,130,3923,-1,7,814,1755,1871,2066,2236,2035,1791,1863,1982
202165,16588,-16048,16845,-15923,838,327,-15,-7,1,-142,138,3950,9,13,815,1757,1871,2067,2236,2035,1793,1865,1975
203166,16592,-16056,16910,-15858,763,766,-16,-11,5,-184,92,3914,15,11,814,1757,1871,2067,2236,2035,1793,1865,1975
204167,16624,-16040,16975,-15793,453,526,-17,-12,7,-187,86,3955,23,21,811,1757,1871,2067,2236,2035,1793,1865,1975
205168,16636,-16032,17040,-15728,768,696,-16,-12,5,-104,90,3932,17,10,816,1757,1871,2067,2236,2035,1793,1865,1975
206169,16660,-16024,17105,-15663,668,765,-17,-22,5,-136,56,3895,29,13,812,1757,1871,2067,2236,2035,1793,1865,1975
207170,16684,-16008,17170,-15598,718,725,-22,-27,6,-253,97,3854,19,26,811,1757,1871,2067,2236,2035,1793,1865,1975
208171,16712,-15972,17235,-15533,713,510,-24,-36,1,-343,178,3867,24,18,812,1755,1871,2099,2267,2048,1792,1895,2015
209172,16748,-15956,17300,-15468,649,820,-22,-41,3,-257,75,3985,22,26,814,1755,1871,2099,2267,2048,1792,1895,2015
210173,16780,-15944,17365,-15403,740,935,-20,-24,0,45,62,4162,26,17,813,1755,1871,2099,2267,2048,1792,1895,2015
211174,16832,-15900,17430,-15338,505,562,-18,-10,-3,36,90,4013,27,32,811,1755,1871,2099,2267,2048,1792,1895,2015
212175,16852,-15860,17495,-15273,960,642,-14,-14,-8,-201,117,4020,29,38,815,1755,1871,2099,2267,2048,1792,1895,2015
213176,16900,-15804,17560,-15208,632,453,-10,-31,-13,-355,84,3864,37,33,811,1755,1871,2066,2232,2036,1790,1866,1990
214177,16944,-15776,17625,-15143,708,848,-8,-41,-14,-446,49,3905,31,27,815,1755,1871,2066,2232,2036,1790,1866,1990
215178,17012,-15736,17690,-15078,404,730,-2,-30,-24,-93,135,4156,44,34,811,1755,1871,2066,2232,2036,1790,1866,1990
216179,17052,-15676,17755,-15013,785,486,-6,-33,-26,7,110,3944,41,30,814,1755,1871,2066,2232,2036,1790,1866,1990
217180,17112,-15636,17820,-14948,542,766,-9,-40,-21,-360,67,3923,32,33,814,1755,1871,2066,2232,2036,1790,1866,1990
218181,17144,-15600,17885,-14883,932,852,-10,-51,-19,-439,187,4051,49,43,814,1755,1871,2066,2232,2036,1790,1866,1990
219182,17204,-15536,17950,-14818,588,504,0,-79,-22,-398,98,3884,46,32,810,1757,1871,2061,2233,2035,1791,1870,1988
220183,17264,-15496,18015,-14753,594,834,-1,-95,-24,-323,134,4019,54,39,815,1757,1871,2061,2233,2035,1791,1870,1988
221184,17328,-15428,18080,-14688,546,481,4,-89,-21,-285,83,3994,36,47,813,1757,1871,2061,2233,2035,1791,1870,1988
222185,17376,-15360,18145,-14623,767,477,8,-80,-26,-287,85,4085,40,45,816,1757,1871,2061,2233,2035,1791,1870,1988
223186,17428,-15304,18210,-14558,733,639,7,-83,-26,-364,89,3964,51,49,814,1757,1871,2061,2233,2035,1791,1870,1988
224187,17508,-15240,18275,-14493,366,540,14,-76,-32,-175,73,4066,39,38,812,1755,1881,2075,2244,2033,1793,1869,1986
225188,17576,-15180,18340,-14428,512,596,9,-74,-39,-247,19,3877,40,41,816,1755,1881,2075,2244,2033,1793,1869,1986
226189,17612,-15120,18405,-14363,948,604,10,-82,-40,-424,22,3921,37,34,815,1755,1881,2075,2244,2033,1793,1869,1986
227190,17688,-15052,18470,-14298,434,500,5,-83,-41,-415,45,3970,54,52,812,1755,1881,2075,2244,2033,1793,1869,1986
228191,17748,-14984,18535,-14233,641,496,1,-101,-53,-360,30,3900,44,41,816,1755,1881,2075,2244,2033,1793,1869,1986
229192,17816,-14920,18600,-14168,538,547,-4,-118,-52,-432,-1,3872,36,45,815,1755,1881,2075,2244,2033,1793,1869,1986
230193,17868,-14852,18665,-14103,753,495,-3,-118,-56,-306,23,3945,40,46,815,1767,1882,2075,2244,2027,1787,1864,1982
231194,17928,-14780,18730,-14038,661,436,-9,-121,-53,-341,51,3883,39,43,814,1767,1882,2075,2244,2027,1787,1864,1982
232195,17992,-14720,18795,-13973,612,592,-16,-126,-56,-396,-45,3951,52,42,815,1767,1882,2075,2244,2027,1787,1864,1982
233196,18060,-14652,18860,-13908,558,490,-15,-135,-62,-420,77,3908,38,45,814,1767,1882,2075,2244,2027,1787,1864,1982
234197,18112,-14600,18925,-13843,775,706,-3,-139,-63,-383,146,3956,38,37,815,1767,1882,2075,2244,2027,1787,1864,1982
235198,18172,-14544,18990,-13778,681,667,-3,-146,-57,-436,-46,4046,47,48,812,1760,1874,2065,2233,2032,1790,1864,1984
236199,18224,-14484,19055,-13713,797,623,14,-140,-57,-255,72,4143,42,46,814,1760,1874,2065,2233,2032,1790,1864,1984
237200,18280,-14424,19120,-13648,758,630,21,-135,-49,-354,143,4112,41,49,813,1760,1874,2065,2233,2032,1790,1864,1984
238201,18340,-14372,19185,-13583,715,746,32,-147,-48,-391,63,3995,46,40,813,1760,1874,2065,2233,2032,1790,1864,1984
239202,18408,-14284,19250,-13518,611,268,43,-150,-55,-377,153,4139,52,39,812,1760,1874,2065,2233,2032,1790,1864,1984
240203,18472,-14220,19315,-13453,663,570,54,-159,-54,-309,106,3987,37,46,816,1760,1874,2065,2233,2032,1790,1864,1984
241204,18520,-14140,19380,-13388,884,351,60,-159,-43,-356,59,4020,48,46,813,1749,1864,2056,2224,2031,1791,1865,1981
242205,18572,-14084,19445,-13323,850,662,64,-172,-50,-351,164,3943,43,40,814,1749,1864,2056,2224,2031,1791,1865,1981
243206,18632,-14024,19510,-13258,756,619,63,-163,-56,-329,-15,3941,40,47,812,1749,1864,2056,2224,2031,1791,1865,1981
244207,18696,-13968,19575,-13193,708,681,65,-171,-62,-236,58,3918,45,46,813,1749,1864,2056,2224,2031,1791,1865,1981
245208,18744,-13880,19640,-13128,929,252,71,-168,-68,-349,22,3650,56,51,813,1749,1864,2056,2224,2031,1791,1865,1981
246209,18796,-13820,19705,-13063,895,609,79,-175,-74,-488,-162,3784,44,41,814,1731,1875,2071,2252,2048,1792,1856,1956
247210,18844,-13764,19770,-12998,967,671,86,-165,-95,-568,-48,3879,53,43,812,1731,1875,2071,2252,2048,1792,1856,1956
248211,18904,-13692,19835,-12933,823,462,90,-148,-100,-417,20,3871,55,45,811,1731,1875,2071,2252,2048,1792,1856,1956
249212,18968,-13632,19900,-12868,774,618,85,-150,-95,-240,37,3963,48,41,813,1731,1875,2071,2252,2048,1792,1856,1956
250213,19040,-13588,19965,-12803,667,844,82,-165,-89,-333,45,3888,56,53,813,1731,1875,2071,2252,2048,1792,1856,1956
251214,19092,-13504,20030,-12738,933,322,83,-166,-87,-374,126,3926,43,46,812,1731,1875,2071,2252,2048,1792,1856,1956
252215,19160,-13432,20095,-12673,729,463,90,-167,-72,-322,2,3895,56,54,813,1779,1891,2083,2255,2023,1787,1861,1974
253216,19224,-13360,20160,-12608,781,454,92,-169,-62,-89,63,3991,58,53,814,1779,1891,2083,2255,2023,1787,1861,1974
254217,19280,-13304,20225,-12543,892,666,102,-143,-53,-158,16,3983,55,42,814,1779,1891,2083,2255,2023,1787,1861,1974
255218,19336,-13240,20290,-12478,904,568,99,-143,-48,-167,7,3998,46,49,811,1779,1891,2083,2255,2023,1787,1861,1974
256219,19400,-13176,20355,-12413,805,569,118,-142,-47,-367,4,4025,51,40,812,1779,1891,2083,2255,2023,1787,1861,1974
257220,19448,-13112,20420,-12348,1026,570,123,-146,-55,-221,110,4121,37,46,812,1766,1877,2068,2243,2016,1778,1854,1969
258221,19504,-13056,20485,-12283,938,682,135,-147,-57,-31,20,4019,47,45,809,1766,1877,2068,2243,2016,1778,1854,1969
259222,19568,-13004,20550,-12218,839,748,128,-149,-57,-60,110,4054,43,43,811,1766,1877,2068,2243,2016,1778,1854,1969
260223,19624,-12940,20615,-12153,950,599,138,-136,-61,-140,73,4102,57,41,812,1766,1877,2068,2243,2016,1778,1854,1969
261224,19684,-12884,20680,-12088,907,711,133,-131,-66,-141,94,3916,58,53,811,1766,1877,2068,2243,2016,1778,1854,1969
262225,19748,-12796,20745,-12023,859,283,138,-131,-79,-6,221,3998,45,41,811,1766,1877,2068,2243,2016,1778,1854,1969
263226,19812,-12744,20810,-11958,861,749,135,-139,-75,-226,38,3860,43,53,814,1757,1868,2062,2235,2027,1789,1866,1984
264227,19856,-12688,20875,-11893,1136,711,139,-157,-75,-134,118,4053,49,49,811,1757,1868,2062,2235,2027,1789,1866,1984
265228,19900,-12640,20940,-11828,1162,832,147,-155,-74,-185,133,3846,46,44,808,1757,1868,2062,2235,2027,1789,1866,1984
266229,19960,-12568,21005,-11763,969,523,150,-168,-61,-134,61,3951,42,49,807,1757,1868,2062,2235,2027,1789,1866,1984
267233,20024,-12504,21070,-11698,920,624,153,-167,-54,-72,95,3836,49,53,811,1757,1868,2062,2235,2027,1789,1866,1984
268231,20072,-12436,21135,-11633,1141,572,163,-175,-58,-105,116,3836,58,39,812,1759,1870,2066,2232,2048,1796,1867,2000
269232,20124,-12364,21200,-11568,1108,513,164,-170,-47,-161,53,4011,45,56,810,1759,1870,2066,2232,2048,1796,1867,2000
270233,20188,-12304,21265,-11503,959,669,173,-161,-35,60,131,3968,43,40,810,1759,1870,2066,2232,2048,1796,1867,2000
271234,20256,-12252,21330,-11438,907,786,174,-166,-30,10,70,3895,54,48,810,1759,1870,2066,2232,2048,1796,1867,2000
272235,20328,-12188,21395,-11373,848,637,182,-143,-29,-213,19,3919,47,54,810,1759,1870,2066,2232,2048,1796,1867,2000
273236,20388,-12116,21460,-11308,1004,529,191,-141,-37,-210,149,3937,40,43,812,1759,1870,2066,2232,2048,1796,1867,2000
274237,20456,-12044,21525,-11243,901,521,192,-134,-42,-127,118,3910,42,39,811,1756,1873,2070,2234,2041,1792,1862,1980
275238,20512,-11992,21590,-11178,1062,787,183,-139,-34,174,212,3931,44,51,810,1756,1873,2070,2234,2041,1792,1862,1980
276239,20572,-11920,21655,-11113,1020,529,157,-131,-32,38,244,3919,39,38,808,1756,1873,2070,2234,2041,1792,1862,1980
277240,20616,-11864,21720,-11048,1245,741,143,-124,-34,-194,204,3921,55,56,811,1756,1873,2070,2234,2041,1792,1862,1980
278241,20668,-11808,21785,-10983,1162,752,125,-145,-36,-77,221,3894,41,47,807,1756,1873,2070,2234,2041,1792,1862,1980
279242,20740,-11736,21850,-10918,903,543,120,-159,-31,-8,114,3991,43,57,808,1753,1867,2061,2222,2019,1783,1857,1965
280243,20792,-11664,21915,-10853,1169,534,117,-161,-26,-105,104,3928,40,50,812,1753,1867,2061,2222,2019,1783,1857,1965
281244,20848,-11616,21980,-10788,1131,856,116,-158,-27,-188,149,4036,37,38,810,1753,1867,2061,2222,2019,1783,1857,1965
282245,20900,-11552,22045,-10723,1197,657,116,-150,-32,-176,143,3927,55,46,807,1753,1867,2061,2222,2019,1783,1857,1965
283246,20952,-11492,22110,-10658,1214,714,123,-158,-36,38,210,3866,39,45,808,1753,1867,2061,2222,2019,1783,1857,1965
284247,21008,-11428,22175,-10593,1175,666,132,-177,-23,70,163,3874,39,51,808,1727,1839,2061,2222,2019,1783,1857,1965
285248,21072,-11372,22240,-10528,1077,777,139,-192,-14,77,202,3921,46,56,808,1727,1839,2055,2223,2024,1780,1853,1976
286249,21136,-11308,22305,-10463,1079,678,148,-182,-6,-129,149,3935,41,50,809,1727,1839,2055,2223,2024,1780,1853,1976
287250,21184,-11228,22370,-10398,1299,461,145,-163,5,-86,133,4041,56,55,809,1727,1839,2055,2223,2024,1780,1853,1976
288251,21232,-11164,22435,-10333,1321,662,145,-146,13,-101,184,3864,39,54,808,1727,1839,2055,2223,2024,1780,1853,1976
289252,21304,-11116,22500,-10268,1012,883,140,-140,12,-43,153,3891,55,39,807,1727,1839,2055,2223,2024,1780,1853,1976
290253,21348,-11064,22565,-10203,1389,850,132,-147,2,12,73,3642,59,54,808,1767,1887,2079,2255,2071,1810,1888,2015
291254,21400,-10996,22630,-10138,1305,646,136,-142,25,-238,392,4116,49,38,805,1767,1887,2079,2255,2071,1810,1888,2015
292255,21468,-10936,22695,-10073,1102,752,132,-137,36,-193,299,3664,44,50,806,1767,1887,2079,2255,2071,1810,1888,2015
293256,21512,-10880,22760,-10008,1428,814,125,-159,28,-205,197,3918,59,46,809,1767,1887,2079,2255,2071,1810,1888,2015
294257,21568,-10828,22825,-9943,1290,880,121,-176,18,-34,287,4008,47,49,805,1767,1887,2079,2255,2071,1810,1888,2015
295258,21640,-10756,22890,-9878,1081,621,112,-172,14,-159,199,3977,58,44,805,1749,1865,2065,2235,2043,1795,1868,1988
296259,21712,-10668,22955,-9813,1074,394,103,-158,11,-117,290,3888,54,41,810,1749,1865,2065,2235,2043,1795,1868,1988
297260,21780,-10628,23020,-9748,1120,1025,90,-145,13,-225,225,3765,62,39,811,1749,1865,2065,2235,2043,1795,1868,1988
298261,21856,-10568,23085,-9683,1008,781,83,-141,2,-36,204,3933,58,49,806,1749,1865,2065,2235,2043,1795,1868,1988
299262,21916,-10516,23150,-9618,1214,898,82,-123,-3,-37,166,4002,57,45,809,1749,1865,2065,2235,2043,1795,1868,1988
300263,21980,-10436,23215,-9553,1166,529,75,-111,4,-8,145,3995,46,35,806,1749,1865,2065,2235,2043,1795,1868,1988
301264,22044,-10396,23280,-9488,1167,1060,73,-97,10,-100,170,4152,59,39,809,1754,1872,2069,2222,2032,1790,1864,1986
302265,22104,-10332,23345,-9423,1223,762,76,-89,13,-102,143,4122,46,45,805,1754,1872,2069,2222,2032,1790,1864,1986
303266,22164,-10272,23410,-9358,1230,818,78,-75,20,-19,101,4220,58,42,807,1754,1872,2069,2222,2032,1790,1864,1986
304267,22228,-10220,23475,-9293,1182,934,75,-70,33,-55,249,4187,46,51,806,1754,1872,2069,2222,2032,1790,1864,1986
305268,22280,-10164,23540,-9228,1349,896,77,-50,40,-32,295,4283,41,50,805,1754,1872,2069,2222,2032,1790,1864,1986
306269,22348,-10108,23605,-9163,1145,907,84,-12,45,49,234,4288,41,37,804,1737,1845,2050,2220,2039,1794,1864,1980
307270,22396,-10044,23670,-9098,1417,808,89,-7,51,-136,301,4180,50,44,806,1737,1845,2050,2220,2039,1794,1864,1980
308271,22460,-9988,23735,-9033,1218,920,95,5,56,-213,321,4228,57,51,804,1737,1845,2050,2220,2039,1794,1864,1980
309272,22512,-9944,23800,-8968,1385,1096,87,-1,66,-206,302,4025,45,40,804,1737,1845,2050,2220,2039,1794,1864,1980
310273,22560,-9868,23865,-8903,1456,682,78,-9,70,-236,458,4064,48,37,802,1737,1845,2050,2220,2039,1794,1864,1980
311274,22616,-9824,23930,-8838,1368,1109,66,-27,74,-224,408,3934,59,39,804,1737,1845,2050,2220,2039,1794,1864,1980
312275,22696,-9768,23995,-8773,1049,970,49,-44,73,-299,466,3846,49,46,803,1744,1860,2066,2231,2035,1795,1860,1985
313276,22748,-9728,24060,-8708,1416,1202,33,-60,91,-521,196,3622,61,44,807,1744,1860,2066,2231,2035,1795,1860,1985
314277,22792,-9656,24125,-8643,1542,793,19,-69,97,-82,386,3990,60,39,801,1744,1860,2066,2231,2035,1795,1860,1985
315278,22856,-9588,24190,-8578,1294,839,14,-56,98,-63,356,3810,52,53,803,1744,1860,2066,2231,2035,1795,1860,1985
316279,22932,-9528,24255,-8513,1130,947,9,-43,103,-147,288,3930,47,48,805,1744,1860,2066,2231,2035,1795,1860,1985
317280,23012,-9488,24320,-8448,1063,1227,18,-22,94,51,275,4119,50,37,806,1753,1868,2055,2211,2031,1791,1868,1991
318281,23068,-9420,24385,-8383,1374,873,24,0,98,13,174,3839,63,48,804,1753,1868,2055,2211,2031,1791,1868,1991
319282,23132,-9368,24450,-8318,1276,1090,28,24,111,2,201,4117,62,37,804,1753,1868,2055,2211,2031,1791,1868,1991
320283,23212,-9292,24515,-8253,1058,777,31,49,121,-154,412,4122,52,40,803,1753,1868,2055,2211,2031,1791,1868,1991
321284,23268,-9252,24580,-8188,1370,1258,31,47,125,-334,367,3974,49,41,808,1753,1868,2055,2211,2031,1791,1868,1991
322285,23332,-9196,24645,-8123,1271,1069,31,52,127,-258,425,4162,52,50,801,1753,1868,2055,2211,2031,1791,1868,1991
323286,23400,-9144,24710,-8058,1219,1135,44,64,124,-257,498,4142,43,52,803,1728,1844,2048,2208,2016,1751,1833,2016
324287,23440,-9096,24775,-7993,1599,1207,54,68,133,-82,445,4374,42,43,803,1728,1844,2048,2208,2016,1751,1833,2016
325288,23488,-9032,24840,-7928,1521,1008,55,66,140,-295,414,3947,50,39,799,1728,1844,2048,2208,2016,1751,1833,2016
326289,23552,-8968,24905,-7863,1322,1010,60,56,130,-510,684,4265,51,52,800,1728,1844,2048,2208,2016,1751,1833,2016
327290,23632,-8920,24970,-7798,1105,1231,49,40,130,-456,601,4055,54,41,803,1728,1844,2048,2208,2016,1751,1833,2016
328291,23696,-8844,25035,-7733,1306,869,47,3,120,-298,656,3954,52,42,803,1775,1887,2087,2255,2047,1807,1881,2012
329292,23748,-8800,25100,-7668,1473,1294,38,-36,128,-420,511,3976,44,50,804,1775,1887,2087,2255,2047,1807,1881,2012
330293,23800,-8724,25165,-7603,1489,881,29,-78,142,-284,492,3911,61,49,799,1775,1887,2087,2255,2047,1807,1881,2012
331294,23856,-8684,25230,-7538,1451,1362,14,-96,151,-147,494,3783,49,50,802,1775,1887,2087,2255,2047,1807,1881,2012
332295,23940,-8620,25295,-7473,1078,1064,3,-127,160,-166,506,3778,64,40,799,1775,1887,2087,2255,2047,1807,1881,2012
333296,23988,-8568,25360,-7408,1549,1231,11,-107,161,-16,482,3916,53,56,805,1775,1887,2087,2255,2047,1807,1881,2012
334297,24056,-8516,25425,-7343,1296,1246,4,-94,159,243,312,3791,63,37,799,1759,1875,2063,2227,2035,1791,1855,1983
335298,24108,-8448,25490,-7278,1513,1044,31,-46,156,410,456,4233,51,55,801,1759,1875,2063,2227,2035,1791,1855,1983
336299,24172,-8404,25555,-7213,1364,1369,52,-26,159,394,406,4066,59,51,801,1759,1875,2063,2227,2035,1791,1855,1983
337300,24244,-8348,25620,-7148,1256,1230,77,4,152,586,366,4125,52,39,799,1759,1875,2063,2227,2035,1791,1855,1983
338301,24324,-8284,25685,-7083,1138,1133,98,14,140,45,422,3976,59,55,802,1759,1875,2063,2227,2035,1791,1855,1983
339302,24416,-8228,25750,-7018,956,1244,105,-1,141,-617,171,3927,55,46,804,1747,1864,2066,2227,2027,1775,1846,1972
340303,24476,-8160,25815,-6953,1362,1091,116,-14,120,-286,521,4075,50,41,804,1747,1864,2066,2227,2027,1775,1846,1972
341304,24536,-8112,25880,-6888,1369,1362,113,-18,131,-737,269,3894,57,37,802,1747,1864,2066,2227,2027,1775,1846,1972
342305,24620,-8076,25945,-6823,1047,1548,112,-35,119,-786,640,4026,48,39,799,1747,1864,2066,2227,2027,1775,1846,1972
343306,24672,-8004,26010,-6758,1463,1089,109,-110,100,-471,659,3775,45,54,799,1747,1864,2066,2227,2027,1775,1846,1972
344307,24732,-7936,26075,-6693,1370,1137,108,-205,89,133,484,3835,56,53,801,1747,1864,2066,2227,2027,1775,1846,1972
345308,24788,-7876,26140,-6628,1431,1243,96,-266,91,-94,745,3906,42,42,801,1751,1863,2056,2228,1989,1757,1837,1951
346309,24832,-7832,26205,-6563,1608,1470,99,-301,75,-605,761,3827,43,39,799,1751,1863,2056,2228,1989,1757,1837,1951
347310,24884,-7776,26270,-6498,1523,1331,89,-283,61,-185,414,4268,44,48,796,1751,1863,2056,2228,1989,1757,1837,1951
348311,24964,-7720,26335,-6433,1156,1343,100,-232,53,748,590,4148,49,42,798,1751,1863,2056,2228,1989,1757,1837,1951
349312,25016,-7680,26400,-6368,1522,1573,126,-182,62,405,545,4157,49,47,802,1751,1863,2056,2228,1989,1757,1837,1951
350313,25092,-7592,26465,-6303,1210,946,134,-155,84,-120,303,4158,63,43,796,1739,1852,2039,2189,1984,1752,1828,1958
351314,25144,-7544,26530,-6238,1525,1467,156,-124,86,104,507,4232,50,46,805,1739,1852,2039,2189,1984,1752,1828,1958
352315,25196,-7488,26595,-6173,1542,1379,172,-108,79,110,420,4148,58,50,796,1739,1852,2039,2189,1984,1752,1828,1958
353316,25248,-7432,26660,-6108,1558,1390,190,-59,80,267,237,4222,52,54,796,1739,1852,2039,2189,1984,1752,1828,1958
354317,25316,-7368,26725,-6043,1355,1292,224,-24,67,406,397,4152,61,42,797,1739,1852,2039,2189,1984,1752,1828,1958
355318,25352,-7312,26790,-5978,1791,1403,237,-56,71,295,220,3961,54,44,801,1739,1852,2039,2189,1984,1752,1828,1958
356319,25416,-7244,26855,-5913,1443,1250,251,-77,47,360,560,4278,59,55,795,1752,1864,2035,2195,1988,1755,1827,1948
357320,25476,-7200,26920,-5848,1499,1576,261,-127,11,-361,729,3740,52,50,799,1752,1864,2035,2195,1988,1755,1827,1948
358321,25552,-7132,26985,-5783,1287,1273,271,-159,-13,-526,506,4237,50,58,795,1752,1864,2035,2195,1988,1755,1827,1948
359322,25632,-7068,27050,-5718,1218,1324,280,-203,-37,19,517,3713,48,46,801,1752,1864,2035,2195,1988,1755,1827,1948
360323,25708,-7008,27115,-5653,1256,1382,285,-256,-53,-83,646,3861,41,56,799,1752,1864,2035,2195,1988,1755,1827,1948
361324,25780,-6952,27180,-5588,1298,1443,302,-230,-67,-366,488,4276,44,47,799,1760,1824,2048,2280,2036,1732,1807,1911
362325,25840,-6880,27245,-5523,1455,1235,308,-192,-69,-496,392,3988,53,49,798,1760,1824,2048,2280,2036,1732,1807,1911
363326,25888,-6812,27310,-5458,1626,1281,323,-165,-69,-414,545,4376,47,58,799,1760,1824,2048,2280,2036,1732,1807,1911
364327,25940,-6760,27375,-5393,1592,1498,327,-133,-64,-247,272,4288,42,53,797,1760,1824,2048,2280,2036,1732,1807,1911
365329,26000,-6712,27440,-5328,1499,1569,341,-67,-63,-30,369,4412,59,43,795,1760,1824,2048,2280,2036,1732,1807,1911
366329,26068,-6648,27505,-5263,1396,1371,340,-18,-44,-59,249,4128,52,46,795,1760,1824,2048,2280,2036,1732,1807,1911
367330,26128,-6576,27570,-5198,1503,1263,334,2,-32,156,321,4026,52,45,799,1815,1919,2127,2303,2051,1808,1887,2003
368331,26184,-6516,27635,-5133,1564,1420,335,-41,-39,258,512,3919,66,57,799,1815,1919,2127,2303,2051,1808,1887,2003
369332,26268,-6476,27700,-5068,1192,1700,339,-105,-53,329,464,3982,58,52,796,1815,1919,2127,2303,2051,1808,1887,2003
370333,26336,-6408,27765,-5003,1388,1348,356,-148,-75,183,408,3918,55,42,797,1815,1919,2127,2303,2051,1808,1887,2003
371334,26412,-6344,27830,-4938,1275,1399,369,-170,-88,-172,384,4005,56,51,799,1815,1919,2127,2303,2051,1808,1887,2003
372335,26456,-6308,27895,-4873,1701,1785,391,-143,-114,166,428,4300,71,46,799,1783,1887,2091,2255,2031,1791,1871,1983
373336,26552,-6260,27960,-4808,1014,1656,401,-116,-142,528,245,4010,58,49,791,1783,1887,2091,2255,2031,1791,1871,1983
374337,26592,-6200,28025,-4743,1746,1513,416,-93,-162,387,376,4195,75,48,799,1783,1887,2091,2255,2031,1791,1871,1983
375338,26656,-6144,28090,-4678,1447,1575,435,-76,-163,189,235,4219,63,45,793,1783,1887,2091,2255,2031,1791,1871,1983
376339,26724,-6100,28155,-4613,1394,1751,450,-63,-180,784,293,4366,72,54,795,1783,1887,2091,2255,2031,1791,1871,1983
377340,26788,-6052,28220,-4548,1446,1722,484,-35,-211,750,498,4327,63,37,793,1783,1887,2091,2255,2031,1791,1871,1983
378341,26872,-6012,28285,-4483,1173,1853,515,-2,-227,125,495,4380,72,35,794,1726,1834,2049,2211,1998,1757,1834,1945
379342,26956,-5956,28350,-4418,1150,1665,538,13,-259,37,611,4320,54,36,794,1726,1834,2049,2211,1998,1757,1834,1945
380343,27036,-5916,28415,-4353,1183,1895,541,15,-277,220,475,4178,55,40,797,1726,1834,2049,2211,1998,1757,1834,1945
381344,27108,-5848,28480,-4288,1274,1543,552,13,-298,67,500,4254,45,32,793,1726,1834,2049,2211,1998,1757,1834,1945
382345,27180,-5812,28545,-4223,1267,1979,552,45,-303,-661,571,4309,61,29,797,1726,1834,2049,2211,1998,1757,1834,1945
383346,27248,-5768,28610,-4158,1313,1905,552,63,-310,-762,481,4286,55,42,792,1722,1850,2044,2222,2002,1759,1834,1947
384347,27316,-5732,28675,-4093,1310,2041,535,113,-303,-485,187,4349,48,39,792,1722,1850,2044,2222,2002,1759,1834,1947
385348,27376,-5688,28740,-4028,1417,1967,519,135,-278,-411,320,3998,57,44,790,1722,1850,2044,2222,2002,1759,1834,1947
386349,27432,-5620,28805,-3963,1479,1664,488,113,-267,-442,362,3999,66,46,791,1722,1850,2044,2222,2002,1759,1834,1947
387350,27496,-5572,28870,-3898,1380,1936,463,55,-284,-132,481,3844,54,35,794,1722,1850,2044,2222,2002,1759,1834,1947
388351,27576,-5532,28935,-3833,1162,2066,447,-7,-294,379,463,3722,56,48,792,1722,1850,2044,2222,2002,1759,1834,1947
389352,27636,-5476,29000,-3768,1419,1878,438,-46,-310,311,374,3644,69,51,792,1743,1860,2063,2243,2009,1780,1844,1963
390353,27708,-5420,29065,-3703,1261,1890,436,-67,-333,9,464,3688,66,37,792,1743,1860,2063,2243,2009,1780,1844,1963
391354,27776,-5356,29130,-3638,1307,1792,441,-75,-353,191,406,3902,55,50,793,1743,1860,2063,2243,2009,1780,1844,1963
392355,27836,-5280,29195,-3573,1414,1629,446,-78,-376,393,299,4019,56,57,794,1743,1860,2063,2243,2009,1780,1844,1963
393356,27900,-5220,29260,-3508,1367,1836,454,-56,-396,314,230,4095,62,44,795,1743,1860,2063,2243,2009,1780,1844,1963
394357,27964,-5164,29325,-3443,1368,1897,481,-13,-405,503,217,4183,71,46,793,1728,1844,2025,2199,2033,1786,1853,1984
395358,28040,-5080,29390,-3378,1205,1525,485,-6,-411,948,244,4021,76,53,792,1728,1844,2025,2199,2033,1786,1853,1984
396359,28108,-5016,29455,-3313,1302,1777,508,-3,-436,760,516,4257,76,61,798,1728,1844,2025,2199,2033,1786,1853,1984
397360,28196,-4948,29520,-3248,1025,1724,521,17,-472,276,649,4404,61,60,794,1728,1844,2025,2199,2033,1786,1853,1984
398361,28284,-4876,29585,-3183,997,1666,547,27,-505,43,624,4294,62,48,797,1728,1844,2025,2199,2033,1786,1853,1984
399362,28352,-4804,29650,-3118,1244,1658,539,59,-525,165,532,4289,48,58,799,1728,1844,2025,2199,2033,1786,1853,1984
400363,28432,-4740,29715,-3053,1076,1760,537,89,-543,-25,914,4436,58,44,797,1688,1800,1992,2144,2016,1752,1832,1952
401364,28516,-4672,29780,-2988,1003,1707,511,94,-549,-561,991,4283,63,51,796,1688,1800,1992,2144,2016,1752,1832,1952
402365,28576,-4596,29845,-2923,1310,1594,483,78,-539,-946,564,4289,52,49,798,1688,1800,1992,2144,2016,1752,1832,1952
403366,28652,-4528,29910,-2858,1097,1691,459,74,-512,-1324,711,4412,56,44,796,1688,1800,1992,2144,2016,1752,1832,1952
404367,28696,-4460,29975,-2793,1523,1688,435,35,-511,-926,824,4000,45,56,797,1688,1800,1992,2144,2016,1752,1832,1952
405368,28776,-4400,30040,-2728,1054,1795,399,-44,-502,-229,651,3965,47,48,793,1752,1844,2048,2208,2024,1803,1883,2000
406369,28852,-4332,30105,-2663,1092,1692,374,-125,-481,-41,703,3790,57,56,796,1752,1844,2048,2208,2024,1803,1883,2000
407370,28904,-4280,30170,-2598,1408,1909,346,-206,-473,-985,650,3447,66,38,797,1752,1844,2048,2208,2024,1803,1883,2000
408371,28984,-4212,30235,-2533,1041,1705,342,-239,-481,-923,639,3789,51,52,792,1752,1844,2048,2208,2024,1803,1883,2000
409372,29056,-4168,30300,-2468,1132,2032,356,-263,-481,96,562,3632,66,40,797,1752,1844,2048,2208,2024,1803,1883,2000
410373,29132,-4096,30365,-2403,1070,1673,368,-257,-477,448,327,3570,67,36,793,1752,1844,2048,2208,2024,1803,1883,2000
411374,29188,-4044,30430,-2338,1331,1940,381,-258,-472,-64,443,3864,57,52,797,1791,1903,2111,2279,2091,1838,1919,2047
412375,29248,-3984,30495,-2273,1288,1847,387,-229,-474,-15,540,3789,52,53,792,1791,1903,2111,2279,2091,1838,1919,2047
413376,29324,-3928,30560,-2208,1074,1908,400,-171,-487,615,503,3894,65,44,794,1791,1903,2111,2279,2091,1838,1919,2047
414377,29396,-3844,30625,-2143,1117,1536,419,-154,-512,1055,596,3940,68,41,795,1791,1903,2111,2279,2091,1838,1919,2047
415378,29500,-3796,30690,-2078,669,2008,417,-161,-524,1126,731,4079,54,52,799,1791,1903,2111,2279,2091,1838,1919,2047
416379,29588,-3736,30755,-2013,842,1864,405,-109,-524,106,580,3789,51,48,797,1756,1855,2059,2212,2027,1786,1850,1975
417380,29652,-3668,30820,-1948,1143,1761,371,-114,-533,-654,869,4036,53,34,797,1756,1855,2059,2212,2027,1786,1850,1975
418381,29732,-3616,30885,-1883,926,1978,359,-51,-547,-373,984,4360,42,38,795,1756,1855,2059,2212,2027,1786,1850,1975
419382,29796,-3548,30950,-1818,1127,1774,333,-81,-540,-612,965,3650,59,46,795,1756,1855,2059,2212,2027,1786,1850,1975
420383,29860,-3480,31015,-1753,1128,1772,309,-129,-534,-754,1039,4493,48,36,795,1756,1855,2059,2212,2027,1786,1850,1975
421384,29928,-3440,31080,-1688,1076,2153,297,-171,-534,-937,1175,4010,55,41,795,1756,1855,2059,2212,2027,1786,1850,1975
422385,30008,-3368,31145,-1623,907,1745,276,-316,-531,-897,1109,3715,43,47,792,1729,1830,2013,2178,2003,1757,1818,1940
423386,30064,-3312,31210,-1558,1219,1957,264,-424,-514,-599,1038,4232,63,38,798,1729,1830,2013,2178,2003,1757,1818,1940
424387,30140,-3252,31275,-1493,956,1914,253,-508,-485,-758,951,3664,59,40,793,1729,1830,2013,2178,2003,1757,1818,1940
425388,30192,-3184,31340,-1428,1273,1810,256,-514,-446,-1043,717,4095,53,41,794,1729,1830,2013,2178,2003,1757,1818,1940
426389,30268,-3128,31405,-1363,959,1972,276,-498,-409,-588,730,3878,62,35,793,1729,1830,2013,2178,2003,1757,1818,1940
427390,30332,-3068,31470,-1298,1111,1929,298,-518,-360,-232,698,3848,63,42,795,1703,1824,2026,2166,2015,1771,1848,1975
428391,30412,-2996,31535,-1233,893,1771,313,-510,-327,-306,518,3820,48,39,793,1703,1824,2026,2166,2015,1771,1848,1975
429392,30488,-2940,31600,-1168,930,1983,324,-482,-306,-267,745,3661,66,45,798,1703,1824,2026,2166,2015,1771,1848,1975
430393,30552,-2872,31665,-1103,1082,1830,343,-420,-286,91,861,3797,51,51,796,1703,1824,2026,2166,2015,1771,1848,1975
431394,30608,-2816,31730,-1038,1193,1991,350,-386,-270,331,746,3528,58,48,795,1703,1824,2026,2166,2015,1771,1848,1975
432395,30680,-2740,31795,-973,986,1728,349,-423,-270,184,909,3699,59,42,792,1703,1824,2026,2166,2015,1771,1848,1975
433396,30732,-2688,31860,-908,1251,2045,345,-425,-268,145,943,3722,63,55,797,1728,1845,2064,2212,2050,1790,1851,1992
434397,30804,-2612,31925,-843,993,1732,331,-438,-267,188,1017,3431,57,52,791,1728,1845,2064,2212,2050,1790,1851,1992
435398,30852,-2540,31990,-778,1315,1774,317,-426,-266,200,1145,3804,69,56,797,1728,1845,2064,2212,2050,1790,1851,1992
436399,30960,-2472,32055,-713,512,1822,299,-457,-260,-411,1083,3643,54,55,794,1728,1845,2064,2212,2050,1790,1851,1992
437400,31040,-2404,32120,-648,845,1818,298,-513,-265,-531,1262,3970,62,56,799,1728,1845,2064,2212,2050,1790,1851,1992
438401,31132,-2348,32185,-583,662,1980,288,-560,-257,-733,915,3942,54,46,798,1737,1846,2048,2191,1996,1729,1794,1944
439402,31204,-2296,32250,-518,904,2047,265,-575,-239,-753,1007,4075,62,37,797,1737,1846,2048,2191,1996,1729,1794,1944
440403,31284,-2236,32315,-453,786,1953,244,-577,-212,-1147,1046,4011,67,49,795,1737,1846,2048,2191,1996,1729,1794,1944
441404,31372,-2168,32380,-388,658,1850,224,-632,-197,-426,1009,3785,56,39,797,1737,1846,2048,2191,1996,1729,1794,1944
442405,31444,-2092,32445,-323,850,1738,207,-706,-166,235,953,4088,64,38,799,1737,1846,2048,2191,1996,1729,1794,1944
443406,31520,-2040,32510,-258,787,2054,205,-779,-145,-459,1107,3632,61,37,798,1737,1846,2048,2191,1996,1729,1794,1944
444407,31580,-1976,32575,-193,993,1906,207,-831,-140,-955,1085,3789,55,47,795,1750,1851,2046,2205,2013,1768,1841,1975
445408,31648,-1908,32640,-128,890,1853,209,-860,-123,-465,1006,4012,62,46,794,1750,1851,2046,2205,2013,1768,1841,1975
446409,31720,-1860,32705,-63,832,2124,217,-843,-80,257,1069,3909,49,43,797,1750,1851,2046,2205,2013,1768,1841,1975
447410,31788,-1784,32770,2,879,1762,214,-823,-21,-168,868,3818,56,35,794,1750,1851,2046,2205,2013,1768,1841,1975
448411,31868,-1732,32835,67,711,2079,224,-817,36,-508,964,3853,56,42,798,1750,1851,2046,2205,2013,1768,1841,1975
449412,31916,-1672,33034,266,1982,2835,234,-834,92,-245,1054,3755,64,38,794,1744,1879,2091,2239,2088,1816,1888,2032
450413,31996,-1612,33099,331,1565,2842,247,-828,127,58,993,3908,56,35,774,1744,1879,2091,2239,2088,1816,1888,2032
451414,32068,-1540,33164,396,1656,2685,246,-812,158,-84,1065,3806,69,38,778,1744,1879,2091,2239,2088,1816,1888,2032
452415,32176,-1460,33229,461,1155,2567,256,-788,202,225,1252,3942,73,29,778,1744,1879,2091,2239,2088,1816,1888,2032
453416,32268,-1368,33294,526,1322,2385,245,-762,247,530,1283,3998,86,49,787,1744,1879,2091,2239,2088,1816,1888,2032
454417,32380,-1268,33359,591,1015,2243,238,-789,275,-493,1180,3703,72,57,787,1744,1879,2091,2239,2088,1816,1888,2032
455418,32480,-1180,33424,656,1123,2366,228,-811,266,-1031,1232,3884,87,54,792,1711,1823,2035,2183,2039,1783,1863,1999
456419,32608,-1088,33489,721,696,2284,223,-858,278,-874,1163,3915,74,67,789,1711,1823,2035,2183,2039,1783,1863,1999
457420,32700,-980,33554,786,1113,2031,191,-927,270,195,1315,3898,77,64,793,1711,1823,2035,2183,2039,1783,1863,1999
458421,32812,-884,33619,851,807,2144,169,-1017,257,29,1262,3911,68,54,794,1711,1823,2035,2183,2039,1783,1863,1999
459422,32916,-784,33684,916,859,2053,148,-1069,242,-816,1442,4019,72,69,795,1711,1823,2035,2183,2039,1783,1863,1999
460423,33020,-684,33749,981,811,2010,142,-1130,199,-688,1522,3959,80,69,797,1742,1846,2057,2216,2057,1784,1848,1997
461424,33108,-592,33814,1046,984,2078,143,-1133,180,-80,1462,4435,88,63,797,1742,1846,2057,2216,2057,1784,1848,1997
462425,33212,-484,33879,1111,737,1826,147,-1139,187,442,1262,4254,85,72,792,1742,1846,2057,2216,2057,1784,1848,1997
463426,33304,-372,33944,1176,854,1719,157,-1138,208,-205,1139,4267,76,62,798,1742,1846,2057,2216,2057,1784,1848,1997
464427,33424,-280,34009,1241,437,1937,153,-1140,245,-390,1359,4667,70,63,799,1742,1846,2057,2216,2057,1784,1848,1997
465428,33540,-196,34074,1306,425,2014,159,-1155,319,-20,956,4058,80,64,800,1742,1846,2057,2216,2057,1784,1848,1997
466429,33644,-100,34139,1371,528,1827,151,-1140,382,511,1056,4300,71,60,799,1753,1865,2074,2217,2061,1807,1867,2010
467430,33744,-4,34204,1436,535,1789,123,-1110,418,-341,1338,4030,72,52,801,1753,1865,2074,2217,2061,1807,1867,2010
468431,33812,88,34269,1501,931,1807,118,-1062,468,-1418,1326,4211,56,58,801,1753,1865,2074,2217,2061,1807,1867,2010
469432,33896,180,34334,1566,708,1774,92,-1026,514,-600,1292,4112,55,51,798,1753,1865,2074,2217,2061,1807,1867,2010
470433,34000,268,34399,1631,411,1797,85,-1038,546,780,1600,4057,71,54,800,1753,1865,2074,2217,2061,1807,1867,2010
471434,34080,344,34464,1696,693,1935,57,-1072,588,459,1512,4205,59,60,802,1780,1898,2110,2262,2074,1811,1869,2014
472435,34160,444,34529,1761,675,1592,34,-1138,603,-779,1479,3644,61,50,798,1780,1898,2110,2262,2074,1811,1869,2014
473436,34220,528,34594,1826,931,1770,6,-1182,616,-1078,1493,4237,69,53,802,1780,1898,2110,2262,2074,1811,1869,2014
474437,34312,604,34659,1891,498,1857,-3,-1187,630,70,1352,3948,57,55,798,1780,1898,2110,2262,2074,1811,1869,2014
475438,34404,704,34724,1956,465,1515,-26,-1204,637,131,1254,3982,71,66,800,1780,1898,2110,2262,2074,1811,1869,2014
476439,34476,788,34789,2021,707,1692,-41,-1236,644,-564,1357,4152,53,49,804,1780,1898,2110,2262,2074,1811,1869,2014
477440,34568,876,34854,2086,424,1614,-55,-1250,623,-513,1369,4144,55,53,801,1745,1843,2083,2229,2063,1809,1865,2006
478441,34640,956,34919,2151,666,1696,-68,-1257,597,-7,1205,3893,67,51,804,1745,1843,2083,2229,2063,1809,1865,2006
479442,34716,1044,34984,2216,603,1568,-78,-1243,577,188,1385,4138,54,52,799,1745,1843,2083,2229,2063,1809,1865,2006
480443,34792,1144,35049,2281,589,1376,-82,-1226,570,75,1299,3970,52,61,803,1745,1843,2083,2229,2063,1809,1865,2006
481444,34872,1212,35114,2346,521,1773,-83,-1176,576,282,1274,4009,66,59,805,1745,1843,2083,2229,2063,1809,1865,2006
482445,34960,1300,35179,2411,393,1496,-95,-1141,576,307,1280,3817,57,49,801,1716,1824,2048,2180,2072,1792,1840,1995
483446,35040,1376,35244,2476,475,1632,-124,-1093,593,-123,1046,3799,66,58,805,1716,1824,2048,2180,2072,1792,1840,1995
484447,35108,1460,35309,2541,621,1510,-140,-1011,620,-417,1295,3965,49,51,803,1716,1824,2048,2180,2072,1792,1840,1995
485448,35180,1556,35374,2606,562,1322,-167,-949,650,-30,1131,3554,51,53,803,1716,1824,2048,2180,2072,1792,1840,1995
486449,35260,1632,35439,2671,444,1559,-187,-924,700,249,1148,3851,63,58,806,1716,1824,2048,2180,2072,1792,1840,1995
487450,35336,1704,35504,2736,481,1601,-211,-901,759,-256,1230,3461,59,50,804,1716,1824,2048,2180,2072,1792,1840,1995
488451,35396,1784,35569,2801,687,1483,-236,-895,799,-502,1254,3501,49,57,803,1709,1822,2035,2175,2054,1798,1852,1982
489452,35472,1876,35634,2866,473,1300,-262,-885,845,-314,1188,3503,62,60,803,1709,1822,2035,2175,2054,1798,1852,1982
490453,35544,1956,35699,2931,515,1433,-288,-878,895,-211,1097,3318,59,59,807,1709,1822,2035,2175,2054,1798,1852,1982
491454,35620,2048,35764,2996,452,1250,-312,-860,936,-364,980,3398,54,55,806,1709,1822,2035,2175,2054,1798,1852,1982
492457,35688,2112,35829,3061,549,1602,-343,-849,974,-293,1017,3330,53,49,807,1709,1822,2035,2175,2054,1798,1852,1982
493456,35752,2204,35894,3126,600,1219,-357,-844,1012,-226,958,3230,59,58,803,1704,1839,2059,2180,2048,1808,1856,1968
494457,35820,2264,35959,3191,546,1625,-370,-817,1033,-114,940,3345,61,60,807,1704,1839,2059,2180,2048,1808,1856,1968
495458,35888,2340,36024,3256,543,1413,-382,-796,1042,142,915,3099,47,56,803,1704,1839,2059,2180,2048,1808,1856,1968
496459,35948,2420,36089,3321,649,1344,-384,-764,1052,185,971,3251,60,50,804,1704,1839,2059,2180,2048,1808,1856,1968
497460,36028,2532,36154,3386,380,887,-400,-723,1048,274,876,3023,57,57,805,1704,1839,2059,2180,2048,1808,1856,1968
498461,36112,2612,36219,3451,307,1270,-422,-677,1035,286,917,3310,55,51,811,1704,1839,2059,2180,2048,1808,1856,1968
499462,36204,2724,36284,3516,174,812,-423,-619,1044,462,958,3178,62,56,808,1701,1808,2025,2173,2032,1784,1832,1949
500463,36252,2824,36349,3581,745,920,-434,-577,1051,641,775,2880,48,50,813,1701,1808,2025,2173,2032,1784,1832,1949
501464,36328,2912,36414,3646,381,1042,-440,-574,1048,255,763,3081,58,61,809,1701,1808,2025,2173,2032,1784,1832,1949
502465,36404,3000,36479,3711,368,1014,-460,-574,1048,-29,790,2997,46,56,810,1701,1808,2025,2173,2032,1784,1832,1949
503466,36476,3084,36544,3776,410,1041,-470,-556,1064,91,669,2985,44,60,810,1701,1808,2025,2173,2032,1784,1832,1949
504467,36544,3168,36609,3841,456,1018,-484,-535,1082,392,893,3115,55,49,810,1705,1810,2018,2160,2000,1760,1820,1936
505468,36636,3236,36674,3906,123,1215,-494,-511,1106,281,802,3055,50,54,810,1705,1810,2018,2160,2000,1760,1820,1936
506469,36696,3312,36739,3971,529,1102,-490,-507,1130,94,701,2989,58,61,809,1705,1810,2018,2160,2000,1760,1820,1936
507470,36760,3408,36804,4036,480,814,-491,-488,1167,-56,640,3040,42,59,809,1705,1810,2018,2160,2000,1760,1820,1936
508471,36852,3484,36869,4101,97,1051,-503,-473,1205,0,633,2902,60,50,811,1705,1810,2018,2160,2000,1760,1820,1936
509472,36920,3568,36934,4166,394,928,-509,-467,1251,29,573,2911,54,62,811,1700,1819,2012,2163,1986,1760,1820,1936
510473,36976,3652,36999,4231,555,905,-511,-460,1301,48,583,2989,48,48,811,1700,1819,2012,2163,1986,1746,1817,1929
511474,37036,3720,37064,4296,511,1102,-514,-456,1328,91,594,2915,40,58,810,1700,1819,2012,2163,1986,1746,1817,1929
512475,37100,3804,37129,4361,462,878,-496,-442,1357,60,470,2975,50,67,809,1700,1819,2012,2163,1986,1746,1817,1929
513476,37168,3908,37194,4426,408,581,-487,-448,1366,178,594,3018,42,52,809,1700,1819,2012,2163,1986,1746,1817,1929
514477,37248,4012,37259,4491,240,534,-471,-467,1378,184,513,2882,52,58,814,1700,1819,2012,2163,1986,1746,1817,1929
515478,37312,4104,37324,4556,441,651,-454,-439,1396,391,445,3091,58,61,815,1708,1827,2018,2173,1986,1748,1820,1931
516479,37372,4204,37389,4621,497,509,-432,-447,1385,524,352,2815,42,48,813,1708,1827,2018,2173,1986,1748,1820,1931
517480,37440,4300,37454,4686,394,521,-427,-465,1374,287,247,3069,52,49,814,1708,1827,2018,2173,1986,1748,1820,1931
518481,37508,4364,37519,4751,390,922,-415,-452,1370,122,386,3162,42,55,814,1708,1827,2018,2173,1986,1748,1820,1931
519482,37576,4468,37584,4816,386,374,-410,-425,1356,545,399,2932,48,50,811,1708,1827,2018,2173,1986,1748,1820,1931
520483,37640,4560,37649,4881,437,492,-399,-430,1344,672,232,3165,57,63,815,1727,1843,2033,2193,1979,1745,1818,1924
521484,37732,4636,37714,4946,55,679,-390,-445,1333,562,369,3093,47,55,814,1727,1843,2033,2193,1979,1745,1818,1924
522485,37800,4724,37779,5011,351,501,-380,-451,1307,371,348,3069,56,47,815,1727,1843,2033,2193,1979,1745,1818,1924
523486,37864,4804,37844,5076,402,583,-379,-437,1284,447,286,3167,55,55,815,1727,1843,2033,2193,1979,1745,1818,1924
524487,37940,4884,37909,5141,239,564,-372,-433,1278,580,258,3189,52,57,814,1727,1843,2033,2193,1979,1745,1818,1924
525488,38016,4980,37974,5206,225,326,-378,-446,1284,542,251,2915,55,49,815,1727,1843,2033,2193,1979,1745,1818,1924
526489,38076,5052,38039,5271,431,618,-384,-449,1280,210,195,3091,42,61,816,1747,1860,2047,2213,1977,1748,1825,1928
527490,38168,5160,38104,5336,-2,115,-400,-465,1282,217,242,3031,44,62,814,1747,1860,2047,2213,1977,1748,1825,1928
528491,38236,5236,38169,5401,295,502,-395,-464,1296,181,140,3194,61,57,818,1747,1860,2047,2213,1977,1748,1825,1928
529492,38324,5324,38234,5466,17,324,-386,-460,1312,239,217,3154,50,55,815,1747,1860,2047,2213,1977,1748,1825,1928
530493,38376,5408,38299,5531,483,351,-374,-454,1317,269,71,3243,49,46,816,1747,1860,2047,2213,1977,1748,1825,1928
531494,38456,5504,38364,5596,114,164,-360,-438,1320,299,76,3401,54,46,815,1729,1851,2037,2195,1991,1762,1842,1950
532495,38544,5588,38429,5661,-14,291,-338,-416,1321,317,65,3372,50,63,818,1729,1851,2037,2195,1991,1762,1842,1950
533496,38620,5668,38494,5726,123,322,-320,-403,1329,222,33,3435,46,57,818,1729,1851,2037,2195,1991,1762,1842,1950
534497,38700,5752,38559,5791,54,249,-297,-377,1336,266,-33,3519,48,59,818,1729,1851,2037,2195,1991,1762,1842,1950
535498,38808,5836,38624,5856,-348,226,-279,-364,1333,390,-63,3508,57,46,818,1729,1851,2037,2195,1991,1762,1842,1950
536499,38920,5924,38689,5921,-455,148,-265,-349,1320,327,-104,3619,44,48,817,1729,1851,2037,2195,1991,1762,1842,1950
537500,39052,6000,38754,5986,-787,284,-264,-325,1302,359,-75,3591,53,51,819,1717,1839,2025,2180,2010,1773,1844,2240
538501,39172,6080,38819,6051,-705,216,-264,-283,1283,473,-22,3573,42,57,818,1717,1839,2025,2180,2010,1773,1844,2240
539502,39256,6168,38884,6116,-279,88,-277,-263,1258,525,0,3458,52,50,818,1717,1839,2025,2180,2010,1773,1844,2240
540503,39348,6268,38949,6181,-412,-105,-280,-253,1196,504,385,3482,45,57,819,1717,1839,2025,2180,2010,1773,1844,2240
541504,39420,6356,39014,6246,-170,17,-275,-259,1126,335,499,3372,54,45,819,1717,1839,2025,2180,2010,1773,1844,2240
542505,39480,6464,39079,6311,-14,-286,-262,-255,1071,573,424,3369,56,55,819,1720,1843,2028,2187,2015,1786,1855,1962
543506,39560,6592,39144,6376,-282,-613,-264,-244,1008,793,341,3447,41,53,818,1720,1843,2028,2187,2015,1786,1855,1962
544507,39604,6712,39209,6441,193,-580,-251,-258,965,649,475,3282,40,54,814,1720,1843,2028,2187,2015,1786,1855,1962
545508,39680,6812,39274,6506,-221,-373,-230,-257,947,274,140,3527,39,42,815,1720,1843,2028,2187,2015,1786,1855,1962
546509,39756,6868,39339,6571,-235,188,-230,-256,939,314,-190,3464,40,48,805,1720,1843,2028,2187,2015,1786,1855,1962
547510,39812,6944,39404,6636,26,-75,-231,-265,931,457,-219,3586,53,43,814,1720,1843,2028,2187,2015,1786,1855,1962
548511,39884,7004,39469,6701,-182,131,-235,-245,953,404,-372,3777,54,50,819,1720,1845,2036,2194,2018,1784,1815,1921
549512,39956,7072,39534,6766,-191,27,-253,-174,986,755,-203,3775,45,47,813,1720,1845,2036,2194,2018,1784,1815,1921
550513,40020,7116,39599,6831,-89,353,-272,-107,1009,675,-241,3568,59,39,808,1720,1845,2036,2194,2018,1784,1815,1921
551514,40100,7192,39664,6896,-309,-61,-296,-50,1003,508,-216,3734,55,50,814,1720,1845,2036,2194,2018,1784,1815,1921
552515,40164,7264,39729,6961,-108,-20,-318,-9,1009,419,-166,3625,48,38,818,1720,1845,2036,2194,2018,1784,1815,1921
553516,40228,7332,39794,7026,-106,26,-339,44,1002,548,-20,3769,41,50,816,1725,1831,2012,2164,1986,1787,1857,1967
554517,40320,7404,39859,7091,-489,-33,-369,69,986,266,-156,3621,44,46,815,1725,1831,2012,2164,1986,1787,1857,1967
555518,40388,7460,39924,7156,-193,178,-382,60,956,290,-122,3559,47,37,818,1725,1831,2012,2164,1986,1787,1857,1967
556519,40452,7532,39989,7221,-142,-30,-384,15,930,110,-113,3622,50,50,819,1725,1831,2012,2164,1986,1787,1857,1967
557520,40532,7596,40054,7286,-361,71,-382,-23,899,-50,-374,3548,60,46,813,1725,1831,2012,2164,1986,1787,1857,1967
558521,40588,7656,40119,7351,-50,127,-379,-54,858,301,-348,3710,49,43,818,1725,1831,2012,2164,1986,1787,1857,1967
559522,40668,7724,40184,7416,-368,24,-362,-99,814,271,-193,3573,58,48,819,1718,1842,2035,2194,2055,1813,1866,1973
560523,40760,7812,40249,7481,-551,-256,-344,-98,764,215,-301,3797,48,44,818,1718,1842,2035,2194,2055,1813,1866,1973
561524,40836,7888,40314,7546,-365,-119,-320,-44,722,526,-310,3971,58,47,816,1718,1842,2035,2194,2055,1813,1866,1973
562525,40924,7964,40379,7611,-544,-132,-304,-2,690,785,-113,3949,52,40,819,1718,1842,2035,2194,2055,1813,1866,1973
563526,41004,8076,40444,7676,-462,-640,-293,33,660,565,-147,3953,50,55,819,1718,1842,2035,2194,2055,1813,1866,1973
564527,41100,8120,40509,7741,-700,236,-292,83,638,380,-233,3965,50,46,814,1718,1844,2028,2192,2058,1808,1888,1992
565528,41172,8196,40574,7806,-408,-178,-284,112,632,587,-212,3717,58,46,817,1718,1844,2028,2192,2058,1808,1888,1992
566529,41248,8252,40639,7871,-472,83,-287,138,625,606,-136,3822,49,54,819,1718,1844,2028,2192,2058,1808,1888,1992
567530,41328,8340,40704,7936,-541,-346,-297,156,617,294,-278,3491,62,48,819,1718,1844,2028,2192,2058,1808,1888,1992
568531,41420,8392,40769,8001,-724,120,-311,163,626,307,-329,3675,54,43,818,1718,1844,2028,2192,2058,1808,1888,1992
569532,41524,8476,40834,8066,-922,-303,-318,161,651,270,-409,3637,66,39,819,1718,1844,2028,2192,2058,1808,1888,1992
570533,41588,8552,40899,8131,-421,-216,-325,135,682,248,-570,3565,64,42,818,1751,1877,2049,2234,2022,1790,1867,1932
571534,41680,8608,40964,8196,-805,45,-330,102,697,140,-488,3674,71,46,819,1751,1877,2049,2234,2022,1790,1867,1932
572535,41788,8684,41029,8261,-1057,-219,-346,124,712,-175,-685,3946,70,39,820,1751,1877,2049,2234,2022,1790,1867,1932
573536,41868,8748,41094,8326,-725,-69,-368,191,746,253,-921,4172,57,45,819,1751,1877,2049,2234,2022,1790,1867,1932
574537,42000,8816,41159,8391,-1458,-122,-399,227,779,691,-878,4286,61,42,819,1751,1877,2049,2234,2022,1790,1867,1932
575538,42104,8892,41224,8456,-1156,-236,-418,271,788,156,-793,4034,62,42,819,1762,1884,2067,2241,1991,1788,1858,1958
576539,42208,8952,41289,8521,-1203,-30,-434,286,761,140,-742,4294,58,51,819,1762,1884,2067,2241,1991,1788,1858,1958
577540,42284,9032,41354,8586,-868,-298,-436,267,719,130,-774,4038,60,52,820,1762,1884,2067,2241,1991,1788,1858,1958
578541,42404,9096,41419,8651,-1485,-97,-430,192,690,-225,-572,3711,59,55,819,1762,1884,2067,2241,1991,1788,1858,1958
579542,42504,9180,41484,8716,-1278,-371,-398,110,648,-9,-511,3903,64,38,819,1762,1884,2067,2241,1991,1788,1858,1958
580543,42600,9248,41549,8781,-1266,-175,-354,27,636,-189,-759,3667,76,58,818,1762,1884,2067,2241,1991,1788,1858,1958
581544,42720,9308,41614,8846,-1634,-68,-309,-45,602,-34,-643,3809,81,55,817,1763,1850,2066,2243,2064,1826,1895,2004
582545,42840,9396,41679,8911,-1702,-447,-263,-63,573,-182,-777,3944,80,44,811,1763,1850,2066,2243,2064,1826,1895,2004
583546,42932,9464,41744,8976,-1385,-200,-232,-64,560,252,-490,4003,73,46,817,1763,1850,2066,2243,2064,1826,1895,2004
584547,43064,9516,41809,9041,-1966,16,-213,-22,564,630,-642,3986,72,55,819,1763,1850,2066,2243,2064,1826,1895,2004
585548,43168,9612,41874,9106,-1665,-573,-209,22,572,729,-524,3734,72,52,819,1763,1850,2066,2243,2064,1826,1895,2004
586549,43280,9676,41939,9171,-1822,-172,-204,24,578,556,-587,3597,71,47,812,1773,1890,2074,2257,2051,1809,1888,1990
587550,43416,9728,42004,9236,-2210,-6,-176,-9,586,480,-554,3435,67,43,819,1773,1890,2074,2257,2051,1809,1888,1990
588551,43540,9820,42069,9301,-2132,-539,-160,-2,606,134,-340,3600,81,56,820,1773,1890,2074,2257,2051,1809,1888,1990
589552,43684,9884,42134,9366,-2480,-188,-184,50,634,301,-370,3756,89,44,816,1773,1890,2074,2257,2051,1809,1888,1990
590554,43772,9952,42199,9431,-1809,-242,-224,99,690,422,-652,3763,88,42,816,1773,1890,2074,2257,2051,1809,1888,1990
591554,43912,10020,42264,9496,-2550,-246,-273,108,726,91,-483,3979,79,45,819,1773,1890,2074,2257,2051,1809,1888,1990
592555,44044,10096,42329,9561,-2533,-360,-321,69,744,-324,-695,3912,83,56,819,1800,1916,2084,2270,1994,1770,1853,1940
593556,44168,10152,42394,9626,-2506,-99,-358,25,751,-15,-721,4104,73,44,818,1800,1916,2084,2270,1994,1770,1853,1940
594557,44284,10224,42459,9691,-2468,-307,-364,-119,750,-357,-785,3387,93,48,818,1800,1916,2084,2270,1994,1770,1853,1940
595558,44436,10280,42524,9756,-3025,-97,-378,-251,727,-881,-1023,4150,85,43,818,1800,1916,2084,2270,1994,1770,1853,1940
596559,44568,10360,42589,9821,-2858,-415,-360,-356,714,-349,-953,3568,84,40,819,1800,1916,2084,2270,1994,1770,1853,1940
597560,44708,10420,42654,9886,-3050,-159,-321,-486,707,159,-1150,3741,76,51,818,1774,1880,2071,2252,2021,1782,1862,1974
598561,44824,10476,42719,9951,-2813,-98,-270,-522,688,28,-1335,4096,93,52,817,1774,1880,2071,2252,2021,1782,1862,1974
599562,44948,10548,42784,10016,-2986,-307,-237,-495,657,200,-1167,4047,79,46,819,1774,1880,2071,2252,2021,1782,1862,1974
600563,45116,10612,42849,10081,-3663,-207,-214,-475,620,810,-1081,4263,88,53,818,1774,1880,2071,2252,2021,1782,1862,1974
601564,45236,10672,42914,10146,-3131,-151,-227,-480,612,942,-1306,3545,89,42,819,1774,1880,2071,2252,2021,1782,1862,1974
602565,45364,10732,42979,10211,-3309,-144,-250,-451,605,647,-1043,4055,98,45,819,1774,1880,2071,2252,2021,1782,1862,1974
603566,45512,10816,43044,10276,-3660,-468,-318,-329,592,671,-963,3667,93,51,819,1769,1882,2067,2247,2063,1825,1899,2013
604567,45652,10880,43109,10341,-3653,-216,-382,-257,589,1028,-778,3562,96,45,817,1769,1882,2067,2247,2063,1825,1899,2013
605568,45796,10944,43174,10406,-3800,-216,-422,-237,600,885,-693,3819,98,31,819,1769,1882,2067,2247,2063,1825,1899,2013
606569,45956,11008,43239,10471,-3800,-215,-461,-259,627,323,-807,3806,89,44,819,1769,1882,2067,2247,2063,1825,1899,2013
607570,46092,11056,43304,10536,-3800,6,-479,-293,653,-359,-950,3778,96,39,819,1769,1882,2067,2247,2063,1825,1899,2013
608571,46256,11104,43369,10601,-3800,26,-519,-384,663,-28,-801,3995,80,34,820,1769,1885,2068,2252,2176,1861,1932,2028
609572,46372,11164,43434,10666,-3800,-118,-536,-510,676,212,-956,3858,83,45,820,1769,1885,2068,2252,2176,1861,1932,2028
610573,46512,11236,43499,10731,-3800,-277,-550,-639,681,-229,-981,3792,91,46,819,1769,1885,2068,2252,2176,1861,1932,2028
611574,46652,11292,43564,10796,-3800,-66,-564,-707,683,-409,-828,4053,95,44,800,1769,1885,2068,2252,2176,1861,1932,2028
612575,46776,11356,43629,10861,-3800,-165,-552,-778,660,-41,-880,4288,99,37,819,1769,1885,2068,2252,2176,1861,1932,2028
613576,46920,11408,43694,10926,-3800,1,-527,-778,654,457,-1193,4462,97,51,819,1769,1885,2068,2252,2176,1861,1932,2028
614577,47076,11464,43759,10991,-3800,-38,-495,-774,656,856,-1210,4872,93,43,820,1731,1821,2042,2222,2129,1877,1938,2049
615578,47216,11528,43824,11056,-3800,-138,-465,-774,646,713,-1399,4540,93,39,810,1731,1821,2042,2222,2129,1877,1938,2049
616579,47356,11568,43889,11121,-3800,193,-483,-701,637,959,-1501,5079,94,39,819,1731,1821,2042,2222,2129,1877,1938,2049
617580,47520,11640,43954,11186,-3800,-216,-529,-605,640,1191,-1129,4332,90,44,820,1731,1821,2042,2222,2129,1877,1938,2049
618581,47620,11700,44019,11251,-3800,-60,-614,-486,665,955,-1268,4727,90,53,819,1731,1821,2042,2222,2129,1877,1938,2049
619582,47788,11760,44084,11316,-3800,-53,-689,-415,668,848,-1011,4312,94,42,815,1758,1886,2087,2271,2102,1860,1919,2031
620583,47908,11820,44149,11381,-3800,-48,-757,-403,671,286,-1150,4241,96,41,820,1758,1886,2087,2271,2102,1860,1919,2031
621584,48036,11888,44214,11446,-3800,-152,-812,-451,644,1223,-1055,4315,78,45,820,1758,1886,2087,2271,2102,1860,1919,2031
622585,48172,11952,44279,11511,-3800,-101,-853,-539,654,400,-1505,3816,77,50,820,1758,1886,2087,2271,2102,1860,1919,2031
623586,48284,12020,44344,11576,-3800,-154,-870,-550,661,186,-1455,4830,88,46,817,1758,1886,2087,2271,2102,1860,1919,2031
624587,48408,12080,44409,11641,-3800,-48,-813,-487,645,888,-1521,5138,78,57,819,1758,1886,2087,2271,2102,1860,1919,2031
625588,48548,12132,44474,11706,-3800,67,-725,-459,632,987,-1738,5462,-77,44,820,1807,1918,2130,2322,2121,1884,1939,2036
626589,48672,12200,44539,11771,-3800,-137,-620,-354,603,1108,-1707,6069,88,41,820,1807,1918,2130,2322,2121,1884,1939,2036
627590,48792,12244,44604,11836,-3800,188,-537,-247,587,1097,-1519,5732,87,53,818,1807,1918,2130,2322,2121,1884,1939,2036
628591,48904,12324,44669,11901,-3800,-280,-488,-193,567,859,-1312,5771,82,46,819,1807,1918,2130,2322,2121,1884,1939,2036
629592,48996,12392,44734,11966,-3800,-134,-498,-129,544,1197,-1173,5582,79,52,819,1807,1918,2130,2322,2121,1884,1939,2036
630593,49164,12452,44799,12031,-3800,-27,-506,-84,528,1183,-814,5237,71,42,819,1834,1948,2160,2408,2084,1837,1938,1990
631594,49240,12508,44864,12096,-3800,34,-537,-34,546,165,-1157,4989,75,39,819,1834,1948,2160,2408,2084,1837,1938,1990
632595,49372,12576,44929,12161,-3800,-121,-558,-3,513,696,-731,5475,76,40,818,1834,1948,2160,2408,2084,1837,1938,1990
633596,49496,12648,44994,12226,-3800,-180,-577,-4,513,1011,-1008,4566,82,41,819,1834,1948,2160,2408,2084,1837,1938,1990
634597,49588,12696,45059,12291,-3800,141,-592,17,497,878,-832,5287,63,46,819,1834,1948,2160,2408,2084,1837,1938,1990
635598,49668,12756,45124,12356,-3800,-3,-591,47,485,1153,-887,5304,65,39,819,1834,1948,2160,2408,2084,1837,1938,1990
636599,49772,12828,45189,12421,-3800,-161,-573,55,498,744,-920,4895,66,38,820,1926,2024,2203,2510,2066,1863,1943,1987
637600,49872,12888,45254,12486,-3800,-5,-526,108,495,900,-977,6026,75,37,820,1926,2024,2203,2510,2066,1863,1943,1987
638601,49964,12948,45319,12551,-3800,1,-455,150,497,1505,-1141,5241,56,40,820,1926,2024,2203,2510,2066,1863,1943,1987
639602,50076,13008,45384,12616,-3800,6,-363,185,493,1146,-1406,5338,54,41,820,1926,2024,2203,2510,2066,1863,1943,1987
640603,50152,13068,45449,12681,-3800,12,-284,214,465,1191,-1566,4948,67,50,820,1926,2024,2203,2510,2066,1863,1943,1987
641604,50240,13124,45514,12746,-3800,73,-222,252,427,1483,-1629,4986,60,46,820,1925,2025,2227,2477,2063,1849,1918,1985
642605,50312,13196,45579,12811,-3800,-135,-172,344,401,2006,-1725,5255,52,41,820,1925,2025,2227,2477,2063,1849,1918,1985
643606,50392,13252,45644,12876,-3800,76,-100,444,332,2209,-1439,4939,47,37,820,1925,2025,2227,2477,2063,1849,1918,1985
644607,50468,13292,45709,12941,-3800,306,-40,545,305,1233,-1846,5008,61,36,820,1925,2025,2227,2477,2063,1849,1918,1985
645608,50528,13368,45774,13006,-3800,-158,11,606,265,1538,-1484,5045,56,47,819,1925,2025,2227,2477,2063,1849,1918,1985
646609,50600,13448,45839,13071,-3800,-227,44,618,241,1678,-1347,4310,41,45,819,1925,2025,2227,2477,2063,1849,1918,1985
647610,50672,13496,45904,13136,-3800,194,75,522,201,992,-1104,4294,54,36,819,1889,1991,2180,2400,2003,1787,1864,1931
648611,50744,13544,45969,13201,-3800,215,88,464,166,455,-1080,4104,52,40,811,1889,1991,2180,2400,2003,1787,1864,1931
649612,50816,13616,46034,13266,-3800,-94,95,392,133,779,-905,4028,53,39,818,1889,1991,2180,2400,2003,1787,1864,1931
650613,50864,13656,46099,13331,-3800,337,99,312,115,963,-926,3626,39,48,819,1889,1991,2180,2400,2003,1787,1864,1931
651614,50920,13728,46164,13396,-3800,-72,94,277,101,746,-905,3778,48,40,819,1889,1991,2180,2400,2003,1787,1864,1931
652615,50984,13780,46229,13461,-3800,194,101,288,75,1020,-658,3857,44,46,814,1836,1938,2107,2326,1959,1746,1819,1918
653616,51052,13840,46294,13526,-3800,99,132,307,58,941,-801,3593,38,43,820,1836,1938,2107,2326,1959,1746,1819,1918
654617,51100,13848,46359,13591,-3800,819,158,323,51,926,-808,3789,44,46,820,1836,1938,2107,2326,1959,1746,1819,1918
655618,51144,13924,46424,13656,-3800,-45,184,319,38,1094,-755,3653,36,36,816,1836,1938,2107,2326,1959,1746,1819,1918
656619,51212,13976,46489,13721,-3800,271,211,343,35,951,-930,3509,29,39,816,1836,1938,2107,2326,1959,1746,1819,1918
657620,51248,14016,46554,13786,-3800,452,257,352,30,1173,-961,3381,32,50,819,1836,1938,2107,2326,1959,1746,1819,1918
658621,51284,14052,46619,13851,-3800,537,299,360,13,916,-902,3390,35,49,818,1766,1879,2041,2222,1991,1768,1854,1944
659622,51324,14080,46684,13916,-3800,682,337,322,-6,642,-999,3118,39,41,817,1766,1879,2041,2222,1991,1768,1854,1944
660623,51384,14144,46749,13981,-3800,234,367,283,-20,846,-1007,3069,36,53,815,1766,1879,2041,2222,1991,1768,1854,1944
661624,51424,14232,46814,14046,-3800,-95,391,197,-30,854,-934,2875,21,50,819,1766,1879,2041,2222,1991,1768,1854,1944
662625,51456,14324,46879,14111,-3800,-178,439,144,-50,1039,-837,2866,28,57,819,1766,1879,2041,2222,1991,1768,1854,1944
663626,51476,14392,46944,14176,-3800,119,495,121,-65,744,-964,2729,30,42,819,1729,1839,2030,2218,2009,1781,1847,1942
664627,51492,14472,47009,14241,-3800,-50,525,94,-76,490,-1041,2688,14,48,819,1729,1839,2030,2218,2009,1781,1847,1942
665628,51520,14536,47074,14306,-3800,151,553,77,-100,570,-912,2830,31,45,820,1729,1839,2030,2218,2009,1781,1847,1942
666629,51544,14612,47139,14371,-3800,-13,562,46,-122,721,-719,2644,10,41,818,1729,1839,2030,2218,2009,1781,1847,1942
667633,51572,14688,47204,14436,-3800,-26,571,34,-147,573,-739,2659,25,39,820,1729,1839,2030,2218,2009,1781,1847,1942
668631,51596,14748,47269,14501,-3800,180,560,39,-169,466,-633,2956,26,43,820,1729,1839,2030,2218,2009,1781,1847,1942
669632,51608,14812,47334,14566,-3800,131,541,45,-177,382,-589,2756,25,38,820,1741,1843,2004,2231,1969,1745,1813,1895
670633,51620,14876,47399,14631,-3800,132,519,35,-178,337,-461,3090,24,36,820,1741,1843,2004,2231,1969,1745,1813,1895
671634,51628,14940,47464,14696,-3800,134,503,45,-173,220,-355,3020,15,35,819,1741,1843,2004,2231,1969,1745,1813,1895
672635,51652,14984,47529,14761,-3800,409,492,67,-166,198,-324,3148,5,33,820,1741,1843,2004,2231,1969,1745,1813,1895
673636,51656,15048,47594,14826,-3800,161,481,63,-152,-5,-317,3400,8,34,819,1741,1843,2004,2231,1969,1745,1813,1895
674637,51680,15108,47659,14891,-3800,217,473,58,-131,-147,-263,3333,21,38,819,1752,1849,2039,2240,1950,1738,1811,1891
675638,51672,15168,47724,14956,-3631,222,484,63,-107,-66,-258,3521,17,34,819,1752,1849,2039,2240,1950,1738,1811,1891
676639,51680,15236,47789,15021,-3763,118,509,87,-84,19,-264,3590,5,37,819,1752,1849,2039,2240,1950,1738,1811,1891
677640,51688,15292,47854,15086,-3695,279,546,95,-62,88,-238,3658,2,37,820,1752,1849,2039,2240,1950,1738,1811,1891
678641,51680,15348,47919,15151,-3408,290,584,120,-46,41,-253,3587,6,34,819,1752,1849,2039,2240,1950,1738,1811,1891
679642,51684,15416,47984,15216,-3484,136,628,144,-43,-23,-204,3823,14,35,819,1752,1849,2039,2240,1950,1738,1811,1891
680643,51684,15492,48049,15281,-3357,23,682,190,-37,131,-133,3723,1,32,819,1753,1852,2057,2257,2007,1794,1861,1958
681644,51684,15556,48114,15346,-3278,174,734,237,-34,409,-56,3742,4,31,811,1753,1852,2057,2257,2007,1794,1861,1958
682645,51680,15620,48179,15411,-3145,175,791,258,-37,316,-118,3815,0,32,820,1753,1852,2057,2257,2007,1794,1861,1958
683646,51684,15684,48244,15476,-3173,177,840,299,-55,307,35,3775,16,29,817,1753,1852,2057,2257,2007,1794,1861,1958
684647,51680,15744,48309,15541,-2989,233,851,328,-60,157,107,3589,8,36,819,1753,1852,2057,2257,2007,1794,1861,1958
685648,51680,15800,48374,15606,-2961,294,856,331,-58,91,220,3527,-1,41,814,1803,1902,2119,2335,2041,1823,1848,1966
686649,51684,15860,48439,15671,-2939,250,868,331,-64,139,301,3683,1,32,819,1803,1902,2119,2335,2041,1823,1848,1966
687650,51676,15936,48504,15736,-2701,35,878,313,-61,39,251,3800,-2,41,819,1803,1902,2119,2335,2041,1823,1848,1966
688651,51684,15984,48569,15801,-2832,406,897,319,-58,133,220,3970,5,40,820,1803,1902,2119,2335,2041,1823,1848,1966
689652,51684,16044,48634,15866,-2654,262,907,334,-56,202,271,4071,0,45,816,1803,1902,2119,2335,2041,1823,1848,1966
690653,51684,16104,48699,15931,-2575,268,911,366,-58,31,259,4067,1,36,819,1803,1902,2119,2335,2041,1823,1848,1966
691654,51680,16156,48764,15996,-2443,384,904,380,-48,-31,271,4076,-2,44,819,1848,1936,2153,2340,2016,1801,1857,1944
692655,51696,16216,48829,16061,-2634,290,893,369,-29,-5,321,4165,-1,38,819,1848,1936,2153,2340,2016,1801,1857,1944
693656,51696,16288,48894,16126,-2356,132,876,339,5,-52,228,4283,16,41,817,1848,1936,2153,2340,2016,1801,1857,1944
694657,51696,16332,48959,16191,-2278,507,882,324,33,69,201,4644,11,43,819,1848,1936,2153,2340,2016,1801,1857,1944
695658,51692,16400,49024,16256,-2144,204,901,341,48,63,221,4782,8,35,819,1848,1936,2153,2340,2016,1801,1857,1944
696659,51696,16456,49089,16321,-2171,365,919,347,61,172,127,4808,16,30,819,1819,1923,2135,2324,2018,1800,1861,1972
697660,51704,16520,49154,16386,-2152,266,918,379,58,232,431,4787,17,33,818,1819,1923,2135,2324,2018,1800,1861,1972
698661,51696,16580,49219,16451,-1864,322,867,377,74,385,361,4096,11,45,819,1819,1923,2135,2324,2018,1800,1861,1972
699662,51700,16648,49418,16650,-1777,382,819,290,88,225,440,4108,-2,43,819,1819,1923,2135,2324,2018,1800,1861,1972
700663,51704,16712,49483,16715,-1704,433,796,214,76,-13,531,4294,3,49,817,1819,1923,2135,2324,2018,1800,1861,1972
701664,51716,16784,49548,16780,-1740,325,792,203,51,202,559,4257,1,48,817,1819,1923,2135,2324,2018,1800,1861,1972
702665,51708,16852,49613,16845,-1401,371,797,241,20,766,695,4481,8,48,819,1799,1907,2124,2289,2107,1867,1927,2071
703666,51716,16940,49678,16910,-1532,93,799,296,-3,760,648,4402,0,42,818,1799,1907,2124,2289,2107,1867,1927,2071
704667,51712,17024,49743,16975,-1299,120,780,291,-17,437,738,4201,15,42,819,1799,1907,2124,2289,2107,1867,1927,2071
705668,51700,17072,49808,17040,-1106,590,756,236,-32,128,757,4070,-1,32,819,1799,1907,2124,2289,2107,1867,1927,2071
706669,51724,17136,49873,17105,-1507,392,724,180,-54,158,859,4066,4,37,818,1799,1907,2124,2289,2107,1867,1927,2071
707670,51720,17224,49938,17170,-1073,64,700,132,-79,147,890,4077,16,39,818,1771,1891,2113,2265,2193,1931,1973,2087
708671,51720,17292,50003,17235,-1044,310,682,108,-87,153,863,4133,0,49,820,1771,1891,2113,2265,2193,1931,1973,2087
709672,51720,17364,50068,17300,-966,251,670,89,-80,173,816,4183,-2,49,819,1771,1891,2113,2265,2193,1931,1973,2087
710673,51708,17440,50133,17365,-722,188,641,70,-81,113,835,4191,1,38,819,1771,1891,2113,2265,2193,1931,1973,2087
711674,51712,17508,50198,17430,-849,284,608,41,-84,-24,873,4169,9,39,819,1771,1891,2113,2265,2193,1931,1973,2087
712675,51704,17584,50263,17495,-610,170,561,16,-76,-82,934,4175,0,48,819,1771,1891,2113,2265,2193,1931,1973,2087
713676,51716,17656,50328,17560,-796,211,499,-8,-77,87,928,4219,-2,34,820,1737,1860,2089,2233,2133,1909,1938,2073
714677,51732,17708,50393,17625,-786,477,429,-29,-72,65,827,4076,17,36,820,1737,1860,2089,2233,2133,1909,1938,2073
715678,51716,17784,50458,17690,-288,164,360,-40,-68,203,885,4139,3,44,819,1737,1860,2089,2233,2133,1909,1938,2073
716679,51728,17860,50523,17755,-573,150,287,-51,-75,109,797,4050,6,41,819,1737,1860,2089,2233,2133,1909,1938,2073
717681,51724,17928,50588,17820,-290,247,221,-52,-88,129,869,4149,12,37,819,1737,1860,2089,2233,2133,1909,1938,2073
718681,51716,17984,50653,17885,-151,408,155,-40,-100,220,798,4041,3,45,811,1725,1828,2073,2219,2119,1871,1895,2031
719682,51712,18052,50718,17950,-118,254,99,-43,-118,221,803,4071,17,42,819,1725,1828,2073,2219,2119,1871,1895,2031
720683,51720,18124,50783,18015,-198,195,50,-43,-140,161,713,3950,5,47,812,1725,1828,2073,2219,2119,1871,1895,2031
721684,51724,18200,50848,18080,-75,132,5,-41,-170,167,724,3937,3,45,811,1725,1828,2073,2219,2119,1871,1895,2031
722685,51724,18272,50913,18145,55,173,-30,-46,-192,244,782,3787,2,43,813,1725,1828,2073,2219,2119,1871,1895,2031
723686,51724,18340,50978,18210,134,220,-65,-49,-200,117,810,3825,12,31,819,1725,1828,2073,2219,2119,1871,1895,2031
724687,51724,18400,51043,18275,213,326,-97,-32,-226,62,809,3782,-1,34,819,1717,1800,2054,2208,2076,1835,1895,2027
725688,51720,18460,51108,18340,346,332,-122,-32,-249,59,832,3672,6,43,818,1717,1800,2054,2208,2076,1835,1895,2027
726689,51716,18544,51173,18405,431,9,-141,-35,-255,-1,870,3577,5,44,817,1717,1800,2054,2208,2076,1835,1895,2027
727690,51724,18580,51238,18470,350,644,-163,-43,-257,-86,966,3648,3,46,818,1717,1800,2054,2208,2076,1835,1895,2027
728691,51728,18652,51303,18535,475,186,-183,-50,-266,-139,1034,3601,23,42,816,1717,1800,2054,2208,2076,1835,1895,2027
729692,51732,18692,51368,18600,548,616,-201,-42,-263,-70,1033,3525,17,32,814,1730,1836,2072,2240,2100,1860,1896,2013
730693,51728,18776,51433,18665,732,43,-225,-36,-252,-54,1154,3578,27,45,817,1730,1836,2072,2240,2100,1860,1896,2013
731694,51736,18856,51498,18730,652,75,-243,0,-241,-107,1051,3599,31,50,813,1730,1836,2072,2240,2100,1860,1896,2013
732695,51756,18924,51563,18795,557,221,-259,16,-225,-35,1053,3560,29,43,816,1730,1836,2072,2240,2100,1860,1896,2013
733696,51780,18972,51628,18860,557,492,-273,27,-206,22,1036,3617,37,36,816,1730,1836,2072,2240,2100,1860,1896,2013
734697,51828,19028,51693,18925,278,402,-290,39,-201,48,1039,3637,34,35,814,1730,1836,2072,2240,2100,1860,1896,2013
735698,51860,19080,51758,18990,518,468,-302,38,-204,-127,1034,3633,40,41,814,1731,1835,2063,2239,2056,1820,1867,1974
736699,51904,19144,51823,19055,394,319,-301,51,-201,-171,945,3702,35,33,817,1731,1835,2063,2239,2056,1820,1867,1974
737700,51928,19204,51888,19120,694,375,-296,64,-198,20,888,3805,42,45,815,1731,1835,2063,2239,2056,1820,1867,1974
738701,51972,19256,51953,19185,469,491,-291,75,-200,133,806,3773,43,35,817,1731,1835,2063,2239,2056,1820,1867,1974
739702,52016,19316,52018,19250,495,397,-281,70,-197,33,756,3778,45,46,814,1731,1835,2063,2239,2056,1820,1867,1974
740703,52068,19376,52083,19315,411,403,-271,67,-195,21,736,3896,47,49,815,1768,1883,2107,2272,2016,1798,1848,1959
741704,52112,19432,52148,19380,536,464,-257,49,-205,-39,654,3673,39,41,816,1768,1883,2107,2272,2016,1798,1848,1959
742705,52184,19492,52213,19445,178,420,-253,43,-212,-44,504,3901,50,35,816,1768,1883,2107,2272,2016,1798,1848,1959
743706,52220,19564,52278,19510,663,262,-245,53,-207,326,599,3823,35,41,815,1768,1883,2107,2272,2016,1798,1848,1959
744707,52284,19660,52343,19575,315,-76,-228,62,-196,312,582,3864,45,42,817,1768,1883,2107,2272,2016,1798,1848,1959
745708,52332,19704,52408,19640,535,599,-228,52,-183,101,477,3759,51,46,815,1803,1895,2123,2311,2006,1786,1842,1947
746709,52396,19776,52473,19705,336,241,-232,56,-168,-125,524,3752,38,31,819,1803,1895,2123,2311,2006,1786,1842,1947
747710,52448,19820,52538,19770,502,616,-232,64,-166,132,781,3931,44,45,814,1803,1895,2123,2311,2006,1786,1842,1947
748711,52512,19884,52603,19835,354,368,-222,49,-144,76,551,3731,52,30,818,1803,1895,2123,2311,2006,1786,1842,1947
749712,52564,19944,52668,19900,519,424,-221,26,-124,85,649,3807,50,33,814,1803,1895,2123,2311,2006,1786,1842,1947
750713,52624,20016,52733,19965,426,265,-212,16,-103,109,730,3918,49,33,817,1803,1895,2123,2311,2006,1786,1842,1947
751714,52688,20076,52798,20030,377,421,-200,-7,-80,100,652,3802,40,44,813,1827,1921,2138,2330,2032,1811,1874,1978
752715,52752,20116,52863,20095,378,702,-179,-15,-55,12,670,3966,56,37,816,1827,1921,2138,2330,2032,1811,1874,1978
753716,52816,20192,52928,20160,379,238,-154,-17,-49,311,828,4224,58,31,817,1827,1921,2138,2330,2032,1811,1874,1978
754717,52888,20244,52993,20225,271,554,-121,-5,-20,44,524,4022,53,44,814,1827,1921,2138,2330,2032,1811,1874,1978
755718,52948,20292,53058,20290,427,625,-88,22,-4,339,606,4206,55,32,818,1827,1921,2138,2330,2032,1811,1874,1978
756719,53016,20352,53123,20355,323,481,-55,29,13,337,451,4067,46,46,816,1809,1907,2118,2309,2063,1829,1889,1996
757720,53084,20404,53188,20420,319,597,-30,36,32,231,509,4191,54,32,815,1809,1907,2118,2309,2063,1829,1889,1996
758721,53164,20472,53253,20485,151,393,-9,53,34,413,521,4166,44,34,817,1809,1907,2118,2309,2063,1829,1889,1996
759722,53216,20528,53318,20550,517,554,7,93,34,357,293,4334,37,35,816,1809,1907,2118,2309,2063,1829,1889,1996
760723,53260,20600,53383,20615,643,346,16,117,42,546,244,4164,55,36,818,1809,1907,2118,2309,2063,1829,1889,1996
761724,53336,20660,53448,20680,229,502,29,128,48,445,276,4237,53,35,815,1809,1907,2118,2309,2063,1829,1889,1996
762725,53392,20724,53513,20745,490,453,31,126,54,190,152,4000,45,35,815,1800,1901,2117,2307,2061,1826,1879,1982
763726,53456,20776,53578,20810,392,619,40,116,43,225,250,4137,37,46,817,1800,1901,2117,2307,2061,1826,1879,1982
764727,53524,20840,53643,20875,339,470,27,110,47,201,129,3989,41,38,815,1800,1901,2117,2307,2061,1826,1879,1982
765728,53576,20900,53708,20940,555,526,13,79,59,222,24,3963,39,38,815,1800,1901,2117,2307,2061,1826,1879,1982
766729,53632,20964,53773,21005,516,478,-11,52,63,335,34,4026,36,46,816,1800,1901,2117,2307,2061,1826,1879,1982
767730,53704,21032,53838,21070,307,424,-29,39,69,332,58,4046,50,43,814,1803,1902,2124,2319,2052,1826,1877,1981
768731,53748,21104,53903,21135,683,365,-45,43,93,359,-87,3997,53,42,814,1803,1902,2124,2319,2052,1826,1877,1981
769732,53816,21168,53968,21200,379,467,-57,58,113,600,-79,4243,37,39,816,1803,1902,2124,2319,2052,1826,1877,1981
770733,53876,21224,54033,21265,485,578,-66,82,142,593,-188,4141,47,37,814,1803,1902,2124,2319,2052,1826,1877,1981
771734,53920,21292,54098,21330,711,424,-74,118,173,571,-182,4233,38,33,816,1803,1902,2124,2319,2052,1826,1877,1981
772735,54000,21356,54163,21395,242,475,-72,148,191,565,-185,4145,40,40,815,1803,1902,2124,2319,2052,1826,1877,1981
773736,54052,21428,54228,21460,608,367,-69,149,204,509,-236,4052,45,35,814,1792,1891,2110,2293,2079,1850,1903,2015
774737,54104,21476,54293,21525,624,687,-62,152,219,565,-103,4190,34,39,817,1792,1891,2110,2293,2079,1850,1903,2015
775738,54184,21528,54358,21590,256,653,-54,146,228,539,-105,4077,37,34,815,1792,1891,2110,2293,2079,1850,1903,2015
776739,54232,21588,54423,21655,677,559,-44,132,229,526,-32,4168,53,39,813,1792,1891,2110,2293,2079,1850,1903,2015
777740,54292,21660,54488,21720,533,401,-27,124,217,538,-4,4013,47,43,816,1792,1891,2110,2293,2079,1850,1903,2015
778741,54344,21740,54553,21785,649,282,-14,100,213,469,62,4022,38,36,814,1760,1864,2124,2302,2094,1852,1928,2032
779742,54404,21772,54618,21850,555,923,-8,89,205,425,86,3895,51,34,815,1760,1864,2124,2302,2094,1852,1928,2032
780743,54464,21840,54683,21915,562,469,-1,82,184,434,218,4008,55,33,815,1760,1864,2124,2302,2094,1852,1928,2032
781744,54540,21904,54748,21980,348,520,2,64,178,280,82,3899,56,50,811,1760,1864,2124,2302,2094,1852,1928,2032
782745,54616,21964,54813,22045,335,576,5,52,183,252,80,4044,44,41,815,1760,1864,2124,2302,2094,1852,1928,2032
783746,54660,22036,54878,22110,761,418,5,38,189,242,-1,3879,42,37,815,1760,1864,2124,2302,2094,1852,1928,2032
784747,54736,22084,54943,22175,347,739,5,20,191,195,-71,3998,38,39,815,1781,1890,2096,2286,2070,1826,1891,1993
785748,54800,22164,55008,22240,498,320,3,23,195,207,-79,3976,50,39,812,1781,1890,2096,2286,2070,1826,1891,1993
786749,54872,22224,55073,22305,390,576,-7,27,210,232,-141,3974,42,50,813,1781,1890,2096,2286,2070,1826,1891,1993
787750,54920,22288,55138,22370,711,528,-13,28,222,304,-172,4007,35,33,816,1781,1890,2096,2286,2070,1826,1891,1993
788751,54984,22344,55203,22435,512,639,-20,17,240,325,-201,4065,39,38,815,1781,1890,2096,2286,2070,1826,1891,1993
789752,55028,22416,55268,22500,787,430,-19,11,253,332,-314,4108,37,34,813,1798,1906,2111,2300,2026,1796,1860,1963
790753,55092,22484,55333,22565,539,476,-23,21,254,387,-379,4107,52,34,814,1798,1906,2111,2300,2026,1796,1860,1963
791754,55160,22536,55398,22630,485,693,-27,25,248,585,-289,3986,37,47,813,1798,1906,2111,2300,2026,1796,1860,1963
792755,55212,22600,55463,22695,702,544,-29,22,246,508,-218,3986,37,32,814,1798,1906,2111,2300,2026,1796,1860,1963
793756,55276,22676,55528,22760,553,381,-25,-3,249,310,-256,3909,53,35,813,1798,1906,2111,2300,2026,1796,1860,1963
794757,55340,22732,55593,22825,554,642,-16,-15,251,130,-272,3924,53,46,813,1798,1906,2111,2300,2026,1796,1860,1963
795758,55396,22800,55658,22890,665,488,-7,-23,253,339,-177,3899,53,34,816,1807,1906,2115,2307,2027,1807,1868,1968
796759,55444,22848,55723,22955,786,759,8,-44,252,216,-183,3807,34,34,814,1807,1906,2115,2307,2027,1807,1868,1968
797760,55504,22924,55788,23020,642,396,18,-68,238,212,-169,3911,51,33,814,1807,1906,2115,2307,2027,1807,1868,1968
798761,55564,22976,55853,23085,648,712,34,-85,230,213,-25,3873,51,31,811,1807,1906,2115,2307,2027,1807,1868,1968
799762,55624,23032,55918,23150,654,673,63,-121,232,121,60,3864,48,37,814,1807,1906,2115,2307,2027,1807,1868,1968
800763,55684,23092,55983,23215,660,629,87,-144,231,158,151,3877,51,44,812,1797,1894,2104,2296,2036,1819,1882,1972
801764,55724,23160,56048,23280,941,525,111,-145,220,224,258,3840,50,32,812,1797,1894,2104,2296,2036,1819,1882,1972
802765,55768,23212,56113,23345,918,741,128,-119,215,386,218,3914,52,38,811,1797,1894,2104,2296,2036,1819,1882,1972
803766,55828,23268,56178,23410,724,702,155,-95,223,418,242,4095,50,46,810,1797,1894,2104,2296,2036,1819,1882,1972
804767,55880,23332,56243,23475,840,603,190,-90,221,357,446,4020,41,33,810,1797,1894,2104,2296,2036,1819,1882,1972
805768,55964,23396,56308,23540,416,604,237,-104,233,47,306,4079,56,35,812,1797,1894,2104,2296,2036,1819,1882,1972
806769,56004,23468,56373,23605,997,496,273,-101,237,134,253,4115,48,33,812,1789,1887,2091,2295,2031,1804,1871,1962
807770,56068,23520,56438,23670,698,762,314,-90,239,274,192,4196,43,42,815,1789,1887,2091,2295,2031,1804,1871,1962
808771,56128,23568,56503,23735,754,832,334,-39,233,406,171,4109,46,34,811,1789,1887,2091,2295,2031,1804,1871,1962
809772,56188,23628,56568,23800,760,688,351,-16,235,307,168,4000,53,40,811,1789,1887,2091,2295,2031,1804,1871,1962
810773,56252,23688,56633,23865,713,695,356,-16,250,165,164,3859,46,38,810,1789,1887,2091,2295,2031,1804,1871,1962
811774,56288,23748,56698,23930,1098,701,371,-18,259,-144,-4,3901,48,39,812,1815,1915,2123,2328,2000,1776,1840,1936
812775,56356,23820,56763,23995,694,542,369,2,264,-34,-184,3872,48,47,812,1815,1915,2123,2328,2000,1776,1840,1936
813776,56404,23884,56828,24060,965,644,379,36,264,120,-120,3824,52,48,808,1815,1915,2123,2328,2000,1776,1840,1936
814777,56464,23936,56893,24125,821,810,378,31,268,14,-117,3692,47,38,813,1815,1915,2123,2328,2000,1776,1840,1936
815778,56524,23980,56958,24190,827,936,382,17,262,-73,-169,3969,55,36,810,1815,1915,2123,2328,2000,1776,1840,1936
816779,56568,24044,57023,24255,1054,687,399,-11,269,-100,-17,3691,50,48,810,1815,1915,2123,2328,2000,1776,1840,1936
817780,56620,24140,57088,24320,970,249,420,-11,263,144,37,4029,51,46,809,1832,1928,2112,2307,1996,1780,1856,1952
818781,56680,24200,57153,24385,876,705,437,32,241,482,20,3847,46,36,808,1832,1928,2112,2307,1996,1780,1856,1952
819782,56740,24252,57218,24450,882,821,449,78,231,532,85,3964,44,46,811,1832,1928,2112,2307,1996,1780,1856,1952
820783,56788,24320,57283,24515,1053,618,462,115,221,456,196,3853,53,39,808,1832,1928,2112,2307,1996,1780,1856,1952
821784,56848,24392,57348,24580,909,559,485,128,217,395,345,3946,42,38,809,1832,1928,2112,2307,1996,1780,1856,1952
822785,56912,24468,57413,24645,861,496,530,77,235,277,422,3916,44,35,809,1814,1898,2112,2319,2027,1807,1867,1963
823786,56964,24508,57478,24710,1027,976,591,17,268,-138,458,4233,54,38,811,1814,1898,2112,2319,2027,1807,1867,1963
824787,57016,24580,57543,24775,1043,568,633,-4,279,101,506,4135,43,36,812,1814,1898,2112,2319,2027,1807,1867,1963
825788,57076,24640,57608,24840,949,724,671,31,283,431,536,4102,41,35,806,1814,1898,2112,2319,2027,1807,1867,1963
826789,57132,24708,57673,24905,1010,620,691,71,290,698,507,3866,56,39,810,1814,1898,2112,2319,2027,1807,1867,1963
827790,57196,24756,57738,24970,912,892,706,94,302,644,624,3849,56,37,809,1814,1898,2112,2319,2027,1807,1867,1963
828791,57240,24824,57803,25035,1188,638,701,58,326,181,840,3647,43,44,809,1791,1889,2086,2287,2035,1814,1873,1966
829792,57312,24884,57868,25100,829,744,698,38,339,59,664,3846,46,50,808,1791,1889,2086,2287,2035,1814,1873,1966
830793,57364,24944,57933,25165,1095,750,710,45,339,483,485,3856,59,45,808,1791,1889,2086,2287,2035,1814,1873,1966
831794,57436,25032,57998,25230,837,372,720,61,351,590,457,3971,43,44,810,1791,1889,2086,2287,2035,1814,1873,1966
832795,57484,25080,58063,25295,1158,893,729,85,349,465,387,3829,54,41,807,1791,1889,2086,2287,2035,1814,1873,1966
833796,57532,25132,58128,25360,1179,859,727,79,363,290,233,3633,54,37,813,1795,1904,2117,2304,2036,1804,1860,1975
834797,57592,25180,58193,25425,1035,930,730,42,378,82,238,3842,38,49,806,1795,1904,2117,2304,2036,1804,1860,1975
835798,57648,25240,58258,25490,1096,786,728,42,373,144,323,3927,56,36,806,1795,1904,2117,2304,2036,1804,1860,1975
836799,57712,25312,58323,25555,998,627,736,55,367,300,71,3904,42,52,805,1795,1904,2117,2304,2036,1804,1860,1975
837800,57776,25368,58388,25620,1000,838,738,89,353,533,59,4053,42,37,806,1795,1904,2117,2304,2036,1804,1860,1975
838801,57828,25432,58453,25685,1165,739,736,123,345,486,12,3900,56,45,810,1795,1904,2117,2304,2036,1804,1860,1975
839802,57872,25496,58518,25750,1291,742,735,131,357,493,190,3836,49,50,807,1775,1885,2103,2271,2033,1802,1859,1974
840803,57932,25552,58583,25815,1098,853,736,85,377,232,308,3859,56,53,807,1775,1885,2103,2271,2033,1802,1859,1974
841804,57988,25628,58648,25880,1159,589,729,64,394,29,454,3920,46,51,806,1775,1885,2103,2271,2033,1802,1859,1974
842805,58036,25704,58713,25945,1280,576,719,88,392,276,472,3883,40,43,807,1775,1885,2103,2271,2033,1802,1859,1974
843806,58104,25768,58778,26010,1026,727,694,134,377,738,540,3775,47,44,808,1775,1885,2103,2271,2033,1802,1859,1974
844807,58164,25828,58843,26075,1133,783,660,157,380,590,439,3776,55,41,807,1768,1870,2089,2264,2042,1826,1876,1982
845808,58220,25888,58908,26140,1194,789,630,146,385,368,604,3737,43,48,809,1768,1870,2089,2264,2042,1826,1876,1982
846809,58268,25940,58973,26205,1315,905,595,105,393,314,610,3658,56,42,806,1768,1870,2089,2264,2042,1826,1876,1982
847810,58324,26004,59038,26270,1226,756,570,92,396,283,641,3836,48,55,807,1768,1870,2089,2264,2042,1826,1876,1982
848811,58380,26076,59103,26335,1238,648,568,95,386,480,673,4071,49,53,804,1768,1870,2089,2264,2042,1826,1876,1982
849812,58432,26148,59168,26400,1304,639,604,103,417,352,608,4184,48,57,806,1768,1870,2089,2264,2042,1826,1876,1982
850813,58504,26212,59233,26465,1045,741,632,55,472,308,750,4051,54,51,807,1747,1843,2063,2247,2067,1840,1899,2003
851814,58544,26300,59298,26530,1476,413,676,11,526,121,880,4084,53,56,806,1747,1843,2063,2247,2067,1840,1899,2003
852815,58612,26356,59363,26595,1123,824,704,-25,565,134,800,4082,58,58,808,1747,1843,2063,2247,2067,1840,1899,2003
853816,58684,26432,59428,26660,1065,561,724,9,593,321,773,4149,65,57,804,1747,1843,2063,2247,2067,1840,1899,2003
854817,58740,26516,59493,26725,1276,438,728,56,590,812,789,4104,46,44,805,1747,1843,2063,2247,2067,1840,1899,2003
855818,58812,26596,59558,26790,1068,469,705,106,605,667,390,4004,43,43,810,1750,1840,2080,2283,2091,1832,1880,2000
856819,58860,26660,59623,26855,1389,671,679,122,603,492,564,3987,46,45,808,1750,1840,2080,2283,2091,1832,1880,2000
857820,58924,26728,59688,26920,1190,617,660,120,583,272,641,3992,55,51,810,1750,1840,2080,2283,2091,1832,1880,2000
858821,58980,26812,59753,26985,1301,394,639,83,581,67,557,4025,45,46,805,1750,1840,2080,2283,2091,1832,1880,2000
859822,59016,26864,59818,27050,1588,810,629,86,569,246,673,4082,55,43,807,1750,1840,2080,2283,2091,1832,1880,2000
860823,59084,26940,59883,27115,1184,496,605,73,564,193,470,3874,40,57,808,1750,1840,2080,2283,2091,1832,1880,2000
861824,59136,27012,59948,27180,1400,538,577,63,567,79,459,4006,51,54,802,1810,1920,2175,2351,2087,1847,1872,1988
862825,59188,27084,60013,27245,1417,529,541,74,566,65,512,3836,39,44,809,1810,1920,2175,2351,2087,1847,1872,1988
863826,59236,27152,60078,27310,1487,576,517,60,562,98,482,3980,58,56,806,1810,1920,2175,2351,2087,1847,1872,1988
864827,59300,27228,60143,27375,1289,463,488,74,566,65,420,3773,46,58,806,1810,1920,2175,2351,2087,1847,1872,1988
865828,59352,27292,60208,27440,1455,614,456,65,577,181,604,3947,58,43,805,1810,1920,2175,2351,2087,1847,1872,1988
866829,59408,27364,60273,27505,1416,506,436,61,594,6,516,3928,51,51,807,1819,1923,2147,2319,2055,1827,1878,1995
867830,59456,27416,60338,27570,1537,771,424,54,619,11,623,3961,45,39,805,1819,1923,2147,2319,2055,1827,1878,1995
868831,59508,27480,60403,27635,1504,623,422,46,653,75,745,4059,55,46,806,1819,1923,2147,2319,2055,1827,1878,1995
869832,59572,27548,60468,27700,1355,569,423,41,679,120,811,4144,56,39,802,1819,1923,2147,2319,2055,1827,1878,1995
870833,59632,27608,60533,27765,1411,675,431,42,697,243,829,4093,59,48,803,1819,1923,2147,2319,2055,1827,1878,1995
871834,59684,27660,60598,27830,1528,791,438,38,708,343,950,4162,40,49,805,1819,1923,2147,2319,2055,1827,1878,1995
872835,59736,27724,60663,27895,1544,642,444,27,733,179,790,4129,57,38,805,1776,1876,2088,2262,2075,1850,1899,2009
873836,59788,27784,60728,27960,1560,698,456,27,744,285,893,4187,47,44,803,1776,1876,2088,2262,2075,1850,1899,2009
874837,59848,27832,60793,28025,1467,869,468,23,745,462,917,4092,55,52,803,1776,1876,2088,2262,2075,1850,1899,2009
875838,59924,27888,60858,28090,1254,780,479,20,746,462,946,4254,51,47,803,1776,1876,2088,2262,2075,1850,1899,2009
876839,59968,27940,60923,28155,1679,846,489,20,739,307,897,4092,47,52,802,1776,1876,2088,2262,2075,1850,1899,2009
877840,60024,28004,60988,28220,1541,697,491,19,721,331,1015,4122,48,45,805,1750,1854,2083,2265,2083,1846,1887,1996
878841,60072,28068,61053,28285,1662,698,494,24,703,370,913,4067,40,54,800,1750,1854,2083,2265,2083,1846,1887,1996
879842,60136,28128,61118,28350,1463,755,493,36,685,347,953,4044,40,56,803,1750,1854,2083,2265,2083,1846,1887,1996
880843,60172,28200,61183,28415,1850,597,488,43,667,256,909,4071,58,41,802,1750,1854,2083,2265,2083,1846,1887,1996
881844,60248,28272,61248,28480,1336,588,486,38,647,146,800,3935,56,46,803,1750,1854,2083,2265,2083,1846,1887,1996
882845,60296,28324,61313,28545,1708,854,471,26,636,-18,761,3901,42,54,800,1750,1854,2083,2265,2083,1846,1887,1996
883846,60340,28392,61378,28610,1784,651,449,6,616,-46,855,3912,55,45,806,1772,1876,2113,2300,2054,1829,1871,1979
884847,60412,28472,61443,28675,1425,482,431,7,598,-44,800,3973,41,47,799,1772,1876,2113,2300,2054,1829,1871,1979
885848,60472,28528,61508,28740,1582,793,413,31,588,40,697,4046,44,57,800,1772,1876,2113,2300,2054,1829,1871,1979
886849,60520,28612,61573,28805,1753,420,388,36,588,92,712,3951,56,48,806,1772,1876,2113,2300,2054,1829,1871,1979
887850,60584,28692,61638,28870,1555,452,382,45,594,-12,688,4045,46,46,799,1772,1876,2113,2300,2054,1829,1871,1979
888851,60640,28768,61703,28935,1666,488,367,47,594,96,729,3966,44,44,801,1775,1896,2128,2331,2035,1799,1835,1952
889852,60692,28840,61768,29000,1732,530,365,65,588,131,838,4104,40,51,804,1775,1896,2128,2331,2035,1799,1835,1952
890853,60744,28888,61833,29065,1749,851,353,69,596,138,782,4133,47,45,803,1775,1896,2128,2331,2035,1799,1835,1952
891854,60808,28972,61898,29130,1600,377,355,104,602,256,798,4166,41,55,802,1775,1896,2128,2331,2035,1799,1835,1952
892857,60860,29036,61963,29195,1767,629,346,106,604,297,845,4100,46,43,799,1775,1896,2128,2331,2035,1799,1835,1952
893856,60900,29108,62028,29260,1947,521,350,101,600,326,893,4066,43,59,804,1775,1896,2128,2331,2035,1799,1835,1952
894857,60956,29172,62093,29325,1758,622,338,103,581,384,1002,4025,42,56,800,1806,1910,2138,2320,2032,1814,1884,1990
895858,61020,29228,62158,29390,1661,733,340,104,539,598,1223,4118,61,49,799,1806,1910,2138,2320,2032,1814,1884,1990
896859,61080,29304,62223,29455,1717,470,341,107,518,512,1064,4058,51,59,800,1806,1910,2138,2320,2032,1814,1884,1990
897860,61140,29348,62288,29520,1724,895,345,114,487,637,1231,3999,61,52,802,1806,1910,2138,2320,2032,1814,1884,1990
898861,61192,29424,62353,29585,1840,482,353,117,451,515,1262,4118,47,44,802,1806,1910,2138,2320,2032,1814,1884,1990
899862,61268,29484,62418,29650,1527,688,372,135,404,648,1271,4055,45,62,799,1782,1888,2112,2320,2092,1846,1890,2027
900863,61316,29560,62483,29715,1898,475,378,145,372,640,1181,4051,61,60,800,1782,1888,2112,2320,2092,1846,1890,2027
901864,61380,29624,62548,29780,1699,626,397,136,336,435,1277,4030,56,59,803,1782,1888,2112,2320,2092,1846,1890,2027
902865,61432,29700,62613,29845,1866,463,394,128,315,159,920,3909,46,59,800,1782,1888,2112,2320,2092,1846,1890,2027
903866,61496,29748,62678,29910,1717,833,401,122,300,324,1066,3971,50,60,802,1782,1888,2112,2320,2092,1846,1890,2027
904867,61540,29816,62743,29975,1994,580,400,128,290,372,1091,4055,56,54,798,1782,1888,2112,2320,2092,1846,1890,2027
905868,61612,29900,62808,30040,1635,356,405,138,271,262,903,4080,44,60,798,1775,1879,2111,2301,2071,1847,1887,1991
906869,61676,29964,62873,30105,1738,608,400,160,260,275,925,4164,59,49,799,1775,1879,2111,2301,2071,1847,1887,1991
907870,61724,30048,62938,30170,1958,334,398,148,254,196,768,4121,41,59,804,1775,1879,2111,2301,2071,1847,1887,1991
908871,61796,30108,63003,30235,1651,641,385,147,259,112,606,4006,41,53,801,1775,1879,2111,2301,2071,1847,1887,1991
909872,61848,30180,63068,30300,1917,482,373,126,256,140,767,3917,55,59,800,1775,1879,2111,2301,2071,1847,1887,1991
910873,61888,30252,63133,30365,2098,473,357,154,253,295,723,4004,44,57,802,1778,1892,2131,2306,2048,1829,1868,1975
911874,61944,30336,63198,30430,1909,300,339,184,254,457,686,4083,34,52,799,1778,1892,2131,2306,2048,1829,1868,1975
912875,61996,30388,63263,30495,1975,717,317,213,251,348,821,3930,43,50,797,1778,1892,2131,2306,2048,1829,1868,1975
913876,62040,30444,63328,30560,2102,678,290,219,252,329,683,3965,40,45,800,1778,1892,2131,2306,2048,1829,1868,1975
914877,62104,30504,63393,30625,1853,634,267,231,244,445,804,3778,39,60,797,1778,1892,2131,2306,2048,1829,1868,1975
915878,62148,30576,63458,30690,2130,476,233,241,217,606,826,3882,58,59,796,1778,1892,2131,2306,2048,1829,1868,1975
916879,62212,30652,63523,30755,1881,412,208,274,179,704,1000,3879,38,50,799,1795,1901,2142,2325,2050,1833,1877,1985
917880,62280,30712,63588,30820,1828,618,185,309,130,920,1047,3939,60,54,797,1795,1901,2142,2325,2050,1833,1877,1985
918881,62320,30792,63653,30885,2209,350,174,328,77,786,1197,4093,57,61,800,1795,1901,2142,2325,2050,1833,1877,1985
919882,62392,30836,63718,30950,1801,826,159,342,27,749,1150,4180,39,55,799,1795,1901,2142,2325,2050,1833,1877,1985
920883,62452,30912,63783,31015,1957,412,164,384,-8,667,1156,4155,50,47,797,1795,1901,2142,2325,2050,1833,1877,1985
921884,62508,30988,63848,31080,2019,399,156,400,-46,726,1234,4177,45,62,797,1775,1879,2115,2291,2083,1863,1901,1998
922885,62584,31068,63913,31145,1756,330,158,425,-75,695,1098,4125,45,63,798,1775,1879,2115,2291,2083,1863,1901,1998
923886,62656,31124,63978,31210,1798,641,162,415,-101,454,1184,4069,52,60,799,1775,1879,2115,2291,2083,1863,1901,1998
924887,62716,31200,64043,31275,1954,378,162,430,-130,438,1220,4304,49,60,803,1775,1879,2115,2291,2083,1863,1901,1998
925888,62800,31256,64108,31340,1632,639,162,447,-129,326,948,4233,63,48,800,1775,1879,2115,2291,2083,1863,1901,1998
926889,62864,31336,64173,31405,1883,321,163,480,-128,440,1015,4314,63,55,800,1775,1879,2115,2291,2083,1863,1901,1998
927890,62924,31400,64238,31470,1941,522,156,486,-114,399,876,4231,59,54,802,1728,1832,2095,2278,2087,1863,1871,1975
928891,62984,31464,64303,31535,1947,523,150,474,-106,234,984,3992,45,57,801,1728,1832,2095,2278,2087,1863,1871,1975
929892,63064,31548,64368,31600,1679,250,130,478,-110,295,929,4102,50,57,799,1728,1832,2095,2278,2087,1863,1871,1975
930893,63128,31592,64433,31665,1881,776,116,504,-102,246,928,4057,64,59,799,1728,1832,2095,2278,2087,1863,1871,1975
931894,63180,31660,64498,31730,2047,472,90,528,-101,465,1038,4090,41,58,804,1728,1832,2095,2278,2087,1863,1871,1975
932895,63236,31732,64563,31795,2008,413,82,539,-120,603,1002,3876,43,55,798,1768,1878,2127,2314,2086,1866,1897,1992
933896,63300,31808,64628,31860,1911,350,58,533,-134,489,1015,3822,41,46,798,1768,1878,2127,2314,2086,1866,1897,1992
934897,63360,31860,64693,31925,1967,666,37,531,-163,405,1198,3911,51,53,798,1768,1878,2127,2314,2086,1866,1897,1992
935898,63428,31932,64758,31990,1864,407,5,552,-200,612,1129,3820,45,49,799,1768,1878,2127,2314,2086,1866,1897,1992
936899,63480,31984,64823,32055,2080,673,-28,561,-233,841,1097,3894,42,59,798,1768,1878,2127,2314,2086,1866,1897,1992
937900,63536,32032,64888,32120,2042,744,-66,568,-277,764,1187,3746,56,58,800,1768,1878,2127,2314,2086,1866,1897,1992
938901,63596,32108,64953,32185,1998,380,-89,570,-330,734,1181,3916,50,56,794,1795,1900,2148,2326,2052,1826,1878,1991
939902,63664,32176,65018,32250,1895,477,-125,571,-372,828,1191,3857,51,47,794,1795,1900,2148,2326,2052,1826,1878,1991
940903,63740,32248,65083,32315,1782,418,-146,570,-422,780,1266,3850,61,52,798,1795,1900,2148,2326,2052,1826,1878,1991
941904,63804,32308,65148,32380,1934,574,-175,589,-466,828,1110,4020,58,46,800,1795,1900,2148,2326,2052,1826,1878,1991
942906,63864,32376,65213,32445,1990,471,-176,604,-503,868,1260,4034,47,50,801,1795,1900,2148,2326,2052,1826,1878,1991
943906,63916,32436,65278,32510,2107,577,-187,620,-536,740,1155,4080,61,57,798,1791,1888,2120,2302,2082,1844,1888,2021
944907,64000,32484,65343,32575,1685,748,-183,653,-559,668,1259,4199,51,60,798,1791,1888,2120,2302,2082,1844,1888,2021
945908,64072,32544,65408,32640,1826,604,-171,677,-568,513,1376,4136,48,43,796,1791,1888,2120,2302,2082,1844,1888,2021
946909,64140,32612,65473,32705,1874,501,-167,678,-571,433,1289,4123,52,56,800,1791,1888,2120,2302,2082,1844,1888,2021
947910,64212,32672,65538,32770,1815,607,-166,670,-569,339,1283,3835,49,60,799,1791,1888,2120,2302,2082,1844,1888,2021
948911,64276,32732,65603,32835,1917,613,-172,647,-561,211,1389,3920,65,57,800,1791,1888,2120,2302,2082,1844,1888,2021
949912,64356,32788,65802,33034,1863,838,-183,608,-567,392,1426,3778,60,53,799,1738,1852,2084,2258,2074,1848,1887,1999
950913,64424,32860,65867,33099,2010,629,-186,573,-579,302,1435,3576,53,47,799,1738,1852,2084,2258,2074,1848,1887,1999
951914,64480,32940,65932,33164,2171,511,-200,545,-576,135,1365,3759,59,64,797,1738,1852,2084,2258,2074,1848,1887,1999
952915,64552,32984,65997,33229,1963,987,-209,571,-589,262,1431,3771,58,65,797,1738,1852,2084,2258,2074,1848,1887,1999
953916,64620,33072,66062,33294,2010,408,-220,567,-608,646,1475,3440,59,50,796,1738,1852,2084,2258,2074,1848,1887,1999
954917,64692,33160,66127,33359,1952,380,-238,562,-623,607,1476,3525,52,67,795,1750,1858,2096,2284,2063,1845,1876,1977
955918,64776,33228,66192,33424,1779,627,-250,550,-662,517,1636,3601,59,60,798,1750,1858,2096,2284,2063,1845,1876,1977
956919,64848,33304,66257,33489,1921,513,-264,564,-687,490,1425,3530,72,64,798,1750,1858,2096,2284,2063,1845,1876,1977
957920,64924,33392,66322,33554,1858,335,-259,606,-715,745,1462,3826,67,63,800,1750,1858,2096,2284,2063,1845,1876,1977
958921,64996,33456,66387,33619,1900,636,-264,651,-749,840,1466,3788,69,54,799,1750,1858,2096,2284,2063,1845,1876,1977
959922,65076,33544,66452,33684,1782,308,-271,663,-773,777,1314,3818,69,56,801,1750,1858,2096,2284,2063,1845,1876,1977
960923,65168,33620,66517,33749,1600,445,-279,673,-821,722,1468,3745,63,51,799,1776,1877,2119,2293,2046,1821,1854,1965
961924,65252,33692,66582,33814,1677,486,-290,668,-868,562,1305,3625,67,58,803,1776,1877,2119,2293,2046,1821,1854,1965
962925,65332,33764,66647,33879,1710,479,-304,672,-907,549,1316,3661,70,55,804,1776,1877,2119,2293,2046,1821,1854,1965
963926,65416,33844,66712,33944,1638,361,-309,659,-939,430,1483,3536,68,54,802,1776,1877,2119,2293,2046,1821,1854,1965
964927,65480,33924,66777,34009,1889,342,-322,648,-955,344,1419,3672,64,58,802,1776,1877,2119,2293,2046,1821,1854,1965
965928,65560,33988,66842,34074,1670,543,-334,656,-957,231,1342,3583,52,62,803,1780,1874,2117,2292,2026,1810,1846,1956
966929,65648,34072,66907,34139,1543,270,-345,665,-962,385,1598,3673,50,59,801,1780,1874,2117,2292,2026,1810,1846,1956
967930,65708,34144,66972,34204,1899,412,-361,640,-969,221,1747,3461,57,63,801,1780,1874,2117,2292,2026,1810,1846,1956
968931,65780,34212,67037,34269,1742,458,-381,619,-948,21,1400,3636,51,57,805,1780,1874,2117,2292,2026,1810,1846,1956
969932,65852,34284,67102,34334,1733,400,-415,641,-925,296,1498,3703,62,64,800,1780,1874,2117,2292,2026,1810,1846,1956
970933,65928,34368,67167,34399,1671,226,-430,664,-898,372,1487,3582,64,64,801,1735,1832,2087,2257,2042,1818,1856,1968
971934,66000,34452,67232,34464,1712,203,-442,653,-909,333,1805,3501,51,63,802,1735,1832,2087,2257,2042,1818,1856,1968
972935,66100,34512,67297,34529,1321,509,-448,633,-904,-59,1587,3395,65,54,802,1735,1832,2087,2257,2042,1818,1856,1968
973936,66160,34588,67362,34594,1827,296,-448,655,-886,15,1400,3527,55,60,802,1735,1832,2087,2257,2042,1818,1856,1968
974937,66208,34656,67427,34659,1999,392,-449,701,-873,651,1493,3572,52,53,806,1735,1832,2087,2257,2042,1818,1856,1968
975938,66272,34748,67492,34724,1800,59,-444,705,-871,559,1441,3338,47,60,802,1735,1832,2087,2257,2042,1818,1856,1968
976939,66356,34836,67557,34789,1528,81,-443,661,-907,358,1638,3248,64,53,799,1747,1855,2091,2250,2078,1845,1883,2005
977940,66428,34908,67622,34854,1669,273,-438,631,-933,88,1493,3108,53,63,803,1747,1855,2091,2250,2078,1845,1883,2005
978941,66500,34964,67687,34919,1661,484,-442,648,-953,362,1427,3507,68,64,806,1747,1855,2091,2250,2078,1845,1883,2005
979942,66576,35048,67752,34984,1598,110,-451,690,-962,859,1329,3406,67,62,804,1747,1855,2091,2250,2078,1845,1883,2005
980943,66652,35112,67817,35049,1585,362,-457,675,-962,744,1454,3226,55,59,803,1747,1855,2091,2250,2078,1845,1883,2005
981944,66732,35180,67882,35114,1517,308,-465,637,-989,109,1557,3142,66,55,805,1740,1842,2080,2243,2057,1818,1859,1979
982945,66804,35248,67947,35179,1609,304,-471,596,-1007,-58,1496,3254,59,49,805,1740,1842,2080,2243,2057,1818,1859,1979
983946,66884,35328,68012,35244,1491,136,-494,600,-1003,250,1262,3325,59,49,806,1740,1842,2080,2243,2057,1818,1859,1979
984947,66976,35400,68077,35309,1308,227,-523,620,-986,573,1100,3268,70,48,805,1740,1842,2080,2243,2057,1818,1859,1979
985948,67060,35452,68142,35374,1386,492,-539,602,-1001,545,1567,3299,61,59,806,1740,1842,2080,2243,2057,1818,1859,1979
986949,67152,35516,68207,35439,1253,344,-558,553,-1003,-177,1290,3048,67,52,808,1740,1842,2080,2243,2057,1818,1859,1979
987950,67232,35600,68272,35504,1385,70,-589,544,-985,-242,1071,3282,56,51,806,1738,1838,2075,2233,2026,1796,1836,1956
988951,67324,35672,68337,35569,1203,212,-627,575,-952,453,1173,3514,54,61,808,1738,1838,2075,2233,2026,1796,1836,1956
989952,67388,35744,68402,35634,1554,203,-647,576,-921,450,1272,3073,54,57,806,1738,1838,2075,2233,2026,1796,1836,1956
990953,67484,35800,68467,35699,1117,414,-668,546,-908,-200,1242,3232,54,49,808,1738,1838,2075,2233,2026,1796,1836,1956
991954,67568,35868,68532,35764,1244,261,-684,525,-880,-362,1225,3118,72,49,806,1738,1838,2075,2233,2026,1796,1836,1956
992955,67656,35944,68597,35829,1166,147,-711,521,-847,26,1155,3294,52,57,808,1733,1836,2067,2230,2024,1796,1842,1964
993956,67732,36008,68662,35894,1304,298,-727,520,-829,316,1159,3096,52,51,808,1733,1836,2067,2230,2024,1796,1842,1964
994957,67832,36080,68727,35959,961,190,-734,498,-827,186,1385,3068,68,57,809,1733,1836,2067,2230,2024,1796,1842,1964
995958,67924,36164,68792,36024,1028,17,-745,473,-813,-256,1245,3137,74,56,808,1733,1836,2067,2230,2024,1796,1842,1964
996959,68004,36240,68857,36089,1161,103,-757,479,-813,45,1169,3254,64,50,812,1733,1836,2067,2230,2024,1796,1842,1964
997960,68088,36300,68922,36154,1088,309,-763,478,-811,305,1147,3111,64,57,812,1733,1836,2067,2230,2024,1796,1842,1964
998961,68164,36392,68987,36219,1174,-124,-763,460,-827,133,1313,3010,67,60,810,1731,1835,2065,2227,2051,1818,1866,1990
999962,68252,36452,69052,36284,997,282,-763,455,-832,-118,1126,3149,57,54,809,1731,1835,2065,2227,2051,1818,1866,1990
1000963,68336,36536,69117,36349,1024,-41,-767,461,-853,235,1240,3091,69,57,810,1731,1835,2065,2227,2051,1818,1866,1990
1001964,68428,36600,69182,36414,891,210,-775,456,-856,181,1086,3083,67,60,811,1731,1835,2065,2227,2051,1818,1866,1990
1002965,68520,36676,69247,36479,859,47,-783,453,-869,124,1183,3054,56,55,812,1731,1835,2065,2227,2051,1818,1866,1990
1003966,68620,36744,69312,36544,716,143,-789,447,-874,22,1104,2961,52,44,813,1735,1836,2063,2229,2048,1810,1853,1969
1004967,68692,36812,69377,36609,1058,139,-799,427,-877,72,1147,3159,61,57,813,1735,1836,2063,2229,2048,1810,1853,1969
1005968,68796,36900,69442,36674,610,-139,-820,397,-872,-5,924,3043,66,46,814,1735,1836,2063,2229,2048,1810,1853,1969
1006969,68888,36968,69507,36739,728,107,-828,370,-855,-235,857,3154,59,46,809,1735,1836,2063,2229,2048,1810,1853,1969
1007970,68968,37032,69572,36804,860,158,-846,347,-845,-204,943,3103,61,52,813,1735,1836,2063,2229,2048,1810,1853,1969
1008971,69056,37108,69637,36869,732,-5,-852,322,-834,-167,911,3140,51,47,814,1735,1836,2063,2229,2048,1810,1853,1969
1009972,69136,37192,69702,36934,813,-128,-868,284,-815,-292,837,3126,64,60,813,1730,1831,2054,2221,2015,1783,1833,1948
1010973,69236,37268,69767,36999,521,-42,-889,266,-800,-346,786,3246,52,59,815,1730,1831,2054,2221,2015,1783,1833,1948
1011974,69308,37324,69832,37064,863,219,-902,241,-797,-148,960,3332,58,44,813,1730,1831,2054,2221,2015,1783,1833,1948
1012975,69392,37400,69897,37129,690,-44,-912,213,-768,-169,739,3136,58,59,816,1730,1831,2054,2221,2015,1783,1833,1948
1013976,69472,37472,69962,37194,722,-3,-922,204,-750,-109,719,3414,47,45,812,1730,1831,2054,2221,2015,1783,1833,1948
1014977,69564,37528,70027,37259,539,207,-938,213,-733,-109,615,2973,45,45,815,1729,1834,2054,2220,2005,1778,1835,1955
1015978,69628,37600,70092,37324,890,-1,-947,216,-742,-99,703,3315,51,54,815,1729,1834,2054,2220,2005,1778,1835,1955
1016979,69708,37676,70157,37389,673,-65,-957,213,-748,-190,659,2911,47,46,815,1729,1834,2054,2220,2005,1778,1835,1955
1017980,69800,37752,70222,37454,490,-78,-975,213,-747,-206,544,3099,63,51,813,1729,1834,2054,2220,2005,1778,1835,1955
1018981,69892,37824,70287,37519,457,-37,-977,222,-765,-25,733,3116,48,57,814,1729,1834,2054,2220,2005,1778,1835,1955
1019982,69976,37896,70352,37584,533,-45,-983,198,-784,-184,679,2942,42,47,816,1729,1834,2054,2220,2005,1778,1835,1955
1020983,70052,37956,70417,37649,620,111,-977,166,-797,-361,709,2977,41,47,817,1741,1843,2048,2211,2030,1795,1854,1972
1021984,70144,38040,70482,37714,387,-212,-976,134,-816,-420,615,2886,57,52,816,1741,1843,2048,2211,2030,1795,1854,1972
1022985,70216,38120,70547,37779,629,-181,-963,138,-816,-319,520,3338,61,50,815,1741,1843,2048,2211,2030,1795,1854,1972
1023986,70300,38196,70612,37844,456,-145,-945,130,-834,-29,754,3110,50,53,815,1741,1843,2048,2211,2030,1795,1854,1972
1024987,70392,38276,70677,37909,323,-213,-930,116,-835,-546,424,3092,58,55,813,1741,1843,2048,2211,2030,1795,1854,1972
1025988,70452,38344,70742,37974,730,-67,-926,111,-830,-348,450,3138,42,51,816,1740,1840,2054,2218,2008,1787,1846,1952
1026989,70544,38432,70807,38039,297,-345,-926,110,-822,-364,456,3302,50,43,816,1740,1840,2054,2218,2008,1787,1846,1952
1027990,70620,38512,70872,38104,483,-264,-925,113,-819,-247,466,3215,43,44,814,1740,1840,2054,2218,2008,1787,1846,1952
1028991,70692,38580,70937,38169,525,-117,-933,103,-808,-429,287,3208,41,45,816,1740,1840,2054,2218,2008,1787,1846,1952
1029992,70800,38676,71002,38234,22,-505,-930,107,-793,-412,358,3244,62,55,815,1740,1840,2054,2218,2008,1787,1846,1952
