%  Data file recorded 2016/10/2  20:59:53
%  Stride Frequency         = [1, 1]
%  Lead In /Lead Out        = 
%  Deltas (Fractional)      = [0.25, 0.25, 0.25],[0.25, 0.25, 0.25]
%  Phase                    = 32768
%  Experiment.py 
%  Motor Gains    = [5000, 400, 200, 0, 300, 5000, 400, 200, 0, 300]
% Columns: 
% time | Right Leg Pos | Left Leg Pos | Commanded Right Leg Pos | Commanded Left Leg Pos | DCR | DCL | GyroX | GyroY | GyroZ | AX | AY | AZ | RBEMF | LBEMF | VBatt | S1 | S2 | S3 | S4 | S5 | S6 | S7 | S8
225,15520,-15764,16490,-16278,2814,-3800,-14,-7,3,-142,96,3902,12,-5,879,1806,1892,2088,2265,2040,1798,1840,1979
1226,15520,-15752,16490,-16278,2715,-3800,-14,-7,-1,-140,77,3920,2,-5,878,1806,1892,2088,2265,2040,1798,1840,1979
2227,15528,-15760,16490,-16278,2605,-3800,-14,-8,1,-132,106,3911,-2,4,878,1806,1892,2088,2265,2040,1798,1840,1979
3228,15520,-15756,16490,-16278,2815,-3800,-14,-11,4,-126,89,3913,-4,9,878,1806,1892,2088,2265,2040,1798,1840,1979
4229,15520,-15748,16490,-16278,2716,-3800,-13,-10,5,-137,87,3925,11,7,878,1807,1893,2088,2266,2040,1798,1840,1979
5230,15528,-15748,16490,-16278,2606,-3800,-13,-9,3,-146,79,3916,7,9,878,1807,1893,2088,2266,2040,1798,1840,1979
6231,15520,-15752,16490,-16278,2816,-3800,-14,-9,0,-143,64,3921,-5,9,878,1807,1893,2088,2266,2040,1798,1840,1979
7232,15536,-15752,16490,-16278,2497,-3800,-13,-9,3,-143,76,3943,6,9,878,1807,1893,2088,2266,2040,1798,1840,1979
8235,15528,-15760,16490,-16278,2807,-3800,-13,-6,6,-157,84,3938,12,4,878,1807,1893,2088,2266,2040,1798,1840,1979
9234,15524,-15752,16490,-16278,2763,-3800,-13,-7,4,-146,63,3915,-4,-3,878,1807,1893,2088,2266,2040,1798,1840,1979
10235,15524,-15748,16490,-16278,2713,-3800,-12,-8,1,-134,89,3932,-6,-4,878,1805,1892,2086,2265,2041,1800,1842,1980
11236,15528,-15768,16490,-16278,2658,-3800,-13,-10,2,-146,107,3918,-1,-6,878,1805,1892,2086,2265,2041,1800,1842,1980
12237,15520,-15764,16490,-16278,2819,-3800,-15,-8,3,-117,81,3926,12,-4,878,1805,1892,2086,2265,2041,1800,1842,1980
13238,15528,-15756,16490,-16278,2609,-3800,-13,-8,2,-124,88,3916,12,-5,878,1805,1892,2086,2265,2041,1800,1842,1980
14239,15524,-15760,16490,-16278,2764,-3800,-13,-8,2,-134,83,3908,5,-3,878,1805,1892,2086,2265,2041,1800,1842,1980
15240,15528,-15764,16490,-16278,2660,-3800,-13,-9,0,-144,115,3946,-6,2,878,1807,1893,2087,2266,2042,1800,1842,1980
16241,15532,-15760,16490,-16278,2655,-3800,-14,-8,2,-158,103,3934,-7,0,878,1807,1893,2087,2266,2042,1800,1842,1980
17242,15524,-15752,16490,-16278,2815,-3800,-14,-9,3,-132,92,3920,2,4,878,1807,1893,2087,2266,2042,1800,1842,1980
18243,15536,-15756,16490,-16278,2551,-3800,-12,-8,2,-130,91,3926,12,9,877,1807,1893,2087,2266,2042,1800,1842,1980
19244,15532,-15748,16490,-16278,2756,-3800,-12,-8,1,-112,90,3903,0,9,877,1807,1893,2087,2266,2042,1800,1842,1980
20245,15524,-15760,16490,-16278,2817,-3800,-13,-8,2,-120,95,3907,1,3,878,1807,1893,2087,2266,2042,1800,1842,1980
21246,15528,-15752,16490,-16278,2662,-3800,-12,-9,3,-152,72,3928,8,-2,878,1806,1893,2088,2265,2041,1798,1840,1979
22247,15524,-15772,16490,-16278,2767,-3800,-12,-11,3,-146,95,3956,-6,-1,878,1806,1893,2088,2265,2041,1798,1840,1979
23248,15532,-15756,16490,-16278,2608,-3800,-13,-10,1,-122,105,3931,-5,-5,877,1806,1893,2088,2265,2041,1798,1840,1979
24249,15528,-15760,16490,-16278,2763,-3800,-13,-10,0,-131,88,3920,10,-6,878,1806,1893,2088,2265,2041,1798,1840,1979
25250,15532,-15748,16490,-16278,2658,-3800,-12,-9,3,-132,98,3912,12,-5,878,1806,1893,2088,2265,2041,1798,1840,1979
26251,15524,-15752,16490,-16278,2819,-3800,-12,-6,3,-106,97,3963,4,4,878,1808,1892,2088,2265,2041,1799,1842,1981
27252,15516,-15744,16490,-16278,2828,-3800,-11,-5,2,-129,95,3930,-6,9,878,1808,1892,2088,2265,2041,1799,1842,1981
28253,15540,-15756,16490,-16278,2399,-3800,-11,-8,3,-134,86,3894,9,7,878,1808,1892,2088,2265,2041,1799,1842,1981
29254,15532,-15764,16490,-16278,2810,-3800,-9,-11,2,-119,92,3926,3,-3,878,1808,1892,2088,2265,2041,1799,1842,1981
30255,15532,-15752,16490,-16278,2710,-3800,-12,-9,1,-147,103,3921,-2,-4,878,1808,1892,2088,2265,2041,1799,1842,1981
31256,15520,-15752,16490,-16278,2876,-3800,-13,-6,-2,-138,105,3905,12,-1,878,1808,1892,2088,2265,2041,1799,1842,1981
32257,15524,-15768,16490,-16278,2671,-3800,-13,-7,-1,-160,114,3918,5,5,878,1805,1892,2088,2264,2040,1798,1841,1977
33258,15524,-15760,16490,-16278,2721,-3800,-12,-7,2,-131,94,3914,-3,8,878,1805,1892,2088,2264,2040,1798,1841,1977
34259,15528,-15756,16490,-16278,2667,-3800,-11,-8,2,-129,106,3922,12,6,878,1805,1892,2088,2264,2040,1798,1841,1977
35260,15532,-15752,16490,-16278,2662,-3800,-12,-8,1,-120,127,3928,-4,-3,877,1805,1892,2088,2264,2040,1798,1841,1977
36261,15524,-15760,16490,-16278,2822,-3800,-15,-6,3,-134,104,3935,5,-4,877,1805,1892,2088,2264,2040,1798,1841,1977
37262,15528,-15752,16490,-16278,2668,-3800,-13,-8,4,-124,119,3954,-3,0,878,1805,1892,2088,2265,2041,1798,1840,1978
38263,15528,-15744,16490,-16278,2718,-3800,-12,-7,2,-140,124,3932,-1,8,878,1805,1892,2088,2265,2041,1798,1840,1978
39264,15536,-15756,16490,-16278,2608,-3800,-12,-7,0,-130,110,3895,10,8,878,1805,1892,2088,2265,2041,1798,1840,1978
40265,15520,-15748,16490,-16278,2929,-3800,-15,-9,2,-126,97,3910,0,7,878,1805,1892,2088,2265,2041,1798,1840,1978
41266,15528,-15764,16490,-16278,2619,-3800,-15,-8,1,-126,92,3905,-7,1,878,1805,1892,2088,2265,2041,1798,1840,1978
42267,15532,-15752,16490,-16278,2665,-3800,-12,-5,2,-121,107,3914,8,-5,878,1805,1892,2088,2265,2041,1798,1840,1978
43268,15528,-15756,16490,-16278,2770,-3800,-13,-5,3,-124,95,3940,12,-5,878,1805,1892,2088,2265,2040,1800,1841,1979
44269,15516,-15760,16490,-16278,2884,-3800,-10,-7,5,-138,96,3924,6,-4,878,1805,1892,2088,2265,2040,1800,1841,1979
45270,15532,-15752,16490,-16278,2516,-3800,-13,-7,5,-121,104,3909,-7,5,877,1805,1892,2088,2265,2040,1800,1841,1979
46271,15524,-15756,16490,-16278,2826,-3800,-15,-6,3,-137,95,3896,-2,8,877,1805,1892,2088,2265,2040,1800,1841,1979
47272,15524,-15768,16490,-16278,2726,-3800,-14,-9,2,-141,103,3900,11,7,878,1805,1892,2088,2265,2040,1800,1841,1979
48273,15524,-15752,16490,-16278,2727,-3800,-10,-8,3,-154,110,3883,0,-1,878,1804,1891,2086,2263,2040,1798,1841,1979
49274,15528,-15752,16490,-16278,2672,-3800,-11,-7,5,-164,86,3888,-7,-3,877,1804,1891,2086,2263,2040,1798,1841,1979
50275,15528,-15748,16490,-16278,2722,-3800,-15,-6,5,-167,85,3911,1,-5,877,1804,1891,2086,2263,2040,1798,1841,1979
51276,15524,-15764,16490,-16278,2778,-3800,-16,-7,1,-128,93,3944,12,2,878,1804,1891,2086,2263,2040,1798,1841,1979
52277,15516,-15756,16490,-16278,2837,-3800,-15,-8,-1,-139,105,3903,3,5,877,1804,1891,2086,2263,2040,1798,1841,1979
53278,15520,-15748,16490,-16278,2684,-3800,-14,-8,-1,-151,103,3882,-6,8,876,1804,1891,2086,2263,2040,1798,1841,1979
54279,15524,-15760,16490,-16278,2679,-3800,-13,-9,-1,-173,89,3890,13,-5,878,1805,1892,2087,2265,2041,1799,1841,1979
55280,15520,-15756,16490,-16278,2784,-3800,-11,-8,1,-138,96,3923,-5,-6,878,1805,1892,2087,2265,2041,1799,1841,1979
56281,15520,-15764,16490,-16278,2735,-3800,-14,-7,1,-131,89,3887,-4,1,878,1805,1892,2087,2265,2041,1799,1841,1979
57282,15524,-15744,16490,-16278,2680,-3800,-16,-6,2,-122,94,3916,12,9,878,1805,1892,2087,2265,2041,1799,1841,1979
58284,15532,-15756,16490,-16278,2620,-3800,-13,-6,3,-127,102,3951,0,7,878,1805,1892,2087,2265,2041,1799,1841,1979
59284,15512,-15748,16490,-16278,2995,-3800,-12,-9,4,-128,122,3927,-7,-3,878,1805,1892,2087,2265,2039,1798,1843,1982
60285,15520,-15760,16490,-16278,2636,-3800,-16,-11,0,-122,92,3920,12,-6,878,1805,1892,2087,2265,2039,1798,1843,1982
61286,15520,-15756,16490,-16278,2736,-3800,-17,-13,0,-153,92,3961,6,-4,878,1805,1892,2087,2265,2039,1798,1843,1982
62287,15536,-15748,16490,-16278,2517,-3800,-17,-12,2,-140,116,3911,-4,4,878,1805,1892,2087,2265,2039,1798,1843,1982
63288,15528,-15756,16490,-16278,2827,-3800,-14,-8,3,-160,105,3905,-1,9,878,1805,1892,2087,2265,2039,1798,1843,1982
64289,15528,-15764,16490,-16278,2728,-3800,-14,-8,0,-136,55,3885,11,8,878,1805,1892,2087,2265,2039,1798,1843,1982
65290,15524,-15752,16490,-16278,2783,-3800,-13,-12,-1,-161,60,3948,10,-4,879,1806,1892,2088,2265,2039,1798,1840,1978
66291,15528,-15748,16490,-16278,2678,-3800,-14,-12,1,-142,77,3939,-7,-3,878,1806,1892,2088,2265,2039,1798,1840,1978
67292,15520,-15748,16490,-16278,2839,-3800,-16,-10,1,-146,75,3914,2,1,878,1806,1892,2088,2265,2039,1798,1840,1978
68293,15532,-15764,16490,-16278,2574,-3800,-14,-10,1,-139,85,3915,12,9,878,1806,1892,2088,2265,2039,1798,1840,1978
69294,15528,-15764,16490,-16278,2779,-3800,-13,-8,2,-131,88,3909,-5,2,878,1806,1892,2088,2265,2039,1798,1840,1978
70295,15528,-15752,16490,-16278,2730,-3800,-13,-8,4,-147,58,3931,-2,-4,877,1806,1894,2088,2266,2041,1798,1841,1979
71296,15520,-15760,16490,-16278,2840,-3800,-14,-10,2,-113,87,3946,12,-2,878,1806,1894,2088,2266,2041,1798,1841,1979
72297,15524,-15756,16490,-16278,2686,-3800,-14,-8,0,-114,83,3895,-7,7,878,1806,1894,2088,2266,2041,1798,1841,1979
73298,15516,-15760,16490,-16278,2845,-3800,-12,-7,1,-143,102,3901,-6,8,878,1806,1894,2088,2266,2041,1798,1841,1979
74299,15524,-15760,16490,-16278,2636,-3800,-11,-8,4,-158,102,3934,6,8,878,1806,1894,2088,2266,2041,1798,1841,1979
75300,15528,-15748,16490,-16278,2682,-3800,-14,-8,2,-155,92,3940,8,0,878,1806,1894,2088,2266,2041,1798,1841,1979
76301,15528,-15760,16490,-16278,2732,-3800,-13,-6,0,-136,94,3940,2,-4,879,1805,1891,2087,2265,2040,1799,1842,1979
77302,15528,-15764,16490,-16278,2732,-3800,-13,-7,0,-135,89,3965,-6,-6,878,1805,1891,2087,2265,2040,1799,1842,1979
78303,15524,-15756,16490,-16278,2788,-3800,-15,-7,1,-144,89,3932,6,-3,878,1805,1891,2087,2265,2040,1799,1842,1979
79304,15536,-15764,16490,-16278,2573,-3800,-14,-7,2,-131,80,3926,12,-3,878,1805,1891,2087,2265,2040,1799,1842,1979
80305,15532,-15740,16490,-16278,2778,-3800,-13,-8,3,-137,97,3920,-2,2,878,1805,1891,2087,2265,2040,1799,1842,1979
81306,15532,-15752,16490,-16278,2729,-3800,-11,-8,2,-135,83,3922,-3,4,878,1805,1891,2087,2265,2041,1799,1841,1979
82307,15532,-15764,16490,-16278,2729,-3800,-9,-8,5,-142,82,3918,12,1,879,1805,1891,2087,2265,2041,1799,1841,1979
83308,15524,-15764,16490,-16278,2840,-3800,-11,-8,2,-117,98,3938,2,7,878,1805,1891,2087,2265,2041,1799,1841,1979
84309,15524,-15764,16490,-16278,2740,-3800,-12,-8,2,-128,114,3915,1,9,879,1805,1891,2087,2265,2041,1799,1841,1979
85310,15520,-15760,16490,-16278,2795,-3800,-9,-7,0,-125,106,3905,12,9,878,1805,1891,2087,2265,2041,1799,1841,1979
86311,15528,-15760,16490,-16278,2636,-3800,-12,-6,2,-142,84,3906,-2,2,878,1806,1892,2089,2265,2039,1798,1842,1980
87312,15520,-15760,16490,-16278,2846,-3800,-13,-7,2,-152,96,3950,6,-6,877,1806,1892,2089,2265,2039,1798,1842,1980
88313,15524,-15748,16490,-16278,2691,-3800,-15,-9,3,-121,86,3959,-3,2,878,1806,1892,2089,2265,2039,1798,1842,1980
89314,15532,-15752,16490,-16278,2632,-3800,-14,-8,1,-138,99,3949,4,9,878,1806,1892,2089,2265,2039,1798,1842,1980
90315,15520,-15756,16490,-16278,2897,-3800,-15,-9,1,-146,115,3934,2,4,878,1806,1892,2089,2265,2039,1798,1842,1980
91316,15536,-15760,16490,-16278,2527,-3800,-12,-10,2,-132,118,3935,-4,2,879,1806,1892,2089,2265,2039,1798,1842,1980
92317,15524,-15756,16490,-16278,2893,-3800,-13,-7,5,-122,122,3936,12,-5,878,1806,1892,2088,2264,2040,1798,1841,1979
93318,15528,-15764,16490,-16278,2688,-3800,-15,-7,3,-122,109,3942,-4,-4,878,1806,1892,2088,2264,2040,1798,1841,1979
94319,15524,-15768,16490,-16278,2794,-3800,-14,-9,2,-133,97,3922,-2,-5,878,1806,1892,2088,2264,2040,1798,1841,1979
95320,15528,-15764,16490,-16278,2689,-3800,-12,-10,3,-140,108,3940,12,-3,878,1806,1892,2088,2264,2040,1798,1841,1979
96321,15524,-15752,16490,-16278,2794,-3800,-12,-8,0,-134,116,3964,-1,6,878,1806,1892,2088,2264,2040,1798,1841,1979
97322,15520,-15760,16490,-16278,2800,-3800,-12,-7,1,-118,109,3960,-7,6,878,1807,1894,2089,2266,2041,1800,1841,1979
98323,15528,-15752,16490,-16278,2640,-3800,-11,-8,3,-111,79,3967,11,8,878,1807,1894,2089,2266,2041,1800,1841,1979
99324,15536,-15760,16490,-16278,2630,-3800,-10,-8,4,-114,74,3930,-1,-2,879,1807,1894,2089,2266,2041,1800,1841,1979
100325,15528,-15752,16490,-16278,2841,-3800,-11,-7,3,-121,88,3920,-7,-5,878,1807,1894,2089,2266,2041,1800,1841,1979
101326,15524,-15752,16490,-16278,2796,-3800,-10,-7,2,-136,93,3924,7,-3,878,1807,1894,2089,2266,2041,1800,1841,1979
102327,15520,-15756,16490,-16278,2801,-3800,-13,-9,3,-127,89,3949,4,6,878,1807,1894,2089,2266,2041,1800,1841,1979
103328,15524,-15752,16490,-16278,2697,-3800,-14,-9,4,-122,135,3958,-7,9,879,1804,1891,2088,2265,2041,1799,1843,1979
104329,15524,-15764,16490,-16278,2747,-3800,-14,-7,6,-139,110,3941,1,5,876,1804,1891,2088,2265,2041,1799,1843,1979
105330,15524,-15756,16490,-16278,2748,-3800,-13,-5,4,-123,86,3950,-1,-5,878,1804,1891,2088,2265,2041,1799,1843,1979
106331,15528,-15748,16490,-16278,2693,-3800,-15,-6,2,-132,76,3938,-6,-4,879,1804,1891,2088,2265,2041,1799,1843,1979
107332,15520,-15764,16490,-16278,2853,-3800,-16,-6,0,-129,65,3910,2,7,879,1804,1891,2088,2265,2041,1799,1843,1979
108333,15524,-15752,16490,-16278,2699,-3800,-12,-7,3,-142,105,3918,12,8,878,1805,1892,2088,2264,2040,1799,1841,1979
109334,15536,-15764,16490,-16278,2584,-3800,-12,-7,5,-145,97,3942,1,5,878,1805,1892,2088,2264,2040,1799,1841,1979
110335,15524,-15760,16490,-16278,2899,-3800,-17,-6,2,-143,105,3923,-6,-6,879,1805,1892,2088,2264,2040,1799,1841,1979
111336,15528,-15748,16490,-16278,2695,-3800,-19,-7,3,-134,99,3913,12,5,879,1805,1892,2088,2264,2040,1799,1841,1979
112337,15536,-15752,16490,-16278,2635,-3800,-14,-6,2,-119,107,3956,0,9,879,1805,1892,2088,2264,2040,1799,1841,1979
113338,15528,-15760,16490,-16278,2845,-3800,-13,-6,2,-128,110,3945,-6,-1,879,1805,1892,2088,2264,2040,1799,1841,1979
114339,15528,-15768,16490,-16278,2746,-3800,-12,-4,2,-122,105,3904,12,-5,879,1804,1891,2087,2264,2040,1799,1842,1979
115340,15520,-15756,16490,-16278,2856,-3800,-13,-5,1,-141,73,3910,4,-1,878,1804,1891,2087,2264,2040,1799,1842,1979
116341,15524,-15756,16490,-16278,2702,-3800,-15,-6,0,-154,72,3923,-7,8,878,1804,1891,2087,2264,2040,1799,1842,1979
117342,15528,-15752,16490,-16278,2697,-3800,-13,-6,5,-146,78,3930,8,7,879,1804,1891,2087,2264,2040,1799,1842,1979
118343,15528,-15760,16490,-16278,2747,-3800,-11,-8,6,-142,108,3899,7,5,879,1804,1891,2087,2264,2040,1799,1842,1979
119344,15520,-15756,16490,-16278,2858,-3800,-14,-7,5,-129,109,3910,-7,-4,879,1804,1891,2086,2265,2041,1799,1843,1979
120345,15520,-15756,16490,-16278,2758,-3800,-17,-6,-1,-160,98,3914,9,-2,878,1804,1891,2086,2265,2041,1799,1843,1979
121346,15520,-15756,16490,-16278,2758,-3800,-15,-7,-3,-149,85,3929,12,3,877,1804,1891,2086,2265,2041,1799,1843,1979
122347,15520,-15756,16490,-16278,2759,-3800,-15,-9,-1,-126,94,3926,-7,4,879,1804,1891,2086,2265,2041,1799,1843,1979
123348,15532,-15756,16490,-16278,2594,-3800,-14,-9,1,-107,103,3907,12,-5,879,1804,1891,2086,2265,2041,1799,1843,1979
124349,15528,-15756,16490,-16278,2799,-3800,-14,-8,0,-136,67,3955,9,-1,879,1804,1891,2086,2265,2041,1799,1843,1979
125350,15528,-15760,16490,-16278,2750,-3800,-15,-9,-1,-171,73,3913,-3,9,878,1806,1892,2086,2265,2039,1799,1841,1977
126351,15524,-15760,16490,-16278,2805,-3800,-16,-9,-1,-144,86,3919,-2,3,878,1806,1892,2086,2265,2039,1799,1841,1977
127352,15528,-15756,16490,-16278,2701,-3800,-14,-7,0,-150,101,3954,12,0,878,1806,1892,2086,2265,2039,1799,1841,1977
128353,15512,-15764,16490,-16278,2970,-3800,-14,-6,1,-137,85,3955,0,-5,878,1806,1892,2086,2265,2039,1799,1841,1977
129354,15528,-15744,16490,-16278,2551,-3800,-13,-7,0,-120,83,3944,-4,6,879,1806,1892,2086,2265,2039,1799,1841,1977
130355,15524,-15756,16490,-16278,2807,-3800,-11,-6,1,-139,73,3908,10,9,879,1806,1893,2087,2265,2040,1799,1842,1979
131356,15528,-15748,16490,-16278,2702,-3800,-10,-6,1,-128,86,3899,11,5,878,1806,1893,2087,2265,2040,1799,1842,1979
132357,15520,-15760,16490,-16278,2862,-3800,-12,-7,3,-121,90,3907,-6,-5,878,1806,1893,2087,2265,2040,1799,1842,1979
133358,15532,-15752,16490,-16278,2598,-3800,-12,-6,3,-116,107,3902,12,-6,879,1806,1893,2087,2265,2040,1799,1842,1979
134359,15532,-15748,16490,-16278,2748,-3800,-10,-8,2,-136,102,3889,-3,-2,878,1806,1893,2087,2265,2040,1799,1842,1979
135360,15524,-15764,16490,-16278,2859,-3800,-10,-11,1,-130,109,3886,3,6,879,1806,1893,2087,2265,2040,1799,1842,1979
136361,15528,-15760,16490,-16278,2704,-3800,-9,-11,1,-127,90,3909,12,8,879,1803,1891,2086,2268,2044,1801,1844,1980
137362,15532,-15760,16490,-16278,2699,-3800,-11,-8,1,-129,73,3911,2,8,878,1803,1891,2086,2268,2044,1801,1844,1980
138363,15528,-15768,16490,-16278,2805,-3800,-10,-9,1,-134,85,3921,-6,1,877,1803,1891,2086,2268,2044,1801,1844,1980
139364,15532,-15764,16490,-16278,2700,-3800,-10,-10,3,-115,84,3928,12,-5,878,1803,1891,2086,2268,2044,1801,1844,1980
140365,15516,-15756,16490,-16278,2969,-3800,-12,-10,3,-129,94,3914,-6,-3,878,1803,1891,2086,2268,2044,1801,1844,1980
141366,15536,-15764,16490,-16278,2496,-3800,-11,-10,2,-128,84,3908,7,5,878,1805,1891,2086,2264,2039,1798,1841,1979
142367,15528,-15756,16490,-16278,2856,-3800,-12,-9,-2,-141,93,3938,2,4,879,1805,1891,2086,2264,2039,1798,1841,1979
143368,15516,-15760,16490,-16278,2920,-3800,-15,-9,0,-130,110,3930,-6,9,879,1805,1891,2086,2264,2039,1798,1841,1979
144369,15532,-15764,16490,-16278,2552,-3800,-15,-7,2,-120,91,3937,9,8,878,1805,1891,2086,2264,2039,1798,1841,1979
145370,15524,-15756,16490,-16278,2862,-3800,-13,-9,2,-160,89,3932,-7,9,878,1805,1891,2086,2264,2039,1798,1841,1979
146371,15524,-15764,16490,-16278,2763,-3800,-9,-10,2,-154,96,3899,2,5,879,1805,1891,2086,2264,2039,1798,1841,1979
147372,15532,-15744,16490,-16278,2653,-3800,-11,-7,2,-141,111,3898,11,-2,878,1806,1892,2088,2264,2040,1798,1842,1979
148373,15524,-15760,16490,-16278,2863,-3800,-12,-7,3,-117,111,3911,0,-4,879,1806,1892,2088,2264,2040,1798,1842,1979
149374,15520,-15760,16490,-16278,2819,-3800,-13,-5,4,-119,97,3908,-7,-6,879,1806,1892,2088,2264,2040,1798,1842,1979
150375,15528,-15748,16490,-16278,2659,-3800,-13,-6,4,-132,103,3931,10,-5,879,1806,1892,2088,2264,2040,1798,1842,1979
151376,15528,-15756,16490,-16278,2759,-3800,-12,-8,4,-133,86,3884,8,-6,879,1806,1892,2088,2264,2040,1798,1842,1979
152377,15520,-15764,16490,-16278,2870,-3800,-11,-8,3,-120,82,3907,-3,-4,879,1804,1891,2087,2265,2041,1800,1843,1980
153378,15524,-15760,16490,-16278,2715,-3800,-14,-9,2,-122,103,3914,-4,-1,878,1804,1891,2087,2265,2041,1800,1843,1980
154379,15524,-15756,16490,-16278,2765,-3800,-13,-8,3,-124,109,3916,12,-4,878,1804,1891,2087,2265,2041,1800,1843,1980
155380,15532,-15756,16490,-16278,2656,-3800,-12,-7,2,-137,94,3945,5,5,877,1804,1891,2087,2265,2041,1800,1843,1980
156381,15528,-15760,16490,-16278,2811,-3800,-13,-6,1,-141,99,3948,4,5,878,1804,1891,2087,2265,2041,1800,1843,1980
157382,15528,-15760,16490,-16278,2762,-3800,-14,-7,3,-137,89,3931,11,7,879,1804,1891,2087,2265,2041,1800,1843,1980
158383,15532,-15756,16490,-16278,2707,-3800,-14,-6,3,-112,89,3924,4,-1,878,1804,1891,2087,2265,2041,1798,1842,1980
159384,15524,-15756,16490,-16278,2867,-3800,-12,-9,1,-135,86,3897,-7,-6,878,1804,1891,2087,2265,2041,1798,1842,1980
160385,15528,-15740,16490,-16278,2713,-3800,-14,-11,0,-133,113,3900,-2,-5,878,1804,1891,2087,2265,2041,1798,1842,1980
161386,15532,-15748,16490,-16278,2708,-3800,-14,-12,1,-153,89,3900,12,-5,878,1804,1891,2087,2265,2041,1798,1842,1980
162387,15516,-15756,16490,-16278,2977,-3800,-12,-9,2,-150,97,3927,-6,-4,879,1804,1891,2087,2265,2041,1798,1842,1980
163388,15532,-15756,16490,-16278,2559,-3800,-13,-7,2,-152,110,3943,-6,-4,878,1805,1892,2087,2265,2039,1798,1844,1981
164389,15524,-15748,16490,-16278,2869,-3800,-17,-5,1,-134,121,3935,8,0,879,1805,1892,2087,2265,2039,1798,1844,1981
165390,15532,-15748,16490,-16278,2659,-3800,-16,-6,1,-125,107,3950,3,5,879,1805,1892,2087,2265,2039,1798,1844,1981
166391,15516,-15768,16490,-16278,2979,-3800,-14,-7,1,-125,114,3942,-6,4,878,1805,1892,2087,2265,2039,1798,1844,1981
167392,15528,-15756,16490,-16278,2615,-3800,-14,-6,1,-127,79,3915,12,8,878,1805,1892,2087,2265,2039,1798,1844,1981
168393,15524,-15768,16490,-16278,2821,-3800,-14,-7,-1,-104,95,3947,-3,9,879,1805,1892,2087,2265,2039,1798,1844,1981
169394,15524,-15768,16490,-16278,2771,-3800,-16,-8,-1,-110,105,3960,-4,9,878,1804,1892,2087,2265,2041,1799,1843,1980
170395,15524,-15760,16490,-16278,2771,-3800,-16,-10,0,-139,107,3927,11,-1,878,1804,1892,2087,2265,2041,1799,1843,1980
171396,15516,-15752,16490,-16278,2881,-3800,-14,-11,0,-107,101,3919,-3,-6,878,1804,1892,2087,2265,2041,1799,1843,1980
172397,15524,-15756,16490,-16278,2672,-3800,-15,-8,0,-97,96,3986,-6,-4,877,1804,1892,2087,2265,2041,1799,1843,1980
173398,15516,-15752,16490,-16278,2881,-3800,-16,-7,-1,-125,100,3955,12,9,879,1804,1892,2087,2265,2041,1799,1843,1980
174399,15512,-15756,16490,-16278,2837,-3800,-16,-4,1,-115,104,3935,-6,5,879,1806,1892,2088,2265,2041,1800,1842,1979
175400,15528,-15768,16490,-16278,2568,-3800,-14,-6,1,-111,92,3927,5,1,878,1806,1892,2088,2265,2041,1800,1842,1979
176401,15516,-15760,16490,-16278,2932,-3800,-14,-8,-2,-115,86,3906,12,-5,879,1806,1892,2088,2265,2041,1800,1842,1979
177402,15516,-15748,16490,-16278,2783,-3800,-15,-10,1,-151,89,3908,-7,-2,878,1806,1892,2088,2265,2041,1800,1842,1979
178403,15528,-15756,16490,-16278,2619,-3800,-16,-6,1,-156,93,3933,0,3,878,1806,1892,2088,2265,2041,1800,1842,1979
179404,15524,-15748,16490,-16278,2825,-3800,-16,-8,-1,-139,87,3933,12,8,878,1806,1892,2088,2265,2041,1800,1842,1979
180405,15516,-15760,16490,-16278,2884,-3800,-17,-8,1,-129,81,3932,-6,9,879,1805,1893,2088,2265,2041,1799,1843,1979
181406,15520,-15760,16490,-16278,2730,-3800,-17,-9,1,-141,88,3950,5,9,878,1805,1893,2088,2265,2041,1799,1843,1979
182407,15532,-15768,16490,-16278,2616,-3800,-15,-9,0,-160,74,3930,12,6,878,1805,1893,2088,2265,2041,1799,1843,1979
183408,15520,-15756,16490,-16278,2931,-3800,-14,-8,1,-135,67,3918,-7,-2,879,1805,1893,2088,2265,2041,1799,1843,1979
184409,15524,-15752,16490,-16278,2726,-3800,-11,-8,-2,-117,79,3929,6,0,878,1805,1893,2088,2265,2041,1799,1843,1979
185410,15520,-15748,16490,-16278,2832,-3800,-12,-8,-1,-112,101,3946,8,-4,878,1804,1892,2087,2265,2041,1799,1844,1979
186411,15532,-15760,16490,-16278,2617,-3800,-14,-7,0,-136,95,3955,-7,-6,879,1804,1892,2087,2265,2041,1799,1844,1979
187412,15520,-15752,16490,-16278,2932,-3800,-17,-7,1,-160,90,3937,10,-6,878,1804,1892,2087,2265,2041,1799,1844,1979
188413,15528,-15756,16490,-16278,2673,-3800,-19,-7,2,-152,93,3965,4,-3,879,1804,1892,2087,2265,2041,1799,1844,1979
189414,15528,-15756,16490,-16278,2773,-3800,-19,-7,3,-137,86,3943,-3,5,877,1804,1892,2087,2265,2041,1799,1844,1979
190415,15524,-15752,16490,-16278,2829,-3800,-15,-6,0,-129,87,3942,4,9,878,1804,1892,2087,2265,2041,1799,1844,1979
191416,15528,-15756,16490,-16278,2724,-3800,-11,-6,1,-138,79,3913,-5,3,879,1805,1892,2086,2265,2040,1798,1843,1979
192417,15536,-15752,16490,-16278,2664,-3800,-9,-7,3,-122,77,3915,4,-4,878,1805,1892,2086,2265,2040,1798,1843,1979
193418,15524,-15760,16490,-16278,2930,-3800,-13,-6,3,-126,116,3949,-1,-6,878,1805,1892,2086,2265,2040,1798,1843,1979
194419,15528,-15764,16490,-16278,2725,-3800,-17,-7,1,-129,111,3950,10,-4,879,1805,1892,2086,2265,2040,1798,1843,1979
195420,15520,-15756,16490,-16278,2885,-3800,-16,-6,2,-148,93,3938,-4,1,878,1805,1892,2086,2265,2040,1798,1843,1979
196421,15520,-15760,16490,-16278,2786,-3800,-14,-6,5,-134,103,3945,12,4,879,1806,1893,2089,2265,2042,1800,1844,1980
197422,15520,-15748,16490,-16278,2786,-3800,-13,-8,7,-129,97,3950,-3,9,878,1806,1893,2089,2265,2042,1800,1844,1980
198423,15532,-15764,16490,-16278,2622,-3800,-12,-7,8,-135,73,3904,10,8,878,1806,1893,2089,2265,2042,1800,1844,1980
199424,15524,-15748,16490,-16278,2882,-3800,-12,-7,4,-122,96,3912,0,6,879,1806,1893,2089,2265,2042,1800,1844,1980
200425,15532,-15756,16555,-16213,1573,-33,-11,-9,2,-128,90,3923,-3,-4,878,1806,1893,2089,2265,2042,1800,1844,1980
201426,15532,-15756,16620,-16148,1753,-55,-10,-9,2,-137,104,3938,9,-4,864,1806,1893,2089,2265,2042,1800,1844,1980
202427,15544,-15752,16685,-16083,1667,-31,-11,-8,4,-136,83,3926,10,18,862,1805,1892,2087,2263,2039,1798,1843,1979
203428,15572,-15756,16750,-16018,1513,154,-13,-7,9,-140,69,3915,38,9,863,1805,1892,2087,2263,2039,1798,1843,1979
204429,15636,-15764,16815,-15953,1065,293,-17,-6,15,-179,-22,3933,46,22,865,1805,1892,2087,2263,2039,1798,1843,1979
205430,15704,-15756,16880,-15888,1012,162,-25,0,19,-104,-34,4005,57,11,868,1805,1892,2087,2263,2039,1798,1843,1979
206431,15788,-15760,16945,-15823,789,397,-30,-18,26,-134,52,3761,42,18,868,1805,1892,2087,2263,2039,1798,1843,1979
207432,15880,-15752,17010,-15758,657,316,-35,-45,26,-357,149,3762,58,9,871,1805,1892,2088,2265,2042,1800,1844,1980
208433,15960,-15744,17075,-15693,789,386,-39,-57,27,-371,1,3760,64,20,873,1805,1892,2088,2265,2042,1800,1844,1980
209434,16092,-15748,17140,-15628,57,620,-37,-39,29,-1,1,4030,64,17,871,1805,1892,2088,2265,2042,1800,1844,1980
210435,16192,-15732,17205,-15563,415,430,-23,-2,28,152,54,4138,55,21,874,1805,1892,2088,2265,2042,1800,1844,1980
211436,16268,-15716,17270,-15498,702,490,-15,2,30,-2,30,4029,56,5,874,1805,1892,2088,2265,2042,1800,1844,1980
212437,16384,-15728,17335,-15433,140,934,-5,-6,27,-322,90,3976,54,19,871,1805,1892,2088,2265,2042,1800,1844,1980
213438,16484,-15712,17400,-15368,298,643,6,-12,21,-355,59,3926,69,16,871,1799,1885,2084,2260,2044,1800,1844,1978
214439,16584,-15692,17465,-15303,255,648,24,-32,14,-218,138,3952,56,20,873,1799,1885,2084,2260,2044,1800,1844,1978
215440,16672,-15664,17530,-15238,378,594,30,-30,20,-264,37,4033,55,16,873,1799,1885,2084,2260,2044,1800,1844,1978
216441,16768,-15640,17595,-15173,240,695,25,-53,28,-378,35,3735,66,17,873,1799,1885,2084,2260,2044,1800,1844,1978
217442,16852,-15592,17660,-15108,367,415,24,-65,28,-425,193,3993,59,32,873,1799,1885,2084,2260,2044,1800,1844,1978
218443,16936,-15564,17725,-15043,345,710,8,-92,38,-373,-15,3714,56,30,874,1807,1894,2089,2270,2035,1793,1842,1976
219444,17012,-15532,17790,-14978,431,701,9,-90,37,-267,108,3923,51,27,873,1807,1894,2089,2270,2035,1793,1842,1976
220445,17096,-15492,17855,-14913,308,631,2,-102,51,-313,35,3571,56,32,872,1807,1894,2089,2270,2035,1793,1842,1976
221446,17168,-15444,17920,-14848,449,553,6,-91,38,-252,170,4147,41,39,873,1807,1894,2089,2270,2035,1793,1842,1976
222447,17240,-15400,17985,-14783,442,629,2,-81,39,-129,-67,3694,54,33,873,1807,1894,2089,2270,2035,1793,1842,1976
223448,17296,-15360,18050,-14718,653,709,4,-74,40,-211,62,4075,37,34,870,1807,1894,2089,2270,2035,1793,1842,1976
224449,17364,-15300,18115,-14653,499,465,11,-55,39,-193,46,3980,49,32,870,1816,1900,2092,2272,2029,1789,1839,1974
225450,17432,-15252,18180,-14588,497,636,20,-63,26,-213,0,3981,37,31,873,1816,1900,2092,2272,2029,1789,1839,1974
226451,17504,-15188,18245,-14523,438,438,31,-68,18,-258,4,3997,35,44,871,1816,1900,2092,2272,2029,1789,1839,1974
227452,17564,-15132,18310,-14458,594,549,36,-74,12,-320,-40,3958,44,30,874,1816,1900,2092,2272,2029,1789,1839,1974
228453,17632,-15080,18375,-14393,490,615,42,-74,6,-224,75,4105,50,37,872,1816,1900,2092,2272,2029,1789,1839,1974
229454,17696,-14996,18440,-14328,543,192,43,-109,-2,-427,-29,3804,35,37,872,1810,1896,2089,2267,2029,1791,1837,1971
230455,17756,-14932,18505,-14263,599,444,43,-136,-7,-518,25,4089,36,46,874,1810,1896,2089,2267,2029,1791,1837,1971
231456,17812,-14888,18570,-14198,660,720,51,-145,-15,-437,133,3944,29,46,873,1810,1896,2089,2267,2029,1791,1837,1971
232457,17864,-14820,18635,-14133,726,416,50,-153,-14,-327,-15,4017,31,35,870,1810,1896,2089,2267,2029,1791,1837,1971
233460,17928,-14768,18700,-14068,578,632,46,-150,-12,-211,37,4049,48,33,871,1810,1896,2089,2267,2029,1791,1837,1971
234459,17972,-14704,18765,-14003,854,484,51,-148,-16,-373,39,4044,30,36,871,1810,1896,2089,2267,2029,1791,1837,1971
235460,18032,-14648,18830,-13938,660,595,49,-157,-22,-432,62,3915,33,40,870,1810,1899,2092,2272,2038,1800,1851,1987
236461,18092,-14596,18895,-13873,667,661,51,-156,-23,-332,58,3930,49,48,870,1810,1899,2092,2272,2038,1800,1851,1987
237462,18140,-14536,18960,-13808,837,568,57,-140,-33,-281,103,3958,48,40,870,1810,1899,2092,2272,2038,1800,1851,1987
238463,18200,-14452,19025,-13743,694,245,55,-140,-27,-276,-29,4086,48,44,870,1810,1899,2092,2272,2038,1800,1851,1987
239464,18260,-14388,19090,-13678,701,496,64,-136,-33,-306,73,4085,35,52,873,1810,1899,2092,2272,2038,1800,1851,1987
240465,18316,-14328,19155,-13613,762,552,63,-146,-38,-328,20,4011,32,37,869,1813,1901,2092,2272,2046,1805,1852,1988
241466,18376,-14256,19220,-13548,718,395,78,-179,-38,-338,-82,4049,48,42,870,1813,1901,2092,2272,2046,1805,1852,1988
242467,18420,-14204,19285,-13483,944,661,102,-204,-57,-361,-57,4065,44,44,871,1813,1901,2092,2272,2046,1805,1852,1988
243468,18500,-14144,19350,-13418,476,567,131,-202,-87,-586,-142,3950,38,49,867,1813,1901,2092,2272,2046,1805,1852,1988
244469,18564,-14056,19415,-13353,677,189,147,-175,-107,-593,-254,4039,48,46,872,1813,1901,2092,2272,2046,1805,1852,1988
245470,18592,-13996,19480,-13288,1173,546,151,-137,-135,-403,-66,4039,47,36,873,1813,1901,2092,2272,2046,1805,1852,1988
246471,18656,-13940,19545,-13223,725,607,120,-123,-159,-298,81,4006,32,38,867,1813,1902,2095,2277,2034,1793,1842,1972
247472,18700,-13864,19610,-13158,1000,343,107,-129,-174,-477,124,3939,47,53,870,1813,1902,2095,2277,2034,1793,1842,1972
248473,18760,-13792,19675,-13093,807,386,87,-137,-182,-627,59,4094,43,53,869,1813,1902,2095,2277,2034,1793,1842,1972
249474,18816,-13728,19740,-13028,868,487,80,-125,-177,-418,9,4064,37,54,870,1813,1902,2095,2277,2034,1793,1842,1972
250475,18872,-13668,19805,-12963,879,543,69,-122,-168,-355,10,4000,51,45,870,1813,1902,2095,2277,2034,1793,1842,1972
251476,18924,-13612,19870,-12898,946,604,77,-129,-167,-447,25,4179,49,37,869,1818,1901,2093,2279,2022,1790,1840,1970
252477,18996,-13532,19935,-12833,688,287,95,-155,-161,-583,-13,3916,38,45,868,1818,1901,2093,2279,2022,1790,1840,1970
253478,19056,-13460,20000,-12768,844,378,121,-174,-157,-393,-17,3897,52,52,872,1818,1901,2093,2279,2022,1790,1840,1970
254479,19132,-13392,20065,-12703,631,425,146,-172,-148,-255,-109,3971,43,39,871,1818,1901,2093,2279,2022,1790,1840,1970
255480,19196,-13336,20130,-12638,783,586,163,-161,-143,-82,-108,4050,36,43,872,1818,1901,2093,2279,2022,1790,1840,1970
256481,19252,-13276,20195,-12573,894,543,179,-139,-146,-171,-11,3989,46,36,870,1818,1901,2093,2279,2022,1790,1840,1970
257482,19316,-13212,20260,-12508,796,494,193,-133,-140,-305,-66,3979,32,38,867,1809,1895,2089,2269,2035,1797,1844,1978
258483,19364,-13144,20325,-12443,1017,440,206,-141,-144,-259,69,3990,37,46,870,1809,1895,2089,2269,2035,1797,1844,1978
259484,19432,-13080,20390,-12378,763,491,208,-156,-147,-239,94,3923,30,38,868,1809,1895,2089,2269,2035,1797,1844,1978
260485,19484,-13012,20455,-12313,980,439,212,-169,-152,-235,96,3910,33,41,870,1809,1895,2089,2269,2035,1797,1844,1978
261486,19548,-12952,20520,-12248,831,545,196,-167,-156,-276,190,3916,42,37,869,1809,1895,2089,2269,2035,1797,1844,1978
262487,19604,-12884,20585,-12183,943,441,186,-161,-165,-134,165,3826,38,46,870,1815,1902,2096,2276,2033,1791,1842,1974
263488,19656,-12820,20650,-12118,1009,492,159,-171,-169,-164,128,3864,43,43,869,1815,1902,2096,2276,2033,1791,1842,1974
264489,19716,-12752,20715,-12053,915,440,154,-151,-180,-106,221,3925,33,46,868,1815,1902,2096,2276,2033,1791,1842,1974
265490,19772,-12700,20780,-11988,977,656,140,-137,-176,-279,98,3887,34,36,869,1815,1902,2096,2276,2033,1791,1842,1974
266491,19832,-12640,20845,-11923,933,562,148,-139,-179,-186,40,3985,32,40,867,1815,1902,2096,2276,2033,1791,1842,1974
267492,19888,-12580,20910,-11858,994,569,156,-135,-173,-211,77,3974,39,37,868,1815,1902,2096,2276,2033,1791,1842,1974
268493,19944,-12516,20975,-11793,1006,520,165,-135,-160,-194,36,3991,43,50,867,1813,1900,2092,2268,2040,1794,1844,1984
269494,20004,-12472,21040,-11728,962,796,178,-146,-141,-172,40,3966,51,48,868,1813,1900,2092,2268,2040,1794,1844,1984
270495,20044,-12396,21105,-11663,1244,382,196,-156,-125,-224,81,3917,50,40,866,1813,1900,2092,2268,2040,1794,1844,1984
271496,20116,-12324,21170,-11598,835,425,211,-157,-106,-212,-24,4068,52,51,867,1813,1900,2092,2268,2040,1794,1844,1984
272497,20164,-12268,21235,-11533,1156,636,230,-157,-94,21,98,4001,42,54,870,1813,1900,2092,2268,2040,1794,1844,1984
273498,20240,-12212,21300,-11468,793,647,242,-155,-81,-19,39,3976,34,35,865,1796,1886,2083,2255,2050,1803,1848,1985
274499,20300,-12148,21365,-11403,1000,548,250,-159,-63,-133,33,3973,46,42,867,1796,1886,2083,2255,2050,1803,1848,1985
275500,20356,-12080,21430,-11338,1062,495,257,-159,-53,-186,110,3918,33,39,867,1796,1886,2083,2255,2050,1803,1848,1985
276501,20436,-12016,21495,-11273,743,546,254,-165,-47,59,123,3938,49,50,867,1796,1886,2083,2255,2050,1803,1848,1985
277502,20484,-11952,21560,-11208,1164,548,244,-182,-35,148,94,3834,37,40,870,1796,1886,2083,2255,2050,1803,1848,1985
278503,20548,-11912,21625,-11143,966,879,230,-182,-26,77,220,3830,38,40,866,1796,1886,2083,2255,2050,1803,1848,1985
279504,20612,-11824,21690,-11078,967,251,206,-186,-17,136,198,3781,34,42,865,1804,1892,2090,2272,2041,1798,1844,1976
280505,20664,-11788,21755,-11013,1134,937,192,-195,-18,34,124,3831,36,51,870,1804,1892,2090,2272,2041,1798,1844,1976
281506,20712,-11712,21820,-10948,1205,423,177,-194,-22,65,178,3910,31,35,863,1804,1892,2090,2272,2041,1798,1844,1976
282507,20776,-11652,21885,-10883,1006,630,172,-189,-23,173,199,3905,42,53,866,1804,1892,2090,2272,2041,1798,1844,1976
283508,20824,-11604,21950,-10818,1228,801,164,-193,-17,212,97,3976,33,39,867,1804,1892,2090,2272,2041,1798,1844,1976
284509,20888,-11528,22015,-10753,1029,438,164,-184,-15,263,172,3982,31,37,863,1811,1894,2090,2268,2042,1799,1847,1984
285510,20944,-11460,22080,-10688,1141,535,162,-179,-15,143,102,3999,38,52,868,1811,1894,2090,2268,2042,1799,1847,1984
286511,20988,-11380,22145,-10623,1317,367,167,-164,-12,93,116,4126,32,48,867,1811,1894,2090,2268,2042,1799,1847,1984
287512,21040,-11332,22210,-10558,1234,787,174,-146,-11,140,111,4005,37,50,865,1811,1894,2090,2268,2042,1799,1847,1984
288513,21108,-11272,22275,-10493,1030,644,176,-136,-3,19,24,4122,46,46,864,1811,1894,2090,2268,2042,1799,1847,1984
289514,21164,-11208,22340,-10428,1192,596,181,-133,16,-59,-14,4042,42,52,867,1811,1894,2090,2268,2042,1799,1847,1984
290515,21220,-11144,22405,-10363,1203,597,186,-137,25,-50,76,4057,38,38,865,1796,1888,2083,2255,2059,1810,1854,1996
291516,21276,-11084,22470,-10298,1214,653,185,-142,31,-57,73,4046,37,38,864,1796,1888,2083,2255,2059,1810,1854,1996
292517,21320,-11020,22535,-10233,1391,605,189,-142,47,-102,113,4039,38,49,864,1796,1888,2083,2255,2059,1810,1854,1996
293518,21396,-10964,22600,-10168,977,716,181,-152,58,-75,130,4033,35,41,863,1796,1888,2083,2255,2059,1810,1854,1996
294519,21448,-10900,22665,-10103,1294,617,180,-150,63,-71,105,3959,49,51,866,1796,1888,2083,2255,2059,1810,1854,1996
295520,21496,-10840,22730,-10038,1365,675,163,-146,71,96,111,3954,51,41,864,1794,1889,2090,2265,2069,1818,1862,1999
296521,21568,-10796,22795,-9973,1057,900,158,-132,66,227,203,4055,48,45,863,1794,1889,2090,2265,2069,1818,1862,1999
297522,21628,-10740,22860,-9908,1213,761,138,-121,73,106,167,3927,62,51,864,1794,1889,2090,2265,2069,1818,1862,1999
298523,21700,-10660,22925,-9843,1056,444,126,-118,76,157,193,3877,56,42,864,1794,1889,2090,2265,2069,1818,1862,1999
299524,21772,-10596,22990,-9778,1047,645,118,-98,77,157,222,3929,41,48,867,1794,1889,2090,2265,2069,1818,1862,1999
300525,21832,-10540,23055,-9713,1204,756,107,-95,74,268,146,3812,43,33,866,1805,1896,2090,2265,2069,1818,1862,1999
301526,21896,-10488,23120,-9648,1156,822,99,-69,62,318,177,4036,50,32,863,1805,1896,2098,2274,2066,1817,1862,1999
303528,22032,-10392,23250,-9518,1149,814,80,-47,69,143,203,4006,40,41,863,1805,1896,2098,2274,2066,1817,1862,1999
304529,22100,-10324,23315,-9453,1096,661,80,-34,62,182,166,4165,53,35,864,1805,1896,2098,2274,2066,1817,1862,1999
305530,22160,-10256,23380,-9388,1203,658,86,-34,63,166,185,4185,49,39,866,1805,1896,2098,2274,2066,1817,1862,1999
306531,22208,-10212,23445,-9323,1374,984,93,-38,62,187,252,4277,44,35,864,1799,1886,2086,2260,2060,1812,1852,1985
307532,22272,-10156,23510,-9258,1176,845,94,-12,35,319,193,4151,34,49,860,1799,1886,2086,2260,2060,1812,1852,1985
308533,22312,-10100,23575,-9193,1506,857,99,22,32,48,369,4343,36,48,861,1799,1886,2086,2260,2060,1812,1852,1985
309534,22364,-10040,23640,-9128,1373,813,112,92,39,-63,508,4451,40,43,859,1799,1886,2086,2260,2060,1812,1852,1985
310535,22440,-9980,23705,-9063,1060,819,129,124,40,-15,244,4238,45,39,861,1799,1886,2086,2260,2060,1812,1852,1985
311536,22496,-9916,23770,-8998,1322,771,145,134,48,-286,331,4443,47,42,865,1792,1882,2086,2266,2054,1809,1849,1982
312537,22544,-9872,23835,-8933,1442,1047,147,123,56,-458,488,4158,40,47,862,1792,1882,2086,2266,2054,1809,1849,1982
313538,22608,-9800,23900,-8868,1245,689,151,165,55,-241,501,4369,42,49,858,1792,1882,2086,2266,2054,1809,1849,1982
314539,22672,-9740,23965,-8803,1246,845,146,165,65,-215,373,3896,52,41,864,1792,1882,2086,2266,2054,1809,1849,1982
315540,22724,-9688,24030,-8738,1413,961,127,136,78,-599,480,3665,52,50,862,1792,1882,2086,2266,2054,1809,1849,1982
316541,22796,-9640,24095,-8673,1154,1033,109,106,65,-378,616,3743,59,38,859,1792,1882,2086,2266,2054,1809,1849,1982
317542,22868,-9564,24160,-8608,1147,669,96,102,58,-221,402,3882,48,39,861,1815,1905,2115,2304,2047,1809,1850,1982
318543,22940,-9520,24225,-8543,1138,1095,86,98,62,-127,344,3738,45,41,865,1815,1905,2115,2304,2047,1809,1850,1982
319544,22996,-9472,24290,-8478,1350,1067,68,68,55,-168,423,3628,53,34,861,1815,1905,2115,2304,2047,1809,1850,1982
320545,23080,-9404,24355,-8413,977,813,55,87,45,83,249,3757,54,35,859,1815,1905,2115,2304,2047,1809,1850,1982
321546,23156,-9356,24420,-8348,1064,1084,40,115,36,415,433,3955,56,44,865,1815,1905,2115,2304,2047,1809,1850,1982
322547,23200,-9284,24485,-8283,1490,776,36,163,24,230,374,3964,41,45,862,1830,1913,2115,2289,2043,1801,1843,1983
323548,23276,-9232,24550,-8218,1078,1042,42,193,5,369,382,4176,52,46,860,1830,1913,2115,2289,2043,1801,1843,1983
324549,23356,-9188,24615,-8153,1009,1169,57,231,-5,271,332,4078,38,40,862,1830,1913,2115,2289,2043,1801,1843,1983
325550,23412,-9112,24680,-8088,1321,756,65,245,-12,237,492,4137,48,46,860,1830,1913,2115,2289,2043,1801,1843,1983
326551,23468,-9084,24745,-8023,1332,1401,76,284,-24,130,428,4231,49,31,862,1830,1913,2115,2289,2043,1801,1843,1983
327552,23528,-9004,24810,-7958,1289,733,94,293,-36,-138,558,4381,38,49,856,1830,1913,2115,2289,2043,1801,1843,1983
328553,23588,-8948,24875,-7893,1296,1044,113,276,-38,-526,526,4021,49,35,863,1789,1873,2071,2232,2048,1797,1841,1983
329554,23656,-8892,24940,-7828,1192,1056,125,219,-60,-636,657,4014,44,37,860,1789,1873,2071,2232,2048,1797,1841,1983
330555,23700,-8828,25005,-7763,1519,958,116,147,-69,-513,641,3947,53,37,861,1789,1873,2071,2232,2048,1797,1841,1983
331556,23780,-8772,25070,-7698,1050,1069,100,63,-52,-534,687,3810,39,43,858,1789,1873,2071,2232,2048,1797,1841,1983
332557,23828,-8704,25135,-7633,1472,916,93,17,-44,-953,786,3733,49,35,862,1789,1873,2071,2232,2048,1797,1841,1983
333558,23888,-8660,25200,-7568,1328,1242,90,-17,-43,-748,631,3864,47,35,859,1771,1866,2065,2235,2051,1804,1852,1996
334559,23940,-8592,25265,-7503,1445,939,105,-21,-36,-304,615,3885,45,41,859,1771,1866,2065,2235,2051,1804,1852,1996
335560,24024,-8540,25330,-7438,1022,1155,93,-35,-20,-213,466,3493,60,40,860,1771,1866,2065,2235,2051,1804,1852,1996
336561,24080,-8480,25395,-7373,1384,1061,97,-12,-15,-121,509,3797,63,53,861,1771,1866,2065,2235,2051,1804,1852,1996
337562,24136,-8432,25460,-7308,1395,1233,88,11,-10,-137,708,3566,54,35,859,1771,1866,2065,2235,2051,1804,1852,1996
338563,24212,-8368,25525,-7243,1132,1034,88,35,-3,139,560,3631,44,40,857,1771,1866,2065,2235,2051,1804,1852,1996
339564,24304,-8308,25590,-7178,899,1091,91,43,-11,145,634,3499,54,42,862,1802,1898,2097,2267,2058,1805,1851,1999
340565,24384,-8236,25655,-7113,1032,932,92,48,-24,-193,502,3581,41,52,864,1802,1898,2097,2267,2058,1805,1851,1999
341566,24448,-8200,25720,-7048,1233,1419,107,94,-55,-74,494,4075,45,48,864,1802,1898,2097,2267,2058,1805,1851,1999
342567,24508,-8120,25785,-6983,1290,850,119,136,-68,-443,313,3744,56,44,855,1802,1898,2097,2267,2058,1805,1851,1999
343568,24588,-8068,25850,-6918,1022,1216,131,100,-96,-33,650,3830,44,51,861,1802,1898,2097,2267,2058,1805,1851,1999
344569,24656,-8024,25915,-6853,1169,1343,121,10,-110,-33,442,3514,37,44,861,1812,1896,2100,2264,2024,1783,1824,1955
345570,24716,-7960,25980,-6788,1275,1094,105,-60,-128,-194,532,3523,45,41,858,1812,1896,2100,2264,2024,1783,1824,1955
346571,24768,-7908,26045,-6723,1392,1261,104,-127,-153,-730,696,3748,38,50,859,1812,1896,2100,2264,2024,1783,1824,1955
347572,24832,-7848,26110,-6658,1244,1167,105,-185,-173,-587,593,3868,39,37,856,1812,1896,2100,2264,2024,1783,1824,1955
348573,24884,-7784,26175,-6593,1410,1119,106,-214,-182,65,488,4082,53,48,859,1812,1896,2100,2264,2024,1783,1824,1955
349574,24952,-7736,26240,-6528,1207,1340,110,-225,-193,-83,667,3951,56,36,857,1812,1896,2100,2264,2024,1783,1824,1955
350575,25020,-7692,26305,-6463,1204,1417,103,-208,-179,-519,441,4060,44,35,858,1796,1876,2076,2249,2001,1766,1815,1947
351576,25084,-7620,26370,-6398,1255,1058,100,-187,-165,5,502,3902,55,36,857,1796,1876,2076,2249,2001,1766,1815,1947
352577,25160,-7552,26435,-6333,1093,1105,111,-163,-143,47,571,3986,49,32,860,1796,1876,2076,2249,2001,1766,1815,1947
353578,25188,-7508,26500,-6268,1738,1431,126,-130,-123,-134,404,4144,57,35,861,1796,1876,2076,2249,2001,1766,1815,1947
354579,25256,-7452,26565,-6203,1235,1292,155,-95,-131,-43,502,3962,55,42,850,1796,1876,2076,2249,2001,1766,1815,1947
355580,25312,-7392,26630,-6138,1396,1249,179,-91,-109,-60,308,3904,43,52,857,1793,1885,2080,2254,2030,1790,1844,1982
356581,25360,-7344,26695,-6073,1518,1420,197,-89,-111,489,606,4186,50,46,857,1793,1885,2080,2254,2030,1790,1844,1982
357582,25436,-7292,26760,-6008,1155,1387,221,-74,-136,5,645,3676,58,49,854,1793,1885,2080,2254,2030,1790,1844,1982
358583,25520,-7232,26825,-5943,1033,1293,241,-98,-152,-492,529,3819,54,53,857,1793,1885,2080,2254,2030,1790,1844,1982
359584,25612,-7164,26890,-5878,900,1190,259,-146,-177,-341,490,3891,38,49,859,1793,1885,2080,2254,2030,1790,1844,1982
360585,25688,-7108,26955,-5813,1087,1351,288,-178,-207,-135,549,3770,52,38,862,1793,1885,2080,2254,2030,1790,1844,1982
361586,25732,-7048,27020,-5748,1513,1308,312,-173,-239,-385,520,4225,44,37,859,1807,1902,2104,2288,2056,1808,1854,1985
362587,25788,-6984,27085,-5683,1375,1260,330,-128,-256,-657,409,4219,40,45,854,1807,1902,2104,2288,2056,1808,1854,1985
363588,25852,-6900,27150,-5618,1276,987,341,-93,-272,-206,480,4185,39,46,856,1807,1902,2104,2288,2056,1808,1854,1985
364589,25916,-6852,27215,-5553,1278,1458,337,-71,-289,-202,271,4166,47,54,861,1807,1902,2104,2288,2056,1808,1854,1985
365590,25964,-6792,27280,-5488,1499,1315,351,-44,-303,-302,238,4421,37,53,856,1807,1902,2104,2288,2056,1808,1854,1985
366591,26016,-6724,27345,-5423,1466,1212,340,-52,-310,-158,211,4204,39,52,855,1832,1919,2121,2311,2032,1793,1840,1967
367592,26092,-6660,27410,-5358,1152,1264,343,-66,-323,179,290,4241,47,40,856,1832,1919,2121,2311,2032,1793,1840,1967
368593,26148,-6600,27475,-5293,1414,1320,333,-98,-327,468,282,4002,55,42,859,1832,1919,2121,2311,2032,1793,1840,1967
369594,26236,-6540,27540,-5228,986,1327,338,-137,-324,114,247,4107,41,37,856,1832,1919,2121,2311,2032,1793,1840,1967
370595,26316,-6476,27605,-5163,1069,1278,342,-159,-329,-181,262,4169,47,54,860,1832,1919,2121,2311,2032,1793,1840,1967
371596,26356,-6424,27670,-5098,1600,1445,352,-167,-333,125,190,4218,59,35,860,1832,1919,2121,2311,2032,1793,1840,1967
372597,26420,-6364,27735,-5033,1302,1351,367,-133,-335,499,258,4351,59,34,852,1844,1924,2128,2314,2030,1796,1845,1976
373598,26500,-6316,27800,-4968,1083,1523,371,-94,-331,331,193,4305,63,49,857,1844,1924,2128,2314,2030,1796,1845,1976
374599,26576,-6264,27865,-4903,1121,1489,376,-56,-339,253,146,4253,65,46,857,1844,1924,2128,2314,2030,1796,1845,1976
375600,26624,-6224,27930,-4838,1492,1670,386,-21,-329,271,122,4294,62,36,857,1844,1924,2128,2314,2030,1796,1845,1976
376601,26692,-6152,27995,-4773,1239,1262,398,-3,-325,857,249,4477,61,45,848,1844,1924,2128,2314,2030,1796,1845,1976
377602,26740,-6120,28060,-4708,1510,1803,416,34,-352,790,416,4493,53,49,858,1830,1917,2114,2291,2054,1810,1862,1983
378603,26824,-6068,28125,-4643,1038,1569,437,53,-372,-5,399,4322,45,45,849,1830,1917,2114,2291,2054,1810,1862,1983
379604,26896,-6016,28190,-4578,1179,1586,459,54,-392,-109,571,4384,47,45,856,1830,1917,2114,2291,2054,1810,1862,1983
380605,26980,-5976,28255,-4513,1007,1766,478,21,-395,22,414,4313,56,29,854,1830,1917,2114,2291,2054,1810,1862,1983
381606,27048,-5940,28320,-4448,1203,1853,500,2,-416,5,437,4308,39,40,854,1830,1917,2114,2291,2054,1810,1862,1983
382607,27136,-5892,28385,-4383,926,1725,512,-4,-429,-756,460,4554,51,35,850,1830,1917,2114,2291,2054,1810,1862,1983
383608,27192,-5840,28450,-4318,1337,1690,519,22,-441,-789,453,4597,37,34,855,1804,1895,2090,2273,2064,1812,1862,1996
384609,27256,-5800,28515,-4253,1239,1872,528,76,-431,-603,98,4520,35,39,851,1804,1895,2090,2273,2064,1812,1862,1996
385610,27320,-5740,28580,-4188,1241,1628,527,90,-429,-224,252,4289,50,35,850,1804,1895,2090,2273,2064,1812,1862,1996
386611,27384,-5704,28645,-4123,1242,1964,522,71,-425,-206,226,4232,46,28,854,1804,1895,2090,2273,2064,1812,1862,1996
387612,27448,-5644,28710,-4058,1244,1672,502,32,-438,285,419,4092,55,29,849,1804,1895,2090,2273,2064,1812,1862,1996
388613,27516,-5608,28775,-3993,1190,2007,495,-21,-440,552,347,3936,47,34,853,1813,1905,2107,2295,2067,1823,1868,2002
389614,27584,-5540,28840,-3928,1188,1604,490,-64,-443,234,302,3885,43,38,849,1813,1905,2107,2295,2067,1823,1868,2002
390615,27648,-5480,28905,-3863,1239,1710,493,-50,-453,-99,275,4039,44,44,854,1813,1905,2107,2295,2067,1823,1868,2002
391616,27728,-5448,28970,-3798,1022,2102,492,-20,-461,486,260,4087,43,37,853,1813,1905,2107,2295,2067,1823,1868,2002
392617,27796,-5372,29035,-3733,1168,1539,493,28,-461,808,234,4070,45,35,849,1813,1905,2107,2295,2067,1823,1868,2002
393618,27856,-5308,29100,-3668,1275,1690,486,34,-455,248,206,4109,59,34,854,1813,1905,2107,2295,2067,1823,1868,2002
394619,27908,-5252,29165,-3603,1391,1802,492,32,-459,121,277,4275,62,37,853,1828,1913,2120,2295,2064,1816,1858,1999
395620,27976,-5184,29230,-3538,1188,1649,501,21,-456,648,96,4202,57,40,850,1828,1913,2120,2295,2064,1816,1858,1999
396621,28044,-5120,29295,-3473,1185,1701,505,14,-452,921,279,4179,63,53,854,1828,1913,2120,2295,2064,1816,1858,1999
397622,28116,-5056,29360,-3408,1127,1703,510,20,-448,291,453,4403,50,41,854,1828,1913,2120,2295,2064,1816,1858,1999
398623,28204,-4980,29425,-3343,899,1540,511,12,-460,-170,453,4205,47,55,855,1828,1913,2120,2295,2064,1816,1858,1999
399624,28300,-4912,29490,-3278,762,1637,515,2,-458,-214,394,4367,62,45,858,1808,1890,2091,2260,2046,1797,1843,1982
400625,28384,-4852,29555,-3213,889,1744,520,-11,-468,76,727,4440,42,53,858,1808,1890,2091,2260,2046,1797,1843,1982
401626,28464,-4792,29620,-3148,922,1750,525,-34,-484,-556,637,4311,47,51,856,1808,1890,2091,2260,2046,1797,1843,1982
402627,28528,-4704,29685,-3083,1123,1373,509,-35,-473,-966,612,4693,53,53,856,1808,1890,2091,2260,2046,1797,1843,1982
403628,28592,-4636,29750,-3018,1124,1620,497,-23,-462,-1009,666,4207,42,49,858,1808,1890,2091,2260,2046,1797,1843,1982
404629,28668,-4564,29815,-2953,962,1562,494,-60,-464,-494,777,4265,48,46,855,1808,1890,2091,2260,2046,1797,1843,1982
405630,28736,-4508,29880,-2888,1058,1774,476,-136,-448,543,675,4219,48,46,858,1791,1883,2080,2256,2055,1803,1851,1995
406631,28800,-4452,29945,-2823,1110,1785,469,-186,-444,-50,670,3678,42,36,854,1791,1883,2080,2256,2055,1803,1851,1995
407632,28868,-4392,30010,-2758,1057,1742,461,-240,-441,-1188,705,3823,47,34,854,1791,1883,2080,2256,2055,1803,1851,1995
408633,28920,-4336,30075,-2693,1273,1804,473,-238,-449,-317,653,3974,59,50,854,1791,1883,2080,2256,2055,1803,1851,1995
409634,29008,-4260,30140,-2628,795,1541,478,-241,-436,384,510,3789,42,50,851,1791,1883,2080,2256,2055,1803,1851,1995
410635,29072,-4196,30205,-2563,1097,1693,492,-232,-410,62,483,3915,45,48,857,1809,1901,2107,2279,2089,1830,1873,2027
411636,29148,-4152,30270,-2498,934,1969,508,-232,-403,-227,500,3805,56,46,854,1809,1901,2107,2279,2089,1830,1873,2027
412637,29208,-4080,30335,-2433,1140,1611,521,-242,-402,-133,437,3705,42,33,853,1809,1901,2107,2279,2089,1830,1873,2027
413638,29268,-4020,30400,-2368,1147,1768,526,-243,-399,283,554,3895,50,42,855,1809,1901,2107,2279,2089,1830,1873,2027
414639,29356,-3972,30465,-2303,769,1939,539,-211,-401,383,610,4016,60,50,853,1809,1901,2107,2279,2089,1830,1873,2027
415640,29444,-3900,30530,-2238,742,1631,535,-226,-390,527,437,3616,54,37,854,1809,1901,2107,2279,2089,1830,1873,2027
416641,29532,-3848,30595,-2173,714,1898,513,-251,-368,205,548,4004,41,44,858,1820,1904,2108,2272,2066,1810,1846,1989
417642,29604,-3772,30660,-2108,906,1585,496,-233,-357,-474,748,3964,55,46,855,1820,1904,2108,2272,2066,1810,1846,1989
418643,29676,-3708,30725,-2043,898,1737,473,-220,-362,-839,757,3960,52,46,857,1820,1904,2108,2272,2066,1810,1846,1989
419644,29740,-3648,30790,-1978,999,1793,452,-241,-349,-469,852,4076,34,43,856,1820,1904,2108,2272,2066,1810,1846,1989
420645,29808,-3572,30855,-1913,947,1581,424,-287,-331,-124,890,4030,35,39,854,1820,1904,2108,2272,2066,1810,1846,1989
421646,29872,-3516,30920,-1848,998,1843,420,-339,-319,-587,950,4170,44,51,857,1798,1873,2075,2247,2025,1779,1820,1956
422647,29948,-3460,30985,-1783,834,1854,411,-407,-312,-1023,950,3964,41,49,853,1798,1873,2075,2247,2025,1779,1820,1956
423648,30000,-3396,31050,-1718,1151,1756,398,-490,-316,-540,867,4151,48,49,855,1798,1873,2075,2247,2025,1779,1820,1956
424649,30072,-3340,31115,-1653,893,1868,397,-509,-304,-426,785,3929,56,46,854,1798,1873,2075,2247,2025,1779,1820,1956
425650,30148,-3288,31180,-1588,830,1934,388,-543,-274,-833,817,3774,56,50,854,1798,1873,2075,2247,2025,1779,1820,1956
426651,30204,-3212,31245,-1523,1091,1621,386,-542,-245,-529,692,4067,56,46,853,1798,1873,2075,2247,2025,1779,1820,1956
427652,30284,-3152,31310,-1458,773,1828,392,-570,-210,-159,796,3577,47,32,854,1775,1857,2064,2233,2051,1803,1842,1996
428653,30356,-3100,31375,-1393,865,1944,401,-607,-170,-287,730,3833,57,45,855,1775,1857,2064,2233,2051,1803,1842,1996
429654,30412,-3024,31440,-1328,1076,1632,411,-614,-160,-376,696,3522,42,41,853,1775,1857,2064,2233,2051,1803,1842,1996
430655,30476,-2960,31505,-1263,979,1783,407,-607,-143,-346,790,3704,47,33,855,1775,1857,2064,2233,2051,1803,1842,1996
431656,30552,-2904,31570,-1198,815,1895,412,-554,-112,71,809,3848,59,43,855,1775,1857,2064,2233,2051,1803,1842,1996
432657,30628,-2836,31635,-1133,802,1742,413,-544,-99,2,805,3380,47,42,855,1788,1878,2086,2243,2085,1823,1863,2019
433658,30684,-2780,31700,-1068,1064,1903,413,-556,-92,-192,869,3832,59,49,857,1788,1878,2086,2243,2085,1823,1863,2019
434659,30748,-2712,31765,-1003,965,1751,410,-553,-85,10,923,3599,55,44,852,1788,1878,2086,2243,2085,1823,1863,2019
435660,30804,-2640,31830,-938,1076,1693,385,-562,-80,133,1004,3536,46,50,854,1788,1878,2086,2243,2085,1823,1863,2019
436661,30880,-2588,31895,-873,814,1959,361,-570,-71,-182,1077,3802,43,47,855,1788,1878,2086,2243,2085,1823,1863,2019
437662,30960,-2520,31960,-808,745,1756,336,-593,-69,-626,1102,3591,62,40,853,1788,1878,2086,2243,2085,1823,1863,2019
438663,31060,-2460,32025,-743,453,1863,319,-613,-70,-744,906,4004,50,46,856,1799,1885,2090,2248,2064,1804,1840,1986
439664,31124,-2396,32090,-678,905,1815,290,-635,-51,-831,780,3823,48,37,856,1799,1885,2090,2248,2064,1804,1840,1986
440665,31216,-2324,32155,-613,522,1707,267,-656,-38,-906,860,3820,42,44,855,1799,1885,2090,2248,2064,1804,1840,1986
441666,31300,-2272,32220,-548,600,1974,242,-704,-21,-794,892,4028,56,38,859,1799,1885,2090,2248,2064,1804,1840,1986
442667,31372,-2208,32285,-483,741,1825,224,-784,13,-249,824,3813,52,38,855,1799,1885,2090,2248,2064,1804,1840,1986
443668,31448,-2136,32350,-418,678,1718,209,-854,29,-428,965,3757,57,39,856,1778,1858,2070,2232,2046,1800,1830,1976
444669,31516,-2068,32415,-353,775,1765,212,-903,46,-1051,1000,3986,50,38,857,1778,1858,2070,2232,2046,1800,1830,1976
445670,31576,-2016,32480,-288,881,1981,212,-922,53,-256,989,3948,40,46,857,1778,1858,2070,2232,2046,1800,1830,1976
446671,31652,-1944,32545,-223,668,1723,208,-897,72,24,908,3929,58,33,853,1778,1858,2070,2232,2046,1800,1830,1976
447672,31720,-1880,32610,-158,765,1826,202,-861,104,-240,950,3919,57,41,857,1778,1858,2070,2232,2046,1800,1830,1976
448673,31788,-1824,32675,-93,761,1937,190,-815,139,-167,937,3933,39,38,856,1778,1858,2070,2232,2046,1800,1830,1976
449674,31856,-1748,32874,106,1608,2525,184,-783,171,39,909,3664,45,46,854,1768,1851,2067,2227,2063,1814,1847,2001
450675,31920,-1688,32939,171,1660,2732,184,-759,208,-86,1000,3755,45,43,838,1768,1851,2067,2227,2063,1814,1847,2001
451676,32000,-1608,33004,236,1442,2463,197,-764,234,-158,983,3738,58,38,834,1768,1851,2067,2227,2063,1814,1847,2001
452677,32088,-1532,33069,301,1315,2501,206,-804,267,-274,800,3525,74,42,840,1768,1851,2067,2227,2063,1814,1847,2001
453678,32200,-1432,33134,366,958,2159,219,-789,306,-61,1107,4089,79,54,842,1768,1851,2067,2227,2063,1814,1847,2001
454679,32316,-1352,33199,431,845,2391,215,-752,344,-47,1131,3437,81,54,850,1785,1872,2086,2249,2076,1819,1852,1995
455680,32416,-1244,33264,496,1004,1990,232,-778,377,-677,1223,3720,63,49,849,1785,1872,2086,2249,2076,1819,1852,1995
456681,32520,-1140,33329,561,906,1993,239,-903,412,-1173,1205,3580,77,63,852,1785,1872,2086,2249,2076,1819,1852,1995
457682,32640,-1032,33394,626,639,1890,246,-1018,425,-342,1654,4027,73,57,854,1785,1872,2086,2249,2076,1819,1852,1995
458684,32736,-936,33459,691,902,2004,243,-1123,437,-80,1490,3650,74,54,857,1785,1872,2086,2249,2076,1819,1852,1995
459684,32836,-844,33524,756,809,2022,229,-1142,441,-735,1586,4213,80,67,854,1785,1872,2086,2249,2076,1819,1852,1995
460685,32936,-744,33589,821,767,1879,212,-1139,420,-597,1681,3903,64,56,854,1801,1884,2095,2267,2044,1788,1828,1969
461686,33048,-636,33654,886,559,1727,204,-1084,391,162,1607,4310,70,65,855,1801,1884,2095,2267,2044,1788,1828,1969
462687,33144,-536,33719,951,722,1785,202,-1008,398,461,1493,4218,82,70,859,1801,1884,2095,2267,2044,1788,1828,1969
463688,33252,-440,33784,1016,520,1798,202,-994,390,160,1316,3970,77,63,857,1801,1884,2095,2267,2044,1788,1828,1969
464689,33352,-344,33849,1081,577,1760,211,-996,378,-118,1474,4565,59,61,858,1801,1884,2095,2267,2044,1788,1828,1969
465690,33476,-264,33914,1146,205,1943,216,-1009,436,110,970,3881,65,49,859,1824,1907,2117,2277,2031,1783,1824,1977
466691,33600,-156,33979,1211,133,1541,213,-995,498,662,1150,4172,52,55,859,1824,1907,2117,2277,2031,1783,1824,1977
467692,33672,-60,34044,1276,775,1653,209,-973,528,-257,1174,3847,69,58,864,1824,1907,2117,2277,2031,1783,1824,1977
468693,33756,40,34109,1341,602,1562,216,-986,559,-1635,1121,3932,49,47,859,1824,1907,2117,2277,2031,1783,1824,1977
469694,33820,120,34174,1406,854,1793,207,-1012,598,-950,1224,4160,56,55,861,1824,1907,2117,2277,2031,1783,1824,1977
470695,33916,184,34239,1471,416,1996,208,-1046,629,632,1359,4003,54,48,856,1824,1907,2117,2277,2031,1783,1824,1977
471696,33992,288,34304,1536,652,1448,211,-1078,680,222,1409,4025,63,60,857,1827,1914,2133,2292,2052,1810,1840,1987
472697,34072,364,34369,1601,584,1786,198,-1131,726,-852,1487,3786,46,46,862,1827,1914,2133,2292,2052,1810,1840,1987
473698,34156,448,34434,1666,511,1662,198,-1164,757,-917,1464,4132,62,60,859,1827,1914,2133,2292,2052,1810,1840,1987
474699,34236,532,34499,1731,543,1639,184,-1160,787,41,1458,4150,58,57,860,1827,1914,2133,2292,2052,1810,1840,1987
475700,34300,624,34564,1796,744,1507,179,-1152,811,291,1470,3731,47,52,860,1827,1914,2133,2292,2052,1810,1840,1987
476701,34380,712,34629,1861,525,1529,156,-1165,822,-322,1587,4138,46,60,860,1807,1890,2111,2271,2084,1836,1862,2012
477702,34460,796,34694,1926,508,1557,152,-1184,837,-387,1474,4099,55,60,862,1807,1890,2111,2271,2084,1836,1862,2012
478703,34520,876,34759,1991,764,1589,139,-1195,827,-139,1584,3997,57,51,860,1807,1890,2111,2271,2084,1836,1862,2012
479704,34584,968,34824,2056,715,1407,112,-1191,802,192,1583,3773,45,45,860,1807,1890,2111,2271,2084,1836,1862,2012
480705,34668,1060,34889,2121,442,1374,83,-1174,795,187,1627,4005,58,45,862,1807,1890,2111,2271,2084,1836,1862,2012
481706,34744,1136,34954,2186,529,1560,59,-1137,790,219,1499,3740,46,44,864,1807,1890,2111,2271,2084,1836,1862,2012
482707,34828,1220,35019,2251,406,1438,40,-1099,787,253,1537,3824,43,46,861,1779,1859,2075,2227,2102,1841,1865,2020
483708,34912,1304,35084,2316,382,1415,18,-1084,786,235,1175,3526,43,43,864,1779,1859,2075,2227,2102,1841,1865,2020
484709,34992,1388,35149,2381,414,1393,-2,-1084,799,-417,1130,4119,53,41,865,1779,1859,2075,2227,2102,1841,1865,2020
485710,35072,1472,35214,2446,396,1369,-31,-1004,796,-209,1299,3816,52,46,864,1779,1859,2075,2227,2102,1841,1865,2020
486711,35132,1556,35279,2511,652,1346,-55,-948,811,293,1043,3653,57,50,864,1779,1859,2075,2227,2102,1841,1865,2020
487712,35216,1640,35344,2576,329,1324,-84,-925,847,0,999,3861,50,46,863,1746,1835,2053,2193,2094,1830,1847,2003
488713,35288,1732,35409,2641,470,1191,-107,-906,879,-433,1114,3720,46,49,865,1746,1835,2053,2193,2094,1830,1847,2003
489714,35352,1812,35474,2706,571,1323,-115,-903,910,-330,875,3782,46,42,865,1746,1835,2053,2193,2094,1830,1847,2003
490715,35436,1912,35539,2771,298,1031,-100,-969,968,-180,733,3691,37,43,864,1746,1835,2053,2193,2094,1830,1847,2003
491716,35504,1976,35604,2836,495,1482,-123,-988,1026,-828,447,3895,54,45,869,1746,1835,2053,2193,2094,1830,1847,2003
492717,35572,2072,35669,2901,491,1044,-211,-883,1058,-1745,509,4089,44,45,864,1746,1835,2053,2193,2094,1830,1847,2003
493718,35632,2156,35734,2966,598,1172,-320,-694,1101,-182,1096,3439,48,46,867,1726,1823,2050,2196,2072,1817,1837,1984
494719,35700,2240,35799,3031,494,1149,-389,-651,1179,621,813,3104,52,43,865,1726,1823,2050,2196,2072,1817,1837,1984
495720,35772,2300,35864,3096,436,1455,-435,-704,1196,-190,796,3507,52,43,865,1726,1823,2050,2196,2072,1817,1837,1984
496721,35852,2392,35929,3161,317,1023,-464,-701,1178,-642,919,3385,52,46,864,1726,1823,2050,2196,2072,1817,1837,1984
497722,35916,2472,35994,3226,519,1155,-500,-631,1164,123,864,2966,37,48,869,1726,1823,2050,2196,2072,1817,1837,1984
498723,35964,2572,36059,3291,739,862,-566,-546,1165,296,730,3146,45,62,867,1742,1827,2048,2208,2083,1837,1854,1991
499724,36040,2668,36124,3356,376,874,-628,-435,1195,254,1046,3324,52,49,867,1742,1827,2048,2208,2083,1837,1854,1991
500725,36120,2772,36189,3421,308,728,-666,-362,1218,604,958,2850,49,49,870,1742,1827,2048,2208,2083,1837,1854,1991
501726,36204,2860,36254,3486,235,900,-686,-357,1208,300,534,3044,43,56,871,1742,1827,2048,2208,2083,1837,1854,1991
502727,36284,2960,36319,3551,266,707,-678,-353,1190,45,643,3308,54,57,870,1742,1827,2048,2208,2083,1837,1854,1991
503728,36340,3044,36384,3616,577,884,-676,-337,1190,-54,561,3056,36,51,872,1742,1827,2048,2208,2083,1837,1854,1991
504729,36396,3132,36449,3681,588,807,-681,-294,1214,55,443,3147,45,54,869,1726,1800,2020,2176,2093,1840,1850,1984
505730,36460,3204,36514,3746,489,998,-689,-268,1248,97,581,3111,34,45,869,1726,1800,2020,2176,2093,1840,1850,1984
506731,36544,3284,36579,3811,216,880,-709,-282,1273,-46,538,3027,38,46,868,1726,1800,2020,2176,2093,1840,1850,1984
507732,36624,3384,36644,3876,248,587,-701,-285,1288,-44,556,3222,48,46,871,1726,1800,2020,2176,2093,1840,1850,1984
508733,36704,3472,36709,3941,230,709,-695,-271,1302,58,414,3080,54,59,873,1726,1800,2020,2176,2093,1840,1850,1984
509734,36768,3544,36774,4006,431,901,-698,-250,1332,171,350,3119,51,46,873,1692,1778,1992,2148,2040,1787,1812,1941
510735,36824,3620,36839,4071,542,838,-718,-234,1372,62,382,3002,45,59,870,1692,1778,1992,2148,2040,1787,1812,1941
511736,36896,3700,36904,4136,333,770,-756,-226,1407,79,487,2810,49,53,870,1692,1778,1992,2148,2040,1787,1812,1941
512737,36972,3784,36969,4201,270,697,-787,-229,1448,104,481,2934,35,60,869,1692,1778,1992,2148,2040,1787,1812,1941
513738,37016,3872,37034,4266,695,618,-829,-218,1466,220,355,3004,31,49,872,1692,1778,1992,2148,2040,1787,1812,1941
514739,37092,3960,37099,4331,282,590,-851,-187,1480,452,540,3027,35,60,870,1692,1778,1992,2148,2040,1787,1812,1941
515740,37156,4060,37164,4396,433,399,-860,-164,1511,582,517,2840,44,65,873,1725,1827,2020,2180,1975,1732,1784,1915
516741,37220,4148,37229,4461,434,521,-860,-165,1515,460,274,2728,51,48,873,1725,1827,2020,2180,1975,1732,1784,1915
517742,37284,4244,37294,4526,436,383,-877,-185,1515,425,176,2935,50,53,873,1725,1827,2020,2180,1975,1732,1784,1915
518743,37340,4324,37359,4591,547,564,-885,-190,1527,333,290,2927,49,51,874,1725,1827,2020,2180,1975,1732,1784,1915
519744,37400,4420,37424,4656,503,327,-870,-159,1531,669,33,2949,51,58,871,1725,1827,2020,2180,1975,1732,1784,1915
520745,37456,4496,37489,4721,564,563,-843,-169,1522,1066,-6,2763,33,55,873,1771,1874,2059,2217,1977,1735,1795,1930
521746,37544,4592,37554,4786,136,275,-790,-229,1507,657,119,3001,33,54,871,1771,1874,2059,2217,1977,1735,1795,1930
522747,37604,4660,37619,4851,492,622,-742,-272,1491,548,114,2929,35,59,875,1771,1874,2059,2217,1977,1735,1795,1930
523748,37676,4748,37684,4916,333,344,-703,-330,1468,699,156,2933,40,53,872,1771,1874,2059,2217,1977,1735,1795,1930
524749,37752,4848,37749,4981,270,151,-681,-372,1443,781,260,3030,43,46,874,1771,1874,2059,2217,1977,1735,1795,1930
525750,37828,4904,37814,5046,256,712,-669,-417,1434,669,199,2897,36,54,876,1794,1891,2059,2217,1977,1735,1795,1930
526751,37888,4984,37879,5111,463,394,-665,-430,1430,683,299,3178,49,46,872,1794,1891,2074,2248,1981,1748,1808,1923
527752,37952,5072,37944,5176,414,266,-658,-463,1418,706,263,2902,49,59,873,1794,1891,2074,2248,1981,1748,1808,1923
528753,38032,5152,38009,5241,195,348,-649,-487,1406,722,292,3248,52,53,874,1794,1891,2074,2248,1981,1748,1808,1923
529754,38100,5240,38074,5306,342,220,-624,-500,1412,844,282,3203,32,56,874,1794,1891,2074,2248,1981,1748,1808,1923
530755,38160,5328,38139,5371,448,192,-599,-535,1419,734,215,3265,47,45,875,1794,1891,2074,2248,1981,1748,1808,1923
531756,38236,5396,38204,5436,234,438,-582,-556,1414,656,20,3436,38,45,875,1810,1903,2078,2264,1976,1748,1811,1920
532757,38304,5480,38269,5501,331,215,-551,-567,1424,654,-37,3567,45,53,875,1810,1903,2078,2264,1976,1748,1811,1920
533758,38372,5560,38334,5566,327,247,-515,-551,1439,702,-123,3620,37,56,875,1810,1903,2078,2264,1976,1748,1811,1920
534759,38436,5640,38399,5631,378,229,-471,-549,1445,737,-48,3629,50,46,875,1810,1903,2078,2264,1976,1748,1811,1920
535760,38492,5732,38464,5696,489,46,-407,-640,1406,632,348,3099,42,56,875,1810,1903,2078,2264,1976,1748,1811,1920
536761,38580,5800,38529,5761,61,342,-356,-714,1382,254,28,3519,48,54,875,1802,1901,2080,2261,1982,1754,1811,1926
537762,38656,5880,38594,5826,198,174,-316,-673,1349,468,100,3730,53,48,876,1802,1901,2080,2261,1982,1754,1811,1926
538763,38736,5956,38659,5891,130,210,-287,-590,1316,737,32,3545,52,46,876,1802,1901,2080,2261,1982,1754,1811,1926
539764,38784,6036,38724,5956,550,142,-262,-516,1290,1016,52,3945,35,46,877,1802,1901,2080,2261,1982,1754,1811,1926
540765,38860,6112,38789,6021,187,178,-252,-496,1252,917,130,3379,53,53,874,1802,1901,2080,2261,1982,1754,1811,1926
541766,38952,6224,38854,6086,-46,-330,-245,-472,1212,648,-47,3641,38,51,876,1802,1901,2080,2261,1982,1754,1811,1926
542767,39028,6316,38919,6151,140,-113,-238,-419,1177,726,31,3668,36,50,876,1817,1917,2099,2285,1976,1753,1810,1923
543768,39096,6448,38984,6216,237,-695,-229,-357,1143,755,111,3772,51,37,876,1817,1917,2099,2285,1976,1753,1810,1923
544769,39184,6576,39049,6281,-42,-722,-214,-305,1112,692,62,3600,38,46,873,1817,1917,2099,2285,1976,1753,1810,1923
545770,39280,6636,39114,6346,-180,134,-196,-297,1089,454,127,3750,42,44,871,1817,1917,2099,2285,1976,1753,1810,1923
546771,39392,6688,39179,6411,-438,250,-189,-326,1051,260,-200,3693,33,44,867,1817,1917,2099,2285,1976,1753,1810,1923
547772,39524,6748,39244,6476,-769,156,-186,-332,1011,328,-264,3769,47,33,870,1830,1920,2114,2310,1985,1779,1819,1920
548773,39668,6820,39309,6541,-1016,-2,-178,-321,1000,621,87,3980,47,32,877,1830,1920,2114,2310,1985,1779,1819,1920
549774,39756,6880,39374,6606,-344,154,-168,-265,989,757,38,3573,37,33,878,1830,1920,2114,2310,1985,1779,1819,1920
550775,39844,6936,39439,6671,-372,215,-164,-245,941,566,207,3619,31,31,876,1830,1920,2114,2310,1985,1779,1819,1920
551776,39892,7004,39504,6736,149,61,-154,-232,881,323,426,3747,33,34,877,1830,1920,2114,2310,1985,1779,1819,1920
552777,39980,7064,39569,6801,-379,166,-144,-213,829,605,296,3701,49,40,878,1830,1920,2114,2310,1985,1779,1819,1920
553778,40040,7144,39634,6866,-24,-102,-122,-170,788,903,325,3709,52,34,873,1815,1901,2102,2293,2031,1814,1855,1964
554779,40120,7200,39699,6931,-292,209,-111,-133,759,964,237,3639,34,47,877,1815,1901,2102,2293,2031,1814,1855,1964
555780,40184,7268,39764,6996,-91,55,-100,-90,735,769,-40,3653,52,37,877,1815,1901,2102,2293,2031,1814,1855,1964
556781,40256,7332,39829,7061,-200,107,-101,-68,719,501,-146,3509,51,39,878,1815,1901,2102,2293,2031,1814,1855,1964
557782,40332,7400,39894,7126,-263,53,-100,-43,719,451,-355,3749,50,48,867,1815,1901,2102,2293,2031,1814,1855,1964
558783,40412,7472,39959,7191,-331,-6,-98,10,711,719,-176,3781,38,39,871,1786,1882,2081,2263,2042,1814,1850,1958
559784,40484,7552,40024,7256,-241,-124,-98,72,715,588,-297,3776,55,52,878,1786,1882,2081,2263,2042,1814,1850,1958
560785,40540,7624,40089,7321,-30,-32,-100,151,698,817,-238,4067,43,39,877,1786,1882,2081,2263,2042,1814,1850,1958
561786,40616,7688,40154,7386,-293,68,-110,208,661,795,-14,4057,44,51,878,1786,1882,2081,2263,2042,1814,1850,1958
562787,40684,7760,40219,7451,-197,-41,-115,253,619,466,-69,3889,40,43,874,1786,1882,2081,2263,2042,1814,1850,1958
563788,40780,7832,40284,7516,-585,-49,-134,313,583,585,-186,4260,39,56,877,1786,1882,2081,2263,2042,1814,1850,1958
564789,40856,7920,40349,7581,-348,-277,-146,332,558,558,-99,3795,44,40,871,1765,1862,2055,2228,2034,1798,1839,1962
565790,40928,7988,40414,7646,-308,-31,-162,331,529,235,-162,3907,54,55,877,1765,1862,2055,2228,2034,1798,1839,1962
566791,41000,8084,40479,7711,-316,-419,-186,311,492,-153,-277,3629,53,56,878,1765,1862,2055,2228,2034,1798,1839,1962
567792,41080,8156,40544,7776,-435,-127,-207,280,446,43,-249,3809,42,53,876,1765,1862,2055,2228,2034,1798,1839,1962
568793,41160,8232,40609,7841,-453,-191,-218,257,421,132,-267,3582,56,42,877,1765,1862,2055,2228,2034,1798,1839,1962
569794,41236,8316,40674,7906,-418,-315,-236,241,386,198,-195,3607,38,46,877,1772,1872,2070,2250,2057,1818,1861,1984
570795,41296,8376,40739,7971,-211,-9,-244,223,355,220,-253,3468,55,50,876,1772,1872,2070,2250,2057,1818,1861,1984
571796,41384,8456,40804,8036,-590,-277,-252,223,333,395,-267,3557,40,54,870,1772,1872,2070,2250,2057,1818,1861,1984
572797,41468,8520,40869,8101,-563,-76,-254,239,314,541,-309,3640,56,52,869,1772,1872,2070,2250,2057,1818,1861,1984
573798,41548,8584,40934,8166,-531,-75,-260,282,315,651,-398,3678,55,43,878,1772,1872,2070,2250,2057,1818,1861,1984
574799,41632,8668,40999,8231,-605,-348,-271,329,311,631,-311,3670,47,51,878,1772,1872,2070,2250,2057,1818,1861,1984
575800,41720,8728,41064,8296,-683,-43,-284,356,317,437,-402,3526,56,50,872,1802,1900,2072,2252,2066,1832,1876,2001
576801,41812,8804,41129,8361,-766,-256,-299,386,331,515,-474,3935,46,43,878,1802,1900,2072,2252,2066,1832,1876,2001
577802,41896,8872,41194,8426,-689,-160,-320,402,344,580,-424,3684,48,53,877,1802,1900,2072,2252,2066,1832,1876,2001
578803,41992,8940,41259,8491,-878,-164,-335,384,347,332,-252,3686,53,49,877,1802,1900,2072,2252,2066,1832,1876,2001
579804,42104,9016,41324,8556,-1136,-277,-351,334,342,-66,-436,3755,62,41,875,1802,1900,2072,2252,2066,1832,1876,2001
580805,42188,9080,41389,8621,-809,-126,-350,258,343,63,-503,3615,62,50,875,1809,1896,2088,2270,2050,1815,1838,1978
581806,42276,9164,41454,8686,-888,-400,-338,147,341,-87,-203,3631,46,41,877,1809,1896,2088,2270,2050,1815,1838,1978
582807,42372,9228,41519,8751,-1026,-149,-306,56,329,-389,-365,3595,63,52,876,1809,1896,2088,2270,2050,1815,1838,1978
583808,42460,9300,41584,8816,-954,-257,-292,10,308,4,-503,3854,48,40,875,1809,1896,2088,2270,2050,1815,1838,1978
584809,42572,9376,41649,8881,-1312,-321,-293,5,306,233,-639,4010,52,44,877,1809,1896,2088,2270,2050,1815,1838,1978
585812,42656,9444,41714,8946,-985,-224,-321,39,314,347,-531,4224,57,44,876,1809,1896,2088,2270,2050,1815,1838,1978
586811,42756,9516,41779,9011,-1228,-284,-364,99,317,240,-566,4283,60,49,877,1794,1889,2073,2219,2023,1786,1840,1964
587812,42868,9580,41844,9076,-1436,-183,-396,120,304,408,-535,4086,56,40,876,1794,1889,2073,2219,2023,1786,1840,1964
588813,42960,9656,41909,9141,-1219,-346,-431,119,294,317,-757,4191,67,47,877,1794,1889,2073,2219,2023,1786,1840,1964
589814,43060,9708,41974,9206,-1362,-30,-447,83,303,53,-722,3903,68,39,877,1794,1889,2073,2219,2023,1786,1840,1964
590815,43188,9792,42039,9271,-1790,-453,-448,56,316,-221,-755,3974,65,41,877,1794,1889,2073,2219,2023,1786,1840,1964
591816,43272,9856,42104,9336,-1263,-203,-450,57,327,-89,-784,3851,67,47,876,1802,1910,2091,2272,2051,1815,1872,2002
592817,43392,9940,42169,9401,-1781,-476,-450,14,340,43,-789,3751,55,37,876,1802,1910,2091,2272,2051,1815,1872,2002
593818,43512,9996,42234,9466,-1849,-115,-458,-20,352,-190,-890,3781,63,47,876,1802,1910,2091,2272,2051,1815,1872,2002
594819,43620,10052,42299,9531,-1752,-104,-468,-72,360,-157,-764,3858,75,42,876,1802,1910,2091,2272,2051,1815,1872,2002
595820,43736,10116,42364,9596,-1914,-203,-463,-101,365,113,-842,4002,67,50,877,1802,1910,2091,2272,2051,1815,1872,2002
596821,43840,10180,42429,9661,-1813,-203,-460,-141,369,128,-662,3656,71,42,878,1802,1910,2091,2272,2051,1815,1872,2002
597822,43944,10240,42494,9726,-1861,-147,-448,-161,365,-175,-769,3955,68,51,876,1833,1923,2113,2301,2095,1851,1901,2031
598823,44056,10320,42559,9791,-2019,-415,-417,-200,364,-168,-830,3891,76,38,877,1833,1923,2113,2301,2095,1851,1901,2031
599824,44168,10364,42624,9856,-2076,60,-393,-281,354,-221,-671,3529,76,49,876,1833,1923,2113,2301,2095,1851,1901,2031
600825,44300,10420,42689,9921,-2409,-79,-357,-427,345,-117,-542,3562,74,45,877,1833,1923,2113,2301,2095,1851,1901,2031
601826,44428,10496,42754,9986,-2437,-343,-299,-580,336,89,-705,3263,76,48,878,1833,1923,2113,2301,2095,1851,1901,2031
602827,44544,10552,42819,10051,-2349,-82,-228,-709,328,-211,-674,3228,67,49,877,1837,1926,2113,2306,2077,1829,1880,1976
603828,44676,10628,42884,10116,-2632,-345,-177,-704,340,-180,-754,4120,78,42,877,1837,1926,2113,2306,2077,1829,1880,1976
604829,44796,10700,42949,10181,-2550,-304,-186,-598,369,888,-607,4297,64,37,867,1837,1926,2113,2306,2077,1829,1880,1976
605830,44912,10768,43014,10246,-2562,-258,-244,-429,411,1120,-703,4489,78,37,876,1837,1926,2113,2306,2077,1829,1880,1976
606831,45044,10828,43079,10311,-2845,-153,-354,-280,439,788,-671,4776,72,37,876,1837,1926,2113,2306,2077,1829,1880,1976
607832,45156,10904,43144,10376,-2654,-366,-472,-180,481,499,-1032,4563,67,35,877,1837,1926,2113,2306,2077,1829,1880,1976
608833,45296,10960,43209,10441,-3096,-105,-549,-157,513,198,-798,4304,80,33,872,1851,1939,2102,2297,1960,1747,1815,1923
609834,45420,11012,43274,10506,-2968,-39,-591,-242,560,-235,-1061,3987,76,41,877,1851,1939,2102,2297,1960,1747,1815,1923
610835,45548,11064,43339,10571,-3096,-23,-607,-403,573,-553,-1043,4006,66,31,878,1851,1939,2102,2297,1960,1747,1815,1923
611836,45688,11112,43404,10636,-3339,46,-601,-559,580,-993,-1079,3905,71,40,878,1851,1939,2102,2297,1960,1747,1815,1923
612837,45804,11176,43469,10701,-3102,-152,-579,-639,554,-707,-1244,4437,82,37,876,1851,1939,2102,2297,1960,1747,1815,1923
613838,45940,11236,43534,10766,-3440,-96,-557,-664,537,-360,-1320,4225,75,45,878,1826,1900,2096,2290,2056,1830,1874,2004
614839,46076,11296,43599,10831,-3527,-90,-527,-654,505,-207,-1183,4663,84,42,876,1826,1900,2096,2290,2056,1830,1874,2004
615840,46216,11364,43664,10896,-3670,-194,-482,-688,484,-95,-1029,4102,74,42,877,1826,1900,2096,2290,2056,1830,1874,2004
616841,46332,11404,43729,10961,-3433,186,-427,-720,438,248,-998,4105,84,48,876,1826,1900,2096,2290,2056,1830,1874,2004
617842,46480,11468,43794,11026,-3800,-113,-379,-752,394,859,-971,3770,76,46,877,1826,1900,2096,2290,2056,1830,1874,2004
618843,46588,11524,43859,11091,-3489,-2,-338,-682,366,614,-973,3690,74,46,878,1826,1900,2096,2290,2056,1830,1874,2004
619844,46724,11576,43924,11156,-3800,64,-327,-517,361,865,-446,4052,79,37,878,1821,1910,2122,2315,2153,1903,1942,2069
620845,46844,11640,43989,11221,-3795,-85,-336,-339,377,975,-448,3795,68,36,877,1821,1910,2122,2315,2153,1903,1942,2069
621846,46988,11692,44054,11286,-3800,81,-357,-220,414,1026,-382,4017,74,45,878,1821,1910,2122,2315,2153,1903,1942,2069
622847,47132,11756,44119,11351,-3800,-69,-395,-170,451,604,-434,3697,82,37,878,1821,1910,2122,2315,2153,1903,1942,2069
623848,47252,11820,44184,11416,-3800,-68,-462,-164,490,361,-629,3979,82,45,878,1821,1910,2122,2315,2153,1903,1942,2069
624849,47376,11868,44249,11481,-3800,153,-544,-180,532,249,-717,3752,83,46,877,1831,1936,2127,2339,2089,1855,1893,1983
625850,47512,11948,44314,11546,-3800,-265,-626,-186,583,-63,-747,3920,78,51,878,1831,1936,2127,2339,2089,1855,1893,1983
626851,47608,12008,44379,11611,-3800,-9,-681,-168,628,119,-1023,4321,79,23,877,1831,1936,2127,2339,2089,1855,1893,1983
627852,47768,12056,44444,11676,-3800,162,-685,-172,644,125,-1002,4608,66,46,877,1831,1936,2127,2339,2089,1855,1893,1983
628853,47864,12132,44509,11741,-3800,-202,-662,-212,643,131,-1208,4878,76,45,878,1831,1936,2127,2339,2089,1855,1893,1983
629854,47976,12192,44574,11806,-3800,3,-606,-261,616,320,-1480,5367,68,51,878,1831,1936,2127,2339,2089,1855,1893,1983
630855,48092,12260,44639,11871,-3800,-100,-559,-276,614,-71,-1679,5233,76,44,877,1801,1875,2077,2277,2047,1819,1847,1956
631856,48200,12316,44704,11936,-3800,61,-486,-241,588,960,-1080,5833,71,50,876,1801,1875,2077,2277,2047,1819,1847,1956
632857,48332,12380,44769,12001,-3800,-38,-401,-188,545,1367,-1142,5336,68,41,877,1801,1875,2077,2277,2047,1819,1847,1956
633860,48460,12448,44834,12066,-3800,-92,-334,-189,514,659,-1042,5026,63,49,832,1801,1875,2077,2277,2047,1819,1847,1956
634859,48560,12512,44899,12131,-3800,-41,-285,-130,469,994,-981,5290,56,46,878,1801,1875,2077,2277,2047,1819,1847,1956
635860,48672,12580,44964,12196,-3800,-94,-252,-63,442,1208,-1025,4456,55,35,878,1805,1896,2113,2334,2067,1837,1887,1997
636861,48784,12632,45029,12261,-3800,121,-265,51,425,1573,-935,4520,71,43,878,1805,1896,2113,2334,2067,1837,1887,1997
637862,48880,12692,45094,12326,-3800,27,-291,195,399,1635,-736,4255,70,40,868,1805,1896,2113,2334,2067,1837,1887,1997
638863,48988,12752,45159,12391,-3800,33,-340,343,384,1719,-660,4453,58,44,878,1805,1896,2113,2334,2067,1837,1887,1997
639864,49120,12820,45224,12456,-3800,-71,-385,463,384,1540,-827,4236,55,40,878,1805,1896,2113,2334,2067,1837,1887,1997
640865,49236,12860,45289,12521,-3800,310,-439,497,388,949,-785,4132,55,44,878,1805,1896,2113,2334,2067,1837,1887,1997
641866,49312,12936,45354,12586,-3800,-154,-448,493,389,624,-876,4245,49,45,873,1964,2054,2247,2507,2048,1854,1921,2006
642867,49420,13000,45419,12651,-3800,-3,-441,435,391,491,-840,4274,64,42,877,1964,2054,2247,2507,2048,1854,1921,2006
643868,49496,13068,45484,12716,-3800,-57,-425,332,408,87,-1048,4120,55,38,877,1964,2054,2247,2507,2048,1854,1921,2006
644869,49600,13148,45549,12781,-3800,-225,-395,226,406,11,-1008,4318,43,48,878,1964,2054,2247,2507,2048,1854,1921,2006
645870,49688,13196,45614,12846,-3800,195,-327,107,410,278,-1218,4609,58,48,875,1964,2054,2247,2507,2048,1854,1921,2006
646871,49764,13256,45679,12911,-3800,51,-246,29,384,678,-1129,4912,55,34,877,1957,2023,2223,2462,2080,1856,1903,1995
647872,49836,13300,45744,12976,-3800,277,-149,34,360,950,-1475,5169,51,43,877,1957,2023,2223,2462,2080,1856,1903,1995
648873,49944,13368,45809,13041,-3800,-27,-70,99,333,1671,-1440,5473,40,40,877,1957,2023,2223,2462,2080,1856,1903,1995
649874,50016,13416,45874,13106,-3800,244,1,163,298,1938,-1486,5273,38,40,874,1957,2023,2223,2462,2080,1856,1903,1995
650875,50112,13484,45939,13171,-3800,-11,54,236,260,1768,-1365,5084,49,37,878,1957,2023,2223,2462,2080,1856,1903,1995
651876,50176,13516,46004,13236,-3800,480,97,310,210,1884,-1271,5300,51,49,877,1957,2023,2223,2462,2080,1856,1903,1995
652877,50236,13560,46069,13301,-3800,355,108,394,168,2081,-1341,4841,32,43,878,1871,1958,2139,2350,2026,1795,1855,1955
653878,50288,13576,46134,13366,-3800,765,119,447,124,1943,-1117,5054,35,46,874,1871,1958,2139,2350,2026,1795,1855,1955
654879,50364,13608,46199,13431,-3800,605,102,475,81,1310,-1072,4617,33,39,876,1871,1958,2139,2350,2026,1795,1855,1955
655880,50420,13664,46264,13496,-3800,316,86,460,50,846,-1155,4495,37,40,873,1871,1958,2139,2350,2026,1795,1855,1955
656881,50468,13736,46329,13561,-3800,108,76,426,28,1179,-984,4248,36,50,875,1871,1958,2139,2350,2026,1795,1855,1955
657882,50512,13800,46394,13626,-3800,209,90,359,16,607,-824,3859,26,54,876,1868,1957,2131,2357,2005,1787,1858,1953
658883,50560,13880,46459,13691,-3800,-9,100,221,-3,-143,-797,3768,35,50,878,1868,1957,2131,2357,2005,1787,1858,1953
659884,50592,13960,46524,13756,-3800,-28,136,-9,-10,373,-785,3037,25,47,877,1868,1957,2131,2357,2005,1787,1858,1953
660885,50656,14044,46589,13821,-3800,-101,229,-251,-5,290,-1036,2871,24,40,878,1868,1957,2131,2357,2005,1787,1858,1953
661886,50708,14104,46654,13886,-3800,205,328,-388,-13,-48,-1005,3005,40,42,877,1868,1957,2131,2357,2005,1787,1858,1953
662887,50752,14180,46719,13951,-3800,-9,396,-411,-17,323,-875,3020,31,44,877,1868,1957,2131,2357,2005,1787,1858,1953
663888,50816,14256,46784,14016,-3800,-22,403,-336,-22,1134,-821,3213,25,54,877,1870,1965,2142,2357,2038,1788,1868,1977
664889,50856,14324,46849,14081,-3800,74,373,-216,-29,1985,-944,3172,22,46,878,1870,1965,2142,2357,2038,1788,1868,1977
665890,50896,14416,46914,14146,-3800,-259,349,-18,-35,2133,-1035,4000,26,35,877,1870,1965,2142,2357,2038,1788,1868,1977
666891,50936,14496,46979,14211,-3800,-127,330,165,-43,1837,-969,3847,19,35,877,1870,1965,2142,2357,2038,1788,1868,1977
667892,50980,14564,47044,14276,-3800,19,327,299,-46,1525,-1043,3921,15,35,877,1870,1965,2142,2357,2038,1788,1868,1977
668893,51032,14620,47109,14341,-3800,180,339,369,-36,951,-960,3955,23,45,878,1852,1940,2092,2282,1985,1752,1814,1921
669894,51072,14684,47174,14406,-3800,81,366,346,-47,413,-783,3874,15,38,878,1852,1940,2092,2282,1985,1752,1814,1921
670895,51108,14764,47239,14471,-3800,-137,393,239,-44,-157,-915,3632,29,33,866,1852,1940,2092,2282,1985,1752,1814,1921
671896,51144,14824,47304,14536,-3800,119,427,92,-52,-241,-823,3629,14,31,878,1852,1940,2092,2282,1985,1752,1814,1921
672897,51172,14872,47369,14601,-3800,289,442,-50,-74,-367,-796,3622,24,32,878,1852,1940,2092,2282,1985,1752,1814,1921
673898,51220,14924,47434,14666,-3800,255,463,-156,-87,-414,-797,3629,25,30,878,1852,1940,2092,2282,1985,1752,1814,1921
674899,51244,14964,47499,14731,-3759,435,487,-226,-102,-109,-689,3698,14,32,870,1776,1848,2043,2248,1990,1771,1811,1910
675900,51256,15024,47564,14796,-3546,191,514,-223,-111,77,-705,3616,26,44,876,1776,1848,2043,2248,1990,1771,1811,1910
676901,51288,15080,47629,14861,-3757,252,537,-191,-109,420,-646,3538,12,44,876,1776,1848,2043,2248,1990,1771,1811,1910
677902,51308,15156,47694,14926,-3553,-11,550,-119,-107,591,-431,3326,9,30,877,1776,1848,2043,2248,1990,1771,1811,1910
678903,51336,15204,47759,14991,-3610,359,552,-25,-96,455,-407,3181,25,31,873,1776,1848,2043,2248,1990,1771,1811,1910
679904,51352,15268,47824,15056,-3401,161,545,93,-86,741,-258,3199,18,43,878,1796,1919,2078,2296,2030,1812,1858,1964
680905,51380,15328,47889,15121,-3508,217,545,186,-59,711,-354,3270,6,41,876,1796,1919,2078,2296,2030,1812,1858,1964
681906,51404,15384,47954,15186,-3409,278,553,274,-28,580,-368,3485,24,37,878,1796,1919,2078,2296,2030,1812,1858,1964
682907,51416,15460,48019,15251,-3195,14,559,345,-3,436,-295,3433,23,39,873,1796,1919,2078,2296,2030,1812,1858,1964
683909,51440,15516,48084,15316,-3297,274,560,382,15,253,-215,3460,5,40,876,1796,1919,2078,2296,2030,1812,1858,1964
684909,51440,15584,48149,15381,-2919,121,565,390,47,-33,-323,3523,21,41,878,1796,1919,2078,2296,2030,1812,1858,1964
685910,51444,15644,48214,15446,-2895,227,577,386,85,-128,-342,3615,14,29,877,1835,1906,2110,2325,2042,1817,1847,1958
686911,51460,15700,48279,15511,-2987,288,600,363,109,-309,-311,3722,8,38,877,1835,1906,2110,2325,2042,1817,1847,1958
687912,51480,15764,48344,15576,-2983,189,637,326,117,-371,-299,3673,7,39,877,1835,1906,2110,2325,2042,1817,1847,1958
688913,51480,15832,48409,15641,-2655,135,674,292,123,-368,-353,3932,1,43,877,1835,1906,2110,2325,2042,1817,1847,1958
689914,51484,15872,48474,15706,-2632,516,711,284,122,-103,-350,3850,-1,37,878,1835,1906,2110,2325,2042,1817,1847,1958
690915,51488,15928,48539,15771,-2558,327,739,296,118,-50,-280,3950,18,33,877,1823,1895,2105,2292,2022,1788,1825,1937
691916,51488,16000,48604,15836,-2430,118,764,327,101,152,-270,3905,9,36,875,1823,1895,2105,2292,2022,1788,1825,1937
692917,51504,16048,48669,15901,-2571,439,774,372,94,248,-183,4007,-1,29,876,1823,1895,2105,2292,2022,1788,1825,1937
693918,51504,16112,48734,15966,-2293,240,774,417,89,284,-128,3949,9,35,878,1823,1895,2105,2292,2022,1788,1825,1937
694919,51512,16160,48799,16031,-2324,461,771,451,73,318,-75,4038,-1,37,876,1823,1895,2105,2292,2022,1788,1825,1937
695920,51512,16228,48864,16096,-2146,207,768,479,67,292,4,3878,12,38,877,1823,1895,2105,2292,2022,1788,1825,1937
696921,51512,16296,48929,16161,-2068,204,767,507,77,276,42,4113,-3,37,876,1844,1924,2123,2321,1993,1767,1823,1940
697922,51516,16348,48994,16226,-2044,419,762,532,89,261,138,4076,2,33,877,1844,1924,2123,2321,1993,1767,1823,1940
698923,51520,16412,49059,16291,-1971,270,760,528,106,194,152,4057,14,31,877,1844,1924,2123,2321,1993,1767,1823,1940
699924,51532,16476,49258,16490,-1843,435,766,496,121,126,155,3992,-1,35,874,1844,1924,2123,2321,1993,1767,1823,1940
700925,51544,16544,49323,16555,-1780,381,785,451,130,129,282,4040,14,30,876,1844,1924,2123,2321,1993,1767,1823,1940
701926,51532,16620,49388,16620,-1387,268,804,404,135,-22,282,4037,-4,46,876,1868,1946,2120,2344,2029,1808,1861,1984
702927,51536,16680,49453,16685,-1513,474,811,354,143,-64,344,4014,-4,42,876,1868,1946,2120,2344,2029,1808,1861,1984
703928,51528,16756,49518,16750,-1275,260,817,306,155,2,361,4081,10,33,877,1868,1946,2120,2344,2029,1808,1861,1984
704929,51532,16832,49583,16815,-1351,247,822,235,161,106,436,3955,2,42,876,1868,1946,2120,2344,2029,1808,1861,1984
705930,51536,16916,49648,16880,-1277,124,817,151,160,66,466,4065,10,37,877,1868,1946,2120,2344,2029,1808,1861,1984
706931,51536,16976,49713,16945,-1149,430,805,94,158,69,451,4076,7,31,878,1868,1946,2120,2344,2029,1808,1861,1984
707932,51540,17040,49778,17010,-1125,381,800,59,156,235,483,4235,-4,39,868,1859,1944,2148,2339,2089,1853,1896,2024
708933,51544,17112,49843,17075,-1051,272,796,42,145,434,397,4212,11,48,876,1859,1944,2148,2339,2089,1853,1896,2024
709934,51548,17196,49908,17140,-977,99,784,42,139,496,283,4217,7,32,876,1859,1944,2148,2339,2089,1853,1896,2024
710935,51540,17260,49973,17205,-739,350,776,59,134,379,197,4153,7,44,877,1859,1944,2148,2339,2089,1853,1896,2024
711936,51544,17336,50038,17270,-815,187,769,44,116,366,246,3976,14,45,873,1859,1944,2148,2339,2089,1853,1896,2024
712937,51548,17412,50103,17335,-741,174,756,43,92,275,288,4130,6,41,876,1836,1930,2140,2300,2124,1874,1906,2064
713938,51552,17484,50168,17400,-667,215,740,40,67,464,450,4249,14,43,877,1836,1930,2140,2300,2124,1874,1906,2064
714939,51548,17540,50233,17465,-484,426,716,25,51,212,533,4274,-3,32,877,1836,1930,2140,2300,2124,1874,1906,2064
715940,51540,17620,50298,17530,-345,108,686,14,10,51,636,4509,13,42,872,1836,1930,2140,2300,2124,1874,1906,2064
716941,51532,17692,50363,17595,-257,199,651,-17,-28,147,688,4170,-4,31,874,1836,1930,2140,2300,2124,1874,1906,2064
717942,51552,17760,50428,17660,-552,245,620,-37,-59,146,719,4498,14,39,876,1836,1930,2140,2300,2124,1874,1906,2064
718943,51552,17820,50493,17725,-223,352,584,-52,-88,34,590,4370,4,35,877,1801,1897,2112,2267,2121,1868,2048,2045
719944,51544,17876,50558,17790,-34,413,551,-82,-107,34,649,4373,0,45,875,1801,1897,2112,2267,2121,1868,2048,2045
720945,51544,17948,50623,17855,-55,204,511,-136,-117,-175,723,4142,9,44,876,1801,1897,2112,2267,2121,1868,2048,2045
721946,51540,18016,50688,17920,78,250,466,-145,-138,-225,906,4445,15,39,876,1801,1897,2112,2267,2121,1868,2048,2045
722947,51540,18088,50753,17985,108,192,412,-138,-153,58,870,4126,9,43,877,1801,1897,2112,2267,2121,1868,2048,2045
723948,51548,18152,50818,18050,77,293,343,-153,-152,119,863,3967,8,43,876,1784,1882,2104,2272,2124,1880,1899,2045
724949,51552,18232,50883,18115,201,75,285,-153,-143,-5,841,3875,7,28,877,1784,1882,2104,2272,2124,1880,1899,2045
725950,51560,18300,50948,18180,220,221,244,-139,-141,130,741,3870,-2,45,877,1784,1882,2104,2272,2124,1880,1899,2045
726951,51552,18364,51013,18245,510,272,216,-112,-156,272,602,3856,10,43,877,1784,1882,2104,2272,2124,1880,1899,2045
727952,51552,18428,51078,18310,489,273,200,-57,-164,423,574,3942,5,43,876,1784,1882,2104,2272,2124,1880,1899,2045
728953,51552,18496,51143,18375,567,220,196,-14,-169,402,581,3917,15,42,874,1784,1882,2104,2272,2124,1880,1899,2045
729954,51564,18580,51208,18440,482,-3,192,11,-185,278,676,3933,19,45,874,1781,1873,2104,2269,2142,1898,1903,2047
730955,51568,18640,51273,18505,656,302,180,20,-209,177,790,3879,18,35,874,1781,1873,2104,2269,2142,1898,1903,2047
731956,51580,18680,51338,18570,621,582,167,30,-235,108,810,3851,17,32,875,1781,1873,2104,2269,2142,1898,1903,2047
732957,51600,18748,51403,18635,576,229,148,38,-265,166,799,3933,17,30,872,1781,1873,2104,2269,2142,1898,1903,2047
733958,51628,18828,51468,18700,521,60,138,43,-294,257,775,3820,18,46,869,1781,1873,2104,2269,2142,1898,1903,2047
734959,51680,18884,51533,18765,237,371,152,34,-317,254,525,4129,27,29,871,1773,1856,2092,2266,2102,1859,1866,1994
735960,51720,18940,51598,18830,418,382,194,79,-404,350,904,4373,29,29,875,1773,1856,2092,2266,2102,1859,1866,1994
736961,51764,19000,51663,18895,393,338,163,63,-447,353,659,3523,21,36,875,1773,1856,2092,2266,2102,1859,1866,1994
737962,51792,19060,51728,18960,638,344,79,4,-426,49,690,3095,28,34,874,1773,1856,2092,2266,2102,1859,1866,1994
738963,51848,19116,51793,19025,299,405,-8,-61,-417,-409,1053,3234,40,32,874,1773,1856,2092,2266,2102,1859,1866,1994
739964,51900,19180,51858,19090,364,307,-73,-96,-415,-471,932,3471,28,37,873,1773,1856,2092,2266,2102,1859,1866,1994
740965,51928,19216,51923,19155,709,692,-115,-89,-412,-93,926,3386,43,36,875,1799,1882,2106,2295,2031,1799,1834,1956
741966,51996,19288,51988,19220,206,233,-153,-35,-377,68,673,3609,43,44,875,1799,1882,2106,2295,2031,1799,1834,1956
742967,52032,19356,52053,19285,641,280,-172,27,-353,108,806,3697,43,32,870,1799,1882,2106,2295,2031,1799,1834,1956
743968,52108,19412,52118,19350,128,441,-178,116,-331,105,580,3846,45,36,876,1799,1882,2106,2295,2031,1799,1834,1956
744969,52172,19492,52183,19415,279,123,-170,186,-317,350,564,3822,37,38,873,1799,1882,2106,2295,2031,1799,1834,1956
745970,52228,19552,52248,19480,390,379,-140,232,-311,754,628,3846,31,31,875,1807,1896,2100,2266,2030,1795,1835,1973
746971,52300,19628,52313,19545,181,165,-92,259,-303,599,444,4041,45,41,877,1807,1896,2100,2266,2030,1795,1835,1973
747972,52356,19688,52378,19610,392,371,-61,257,-279,-123,244,3590,33,30,874,1807,1896,2100,2266,2030,1795,1835,1973
748973,52416,19760,52443,19675,348,213,-23,210,-279,-116,576,3820,30,43,877,1807,1896,2100,2266,2030,1795,1835,1973
749974,52468,19824,52508,19740,464,314,21,170,-283,-39,636,3799,40,43,874,1807,1896,2100,2266,2030,1795,1835,1973
750975,52524,19864,52573,19805,426,644,59,123,-303,-78,668,3659,41,28,874,1807,1896,2100,2266,2030,1795,1835,1973
751976,52584,19932,52638,19870,382,291,93,66,-302,-172,697,3675,47,34,873,1792,1876,2091,2267,2051,1811,1844,1970
752977,52664,19976,52703,19935,114,616,108,19,-306,45,780,3578,34,31,872,1792,1876,2091,2267,2051,1811,1844,1970
753978,52720,20036,52768,20000,425,423,118,-14,-304,108,796,3516,48,31,875,1792,1876,2091,2267,2051,1811,1844,1970
754979,52784,20100,52833,20065,326,374,97,-62,-284,94,787,3313,44,46,874,1792,1876,2091,2267,2051,1811,1844,1970
755980,52848,20176,52898,20130,328,210,78,-49,-275,-2,991,3563,37,43,874,1792,1876,2091,2267,2051,1811,1844,1970
756981,52916,20228,52963,20195,274,526,34,-10,-261,259,853,3483,35,45,875,1836,1916,2131,2331,2025,1798,1839,1955
757982,53004,20292,53028,20260,-4,377,15,28,-239,631,832,3805,51,36,876,1836,1916,2131,2331,2025,1798,1839,1955
758983,53064,20356,53093,20325,352,379,-1,54,-211,493,850,3683,48,29,874,1836,1916,2131,2331,2025,1798,1839,1955
759984,53136,20408,53158,20390,193,545,-11,79,-175,298,614,3871,47,30,876,1836,1916,2131,2331,2025,1798,1839,1955
760985,53192,20464,53223,20455,404,506,-11,106,-150,401,596,4068,47,39,875,1836,1916,2131,2331,2025,1798,1839,1955
761986,53260,20548,53288,20520,251,132,-2,135,-117,423,514,4103,39,39,874,1869,1940,2149,2342,2031,1803,1842,1955
762987,53316,20592,53353,20585,412,658,24,149,-85,244,380,4171,47,43,873,1869,1940,2149,2342,2031,1803,1842,1968
763988,53372,20660,53418,20650,423,354,50,145,-50,30,264,4166,38,35,876,1869,1940,2149,2342,2031,1803,1842,1968
764989,53436,20724,53483,20715,324,406,85,108,-17,-59,230,4082,39,45,872,1869,1940,2149,2342,2031,1803,1842,1968
765990,53496,20792,53548,20780,380,352,115,74,23,-258,147,4157,34,32,874,1869,1940,2149,2342,2031,1803,1842,1968
766991,53556,20856,53613,20845,386,402,141,58,46,-303,173,4216,46,43,874,1869,1940,2149,2342,2031,1803,1842,1968
767992,53608,20908,53678,20910,502,568,162,28,64,-323,190,4014,46,45,873,1835,1914,2138,2322,2063,1828,1858,1988
768993,53664,20976,53743,20975,463,364,179,24,74,-152,323,4235,31,46,873,1835,1914,2138,2322,2063,1828,1858,1988
769994,53740,21040,53808,21040,200,416,193,54,81,187,391,4188,48,37,872,1835,1914,2138,2322,2063,1828,1858,1988
770995,53804,21112,53873,21105,351,307,194,88,86,424,431,4206,47,35,873,1835,1914,2138,2322,2063,1828,1858,1988
771996,53864,21176,53938,21170,407,408,184,135,93,462,517,4109,30,28,875,1835,1914,2138,2322,2063,1828,1858,1988
772997,53912,21240,54003,21235,578,409,173,171,89,443,588,4104,45,43,875,1835,1917,2131,2321,2075,1834,1874,1999
773998,53956,21304,54068,21300,653,411,150,219,91,488,566,4144,26,40,873,1835,1917,2131,2321,2075,1834,1874,1999
774999,54012,21372,54133,21365,514,357,135,263,91,516,489,3960,45,37,872,1835,1917,2131,2321,2075,1834,1874,1999
776000,54072,21412,54198,21430,470,737,120,277,95,403,521,4051,44,42,872,1835,1917,2131,2321,2075,1834,1874,1999
777001,54128,21476,54263,21495,531,439,105,294,111,282,395,3972,45,28,873,1835,1917,2131,2321,2075,1834,1874,1999
778002,54184,21536,54328,21560,542,495,92,300,129,291,375,3931,33,44,871,1835,1917,2131,2321,2075,1834,1874,1999
779003,54228,21584,54393,21625,718,666,83,273,136,129,309,3837,30,30,873,1840,1917,2128,2324,2082,1847,1881,2000
780004,54296,21644,54458,21690,414,522,81,249,144,89,273,4001,49,34,872,1840,1917,2128,2324,2082,1847,1881,2000
781005,54376,21712,54523,21755,246,418,91,227,153,141,200,3930,34,35,869,1840,1917,2128,2324,2082,1847,1881,2000
782006,54436,21772,54588,21820,502,525,100,191,165,184,90,4044,48,31,873,1840,1917,2128,2324,2082,1847,1881,2000
783007,54488,21828,54653,21885,618,586,116,170,187,85,-78,4045,43,38,874,1840,1917,2128,2324,2082,1847,1881,2000
784008,54556,21888,54718,21950,414,542,124,150,213,106,-110,4112,30,32,872,1815,1896,2113,2299,2080,1844,1871,1999
785009,54628,21956,54783,22015,356,439,134,149,220,288,-112,4146,40,33,869,1815,1896,2113,2299,2080,1844,1871,1999
786010,54688,22004,54848,22080,513,709,145,127,227,301,-97,4170,32,29,871,1815,1896,2113,2299,2080,1844,1871,1999
787011,54752,22064,54913,22145,464,565,157,133,230,408,-69,4173,41,29,874,1815,1896,2113,2299,2080,1844,1871,1999
788012,54820,22128,54978,22210,410,517,154,118,240,448,-63,4105,47,44,871,1815,1896,2113,2299,2080,1844,1871,1999
789013,54872,22176,55043,22275,626,737,153,120,239,509,106,4237,32,32,872,1815,1896,2113,2299,2080,1844,1871,1999
790014,54928,22228,55108,22340,587,703,153,117,233,524,181,4063,30,32,873,1814,1902,2115,2298,2055,1814,1857,1986
791015,54984,22296,55173,22405,598,500,145,98,225,594,328,4047,27,32,870,1814,1902,2115,2298,2055,1814,1857,1986
792016,55044,22372,55238,22470,554,386,126,80,217,546,385,4060,47,35,870,1814,1902,2115,2298,2055,1814,1857,1986
793017,55096,22440,55303,22535,670,482,106,55,201,399,390,4089,38,36,871,1814,1902,2115,2298,2055,1814,1857,1986
794018,55160,22524,55368,22600,521,259,91,37,187,431,459,4004,28,31,872,1814,1902,2115,2298,2055,1814,1857,1986
795019,55216,22568,55433,22665,632,785,72,-2,165,326,486,3948,40,31,871,1839,1934,2131,2322,2054,1812,1866,1997
796020,55268,22640,55498,22730,698,426,62,-21,141,283,421,3814,39,39,874,1839,1934,2131,2322,2054,1812,1866,1997
797021,55324,22696,55563,22795,659,637,48,-39,132,327,441,3820,37,40,869,1839,1934,2131,2322,2054,1812,1866,1997
798022,55380,22752,55628,22860,670,648,45,-25,125,474,312,3903,36,39,871,1839,1934,2131,2322,2054,1812,1866,1997
799023,55448,22820,55693,22925,517,495,61,-12,109,570,244,3971,46,42,870,1839,1934,2131,2322,2054,1812,1866,1997
800024,55496,22880,55758,22990,788,601,93,-9,107,491,185,3886,31,30,869,1839,1934,2131,2322,2054,1812,1866,1997
801025,55552,22956,55823,23055,699,387,132,-19,112,302,64,3983,29,39,872,1846,1939,2137,2320,2069,1829,1874,2004
802026,55608,23028,55888,23120,710,429,175,-30,109,322,51,4000,36,46,867,1846,1939,2137,2320,2069,1829,1874,2004
803027,55664,23084,55953,23185,721,640,220,-38,115,420,113,3945,44,29,870,1846,1939,2137,2320,2069,1829,1874,2004
804028,55724,23132,56018,23250,677,761,257,-56,133,272,106,4120,44,35,871,1846,1939,2137,2320,2069,1829,1874,2004
805029,55768,23192,56083,23315,903,617,288,-70,146,272,222,4112,44,41,870,1846,1939,2137,2320,2069,1829,1874,2004
806030,55832,23244,56148,23380,654,733,315,-96,156,394,315,4097,48,39,868,1834,1921,2134,2329,2048,1818,1851,1959
807031,55888,23320,56213,23445,765,419,334,-101,168,358,347,4136,34,45,868,1834,1921,2134,2329,2048,1818,1851,1959
808032,55932,23380,56278,23510,941,625,339,-108,160,472,431,4071,40,35,869,1834,1921,2134,2329,2048,1818,1851,1959
809033,55984,23444,56343,23575,858,576,336,-105,152,591,407,4236,41,32,871,1834,1921,2134,2329,2048,1818,1851,1959
810034,56056,23504,56408,23640,599,633,333,-122,157,512,516,4161,38,43,867,1834,1921,2134,2329,2048,1818,1851,1959
811035,56112,23564,56473,23705,810,640,318,-134,157,504,619,4147,35,31,869,1834,1921,2134,2329,2048,1818,1851,1959
812036,56164,23612,56538,23770,876,810,305,-113,146,547,599,4181,31,35,870,1852,1926,2140,2355,2004,1790,1829,1935
813037,56232,23668,56603,23835,672,721,293,-71,133,645,535,4182,33,45,869,1852,1926,2140,2355,2004,1790,1829,1935
814038,56288,23728,56668,23900,833,677,287,-6,126,740,492,4151,50,32,867,1852,1926,2140,2355,2004,1790,1829,1935
815039,56344,23796,56733,23965,844,574,286,62,114,844,387,4203,32,47,869,1852,1926,2140,2355,2004,1790,1829,1935
816040,56384,23848,56798,24030,1076,790,300,123,103,497,310,3990,45,45,868,1852,1926,2140,2355,2004,1790,1829,1935
817041,56444,23920,56863,24095,832,531,303,162,95,368,241,3958,47,37,869,1863,1932,2147,2351,2033,1813,1851,1972
818042,56508,23972,56928,24160,783,797,316,171,81,261,222,3848,33,37,865,1863,1932,2147,2351,2033,1813,1851,1972
819043,56568,24020,56993,24225,839,868,341,169,71,-50,170,3896,29,47,868,1863,1932,2147,2351,2033,1813,1851,1972
820044,56616,24104,57058,24290,1010,395,369,198,67,-270,148,4019,30,44,866,1863,1932,2147,2351,2033,1813,1851,1972
821045,56660,24156,57123,24355,1086,810,412,222,71,53,128,3800,37,46,866,1863,1932,2147,2351,2033,1813,1851,1972
822046,56712,24244,57188,24420,1002,332,486,165,114,-5,233,4008,47,46,869,1863,1932,2147,2351,2033,1813,1851,1972
823047,56784,24304,57253,24485,744,688,560,82,180,-722,233,4127,43,41,865,1836,1915,2135,2330,2076,1841,1871,1992
824048,56844,24376,57318,24550,900,530,628,62,228,-762,363,4201,46,46,869,1836,1915,2135,2330,2076,1841,1871,1992
825049,56900,24428,57383,24615,961,796,665,112,249,-48,466,4031,44,42,869,1836,1915,2135,2330,2076,1841,1871,1992
826050,56944,24492,57448,24680,1137,647,682,162,258,575,513,4078,47,39,869,1836,1915,2135,2330,2076,1841,1871,1992
827051,57008,24552,57513,24745,888,704,669,204,278,512,609,3776,49,35,866,1836,1915,2135,2330,2076,1841,1871,1992
828052,57076,24632,57578,24810,835,436,649,237,291,262,748,3884,34,33,865,1841,1928,2136,2338,2034,1801,1848,1957
829053,57132,24692,57643,24875,996,692,621,281,300,454,672,3884,34,42,867,1841,1928,2136,2338,2034,1801,1848,1957
830054,57192,24740,57708,24940,952,863,594,311,303,682,768,3896,36,32,870,1841,1928,2136,2338,2034,1801,1848,1957
831055,57244,24792,57773,25005,1068,829,578,327,306,407,775,3887,50,35,866,1841,1928,2136,2338,2034,1801,1848,1957
832056,57300,24852,57838,25070,1029,735,555,347,290,348,634,3974,36,41,865,1841,1928,2136,2338,2034,1801,1848,1957
833057,57400,24924,57903,25135,438,576,546,353,283,422,483,3885,34,52,864,1841,1928,2136,2338,2034,1801,1848,1957
834058,57432,24964,57968,25200,1328,1007,546,316,283,377,412,3792,52,45,866,1868,1935,2136,2333,2008,1785,1827,1945
835059,57476,25044,58033,25265,1203,488,565,255,285,43,217,3794,27,45,872,1868,1935,2136,2333,2008,1785,1827,1945
836060,57560,25120,58098,25330,680,525,572,181,294,-205,96,3876,34,44,859,1868,1935,2136,2333,2008,1785,1827,1945
837061,57600,25164,58163,25395,1261,950,601,137,298,-129,177,4023,53,46,864,1868,1935,2136,2333,2008,1785,1827,1945
838062,57660,25224,58228,25460,1018,757,631,102,312,-232,127,4028,28,37,870,1868,1935,2136,2333,2008,1785,1827,1945
839063,57724,25284,58293,25525,969,763,654,88,329,16,96,3822,50,49,862,1824,1899,2114,2291,2039,1809,1842,1979
840064,57780,25368,58358,25590,1080,440,664,70,352,298,83,3725,50,49,866,1824,1899,2114,2291,2039,1809,1842,1979
841065,57836,25428,58423,25655,1091,747,683,45,390,35,75,3938,52,50,866,1824,1899,2114,2291,2039,1809,1842,1979
842066,57900,25488,58488,25720,992,753,697,26,433,-158,234,3738,52,47,867,1824,1899,2114,2291,2039,1809,1842,1979
843067,57944,25544,58553,25785,1269,814,708,20,474,-157,388,3938,36,48,865,1824,1899,2114,2291,2039,1809,1842,1979
844068,58032,25628,58618,25850,691,440,712,6,508,-37,491,3819,33,45,866,1824,1899,2114,2291,2039,1809,1842,1979
845069,58080,25692,58683,25915,1212,692,701,15,528,191,583,3808,42,46,862,1814,1908,2121,2296,2072,1831,1877,2012
846070,58136,25756,58748,25980,1123,693,683,32,558,229,562,3741,30,35,871,1814,1908,2121,2296,2072,1831,1877,2012
847071,58196,25820,58813,26045,1080,694,663,21,581,126,731,3697,35,43,864,1814,1908,2121,2296,2072,1831,1877,2012
848072,58240,25868,58878,26110,1305,915,636,15,597,66,756,3754,40,39,865,1814,1908,2121,2296,2072,1831,1877,2012
849073,58296,25932,58943,26175,1166,716,622,14,595,241,807,3817,43,37,865,1814,1908,2121,2296,2072,1831,1877,2012
850074,58352,26032,59008,26240,1177,223,608,-4,587,240,913,3914,37,52,861,1834,1927,2127,2307,2079,1835,1883,2012
851075,58400,26088,59073,26305,1299,785,600,-10,574,152,791,3899,54,50,864,1834,1927,2127,2307,2079,1835,1883,2012
852076,58452,26160,59138,26370,1265,577,594,-23,566,107,611,3891,37,42,867,1834,1927,2127,2307,2079,1835,1883,2012
853077,58516,26228,59203,26435,1116,623,600,-37,556,255,706,4114,48,54,861,1834,1927,2127,2307,2079,1835,1883,2012
854078,58588,26280,59268,26500,1008,839,596,-52,551,144,465,4067,39,52,862,1834,1927,2127,2307,2079,1835,1883,2012
855079,58652,26364,59333,26565,1110,416,614,-49,547,55,413,4169,55,45,865,1834,1927,2127,2307,2079,1835,1883,2012
856080,58704,26428,59398,26630,1276,667,627,-63,530,208,466,4418,53,54,865,1823,1905,2119,2298,2077,1837,1864,1993
857081,58764,26500,59463,26695,1182,559,639,-52,544,-22,40,4217,39,39,867,1823,1905,2119,2298,2077,1837,1864,1993
858082,58832,26592,59528,26760,1078,276,645,-59,555,103,248,4423,36,54,864,1823,1905,2119,2298,2077,1837,1864,1993
859085,58872,26656,59593,26825,1460,627,654,-52,561,99,247,4230,41,44,865,1823,1905,2119,2298,2077,1837,1864,1993
860084,58952,26716,59658,26890,941,683,642,-73,587,-123,192,4175,40,40,868,1823,1905,2119,2298,2077,1837,1864,1993
861085,58992,26788,59723,26955,1472,524,633,-64,604,-83,404,4287,40,45,862,1813,1898,2130,2316,2062,1836,1860,1982
862086,59048,26840,59788,27020,1283,790,611,-63,631,42,334,4151,47,40,867,1813,1898,2130,2316,2062,1836,1860,1982
863087,59104,26920,59853,27085,1295,422,592,-61,668,38,415,4191,37,53,862,1813,1898,2130,2316,2062,1836,1860,1982
864088,59152,27000,59918,27150,1416,404,559,-44,689,-49,601,3964,51,41,863,1813,1898,2130,2316,2062,1836,1860,1982
865089,59212,27056,59983,27215,1272,715,534,-57,693,18,692,4095,47,48,865,1813,1898,2130,2316,2062,1836,1860,1982
866090,59256,27128,60048,27280,1498,507,498,-55,699,-28,727,3826,42,51,864,1813,1898,2130,2316,2062,1836,1860,1982
867091,59320,27204,60113,27345,1250,444,472,-50,698,146,838,3935,46,50,863,1848,1933,2159,2357,2070,1847,1883,2007
868092,59372,27260,60178,27410,1415,705,440,-36,698,224,783,3887,53,53,862,1848,1933,2159,2357,2070,1847,1883,2007
869093,59428,27344,60243,27475,1376,331,417,-20,686,266,835,3904,36,39,865,1848,1933,2159,2357,2070,1847,1883,2007
870094,59480,27404,60308,27540,1443,638,407,2,687,262,788,4049,42,42,861,1848,1933,2159,2357,2070,1847,1883,2007
871095,59536,27452,60373,27605,1404,808,422,8,667,255,909,3984,46,35,863,1848,1933,2159,2357,2070,1847,1883,2007
872096,59596,27508,60438,27670,1360,719,439,21,639,196,781,4187,50,47,861,1848,1931,2147,2332,2104,1864,1894,2028
873097,59652,27556,60503,27735,1422,840,465,52,597,318,850,4264,49,45,861,1848,1931,2147,2332,2104,1864,1894,2028
874098,59716,27636,60568,27800,1324,422,485,64,584,263,651,4124,53,34,862,1848,1931,2147,2332,2104,1864,1894,2028
875099,59792,27704,60633,27865,1160,568,511,70,568,124,689,4282,48,38,860,1848,1931,2147,2332,2104,1864,1894,2028
876100,59840,27756,60698,27930,1532,784,528,85,545,60,615,4184,52,36,864,1848,1931,2147,2332,2104,1864,1894,2028
877101,59900,27812,60763,27995,1388,745,553,80,541,369,562,4329,32,35,865,1848,1931,2147,2332,2104,1864,1894,2028
878102,59952,27872,60828,28060,1504,701,568,81,547,112,635,4405,50,44,860,1806,1895,2116,2288,2083,1841,1866,1993
879103,60008,27924,60893,28125,1466,817,571,74,533,-81,647,4162,46,52,862,1806,1895,2116,2288,2083,1841,1866,1993
880104,60072,28004,60958,28190,1367,449,556,60,535,-71,603,3990,43,51,860,1806,1895,2116,2288,2083,1841,1866,1993
881105,60112,28060,61023,28255,1698,760,530,34,550,74,743,3876,44,51,860,1806,1895,2116,2288,2083,1841,1866,1993
882106,60176,28120,61088,28320,1400,716,497,22,560,54,757,3880,33,54,864,1806,1895,2116,2288,2083,1841,1866,1993
883107,60228,28188,61153,28385,1566,613,460,28,559,209,836,3898,38,52,858,1812,1905,2125,2313,2031,1808,1840,1962
884108,60296,28252,61218,28450,1362,664,433,38,567,319,872,3902,36,50,862,1812,1905,2125,2313,2031,1808,1840,1962
885109,60336,28304,61283,28515,1744,830,400,54,570,278,796,3896,49,41,860,1812,1905,2125,2313,2031,1808,1840,1962
886110,60400,28384,61348,28580,1445,462,375,41,568,248,724,3642,47,54,862,1812,1905,2125,2313,2031,1808,1840,1962
887111,60472,28480,61413,28645,1336,224,349,40,567,195,779,3626,52,47,855,1812,1905,2125,2313,2031,1808,1840,1962
888112,60512,28544,61478,28710,1768,625,320,40,552,293,684,3639,52,42,861,1812,1905,2125,2313,2031,1808,1840,1962
889113,60560,28600,61543,28775,1688,736,310,39,547,464,555,3797,49,43,865,1841,1928,2148,2336,2045,1827,1855,1985
890114,60628,28676,61608,28840,1436,473,318,11,536,367,824,3745,39,54,858,1841,1928,2148,2336,2045,1827,1855,1985
891115,60672,28752,61673,28905,1761,459,333,-1,509,168,779,3724,45,56,858,1841,1928,2148,2336,2045,1827,1855,1985
892116,60748,28832,61738,28970,1348,391,348,-20,482,323,825,3801,52,43,863,1841,1928,2148,2336,2045,1827,1855,1985
893117,60808,28900,61803,29035,1555,537,371,-11,455,440,982,3939,37,54,859,1841,1928,2148,2336,2045,1827,1855,1985
894118,60848,28964,61868,29100,1836,589,392,-11,421,495,960,3983,43,54,864,1823,1906,2131,2306,2082,1848,1874,2005
895119,60908,29036,61933,29165,1592,480,410,-2,402,435,946,4000,39,51,861,1823,1906,2131,2306,2082,1848,1874,2005
896120,60972,29100,61998,29230,1544,581,429,11,375,428,1053,4074,50,51,857,1823,1906,2131,2306,2082,1848,1874,2005
897121,61044,29164,62063,29295,1435,582,439,26,345,503,1077,4021,37,44,861,1823,1906,2131,2306,2082,1848,1874,2005
898122,61108,29240,62128,29360,1538,419,437,47,334,401,1049,3928,44,52,861,1823,1906,2131,2306,2082,1848,1874,2005
899123,61148,29284,62193,29425,1868,845,427,67,331,258,906,3826,43,38,862,1823,1906,2131,2306,2082,1848,1874,2005
900124,61200,29340,62258,29490,1734,707,406,66,336,205,965,3717,42,41,862,1803,1895,2115,2298,2064,1830,1860,1982
901125,61264,29396,62323,29555,1586,718,384,65,336,120,1069,3717,37,56,854,1803,1895,2115,2298,2064,1830,1860,1982
902126,61324,29456,62388,29620,1642,674,359,79,328,123,1064,3882,54,52,857,1803,1895,2115,2298,2064,1830,1860,1982
903127,61392,29536,62453,29685,1540,405,347,90,327,297,980,3834,51,55,859,1803,1895,2115,2298,2064,1830,1860,1982
904128,61452,29608,62518,29750,1646,497,330,98,342,279,930,4003,36,49,857,1803,1895,2115,2298,2064,1830,1860,1982
905129,61508,29672,62583,29815,1707,598,317,131,344,363,860,3954,42,46,860,1815,1907,2128,2313,2045,1821,1849,1972
906130,61564,29740,62648,29880,1719,544,303,139,341,401,927,4045,40,54,859,1815,1907,2128,2313,2045,1821,1849,1972
907131,61608,29812,62713,29945,1894,486,300,153,334,349,962,3901,51,43,858,1815,1907,2128,2313,2045,1821,1849,1972
908132,61676,29868,62778,30010,1592,697,293,148,333,259,802,3956,45,57,859,1815,1907,2128,2313,2045,1821,1849,1972
909133,61724,29952,62843,30075,1862,324,295,140,314,399,877,3849,44,44,857,1815,1907,2128,2313,2045,1821,1849,1972
910134,61796,30024,62908,30140,1554,465,295,123,290,345,806,3917,41,53,859,1815,1907,2128,2313,2045,1821,1849,1972
911135,61848,30080,62973,30205,1821,676,289,160,268,551,765,3956,46,44,858,1822,1908,2144,2330,2060,1840,1858,1987
912136,61888,30136,63038,30270,2001,687,283,154,258,755,900,3788,30,51,861,1822,1908,2144,2330,2060,1840,1858,1987
913137,61948,30224,63103,30335,1758,259,275,166,248,625,893,3913,30,57,856,1822,1908,2144,2330,2060,1840,1858,1987
914138,62000,30292,63168,30400,1874,505,258,176,214,630,1005,3874,31,55,853,1822,1908,2144,2330,2060,1840,1858,1987
915139,62044,30364,63233,30465,2001,447,256,201,182,749,1172,3805,36,46,860,1822,1908,2144,2330,2060,1840,1858,1987
916140,62084,30436,63298,30530,2081,438,244,250,164,764,1138,4118,46,43,857,1832,1915,2151,2336,2079,1851,1873,2000
917141,62148,30484,63363,30595,1784,759,234,294,145,722,1186,3878,38,43,856,1832,1915,2151,2336,2079,1851,1873,2000
918142,62180,30536,63428,30660,2224,725,218,309,133,604,1162,3965,50,44,853,1832,1915,2151,2336,2079,1851,1873,2000
919143,62240,30604,63493,30725,1880,521,197,295,139,282,1045,3685,42,49,856,1832,1915,2151,2336,2079,1851,1873,2000
920144,62328,30676,63558,30790,1503,463,182,280,119,205,1205,3766,37,61,851,1832,1915,2151,2336,2079,1851,1873,2000
921145,62376,30744,63623,30855,2024,509,158,294,118,220,1030,3933,53,48,856,1832,1915,2151,2336,2079,1851,1873,2000
922146,62444,30812,63688,30920,1771,506,154,320,111,468,1127,3999,43,54,861,1819,1904,2132,2312,2077,1846,1869,1996
923147,62500,30884,63753,30985,1932,448,153,338,119,430,1118,4092,43,53,855,1819,1904,2132,2312,2077,1846,1869,1996
924148,62580,30944,63818,31050,1615,604,162,363,107,493,1141,4284,43,45,858,1819,1904,2132,2312,2077,1846,1869,1996
925149,62632,31012,63883,31115,1981,500,159,393,95,375,1183,4366,41,41,857,1819,1904,2132,2312,2077,1846,1869,1996
926150,62704,31080,63948,31180,1723,497,175,413,90,457,1121,4297,41,49,860,1819,1904,2132,2312,2077,1846,1869,1996
927151,62772,31128,64013,31245,1769,767,174,435,99,330,1000,4190,41,42,856,1793,1887,2113,2291,2077,1843,1866,1997
928152,62840,31216,64078,31310,1767,239,177,458,73,444,1219,4242,58,59,859,1793,1887,2113,2291,2077,1843,1866,1997
929153,62904,31256,64143,31375,1818,870,169,465,59,434,1092,4188,55,47,856,1793,1887,2113,2291,2077,1843,1866,1997
930154,62976,31344,64208,31440,1710,242,163,482,38,557,1194,4139,37,56,860,1793,1887,2113,2291,2077,1843,1866,1997
931155,63040,31404,64273,31505,1812,598,146,479,14,548,1264,4087,49,45,855,1793,1887,2113,2291,2077,1843,1866,1997
932156,63084,31480,64338,31570,2088,384,128,486,-2,333,1031,3918,37,42,861,1793,1887,2113,2291,2077,1843,1866,1997
933157,63156,31544,64403,31635,1730,536,90,493,-24,555,1207,3822,52,46,857,1815,1909,2148,2334,2073,1848,1868,1996
934158,63208,31612,64468,31700,1997,482,78,499,-56,662,1350,3821,35,57,854,1815,1909,2148,2334,2073,1848,1868,1996
935159,63260,31664,64533,31765,2012,698,44,511,-80,662,1377,3838,35,50,859,1815,1909,2148,2334,2073,1848,1868,1996
936160,63320,31724,64598,31830,1919,604,30,530,-112,549,1355,3778,34,45,855,1815,1909,2148,2334,2073,1848,1868,1996
937161,63392,31800,64663,31895,1761,390,15,518,-127,409,1348,3751,44,44,854,1815,1909,2148,2334,2073,1848,1868,1996
938162,63440,31856,64728,31960,2082,651,-9,510,-146,516,1289,3760,53,53,854,1853,1937,2175,2363,2078,1854,1872,2001
939163,63500,31912,64793,32025,1939,662,-38,504,-156,561,1218,3661,41,56,858,1853,1937,2175,2363,2078,1854,1872,2001
940164,63556,31968,64858,32090,2000,673,-52,490,-167,365,1320,3908,42,46,853,1853,1937,2175,2363,2078,1854,1872,2001
941165,63636,32056,64923,32155,1683,245,-76,492,-201,-9,1452,3580,44,58,855,1853,1937,2175,2363,2078,1854,1872,2001
942166,63684,32104,64988,32220,2103,766,-117,465,-208,921,1105,3663,40,41,855,1853,1937,2175,2363,2078,1854,1872,2001
943167,63764,32172,65053,32285,1686,512,-136,434,-182,905,1287,3792,51,42,861,1853,1937,2175,2363,2078,1854,1872,2001
944168,63832,32228,65118,32350,1832,673,-138,399,-192,-146,1433,3966,57,52,852,1830,1913,2147,2315,2077,1848,1865,2006
945169,63896,32300,65183,32415,1885,465,-141,456,-223,89,1277,4347,42,56,860,1830,1913,2147,2315,2077,1848,1865,2006
946170,63964,32356,65248,32480,1831,676,-134,466,-239,846,1376,4076,47,44,857,1830,1913,2147,2315,2077,1848,1865,2006
947171,64036,32432,65313,32545,1773,412,-120,476,-256,586,1296,4064,58,58,857,1830,1913,2147,2315,2077,1848,1865,2006
948172,64128,32488,65378,32610,1490,674,-122,481,-282,176,1433,4130,41,43,857,1830,1913,2147,2315,2077,1848,1865,2006
949173,64196,32544,65443,32675,1788,685,-124,480,-313,221,1371,4042,46,41,860,1773,1868,2096,2252,2080,1840,1862,2007
950174,64248,32612,65642,32874,2167,695,-124,489,-323,387,1328,4150,41,54,861,1773,1868,2096,2252,2080,1840,1862,2007
951175,64312,32664,65707,32939,2019,911,-131,509,-342,563,1551,4066,42,50,852,1773,1868,2096,2252,2080,1840,1862,2007
952176,64380,32732,65772,33004,1966,708,-146,500,-362,337,1587,3846,37,51,851,1773,1868,2096,2252,2080,1840,1862,2007
953177,64464,32808,65837,33069,1744,594,-173,500,-386,221,1569,3829,41,50,855,1773,1868,2096,2252,2080,1840,1862,2007
954178,64512,32888,65902,33134,2214,526,-203,512,-405,414,1549,3778,41,63,856,1773,1868,2096,2252,2080,1840,1862,2007
955179,64588,32960,65967,33199,1852,617,-242,523,-435,557,1598,3625,56,65,850,1783,1883,2115,2287,2083,1846,1870,2008
956180,64652,33028,66032,33264,2003,664,-280,515,-453,301,1509,3671,47,54,857,1783,1883,2115,2287,2083,1846,1870,2008
957181,64724,33108,66097,33329,1896,495,-310,533,-483,430,1692,3775,52,63,854,1783,1883,2115,2287,2083,1846,1870,2008
958182,64804,33176,66162,33394,1777,642,-351,502,-488,336,1404,3623,48,56,857,1783,1883,2115,2287,2083,1846,1870,2008
959183,64900,33272,66227,33459,1540,254,-369,520,-498,397,1506,3895,52,58,857,1783,1883,2115,2287,2083,1846,1870,2008
960184,64976,33356,66292,33524,1777,381,-390,515,-503,409,1468,3916,53,48,863,1821,1910,2153,2331,2087,1861,1873,2008
961185,65040,33424,66357,33589,1929,578,-401,529,-497,328,1317,3869,53,57,860,1821,1910,2153,2331,2087,1861,1873,2008
962186,65112,33492,66422,33654,1821,574,-404,531,-510,384,1488,3966,55,52,856,1821,1910,2153,2331,2087,1861,1873,2008
963187,65196,33568,66487,33719,1648,461,-416,539,-518,264,1374,3929,52,53,858,1821,1910,2153,2331,2087,1861,1873,2008
964188,65252,33648,66552,33784,2009,393,-429,552,-526,466,1330,3963,56,50,861,1821,1910,2153,2331,2087,1861,1873,2008
965189,65348,33720,66617,33849,1473,484,-430,575,-543,590,1392,3978,51,61,856,1821,1910,2153,2331,2087,1861,1873,2008
966190,65420,33808,66682,33914,1764,256,-450,582,-561,435,1424,3881,49,61,862,1822,1904,2155,2327,2083,1858,1863,2002
967191,65488,33868,66747,33979,1811,612,-456,612,-571,418,1425,3897,52,50,860,1822,1904,2155,2327,2083,1858,1863,2002
968192,65568,33940,66812,34044,1643,453,-475,635,-583,424,1478,3980,43,50,857,1822,1904,2155,2327,2083,1858,1863,2002
969193,65644,34016,66877,34109,1681,390,-483,657,-614,653,1830,4101,59,54,860,1822,1904,2155,2327,2083,1858,1863,2002
970194,65716,34100,66942,34174,1722,267,-495,669,-617,279,1591,3836,49,63,861,1822,1904,2155,2327,2083,1858,1863,2002
971195,65776,34164,67007,34239,1879,518,-514,699,-614,203,1755,4097,58,50,860,1810,1894,2136,2308,2072,1841,1856,1987
972196,65840,34252,67072,34304,1830,190,-541,727,-626,327,1715,3931,46,62,856,1810,1894,2136,2308,2072,1841,1856,1987
973197,65916,34336,67137,34369,1668,217,-562,722,-642,319,1810,3895,52,51,859,1810,1894,2136,2308,2072,1841,1856,1987
974198,65984,34396,67202,34434,1764,523,-572,702,-663,249,1968,3817,44,55,862,1810,1894,2136,2308,2072,1841,1856,1987
975199,66048,34468,67267,34499,1817,364,-593,682,-667,-125,1691,3654,58,62,858,1810,1894,2136,2308,2072,1841,1856,1987
976200,66124,34528,67332,34564,1653,520,-614,717,-669,234,1664,3997,46,59,859,1810,1894,2136,2308,2072,1841,1856,1987
977201,66196,34612,67397,34629,1696,197,-625,764,-677,686,1643,3647,55,61,860,1799,1886,2122,2296,2070,1836,1857,1996
978202,66268,34696,67462,34694,1687,174,-635,758,-689,386,1694,3624,50,57,861,1799,1886,2122,2296,2070,1836,1857,1996
979203,66328,34752,67527,34759,1844,535,-640,721,-722,66,1691,3544,49,59,862,1799,1886,2122,2296,2070,1836,1857,1996
980204,66404,34832,67592,34824,1631,217,-647,715,-729,-58,1373,3476,48,48,857,1799,1886,2122,2296,2070,1836,1857,1996
981205,66460,34912,67657,34889,1892,198,-661,734,-738,679,1511,3658,49,58,862,1799,1886,2122,2296,2070,1836,1857,1996
982206,66548,34976,67722,34954,1465,400,-666,774,-744,729,1420,3554,53,49,859,1793,1883,2120,2283,2070,1831,1850,1994
983207,66624,35068,67787,35019,1601,17,-672,767,-742,249,1496,3308,45,61,864,1793,1883,2120,2283,2070,1831,1850,1994
984208,66696,35124,67852,35084,1644,478,-664,742,-768,150,1686,3345,45,46,864,1793,1883,2120,2283,2070,1831,1850,1994
985209,66772,35192,67917,35149,1580,324,-665,704,-770,64,1454,3220,63,52,861,1793,1883,2120,2283,2070,1831,1850,1994
986210,66852,35264,67982,35214,1513,265,-680,712,-760,363,1321,3514,53,61,862,1793,1883,2120,2283,2070,1831,1850,1994
987211,66932,35328,68047,35279,1495,367,-697,717,-757,480,1405,3432,54,60,864,1792,1881,2117,2277,2049,1814,1833,1970
988212,67020,35404,68112,35344,1367,203,-691,680,-792,460,1786,3211,66,47,862,1792,1881,2117,2277,2049,1814,1833,1970
989213,67104,35476,68177,35409,1394,245,-706,615,-794,-182,1420,3143,65,59,864,1792,1881,2117,2277,2049,1814,1833,1970
990214,67196,35532,68242,35474,1261,456,-740,613,-799,142,1477,3526,57,44,864,1792,1881,2117,2277,2049,1814,1833,1970
991215,67272,35608,68307,35539,1449,192,-771,615,-806,675,1390,3063,50,49,865,1792,1881,2117,2277,2049,1814,1833,1970
992216,67364,35684,68372,35604,1216,179,-790,576,-821,240,1730,3043,48,59,865,1792,1881,2117,2277,2049,1814,1833,1970
993217,67444,35740,68437,35669,1348,440,-807,537,-838,-237,1579,3119,51,58,867,1789,1876,2103,2271,2023,1794,1824,1955
994218,67508,35824,68502,35734,1550,67,-830,524,-856,-51,1568,3146,54,54,864,1789,1876,2103,2271,2023,1794,1824,1955
995219,67600,35896,68567,35799,1167,208,-862,531,-847,439,1482,3101,59,48,864,1789,1876,2103,2271,2023,1794,1824,1955
996220,67688,35952,68632,35864,1190,419,-878,502,-853,437,1626,3025,47,60,868,1789,1876,2103,2271,2023,1794,1824,1955
997221,67764,36012,68697,35929,1326,375,-889,454,-878,-94,1665,2968,55,46,866,1789,1876,2103,2271,2023,1794,1824,1955
998222,67856,36088,68762,35994,1093,162,-891,426,-903,-285,1539,3130,48,52,865,1775,1862,2082,2244,2028,1795,1826,1966
999223,67948,36168,68827,36059,1061,93,-896,440,-905,182,1252,3337,59,50,868,1775,1862,2082,2244,2028,1795,1826,1966
1000224,68020,36248,68892,36124,1303,75,-887,440,-908,474,1366,3042,63,44,869,1775,1862,2082,2244,2028,1795,1826,1966
1001225,68104,36304,68957,36189,1130,385,-874,406,-924,25,1419,3058,58,58,867,1775,1862,2082,2244,2028,1795,1826,1966
1002226,68192,36384,69022,36254,1053,67,-867,389,-939,-455,1243,3193,59,55,867,1775,1862,2082,2244,2028,1795,1826,1966
1003227,68284,36440,69087,36319,970,378,-865,391,-939,170,1071,3096,63,43,869,1775,1862,2082,2244,2028,1795,1826,1966
1004228,68364,36516,69152,36384,1101,114,-858,378,-942,344,1279,3021,53,46,869,1753,1847,2071,2230,2038,1798,1826,1968
1005229,68456,36600,69217,36449,919,-9,-870,343,-960,-126,1214,2794,61,46,867,1753,1847,2071,2230,2038,1798,1826,1968
1006230,68552,36684,69282,36514,832,-32,-878,317,-974,-211,1157,3004,57,45,869,1753,1847,2071,2230,2038,1798,1826,1968
1007231,68624,36768,69347,36579,1123,-55,-896,305,-978,64,1125,2967,55,44,871,1753,1847,2071,2230,2038,1798,1826,1968
1008232,68704,36848,69412,36644,1005,-24,-921,287,-975,132,1056,2731,43,55,869,1753,1847,2071,2230,2038,1798,1826,1968
1009233,68796,36904,69477,36709,823,287,-945,265,-985,-93,1169,2661,56,48,870,1765,1856,2078,2245,2020,1789,1820,1953
1010234,68888,36980,69542,36774,790,24,-959,245,-988,-141,1232,2814,50,46,871,1765,1856,2078,2245,2020,1789,1820,1953
1011235,68968,37052,69607,36839,922,65,-988,222,-1000,-31,1241,2814,49,44,872,1765,1856,2078,2245,2020,1789,1820,1953
1012236,69064,37136,69672,36904,684,-108,-1013,202,-1000,-96,1038,2833,44,57,870,1765,1856,2078,2245,2020,1789,1820,1953
1013237,69144,37200,69737,36969,866,144,-1034,175,-1004,-41,1175,2800,61,48,872,1765,1856,2078,2245,2020,1789,1820,1953
1014238,69232,37288,69802,37034,738,-185,-1049,144,-1025,-74,1250,2829,56,42,871,1765,1856,2078,2245,2020,1789,1820,1953
1015239,69320,37348,69867,37099,710,171,-1064,130,-1034,-78,982,3053,51,44,871,1772,1854,2072,2241,2007,1778,1811,1943
1016240,69396,37420,69932,37164,847,12,-1083,123,-1031,106,982,2956,51,55,872,1772,1854,2072,2241,2007,1778,1811,1943
1017241,69488,37484,69997,37229,614,113,-1086,123,-1032,101,938,2944,44,58,871,1772,1854,2072,2241,2007,1778,1811,1943
1018242,69548,37564,70062,37294,1021,-105,-1092,108,-1045,-170,799,2943,43,44,873,1772,1854,2072,2241,2007,1778,1811,1943
1019243,69644,37636,70127,37359,533,-14,-1105,98,-1053,-171,746,2860,47,47,869,1772,1854,2072,2241,2007,1778,1811,1943
1020244,69732,37696,70192,37424,605,142,-1115,102,-1062,-105,838,3027,56,43,874,1756,1839,2055,2220,2016,1781,1817,1951
1021245,69796,37772,70257,37489,906,-71,-1128,84,-1080,3,723,2755,50,41,873,1756,1839,2055,2220,2016,1781,1817,1951
1022246,69880,37832,70322,37554,633,135,-1133,72,-1097,-148,741,2860,51,53,870,1756,1839,2055,2220,2016,1781,1817,1951
1023247,69964,37892,70387,37619,611,141,-1142,57,-1096,-413,665,2775,57,51,872,1756,1839,2055,2220,2016,1781,1817,1951
1024248,70064,37980,70452,37684,368,-237,-1151,59,-1084,-253,749,2975,56,59,873,1756,1839,2055,2220,2016,1781,1817,1951
1025249,70148,38044,70517,37749,545,63,-1150,45,-1078,-121,879,2942,41,43,874,1756,1839,2055,2220,2016,1781,1817,1951
1026250,70232,38108,70582,37814,522,65,-1161,21,-1063,-518,647,2753,36,46,874,1745,1831,2046,2211,2022,1787,1824,1957
1027251,70308,38188,70647,37879,608,-154,-1162,1,-1042,-563,585,2927,43,50,874,1745,1831,2046,2211,2022,1787,1824,1957
1028252,70404,38244,70712,37944,320,157,-1174,-19,-1035,-376,736,2875,41,47,873,1745,1831,2046,2211,2022,1787,1824,1957
1029253,70480,38328,70777,38009,557,-216,-1180,-36,-1037,-276,667,2951,39,54,875,1745,1831,2046,2211,2022,1787,1824,1957
1030254,70584,38392,70842,38074,159,35,-1203,-64,-1024,-268,589,2897,52,39,873,1745,1831,2046,2211,2022,1787,1824,1957
1031255,70676,38488,70907,38139,277,-403,-1223,-107,-1030,-364,624,2763,40,56,877,1751,1837,2047,2219,2022,1788,1826,1957
1032256,70756,38560,70972,38204,409,-111,-1246,-123,-1037,-432,477,2758,50,50,874,1751,1837,2047,2219,2022,1788,1826,1957
