%  Data file recorded 2016/10/8  20:38:17
%  Stride Frequency         = [1, 1]
%  Lead In /Lead Out        = 
%  Deltas (Fractional)      = [0.25, 0.25, 0.25],[0.25, 0.25, 0.25]
%  Phase                    = 32768
%  Experiment.py 
%  Motor Gains    = [5000, 400, 200, 0, 300, 5000, 400, 200, 0, 300]
% Columns: 
% time | Right Leg Pos | Left Leg Pos | Commanded Right Leg Pos | Commanded Left Leg Pos | DCR | DCL | GyroX | GyroY | GyroZ | AX | AY | AZ | RBEMF | LBEMF | VBatt | S1 | S2 | S3 | S4 | S5 | S6 | S7 | S8
506,17744,-16940,16770,-15998,-3800,3800,-70,-60,-103,-107,58,3938,-4,-3,835,1748,1861,2057,2234,2031,1787,1857,1980
1507,17736,-16940,16770,-15998,-3800,3800,-69,-60,-103,-106,70,3945,5,-1,835,1748,1861,2057,2234,2031,1787,1857,1980
2508,17740,-16928,16770,-15998,-3800,3800,-69,-61,-102,-89,64,3925,9,8,835,1748,1861,2057,2234,2031,1787,1857,1980
3509,17744,-16932,16770,-15998,-3800,3800,-68,-61,-103,-102,59,3923,7,6,835,1748,1861,2057,2234,2031,1787,1857,1980
4510,17740,-16932,16770,-15998,-3800,3800,-69,-60,-102,-119,65,3965,-2,7,835,1749,1862,2056,2235,2031,1787,1855,1978
5511,17744,-16940,16770,-15998,-3800,3800,-69,-61,-101,-110,61,3941,-10,1,835,1749,1862,2056,2235,2031,1787,1855,1978
6512,17740,-16936,16770,-15998,-3800,3800,-68,-60,-102,-98,54,3953,-11,-7,835,1749,1862,2056,2235,2031,1787,1855,1978
7513,17744,-16940,16770,-15998,-3800,3800,-68,-59,-103,-110,41,3930,-5,-6,835,1749,1862,2056,2235,2031,1787,1855,1978
8514,17736,-16940,16770,-15998,-3800,3800,-70,-61,-101,-113,69,3925,0,-1,835,1749,1862,2056,2235,2031,1787,1855,1978
9515,17736,-16936,16770,-15998,-3800,3800,-70,-63,-100,-104,62,3928,-2,3,835,1749,1862,2056,2235,2031,1787,1855,1978
10516,17744,-16932,16770,-15998,-3800,3800,-68,-63,-101,-88,70,3917,6,4,835,1749,1863,2058,2235,2031,1785,1855,1978
11517,17748,-16932,16770,-15998,-3800,3800,-68,-62,-102,-98,59,3947,8,8,835,1749,1863,2058,2235,2031,1785,1855,1978
12518,17740,-16940,16770,-15998,-3800,3800,-67,-61,-103,-79,54,3913,8,4,835,1749,1863,2058,2235,2031,1785,1855,1978
13519,17756,-16952,16770,-15998,-3800,3800,-67,-61,-102,-113,51,3935,6,-2,835,1749,1863,2058,2235,2031,1785,1855,1978
14520,17736,-16916,16770,-15998,-3800,3800,-66,-59,-103,-110,49,3936,3,-7,835,1749,1863,2058,2235,2031,1785,1855,1978
15521,17748,-16940,16770,-15998,-3800,3800,-67,-61,-103,-112,48,3923,7,-1,835,1750,1862,2057,2235,2031,1787,1856,1979
16522,17744,-16940,16770,-15998,-3800,3800,-68,-60,-104,-95,65,3895,6,6,835,1750,1862,2057,2235,2031,1787,1856,1979
17523,17724,-16932,16770,-15998,-3800,3800,-68,-58,-103,-105,57,3894,5,7,835,1750,1862,2057,2235,2031,1787,1856,1979
18524,17744,-16932,16770,-15998,-3800,3800,-68,-59,-101,-91,66,3924,8,-4,835,1750,1862,2057,2235,2031,1787,1856,1979
19525,17736,-16944,16770,-15998,-3800,3800,-66,-60,-101,-121,73,3956,3,-6,833,1750,1862,2057,2235,2031,1787,1856,1979
20526,17744,-16928,16770,-15998,-3800,3800,-66,-60,-102,-124,62,3934,8,4,835,1750,1862,2057,2235,2031,1787,1856,1979
21527,17736,-16936,16770,-15998,-3800,3800,-66,-59,-101,-111,68,3942,8,6,835,1752,1864,2058,2236,2032,1788,1856,1978
22528,17744,-16932,16770,-15998,-3800,3800,-68,-59,-102,-116,61,3945,8,2,835,1752,1864,2058,2236,2032,1788,1856,1978
23529,17736,-16940,16770,-15998,-3800,3800,-66,-59,-103,-94,61,3935,5,-6,835,1752,1864,2058,2236,2032,1788,1856,1978
24530,17740,-16936,16770,-15998,-3800,3800,-65,-57,-105,-96,65,3949,2,-3,835,1752,1864,2058,2236,2032,1788,1856,1978
25531,17732,-16936,16770,-15998,-3800,3800,-68,-58,-105,-98,84,3949,-9,-3,835,1752,1864,2058,2236,2032,1788,1856,1978
26532,17736,-16936,16770,-15998,-3800,3800,-67,-60,-104,-98,74,3927,-9,0,835,1749,1862,2057,2234,2033,1789,1857,1979
27533,17732,-16932,16770,-15998,-3800,3800,-67,-60,-103,-107,70,3936,-8,5,835,1749,1862,2057,2234,2033,1789,1857,1979
28534,17740,-16924,16770,-15998,-3800,3800,-67,-58,-104,-128,50,3930,-7,2,835,1749,1862,2057,2234,2033,1789,1857,1979
29535,17748,-16936,16770,-15998,-3800,3800,-67,-59,-104,-111,73,3920,-1,4,835,1749,1862,2057,2234,2033,1789,1857,1979
30536,17740,-16932,16770,-15998,-3800,3800,-69,-60,-104,-107,57,3917,-2,4,835,1749,1862,2057,2234,2033,1789,1857,1979
31537,17748,-16932,16770,-15998,-3800,3800,-68,-59,-105,-93,76,3967,1,3,835,1749,1862,2057,2234,2033,1789,1857,1979
32538,17740,-16936,16770,-15998,-3800,3800,-67,-59,-106,-108,45,3943,6,6,835,1749,1862,2057,2235,2031,1788,1857,1980
33539,17736,-16936,16770,-15998,-3800,3800,-64,-59,-104,-97,47,3926,2,8,835,1749,1862,2057,2235,2031,1788,1857,1980
34540,17728,-16936,16770,-15998,-3800,3800,-65,-56,-104,-86,56,3911,6,7,835,1749,1862,2057,2235,2031,1788,1857,1980
35541,17744,-16940,16770,-15998,-3800,3800,-68,-56,-105,-88,52,3933,8,8,835,1749,1862,2057,2235,2031,1788,1857,1980
36542,17732,-16940,16770,-15998,-3800,3800,-70,-57,-105,-83,30,3919,8,3,834,1749,1862,2057,2235,2031,1788,1857,1980
37543,17736,-16936,16770,-15998,-3800,3800,-68,-58,-106,-107,61,3937,8,-1,835,1749,1862,2058,2235,2032,1787,1857,1977
38544,17748,-16932,16770,-15998,-3800,3800,-66,-57,-107,-90,63,3960,6,-6,835,1749,1862,2058,2235,2032,1787,1857,1977
39545,17744,-16928,16770,-15998,-3800,3800,-65,-59,-107,-88,45,3921,5,-7,835,1749,1862,2058,2235,2032,1787,1857,1977
40546,17732,-16932,16770,-15998,-3800,3800,-66,-61,-105,-76,38,3924,8,-7,835,1749,1862,2058,2235,2032,1787,1857,1977
41547,17744,-16928,16770,-15998,-3800,3800,-69,-58,-104,-98,64,3927,5,-6,835,1749,1862,2058,2235,2032,1787,1857,1977
42548,17732,-16928,16770,-15998,-3800,3800,-68,-59,-105,-112,54,3954,4,-4,835,1749,1862,2058,2235,2032,1787,1857,1977
43549,17740,-16948,16770,-15998,-3800,3800,-67,-62,-104,-121,53,3917,-4,-4,835,1750,1862,2058,2236,2032,1788,1856,1978
44550,17740,-16940,16770,-15998,-3800,3800,-68,-62,-103,-113,60,3916,-8,2,835,1750,1862,2058,2236,2032,1788,1856,1978
45551,17736,-16944,16770,-15998,-3800,3800,-70,-62,-104,-101,63,3946,-10,6,835,1750,1862,2058,2236,2032,1788,1856,1978
46552,17732,-16932,16770,-15998,-3800,3800,-70,-64,-105,-85,72,3922,-9,6,835,1750,1862,2058,2236,2032,1788,1856,1978
47553,17748,-16936,16770,-15998,-3800,3800,-68,-59,-105,-89,72,3924,0,8,835,1750,1862,2058,2236,2032,1788,1856,1978
48554,17736,-16928,16770,-15998,-3800,3800,-68,-58,-105,-75,50,3949,1,7,835,1748,1859,2053,2231,2030,1787,1856,1980
49555,17744,-16924,16770,-15998,-3800,3800,-68,-58,-104,-86,77,3906,7,8,835,1748,1859,2053,2231,2030,1787,1856,1980
50556,17740,-16940,16770,-15998,-3800,3800,-67,-60,-104,-96,62,3901,7,1,835,1748,1859,2053,2231,2030,1787,1856,1980
51557,17744,-16932,16770,-15998,-3800,3800,-67,-61,-104,-111,42,3924,7,-7,835,1748,1859,2053,2231,2030,1787,1856,1980
52558,17744,-16932,16770,-15998,-3800,3800,-68,-60,-104,-129,41,3930,8,-5,835,1748,1859,2053,2231,2030,1787,1856,1980
53559,17736,-16932,16770,-15998,-3800,3800,-69,-59,-103,-112,42,3919,7,3,833,1748,1859,2053,2231,2030,1787,1856,1980
54560,17736,-16936,16770,-15998,-3800,3800,-68,-58,-102,-101,70,3876,5,6,835,1750,1863,2057,2235,2032,1787,1856,1978
55561,17744,-16936,16770,-15998,-3800,3800,-67,-58,-101,-80,46,3887,-1,3,835,1750,1863,2057,2235,2032,1787,1856,1978
56562,17740,-16932,16770,-15998,-3800,3800,-66,-58,-102,-93,57,3903,4,-7,835,1750,1863,2057,2235,2032,1787,1856,1978
57563,17740,-16940,16770,-15998,-3800,3800,-67,-59,-104,-107,50,3896,-4,2,835,1750,1863,2057,2235,2032,1787,1856,1978
58564,17740,-16940,16770,-15998,-3800,3800,-66,-61,-105,-101,48,3908,-5,5,835,1750,1863,2057,2235,2032,1787,1856,1978
59565,17736,-16932,16770,-15998,-3800,3800,-66,-62,-103,-98,50,3916,-3,8,835,1747,1861,2058,2238,2034,1790,1857,1980
60566,17744,-16948,16770,-15998,-3800,3800,-68,-61,-104,-105,33,3923,-3,3,835,1747,1861,2058,2238,2034,1790,1857,1980
61567,17732,-16944,16770,-15998,-3800,3800,-69,-59,-104,-104,56,3915,3,0,835,1747,1861,2058,2238,2034,1790,1857,1980
62568,17748,-16944,16770,-15998,-3800,3800,-68,-60,-104,-116,31,3910,8,-6,835,1747,1861,2058,2238,2034,1790,1857,1980
63569,17736,-16936,16770,-15998,-3800,3800,-65,-61,-101,-98,46,3940,7,-5,835,1747,1861,2058,2238,2034,1790,1857,1980
64570,17744,-16944,16770,-15998,-3800,3800,-63,-59,-103,-112,48,3941,8,-5,835,1747,1861,2058,2238,2034,1790,1857,1980
65571,17748,-16936,16770,-15998,-3800,3800,-64,-58,-104,-111,67,3956,7,2,835,1749,1861,2054,2233,2031,1787,1854,1978
66572,17736,-16932,16770,-15998,-3800,3800,-67,-60,-103,-90,56,3935,6,7,835,1749,1861,2054,2233,2031,1787,1854,1978
67573,17732,-16928,16770,-15998,-3800,3800,-68,-62,-101,-82,53,3930,7,8,835,1749,1861,2054,2233,2031,1787,1854,1978
68574,17744,-16932,16770,-15998,-3800,3800,-67,-62,-101,-77,67,3926,4,7,835,1749,1861,2054,2233,2031,1787,1854,1978
69575,17740,-16940,16770,-15998,-3800,3800,-68,-60,-101,-98,76,3945,4,0,835,1749,1861,2054,2233,2031,1787,1854,1978
70576,17740,-16936,16770,-15998,-3800,3800,-69,-59,-101,-103,55,3919,-3,2,833,1750,1864,2058,2236,2032,1787,1856,1979
71577,17736,-16940,16770,-15998,-3800,3800,-68,-60,-102,-103,67,3926,3,-6,835,1750,1864,2058,2236,2032,1787,1856,1979
72578,17736,-16940,16770,-15998,-3800,3800,-69,-59,-102,-106,61,3904,8,-5,835,1750,1864,2058,2236,2032,1787,1856,1979
73579,17748,-16940,16770,-15998,-3800,3800,-68,-57,-103,-91,31,3916,0,-7,835,1750,1864,2058,2236,2032,1787,1856,1979
74580,17724,-16936,16770,-15998,-3800,3800,-67,-56,-103,-90,25,3961,-9,-6,835,1750,1864,2058,2236,2032,1787,1856,1979
75581,17732,-16940,16770,-15998,-3800,3800,-69,-57,-103,-118,37,3936,-9,0,835,1750,1864,2058,2236,2032,1787,1856,1979
76582,17740,-16940,16770,-15998,-3800,3800,-71,-58,-103,-88,57,3907,-10,-2,835,1749,1862,2058,2236,2034,1789,1858,1980
77583,17740,-16928,16770,-15998,-3800,3800,-68,-61,-103,-96,63,3912,-8,4,835,1749,1862,2058,2236,2034,1789,1858,1980
78584,17736,-16940,16770,-15998,-3800,3800,-67,-59,-102,-83,54,3902,-8,7,835,1749,1862,2058,2236,2034,1789,1858,1980
79585,17744,-16924,16770,-15998,-3800,3800,-69,-59,-102,-92,49,3934,3,8,835,1749,1862,2058,2236,2034,1789,1858,1980
80586,17748,-16932,16770,-15998,-3800,3800,-71,-61,-104,-139,40,3925,8,7,835,1749,1862,2058,2236,2034,1789,1858,1980
81587,17744,-16936,16770,-15998,-3800,3800,-71,-62,-104,-120,53,3895,8,1,835,1752,1864,2057,2235,2032,1788,1856,1979
82588,17748,-16940,16770,-15998,-3800,3800,-68,-60,-103,-126,71,3920,0,0,835,1752,1864,2057,2235,2032,1788,1856,1979
83589,17744,-16936,16770,-15998,-3800,3800,-69,-60,-102,-122,79,3944,-8,-5,835,1752,1864,2057,2235,2032,1788,1856,1979
84590,17752,-16948,16770,-15998,-3800,3800,-69,-59,-100,-110,75,3955,-10,-6,835,1752,1864,2057,2235,2032,1788,1856,1979
85591,17736,-16936,16770,-15998,-3800,3800,-69,-59,-101,-87,65,3974,-5,-6,835,1752,1864,2057,2235,2032,1788,1856,1979
86592,17748,-16932,16770,-15998,-3800,3800,-68,-59,-105,-79,58,3973,4,-5,835,1752,1864,2057,2235,2032,1788,1856,1979
87593,17732,-16936,16770,-15998,-3800,3800,-67,-60,-103,-96,45,3962,5,1,834,1749,1861,2056,2234,2031,1787,1856,1978
88594,17736,-16940,16770,-15998,-3800,3800,-68,-57,-105,-107,38,3935,6,8,835,1749,1861,2056,2234,2031,1787,1856,1978
89595,17744,-16940,16770,-15998,-3800,3800,-68,-57,-105,-121,64,3930,6,3,835,1749,1861,2056,2234,2031,1787,1856,1978
90596,17744,-16944,16770,-15998,-3800,3800,-68,-55,-103,-115,81,3935,7,-6,835,1749,1861,2056,2234,2031,1787,1856,1978
91597,17728,-16924,16770,-15998,-3800,3800,-68,-58,-104,-108,52,3930,8,-7,835,1749,1861,2056,2234,2031,1787,1856,1978
92598,17728,-16932,16770,-15998,-3800,3800,-70,-60,-104,-109,44,3938,8,-5,835,1749,1861,2057,2236,2033,1789,1857,1979
93599,17740,-16932,16770,-15998,-3800,3800,-70,-59,-104,-112,53,3925,8,2,835,1749,1861,2057,2236,2033,1789,1857,1979
94600,17736,-16932,16770,-15998,-3800,3800,-71,-58,-104,-114,57,3900,8,0,835,1749,1861,2057,2236,2033,1789,1857,1979
95601,17748,-16944,16770,-15998,-3800,3800,-71,-60,-103,-121,37,3930,8,7,835,1749,1861,2057,2236,2033,1789,1857,1979
96602,17736,-16940,16770,-15998,-3800,3800,-69,-60,-102,-122,51,3955,9,8,835,1749,1861,2057,2236,2033,1789,1857,1979
97603,17744,-16936,16770,-15998,-3800,3800,-68,-57,-103,-147,48,3936,7,8,835,1749,1861,2057,2236,2033,1789,1857,1979
98604,17752,-16936,16770,-15998,-3800,3800,-69,-56,-107,-113,61,3960,0,6,835,1750,1862,2057,2235,2031,1789,1858,1980
99605,17736,-16944,16770,-15998,-3800,3800,-69,-59,-105,-88,74,3965,2,0,835,1750,1862,2057,2235,2031,1789,1858,1980
100606,17736,-16948,16770,-15998,-3800,3800,-70,-60,-103,-123,56,3964,-3,3,835,1750,1862,2057,2235,2031,1789,1858,1980
101607,17732,-16924,16770,-15998,-3800,3800,-69,-59,-105,-143,61,3909,-9,-6,835,1750,1862,2057,2235,2031,1789,1858,1980
102608,17736,-16936,16770,-15998,-3800,3800,-69,-57,-104,-116,71,3923,-7,-5,835,1750,1862,2057,2235,2031,1789,1858,1980
103609,17748,-16944,16770,-15998,-3800,3800,-69,-59,-103,-112,49,3949,-10,-4,835,1750,1861,2057,2233,2031,1786,1855,1977
104610,17736,-16936,16770,-15998,-3800,3800,-69,-58,-104,-80,67,3932,-10,8,833,1750,1861,2057,2233,2031,1786,1855,1977
105611,17740,-16940,16770,-15998,-3800,3800,-68,-57,-106,-101,54,3947,3,-4,835,1750,1861,2057,2233,2031,1786,1855,1977
106612,17748,-16936,16770,-15998,-3800,3800,-68,-57,-106,-106,49,3956,6,-6,835,1750,1861,2057,2233,2031,1786,1855,1977
107613,17740,-16932,16770,-15998,-3800,3800,-66,-58,-106,-104,46,3921,-3,-6,835,1750,1861,2057,2233,2031,1786,1855,1977
108614,17748,-16944,16770,-15998,-3800,3800,-67,-62,-107,-110,27,3928,-2,2,835,1750,1861,2057,2233,2031,1786,1855,1977
109615,17736,-16928,16770,-15998,-3800,3800,-67,-59,-103,-97,48,3900,-4,3,835,1749,1861,2056,2234,2032,1787,1857,1978
110616,17740,-16936,16770,-15998,-3800,3800,-67,-57,-102,-105,50,3895,-10,8,835,1749,1861,2056,2234,2032,1787,1857,1978
111617,17728,-16936,16770,-15998,-3800,3800,-65,-58,-103,-114,40,3905,-6,5,835,1749,1861,2056,2234,2032,1787,1857,1978
112618,17732,-16932,16770,-15998,-3800,3800,-66,-59,-103,-119,46,3922,-7,-1,835,1749,1861,2056,2234,2032,1787,1857,1978
113619,17744,-16932,16770,-15998,-3800,3800,-66,-61,-101,-108,57,3894,-1,-7,835,1749,1861,2056,2234,2032,1787,1857,1978
114620,17744,-16940,16770,-15998,-3800,3800,-68,-60,-100,-107,58,3923,4,-3,835,1750,1862,2057,2236,2032,1788,1856,1979
115621,17736,-16932,16770,-15998,-3800,3800,-67,-60,-103,-125,53,3925,7,-5,835,1750,1862,2057,2236,2032,1788,1856,1979
116622,17732,-16932,16770,-15998,-3800,3800,-67,-62,-101,-120,52,3935,8,-1,835,1750,1862,2057,2236,2032,1788,1856,1979
117623,17732,-16936,16770,-15998,-3800,3800,-66,-61,-103,-125,67,3923,8,5,835,1750,1862,2057,2236,2032,1788,1856,1979
118624,17740,-16940,16770,-15998,-3800,3800,-65,-62,-102,-98,63,3921,4,6,835,1750,1862,2057,2236,2032,1788,1856,1979
119625,17740,-16932,16770,-15998,-3800,3800,-64,-64,-101,-82,68,3933,-4,7,835,1750,1862,2057,2236,2032,1788,1856,1979
120626,17740,-16944,16770,-15998,-3800,3800,-66,-62,-103,-85,73,3903,-2,-3,835,1751,1863,2058,2235,2031,1788,1856,1979
121627,17740,-16932,16770,-15998,-3800,3800,-66,-61,-104,-75,78,3940,-5,-7,833,1751,1863,2058,2235,2031,1788,1856,1979
122628,17744,-16948,16770,-15998,-3800,3800,-67,-59,-102,-88,91,3939,2,5,835,1751,1863,2058,2235,2031,1788,1856,1979
123629,17740,-16928,16770,-15998,-3800,3800,-68,-60,-101,-86,69,3928,8,8,835,1751,1863,2058,2235,2031,1788,1856,1979
124632,17740,-16944,16770,-15998,-3800,3800,-67,-62,-101,-77,64,3942,8,8,835,1751,1863,2058,2235,2031,1788,1856,1979
125631,17748,-16932,16770,-15998,-3800,3800,-67,-62,-104,-106,87,3965,8,7,835,1750,1861,2057,2235,2031,1786,1854,1982
126632,17736,-16928,16770,-15998,-3800,3800,-64,-60,-105,-111,58,3940,8,3,835,1750,1861,2057,2235,2031,1786,1854,1982
127633,17736,-16932,16770,-15998,-3800,3800,-65,-60,-103,-108,39,3925,8,6,835,1750,1861,2057,2235,2031,1786,1854,1982
128634,17740,-16932,16770,-15998,-3800,3800,-68,-58,-102,-119,64,3941,8,0,835,1750,1861,2057,2235,2031,1786,1854,1982
129635,17736,-16924,16770,-15998,-3800,3800,-68,-59,-103,-126,64,3941,7,-7,835,1750,1861,2057,2235,2031,1786,1854,1982
130636,17736,-16936,16770,-15998,-3800,3800,-68,-60,-102,-105,53,3959,5,-6,835,1750,1861,2057,2235,2031,1786,1854,1982
131637,17740,-16932,16770,-15998,-3800,3800,-67,-61,-103,-106,45,3987,3,-6,835,1749,1862,2056,2234,2032,1788,1856,1978
132638,17744,-16940,16770,-15998,-3800,3800,-66,-60,-101,-100,16,3934,-3,-4,835,1749,1862,2056,2234,2032,1788,1856,1978
133639,17732,-16932,16770,-15998,-3800,3800,-68,-58,-99,-92,52,3911,2,-5,835,1749,1862,2056,2234,2032,1788,1856,1978
134640,17752,-16924,16770,-15998,-3800,3800,-70,-58,-101,-94,57,3943,3,0,835,1749,1862,2056,2234,2032,1788,1856,1978
135641,17744,-16924,16770,-15998,-3800,3800,-68,-58,-101,-96,67,3955,0,3,835,1749,1862,2056,2234,2032,1788,1856,1978
136642,17740,-16940,16770,-15998,-3800,3800,-66,-58,-103,-109,69,3956,-1,1,835,1747,1859,2055,2235,2034,1790,1858,1980
137643,17744,-16932,16770,-15998,-3800,3800,-67,-58,-103,-107,51,3959,-6,7,835,1747,1859,2055,2235,2034,1790,1858,1980
138644,17736,-16940,16770,-15998,-3800,3800,-69,-58,-100,-95,49,3934,-10,5,834,1747,1859,2055,2235,2034,1790,1858,1980
139645,17736,-16940,16770,-15998,-3800,3800,-66,-59,-99,-94,58,3942,-4,-3,835,1747,1859,2055,2235,2034,1790,1858,1980
140646,17732,-16928,16770,-15998,-3800,3800,-67,-59,-100,-84,41,3919,6,-6,835,1747,1859,2055,2235,2034,1790,1858,1980
141647,17740,-16932,16770,-15998,-3800,3800,-69,-60,-103,-89,45,3899,8,3,835,1747,1859,2055,2235,2034,1790,1858,1980
142648,17748,-16936,16770,-15998,-3800,3800,-70,-59,-104,-109,60,3919,7,2,835,1750,1861,2056,2234,2032,1788,1856,1979
143649,17736,-16940,16770,-15998,-3800,3800,-68,-58,-102,-108,78,3941,8,5,835,1750,1861,2056,2234,2032,1788,1856,1979
144650,17736,-16940,16770,-15998,-3800,3800,-67,-57,-101,-114,56,3925,7,8,835,1750,1861,2056,2234,2032,1788,1856,1979
145651,17732,-16932,16770,-15998,-3800,3800,-67,-58,-101,-97,80,3933,6,8,835,1750,1861,2056,2234,2032,1788,1856,1979
146652,17740,-16928,16770,-15998,-3800,3800,-68,-59,-103,-93,73,3944,4,2,835,1750,1861,2056,2234,2032,1788,1856,1979
147653,17736,-16936,16770,-15998,-3800,3800,-69,-60,-105,-126,40,3955,-6,-7,835,1752,1860,2056,2233,2030,1787,1856,1978
148654,17744,-16936,16770,-15998,-3800,3800,-67,-60,-105,-123,30,3920,-4,-6,835,1752,1860,2056,2233,2030,1787,1856,1978
149655,17736,-16936,16770,-15998,-3800,3800,-70,-60,-105,-130,39,3914,-2,0,835,1752,1860,2056,2233,2030,1787,1856,1978
150656,17744,-16936,16770,-15998,-3800,3800,-73,-60,-102,-115,67,3916,-4,7,835,1752,1860,2056,2233,2030,1787,1856,1978
151657,17752,-16936,16770,-15998,-3800,3800,-70,-61,-102,-126,68,3909,4,8,835,1752,1860,2056,2233,2030,1787,1856,1978
152658,17740,-16936,16770,-15998,-3800,3800,-69,-60,-106,-112,51,3904,8,7,835,1751,1862,2057,2235,2031,1787,1855,1979
153659,17736,-16932,16770,-15998,-3800,3800,-67,-60,-102,-110,44,3943,8,0,835,1751,1862,2057,2235,2031,1787,1855,1979
154660,17740,-16940,16770,-15998,-3800,3800,-68,-60,-101,-106,59,3950,8,-1,835,1751,1862,2057,2235,2031,1787,1855,1979
155661,17744,-16932,16770,-15998,-3800,3800,-68,-61,-102,-108,53,3949,7,-7,833,1751,1862,2057,2235,2031,1787,1855,1979
156662,17748,-16928,16770,-15998,-3800,3800,-69,-62,-104,-98,65,3927,6,3,835,1751,1862,2057,2235,2031,1787,1855,1979
157663,17732,-16936,16770,-15998,-3800,3800,-71,-60,-104,-96,44,3914,-1,6,835,1751,1862,2057,2235,2031,1787,1855,1979
158664,17720,-16932,16770,-15998,-3800,3800,-68,-59,-105,-95,48,3914,3,6,835,1750,1861,2057,2235,2031,1788,1858,1980
159665,17744,-16936,16770,-15998,-3800,3800,-68,-59,-104,-109,60,3906,3,-5,835,1750,1861,2057,2235,2031,1788,1858,1980
160666,17744,-16932,16770,-15998,-3800,3800,-68,-63,-102,-100,60,3894,8,-6,835,1750,1861,2057,2235,2031,1788,1858,1980
161667,17736,-16944,16770,-15998,-3800,3800,-67,-59,-102,-105,73,3946,6,-1,835,1750,1861,2057,2235,2031,1788,1858,1980
162668,17732,-16944,16770,-15998,-3800,3800,-68,-61,-103,-100,88,3932,4,8,835,1750,1861,2057,2235,2031,1788,1858,1980
163669,17744,-16928,16770,-15998,-3800,3800,-69,-62,-105,-100,73,3933,0,8,835,1750,1862,2057,2235,2027,1783,1853,1980
164670,17744,-16936,16770,-15998,-3800,3800,-67,-60,-105,-103,67,3914,-10,2,835,1750,1862,2057,2235,2027,1783,1853,1980
165671,17728,-16940,16770,-15998,-3800,3800,-65,-60,-106,-111,70,3940,-10,-5,835,1750,1862,2057,2235,2027,1783,1853,1980
166672,17740,-16928,16770,-15998,-3800,3800,-65,-63,-106,-115,67,3952,-10,-5,835,1750,1862,2057,2235,2027,1783,1853,1980
167673,17736,-16944,16770,-15998,-3800,3800,-66,-63,-105,-105,49,3951,-9,-6,835,1750,1862,2057,2235,2027,1783,1853,1980
168674,17732,-16940,16770,-15998,-3800,3800,-66,-61,-105,-85,35,3952,-9,-3,835,1750,1862,2057,2235,2027,1783,1853,1980
169675,17732,-16940,16770,-15998,-3800,3800,-67,-59,-104,-119,76,3921,-8,0,835,1751,1862,2056,2234,2031,1786,1855,1977
170676,17744,-16932,16770,-15998,-3800,3800,-66,-59,-104,-118,63,3930,-3,8,835,1751,1862,2056,2234,2031,1786,1855,1977
171677,17732,-16928,16770,-15998,-3800,3800,-66,-60,-105,-93,32,3943,-4,-1,835,1751,1862,2056,2234,2031,1786,1855,1977
172678,17724,-16928,16770,-15998,-3800,3800,-68,-61,-105,-97,31,3938,4,-6,833,1751,1862,2056,2234,2031,1786,1855,1977
173679,17748,-16936,16770,-15998,-3800,3800,-69,-61,-105,-113,10,3938,5,0,835,1751,1862,2056,2234,2031,1786,1855,1977
174680,17744,-16948,16770,-15998,-3800,3800,-66,-61,-103,-105,52,3944,-8,8,835,1752,1864,2058,2236,2032,1789,1857,1980
175681,17732,-16932,16770,-15998,-3800,3800,-67,-62,-103,-114,67,3956,-5,7,835,1752,1864,2058,2236,2032,1789,1857,1980
176682,17748,-16948,16770,-15998,-3800,3800,-67,-62,-105,-105,40,3960,-4,1,835,1752,1864,2058,2236,2032,1789,1857,1980
177683,17748,-16924,16770,-15998,-3800,3800,-67,-60,-104,-108,53,3924,-4,-6,835,1752,1864,2058,2236,2032,1789,1857,1980
178684,17744,-16932,16770,-15998,-3800,3800,-67,-60,-103,-107,55,3930,-4,-5,835,1752,1864,2058,2236,2032,1789,1857,1980
179685,17736,-16940,16770,-15998,-3800,3800,-66,-62,-104,-87,55,3931,4,-6,835,1752,1864,2058,2236,2032,1789,1857,1980
180686,17740,-16936,16770,-15998,-3800,3800,-66,-63,-106,-105,70,3943,4,4,835,1751,1862,2058,2235,2033,1789,1857,1979
181687,17732,-16944,16770,-15998,-3800,3800,-69,-61,-104,-79,45,3941,8,6,835,1751,1862,2058,2235,2033,1789,1857,1979
182688,17740,-16936,16770,-15998,-3800,3800,-68,-60,-104,-74,47,3942,7,8,835,1751,1862,2058,2235,2033,1789,1857,1979
183689,17736,-16956,16770,-15998,-3800,3800,-68,-60,-104,-99,87,3927,8,2,835,1751,1862,2058,2235,2033,1789,1857,1979
184690,17736,-16944,16770,-15998,-3800,3800,-70,-60,-104,-104,74,3966,8,3,835,1751,1862,2058,2235,2033,1789,1857,1979
185691,17748,-16932,16770,-15998,-3800,3800,-69,-61,-103,-103,39,3935,8,-6,835,1751,1863,2058,2236,2033,1788,1857,1980
186692,17744,-16932,16770,-15998,-3800,3800,-69,-61,-103,-96,55,3929,8,-5,835,1751,1863,2058,2236,2033,1788,1857,1980
187693,17744,-16944,16770,-15998,-3800,3800,-68,-62,-103,-102,58,3966,3,-2,835,1751,1863,2058,2236,2033,1788,1857,1980
188694,17744,-16932,16770,-15998,-3800,3800,-68,-61,-102,-102,58,3954,-3,6,835,1751,1863,2058,2236,2033,1788,1857,1980
189695,17736,-16932,16770,-15998,-3800,3800,-69,-60,-105,-101,45,3951,-1,8,834,1751,1863,2058,2236,2033,1788,1857,1980
190696,17748,-16932,16770,-15998,-3800,3800,-70,-59,-105,-117,73,3931,2,2,835,1751,1863,2058,2236,2033,1788,1857,1980
191697,17760,-16932,16770,-15998,-3800,3800,-69,-59,-105,-112,55,3920,7,-6,835,1751,1862,2057,2235,2031,1787,1855,1982
192698,17740,-16940,16770,-15998,-3800,3800,-68,-58,-105,-105,46,3954,9,-5,835,1751,1862,2057,2235,2031,1787,1855,1982
193699,17740,-16932,16770,-15998,-3800,3800,-69,-60,-103,-117,33,3933,8,-6,835,1751,1862,2057,2235,2031,1787,1855,1982
194700,17740,-16944,16770,-15998,-3800,3800,-69,-61,-103,-102,50,3936,8,1,835,1751,1862,2057,2235,2031,1787,1855,1982
195701,17744,-16944,16770,-15998,-3800,3800,-70,-60,-104,-92,34,3941,8,7,835,1751,1862,2057,2235,2031,1787,1855,1982
196702,17736,-16932,16770,-15998,-3800,3800,-68,-61,-107,-110,43,3952,8,8,835,1752,1862,2057,2235,2032,1788,1856,1978
197703,17732,-16944,16770,-15998,-3800,3800,-69,-60,-104,-92,58,3948,2,7,835,1752,1862,2057,2235,2032,1788,1856,1978
198704,17748,-16932,16770,-15998,-3800,3800,-68,-56,-102,-88,60,3935,5,-3,835,1752,1862,2057,2235,2032,1788,1856,1978
199705,17740,-16940,16770,-15998,-3800,3800,-67,-57,-103,-91,72,3934,-3,-7,835,1752,1862,2057,2235,2032,1788,1856,1978
200706,17748,-16924,16835,-15933,-790,1434,-68,-57,-102,-97,52,3945,-10,0,835,1752,1862,2057,2235,2032,1788,1856,1978
201707,17732,-16936,16900,-15868,-392,1878,-71,-59,-102,-117,51,3929,-10,8,822,1752,1862,2057,2235,2032,1788,1856,1978
202708,17744,-16920,16965,-15803,-677,1588,-74,-62,-103,-115,46,3903,7,4,819,1753,1864,2058,2236,2032,1787,1856,1977
203709,17732,-16892,17030,-15738,-283,1484,-75,-69,-102,-144,43,3985,-7,17,823,1753,1864,2058,2236,2032,1787,1856,1977
204710,17736,-16816,17095,-15673,-410,871,-72,-80,-96,-252,84,4043,0,20,823,1753,1864,2058,2236,2032,1787,1856,1977
205711,17732,-16756,17160,-15608,-226,1078,-72,-93,-103,-226,47,3994,0,36,829,1753,1864,2058,2236,2032,1787,1856,1977
206712,17740,-16680,17225,-15543,-306,864,-70,-128,-109,-206,23,4147,-6,36,827,1753,1864,2058,2236,2032,1787,1856,1977
207713,17736,-16596,17290,-15478,-72,741,-66,-126,-116,-193,-17,4136,8,35,829,1743,1863,2057,2235,2034,1777,1858,1983
208714,17744,-16520,17355,-15413,-153,829,-71,-133,-124,-3,-45,3925,0,52,830,1743,1863,2057,2235,2034,1777,1858,1983
209715,17744,-16444,17420,-15348,26,815,-79,-109,-142,-16,5,4032,12,53,824,1743,1863,2057,2235,2034,1777,1858,1983
210716,17736,-16332,17485,-15283,215,309,-95,-88,-163,83,10,3788,-5,48,830,1743,1863,2057,2235,2034,1777,1858,1983
211717,17740,-16252,17550,-15218,140,691,-113,-73,-180,-183,-35,3969,12,54,833,1743,1863,2057,2235,2034,1777,1858,1983
212718,17736,-16136,17615,-15153,324,178,-124,-75,-183,-191,46,3911,-4,55,831,1743,1863,2057,2235,2034,1777,1858,1983
213719,17732,-16044,17680,-15088,408,446,-137,-89,-189,-337,9,4008,12,42,833,1757,1871,2044,2215,2039,1795,1866,1991
214720,17736,-15964,17745,-15023,382,578,-144,-127,-198,-368,-47,4019,6,47,831,1757,1871,2044,2215,2039,1795,1866,1991
215721,17748,-15868,17810,-14958,347,341,-140,-162,-197,-430,-113,4090,11,51,830,1757,1871,2044,2215,2039,1795,1866,1991
216722,17756,-15760,17875,-14893,467,139,-136,-193,-196,-409,-107,4095,14,52,832,1757,1871,2044,2215,2039,1795,1866,1991
217723,17764,-15672,17940,-14828,536,361,-129,-197,-194,-341,-88,4117,0,49,832,1757,1871,2044,2215,2039,1795,1866,1991
218724,17776,-15584,18005,-14763,551,334,-125,-194,-200,-120,-120,3916,18,54,831,1750,1866,2060,2234,2054,1805,1874,2002
219725,17788,-15508,18070,-14698,616,470,-121,-197,-202,-234,-117,4061,17,47,831,1750,1866,2060,2234,2054,1805,1874,2002
220726,17800,-15416,18135,-14633,680,237,-118,-191,-202,-291,-22,4051,5,48,830,1750,1866,2060,2234,2054,1805,1874,2002
221727,17832,-15324,18200,-14568,471,204,-118,-190,-198,-279,-79,4111,14,53,830,1750,1866,2060,2234,2054,1805,1874,2002
222728,17848,-15248,18265,-14503,731,392,-113,-192,-199,-144,-67,4144,22,58,831,1750,1866,2060,2234,2054,1805,1874,2002
223729,17884,-15168,18330,-14438,517,324,-117,-211,-209,-245,168,4195,12,47,827,1750,1866,2060,2234,2054,1805,1874,2002
224730,17916,-15076,18395,-14373,607,141,-112,-227,-216,-256,0,4060,32,50,831,1743,1857,2053,2227,2045,1798,1870,1994
225731,17948,-14988,18460,-14308,648,164,-125,-241,-221,-225,-28,4053,32,42,831,1743,1857,2053,2227,2045,1798,1870,1994
226732,17980,-14912,18525,-14243,688,300,-131,-235,-238,-283,11,4017,33,46,831,1743,1857,2053,2227,2045,1798,1870,1994
227733,18020,-14828,18590,-14178,618,177,-139,-215,-253,-188,5,3953,33,43,830,1743,1857,2053,2227,2045,1798,1870,1994
228734,18068,-14748,18655,-14113,540,209,-145,-216,-259,-205,-17,3917,23,39,831,1743,1857,2053,2227,2045,1798,1870,1994
229735,18116,-14676,18720,-14048,561,301,-150,-212,-269,-271,-14,3823,25,39,831,1757,1869,2059,2241,2033,1787,1859,1980
230736,18172,-14612,18785,-13983,472,402,-160,-220,-279,-314,-95,3837,23,47,830,1757,1869,2059,2241,2033,1787,1859,1980
231737,18212,-14568,18850,-13918,702,678,-155,-214,-284,-214,-120,3873,34,42,831,1757,1869,2059,2241,2033,1787,1859,1980
232738,18260,-14516,18915,-13853,624,594,-155,-213,-281,-295,-154,3728,33,34,827,1757,1869,2059,2241,2033,1787,1859,1980
233739,18332,-14448,18980,-13788,316,391,-149,-210,-281,-350,-138,3873,37,46,829,1757,1869,2059,2241,2033,1787,1859,1980
234740,18380,-14376,19045,-13723,636,333,-139,-213,-270,-366,-186,3847,38,49,832,1757,1869,2059,2241,2033,1787,1859,1980
235741,18448,-14332,19110,-13658,383,708,-128,-236,-262,-388,-177,3747,34,31,830,1762,1869,2062,2241,2023,1780,1847,1965
236742,18508,-14252,19175,-13593,489,240,-118,-242,-256,-391,-176,3878,35,35,829,1762,1869,2062,2241,2023,1780,1847,1965
237743,18568,-14208,19240,-13528,496,717,-112,-232,-252,-225,-149,3751,39,33,831,1762,1869,2062,2241,2023,1780,1847,1965
238744,18620,-14160,19305,-13463,612,687,-102,-181,-235,2,-76,4213,31,45,829,1762,1869,2062,2241,2023,1780,1847,1965
239745,18684,-14080,19370,-13398,463,269,-96,-167,-227,298,-17,4077,42,32,828,1762,1869,2062,2241,2023,1780,1847,1965
240746,18736,-14008,19435,-13333,630,360,-100,-186,-211,-489,-180,3283,35,38,830,1750,1855,2048,2231,2005,1763,1838,1956
241747,18812,-13960,19500,-13268,316,682,-89,-177,-224,-241,228,4104,47,45,830,1750,1855,2048,2231,2005,1763,1838,1956
242748,18880,-13908,19565,-13203,413,648,-86,-154,-213,-183,-67,3732,52,32,830,1750,1855,2048,2231,2005,1763,1838,1956
243749,18924,-13848,19630,-13138,738,554,-82,-147,-214,80,14,3519,48,35,830,1750,1855,2048,2231,2005,1763,1838,1956
244750,19008,-13792,19695,-13073,216,615,-86,-123,-219,-165,62,3976,42,46,828,1750,1855,2048,2231,2005,1763,1838,1956
245751,19052,-13720,19760,-13008,742,408,-82,-135,-211,-51,83,3708,49,35,830,1750,1855,2048,2231,2005,1763,1838,1956
246752,19132,-13660,19825,-12943,273,564,-67,-168,-208,-233,64,3808,34,44,829,1748,1851,2043,2229,2005,1767,1838,1951
247753,19188,-13612,19890,-12878,584,734,-55,-194,-204,-346,4,3836,53,33,831,1748,1851,2043,2229,2005,1767,1838,1951
248754,19268,-13560,19955,-12813,267,700,-33,-215,-199,-271,47,3866,36,43,828,1748,1851,2043,2229,2005,1767,1838,1951
249755,19344,-13484,20020,-12748,304,388,-19,-203,-190,-76,-22,3622,53,32,829,1748,1851,2043,2229,2005,1767,1838,1951
250756,19412,-13428,20085,-12683,400,649,-4,-199,-179,-37,-55,3873,43,35,832,1748,1851,2043,2229,2005,1767,1838,1951
251757,19476,-13364,20150,-12618,451,550,8,-179,-168,-67,-21,3774,35,36,829,1748,1856,2049,2232,2016,1771,1844,1966
252758,19532,-13296,20215,-12553,563,497,20,-179,-156,-51,-96,3763,48,31,830,1748,1856,2049,2232,2016,1771,1844,1966
253759,19592,-13248,20280,-12488,519,768,23,-174,-148,-31,-32,3904,49,35,829,1748,1856,2049,2232,2016,1771,1844,1966
254760,19676,-13196,20345,-12423,196,734,30,-177,-137,-164,-70,3765,36,41,828,1748,1856,2049,2232,2016,1771,1844,1966
255761,19740,-13136,20410,-12358,447,640,36,-189,-135,-83,-49,3830,42,29,830,1748,1856,2049,2232,2016,1771,1844,1966
256762,19780,-13048,20475,-12293,779,263,57,-223,-136,-278,-154,3746,49,40,829,1748,1856,2049,2232,2016,1771,1844,1966
257763,19848,-13004,20540,-12228,425,839,76,-227,-145,-424,-226,3813,32,30,828,1761,1872,2063,2243,2017,1771,1847,1973
258764,19920,-12936,20605,-12163,367,535,82,-203,-156,-256,-153,3924,45,33,827,1761,1872,2063,2243,2017,1771,1847,1973
259765,19960,-12880,20670,-12098,797,697,76,-179,-165,-25,-65,3866,42,30,830,1761,1872,2063,2243,2017,1771,1847,1973
260766,20028,-12816,20735,-12033,445,598,69,-158,-181,-19,15,4042,34,40,826,1761,1872,2063,2243,2017,1771,1847,1973
261767,20088,-12756,20800,-11968,551,654,54,-151,-189,-158,132,4067,32,35,829,1761,1872,2063,2243,2017,1771,1847,1973
262768,20136,-12692,20865,-11903,721,606,44,-156,-192,-201,138,4010,45,30,828,1769,1877,2063,2247,2011,1778,1855,1961
263769,20208,-12644,20930,-11838,414,827,30,-172,-192,-349,140,4111,36,45,828,1769,1877,2063,2247,2011,1778,1855,1961
264770,20272,-12584,20995,-11773,515,683,35,-177,-192,-239,67,4185,40,46,828,1769,1877,2063,2247,2011,1778,1855,1961
265771,20328,-12508,21060,-11708,626,470,48,-195,-184,-298,59,4016,46,32,828,1769,1877,2063,2247,2011,1778,1855,1961
266772,20408,-12468,21125,-11643,308,952,63,-221,-171,-364,21,4076,33,37,829,1769,1877,2063,2247,2011,1778,1855,1961
267773,20472,-12396,21190,-11578,510,543,82,-253,-156,-407,33,4123,43,46,828,1769,1877,2063,2247,2011,1778,1855,1961
268774,20536,-12328,21255,-11513,511,589,93,-288,-134,-371,27,4022,29,39,830,1760,1868,2060,2242,2034,1796,1865,1988
269775,20596,-12256,21320,-11448,567,532,119,-299,-127,-254,45,4214,29,46,829,1760,1868,2060,2242,2034,1796,1865,1988
270776,20648,-12192,21385,-11383,683,633,129,-310,-113,-184,15,4095,28,49,829,1760,1868,2060,2242,2034,1796,1865,1988
271777,20712,-12128,21450,-11318,535,634,148,-306,-101,-98,43,4220,46,45,828,1760,1868,2060,2242,2034,1796,1865,1988
272778,20776,-12072,21515,-11253,537,746,150,-291,-94,-74,69,4155,47,35,829,1760,1868,2060,2242,2034,1796,1865,1988
273779,20832,-12008,21580,-11188,648,647,159,-281,-103,-21,98,4015,32,47,828,1757,1868,2066,2246,2051,1801,1871,2000
274780,20868,-11936,21645,-11123,934,539,163,-274,-107,-37,-4,4032,29,34,826,1757,1868,2066,2246,2051,1801,1871,2000
275781,20936,-11880,21710,-11058,530,750,169,-261,-129,-166,34,4093,31,41,826,1757,1868,2066,2246,2051,1801,1871,2000
276782,20996,-11820,21775,-10993,636,707,159,-227,-144,-143,81,3973,48,37,828,1757,1868,2066,2246,2051,1801,1871,2000
277783,21052,-11764,21840,-10928,697,768,143,-217,-159,-25,138,3978,36,46,827,1757,1868,2066,2246,2051,1801,1871,2000
278784,21100,-11712,21905,-10863,819,834,128,-218,-170,-223,116,4061,47,49,826,1757,1868,2066,2246,2051,1801,1871,2000
279785,21176,-11636,21970,-10798,456,521,118,-221,-191,-358,249,4082,31,37,825,1773,1881,2078,2256,2040,1790,1859,1982
280786,21228,-11564,22035,-10733,772,563,122,-223,-208,-427,158,4171,50,41,830,1773,1881,2078,2256,2040,1790,1859,1982
281787,21292,-11512,22100,-10668,624,829,122,-214,-214,-294,135,4283,36,47,828,1773,1881,2078,2256,2040,1790,1859,1982
282788,21340,-11448,22165,-10603,845,681,135,-207,-216,-170,88,4179,47,38,827,1773,1881,2078,2256,2040,1790,1859,1982
283789,21404,-11388,22230,-10538,646,737,132,-209,-210,-390,126,4203,41,40,826,1773,1881,2078,2256,2040,1790,1859,1982
284790,21464,-11320,22295,-10473,703,633,128,-208,-204,-419,158,4060,49,36,827,1764,1873,2067,2244,2029,1785,1853,1977
285791,21516,-11256,22360,-10408,819,686,126,-195,-200,-263,145,4214,38,35,827,1764,1873,2067,2244,2029,1785,1853,1977
286792,21568,-11196,22425,-10343,835,742,117,-180,-174,-110,120,4158,36,41,826,1764,1873,2067,2244,2029,1785,1853,1977
287793,21632,-11144,22490,-10278,687,858,124,-164,-159,-128,201,3993,51,35,826,1764,1873,2067,2244,2029,1785,1853,1977
288794,21716,-11088,22555,-10213,414,820,135,-141,-150,-360,40,4154,55,31,826,1764,1873,2067,2244,2029,1785,1853,1977
289795,21776,-11024,22620,-10148,720,721,148,-136,-129,-193,-12,4087,47,43,828,1764,1873,2067,2244,2029,1785,1853,1977
290796,21836,-10960,22685,-10083,726,722,155,-148,-104,-122,14,3782,47,30,826,1752,1862,2060,2239,2036,1795,1861,1985
291797,21912,-10896,22750,-10018,513,724,144,-149,-78,-338,173,3798,48,33,826,1752,1862,2060,2239,2036,1795,1861,1985
292798,21992,-10836,22815,-9953,445,780,137,-141,-69,-347,216,3812,45,34,828,1752,1862,2060,2239,2036,1795,1861,1985
293799,22048,-10788,22880,-9888,756,951,137,-122,-83,-10,190,4031,33,43,828,1752,1862,2060,2239,2036,1795,1861,1985
294800,22120,-10716,22945,-9823,549,644,140,-112,-87,55,178,3931,46,43,825,1752,1862,2060,2239,2036,1795,1861,1985
295801,22172,-10648,23010,-9758,814,690,145,-95,-104,-136,334,3878,40,46,828,1753,1860,2059,2240,2043,1798,1861,1985
296802,22256,-10584,23075,-9693,391,741,147,-94,-111,-128,272,4009,34,34,826,1753,1860,2059,2240,2043,1798,1861,1985
297803,22316,-10528,23140,-9628,698,853,133,-113,-115,-105,190,3696,44,43,828,1753,1860,2059,2240,2043,1798,1861,1985
298804,22376,-10472,23205,-9563,704,864,106,-128,-119,-470,293,3748,38,33,825,1753,1860,2059,2240,2043,1798,1861,1985
299805,22440,-10404,23270,-9498,656,710,90,-114,-146,-476,528,3985,36,43,825,1753,1860,2059,2240,2043,1798,1861,1985
300806,22496,-10348,23335,-9433,768,872,93,-75,-176,21,357,4067,35,40,827,1753,1860,2059,2240,2043,1798,1861,1985
301807,22576,-10304,23400,-9368,449,1048,95,-60,-195,492,326,4017,37,34,825,1729,1827,2047,2221,2016,1763,1825,1952
302808,22628,-10252,23465,-9303,815,964,96,-81,-192,-135,254,3791,52,45,826,1729,1827,2047,2221,2016,1763,1825,1952
303809,22684,-10176,23530,-9238,777,652,79,-95,-181,-460,94,4021,41,43,824,1729,1827,2047,2221,2016,1763,1825,1952
304810,22752,-10136,23595,-9173,624,1132,70,-112,-156,-216,121,3816,41,46,826,1729,1827,2047,2221,2016,1763,1825,1952
305811,22816,-10056,23660,-9108,675,614,66,-132,-125,-104,-116,3711,54,44,824,1729,1827,2047,2221,2016,1763,1825,1952
306812,22896,-9992,23725,-9043,457,816,79,-124,-77,-259,-239,4263,41,38,827,1736,1846,2045,2211,2036,1785,1854,1989
307813,22960,-9948,23790,-8978,659,1092,75,-129,-30,-454,86,3594,49,45,827,1736,1846,2045,2211,2036,1785,1854,1989
308814,23032,-9880,23855,-8913,550,789,61,-114,1,-272,72,3775,52,27,823,1736,1846,2045,2211,2036,1785,1854,1989
309815,23104,-9828,23920,-8848,542,1005,58,-89,20,136,162,4035,45,44,827,1736,1846,2045,2211,2036,1785,1854,1989
310816,23164,-9776,23985,-8783,699,1021,53,-96,37,-102,177,3689,49,39,825,1736,1846,2045,2211,2036,1785,1854,1989
311817,23236,-9720,24050,-8718,540,983,52,-92,43,72,131,4025,48,34,824,1736,1846,2045,2211,2036,1785,1854,1989
312818,23296,-9648,24115,-8653,696,774,49,-87,44,70,222,4027,39,40,826,1737,1853,2048,2215,2043,1790,1860,1992
313819,23360,-9592,24180,-8588,648,985,46,-105,42,-10,271,3853,39,31,826,1737,1853,2048,2215,2043,1790,1860,1992
314820,23440,-9528,24245,-8523,430,887,49,-116,18,137,266,4030,37,38,825,1737,1853,2048,2215,2043,1790,1860,1992
315821,23492,-9472,24310,-8458,796,998,41,-131,8,-22,155,3762,34,33,826,1737,1853,2048,2215,2043,1790,1860,1992
316822,23552,-9428,24375,-8393,703,1175,42,-138,-10,106,277,4040,39,30,824,1737,1853,2048,2215,2043,1790,1860,1992
317823,23620,-9380,24440,-8328,599,1146,51,-119,-46,285,395,4010,35,35,823,1748,1858,2053,2230,2046,1793,1863,1988
318824,23680,-9324,24505,-8263,706,1057,62,-116,-70,275,373,4061,41,30,823,1748,1858,2053,2230,2046,1793,1863,1988
319825,23748,-9256,24570,-8198,603,904,81,-119,-80,169,324,4174,50,33,823,1748,1858,2053,2230,2046,1793,1863,1988
320826,23804,-9192,24635,-8133,764,955,101,-123,-64,-308,36,4001,34,46,826,1748,1858,2053,2230,2046,1793,1863,1988
321827,23852,-9132,24700,-8068,885,1012,117,-96,-54,-221,378,4261,46,36,824,1748,1858,2053,2230,2046,1793,1863,1988
322828,23928,-9084,24765,-8003,521,1183,107,-92,-35,71,325,3720,42,40,823,1748,1858,2053,2230,2046,1793,1863,1988
323829,23996,-9036,24830,-7938,619,1204,106,-71,-17,184,197,4194,53,37,824,1757,1865,2059,2247,2031,1786,1854,1972
324830,24052,-8984,24895,-7873,780,1171,106,-92,26,-358,62,4007,53,29,823,1757,1865,2059,2247,2031,1786,1854,1972
325831,24124,-8920,24960,-7808,571,1022,107,-95,49,-419,85,4087,38,30,820,1757,1865,2059,2247,2031,1786,1854,1972
326832,24180,-8860,25025,-7743,783,1079,122,-86,67,4,42,4154,54,34,824,1757,1865,2059,2247,2031,1786,1854,1972
327833,24248,-8792,25090,-7678,629,975,132,-121,97,-93,-4,3866,39,42,823,1757,1865,2059,2247,2031,1786,1854,1972
328834,24328,-8748,25155,-7613,461,1301,140,-148,117,-352,-7,4086,43,45,824,1771,1878,2078,2265,2017,1777,1844,1965
329835,24396,-8704,25220,-7548,608,1328,143,-141,115,56,153,4101,50,41,823,1771,1878,2078,2265,2017,1777,1844,1965
330836,24460,-8644,25285,-7483,660,1134,142,-163,113,261,79,3952,48,43,822,1771,1878,2078,2265,2017,1777,1844,1965
331837,24536,-8572,25350,-7418,496,976,154,-149,123,291,-12,4274,48,41,823,1771,1878,2078,2265,2017,1777,1844,1965
332838,24600,-8512,25415,-7353,648,1132,166,-103,121,264,55,4306,35,34,825,1771,1878,2078,2265,2017,1777,1844,1965
333839,24652,-8440,25480,-7288,814,975,175,-72,103,171,263,4165,50,30,823,1771,1878,2078,2265,2017,1777,1844,1965
334840,24720,-8404,25545,-7223,611,1460,184,-42,85,372,282,4368,36,41,823,1780,1886,2084,2264,2024,1777,1850,1976
335841,24776,-8356,25610,-7158,773,1331,179,-31,73,371,295,4073,49,32,820,1780,1886,2084,2264,2024,1777,1850,1976
336842,24852,-8300,25675,-7093,509,1243,193,-22,45,363,287,4215,47,39,820,1780,1886,2084,2264,2024,1777,1850,1976
337843,24904,-8248,25740,-7028,825,1309,209,1,30,368,333,4388,38,35,823,1780,1886,2084,2264,2024,1777,1850,1976
338844,24964,-8180,25805,-6963,732,1106,248,21,43,-86,126,4409,41,31,821,1780,1886,2084,2264,2024,1777,1850,1976
339845,25020,-8104,25870,-6898,793,993,249,2,39,-234,451,4163,33,48,823,1757,1881,2071,2237,2027,1786,1863,1973
340846,25100,-8056,25935,-6833,475,1364,253,2,28,-124,393,4216,48,43,823,1757,1881,2071,2237,2027,1786,1863,1973
341847,25152,-8004,26000,-6768,841,1330,262,-20,43,161,233,4211,39,46,822,1757,1881,2071,2237,2027,1786,1863,1973
342848,25220,-7956,26065,-6703,638,1402,273,-61,51,-80,160,4113,47,43,819,1757,1881,2071,2237,2027,1786,1863,1973
343849,25272,-7892,26130,-6638,854,1203,287,-57,62,-302,317,4343,52,32,820,1757,1881,2071,2237,2027,1786,1863,1973
344850,25336,-7824,26195,-6573,705,1151,303,-58,79,-115,157,4160,35,35,821,1757,1881,2071,2237,2027,1786,1863,1973
345851,25408,-7768,26260,-6508,598,1312,322,-81,99,-148,114,4340,37,35,822,1770,1883,2064,2248,2059,1807,1875,2002
346852,25452,-7708,26325,-6443,973,1269,319,-104,102,-177,175,4056,37,38,822,1770,1883,2064,2248,2059,1807,1875,2002
347853,25532,-7656,26390,-6378,505,1385,335,-87,97,379,134,4425,46,29,820,1770,1883,2064,2248,2059,1807,1875,2002
348854,25604,-7604,26455,-6313,597,1401,351,-79,128,275,-56,4080,53,47,822,1770,1883,2064,2248,2059,1807,1875,2002
349857,25672,-7528,26520,-6248,644,1088,354,-83,155,-73,48,3952,45,45,821,1770,1883,2064,2248,2059,1807,1875,2002
350856,25740,-7480,26585,-6183,640,1460,355,-36,163,-132,104,4383,50,46,823,1769,1882,2082,2262,2044,1796,1864,1992
351857,25808,-7396,26650,-6118,637,987,344,-38,157,242,108,3797,38,32,821,1769,1882,2082,2262,2044,1796,1864,1992
352858,25892,-7340,26715,-6053,414,1349,345,-48,145,357,116,4319,51,42,823,1769,1882,2082,2262,2044,1796,1864,1992
353859,25944,-7304,26780,-5988,830,1634,348,-44,137,282,210,4269,47,28,822,1769,1882,2082,2262,2044,1796,1864,1992
354860,25996,-7232,26845,-5923,847,1176,357,-23,116,274,189,4089,49,45,818,1769,1882,2082,2262,2044,1796,1864,1992
355861,26064,-7180,26910,-5858,643,1442,346,-54,104,-9,349,4177,38,47,821,1769,1882,2082,2262,2044,1796,1864,1992
356862,26132,-7108,26975,-5793,640,1185,343,-67,84,-28,370,4063,41,38,821,1774,1880,2076,2253,2029,1781,1851,1978
357863,26184,-7056,27040,-5728,856,1451,347,-92,60,239,119,4212,48,48,822,1774,1880,2076,2253,2029,1781,1851,1978
358864,26244,-6980,27105,-5663,763,1138,358,-94,48,116,246,4473,37,38,819,1774,1880,2076,2253,2029,1781,1851,1978
359865,26300,-6944,27170,-5598,824,1674,363,-79,40,5,328,4097,36,49,820,1774,1880,2076,2253,2029,1781,1851,1978
360866,26368,-6876,27235,-5533,671,1271,367,-78,38,83,189,4081,38,34,817,1774,1880,2076,2253,2029,1781,1851,1978
361867,26444,-6812,27300,-5468,557,1322,366,-116,40,-21,261,4158,39,41,821,1758,1863,2057,2233,2030,1780,1854,1982
362868,26516,-6744,27365,-5403,599,1269,376,-132,40,-175,196,4169,54,43,822,1758,1863,2057,2233,2030,1780,1854,1982
363869,26568,-6660,27430,-5338,866,1046,401,-114,46,-96,190,4263,37,46,822,1758,1863,2057,2233,2030,1780,1854,1982
364870,26624,-6612,27495,-5273,827,1518,410,-111,60,-55,274,3999,47,37,822,1758,1863,2057,2233,2030,1780,1854,1982
365871,26692,-6560,27560,-5208,673,1484,422,-111,73,-177,334,3861,52,47,819,1758,1863,2057,2233,2030,1780,1854,1982
366872,26744,-6504,27625,-5143,890,1446,414,-124,82,-141,406,3942,45,38,820,1747,1862,2055,2232,2030,1780,1854,1982
367873,26820,-6432,27690,-5078,577,1237,419,-131,87,101,337,3799,57,48,818,1747,1862,2055,2232,2041,1789,1863,1993
368874,26896,-6348,27755,-5013,563,1065,424,-159,90,58,309,3776,53,36,821,1747,1862,2055,2232,2041,1789,1863,1993
369875,26964,-6312,27820,-4948,660,1701,442,-168,96,-162,155,3919,42,45,823,1747,1862,2055,2232,2041,1789,1863,1993
370876,27020,-6252,27885,-4883,821,1408,453,-174,101,-152,175,3891,52,41,818,1747,1862,2055,2232,2041,1789,1863,1993
371877,27104,-6200,27950,-4818,448,1524,448,-187,89,-23,270,3692,41,34,818,1747,1862,2055,2232,2041,1789,1863,1993
372878,27168,-6144,28015,-4753,699,1485,438,-202,89,95,304,3920,36,28,820,1755,1868,2062,2237,2034,1786,1855,1981
373879,27228,-6088,28080,-4688,757,1496,440,-202,79,205,302,3938,35,41,820,1755,1868,2062,2237,2034,1786,1855,1981
374880,27308,-6036,28145,-4623,488,1563,442,-209,49,353,297,3914,35,28,818,1755,1868,2062,2237,2034,1786,1855,1981
375881,27384,-5968,28210,-4558,525,1360,467,-205,33,273,179,4111,45,23,819,1755,1868,2062,2237,2034,1786,1855,1981
376882,27440,-5932,28275,-4493,787,1796,473,-211,24,-3,407,3803,37,20,819,1755,1868,2062,2237,2034,1786,1855,1981
377883,27516,-5884,28340,-4428,523,1667,462,-191,-12,146,316,3856,40,22,815,1755,1861,2056,2224,2014,1764,1832,1960
378884,27564,-5840,28405,-4363,894,1743,451,-190,-41,478,397,3890,46,26,817,1755,1861,2056,2224,2014,1764,1832,1960
379885,27640,-5800,28470,-4298,532,1824,448,-204,-56,319,438,3997,35,34,815,1755,1861,2056,2224,2014,1764,1832,1960
380886,27696,-5768,28535,-4233,793,1965,445,-203,-66,26,437,4006,50,35,816,1755,1861,2056,2224,2014,1764,1832,1960
381887,27752,-5728,28600,-4168,804,1897,455,-209,-82,160,360,3741,50,31,813,1755,1861,2056,2224,2014,1764,1832,1960
382888,27804,-5692,28665,-4103,871,1982,455,-232,-79,-25,217,3992,42,36,813,1755,1861,2056,2224,2014,1764,1832,1960
383889,27872,-5628,28730,-4038,667,1634,482,-269,-57,-184,60,3914,37,39,812,1735,1866,2062,2207,1999,1776,1848,1976
384890,27928,-5552,28795,-3973,828,1471,478,-312,-29,-682,305,3939,39,27,816,1735,1866,2062,2207,1999,1776,1848,1976
385891,27972,-5520,28860,-3908,1004,2062,481,-315,-31,-149,366,3828,47,28,818,1735,1866,2062,2207,1999,1776,1848,1976
386892,28040,-5468,28925,-3843,701,1829,480,-329,-14,229,279,3722,56,39,812,1735,1866,2062,2207,1999,1776,1848,1976
387893,28088,-5424,28990,-3778,972,1955,488,-358,-6,-44,364,3858,57,44,814,1735,1866,2062,2207,1999,1776,1848,1976
388894,28160,-5352,29055,-3713,664,1597,500,-369,-1,-219,397,3767,54,44,813,1737,1850,2045,2221,2025,1775,1851,1983
389895,28232,-5312,29120,-3648,655,2029,520,-412,7,-181,195,3847,56,35,817,1737,1850,2045,2221,2025,1775,1851,1983
390896,28300,-5224,29185,-3583,702,1401,527,-455,24,-298,346,3796,50,35,814,1737,1850,2045,2221,2025,1775,1851,1983
391897,28380,-5172,29250,-3518,535,1868,529,-436,11,-65,401,3982,52,48,818,1737,1850,2045,2221,2025,1775,1851,1983
392898,28436,-5112,29315,-3453,845,1774,540,-407,-2,351,329,3919,43,39,818,1737,1850,2045,2221,2025,1775,1851,1983
393899,28500,-5044,29380,-3388,747,1671,540,-415,-6,256,417,3889,50,48,813,1737,1850,2045,2221,2025,1775,1851,1983
394900,28564,-4968,29445,-3323,749,1559,554,-397,-32,135,483,4022,46,48,816,1750,1864,2055,2228,2038,1781,1857,1992
395901,28632,-4896,29510,-3258,695,1600,561,-406,-80,357,417,3958,38,50,818,1750,1864,2055,2228,2038,1781,1857,1992
396902,28704,-4836,29575,-3193,637,1757,582,-420,-106,64,383,3970,50,50,817,1750,1864,2055,2228,2038,1781,1857,1992
397903,28764,-4768,29640,-3128,794,1654,580,-431,-136,-252,363,4024,46,42,817,1750,1864,2055,2228,2038,1781,1857,1992
398904,28832,-4724,29705,-3063,690,1980,586,-436,-171,64,569,4132,49,37,816,1750,1864,2055,2228,2038,1781,1857,1992
399905,28888,-4628,29770,-2998,851,1293,568,-454,-183,215,421,3798,35,42,815,1760,1868,2060,2237,2023,1774,1847,1978
400906,28952,-4564,29835,-2933,753,1694,554,-500,-194,-66,496,3996,48,36,817,1760,1868,2060,2237,2023,1774,1847,1978
401907,29020,-4496,29900,-2868,700,1642,541,-518,-187,-359,495,4052,42,40,818,1760,1868,2060,2237,2023,1774,1847,1978
402908,29056,-4444,29965,-2803,1135,1859,544,-550,-205,-30,447,3777,44,30,817,1760,1868,2060,2237,2023,1774,1847,1978
403909,29128,-4380,30030,-2738,678,1710,529,-578,-198,-170,455,4219,45,46,814,1760,1868,2060,2237,2023,1774,1847,1978
404910,29192,-4312,30095,-2673,779,1657,529,-590,-172,-276,421,4012,36,40,815,1760,1868,2060,2237,2023,1774,1847,1978
405911,29256,-4260,30160,-2608,780,1873,526,-586,-155,-86,343,4040,51,36,816,1757,1865,2062,2235,2022,1775,1842,1977
406912,29308,-4200,30225,-2543,947,1780,532,-600,-132,-71,406,4285,46,43,814,1757,1865,2062,2235,2022,1775,1842,1977
407913,29364,-4116,30290,-2478,908,1458,553,-593,-106,-13,403,4145,36,33,814,1757,1865,2062,2235,2022,1775,1842,1977
408914,29436,-4080,30355,-2413,699,2093,571,-604,-90,-134,429,4099,40,37,815,1757,1865,2062,2235,2022,1775,1842,1977
409915,29516,-4016,30420,-2348,582,1746,585,-656,-58,-203,419,3923,50,33,814,1757,1865,2062,2235,2022,1775,1842,1977
410916,29588,-3952,30485,-2283,673,1748,594,-669,-32,-146,432,4157,46,47,814,1747,1864,2065,2232,2044,1792,1856,1992
411917,29648,-3880,30550,-2218,830,1639,614,-696,-31,-245,461,4044,31,38,816,1747,1864,2065,2232,2044,1792,1856,1992
412918,29712,-3816,30615,-2153,782,1742,648,-749,-34,-389,485,4394,48,34,816,1747,1864,2065,2232,2044,1792,1856,1992
413919,29756,-3756,30680,-2088,1057,1799,681,-759,-62,-176,633,4308,42,36,815,1747,1864,2065,2232,2044,1792,1856,1992
414920,29824,-3692,30745,-2023,754,1750,689,-750,-110,107,914,4144,48,42,814,1747,1864,2065,2232,2044,1792,1856,1992
415921,29880,-3632,30810,-1958,916,1807,686,-712,-152,583,1109,3979,49,37,814,1747,1864,2065,2232,2044,1792,1856,1992
416922,29932,-3572,30875,-1893,982,1813,664,-662,-175,370,957,3880,47,35,814,1756,1865,2065,2238,2044,1786,1846,1979
417923,30004,-3492,30940,-1828,724,1546,652,-687,-208,283,901,3920,44,47,813,1756,1865,2065,2238,2044,1786,1846,1979
418924,30052,-3432,31005,-1763,1045,1803,646,-794,-232,100,635,3862,44,43,815,1756,1865,2065,2238,2044,1786,1846,1979
419925,30096,-3376,31070,-1698,1120,1864,636,-829,-266,-1281,393,5092,36,34,815,1756,1865,2065,2238,2044,1786,1846,1979
420926,30176,-3316,31135,-1633,653,1821,653,-789,-307,-658,771,4530,44,43,812,1756,1865,2065,2238,2044,1786,1846,1979
421927,30224,-3236,31200,-1568,1074,1554,660,-687,-304,1070,724,4068,39,46,813,1764,1888,2080,2250,2028,1792,1860,1997
422928,30304,-3180,31265,-1503,656,1865,628,-658,-273,729,577,3970,39,49,815,1764,1888,2080,2250,2028,1792,1860,1997
423929,30352,-3112,31330,-1438,1077,1712,598,-635,-241,-612,1030,4139,47,47,814,1764,1888,2080,2250,2028,1792,1860,1997
424930,30404,-3048,31395,-1373,1043,1764,562,-610,-221,-550,806,3573,34,45,814,1764,1888,2080,2250,2028,1792,1860,1997
425931,30476,-2968,31460,-1308,785,1546,549,-589,-202,310,614,4134,44,48,813,1764,1888,2080,2250,2028,1792,1860,1997
426932,30536,-2900,31525,-1243,942,1693,543,-590,-152,21,685,4114,48,42,814,1764,1888,2080,2250,2028,1792,1860,1997
427933,30576,-2820,31590,-1178,1222,1525,554,-602,-138,-141,550,3831,46,38,815,1771,1879,2085,2255,2047,1799,1855,1995
428934,30664,-2756,31655,-1113,595,1727,530,-675,-133,-426,644,3942,48,54,814,1771,1879,2085,2255,2047,1799,1855,1995
429935,30724,-2680,31720,-1048,951,1565,480,-690,-149,-495,534,3838,54,49,815,1771,1879,2085,2255,2047,1799,1855,1995
430936,30784,-2624,31785,-983,957,1826,424,-645,-163,-980,329,4304,37,46,816,1771,1879,2085,2255,2047,1799,1855,1995
431937,30824,-2560,31850,-918,1239,1728,402,-566,-170,-524,659,4478,46,48,814,1771,1879,2085,2255,2047,1799,1855,1995
432938,30896,-2488,31915,-853,830,1620,415,-563,-155,611,573,3520,43,55,812,1722,1824,2036,2200,2077,1821,1868,2014
433939,30948,-2416,31980,-788,1096,1612,431,-674,-171,425,636,4139,46,36,814,1722,1824,2036,2200,2077,1821,1868,2014
434940,31028,-2340,32045,-723,729,1549,445,-714,-220,-721,807,4481,56,47,815,1722,1824,2036,2200,2077,1821,1868,2014
435941,31096,-2284,32110,-658,875,1810,456,-647,-262,-215,660,3883,46,41,816,1722,1824,2036,2200,2077,1821,1868,2014
436942,31176,-2220,32175,-593,708,1713,455,-573,-268,879,726,4108,48,36,816,1722,1824,2036,2200,2077,1821,1868,2014
437943,31252,-2152,32240,-528,745,1660,435,-529,-257,652,954,3980,58,48,815,1722,1824,2036,2200,2077,1821,1868,2014
438944,31316,-2076,32305,-463,896,1546,422,-496,-275,-26,1126,4048,45,49,815,1685,1792,2005,2160,2092,1825,1875,2019
439945,31396,-2008,32370,-398,678,1644,409,-482,-295,-35,1260,4032,57,48,817,1685,1792,2005,2160,2092,1825,1875,2019
440946,31476,-1952,32435,-333,660,1805,387,-484,-318,285,1288,3736,44,43,816,1685,1792,2005,2160,2092,1825,1875,2019
441947,31556,-1892,32500,-268,642,1762,355,-475,-338,283,1330,3887,37,32,816,1685,1792,2005,2160,2092,1825,1875,2019
442948,31616,-1828,32565,-203,899,1714,317,-442,-341,195,1403,3886,37,38,816,1685,1792,2005,2160,2092,1825,1875,2019
443949,31672,-1764,32630,-138,960,1715,281,-409,-346,154,1337,3640,52,36,815,1705,1817,2024,2188,2060,1797,1857,1994
444950,31728,-1704,32695,-73,972,1772,242,-402,-332,-34,1294,3866,39,41,813,1705,1817,2024,2188,2060,1797,1857,1994
445951,31800,-1636,32760,-8,763,1670,219,-419,-329,-120,1210,3544,45,31,813,1705,1817,2024,2188,2060,1797,1857,1994
446952,31868,-1592,32825,57,810,1995,174,-443,-321,-230,931,3533,47,43,814,1705,1817,2024,2188,2060,1797,1857,1994
447953,31920,-1536,32890,122,1027,1857,146,-466,-303,-179,926,3749,41,37,815,1705,1817,2024,2188,2060,1797,1857,1994
448954,32004,-1480,32955,187,603,1868,124,-463,-277,-134,944,3701,44,41,812,1705,1817,2024,2188,2060,1797,1857,1994
449955,32044,-1416,33154,386,2034,2621,110,-467,-266,-16,844,3727,42,31,812,1721,1837,2048,2204,2036,1779,1835,1982
450956,32128,-1368,33219,451,1462,2843,109,-471,-248,-158,790,3953,47,38,814,1721,1837,2048,2204,2036,1779,1835,1982
451957,32204,-1300,33284,516,1549,2589,106,-490,-242,-77,794,3712,63,19,793,1721,1837,2048,2204,2036,1779,1835,1982
452958,32300,-1248,33349,581,1262,2806,100,-501,-228,9,601,3649,72,49,796,1721,1837,2048,2204,2036,1779,1835,1982
453959,32372,-1136,33414,646,1553,2000,107,-492,-200,134,796,3866,60,31,799,1721,1837,2048,2204,2036,1779,1835,1982
454960,32480,-1036,33479,711,1051,2107,96,-487,-192,262,949,3577,63,62,800,1719,1839,2058,2167,2005,1741,1792,1963
455961,32580,-944,33544,776,1109,2175,103,-502,-193,188,959,3756,79,67,806,1719,1839,2058,2167,2005,1741,1792,1963
456962,32684,-852,33609,841,1012,2143,102,-534,-198,230,1268,3806,74,53,810,1719,1839,2058,2167,2005,1741,1792,1963
457963,32784,-776,33674,906,1019,2330,108,-574,-221,308,1541,3549,67,66,809,1719,1839,2058,2167,2005,1741,1792,1963
458964,32884,-648,33739,971,977,1604,94,-598,-239,343,1707,3892,63,55,810,1719,1839,2058,2167,2005,1741,1792,1963
459965,32976,-572,33804,1036,1044,2241,105,-603,-257,467,1938,3734,75,72,808,1719,1839,2058,2167,2005,1741,1792,1963
460966,33056,-456,33869,1101,1176,1679,107,-621,-290,526,1916,3808,80,53,815,1707,1811,2016,2176,2011,1751,1819,1955
461967,33184,-356,33934,1166,500,1837,97,-653,-310,286,1894,4130,68,65,808,1707,1811,2016,2176,2011,1751,1819,1955
462968,33284,-260,33999,1231,807,1850,90,-669,-301,272,1892,3992,65,56,813,1707,1811,2016,2176,2011,1751,1819,1955
463969,33368,-172,34064,1296,984,1922,111,-644,-292,684,1978,4016,56,64,816,1707,1811,2016,2176,2011,1751,1819,1955
464970,33496,-72,34129,1361,358,1731,108,-685,-278,599,1634,3598,56,47,815,1707,1811,2016,2176,2011,1751,1819,1955
465971,33600,40,34194,1426,611,1523,113,-739,-247,-440,1643,4122,65,50,812,1745,1855,2055,2208,2032,1785,1853,1999
466972,33684,96,34259,1491,837,2235,110,-742,-233,-236,1696,3916,53,55,818,1745,1855,2055,2208,2032,1785,1853,1999
467973,33776,196,34324,1556,704,1643,124,-749,-209,285,1544,3775,62,47,818,1745,1855,2055,2208,2032,1785,1853,1999
468974,33860,268,34389,1621,781,1985,136,-800,-165,131,1688,3840,60,49,809,1745,1855,2055,2208,2032,1785,1853,1999
469975,33940,352,34454,1686,814,1812,151,-840,-142,-213,1673,3746,66,43,817,1745,1855,2055,2208,2032,1785,1853,1999
470976,34044,436,34519,1751,466,1790,157,-870,-127,-249,1540,3924,65,47,813,1745,1855,2055,2208,2032,1785,1853,1999
471977,34112,524,34584,1816,913,1712,186,-884,-97,-34,1456,3965,58,52,814,1753,1871,2084,2239,2041,1781,1835,1990
472978,34192,596,34649,1881,744,1904,188,-907,-60,99,1220,3679,49,55,817,1753,1871,2084,2239,2041,1781,1835,1990
473979,34264,684,34714,1946,836,1676,187,-916,-51,-45,1295,4125,61,44,815,1753,1871,2084,2239,2041,1781,1835,1990
474980,34340,772,34779,2011,773,1649,175,-925,-23,-17,1245,3895,49,43,813,1753,1871,2084,2239,2041,1781,1835,1990
475981,34424,832,34844,2076,650,2005,180,-946,-9,100,1289,4088,51,58,815,1753,1871,2084,2239,2041,1781,1835,1990
476982,34480,916,34909,2141,1011,1683,163,-953,-31,161,1485,3969,61,57,816,1771,1885,2105,2252,2028,1770,1824,1975
477983,34572,1016,34974,2206,528,1440,144,-937,-51,375,1613,4123,46,57,813,1771,1885,2105,2252,2028,1770,1824,1975
478984,34648,1088,35039,2271,715,1783,129,-944,-53,481,1658,3914,47,46,813,1771,1885,2105,2252,2028,1770,1824,1975
479985,34704,1164,35104,2336,976,1719,114,-960,-61,353,1707,4105,60,51,819,1771,1885,2105,2252,2028,1770,1824,1975
480986,34792,1240,35169,2401,548,1706,97,-978,-87,278,1711,3950,56,43,815,1771,1885,2105,2252,2028,1770,1824,1975
481987,34876,1304,35234,2466,576,1858,83,-1022,-98,104,1692,4033,58,40,813,1771,1885,2105,2252,2028,1770,1824,1975
482988,34944,1392,35299,2531,772,1530,66,-1028,-98,-59,1862,4203,48,38,817,1762,1860,2076,2232,2034,1782,1839,1981
483989,35020,1468,35364,2596,658,1667,48,-999,-108,315,1765,3867,54,41,815,1762,1860,2076,2232,2034,1782,1839,1981
484990,35100,1536,35429,2661,590,1764,33,-978,-100,552,1877,4104,46,40,817,1762,1860,2076,2232,2034,1782,1839,1981
485991,35164,1608,35494,2726,791,1706,23,-983,-74,211,1856,3838,57,39,816,1762,1860,2076,2232,2034,1782,1839,1981
486992,35248,1684,35559,2791,518,1643,16,-987,-54,65,1873,3995,46,46,816,1762,1860,2076,2232,2034,1782,1839,1981
487993,35320,1764,35624,2856,660,1575,15,-973,-33,150,1819,3975,47,38,815,1726,1827,2036,2193,2076,1819,1867,2015
488994,35392,1832,35689,2921,652,1722,22,-956,-9,120,1644,3864,56,39,817,1726,1827,2036,2193,2076,1819,1867,2015
489995,35472,1916,35754,2986,534,1499,26,-942,27,-114,1509,4038,54,52,817,1726,1827,2036,2193,2076,1819,1867,2015
490996,35548,1996,35819,3051,570,1531,28,-932,58,-204,1367,3776,56,46,816,1726,1827,2036,2193,2076,1819,1867,2015
491997,35624,2056,35884,3116,557,1787,29,-931,93,-105,1247,3859,50,41,820,1726,1827,2036,2193,2076,1819,1867,2015
492998,35684,2132,35949,3181,763,1574,31,-965,124,188,1245,3787,46,43,819,1726,1827,2036,2193,2076,1819,1867,2015
493999,35756,2208,36014,3246,604,1562,20,-998,143,-194,1079,3701,45,45,816,1695,1811,2035,2182,2096,1828,1862,2016
495000,35820,2276,36079,3311,706,1658,-21,-943,123,-337,1198,3934,43,47,817,1695,1811,2035,2182,2096,1828,1862,2016
496001,35908,2348,36144,3376,378,1600,-84,-834,122,131,1188,3661,57,48,816,1695,1811,2035,2182,2096,1828,1862,2016
497002,35972,2436,36209,3441,679,1372,-141,-750,126,580,1165,3735,40,47,816,1695,1811,2035,2182,2096,1828,1862,2016
498003,36048,2524,36274,3506,515,1344,-201,-722,129,186,1075,3796,39,51,819,1695,1811,2035,2182,2096,1828,1862,2016
499004,36116,2628,36339,3571,612,1098,-219,-688,150,-126,1139,3738,55,60,819,1708,1822,2047,2189,2068,1804,1842,1988
500005,36208,2720,36404,3636,280,1215,-230,-667,165,241,1324,3402,50,42,821,1708,1822,2047,2189,2068,1804,1842,1988
501006,36276,2808,36469,3701,576,1237,-262,-669,153,430,1200,3365,40,52,823,1708,1822,2047,2189,2068,1804,1842,1988
502007,36332,2900,36534,3766,737,1155,-305,-668,150,82,1167,3558,55,42,823,1708,1822,2047,2189,2068,1804,1842,1988
503008,36428,2984,36599,3831,199,1231,-362,-638,150,83,1286,3362,49,41,822,1708,1822,2047,2189,2068,1804,1842,1988
504009,36500,3056,36664,3896,491,1373,-422,-580,161,313,1323,3512,38,41,821,1708,1822,2047,2189,2068,1804,1842,1988
505010,36596,3120,36729,3961,153,1475,-477,-542,175,416,1390,3383,37,51,824,1695,1807,2025,2175,2047,1794,1813,1953
506011,36652,3208,36794,4026,664,1147,-516,-523,183,297,1368,3279,56,46,820,1695,1807,2025,2175,2047,1794,1813,1953
507012,36728,3288,36859,4091,400,1229,-544,-526,192,12,1359,3322,46,57,821,1695,1807,2025,2175,2047,1794,1813,1953
508013,36796,3356,36924,4156,497,1376,-562,-522,215,42,1294,3347,49,54,822,1695,1807,2025,2175,2047,1794,1813,1953
509014,36876,3448,36989,4221,328,1043,-575,-493,242,392,1224,3311,54,51,823,1695,1807,2025,2175,2047,1794,1813,1953
510015,36956,3528,37054,4286,310,1175,-590,-447,276,449,1256,3335,50,50,821,1676,1776,1988,2140,2061,1800,1840,1985
511016,37024,3600,37119,4351,456,1267,-598,-397,316,256,1297,3253,45,52,825,1676,1776,1988,2140,2061,1800,1840,1985
512017,37084,3680,37184,4416,563,1149,-615,-345,345,232,1146,3221,41,57,824,1676,1776,1988,2140,2061,1800,1840,1985
513018,37164,3772,37249,4481,294,966,-630,-297,373,365,1243,3279,58,62,821,1676,1776,1988,2140,2061,1800,1840,1985
514019,37240,3860,37314,4546,331,988,-651,-288,393,238,1204,2966,54,45,821,1676,1776,1988,2140,2061,1800,1840,1985
515020,37304,3956,37379,4611,482,851,-657,-236,436,35,1069,3332,49,54,826,1676,1776,1988,2140,2061,1800,1840,1985
516021,37380,4052,37444,4676,319,813,-666,-184,473,376,1199,2956,42,58,826,1652,1761,1975,2123,2053,1790,1832,1971
517022,37444,4144,37509,4741,470,830,-682,-184,490,288,1002,2621,48,58,826,1652,1761,1975,2123,2053,1790,1832,1971
518023,37528,4224,37574,4806,197,962,-706,-201,509,-77,915,3128,51,52,827,1652,1761,1975,2123,2053,1790,1832,1971
519024,37604,4300,37639,4871,283,1000,-740,-188,538,-65,963,2717,40,50,826,1652,1761,1975,2123,2053,1790,1832,1971
520025,37672,4388,37704,4936,380,821,-789,-138,563,294,858,2874,52,46,826,1652,1761,1975,2123,2053,1790,1832,1971
521026,37744,4464,37769,5001,321,958,-842,-100,584,421,947,2765,40,56,826,1667,1779,1994,2144,2019,1760,1805,1940
522027,37820,4520,37834,5066,258,1219,-885,-80,598,317,1019,2629,48,44,827,1667,1779,1994,2144,2019,1760,1805,1940
523028,37876,4624,37899,5131,519,571,-940,-67,595,196,899,2674,52,48,826,1667,1779,1994,2144,2019,1760,1805,1940
524029,37948,4700,37964,5196,310,909,-982,-64,603,350,956,2785,47,53,824,1667,1779,1994,2144,2019,1760,1805,1940
525032,38020,4784,38029,5261,301,786,-1016,-33,622,423,962,2714,48,46,827,1667,1779,1994,2144,2019,1760,1805,1940
526031,38108,4856,38094,5326,73,927,-1051,21,641,590,782,2769,47,54,826,1667,1779,1994,2144,2019,1760,1805,1940
527032,38180,4948,38159,5391,265,644,-1088,71,656,603,879,2822,40,57,827,1676,1784,1988,2124,2005,1743,1798,1940
528033,38264,5036,38224,5456,92,666,-1114,103,680,528,892,2620,54,54,827,1676,1784,1988,2124,2005,1743,1798,1940
529034,38328,5120,38289,5521,343,694,-1136,126,701,460,781,2796,54,45,829,1676,1784,1988,2124,2005,1743,1798,1940
530035,38416,5220,38354,5586,15,451,-1140,170,742,446,830,2886,38,56,827,1676,1784,1988,2124,2005,1743,1798,1940
531036,38480,5300,38419,5651,316,683,-1139,188,773,610,901,2630,46,42,826,1676,1784,1988,2124,2005,1743,1798,1940
532037,38544,5376,38484,5716,317,720,-1135,164,796,381,837,2752,34,43,831,1641,1750,1946,2078,2017,1759,1813,1953
533038,38612,5460,38549,5781,264,596,-1132,137,828,105,819,2816,35,58,828,1641,1750,1946,2078,2017,1759,1813,1953
534039,38692,5556,38614,5846,95,409,-1129,127,857,211,947,2812,50,46,828,1641,1750,1946,2078,2017,1759,1813,1953
535040,38764,5616,38679,5911,187,865,-1118,110,886,344,826,2721,42,53,829,1641,1750,1946,2078,2017,1759,1813,1953
536041,38816,5712,38744,5976,453,377,-1116,74,923,326,856,2791,38,51,831,1641,1750,1946,2078,2017,1759,1813,1953
537042,38888,5788,38809,6041,194,613,-1107,52,947,222,869,2817,50,42,827,1641,1750,1946,2078,2017,1759,1813,1953
538043,38968,5868,38874,6106,76,546,-1118,25,963,308,730,2838,50,47,829,1619,1741,1936,2073,2023,1760,1820,1954
539044,39040,5956,38939,6171,167,418,-1115,12,977,499,862,2906,35,42,829,1619,1741,1936,2073,2023,1760,1820,1954
540045,39100,6020,39004,6236,323,719,-1122,-3,996,399,683,2735,33,45,830,1619,1741,1936,2073,2023,1760,1820,1954
541046,39172,6104,39069,6301,165,446,-1127,-6,993,362,693,3063,40,48,831,1619,1741,1936,2073,2023,1760,1820,1954
542047,39236,6188,39134,6366,266,423,-1124,-21,991,562,636,3093,42,55,828,1619,1741,1936,2073,2023,1760,1820,1954
543048,39304,6252,39199,6431,212,674,-1108,-32,993,735,594,3055,41,46,830,1661,1791,1978,2121,2003,1744,1816,1949
544049,39380,6340,39264,6496,99,346,-1096,-43,984,672,553,3047,40,47,830,1661,1791,1978,2121,2003,1744,1816,1949
545050,39440,6420,39329,6561,305,428,-1084,-34,968,496,470,3192,43,55,829,1661,1791,1978,2121,2003,1744,1816,1949
546051,39520,6516,39394,6626,37,190,-1061,-36,976,582,486,3151,35,57,831,1661,1791,1978,2121,2003,1744,1816,1949
547052,39608,6596,39459,6691,-91,371,-1048,-51,977,556,431,3020,33,51,828,1661,1791,1978,2121,2003,1744,1816,1949
548053,39672,6684,39524,6756,210,243,-1042,-84,977,277,315,3176,51,57,832,1661,1791,1978,2121,2003,1744,1816,1949
549054,39744,6788,39589,6821,101,-4,-1029,-118,986,231,353,3242,52,51,829,1718,1848,2029,2180,1974,1724,1803,1932
550055,39824,6860,39654,6886,-17,387,-1013,-166,997,86,413,3187,48,51,832,1718,1848,2029,2180,1974,1724,1803,1932
551056,39920,6968,39719,6951,-256,-115,-989,-232,1009,46,249,3268,36,46,833,1718,1848,2029,2180,1974,1724,1803,1932
552057,40032,7040,39784,7016,-513,326,-954,-265,1030,122,301,3523,36,45,832,1718,1848,2029,2180,1974,1724,1803,1932
553058,40148,7128,39849,7081,-625,98,-924,-291,1040,182,289,3570,33,44,833,1718,1848,2029,2180,1974,1724,1803,1932
554059,40256,7244,39914,7146,-578,-314,-886,-326,1048,232,254,3607,37,55,832,1759,1883,2051,2215,1958,1719,1807,1915
555060,40328,7432,39979,7211,-137,-1364,-838,-350,1060,316,354,3622,39,56,832,1759,1883,2051,2215,1958,1719,1807,1915
556061,40400,7520,40044,7276,-145,-142,-768,-347,1073,374,566,3573,37,48,831,1759,1883,2051,2215,1958,1719,1807,1915
557062,40480,7596,40109,7341,-263,-6,-698,-391,1070,350,398,3794,34,40,821,1759,1883,2051,2215,1958,1719,1807,1915
558063,40528,7644,40174,7406,157,365,-651,-448,1022,223,261,3866,48,41,825,1759,1883,2051,2215,1958,1719,1807,1915
559064,40604,7712,40239,7471,-206,111,-609,-534,1001,16,511,3655,30,38,833,1759,1883,2051,2215,1958,1719,1807,1915
560065,40668,7784,40304,7536,-56,53,-553,-562,1001,268,560,3588,36,36,831,1774,1889,2061,2245,1950,1723,1813,1920
561066,40732,7860,40369,7601,-55,-11,-507,-547,997,714,365,3690,35,46,821,1774,1889,2061,2245,1950,1723,1813,1920
562067,40800,7928,40434,7666,-108,85,-477,-536,975,507,382,3624,40,45,832,1774,1889,2061,2245,1950,1723,1813,1920
563068,40860,7996,40499,7731,-2,81,-457,-517,942,235,227,3637,35,33,833,1774,1889,2061,2245,1950,1723,1813,1920
564069,40944,8076,40564,7796,-325,-87,-456,-481,930,185,114,3716,36,36,828,1774,1889,2061,2245,1950,1723,1813,1920
565070,40992,8156,40629,7861,145,-106,-448,-438,929,488,72,3618,34,48,832,1778,1908,2082,2283,1957,1734,1817,1920
566071,41084,8248,40694,7926,-438,-289,-435,-433,928,276,5,3478,42,41,833,1778,1908,2082,2283,1957,1734,1817,1920
567072,41116,8304,40759,7991,352,172,-423,-451,920,-135,-260,3630,34,49,832,1778,1908,2082,2283,1957,1734,1817,1920
568073,41200,8368,40824,8056,-321,74,-410,-473,905,-106,-217,3799,47,46,832,1778,1908,2082,2283,1957,1734,1817,1920
569074,41256,8440,40889,8121,40,-35,-382,-482,897,-280,-332,3528,49,48,832,1778,1908,2082,2283,1957,1734,1817,1920
570075,41328,8528,40954,8186,-169,-263,-350,-473,884,-104,-421,3848,49,51,833,1778,1908,2082,2283,1957,1734,1817,1920
571076,41404,8600,41019,8251,-232,-73,-315,-448,869,-235,-467,3810,32,44,833,1793,1891,2072,2257,1982,1761,1823,1929
572077,41476,8676,41084,8316,-191,-136,-300,-439,863,-231,-626,3868,39,48,823,1793,1891,2072,2257,1982,1761,1823,1929
573078,41536,8744,41149,8381,-36,-40,-279,-426,852,-344,-609,3905,51,41,826,1793,1891,2072,2257,1982,1761,1823,1929
574079,41608,8828,41214,8446,-194,-263,-262,-408,841,-435,-430,3840,37,51,833,1793,1891,2072,2257,1982,1761,1823,1929
575080,41684,8908,41279,8511,-258,-231,-244,-371,841,-160,-568,3907,37,54,833,1793,1891,2072,2257,1982,1761,1823,1929
576081,41772,8980,41344,8576,-436,-140,-232,-338,842,171,-607,3829,54,53,822,1735,1820,2053,2240,2013,1788,1849,1922
577082,41820,9064,41409,8641,85,-313,-234,-315,821,39,-456,3785,34,48,829,1735,1820,2053,2240,2013,1788,1849,1922
578083,41908,9160,41474,8706,-443,-502,-242,-259,804,-321,-470,3781,49,48,832,1735,1820,2053,2240,2013,1788,1849,1922
579084,42000,9224,41539,8771,-526,-100,-259,-175,807,-38,-476,3801,42,45,832,1735,1820,2053,2240,2013,1788,1849,1922
580085,42080,9288,41604,8836,-396,-99,-295,-121,802,401,-374,3525,40,50,830,1735,1820,2053,2240,2013,1788,1849,1922
581086,42160,9372,41669,8901,-414,-372,-310,-100,778,67,-432,3666,51,49,830,1735,1820,2053,2240,2013,1788,1849,1922
582087,42240,9456,41734,8966,-432,-396,-322,-72,737,6,-351,3708,51,43,831,1741,1841,2032,2230,2031,1807,1872,1971
583088,42296,9552,41799,9031,-121,-584,-329,-23,721,-121,-623,3572,43,50,832,1741,1841,2032,2230,2031,1807,1872,1971
584089,42408,9604,41864,9096,-879,-19,-347,70,709,161,-728,3954,42,48,831,1741,1841,2032,2230,2031,1807,1872,1971
585090,42476,9668,41929,9161,-333,-167,-367,149,700,170,-740,3734,44,41,825,1741,1841,2032,2230,2031,1807,1872,1971
586091,42556,9744,41994,9226,-502,-331,-389,185,679,-273,-788,3873,50,51,833,1741,1841,2032,2230,2031,1807,1872,1971
587092,42632,9820,42059,9291,-465,-344,-412,222,661,-293,-681,3824,41,47,833,1729,1825,2017,2210,2055,1819,1875,1959
588093,42724,9896,42124,9356,-698,-359,-434,188,658,0,-798,3715,43,54,832,1729,1825,2017,2210,2055,1819,1875,1959
589094,42800,9988,42189,9421,-512,-592,-434,140,649,-337,-1031,3570,60,53,831,1729,1825,2017,2210,2055,1819,1875,1959
590095,42892,10064,42254,9486,-745,-405,-423,85,635,-690,-1116,3710,45,50,832,1729,1825,2017,2210,2055,1819,1875,1959
591096,42984,10128,42319,9551,-778,-254,-399,34,624,-695,-1187,3632,50,40,830,1729,1825,2017,2210,2055,1819,1875,1959
592097,43072,10192,42384,9616,-756,-253,-393,4,619,-240,-1306,3683,64,40,832,1729,1825,2017,2210,2055,1819,1875,1959
593098,43176,10272,42449,9681,-1005,-472,-410,14,640,-69,-1436,3790,64,53,832,1702,1805,2013,2202,2049,1821,1869,1976
594099,43276,10348,42514,9746,-998,-435,-458,39,667,123,-1317,3712,66,46,832,1702,1805,2013,2202,2049,1821,1869,1976
595100,43376,10412,42579,9811,-1040,-284,-512,95,685,192,-1203,3966,60,42,831,1702,1805,2013,2202,2049,1821,1869,1976
596101,43484,10480,42644,9876,-1193,-338,-589,190,698,420,-1187,4006,58,50,831,1702,1805,2013,2202,2049,1821,1869,1976
597102,43576,10536,42709,9941,-1027,-178,-674,296,729,546,-1425,4199,68,48,832,1702,1805,2013,2202,2049,1821,1869,1976
598103,43680,10600,42774,10006,-1224,-277,-755,383,756,546,-1136,3990,68,49,830,1739,1850,2042,2228,2040,1805,1878,1992
599104,43792,10676,42839,10071,-1382,-440,-818,354,752,303,-946,3839,53,53,832,1739,1850,2042,2228,2040,1805,1878,1992
600105,43896,10736,42904,10136,-1330,-234,-864,243,730,49,-1315,3831,55,50,832,1739,1850,2042,2228,2040,1805,1878,1992
601106,43988,10800,42969,10201,-1213,-283,-889,98,721,-32,-1435,3626,61,39,831,1739,1850,2042,2228,2040,1805,1878,1992
602107,44088,10876,43034,10266,-1357,-447,-898,-33,692,-600,-1299,3940,54,42,825,1739,1850,2042,2228,2040,1805,1878,1992
603108,44216,10948,43099,10331,-1784,-406,-910,-132,673,-689,-1421,4035,61,42,832,1751,1858,2047,2203,2106,1857,1927,2052
604109,44300,11020,43164,10396,-1257,-414,-924,-231,642,161,-1280,4055,65,40,831,1751,1858,2047,2203,2106,1857,1927,2052
605110,44392,11076,43229,10461,-1391,-203,-915,-400,612,-219,-1146,3762,59,32,832,1751,1858,2047,2203,2106,1857,1927,2052
606111,44516,11128,43294,10526,-1863,-138,-860,-560,553,-402,-1194,3846,71,43,827,1751,1858,2047,2203,2106,1857,1927,2052
607112,44596,11188,43359,10591,-1333,-232,-771,-664,489,236,-1207,4017,71,33,833,1751,1858,2047,2203,2106,1857,1927,2052
608113,44696,11252,43424,10656,-1625,-281,-690,-738,423,956,-1022,3952,58,36,833,1751,1858,2047,2203,2106,1857,1927,2052
609114,44816,11316,43489,10721,-1943,-280,-654,-766,413,514,-1164,4011,62,47,833,1744,1872,2056,2232,2131,1862,1944,2065
610115,44924,11372,43554,10786,-1846,-170,-649,-683,418,855,-877,4434,67,43,830,1744,1872,2056,2232,2131,1862,1944,2065
611116,45016,11432,43619,10851,-1680,-214,-703,-545,465,481,-1414,4138,75,32,832,1744,1872,2056,2232,2131,1862,1944,2065
612117,45156,11492,43684,10916,-2371,-208,-802,-439,529,921,-1272,4078,67,35,833,1744,1872,2056,2232,2131,1862,1944,2065
613118,45252,11548,43749,10981,-1860,-147,-900,-369,608,762,-1187,4210,65,38,833,1744,1872,2056,2232,2131,1862,1944,2065
614119,45356,11616,43814,11046,-2008,-300,-1016,-369,671,198,-1349,3845,72,33,832,1800,1934,2089,2281,2012,1778,1870,1965
615120,45472,11668,43879,11111,-2221,-85,-1103,-411,701,-230,-1449,3963,68,49,832,1800,1934,2089,2281,2012,1778,1870,1965
616121,45584,11736,43944,11176,-2229,-289,-1175,-480,711,40,-1568,4128,74,38,832,1800,1934,2089,2281,2012,1778,1870,1965
617122,45696,11804,44009,11241,-2287,-293,-1223,-636,712,-124,-1823,4195,74,44,833,1800,1934,2089,2281,2012,1778,1870,1965
618123,45804,11864,44074,11306,-2290,-187,-1225,-892,685,-724,-1616,4032,59,48,832,1800,1934,2089,2281,2012,1778,1870,1965
619124,45924,11928,44139,11371,-2508,-236,-1205,-1067,642,-1086,-2000,4980,64,42,832,1800,1934,2089,2281,2012,1778,1870,1965
620125,46036,11988,44204,11436,-2466,-180,-1121,-1105,619,-318,-2401,5390,57,47,833,1784,1884,2071,2277,2043,1819,1879,1972
621126,46136,12068,44269,11501,-2360,-449,-1007,-1112,558,827,-2461,5628,58,36,832,1784,1884,2071,2277,2043,1819,1879,1972
622127,46252,12104,44334,11566,-2623,137,-864,-1030,468,1146,-2553,6398,71,43,833,1784,1884,2071,2277,2043,1819,1879,1972
623128,46348,12164,44399,11631,-2411,-157,-738,-845,361,1406,-2336,6514,55,43,832,1784,1884,2071,2277,2043,1819,1879,1972
624129,46432,12232,44464,11696,-2285,-262,-643,-692,271,1724,-2048,6090,54,35,833,1784,1884,2071,2277,2043,1819,1879,1972
625130,46580,12288,44529,11761,-3187,-101,-571,-548,212,1787,-1931,6367,59,45,833,1775,1880,2100,2338,2096,1880,1950,2020
626131,46680,12352,44594,11826,-2631,-200,-545,-439,179,1335,-1881,5425,64,42,832,1775,1880,2100,2338,2096,1880,1950,2020
627132,46768,12416,44659,11891,-2509,-198,-567,-296,162,877,-1743,5418,52,44,833,1775,1880,2100,2338,2096,1880,1950,2020
628133,46904,12480,44724,11956,-3197,-197,-626,-179,134,1025,-1416,4798,54,33,833,1775,1880,2100,2338,2096,1880,1950,2020
629134,47012,12540,44789,12021,-2900,-142,-698,-101,133,921,-1452,4870,53,37,833,1775,1880,2100,2338,2096,1880,1950,2020
630135,47104,12592,44854,12086,-2734,-26,-791,-64,150,266,-1709,4633,48,48,833,1775,1880,2100,2338,2096,1880,1950,2020
631136,47204,12648,44919,12151,-2878,-65,-860,-3,167,544,-1674,5269,58,40,832,1943,2037,2239,2583,2089,1902,1992,2009
632137,47288,12716,44984,12216,-2702,-219,-895,31,190,630,-1778,5271,55,48,832,1943,2037,2239,2583,2089,1902,1992,2009
633138,47376,12760,45049,12281,-2781,107,-880,43,211,244,-2180,5569,58,35,832,1943,2037,2239,2583,2089,1902,1992,2009
634139,47444,12820,45114,12346,-2535,-88,-808,9,216,63,-2264,5536,58,31,833,1943,2037,2239,2583,2089,1902,1992,2009
635140,47544,12876,45179,12411,-2978,-27,-677,-76,167,-140,-2138,5510,46,43,826,1943,2037,2239,2583,2089,1902,1992,2009
636141,47620,12936,45244,12476,-2693,-71,-536,-210,44,433,-1959,5192,41,33,833,1954,2041,2236,2508,2104,1900,1957,2004
637142,47704,12992,45309,12541,-2817,-10,-408,-346,-51,948,-2449,4584,43,45,834,1954,2041,2236,2508,2104,1900,1957,2004
638143,47768,13048,45374,12606,-2567,1,-288,-355,-106,1029,-2984,5317,38,46,833,1954,2041,2236,2508,2104,1900,1957,2004
639144,47852,13112,45439,12671,-2841,-98,-180,-187,-156,1878,-3263,5626,38,43,830,1954,2041,2236,2508,2104,1900,1957,2004
640145,47936,13180,45504,12736,-2865,-152,-83,87,-232,3207,-2955,6013,36,40,834,1954,2041,2236,2508,2104,1900,1957,2004
641146,48008,13248,45569,12801,-2725,-156,-10,357,-322,3347,-2788,5948,30,31,833,1954,2041,2236,2508,2104,1900,1957,2004
642147,48080,13296,45634,12866,-2734,115,18,473,-374,2416,-2716,5476,29,41,833,1861,1977,2156,2388,1985,1759,1847,1911
643148,48148,13368,45699,12931,-2689,-194,29,539,-401,1809,-2398,5631,36,31,832,1861,1977,2156,2388,1985,1759,1847,1911
644149,48208,13432,45764,12996,-2584,-93,30,585,-409,1480,-2202,5427,41,31,833,1861,1977,2156,2388,1985,1759,1847,1911
645150,48276,13484,45829,13061,-2689,73,4,568,-412,1517,-1894,4824,39,31,833,1861,1977,2156,2388,1985,1759,1847,1911
646151,48320,13524,45894,13126,-2363,253,-20,496,-427,959,-1593,4387,33,31,833,1861,1977,2156,2388,1985,1759,1847,1911
647152,48392,13576,45959,13191,-2722,119,-54,418,-461,256,-1534,4169,19,39,833,1857,1965,2110,2366,1900,1697,1818,1875
648153,48424,13632,46024,13256,-2183,80,-77,294,-484,379,-1713,4005,19,35,833,1857,1965,2110,2366,1900,1697,1818,1875
649154,48472,13668,46089,13321,-2363,365,-87,140,-513,745,-1501,3554,17,42,832,1857,1965,2110,2366,1900,1697,1818,1875
650155,48528,13716,46154,13386,-2453,236,-56,44,-572,647,-1357,3666,15,34,832,1857,1965,2110,2366,1900,1697,1818,1875
651156,48564,13740,46219,13451,-2169,586,-50,-31,-612,543,-1442,3636,28,35,832,1857,1965,2110,2366,1900,1697,1818,1875
652157,48588,13792,46284,13516,-1970,252,-11,-152,-630,975,-1644,3061,28,34,833,1857,1965,2110,2366,1900,1697,1818,1875
653158,48640,13876,46349,13581,-2305,-173,84,-192,-663,938,-1709,3412,14,46,831,1831,1939,2087,2329,2018,1796,1900,1968
654159,48664,13956,46414,13646,-1906,-141,178,-191,-682,979,-1873,3096,9,32,833,1831,1939,2087,2329,2018,1796,1900,1968
655160,48696,13996,46479,13711,-1967,390,281,-174,-701,1545,-1977,3287,7,30,833,1831,1939,2087,2329,2018,1796,1900,1968
656161,48712,14040,46544,13776,-1707,365,354,-155,-717,1621,-2008,3236,8,46,833,1831,1939,2087,2329,2018,1796,1900,1968
657162,48728,14092,46609,13841,-1648,281,414,-117,-730,1425,-1943,3465,18,41,832,1831,1939,2087,2329,2018,1796,1900,1968
658163,48748,14140,46674,13906,-1644,352,462,-79,-736,1642,-1848,3287,9,39,832,1768,1880,2054,2248,2049,1813,1886,1984
659164,48760,14192,46739,13971,-1481,318,493,-73,-738,1684,-1646,3347,6,40,833,1768,1880,2054,2248,2049,1813,1886,1984
660165,48772,14260,46804,14036,-1417,114,514,-79,-732,1394,-1658,3160,6,41,833,1768,1880,2054,2248,2049,1813,1886,1984
661166,48780,14324,46869,14101,-1297,165,530,-105,-714,1301,-1634,2997,12,36,833,1768,1880,2054,2248,2049,1813,1886,1984
662167,48784,14412,46934,14166,-1174,-163,561,-125,-695,699,-1345,3427,11,40,833,1768,1880,2054,2248,2049,1813,1886,1984
663168,48776,14476,46999,14231,-936,137,589,-101,-686,489,-1156,3252,-6,47,833,1768,1880,2054,2248,2049,1813,1886,1984
664169,48780,14548,47064,14296,-1012,29,587,-88,-667,520,-1137,3164,-3,36,833,1732,1827,2011,2211,1963,1734,1802,1874
665170,48800,14612,47129,14361,-1157,130,554,-141,-655,370,-911,3030,-9,41,833,1732,1827,2011,2211,1963,1734,1802,1874
666171,48776,14676,47194,14426,-500,131,509,-201,-639,160,-809,2986,7,31,833,1732,1827,2011,2211,1963,1734,1802,1874
667172,48776,14720,47259,14491,-720,407,476,-239,-621,157,-696,3064,-1,28,832,1732,1827,2011,2211,1963,1734,1802,1874
668173,48784,14784,47324,14556,-752,158,446,-252,-615,215,-675,3279,-2,27,826,1732,1827,2011,2211,1963,1734,1802,1874
669174,48784,14856,47389,14621,-573,50,426,-219,-604,246,-652,3382,-1,31,832,1732,1818,2004,2239,1907,1699,1769,1848
670175,48784,14912,47454,14686,-494,261,421,-212,-582,373,-693,3396,6,41,834,1732,1818,2004,2239,1907,1699,1769,1848
671176,48784,14964,47519,14751,-416,326,448,-169,-572,415,-624,3406,9,42,834,1732,1818,2004,2239,1907,1699,1769,1848
672177,48792,15028,47584,14816,-446,178,469,-137,-555,451,-634,3388,5,37,829,1732,1818,2004,2239,1907,1699,1769,1848
673178,48768,15068,47649,14881,62,507,506,-87,-531,402,-618,3432,-5,40,833,1732,1818,2004,2239,1907,1699,1769,1848
674179,48776,15128,47714,14946,-269,263,553,-33,-495,420,-603,3419,-7,40,833,1732,1818,2004,2239,1907,1699,1769,1848
675180,48776,15188,47779,15011,-90,269,607,34,-464,613,-624,3520,-6,27,832,2032,1825,2027,2243,1988,1772,1831,1935
676181,48776,15252,47844,15076,-11,221,668,98,-440,691,-483,3439,8,41,832,2032,1825,2027,2243,1988,1772,1831,1935
677182,48760,15292,47909,15141,288,551,746,160,-408,601,-427,3599,4,42,833,2032,1825,2027,2243,1988,1772,1831,1935
678183,48776,15352,47974,15206,-53,307,817,211,-386,672,-376,3490,-3,43,833,2032,1825,2027,2243,1988,1772,1831,1935
679184,48756,15424,48039,15271,500,149,892,219,-371,516,-306,3519,1,30,830,2032,1825,2027,2243,1988,1772,1831,1935
680185,48764,15472,48104,15336,220,469,940,226,-364,291,84,3112,7,29,833,1782,1874,2095,2316,2042,1815,1868,1958
681186,48752,15544,48169,15401,564,161,957,168,-338,226,292,2467,10,34,831,1782,1874,2095,2316,2042,1815,1868,1958
682187,48768,15612,48234,15466,273,207,931,116,-300,86,386,2396,2,29,831,1782,1874,2095,2316,2042,1815,1868,1958
683188,48772,15684,48299,15531,497,149,891,97,-250,67,430,2573,19,38,829,1782,1874,2095,2316,2042,1815,1868,1958
684189,48784,15732,48364,15596,462,469,881,162,-193,352,228,3357,7,28,830,1782,1874,2095,2316,2042,1815,1868,1958
685190,48800,15800,48429,15661,472,216,904,274,-161,821,230,3788,16,28,831,1782,1874,2095,2316,2042,1815,1868,1958
686191,48828,15860,48494,15726,367,322,954,388,-139,1081,150,4239,11,35,829,1836,1919,2121,2342,1988,1762,1822,1908
687192,48840,15928,48559,15791,631,218,1019,481,-119,860,62,4590,10,37,831,1836,1919,2121,2342,1988,1762,1822,1908
688193,48860,15980,48624,15856,586,434,1077,554,-116,712,216,4766,23,45,831,1836,1919,2121,2342,1988,1762,1822,1908
689194,48880,16040,48689,15921,640,340,1109,557,-98,335,201,4264,29,30,830,1836,1919,2121,2342,1988,1762,1822,1908
690195,48904,16096,48754,15986,640,400,1117,510,-61,84,184,4064,13,41,829,1836,1919,2121,2342,1988,1762,1822,1908
691196,48936,16140,48819,16051,581,576,1133,462,-35,-28,253,4564,21,34,829,1794,1877,2077,2288,1936,1721,1782,1875
692197,48964,16192,48884,16116,676,492,1131,394,-4,-132,273,3959,19,42,829,1794,1877,2077,2288,1936,1721,1782,1875
693198,49000,16252,48949,16181,611,398,1144,318,22,-62,359,4256,31,33,828,1794,1877,2077,2288,1936,1721,1782,1875
694199,49044,16304,49014,16246,537,514,1167,291,47,192,211,4671,20,38,828,1794,1877,2077,2288,1936,1721,1782,1875
695200,49092,16380,49079,16311,508,200,1216,277,41,473,352,4705,34,43,829,1794,1877,2077,2288,1936,1721,1782,1875
696201,49140,16440,49144,16376,528,406,1232,261,36,580,463,4247,40,48,829,1794,1877,2077,2288,1936,1721,1782,1875
697202,49188,16496,49209,16441,549,467,1217,244,46,588,590,3971,25,34,831,1791,1882,2099,2308,2004,1784,1850,1976
698203,49252,16564,49274,16506,350,314,1172,241,65,660,639,3837,37,36,830,1791,1882,2099,2308,2004,1784,1850,1976
699204,49304,16620,49339,16571,516,475,1129,248,82,832,644,3736,31,49,829,1791,1882,2099,2308,2004,1784,1850,1976
700205,49376,16704,49538,16770,421,265,1087,247,94,917,757,3574,31,34,829,1791,1882,2099,2308,2004,1784,1850,1976
701206,49412,16756,49603,16835,907,681,1040,277,117,899,701,3810,28,37,828,1791,1882,2099,2308,2004,1784,1850,1976
702207,49472,16828,49668,16900,613,422,1015,283,140,1008,634,3802,29,44,831,1836,1940,2158,2342,2138,1893,1949,2104
703208,49540,16904,49733,16965,509,359,1030,312,149,1137,622,4285,48,43,825,1836,1940,2158,2342,2138,1893,1949,2104
704209,49608,16972,49798,17030,505,455,1060,336,153,895,648,4576,37,38,829,1836,1940,2158,2342,2138,1893,1949,2104
705210,49664,17052,49863,17095,667,287,1097,307,129,740,707,4828,35,38,830,1836,1940,2158,2342,2138,1893,1949,2104
706211,49732,17128,49928,17160,514,324,1090,206,126,288,864,4178,42,53,829,1836,1940,2158,2342,2138,1893,1949,2104
707212,49808,17200,49993,17225,400,365,1052,49,122,-144,1072,4166,49,43,829,1836,1940,2158,2342,2138,1893,1949,2104
708213,49884,17272,50058,17290,387,356,999,-107,121,-352,902,3963,37,51,830,1777,1889,2114,2268,2209,1933,1961,2116
709214,49972,17360,50123,17355,209,128,940,-244,106,-170,924,3895,52,37,830,1777,1889,2114,2268,2209,1933,1961,2116
710215,50028,17432,50188,17420,620,320,898,-335,81,22,799,3821,46,36,831,1777,1889,2114,2268,2209,1933,1961,2116
711216,50092,17500,50253,17485,521,366,846,-399,64,388,781,4135,46,50,833,1777,1889,2114,2268,2209,1933,1961,2116
712217,50160,17576,50318,17550,467,253,785,-370,50,780,724,4443,40,37,829,1777,1889,2114,2268,2209,1933,1961,2116
713218,50224,17640,50383,17615,519,404,721,-315,33,1087,917,4526,42,37,830,1718,1838,2060,2199,2153,1873,1907,2065
714219,50316,17724,50448,17680,136,131,650,-203,7,1139,844,4656,52,36,831,1718,1838,2060,2199,2153,1873,1907,2065
715220,50372,17780,50513,17745,597,492,578,-101,-16,1262,848,4791,46,37,830,1718,1838,2060,2199,2153,1873,1907,2065
716221,50448,17844,50578,17810,333,393,501,-56,-26,833,708,4487,36,39,833,1718,1838,2060,2199,2153,1873,1907,2065
717222,50500,17908,50643,17875,649,394,428,-21,-39,680,799,4726,56,41,828,1718,1838,2060,2199,2153,1873,1907,2065
718223,50588,17980,50708,17940,171,286,356,-25,-51,381,843,4231,53,43,830,1718,1838,2060,2199,2153,1873,1907,2065
719224,50668,18044,50773,18005,253,387,300,-47,-74,258,975,4394,39,47,829,1677,1801,2021,2159,2121,1862,1891,2041
720225,50740,18112,50838,18070,344,333,236,-125,-86,-77,836,3968,54,34,832,1677,1801,2021,2159,2121,1862,1891,2041
721226,50836,18168,50903,18135,6,494,182,-185,-104,-462,819,4038,42,39,832,1677,1801,2021,2159,2121,1862,1891,2041
722227,50900,18232,50968,18200,408,395,116,-251,-118,-287,954,3987,53,43,831,1677,1801,2021,2159,2121,1862,1891,2041
723228,50960,18300,51033,18265,464,342,69,-304,-139,-100,1064,3726,32,45,832,1677,1801,2021,2159,2121,1862,1891,2041
724229,51044,18372,51098,18330,140,283,18,-328,-169,-7,990,3715,35,35,830,1684,1800,2046,2216,2160,1915,1929,2071
725230,51120,18436,51163,18395,227,384,-21,-331,-188,-130,860,3513,38,47,830,1684,1800,2046,2216,2160,1915,1929,2071
726231,51192,18496,51228,18460,269,441,-52,-288,-209,111,844,3494,37,32,833,1684,1800,2046,2216,2160,1915,1929,2071
727232,51264,18556,51293,18525,261,447,-70,-215,-231,636,747,3507,44,36,831,1684,1800,2046,2216,2160,1915,1929,2071
728233,51336,18636,51358,18590,252,178,-83,-181,-259,783,701,3174,34,40,831,1684,1800,2046,2216,2160,1915,1929,2071
729234,51412,18692,51423,18655,189,489,-100,-143,-289,467,808,3336,32,41,831,1684,1800,2046,2216,2160,1915,1929,2071
730235,51476,18752,51488,18720,340,445,-136,-50,-315,404,802,3350,34,36,832,1727,1833,2084,2262,2152,1902,1915,2033
731236,51528,18828,51553,18785,506,232,-166,49,-333,767,800,3382,27,34,831,1727,1833,2084,2262,2152,1902,1915,2033
732237,51592,18888,51618,18850,357,438,-204,116,-354,663,860,3495,31,35,830,1727,1833,2084,2262,2152,1902,1915,2033
733238,51656,18948,51683,18915,358,444,-211,159,-354,200,664,3603,46,33,831,1727,1833,2084,2262,2152,1902,1915,2033
734239,51716,19028,51748,18980,415,176,-210,163,-355,60,845,3764,36,28,829,1727,1833,2084,2262,2152,1902,1915,2033
735240,51776,19064,51813,19045,421,761,-184,170,-357,-180,627,3948,42,34,829,1743,1835,2060,2245,2023,1788,1819,1912
736241,51840,19132,51878,19110,372,358,-180,169,-346,-267,651,3954,30,38,832,1743,1835,2060,2245,2023,1788,1819,1912
737242,51892,19176,51943,19175,538,683,-162,160,-340,-407,672,4087,32,31,828,1743,1835,2060,2245,2023,1788,1819,1912
738243,51952,19236,52008,19240,444,489,-174,104,-331,-456,841,3830,45,30,831,1743,1835,2060,2245,2023,1788,1819,1912
739244,52012,19304,52073,19305,450,386,-181,83,-320,-704,876,4056,33,31,828,1743,1835,2060,2245,2023,1788,1819,1912
740245,52056,19376,52138,19370,676,327,-205,76,-317,-521,960,4011,32,46,829,1743,1835,2060,2245,2023,1788,1819,1912
741246,52112,19420,52203,19435,537,703,-214,96,-323,-298,838,4040,27,36,830,1729,1821,2031,2238,1930,1712,1772,1869
742247,52172,19504,52268,19500,493,180,-230,122,-326,-120,763,3935,48,46,829,1729,1821,2031,2238,1930,1712,1772,1869
743248,52232,19568,52333,19565,499,431,-225,171,-319,65,758,3995,40,40,828,1729,1821,2031,2238,1930,1712,1772,1869
744249,52284,19624,52398,19630,615,542,-209,228,-317,199,743,3829,34,42,831,1729,1821,2031,2238,1930,1712,1772,1869
745250,52348,19704,52463,19695,466,224,-185,314,-323,322,711,3861,43,45,829,1729,1821,2031,2238,1930,1712,1772,1869
746251,52412,19756,52528,19760,467,589,-154,382,-330,336,671,3795,33,42,828,1790,1887,2097,2302,1979,1765,1833,1954
747252,52464,19840,52593,19825,633,166,-117,409,-327,42,516,3496,45,42,831,1790,1887,2097,2302,1979,1765,1833,1954
748253,52536,19872,52658,19890,374,856,-65,401,-327,-130,462,3526,33,30,829,1790,1887,2097,2302,1979,1765,1833,1954
749254,52580,19948,52723,19955,750,293,-14,367,-321,-166,437,3280,37,34,830,1790,1887,2097,2302,1979,1765,1833,1954
750257,52648,20020,52788,20020,446,335,43,308,-309,-136,379,3243,45,29,827,1790,1887,2097,2302,1979,1765,1833,1954
751256,52696,20060,52853,20085,717,765,95,250,-294,-259,498,3249,31,34,827,1790,1887,2097,2302,1979,1765,1833,1954
752257,52764,20140,52918,20150,463,247,134,170,-277,-306,601,3352,32,34,829,1848,1940,2160,2370,2054,1829,1877,1985
753259,52832,20192,52983,20215,460,613,156,121,-251,-418,573,3507,44,41,831,1848,1940,2160,2370,2054,1829,1877,1985
754259,52892,20256,53048,20280,566,464,183,80,-232,-331,685,3740,31,30,829,1848,1940,2160,2370,2054,1829,1877,1985
755260,52956,20324,53113,20345,517,410,200,31,-215,-182,682,3769,33,30,829,1848,1940,2160,2370,2054,1829,1877,1985
756261,53020,20368,53178,20410,518,736,201,12,-196,-167,727,4036,32,33,830,1848,1940,2160,2370,2054,1829,1877,1985
757262,53084,20428,53243,20475,520,542,206,26,-174,79,763,4261,33,40,827,1845,1926,2132,2335,2013,1781,1843,1946
758263,53132,20492,53308,20540,740,493,197,31,-150,-2,670,4219,32,43,829,1845,1926,2132,2335,2013,1781,1843,1946
759264,53208,20548,53373,20605,378,604,188,63,-137,83,580,4424,31,34,827,1845,1926,2132,2335,2013,1781,1843,1946
760265,53248,20608,53438,20670,858,560,176,78,-117,170,564,4428,36,38,829,1845,1926,2132,2335,2013,1781,1843,1946
761266,53332,20676,53503,20735,285,457,172,100,-103,105,524,4624,44,41,826,1845,1926,2132,2335,2013,1781,1843,1946
762267,53376,20724,53568,20800,811,727,172,104,-97,-107,459,4415,49,42,830,1845,1926,2132,2335,2013,1781,1843,1946
763268,53428,20788,53633,20865,727,528,174,112,-97,-143,314,4578,41,36,825,1784,1872,2066,2252,1991,1762,1825,1944
764269,53508,20844,53698,20930,358,639,180,101,-90,-151,235,4402,47,40,827,1784,1872,2066,2252,1991,1762,1825,1944
765270,53556,20896,53763,20995,779,705,183,89,-84,-250,124,4261,46,30,829,1784,1872,2066,2252,1991,1762,1825,1944
766271,53600,20944,53828,21060,855,776,202,50,-96,-277,80,4383,29,40,825,1784,1872,2066,2252,1991,1762,1825,1944
767272,53664,21012,53893,21125,606,522,209,26,-95,-365,5,4198,40,35,823,1784,1872,2066,2252,1991,1762,1825,1944
768273,53716,21076,53958,21190,772,574,225,10,-90,-131,24,4050,40,38,828,1749,1851,2072,2256,2072,1836,1888,2020
769274,53780,21152,54023,21255,623,410,236,15,-89,89,39,4031,46,39,827,1749,1851,2072,2256,2072,1836,1888,2020
770275,53848,21212,54088,21320,569,616,246,28,-80,120,73,3801,31,37,829,1749,1851,2072,2256,2072,1836,1888,2020
771276,53896,21264,54153,21385,840,732,240,39,-65,58,104,3810,46,35,828,1749,1851,2072,2256,2072,1836,1888,2020
772277,53948,21332,54218,21450,807,529,231,44,-57,39,140,3667,43,41,825,1749,1851,2072,2256,2072,1836,1888,2020
773278,54004,21380,54283,21515,768,799,207,39,-42,124,165,3687,33,42,826,1749,1851,2072,2256,2072,1836,1888,2020
774279,54048,21440,54348,21580,944,655,184,37,-27,224,263,3563,46,43,825,1781,1888,2117,2316,2130,1888,1931,2049
775280,54116,21492,54413,21645,640,771,157,17,-8,234,307,3581,46,45,825,1781,1888,2117,2316,2130,1888,1931,2049
776281,54172,21544,54478,21710,801,788,138,-30,10,209,287,3832,47,32,826,1781,1888,2117,2316,2130,1888,1931,2049
777282,54220,21612,54543,21775,922,584,128,-78,31,134,233,4031,32,31,825,1781,1888,2117,2316,2130,1888,1931,2049
778283,54284,21668,54608,21840,723,745,123,-81,42,372,308,4081,44,41,826,1781,1888,2117,2316,2130,1888,1931,2049
779284,54348,21728,54673,21905,724,702,106,-53,52,630,311,4171,50,47,826,1794,1888,2106,2304,2092,1852,1893,2000
780285,54424,21788,54738,21970,561,708,91,-58,49,716,377,4112,44,40,826,1794,1888,2106,2304,2092,1852,1893,2000
781286,54488,21860,54803,22035,713,549,67,-51,49,459,231,4336,37,42,827,1794,1888,2106,2304,2092,1852,1893,2000
782287,54548,21916,54868,22100,769,760,63,-22,49,464,222,4423,34,35,827,1794,1888,2106,2304,2092,1852,1893,2000
783288,54620,21988,54933,22165,611,552,32,6,43,499,66,4411,41,34,825,1794,1888,2106,2304,2092,1852,1893,2000
784289,54680,22040,54998,22230,767,817,32,30,36,569,-17,4516,51,43,827,1794,1888,2106,2304,2092,1852,1893,2000
785290,54764,22100,55063,22295,443,724,32,12,47,249,75,4332,35,35,823,1754,1851,2059,2244,2037,1798,1847,1961
786291,54824,22172,55128,22360,750,565,63,-25,52,-126,-49,4426,49,33,828,1754,1851,2059,2244,2037,1798,1847,1961
787292,54892,22228,55193,22425,646,776,65,-45,68,-39,-190,4484,51,49,827,1754,1851,2059,2244,2037,1798,1847,1961
788293,54940,22292,55258,22490,917,677,70,-69,88,157,-39,4440,46,36,826,1754,1851,2059,2244,2037,1798,1847,1961
789294,55016,22372,55323,22555,553,459,65,-52,108,147,103,4357,32,35,825,1754,1851,2059,2244,2037,1798,1847,1961
790295,55060,22432,55388,22620,980,715,61,-55,120,147,116,4104,48,43,829,1728,1856,2070,2267,2049,1807,1867,1967
791296,55148,22480,55453,22685,402,887,30,-63,133,48,46,4006,32,35,824,1728,1856,2070,2267,2049,1807,1867,1967
792297,55196,22572,55518,22750,923,304,16,-35,165,40,119,3894,38,43,827,1728,1856,2070,2267,2049,1807,1867,1967
793298,55272,22648,55583,22815,559,490,-8,-15,181,108,194,3560,42,35,827,1728,1856,2070,2267,2049,1807,1867,1967
794299,55336,22712,55648,22880,710,642,-16,6,184,304,2,3519,37,43,828,1728,1856,2070,2267,2049,1807,1867,1967
795300,55404,22804,55713,22945,657,259,-23,29,203,417,188,3381,34,43,827,1728,1856,2070,2267,2049,1807,1867,1967
796301,55464,22848,55778,23010,763,884,-31,19,224,284,336,3486,32,42,829,1811,1917,2126,2331,2079,1841,1898,2015
797302,55532,22912,55843,23075,659,635,-32,18,230,219,274,3533,36,32,824,1811,1917,2126,2331,2079,1841,1898,2015
798303,55584,22988,55908,23140,876,472,-34,-10,227,367,322,3536,34,33,827,1811,1917,2126,2331,2079,1841,1898,2015
799304,55644,23064,55973,23205,782,459,-30,-7,231,498,335,3727,36,40,826,1811,1917,2126,2331,2079,1841,1898,2015
800305,55696,23132,56038,23270,898,555,-31,-23,225,643,320,3597,41,36,827,1811,1917,2126,2331,2079,1841,1898,2015
801306,55752,23196,56103,23335,859,606,-11,-46,231,491,95,3668,31,42,824,1810,1897,2112,2312,2072,1837,1880,1981
802307,55824,23256,56168,23400,650,662,16,-63,241,521,215,3975,35,33,824,1810,1897,2112,2312,2072,1837,1880,1981
803308,55872,23296,56233,23465,971,943,45,-56,267,443,229,4229,52,28,827,1810,1897,2112,2312,2072,1837,1880,1981
804309,55920,23356,56298,23530,992,699,67,-56,285,675,230,4143,31,43,822,1810,1897,2112,2312,2072,1837,1880,1981
805310,55988,23432,56363,23595,738,485,98,-93,301,534,183,4101,41,32,824,1810,1897,2112,2312,2072,1837,1880,1981
806311,56040,23496,56428,23660,955,637,137,-128,314,194,154,4393,35,46,827,1810,1897,2112,2312,2072,1837,1880,1981
807312,56104,23556,56493,23725,806,693,165,-142,334,184,124,4367,46,31,824,1751,1838,2051,2245,2008,1778,1825,1926
808313,56184,23612,56558,23790,588,755,197,-108,347,601,260,4309,52,31,825,1751,1838,2051,2245,2008,1778,1825,1926
809314,56224,23668,56623,23855,1119,766,213,-73,380,696,337,4310,38,32,827,1751,1838,2051,2245,2008,1778,1825,1926
810315,56296,23724,56688,23920,710,777,232,-52,416,338,402,4093,38,41,822,1751,1838,2051,2245,2008,1778,1825,1926
811316,56340,23788,56753,23985,1086,678,235,-33,442,109,499,4089,36,43,825,1751,1838,2051,2245,2008,1778,1825,1926
812317,56408,23840,56818,24050,782,844,236,-18,453,352,586,3777,44,46,823,1758,1862,2072,2276,1982,1760,1824,1928
813318,56468,23904,56883,24115,889,695,228,-33,469,215,426,3666,50,48,824,1758,1862,2072,2276,1982,1760,1824,1928
814319,56504,23968,56948,24180,1224,696,232,-55,463,247,588,3749,32,34,825,1758,1862,2072,2276,1982,1760,1824,1928
815320,56568,24020,57013,24245,876,862,219,-76,458,9,479,3538,34,43,822,1758,1862,2072,2276,1982,1760,1824,1928
816321,56620,24108,57078,24310,1042,384,212,-92,446,333,616,3547,34,49,823,1758,1862,2072,2276,1982,1760,1824,1928
817322,56692,24152,57143,24375,783,960,214,-92,431,527,703,3489,35,35,825,1758,1862,2072,2276,1982,1760,1824,1928
818323,56740,24228,57208,24440,1104,546,218,-81,416,689,578,3487,41,45,822,1827,1930,2144,2361,2020,1797,1860,1971
819324,56792,24288,57273,24505,1071,752,246,-34,403,796,520,3775,45,36,823,1827,1930,2144,2361,2020,1797,1860,1971
820325,56848,24360,57338,24570,1032,594,284,0,385,830,429,3669,33,37,822,1827,1930,2144,2361,2020,1797,1860,1971
821326,56896,24424,57403,24635,1152,696,338,38,390,697,311,3913,32,40,824,1827,1930,2144,2361,2020,1797,1860,1971
822327,56960,24488,57468,24700,954,697,396,51,385,652,464,3908,38,40,822,1827,1930,2144,2361,2020,1797,1860,1971
823328,57004,24552,57533,24765,1229,699,440,45,375,614,391,3882,45,35,824,1837,1929,2148,2346,2052,1824,1868,1974
824329,57068,24604,57598,24830,981,864,481,47,371,774,301,3953,48,47,821,1837,1929,2148,2346,2052,1824,1868,1974
825330,57124,24700,57663,24895,1092,277,515,38,382,692,405,4046,43,47,822,1837,1929,2148,2346,2052,1824,1868,1974
826331,57196,24736,57728,24960,884,1062,542,26,386,603,542,4202,40,32,825,1837,1929,2148,2346,2052,1824,1868,1974
827332,57244,24800,57793,25025,1205,713,558,26,396,570,494,4086,53,41,821,1837,1929,2148,2346,2052,1824,1868,1974
828333,57316,24836,57858,25090,896,1099,571,9,405,535,722,4266,38,31,822,1788,1876,2095,2287,2003,1788,1823,1909
829334,57380,24896,57923,25155,998,805,573,4,421,326,754,4270,49,46,821,1788,1876,2095,2287,2003,1788,1823,1909
830335,57440,24964,57988,25220,1054,701,570,11,433,378,686,4226,47,41,822,1788,1876,2095,2287,2003,1788,1823,1909
831336,57488,25024,58053,25285,1225,807,575,16,452,661,725,4120,51,40,823,1788,1876,2095,2287,2003,1788,1823,1909
832337,57556,25100,58118,25350,972,594,573,-6,478,342,609,4067,34,34,821,1788,1876,2095,2287,2003,1788,1823,1909
833338,57624,25156,58183,25415,968,856,569,2,479,325,731,4169,40,36,824,1788,1876,2095,2287,2003,1788,1823,1909
834339,57672,25208,58248,25480,1240,922,569,-1,484,353,646,4043,35,45,822,1783,1875,2087,2296,2008,1791,1851,1928
835340,57732,25256,58313,25545,1096,992,581,5,482,274,650,4183,37,36,820,1783,1875,2087,2296,2008,1791,1851,1928
836341,57780,25316,58378,25610,1266,848,594,15,475,178,526,4036,40,44,819,1783,1875,2087,2296,2008,1791,1851,1928
837342,57856,25388,58443,25675,903,690,610,43,454,530,400,4086,52,38,820,1783,1875,2087,2296,2008,1791,1851,1928
838343,57920,25472,58508,25740,1055,517,621,63,427,731,349,3867,52,36,824,1783,1875,2087,2296,2008,1791,1851,1928
839344,57972,25536,58573,25805,1221,768,630,79,412,418,308,3874,47,35,824,1784,1884,2104,2300,2050,1819,1873,1996
840345,58024,25596,58638,25870,1237,824,652,97,401,217,372,3728,49,34,821,1784,1884,2104,2300,2050,1819,1873,1996
841346,58084,25660,58703,25935,1143,775,663,96,378,173,403,3909,32,44,820,1784,1884,2104,2300,2050,1819,1873,1996
842347,58136,25724,58768,26000,1259,776,667,117,367,283,245,3848,47,51,822,1784,1884,2104,2300,2050,1819,1873,1996
843348,58196,25784,58833,26065,1166,834,683,126,363,515,250,3691,52,50,820,1784,1884,2104,2300,2050,1819,1873,1996
844349,58248,25868,58898,26130,1282,510,676,116,366,215,259,3669,39,37,821,1784,1884,2104,2300,2050,1819,1873,1996
845350,58296,25952,58963,26195,1353,487,663,103,371,134,296,3690,38,50,822,1801,1906,2129,2318,2078,1841,1887,1999
846351,58368,25996,59028,26260,1044,1013,638,108,368,394,404,3710,43,38,821,1801,1906,2129,2318,2078,1841,1887,1999
847352,58416,26068,59093,26325,1366,654,620,96,379,348,388,3688,41,43,820,1801,1906,2129,2318,2078,1841,1887,1999
848353,58484,26132,59158,26390,1112,755,594,112,394,182,443,3986,52,38,820,1801,1906,2129,2318,2078,1841,1887,1999
849354,58548,26216,59223,26455,1163,482,571,120,406,315,549,3942,38,56,822,1801,1906,2129,2318,2078,1841,1887,1999
850355,58608,26292,59288,26520,1220,569,555,122,425,319,493,3965,47,42,823,1787,1883,2099,2290,2054,1828,1872,1976
851356,58672,26348,59353,26585,1172,830,543,114,436,257,548,4110,40,52,822,1787,1883,2099,2290,2054,1828,1872,1976
852357,58732,26436,59418,26650,1228,402,534,115,453,234,574,4171,42,46,820,1787,1883,2099,2290,2054,1828,1872,1976
853358,58796,26496,59483,26715,1179,759,516,253,461,465,511,4347,39,53,821,1787,1883,2099,2290,2054,1828,1872,1976
854359,58864,26568,59548,26780,1125,600,506,208,442,909,348,3574,45,53,821,1787,1883,2099,2290,2054,1828,1872,1976
855360,58936,26652,59613,26845,1068,427,511,92,449,-95,252,4161,50,40,823,1787,1883,2099,2290,2054,1828,1872,1976
856361,58980,26724,59678,26910,1444,569,492,157,438,-308,544,4425,36,41,824,1739,1831,2051,2243,2055,1828,1866,1974
857362,59044,26780,59743,26975,1195,780,492,235,411,528,499,4147,33,50,820,1739,1831,2051,2243,2055,1828,1866,1974
858363,59100,26844,59808,27040,1306,681,482,184,405,793,296,3661,49,49,821,1739,1831,2051,2243,2055,1828,1866,1974
859364,59148,26924,59873,27105,1428,462,497,121,401,-7,379,4380,45,42,821,1739,1831,2051,2243,2055,1828,1866,1974
860365,59196,27004,59938,27170,1448,444,490,74,380,-426,547,3955,42,45,821,1739,1831,2051,2243,2055,1828,1866,1974
861366,59248,27040,60003,27235,1414,1030,477,95,346,141,511,4169,42,46,821,1732,1832,2064,2257,2071,1841,1880,1997
862367,59308,27120,60068,27300,1321,461,470,113,327,517,478,4003,43,53,817,1732,1832,2064,2257,2071,1841,1880,1997
863368,59360,27200,60133,27365,1437,443,458,100,325,312,553,3893,50,43,822,1732,1832,2064,2257,2071,1841,1880,1997
864369,59416,27288,60198,27430,1398,315,445,122,318,120,400,3871,48,50,821,1732,1832,2064,2257,2071,1841,1880,1997
865370,59472,27364,60263,27495,1409,451,413,159,311,251,512,3734,53,52,822,1732,1832,2064,2257,2071,1841,1880,1997
866371,59520,27420,60328,27560,1531,712,380,176,315,267,573,3761,34,51,821,1732,1832,2064,2257,2071,1841,1880,1997
867372,59588,27460,60393,27625,1277,943,357,201,317,235,663,3736,42,33,819,1761,1872,2114,2307,2080,1845,1893,2011
868373,59648,27536,60458,27690,1383,479,343,213,310,181,763,3968,40,37,819,1761,1872,2114,2307,2080,1845,1893,2011
869374,59696,27592,60523,27755,1555,741,323,228,301,202,671,3856,50,48,821,1761,1872,2114,2307,2080,1845,1893,2011
870375,59752,27652,60588,27820,1466,698,307,248,300,246,619,3832,51,47,817,1761,1872,2114,2307,2080,1845,1893,2011
871376,59824,27708,60653,27885,1257,759,292,234,288,232,744,3876,49,38,819,1761,1872,2114,2307,2080,1845,1893,2011
872377,59864,27760,60718,27950,1689,824,287,210,255,94,678,4013,51,32,821,1783,1924,2156,2321,2069,1819,1859,1975
873378,59924,27820,60783,28015,1445,731,286,170,220,253,730,4045,31,32,816,1783,1924,2156,2321,2069,1819,1859,1975
874379,59988,27896,60848,28080,1396,517,290,150,198,126,721,4143,49,43,819,1783,1924,2156,2321,2069,1819,1859,1975
875380,60048,27940,60913,28145,1453,943,288,134,160,109,726,4150,48,42,821,1783,1924,2156,2321,2069,1819,1859,1975
876381,60100,28008,60978,28210,1569,639,289,131,137,233,577,4211,35,34,818,1783,1924,2156,2321,2069,1819,1859,1975
877385,60140,28072,61043,28275,1750,690,283,105,125,304,717,4110,32,46,819,1783,1924,2156,2321,2069,1819,1859,1975
878383,60200,28128,61108,28340,1507,801,276,93,99,325,709,4234,37,46,816,1781,1879,2103,2294,2048,1823,1863,1971
879384,60276,28176,61173,28405,1293,922,267,92,66,374,827,4180,51,53,818,1781,1879,2103,2294,2048,1823,1863,1971
880385,60316,28248,61238,28470,1774,613,258,104,42,404,925,4321,44,40,819,1781,1879,2103,2294,2048,1823,1863,1971
881386,60368,28316,61303,28535,1641,660,249,109,14,322,913,4309,41,51,816,1781,1879,2103,2294,2048,1823,1863,1971
882387,60428,28392,61368,28600,1547,546,250,123,-6,326,802,4272,35,41,818,1781,1879,2103,2294,2048,1823,1863,1971
883388,60480,28448,61433,28665,1663,808,246,132,-23,293,917,4166,44,55,819,1766,1864,2090,2286,2040,1824,1868,1977
884389,60540,28516,61498,28730,1570,655,240,110,-38,166,864,4123,46,40,816,1766,1864,2090,2286,2040,1824,1868,1977
885390,60600,28592,61563,28795,1576,541,228,94,-55,41,773,4110,39,43,818,1766,1864,2090,2286,2040,1824,1868,1977
886391,60648,28664,61628,28860,1747,583,233,74,-67,55,966,4058,34,41,819,1766,1864,2090,2286,2040,1824,1868,1977
887392,60708,28728,61693,28925,1604,684,226,42,-78,38,907,3984,50,48,816,1766,1864,2090,2286,2040,1824,1868,1977
888393,60780,28808,61758,28990,1445,466,229,45,-87,30,825,4069,40,44,818,1766,1864,2090,2286,2040,1824,1868,1977
889394,60828,28868,61823,29055,1767,722,226,22,-99,90,925,3997,53,53,820,1775,1879,2112,2311,2068,1845,1887,2003
890395,60876,28920,61888,29120,1788,838,227,31,-106,-57,805,3961,35,47,816,1775,1879,2112,2311,2068,1845,1887,2003
891396,60936,28996,61953,29185,1644,524,227,36,-113,120,841,3963,42,47,815,1775,1879,2112,2311,2068,1845,1887,2003
892397,60988,29068,62018,29250,1761,566,228,52,-126,286,872,4076,51,44,818,1775,1879,2112,2311,2068,1845,1887,2003
893398,61052,29132,62083,29315,1612,667,225,65,-162,406,980,3956,52,40,817,1775,1879,2112,2311,2068,1845,1887,2003
894399,61104,29184,62148,29380,1778,833,224,68,-180,258,859,3968,44,42,818,1803,1907,2141,2336,2075,1846,1886,2002
895400,61156,29256,62213,29445,1795,574,209,83,-199,177,903,4012,52,51,815,1803,1907,2141,2336,2075,1846,1886,2002
896401,61224,29304,62278,29510,1591,895,200,108,-219,240,769,3999,46,47,816,1803,1907,2141,2336,2075,1846,1886,2002
897402,61280,29380,62343,29575,1753,533,190,105,-235,440,888,3913,47,53,817,1803,1907,2141,2336,2075,1846,1886,2002
898403,61344,29432,62408,29640,1654,848,176,96,-242,225,900,3997,39,53,817,1803,1907,2141,2336,2075,1846,1886,2002
899404,61408,29500,62473,29705,1656,645,162,93,-264,143,927,4117,38,39,816,1803,1907,2141,2336,2075,1846,1886,2002
900405,61484,29576,62538,29770,1493,531,150,103,-271,182,755,4176,54,43,817,1801,1896,2127,2318,2053,1826,1866,1975
901406,61528,29632,62603,29835,1919,792,140,116,-271,380,879,4235,43,50,820,1801,1896,2127,2318,2053,1826,1866,1975
902407,61592,29700,62668,29900,1671,639,128,124,-272,300,700,4152,39,44,814,1801,1896,2127,2318,2053,1826,1866,1975
903408,61648,29756,62733,29965,1782,800,115,92,-263,166,821,4102,39,43,816,1801,1896,2127,2318,2053,1826,1866,1975
904409,61692,29812,62798,30030,1958,811,106,92,-261,198,973,4272,52,50,814,1801,1896,2127,2318,2053,1826,1866,1975
905410,61760,29876,62863,30095,1655,712,96,103,-263,320,960,4386,49,49,813,1768,1861,2090,2282,2047,1824,1856,1973
906411,61816,29944,62928,30160,1816,658,89,115,-249,304,823,4273,47,45,817,1768,1861,2090,2282,2047,1824,1856,1973
907412,61872,30024,62993,30225,1828,490,88,127,-236,361,874,4315,51,55,816,1768,1861,2090,2282,2047,1824,1856,1973
908413,61936,30084,63058,30290,1729,746,88,142,-217,367,773,4163,39,46,817,1768,1861,2090,2282,2047,1824,1856,1973
909414,61980,30168,63123,30355,2006,423,87,134,-196,289,838,4036,48,43,816,1768,1861,2090,2282,2047,1824,1856,1973
910415,62028,30236,63188,30420,1977,620,74,158,-191,289,996,4172,34,56,815,1768,1861,2090,2282,2047,1824,1856,1973
911416,62092,30292,63253,30485,1778,781,65,172,-181,315,903,3892,47,40,814,1758,1854,2093,2291,2081,1854,1883,1999
912417,62132,30360,63318,30550,2109,627,59,186,-164,495,1032,3960,31,43,815,1758,1854,2093,2291,2081,1854,1883,1999
913418,62172,30420,63383,30615,2140,734,63,191,-161,311,981,3819,41,51,813,1758,1854,2093,2291,2081,1854,1883,1999
914419,62244,30472,63448,30680,1732,849,58,203,-161,275,993,3865,36,55,812,1758,1854,2093,2291,2081,1854,1883,1999
915420,62300,30528,63513,30745,1943,810,44,223,-166,517,1034,3795,53,53,815,1758,1854,2093,2291,2081,1854,1883,1999
916421,62360,30612,63578,30810,1900,437,35,249,-186,428,1100,3756,43,41,813,1791,1895,2137,2332,2108,1875,1903,2021
917422,62428,30652,63643,30875,1797,1018,19,258,-194,385,938,3713,54,45,816,1791,1895,2137,2332,2108,1875,1903,2021
918423,62496,30748,63708,30940,1794,280,1,278,-200,457,969,3705,48,50,813,1791,1895,2137,2332,2108,1875,1903,2021
919424,62560,30796,63773,31005,1845,901,-10,296,-216,442,1080,3874,53,58,818,1791,1895,2137,2332,2108,1875,1903,2021
920425,62624,30852,63838,31070,1847,812,-15,309,-223,372,941,3960,55,55,813,1791,1895,2137,2332,2108,1875,1903,2021
921426,62672,30940,63903,31135,2068,384,-22,332,-221,379,1085,4009,57,42,813,1791,1895,2137,2332,2108,1875,1903,2021
922427,62756,30988,63968,31200,1595,904,-25,340,-220,377,1051,4168,49,45,815,1790,1884,2124,2311,2063,1833,1862,1972
923428,62832,31052,64033,31265,1683,707,-30,354,-200,384,893,3978,48,43,816,1790,1884,2124,2311,2063,1833,1862,1972
924429,62888,31128,64098,31330,1944,543,-39,369,-193,439,1207,4151,43,40,817,1790,1884,2124,2311,2063,1833,1862,1972
925432,62952,31176,64163,31395,1846,914,-54,367,-185,376,960,4093,38,51,815,1790,1884,2124,2311,2063,1833,1862,1972
926431,63020,31256,64228,31460,1792,496,-69,378,-163,389,1062,4143,38,51,814,1790,1884,2124,2311,2063,1833,1862,1972
927432,63084,31320,64293,31525,1844,697,-79,388,-159,491,1313,4169,51,50,817,1766,1859,2094,2286,2027,1806,1841,1951
928433,63148,31388,64358,31590,1846,643,-90,376,-148,475,1117,4111,48,46,815,1766,1859,2094,2286,2027,1806,1841,1951
929434,63200,31456,64423,31655,2012,639,-112,386,-133,572,1272,4080,52,52,815,1766,1859,2094,2286,2027,1806,1841,1951
930435,63264,31512,64488,31720,1864,800,-116,382,-139,604,1349,3900,51,44,813,1766,1859,2094,2286,2027,1806,1841,1951
931436,63328,31576,64553,31785,1866,702,-126,357,-129,443,1321,3883,36,52,814,1766,1859,2094,2286,2027,1806,1841,1951
932437,63400,31648,64618,31850,1757,593,-124,374,-138,635,1560,3817,34,39,815,1766,1859,2094,2286,2027,1806,1841,1951
933438,63440,31708,64683,31915,2189,749,-131,371,-130,634,1346,3756,34,38,816,1764,1860,2096,2290,2052,1830,1868,1986
934439,63500,31768,64748,31980,1945,755,-129,401,-137,721,1331,3832,45,43,810,1764,1860,2096,2290,2052,1830,1868,1986
935440,63552,31828,64813,32045,2062,761,-134,413,-145,567,1492,3557,41,40,813,1764,1860,2096,2290,2052,1830,1868,1986
936441,63604,31864,64878,32110,2078,1098,-129,430,-164,628,1389,3766,45,45,812,1764,1860,2096,2290,2052,1830,1868,1986
937442,63672,31944,64943,32175,1874,529,-142,425,-189,782,1396,3546,45,41,809,1764,1860,2096,2290,2052,1830,1868,1986
938443,63728,32004,65008,32240,2036,786,-143,431,-221,602,1455,3670,46,53,815,1780,1879,2123,2311,2083,1851,1883,1999
939444,63792,32076,65073,32305,1937,627,-151,426,-245,536,1251,3696,45,41,812,1780,1879,2123,2311,2083,1851,1883,1999
940445,63860,32132,65138,32370,1885,838,-147,451,-257,599,1306,3733,41,42,814,1780,1879,2123,2311,2083,1851,1883,1999
941446,63932,32196,65203,32435,1826,739,-154,443,-271,513,1368,3752,44,56,813,1780,1879,2123,2311,2083,1851,1883,1999
942447,63988,32256,65268,32500,2038,795,-151,459,-277,381,1249,3895,38,40,814,1780,1879,2123,2311,2083,1851,1883,1999
943448,64052,32320,65333,32565,1939,747,-156,442,-274,471,1348,3789,40,54,812,1780,1879,2123,2311,2083,1851,1883,1999
944449,64136,32380,65398,32630,1667,803,-164,449,-276,368,1260,4004,50,55,813,1774,1875,2116,2296,2058,1826,1853,1969
945450,64196,32456,65463,32695,1973,589,-177,468,-270,452,1249,4014,48,47,816,1774,1875,2116,2296,2058,1826,1853,1969
946451,64264,32508,65528,32760,1870,905,-195,485,-260,540,1369,3985,50,45,814,1774,1875,2116,2296,2058,1826,1853,1969
947452,64320,32576,65593,32825,2031,701,-225,503,-252,529,1284,4109,39,47,813,1774,1875,2116,2296,2058,1826,1853,1969
948453,64376,32632,65658,32890,2043,863,-243,524,-265,612,1521,4030,51,44,812,1774,1875,2116,2296,2058,1826,1853,1969
949454,64464,32700,65723,32955,1615,710,-266,499,-268,470,1478,3811,38,60,811,1759,1855,2097,2283,2037,1807,1845,1967
950455,64508,32776,65922,33154,2356,760,-279,524,-272,250,1427,4112,38,52,817,1759,1855,2097,2283,2037,1807,1845,1967
951456,64584,32836,65987,33219,1942,966,-305,560,-280,624,1537,3973,38,51,808,1759,1855,2097,2283,2037,1807,1845,1967
952457,64644,32916,66052,33284,2149,698,-305,571,-288,694,1346,3816,33,52,811,1759,1855,2097,2283,2037,1807,1845,1967
953458,64716,32980,66117,33349,1991,899,-328,592,-302,575,1465,4123,47,63,811,1759,1855,2097,2283,2037,1807,1845,1967
954459,64772,33060,66182,33414,2203,681,-332,591,-344,612,1639,3740,48,61,812,1759,1855,2097,2283,2037,1807,1845,1967
955460,64852,33136,66247,33479,1884,717,-347,589,-355,520,1383,3721,45,65,810,1748,1840,2096,2288,2079,1855,1856,1968
956461,64928,33224,66312,33544,1922,540,-354,595,-378,662,1601,3960,59,51,814,1748,1840,2096,2288,2079,1855,1856,1968
957462,65004,33304,66377,33609,1909,622,-358,625,-399,659,1539,3757,51,61,815,1748,1840,2096,2288,2079,1855,1856,1968
958463,65092,33384,66442,33674,1731,604,-353,630,-410,623,1443,3816,48,57,815,1748,1840,2096,2288,2079,1855,1856,1968
959464,65160,33452,66507,33739,1979,750,-349,657,-433,569,1598,3843,56,60,817,1748,1840,2096,2288,2079,1855,1856,1968
960465,65244,33540,66572,33804,1756,472,-355,648,-447,376,1452,3745,46,62,814,1764,1862,2111,2300,2090,1860,1884,2005
961466,65328,33624,66637,33869,1733,499,-359,662,-466,636,1511,3687,66,53,817,1764,1862,2111,2300,2090,1860,1884,2005
962467,65412,33704,66702,33934,1710,530,-350,637,-495,380,1264,3517,66,53,817,1764,1862,2111,2300,2090,1860,1884,2005
963468,65496,33768,66767,33999,1688,731,-355,683,-504,16,1493,3760,55,63,817,1764,1862,2111,2300,2090,1860,1884,2005
964469,65556,33844,66832,34064,1994,568,-361,713,-506,367,1458,3769,63,48,816,1764,1862,2111,2300,2090,1860,1884,2005
965470,65632,33912,66897,34129,1781,664,-375,727,-494,517,1438,3709,53,56,814,1764,1862,2111,2300,2090,1860,1884,2005
966471,65724,33996,66962,34194,1549,442,-379,730,-516,457,1905,3746,62,56,816,1765,1867,2113,2295,2062,1831,1859,1977
967472,65796,34084,67027,34259,1790,364,-395,707,-518,-191,1463,3588,52,65,819,1765,1867,2113,2295,2062,1831,1859,1977
968473,65880,34160,67092,34324,1618,501,-430,734,-504,112,1425,4068,48,56,817,1765,1867,2113,2295,2062,1831,1859,1977
969474,65948,34244,67157,34389,1814,378,-462,745,-509,620,1490,3704,57,61,818,1765,1867,2113,2295,2062,1831,1859,1977
970475,66028,34328,67222,34454,1647,354,-483,737,-540,465,1662,3734,60,56,817,1765,1867,2113,2295,2062,1831,1859,1977
971476,66084,34420,67287,34519,1958,221,-508,680,-565,-160,1631,3352,55,54,819,1764,1864,2098,2280,2024,1798,1835,1954
972477,66176,34464,67352,34584,1476,847,-534,690,-572,-131,1354,3860,44,55,815,1764,1864,2098,2280,2024,1798,1835,1954
973478,66236,34568,67417,34649,1882,49,-555,730,-577,694,1374,3924,54,61,817,1764,1864,2098,2280,2024,1798,1835,1954
974479,66332,34636,67482,34714,1395,496,-563,732,-596,744,1494,3664,60,48,818,1764,1864,2098,2280,2024,1798,1835,1954
975480,66408,34716,67547,34779,1632,327,-559,665,-641,79,1591,3426,44,63,821,1764,1864,2098,2280,2024,1798,1835,1954
976481,66472,34800,67612,34844,1783,254,-571,627,-669,-233,1338,3436,62,56,819,1764,1864,2098,2280,2024,1798,1835,1954
977482,66532,34880,67677,34909,1840,286,-582,654,-689,599,1296,3617,49,49,817,1749,1846,2081,2256,2037,1810,1845,1973
978483,66620,34952,67742,34974,1462,377,-590,687,-707,1110,1370,3424,60,52,817,1749,1846,2081,2256,2037,1810,1845,1973
979484,66700,35020,67807,35039,1545,424,-579,659,-722,329,1449,3234,44,48,821,1749,1846,2081,2256,2037,1810,1845,1973
980485,66768,35092,67872,35104,1691,365,-570,607,-755,-325,1625,3326,47,48,820,1749,1846,2081,2256,2037,1810,1845,1973
981486,66856,35172,67937,35169,1414,247,-560,588,-768,-77,1421,3322,51,60,818,1749,1846,2081,2256,2037,1810,1845,1973
982487,66924,35240,68002,35234,1660,393,-570,613,-746,549,1308,3332,51,52,822,1740,1838,2074,2245,2056,1822,1858,1985
983488,67008,35316,68067,35299,1437,280,-588,612,-738,539,1453,3155,48,56,819,1740,1838,2074,2245,2056,1822,1858,1985
984489,67092,35384,68132,35364,1415,376,-590,554,-777,-26,1639,3102,56,61,822,1740,1838,2074,2245,2056,1822,1858,1985
985490,67180,35460,68197,35429,1337,263,-611,486,-795,-466,1350,2988,64,58,821,1740,1838,2074,2245,2056,1822,1858,1985
986491,67276,35532,68262,35494,1200,304,-639,486,-800,118,1234,3470,60,55,822,1740,1838,2074,2245,2056,1822,1858,1985
987492,67360,35592,68327,35559,1327,460,-652,492,-795,480,1323,3167,54,54,824,1740,1838,2074,2245,2056,1822,1858,1985
988493,67444,35680,68392,35624,1304,82,-664,463,-801,-104,1457,3080,56,42,822,1733,1834,2062,2238,2036,1802,1844,1965
989494,67528,35736,68457,35689,1282,493,-669,432,-809,-429,1315,3278,62,53,822,1733,1834,2062,2238,2036,1802,1844,1965
990495,67600,35812,68522,35754,1423,230,-683,418,-811,-78,1186,3246,64,43,822,1733,1834,2062,2238,2036,1802,1844,1965
991496,67704,35884,68587,35819,975,271,-700,431,-807,263,1202,3311,61,59,822,1733,1834,2062,2238,2036,1802,1844,1965
992497,67780,35956,68652,35884,1313,263,-722,427,-828,124,1391,3239,57,49,826,1733,1834,2062,2238,2036,1802,1844,1965
993498,67856,36008,68717,35949,1300,528,-739,397,-857,-255,1272,3033,61,52,823,1727,1828,2053,2225,2014,1782,1824,1947
994499,67948,36092,68782,36014,1067,105,-761,393,-864,-116,1060,3443,50,60,822,1727,1828,2053,2225,2014,1782,1824,1947
995500,68032,36164,68847,36079,1144,247,-787,400,-876,289,1085,3352,58,49,825,1727,1828,2053,2225,2014,1782,1824,1947
996501,68116,36228,68912,36144,1121,348,-808,390,-891,122,1099,3029,58,42,824,1727,1828,2053,2225,2014,1782,1824,1947
997502,68200,36296,68977,36209,1098,294,-819,363,-910,-222,1160,3080,53,56,824,1727,1828,2053,2225,2014,1782,1824,1947
998503,68292,36384,69042,36274,966,16,-838,346,-934,-306,981,3104,56,55,825,1727,1828,2053,2225,2014,1782,1824,1947
999504,68392,36456,69107,36339,823,208,-862,342,-951,214,887,3114,48,42,827,1728,1824,2047,2219,2016,1787,1827,1954
1000505,68464,36544,69172,36404,1165,-20,-876,319,-965,203,946,2824,62,58,827,1728,1824,2047,2219,2016,1787,1827,1954
1001506,68560,36612,69237,36469,827,226,-887,292,-989,-235,973,3156,53,55,825,1728,1824,2047,2219,2016,1787,1827,1954
1002507,68652,36680,69302,36534,845,221,-896,284,-1008,-88,983,3156,63,45,827,1728,1824,2047,2219,2016,1787,1827,1954
1003508,68728,36772,69367,36599,1032,-112,-897,274,-1010,70,914,3118,45,55,827,1728,1824,2047,2219,2016,1787,1827,1954
1004509,68816,36852,69432,36664,853,20,-897,260,-997,-56,868,2986,51,43,826,1719,1815,2043,2217,2031,1803,1847,1971
1005510,68888,36928,69497,36729,1045,57,-900,242,-1004,-148,996,3122,55,47,828,1719,1815,2043,2217,2031,1803,1847,1971
1006511,68980,37000,69562,36794,763,98,-907,225,-1007,-237,1017,3076,54,51,825,1719,1815,2043,2217,2031,1803,1847,1971
1007512,69068,37080,69627,36859,785,-20,-914,207,-1013,-45,1058,2954,49,56,828,1719,1815,2043,2217,2031,1803,1847,1971
1008513,69152,37160,69692,36924,812,-39,-931,181,-1003,-197,862,2961,46,45,828,1719,1815,2043,2217,2031,1803,1847,1971
1009514,69248,37220,69757,36989,624,218,-946,175,-1017,-66,1044,3182,62,43,828,1719,1815,2043,2217,2031,1803,1847,1971
1010515,69328,37296,69822,37054,806,4,-966,156,-1019,-64,799,3006,47,53,828,1716,1816,2037,2214,2026,1793,1842,1959
1011516,69412,37372,69887,37119,733,-9,-978,154,-1017,7,857,3384,41,51,828,1716,1816,2037,2214,2026,1793,1842,1959
1012517,69496,37448,69952,37184,710,-23,-999,145,-1007,-238,895,3042,42,42,829,1716,1816,2037,2214,2026,1793,1842,1959
1013518,69572,37516,70017,37249,797,74,-1002,140,-1015,-271,794,3295,57,56,829,1716,1816,2037,2214,2026,1793,1842,1959
1014519,69656,37592,70082,37314,674,-41,-1010,127,-1016,-184,688,3138,53,58,828,1716,1816,2037,2214,2026,1793,1842,1959
1015520,69732,37664,70147,37379,760,1,-1016,138,-1023,-215,704,3386,53,50,829,1720,1820,2034,2209,2016,1777,1831,1952
1016521,69824,37720,70212,37444,527,212,-1025,137,-1044,15,680,3004,38,51,829,1720,1820,2034,2209,2016,1777,1831,1952
1017522,69920,37800,70277,37509,440,-107,-1034,120,-1067,-60,528,3167,40,56,829,1720,1820,2034,2209,2016,1777,1831,1952
1018523,69992,37872,70342,37574,732,-15,-1056,120,-1090,-193,540,3213,39,48,830,1720,1820,2034,2209,2016,1777,1831,1952
1019524,70064,37928,70407,37639,723,196,-1058,128,-1117,-163,371,3084,54,47,829,1720,1820,2034,2209,2016,1777,1831,1952
1020525,70164,38008,70472,37704,330,-123,-1058,169,-1138,229,493,3531,56,43,828,1720,1820,2034,2209,2016,1777,1831,1952
1021526,70240,38080,70537,37769,617,-31,-1050,179,-1133,-83,424,3156,49,47,831,1728,1827,2043,2220,2006,1772,1826,1946
1022527,70328,38152,70602,37834,439,-40,-1052,170,-1134,-319,370,3248,40,40,830,1728,1827,2043,2220,2006,1772,1826,1946
1023528,70420,38224,70667,37899,356,-49,-1052,147,-1143,-358,415,3267,54,43,829,1728,1827,2043,2220,2006,1772,1826,1946
1024529,70516,38308,70732,37964,268,-222,-1048,135,-1132,-222,473,3400,36,39,831,1728,1827,2043,2220,2006,1772,1826,1946
1025530,70604,38380,70797,38029,341,-81,-1047,131,-1128,-112,395,3281,38,44,831,1728,1827,2043,2220,2006,1772,1826,1946
