%  Data file recorded 2016/9/8  22:5:7
%  Stride Frequency         = [1, 1]
%  Lead In /Lead Out        = 
%  Deltas (Fractional)      = [0.25, 0.25, 0.25],[0.25, 0.25, 0.25]
%  Phase                    = 32768
%  Experiment.py 
%  Motor Gains    = [5000, 400, 200, 0, 300, 5000, 400, 200, 0, 300]
% Columns: 
% time | Right Leg Pos | Left Leg Pos | Commanded Right Leg Pos | Commanded Left Leg Pos | DCR | DCL | GyroX | GyroY | GyroZ | AX | AY | AZ | RBEMF | LBEMF | VBatt | S1 | S2 | S3 | S4 | S5 | S6 | S7 | S8
675,-44696,-16008,-46738,-13970,-3800,3800,14,36,-18,-2,135,3898,-1,5,847,1757,1849,2067,2239,2023,1798,1855,1980
1676,-44696,-16016,-46738,-13970,-3800,3800,14,36,-19,14,139,3942,-6,5,847,1757,1849,2067,2239,2023,1798,1855,1980
2677,-44704,-16012,-46738,-13970,-3800,3800,16,36,-21,-26,144,3946,6,9,846,1760,1852,2071,2241,2026,1798,1856,1976
3678,-44696,-16004,-46738,-13970,-3800,3800,17,35,-20,-26,140,3922,8,9,847,1760,1852,2071,2241,2026,1798,1856,1976
4679,-44696,-16016,-46738,-13970,-3800,3800,16,35,-20,-3,109,3931,-6,8,847,1760,1852,2071,2241,2026,1798,1856,1976
5680,-44696,-16000,-46738,-13970,-3800,3800,17,36,-19,-12,141,3976,8,-3,847,1760,1852,2071,2241,2026,1798,1856,1976
6681,-44688,-16016,-46738,-13970,-3800,3800,16,39,-21,-17,143,3946,6,-4,847,1760,1852,2071,2241,2026,1798,1856,1976
7682,-44700,-16008,-46738,-13970,-3800,3800,13,39,-22,4,135,3949,-6,-2,847,1760,1852,2071,2241,2026,1798,1856,1976
8683,-44700,-16016,-46738,-13970,-3800,3800,13,39,-19,1,132,3916,12,4,847,1760,1852,2070,2240,2025,1798,1855,1977
9684,-44700,-16004,-46738,-13970,-3800,3800,16,38,-19,5,129,3885,-3,9,847,1760,1852,2070,2240,2025,1798,1855,1977
10685,-44700,-16020,-46738,-13970,-3800,3800,14,39,-21,18,143,3943,2,9,846,1760,1852,2070,2240,2025,1798,1855,1977
11686,-44704,-16020,-46738,-13970,-3800,3800,13,36,-21,21,124,3948,11,7,846,1760,1852,2070,2240,2025,1798,1855,1977
12687,-44708,-16016,-46738,-13970,-3800,3800,15,37,-20,17,116,3909,-6,-2,847,1760,1852,2070,2240,2025,1798,1855,1977
13688,-44696,-16020,-46738,-13970,-3800,3800,16,37,-20,12,130,3931,2,-3,847,1760,1851,2071,2240,2025,1797,1856,1977
14689,-44700,-16012,-46738,-13970,-3800,3800,14,37,-22,-1,137,3910,6,-5,847,1760,1851,2071,2240,2025,1797,1856,1977
15690,-44696,-16008,-46738,-13970,-3800,3800,11,37,-19,4,121,3925,-1,1,847,1760,1851,2071,2240,2025,1797,1856,1977
16691,-44704,-16008,-46738,-13970,-3800,3800,13,37,-21,4,140,3959,13,4,847,1760,1851,2071,2240,2025,1797,1856,1977
17692,-44700,-16016,-46738,-13970,-3800,3800,14,36,-22,0,145,3936,1,9,846,1760,1851,2071,2240,2025,1797,1856,1977
18693,-44696,-16004,-46738,-13970,-3800,3800,15,36,-22,-14,140,3908,-5,1,847,1760,1852,2071,2241,2025,1798,1855,1977
19694,-44696,-16000,-46738,-13970,-3800,3800,15,37,-24,-28,120,3896,-1,-4,846,1760,1852,2071,2241,2025,1798,1855,1977
20695,-44700,-16008,-46738,-13970,-3800,3800,15,38,-21,-20,129,3907,13,-1,846,1760,1852,2071,2241,2025,1798,1855,1977
21696,-44700,-16004,-46738,-13970,-3800,3800,15,37,-21,5,103,3942,-5,9,847,1760,1852,2071,2241,2025,1798,1855,1977
22697,-44712,-16016,-46738,-13970,-3800,3800,15,34,-24,-14,146,3958,1,7,847,1760,1852,2071,2241,2025,1798,1855,1977
23698,-44708,-16012,-46738,-13970,-3800,3800,15,33,-22,-17,134,3984,13,9,846,1760,1852,2071,2241,2025,1798,1855,1977
24699,-44704,-16008,-46738,-13970,-3800,3800,14,37,-21,-23,129,3938,-2,5,847,1762,1854,2072,2242,2024,1798,1856,1977
25700,-44684,-16012,-46738,-13970,-3800,3800,13,40,-23,-29,125,3927,-5,3,847,1762,1854,2072,2242,2024,1798,1856,1977
26701,-44708,-16016,-46738,-13970,-3800,3800,13,38,-22,-22,143,3945,8,-5,847,1762,1854,2072,2242,2024,1798,1856,1977
27702,-44700,-16008,-46738,-13970,-3800,3800,13,35,-22,16,121,3931,6,-2,846,1762,1854,2072,2242,2024,1798,1856,1977
28703,-44704,-16008,-46738,-13970,-3800,3800,15,37,-20,11,109,3926,-6,-3,846,1762,1854,2072,2242,2024,1798,1856,1977
29704,-44684,-16004,-46738,-13970,-3800,3800,15,38,-21,3,116,3915,2,0,847,1761,1852,2071,2240,2024,1798,1855,1976
30705,-44696,-16020,-46738,-13970,-3800,3800,16,38,-21,4,143,3929,11,3,847,1761,1852,2071,2240,2024,1798,1855,1976
31706,-44692,-16020,-46738,-13970,-3800,3800,17,40,-20,-4,129,3928,-5,4,847,1761,1852,2071,2240,2024,1798,1855,1976
32707,-44688,-16016,-46738,-13970,-3800,3800,17,37,-21,-3,142,3928,3,7,847,1761,1852,2071,2240,2024,1798,1855,1976
33708,-44700,-16000,-46738,-13970,-3800,3800,16,35,-21,0,133,3932,9,10,847,1761,1852,2071,2240,2024,1798,1855,1976
34709,-44700,-16012,-46738,-13970,-3800,3800,15,35,-23,-23,124,3933,-4,10,847,1761,1852,2071,2240,2024,1798,1855,1976
35710,-44704,-16004,-46738,-13970,-3800,3800,14,34,-22,-21,141,3962,-4,8,847,1759,1851,2067,2239,2022,1798,1855,1978
36711,-44696,-16020,-46738,-13970,-3800,3800,15,33,-19,-34,143,3936,12,-2,845,1759,1851,2067,2239,2022,1798,1855,1978
37712,-44696,-16004,-46738,-13970,-3800,3800,17,34,-18,-27,123,3945,-5,-5,845,1759,1851,2067,2239,2022,1798,1855,1978
38713,-44692,-16020,-46738,-13970,-3800,3800,19,37,-18,-10,141,3929,7,2,847,1759,1851,2067,2239,2022,1798,1855,1978
39714,-44700,-16008,-46738,-13970,-3800,3800,18,38,-19,-39,150,3951,3,9,847,1759,1851,2067,2239,2022,1798,1855,1978
40715,-44696,-16008,-46738,-13970,-3800,3800,17,36,-17,2,153,3930,-6,9,847,1761,1852,2071,2242,2024,1799,1855,1977
41716,-44692,-16008,-46738,-13970,-3800,3800,18,34,-17,5,127,3922,1,-2,847,1761,1852,2071,2242,2024,1799,1855,1977
42717,-44700,-16012,-46738,-13970,-3800,3800,18,35,-18,16,124,3921,12,-5,847,1761,1852,2071,2242,2024,1799,1855,1977
43718,-44700,-16008,-46738,-13970,-3800,3800,17,35,-17,3,108,3932,0,-1,846,1761,1852,2071,2242,2024,1799,1855,1977
44719,-44696,-16024,-46738,-13970,-3800,3800,18,35,-18,-30,116,3915,-6,8,847,1761,1852,2071,2242,2024,1799,1855,1977
45720,-44700,-16020,-46738,-13970,-3800,3800,18,34,-20,-12,125,3935,13,7,847,1761,1852,2071,2242,2024,1799,1855,1977
46721,-44688,-16004,-46738,-13970,-3800,3800,18,35,-18,-13,140,3930,10,6,847,1760,1853,2071,2240,2025,1797,1854,1977
47722,-44696,-16012,-46738,-13970,-3800,3800,16,37,-17,-7,132,3910,1,-1,846,1760,1853,2071,2240,2025,1797,1854,1977
48723,-44696,-16008,-46738,-13970,-3800,3800,16,35,-18,-7,130,3939,-4,-5,847,1760,1853,2071,2240,2025,1797,1854,1977
49724,-44704,-16012,-46738,-13970,-3800,3800,17,36,-17,-5,141,3909,2,-4,847,1760,1853,2071,2240,2025,1797,1854,1977
50725,-44700,-16004,-46738,-13970,-3800,3800,17,36,-19,14,144,3906,13,-5,847,1760,1853,2071,2240,2025,1797,1854,1977
51726,-44696,-16012,-46738,-13970,-3800,3800,15,36,-20,17,120,3939,-2,-5,847,1760,1853,2070,2240,2025,1798,1856,1977
52727,-44700,-16000,-46738,-13970,-3800,3800,17,37,-17,19,118,3926,-3,-5,846,1760,1853,2070,2240,2025,1798,1856,1977
53728,-44684,-16008,-46738,-13970,-3800,3800,16,36,-17,9,111,3934,13,3,845,1760,1853,2070,2240,2025,1798,1856,1977
54729,-44692,-16008,-46738,-13970,-3800,3800,18,35,-18,26,114,3929,-4,9,845,1760,1853,2070,2240,2025,1798,1856,1977
55730,-44700,-16008,-46738,-13970,-3800,3800,20,36,-21,-11,134,3941,13,8,847,1760,1853,2070,2240,2025,1798,1856,1977
56731,-44712,-16000,-46738,-13970,-3800,3800,19,36,-20,-15,123,3937,7,3,847,1760,1853,2070,2240,2025,1798,1856,1977
57732,-44696,-16004,-46738,-13970,-3800,3800,19,36,-18,-12,143,3913,-6,0,847,1760,1853,2070,2240,2025,1798,1855,1977
58733,-44688,-16008,-46738,-13970,-3800,3800,16,36,-18,-15,113,3927,-1,-1,847,1760,1853,2070,2240,2025,1798,1855,1977
59734,-44692,-16012,-46738,-13970,-3800,3800,17,38,-20,2,120,3944,9,-5,846,1760,1853,2070,2240,2025,1798,1855,1977
60735,-44700,-16012,-46738,-13970,-3800,3800,19,37,-19,7,146,3941,6,-4,847,1760,1853,2070,2240,2025,1798,1855,1977
61736,-44696,-16008,-46738,-13970,-3800,3800,18,35,-20,-22,136,3954,-5,-4,847,1760,1853,2070,2240,2025,1798,1855,1977
62737,-44704,-16000,-46738,-13970,-3800,3800,15,35,-22,-5,136,3941,-2,5,847,1761,1854,2072,2244,2028,1800,1856,1980
63738,-44700,-16016,-46738,-13970,-3800,3800,15,35,-21,-11,138,3926,11,10,846,1761,1854,2072,2244,2028,1800,1856,1980
64739,-44696,-16012,-46738,-13970,-3800,3800,14,36,-21,0,137,3937,-6,9,847,1761,1854,2072,2244,2028,1800,1856,1980
65740,-44692,-16008,-46738,-13970,-3800,3800,15,36,-21,8,130,3961,2,3,847,1761,1854,2072,2244,2028,1800,1856,1980
66741,-44708,-16012,-46738,-13970,-3800,3800,16,36,-20,-4,126,3932,11,-5,847,1761,1854,2072,2244,2028,1800,1856,1980
67742,-44700,-16016,-46738,-13970,-3800,3800,17,37,-20,6,134,3935,0,-2,846,1761,1854,2072,2244,2028,1800,1856,1980
68743,-44692,-16012,-46738,-13970,-3800,3800,16,35,-20,-3,129,3951,-6,9,847,1760,1854,2071,2240,2026,1798,1855,1977
69744,-44700,-16016,-46738,-13970,-3800,3800,15,34,-20,-25,120,3987,13,7,846,1760,1854,2071,2240,2026,1798,1855,1977
70745,-44700,-16004,-46738,-13970,-3800,3800,14,35,-23,-26,143,3996,3,-1,846,1760,1854,2071,2240,2026,1798,1855,1977
71746,-44704,-16020,-46738,-13970,-3800,3800,13,36,-24,-5,131,3972,5,-4,846,1760,1854,2071,2240,2026,1798,1855,1977
72747,-44708,-16008,-46738,-13970,-3800,3800,15,35,-23,23,151,3933,5,5,846,1760,1854,2071,2240,2026,1798,1855,1977
73748,-44704,-16008,-46738,-13970,-3800,3800,15,37,-21,5,132,3922,-3,9,847,1760,1853,2071,2240,2025,1798,1855,1977
74749,-44696,-16008,-46738,-13970,-3800,3800,14,36,-23,2,113,3938,-2,2,847,1760,1853,2071,2240,2025,1798,1855,1977
75750,-44712,-16012,-46738,-13970,-3800,3800,16,36,-23,8,131,3946,12,-5,847,1760,1853,2071,2240,2025,1798,1855,1977
76751,-44700,-16012,-46738,-13970,-3800,3800,16,38,-22,14,151,3948,0,0,847,1760,1853,2071,2240,2025,1798,1855,1977
77752,-44712,-16008,-46738,-13970,-3800,3800,15,36,-23,4,126,3965,-5,10,847,1760,1853,2071,2240,2025,1798,1855,1977
78753,-44704,-16012,-46738,-13970,-3800,3800,15,37,-24,5,138,3933,11,3,846,1760,1853,2071,2240,2025,1798,1855,1977
79754,-44700,-16016,-46738,-13970,-3800,3800,16,37,-23,-6,144,3923,10,-3,847,1760,1853,2071,2240,2025,1798,1856,1977
80755,-44696,-16012,-46738,-13970,-3800,3800,16,38,-20,-19,148,3901,-1,-3,847,1760,1853,2071,2240,2025,1798,1856,1977
81756,-44696,-16012,-46738,-13970,-3800,3800,14,37,-19,16,133,3921,5,7,846,1760,1853,2071,2240,2025,1798,1856,1977
82757,-44700,-16000,-46738,-13970,-3800,3800,15,34,-20,14,121,3899,12,9,847,1760,1853,2071,2240,2025,1798,1856,1977
83758,-44700,-16016,-46738,-13970,-3800,3800,15,37,-21,11,121,3915,-4,7,846,1760,1853,2071,2240,2025,1798,1856,1977
84759,-44700,-16020,-46738,-13970,-3800,3800,14,37,-20,-1,112,3929,6,-5,847,1760,1853,2071,2241,2024,1798,1855,1978
85760,-44704,-16012,-46738,-13970,-3800,3800,12,36,-21,-1,120,3913,11,-4,847,1760,1853,2071,2241,2024,1798,1855,1978
86761,-44696,-16008,-46738,-13970,-3800,3800,13,35,-23,-19,139,3945,-1,4,846,1760,1853,2071,2241,2024,1798,1855,1978
87762,-44704,-16012,-46738,-13970,-3800,3800,17,37,-21,-12,138,3948,4,6,845,1760,1853,2071,2241,2024,1798,1855,1978
88763,-44704,-16008,-46738,-13970,-3800,3800,17,37,-20,-4,125,3936,8,-5,845,1760,1853,2071,2241,2024,1798,1855,1978
89764,-44700,-16016,-46738,-13970,-3800,3800,17,36,-20,-8,118,3935,-6,5,846,1760,1853,2071,2241,2024,1798,1855,1978
90765,-44712,-16012,-46738,-13970,-3800,3800,17,36,-20,-10,84,3916,7,6,847,1760,1854,2072,2241,2025,1800,1856,1977
91766,-44700,-16000,-46738,-13970,-3800,3800,19,38,-18,-17,101,3921,13,-3,846,1760,1854,2072,2241,2025,1800,1856,1977
92767,-44696,-16008,-46738,-13970,-3800,3800,17,39,-21,-28,138,3936,0,1,847,1760,1854,2072,2241,2025,1800,1856,1977
93768,-44700,-15996,-46738,-13970,-3800,3800,16,39,-22,-9,131,3947,-2,9,846,1760,1854,2072,2241,2025,1800,1856,1977
94769,-44696,-16016,-46738,-13970,-3800,3800,14,37,-21,-5,138,3958,12,-1,847,1760,1854,2072,2241,2025,1800,1856,1977
95770,-44696,-16008,-46738,-13970,-3800,3800,15,35,-20,2,125,3935,7,1,847,1760,1854,2071,2240,2024,1797,1856,1977
96771,-44708,-16012,-46738,-13970,-3800,3800,11,35,-21,-16,121,3909,-5,4,847,1760,1854,2071,2240,2024,1797,1856,1977
97772,-44704,-16008,-46738,-13970,-3800,3800,14,36,-21,-18,143,3933,10,-5,847,1760,1854,2071,2240,2024,1797,1856,1977
98773,-44704,-16008,-46738,-13970,-3800,3800,16,35,-20,-3,130,3925,8,4,847,1760,1854,2071,2240,2024,1797,1856,1977
99774,-44696,-16016,-46738,-13970,-3800,3800,15,33,-18,-3,130,3895,0,5,847,1760,1854,2071,2240,2024,1797,1856,1977
100775,-44692,-16008,-46738,-13970,-3800,3800,15,34,-16,-23,145,3916,13,-3,847,1760,1854,2071,2240,2024,1797,1856,1977
101776,-44700,-16008,-46738,-13970,-3800,3800,16,37,-15,-17,132,3920,3,1,846,1760,1853,2070,2241,2025,1797,1855,1975
102777,-44700,-16020,-46738,-13970,-3800,3800,17,38,-17,1,110,3954,3,9,847,1760,1853,2070,2241,2025,1797,1855,1975
103778,-44700,-16000,-46738,-13970,-3800,3800,16,37,-21,9,109,3961,10,2,847,1760,1853,2070,2241,2025,1797,1855,1975
104779,-44700,-16016,-46738,-13970,-3800,3800,15,36,-21,-10,125,3934,-1,-2,845,1760,1853,2070,2241,2025,1797,1855,1975
105780,-44704,-16012,-46738,-13970,-3800,3800,16,37,-20,-5,129,3910,14,9,845,1760,1853,2070,2241,2025,1797,1855,1975
106781,-44704,-16020,-46738,-13970,-3800,3800,17,38,-21,-11,115,3934,-4,2,847,1760,1853,2070,2240,2025,1798,1856,1977
107782,-44704,-16008,-46738,-13970,-3800,3800,17,38,-21,-32,113,3936,-1,-5,847,1760,1853,2070,2240,2025,1798,1856,1977
108783,-44708,-16008,-46738,-13970,-3800,3800,18,34,-18,-23,139,3951,12,2,846,1760,1853,2070,2240,2025,1798,1856,1977
109784,-44700,-16008,-46738,-13970,-3800,3800,19,34,-17,-15,133,3970,-2,2,846,1760,1853,2070,2240,2025,1798,1856,1977
110785,-44700,-16012,-46738,-13970,-3800,3800,19,38,-18,-16,116,3962,3,8,846,1760,1853,2070,2240,2025,1798,1856,1977
111786,-44704,-16016,-46738,-13970,-3800,3800,18,39,-19,-17,127,3930,7,6,847,1760,1853,2070,2240,2025,1798,1856,1977
112787,-44704,-16004,-46738,-13970,-3800,3800,18,37,-18,-14,110,3908,-6,2,847,1759,1853,2070,2240,2025,1797,1855,1977
113788,-44712,-16008,-46738,-13970,-3800,3800,15,35,-18,-5,125,3933,7,-5,846,1759,1853,2070,2240,2025,1797,1855,1977
114789,-44712,-16008,-46738,-13970,-3800,3800,16,35,-20,-20,121,3930,4,-2,847,1759,1853,2070,2240,2025,1797,1855,1977
115790,-44704,-16016,-46738,-13970,-3800,3800,17,36,-21,-29,129,3947,-6,1,847,1759,1853,2070,2240,2025,1797,1855,1977
116791,-44692,-16004,-46738,-13970,-3800,3800,18,35,-22,-21,144,3890,11,9,847,1759,1853,2070,2240,2025,1797,1855,1977
117792,-44700,-16012,-46738,-13970,-3800,3800,18,31,-21,4,133,3899,-3,8,847,1762,1855,2072,2242,2026,1800,1857,1978
118793,-44700,-16012,-46738,-13970,-3800,3800,19,32,-20,4,156,3895,-5,1,846,1762,1855,2072,2242,2026,1800,1857,1978
119794,-44696,-16004,-46738,-13970,-3800,3800,18,36,-20,-8,148,3923,9,-4,847,1762,1855,2072,2242,2026,1800,1857,1978
120795,-44696,-15996,-46738,-13970,-3800,3800,16,36,-19,-1,141,3929,-2,9,847,1762,1855,2072,2242,2026,1800,1857,1978
121796,-44696,-16008,-46738,-13970,-3800,3800,16,36,-22,-16,143,3952,1,4,845,1762,1855,2072,2242,2026,1800,1857,1978
122797,-44684,-16004,-46738,-13970,-3800,3800,17,35,-22,7,151,3957,5,2,845,1762,1855,2072,2242,2026,1800,1857,1978
123798,-44700,-16004,-46738,-13970,-3800,3800,14,35,-21,6,136,3917,9,7,847,1760,1854,2071,2240,2025,1798,1855,1977
124799,-44704,-16012,-46738,-13970,-3800,3800,16,36,-21,-25,115,3888,6,-2,846,1760,1854,2071,2240,2025,1798,1855,1977
125800,-44708,-16004,-46738,-13970,-3800,3800,17,35,-22,-22,159,3912,-5,-1,847,1760,1854,2071,2240,2025,1798,1855,1977
126801,-44700,-16000,-46738,-13970,-3800,3800,18,33,-23,-17,162,3924,12,9,847,1760,1854,2071,2240,2025,1798,1855,1977
127802,-44700,-16000,-46738,-13970,-3800,3800,20,34,-21,-5,140,3958,-5,4,847,1760,1854,2071,2240,2025,1798,1855,1977
128803,-44700,-16008,-46738,-13970,-3800,3800,21,38,-21,10,132,3974,7,-5,847,1760,1855,2067,2239,2023,1795,1851,1975
129804,-44700,-16004,-46738,-13970,-3800,3800,19,36,-22,0,120,3970,8,0,846,1760,1855,2067,2239,2023,1795,1851,1975
130805,-44704,-16016,-46738,-13970,-3800,3800,17,37,-22,9,115,3948,-4,5,847,1760,1855,2067,2239,2023,1795,1851,1975
131806,-44696,-16004,-46738,-13970,-3800,3800,17,37,-23,0,141,3918,-5,8,847,1760,1855,2067,2239,2023,1795,1851,1975
132807,-44700,-16016,-46738,-13970,-3800,3800,19,36,-23,-6,153,3914,12,-5,846,1760,1855,2067,2239,2023,1795,1851,1975
133808,-44700,-16016,-46738,-13970,-3800,3800,17,34,-22,-3,166,3945,12,-4,847,1760,1855,2067,2239,2023,1795,1851,1975
134809,-44688,-16000,-46738,-13970,-3800,3800,15,34,-19,-16,114,3969,1,8,846,1759,1854,2070,2241,2026,1799,1856,1977
135810,-44704,-16000,-46738,-13970,-3800,3800,16,37,-20,7,100,3913,-4,6,846,1759,1854,2070,2241,2026,1799,1856,1977
136811,-44696,-16024,-46738,-13970,-3800,3800,17,37,-20,8,141,3923,6,-3,847,1759,1854,2070,2241,2026,1799,1856,1977
137812,-44688,-16012,-46738,-13970,-3800,3800,20,36,-22,-21,138,3945,10,2,847,1759,1854,2070,2241,2026,1799,1856,1977
138813,-44696,-16024,-46738,-13970,-3800,3800,18,36,-22,15,131,3978,-6,5,846,1759,1854,2070,2241,2026,1799,1856,1977
139814,-44700,-15996,-46738,-13970,-3800,3800,15,38,-20,12,125,3953,11,-5,846,1760,1854,2071,2241,2025,1799,1855,1978
140815,-44700,-16016,-46738,-13970,-3800,3800,14,38,-19,1,135,3935,2,3,847,1760,1854,2071,2241,2025,1799,1855,1978
141816,-44696,-16004,-46738,-13970,-3800,3800,16,35,-20,6,120,3912,-2,9,847,1760,1854,2071,2241,2025,1799,1855,1978
142817,-44704,-16008,-46738,-13970,-3800,3800,15,35,-21,14,128,3945,13,2,847,1760,1854,2071,2241,2025,1799,1855,1978
143818,-44696,-16000,-46738,-13970,-3800,3800,15,36,-21,11,145,3943,8,-5,846,1760,1854,2071,2241,2025,1799,1855,1978
144821,-44696,-16016,-46738,-13970,-3800,3800,17,39,-20,-4,135,3919,-5,7,847,1760,1854,2071,2241,2025,1799,1855,1978
145820,-44704,-16008,-46738,-13970,-3800,3800,16,39,-21,-4,127,3944,4,9,847,1760,1856,2072,2240,2025,1798,1856,1977
146821,-44704,-16012,-46738,-13970,-3800,3800,14,37,-19,26,135,3934,13,-5,846,1760,1856,2072,2240,2025,1798,1856,1977
147822,-44708,-16008,-46738,-13970,-3800,3800,15,35,-19,12,127,3904,3,1,846,1760,1856,2072,2240,2025,1798,1856,1977
148823,-44700,-16004,-46738,-13970,-3800,3800,17,37,-18,6,136,3900,-6,9,847,1760,1856,2072,2240,2025,1798,1856,1977
149824,-44696,-16020,-46738,-13970,-3800,3800,16,38,-20,4,149,3921,8,3,847,1760,1856,2072,2240,2025,1798,1856,1977
150825,-44692,-16016,-46738,-13970,-3800,3800,16,42,-21,-4,119,3922,2,-4,847,1759,1854,2069,2240,2025,1798,1854,1977
151826,-44696,-16008,-46738,-13970,-3800,3800,13,38,-20,2,124,3921,-6,4,847,1759,1854,2069,2240,2025,1798,1854,1977
152827,-44696,-16008,-46738,-13970,-3800,3800,13,34,-21,3,149,3948,6,8,846,1759,1854,2069,2240,2025,1798,1854,1977
153828,-44700,-16020,-46738,-13970,-3800,3800,17,35,-20,-20,127,3942,5,-5,846,1759,1854,2069,2240,2025,1798,1854,1977
154829,-44696,-16012,-46738,-13970,-3800,3800,15,38,-19,-32,114,3940,-6,-2,845,1759,1854,2069,2240,2025,1798,1854,1977
155830,-44696,-16016,-46738,-13970,-3800,3800,14,38,-18,-13,130,3931,7,9,845,1759,1854,2069,2240,2025,1798,1854,1977
156831,-44692,-16012,-46738,-13970,-3800,3800,14,37,-19,-5,113,3944,-4,-4,846,1758,1853,2070,2239,2028,1800,1857,1980
157832,-44708,-16016,-46738,-13970,-3800,3800,15,36,-18,5,102,3947,7,6,847,1758,1853,2070,2239,2028,1800,1857,1980
158833,-44704,-16008,-46738,-13970,-3800,3800,14,37,-20,19,104,3901,8,6,847,1758,1853,2070,2239,2028,1800,1857,1980
159834,-44704,-16004,-46738,-13970,-3800,3800,14,36,-19,-1,130,3920,2,-5,847,1758,1853,2070,2239,2028,1800,1857,1980
160835,-44708,-16004,-46738,-13970,-3800,3800,14,37,-20,2,109,3893,6,-1,846,1758,1853,2070,2239,2028,1800,1857,1980
161836,-44696,-16020,-46738,-13970,-3800,3800,16,38,-18,2,120,3949,-4,9,847,1760,1854,2070,2240,2025,1798,1855,1978
162837,-44700,-16004,-46738,-13970,-3800,3800,15,39,-16,-7,111,3938,13,-5,846,1760,1854,2070,2240,2025,1798,1855,1978
163838,-44688,-16012,-46738,-13970,-3800,3800,14,38,-17,-31,148,3957,3,-1,847,1760,1854,2070,2240,2025,1798,1855,1978
164839,-44700,-16000,-46738,-13970,-3800,3800,13,37,-21,-34,123,3924,-6,9,846,1760,1854,2070,2240,2025,1798,1855,1978
165840,-44696,-16016,-46738,-13970,-3800,3800,15,37,-22,-30,146,3903,11,-5,847,1760,1854,2070,2240,2025,1798,1855,1978
166841,-44692,-16004,-46738,-13970,-3800,3800,14,38,-21,-17,127,3908,10,-3,847,1760,1854,2070,2240,2025,1798,1855,1978
167842,-44696,-16012,-46738,-13970,-3800,3800,15,38,-19,-4,127,3908,-2,10,847,1761,1853,2071,2239,2026,1798,1855,1978
168843,-44696,-16016,-46738,-13970,-3800,3800,14,38,-20,-24,153,3946,1,2,847,1761,1853,2071,2239,2026,1798,1855,1978
169844,-44692,-16004,-46738,-13970,-3800,3800,16,38,-21,-1,158,3935,13,-4,846,1761,1853,2071,2239,2026,1798,1855,1978
170845,-44704,-16008,-46738,-13970,-3800,3800,15,39,-21,0,140,3903,4,-2,847,1761,1853,2071,2239,2026,1798,1855,1978
171846,-44696,-16016,-46738,-13970,-3800,3800,14,36,-21,-36,110,3905,-4,8,846,1761,1853,2071,2239,2026,1798,1855,1978
172847,-44700,-15996,-46738,-13970,-3800,3800,14,35,-20,-11,134,3913,12,7,845,1760,1854,2071,2240,2025,1798,1855,1976
173848,-44696,-16008,-46738,-13970,-3800,3800,17,37,-21,-34,124,3929,-2,-3,846,1760,1854,2071,2240,2025,1798,1855,1976
174849,-44708,-16020,-46738,-13970,-3800,3800,17,40,-22,-8,124,3927,9,8,846,1760,1854,2071,2240,2025,1798,1855,1976
175850,-44700,-16020,-46738,-13970,-3800,3800,15,40,-23,4,115,3934,11,9,846,1760,1854,2071,2240,2025,1798,1855,1976
176851,-44700,-16024,-46738,-13970,-3800,3800,12,38,-21,-13,139,3921,0,5,846,1760,1854,2071,2240,2025,1798,1855,1976
177852,-44704,-16020,-46738,-13970,-3800,3800,14,37,-21,-18,129,3911,-3,-5,847,1760,1854,2071,2240,2025,1798,1855,1976
178853,-44696,-16008,-46738,-13970,-3800,3800,15,35,-21,9,146,3915,7,-5,847,1761,1855,2069,2239,2023,1798,1855,1978
179854,-44704,-16024,-46738,-13970,-3800,3800,16,36,-22,-3,138,3942,12,5,846,1761,1855,2069,2239,2023,1798,1855,1978
180855,-44704,-16020,-46738,-13970,-3800,3800,17,38,-23,12,142,3898,0,7,846,1761,1855,2069,2239,2023,1798,1855,1978
181856,-44696,-16008,-46738,-13970,-3800,3800,16,38,-23,4,127,3932,-5,1,846,1761,1855,2069,2239,2023,1798,1855,1978
182857,-44692,-16000,-46738,-13970,-3800,3800,15,35,-23,-7,146,3904,3,-5,847,1761,1855,2069,2239,2023,1798,1855,1978
183858,-44696,-16012,-46738,-13970,-3800,3800,16,34,-21,-9,126,3918,12,0,847,1759,1854,2071,2240,2024,1798,1856,1978
184859,-44708,-16004,-46738,-13970,-3800,3800,16,35,-21,-9,151,3902,-2,4,847,1759,1854,2071,2240,2024,1798,1856,1978
185860,-44692,-16020,-46738,-13970,-3800,3800,16,36,-22,-8,136,3940,0,9,847,1759,1854,2071,2240,2024,1798,1856,1978
186861,-44688,-16008,-46738,-13970,-3800,3800,16,38,-21,-1,122,3948,8,-2,846,1759,1854,2071,2240,2024,1798,1856,1978
187862,-44704,-16004,-46738,-13970,-3800,3800,17,37,-23,16,136,3933,-5,-4,846,1759,1854,2071,2240,2024,1798,1856,1978
188863,-44696,-16004,-46738,-13970,-3800,3800,16,36,-21,17,149,3920,13,-2,845,1759,1854,2071,2240,2024,1798,1856,1978
189864,-44696,-16012,-46738,-13970,-3800,3800,15,37,-19,1,135,3928,-5,9,845,1759,1855,2071,2240,2025,1798,1856,1977
190865,-44708,-16020,-46738,-13970,-3800,3800,16,36,-20,-2,127,3922,12,-4,846,1759,1855,2071,2240,2025,1798,1856,1977
191866,-44692,-16000,-46738,-13970,-3800,3800,15,34,-20,-26,130,3950,4,-1,846,1759,1855,2071,2240,2025,1798,1856,1977
192868,-44700,-16012,-46738,-13970,-3800,3800,14,35,-20,-11,97,3908,-3,7,846,1759,1855,2071,2240,2025,1798,1856,1977
193868,-44692,-16012,-46738,-13970,-3800,3800,18,35,-22,6,110,3958,10,9,846,1759,1855,2071,2240,2025,1798,1856,1977
194869,-44704,-16012,-46738,-13970,-3800,3800,19,35,-22,-5,117,3970,11,4,846,1760,1856,2071,2241,2025,1797,1855,1977
195870,-44696,-16012,-46738,-13970,-3800,3800,18,36,-21,-1,120,3949,-1,-5,846,1760,1856,2071,2241,2025,1797,1855,1977
196871,-44708,-16004,-46738,-13970,-3800,3800,17,38,-22,-5,130,3903,-6,-2,847,1760,1856,2071,2241,2025,1797,1855,1977
197872,-44700,-16004,-46738,-13970,-3800,3800,19,38,-20,-1,113,3944,4,7,846,1760,1856,2071,2241,2025,1797,1855,1977
198873,-44696,-16016,-46738,-13970,-3800,3800,20,34,-20,8,101,3961,10,8,846,1760,1856,2071,2241,2025,1797,1855,1977
199874,-44704,-16000,-46738,-13970,-3800,3800,21,33,-22,20,114,3927,-2,3,846,1760,1856,2071,2241,2025,1797,1855,1977
200875,-44704,-16012,-46738,-13970,-3800,3800,18,34,-20,-5,128,3955,-3,-4,847,1759,1855,2071,2241,2025,1798,1855,1977
201876,-44696,-16004,-46738,-13970,-3800,3800,18,34,-17,2,128,3940,12,-3,846,1759,1855,2071,2241,2025,1798,1855,1977
202877,-44700,-16004,-46738,-13970,-3800,3800,18,33,-19,15,143,3951,1,1,846,1759,1855,2071,2241,2025,1798,1855,1977
203878,-44700,-16004,-46673,-13905,-1984,2987,19,35,-20,-2,125,3946,-4,9,846,1759,1855,2071,2241,2025,1798,1855,1977
204879,-44708,-16004,-46608,-13840,-1796,3066,18,38,-20,-12,129,3920,12,-54,816,1759,1855,2071,2241,2025,1798,1855,1977
205880,-44696,-16000,-46543,-13775,-1982,3092,20,47,-15,5,144,3870,9,-22,815,1760,1856,2071,2241,2025,1798,1856,1974
206881,-44700,-15924,-46478,-13710,-1699,2179,13,22,-22,-13,143,4003,11,-15,810,1760,1856,2071,2241,2025,1798,1856,1974
207882,-44704,-15800,-46413,-13645,-1615,1508,14,4,-29,-308,169,4162,21,53,828,1760,1856,2071,2241,2025,1798,1856,1974
208883,-44696,-15672,-46348,-13580,-1696,1382,9,-12,-15,-498,172,4217,3,84,835,1760,1856,2071,2241,2025,1798,1856,1974
209884,-44684,-15528,-46283,-13515,-1682,1086,17,-30,-25,-27,123,4194,1,75,837,1760,1856,2071,2241,2025,1798,1856,1974
210885,-44704,-15380,-46218,-13450,-1179,935,29,-58,-43,38,55,4009,2,93,836,1760,1856,2071,2241,2025,1798,1856,1974
211886,-44704,-15220,-46153,-13385,-1350,670,33,-60,-46,229,80,4155,5,93,841,1759,1828,2072,2240,2026,1800,1859,1985
212887,-44692,-15020,-46088,-13320,-1436,7,21,-34,-58,-10,33,4134,11,96,843,1759,1828,2072,2240,2026,1800,1859,1985
213888,-44696,-14844,-46023,-13255,-1152,171,4,-9,-89,-228,-12,3914,1,101,846,1759,1828,2072,2240,2026,1800,1859,1985
214889,-44712,-14676,-45958,-13190,-903,146,-15,38,-110,-190,50,4307,2,98,842,1759,1828,2072,2240,2026,1800,1859,1985
215890,-44696,-14528,-45893,-13125,-1245,295,-36,76,-126,-20,-44,3841,10,99,845,1759,1828,2072,2240,2026,1800,1859,1985
216891,-44696,-14372,-45828,-13060,-965,85,-56,64,-135,142,-86,3668,19,93,845,1771,1871,2087,2255,2039,1813,1860,1999
217892,-44696,-14192,-45763,-12995,-887,-355,-64,32,-139,-517,105,4002,2,85,846,1771,1871,2087,2255,2039,1813,1860,1999
218893,-44716,-14028,-45698,-12930,-533,-275,-71,-23,-138,-974,75,4000,2,90,842,1771,1871,2087,2255,2039,1813,1860,1999
219894,-44700,-13896,-45633,-12865,-924,43,-75,-75,-149,-787,1,4225,9,77,845,1771,1871,2087,2255,2039,1813,1860,1999
220895,-44700,-13756,-45568,-12800,-645,-148,-79,-131,-148,-390,-9,4058,12,72,846,1771,1871,2087,2255,2039,1813,1860,1999
221896,-44688,-13620,-45503,-12735,-730,-184,-72,-171,-146,-532,-61,4399,6,78,846,1771,1871,2087,2255,2039,1813,1860,1999
222897,-44704,-13476,-45438,-12670,-282,-381,-63,-182,-148,-547,-29,4274,18,64,844,1763,1861,2074,2234,2048,1820,1877,2005
223898,-44696,-13324,-45373,-12605,-513,-586,-46,-191,-146,-164,96,4465,12,68,843,1763,1861,2074,2234,2048,1820,1877,2005
224899,-44700,-13212,-45308,-12540,-279,-143,-37,-187,-162,111,-5,4241,17,60,842,1763,1861,2074,2234,2048,1820,1877,2005
225900,-44700,-13100,-45243,-12475,-249,-201,-36,-145,-195,58,-24,4445,14,64,845,1763,1861,2074,2234,2048,1820,1877,2005
226901,-44716,-13008,-45178,-12410,49,16,-34,-119,-208,-36,20,4315,3,54,843,1763,1861,2074,2234,2048,1820,1877,2005
227902,-44704,-12888,-45113,-12345,-237,-400,-38,-91,-229,135,-4,4192,-2,61,846,1753,1856,2069,2234,2046,1814,1875,2004
228903,-44692,-12792,-45048,-12280,-172,-137,-42,-79,-243,102,14,4148,-2,53,844,1753,1856,2069,2234,2046,1814,1875,2004
229904,-44708,-12704,-44983,-12215,277,-66,-53,-89,-259,-187,77,3951,1,41,837,1753,1856,2069,2234,2046,1814,1875,2004
230905,-44708,-12628,-44918,-12150,156,71,-69,-118,-279,-419,56,3919,1,52,844,1753,1856,2069,2234,2046,1814,1875,2004
231906,-44700,-12548,-44853,-12085,126,3,-82,-161,-291,-308,24,3705,10,45,845,1753,1856,2069,2234,2046,1814,1875,2004
232907,-44692,-12488,-44788,-12020,195,260,-93,-229,-297,-330,20,3706,14,37,845,1753,1856,2069,2234,2046,1814,1875,2004
233908,-44708,-12416,-44723,-11955,594,101,-96,-270,-298,-549,26,3807,3,33,845,1750,1871,2082,2240,2027,1800,1862,1982
234909,-44684,-12348,-44658,-11890,144,148,-98,-286,-297,-453,-33,3786,13,36,843,1750,1871,2082,2240,2027,1800,1862,1982
235910,-44680,-12292,-44593,-11825,469,309,-96,-296,-289,-221,-37,3784,20,36,845,1750,1871,2082,2240,2027,1800,1862,1982
236911,-44680,-12240,-44528,-11760,598,374,-89,-293,-276,-164,-105,3841,4,29,842,1750,1871,2082,2240,2027,1800,1862,1982
237912,-44692,-12172,-44463,-11695,842,172,-78,-260,-270,-50,-88,3908,10,42,841,1750,1871,2082,2240,2027,1800,1862,1982
238913,-44644,-12128,-44398,-11630,113,497,-59,-221,-264,0,-95,3889,28,28,840,1771,1867,2076,2242,2012,1781,1843,1965
239914,-44608,-12064,-44333,-11565,298,249,-40,-183,-259,102,-113,3889,15,29,843,1771,1867,2076,2242,2012,1781,1843,1965
240915,-44596,-12020,-44268,-11500,663,524,-20,-165,-253,132,-9,3793,10,38,843,1771,1867,2076,2242,2012,1781,1843,1965
241916,-44564,-11964,-44203,-11435,453,385,-2,-164,-246,41,-85,3829,27,36,840,1771,1867,2076,2242,2012,1781,1843,1965
242917,-44536,-11936,-44138,-11370,548,780,16,-165,-236,74,-29,3785,28,38,842,1771,1867,2076,2242,2012,1781,1843,1965
243918,-44488,-11872,-44073,-11305,319,333,25,-157,-231,31,79,3727,17,32,839,1754,1848,2056,2228,1992,1765,1824,1936
244919,-44464,-11836,-44008,-11240,670,718,36,-165,-218,50,56,3715,33,32,843,1754,1848,2056,2228,1992,1765,1824,1936
245920,-44424,-11776,-43943,-11175,501,424,39,-170,-208,27,169,3740,20,30,838,1754,1848,2056,2228,1992,1765,1824,1936
246921,-44376,-11744,-43878,-11110,421,814,42,-180,-196,8,199,3563,27,36,841,1754,1848,2056,2228,1992,1765,1824,1936
247922,-44348,-11676,-43813,-11045,717,362,45,-190,-185,154,212,3552,30,33,839,1754,1848,2056,2228,1992,1765,1824,1936
248923,-44300,-11632,-43748,-10980,487,687,61,-189,-179,176,162,3679,23,32,841,1754,1848,2056,2228,1992,1765,1824,1936
249924,-44252,-11584,-43683,-10915,509,658,74,-192,-164,261,95,3598,29,32,839,1753,1840,2051,2233,1983,1763,1824,1934
250925,-44204,-11544,-43618,-10850,530,789,91,-183,-142,278,115,3635,39,40,839,1753,1840,2051,2233,1983,1763,1824,1934
251926,-44140,-11468,-43553,-10785,331,326,109,-150,-126,208,73,3680,41,41,838,1753,1840,2051,2233,1983,1763,1824,1934
252927,-44088,-11432,-43488,-10720,497,862,133,-108,-109,198,47,3724,38,35,843,1753,1840,2051,2233,1983,1763,1824,1934
253928,-44028,-11368,-43423,-10655,403,513,150,-85,-82,279,8,3648,31,27,839,1753,1840,2051,2233,1983,1763,1824,1934
254929,-43972,-11308,-43358,-10590,465,569,171,-74,-64,312,13,3716,43,30,842,1762,1850,2066,2246,1998,1774,1836,1951
255930,-43912,-11248,-43293,-10525,421,576,187,-59,-38,245,-129,3722,44,43,841,1762,1850,2066,2246,1998,1774,1836,1951
256931,-43856,-11212,-43228,-10460,482,911,204,-55,-11,355,-59,3667,51,41,841,1762,1850,2066,2246,1998,1774,1836,1951
257932,-43800,-11148,-43163,-10395,493,563,221,-60,12,121,-96,3669,46,31,837,1762,1850,2066,2246,1998,1774,1836,1951
258933,-43728,-11096,-43098,-10330,286,729,222,-64,28,72,-83,3738,53,37,841,1762,1850,2066,2246,1998,1774,1836,1951
259934,-43660,-11028,-43033,-10265,332,526,232,-56,42,55,-94,3725,52,41,841,1762,1850,2066,2246,1998,1774,1836,1951
260935,-43592,-10964,-42968,-10200,328,577,234,-66,63,-50,-132,3755,51,39,842,1763,1858,2071,2245,2003,1771,1835,1958
261936,-43528,-10920,-42903,-10135,379,853,239,-69,77,9,-35,3836,42,28,842,1763,1858,2071,2245,2003,1771,1835,1958
262937,-43484,-10864,-42838,-10070,656,715,231,-89,91,29,-62,3694,50,31,839,1763,1858,2071,2245,2003,1771,1835,1958
263938,-43400,-10800,-42773,-10005,133,616,236,-86,97,91,41,4105,37,46,839,1763,1858,2071,2245,2003,1771,1835,1958
264939,-43348,-10748,-42708,-9940,549,782,227,-86,118,137,-45,3969,37,49,842,1763,1858,2071,2245,2003,1771,1835,1958
265940,-43272,-10684,-42643,-9875,235,634,237,-72,132,308,98,4195,32,33,839,1768,1864,2072,2241,2016,1785,1851,1979
266941,-43220,-10616,-42578,-9810,551,580,234,-53,148,258,3,4075,51,34,841,1768,1864,2072,2241,2016,1785,1851,1979
267942,-43156,-10560,-42513,-9745,403,741,237,-42,153,243,-20,4142,37,45,840,1768,1864,2072,2241,2016,1785,1851,1979
268943,-43096,-10480,-42448,-9680,460,423,235,-34,153,316,-35,4048,38,41,840,1768,1864,2072,2241,2016,1785,1851,1979
269944,-43036,-10436,-42383,-9615,466,900,243,-12,155,284,-28,4313,38,45,842,1768,1864,2072,2241,2016,1785,1851,1979
270945,-42972,-10376,-42318,-9550,417,706,250,0,162,244,-70,4169,48,40,839,1768,1864,2072,2241,2016,1785,1851,1979
271946,-42900,-10324,-42253,-9485,309,822,258,-30,167,271,-65,4124,49,45,840,1760,1857,2067,2233,2047,1810,1874,2004
272947,-42832,-10264,-42188,-9420,356,729,265,-46,171,47,-55,4216,37,34,840,1760,1857,2067,2233,2047,1810,1874,2004
273948,-42776,-10188,-42123,-9355,517,515,272,-84,182,-254,-76,3989,38,45,841,1760,1857,2067,2233,2047,1810,1874,2004
274949,-42732,-10136,-42058,-9290,692,831,274,-124,185,-153,-8,4157,36,44,840,1760,1857,2067,2233,2047,1810,1874,2004
275950,-42652,-10088,-41993,-9225,225,903,269,-158,183,67,44,4169,54,40,838,1760,1857,2067,2233,2047,1810,1874,2004
276951,-42600,-10020,-41928,-9160,591,649,260,-186,190,72,-36,4064,37,33,840,1760,1861,2077,2246,2061,1824,1883,2013
277952,-42532,-9956,-41863,-9095,387,701,252,-191,205,72,-77,4200,35,31,840,1760,1861,2077,2246,2061,1824,1883,2013
278953,-42480,-9920,-41798,-9030,603,1087,247,-187,209,53,-98,4077,38,43,841,1760,1861,2077,2246,2061,1824,1883,2013
279954,-42408,-9860,-41733,-8965,345,793,226,-180,201,242,-180,3896,34,33,836,1760,1861,2077,2246,2061,1824,1883,2013
280955,-42336,-9784,-41668,-8900,337,580,214,-164,220,148,41,4330,38,38,840,1760,1861,2077,2246,2061,1824,1883,2013
281956,-42288,-9740,-41603,-8835,658,1006,203,-143,237,51,100,4067,41,30,842,1760,1861,2077,2246,2061,1824,1883,2013
282957,-42228,-9680,-41538,-8770,514,812,197,-146,230,-75,-23,4245,42,29,837,1771,1872,2086,2250,2054,1815,1875,2005
283958,-42156,-9620,-41473,-8705,356,818,191,-154,223,-32,9,4162,48,33,839,1771,1872,2086,2250,2054,1815,1875,2005
284959,-42088,-9580,-41408,-8640,403,1100,183,-176,226,-36,10,4204,54,42,840,1771,1872,2086,2250,2054,1815,1875,2005
285960,-42024,-9520,-41343,-8575,454,856,179,-177,222,-77,-11,4214,35,43,837,1771,1872,2086,2250,2054,1815,1875,2005
286961,-41960,-9456,-41278,-8510,455,807,172,-159,202,-83,137,4234,39,38,839,1771,1872,2086,2250,2054,1815,1875,2005
287962,-41896,-9412,-41213,-8445,457,1084,162,-173,200,-132,30,4042,51,39,839,1761,1860,2073,2235,2040,1803,1862,1990
288963,-41844,-9336,-41148,-8380,623,670,159,-183,192,-160,56,4127,44,37,838,1761,1860,2073,2235,2040,1803,1862,1990
289964,-41756,-9288,-41083,-8315,145,1041,150,-195,182,-166,89,4018,38,42,839,1761,1860,2073,2235,2040,1803,1862,1990
290965,-41712,-9204,-41018,-8250,722,569,150,-179,167,-58,225,4334,41,32,840,1761,1860,2073,2235,2040,1803,1862,1990
291966,-41664,-9152,-40953,-8185,692,985,156,-188,164,-24,216,4112,33,37,839,1761,1860,2073,2235,2040,1803,1862,1990
292967,-41588,-9108,-40888,-8120,329,1112,155,-187,157,114,228,4061,50,34,836,1761,1860,2073,2235,2040,1803,1862,1990
293968,-41532,-9048,-40823,-8055,590,918,148,-198,147,-17,120,3879,38,32,837,1752,1850,2061,2226,2036,1802,1859,1985
294969,-41468,-8988,-40758,-7990,492,924,147,-188,148,-122,244,3978,44,43,837,1752,1850,2061,2226,2036,1802,1859,1985
295970,-41424,-8940,-40693,-7925,768,1096,152,-160,149,16,302,3931,35,30,838,1752,1850,2061,2226,2036,1802,1859,1985
296971,-41360,-8856,-40628,-7860,519,622,155,-141,144,-28,281,3938,53,40,835,1752,1850,2061,2226,2036,1802,1859,1985
297972,-41296,-8828,-40563,-7795,520,1367,160,-133,142,-56,297,3954,50,46,840,1752,1850,2061,2226,2036,1802,1859,1985
298973,-41228,-8768,-40498,-7730,468,975,170,-131,142,-65,247,3853,51,34,834,1750,1847,2063,2231,2027,1792,1844,1977
299974,-41156,-8684,-40433,-7665,409,651,174,-136,144,-181,240,3852,42,38,838,1750,1847,2063,2231,2027,1792,1844,1977
300975,-41096,-8644,-40368,-7600,565,1233,180,-145,143,-251,290,3737,38,33,841,1750,1847,2063,2231,2027,1792,1844,1977
301976,-41032,-8588,-40303,-7535,516,1044,181,-135,131,-143,421,3848,49,42,835,1750,1847,2063,2231,2027,1792,1844,1977
302977,-40952,-8540,-40238,-7470,299,1165,177,-132,121,-47,367,3748,39,45,837,1750,1847,2063,2231,2027,1792,1844,1977
303978,-40892,-8480,-40173,-7405,555,1022,173,-155,130,-76,253,3658,50,42,837,1750,1847,2063,2231,2027,1792,1844,1977
304979,-40832,-8416,-40108,-7340,561,973,181,-165,131,-215,226,3705,52,43,836,1755,1851,2070,2239,2010,1783,1839,1960
305980,-40772,-8368,-40043,-7275,568,1195,182,-157,114,-168,351,3793,42,36,837,1755,1851,2070,2239,2010,1783,1839,1960
306981,-40712,-8312,-39978,-7210,574,1106,188,-165,98,-102,380,3799,37,43,835,1755,1851,2070,2239,2010,1783,1839,1960
307982,-40644,-8236,-39913,-7145,471,842,196,-163,85,92,379,3921,45,36,836,1755,1851,2070,2239,2010,1783,1839,1960
308983,-40568,-8164,-39848,-7080,357,885,199,-173,89,147,271,3922,55,38,837,1755,1851,2070,2239,2010,1783,1839,1960
309984,-40524,-8116,-39783,-7015,784,1205,212,-169,83,25,420,3935,44,32,839,1756,1850,2063,2230,1994,1768,1828,1953
310985,-40464,-8060,-39718,-6950,590,1117,223,-149,69,66,375,3966,40,28,834,1756,1850,2063,2230,1994,1768,1828,1953
311986,-40380,-8004,-39653,-6885,267,1128,222,-105,44,259,369,3853,37,45,835,1756,1850,2063,2230,1994,1768,1828,1953
312987,-40324,-7964,-39588,-6820,629,1360,226,-60,28,191,464,3977,37,36,838,1756,1850,2063,2230,1994,1768,1828,1953
313988,-40268,-7888,-39523,-6755,640,897,233,-33,23,24,447,3889,39,41,834,1756,1850,2063,2230,1994,1768,1828,1953
314989,-40208,-7812,-39458,-6690,596,883,242,-25,7,14,525,3958,47,34,838,1756,1850,2063,2230,1994,1768,1828,1953
315990,-40152,-7772,-39393,-6625,657,1365,257,-43,-10,-156,463,3791,36,32,838,1754,1851,2062,2226,2000,1773,1837,1961
316991,-40096,-7716,-39328,-6560,669,1176,272,-55,-20,-116,533,3920,36,33,833,1754,1851,2062,2226,2000,1773,1837,1961
317992,-40044,-7664,-39263,-6495,735,1243,283,-91,-24,43,545,3646,53,34,835,1754,1851,2062,2226,2000,1773,1837,1961
318993,-39980,-7592,-39198,-6430,586,984,301,-119,-28,-8,617,3874,44,38,834,1754,1851,2062,2226,2000,1773,1837,1961
319996,-39924,-7532,-39133,-6365,698,1141,310,-154,-20,-280,429,3725,41,34,837,1754,1851,2062,2226,2000,1773,1837,1961
320995,-39844,-7464,-39068,-6300,380,1037,322,-154,-24,-130,355,3779,45,34,835,1757,1856,2072,2242,2017,1788,1849,1975
321996,-39776,-7416,-39003,-6235,526,1308,329,-139,-34,20,311,3896,46,44,838,1757,1856,2072,2242,2017,1788,1849,1975
322997,-39712,-7348,-38938,-6170,577,1055,354,-118,-45,126,362,3845,39,31,835,1757,1856,2072,2242,2017,1788,1849,1975
323998,-39652,-7288,-38873,-6105,634,1162,373,-102,-52,163,380,4041,53,46,837,1757,1856,2072,2242,2017,1788,1849,1975
324999,-39580,-7232,-38808,-6040,476,1224,395,-105,-67,233,399,3976,51,48,835,1757,1856,2072,2242,2017,1788,1849,1975
326000,-39516,-7156,-38743,-5975,577,960,416,-110,-73,162,446,4044,43,38,834,1757,1856,2072,2242,2017,1788,1849,1975
327001,-39460,-7100,-38678,-5910,689,1222,439,-112,-86,144,424,4052,53,50,837,1765,1862,2079,2249,2015,1785,1846,1968
328002,-39392,-7040,-38613,-5845,535,1178,451,-79,-104,163,500,4212,50,44,834,1765,1862,2079,2249,2015,1785,1846,1968
329003,-39316,-6976,-38548,-5780,422,1130,461,-80,-120,327,445,4025,40,36,835,1765,1862,2079,2249,2015,1785,1846,1968
330004,-39252,-6916,-38483,-5715,573,1187,472,-62,-139,313,464,4243,54,46,837,1765,1862,2079,2249,2015,1785,1846,1968
331005,-39196,-6852,-38418,-5650,685,1139,482,-74,-165,5,549,4247,40,45,835,1765,1862,2079,2249,2015,1785,1846,1968
332006,-39128,-6776,-38353,-5585,532,975,492,-69,-200,-34,529,4195,53,40,835,1773,1870,2084,2257,2000,1774,1838,1959
333007,-39068,-6708,-38288,-5520,638,1072,504,-85,-231,140,597,4343,50,48,837,1773,1870,2084,2257,2000,1774,1838,1959
334008,-39004,-6668,-38223,-5455,590,1453,516,-76,-255,49,544,4237,51,33,836,1773,1870,2084,2257,2000,1774,1838,1959
335009,-38964,-6612,-38158,-5390,920,1264,518,-66,-291,-1,617,4304,35,33,832,1773,1870,2084,2257,2000,1774,1838,1959
336010,-38908,-6540,-38093,-5325,731,1057,512,-70,-321,-117,670,4166,39,48,832,1773,1870,2084,2257,2000,1774,1838,1959
337011,-38844,-6488,-38028,-5260,634,1323,537,-120,-345,60,677,3932,49,35,835,1773,1870,2084,2257,2000,1774,1838,1959
338012,-38784,-6436,-37963,-5195,690,1339,586,-157,-366,-80,467,4087,42,42,834,1779,1879,2091,2265,2006,1783,1831,1955
339013,-38728,-6376,-37898,-5130,751,1245,629,-206,-370,-274,293,3917,58,42,833,1779,1879,2091,2265,2006,1783,1831,1955
340014,-38660,-6328,-37833,-5065,597,1417,673,-266,-350,3,99,3670,57,37,833,1779,1879,2091,2265,2006,1783,1831,1955
341015,-38584,-6284,-37768,-5000,485,1493,723,-278,-338,7,112,3810,47,32,833,1779,1879,2091,2265,2006,1783,1831,1955
342016,-38520,-6212,-37703,-4935,636,1135,751,-241,-324,-328,281,4074,50,32,833,1779,1879,2091,2265,2006,1783,1831,1955
343017,-38448,-6160,-37638,-4870,527,1401,766,-195,-317,145,417,4187,42,35,834,1784,1889,2101,2270,2008,1778,1844,1968
344018,-38372,-6116,-37573,-4805,465,1528,759,-173,-305,527,472,4131,43,29,833,1784,1889,2101,2270,2008,1778,1844,1968
345019,-38316,-6064,-37508,-4740,726,1444,752,-131,-301,441,651,4461,49,38,832,1784,1889,2101,2270,2008,1778,1844,1968
346020,-38248,-6028,-37443,-4675,572,1680,730,-105,-311,504,868,4279,38,37,832,1784,1889,2101,2270,2008,1778,1844,1968
347021,-38192,-5988,-37378,-4610,734,1661,735,-127,-348,615,898,4077,36,35,830,1784,1889,2101,2270,2008,1778,1844,1968
348022,-38112,-5932,-37313,-4545,416,1473,718,-147,-375,265,673,4107,50,23,829,1784,1889,2101,2270,2008,1778,1844,1968
349023,-38052,-5908,-37248,-4480,672,1923,687,-187,-378,-30,474,4138,46,23,833,1784,1880,2081,2253,1994,1765,1835,1960
350024,-37984,-5856,-37183,-4415,569,1590,681,-190,-389,-91,468,4118,31,30,826,1784,1880,2081,2253,1994,1765,1835,1960
351025,-37936,-5816,-37118,-4350,840,1770,688,-192,-408,6,331,4302,52,27,830,1784,1880,2081,2253,1994,1765,1835,1960
352026,-37864,-5764,-37053,-4285,531,1637,713,-239,-425,186,268,4120,52,26,827,1784,1880,2081,2253,1994,1765,1835,1960
353027,-37816,-5716,-36988,-4220,852,1708,733,-304,-433,162,221,4160,37,38,830,1784,1880,2081,2253,1994,1765,1835,1960
354028,-37748,-5636,-36923,-4155,600,1290,753,-334,-432,-54,133,4144,52,35,828,1756,1849,2065,2225,2039,1799,1857,1999
355029,-37700,-5624,-36858,-4090,870,2205,767,-321,-417,-133,143,4259,45,38,833,1756,1849,2065,2225,2039,1799,1857,1999
356030,-37644,-5588,-36793,-4025,781,1941,804,-280,-413,318,90,4194,33,37,821,1756,1849,2065,2225,2039,1799,1857,1999
357031,-37580,-5532,-36728,-3960,684,1703,830,-248,-409,425,172,4235,50,24,824,1756,1849,2065,2225,2039,1799,1857,1999
358032,-37524,-5472,-36663,-3895,795,1660,851,-225,-393,134,257,4136,44,37,829,1756,1849,2065,2225,2039,1799,1857,1999
359033,-37472,-5404,-36598,-3830,860,1557,867,-207,-375,-17,372,4090,45,38,828,1756,1849,2065,2225,2039,1799,1857,1999
360034,-37420,-5328,-36533,-3765,877,1443,866,-213,-366,-38,341,4006,37,34,828,1743,1847,2071,2228,2069,1823,1878,2015
361035,-37360,-5288,-36468,-3700,783,1925,854,-215,-338,142,349,4008,54,34,830,1743,1847,2071,2228,2069,1823,1878,2015
362036,-37300,-5216,-36403,-3635,789,1517,834,-218,-293,233,416,3895,53,47,825,1743,1847,2071,2228,2069,1823,1878,2015
363037,-37228,-5160,-36338,-3570,632,1728,804,-239,-252,5,407,3660,44,47,830,1743,1847,2071,2228,2069,1823,1878,2015
364038,-37176,-5092,-36273,-3505,898,1576,774,-266,-216,-172,407,3918,53,45,828,1743,1847,2071,2228,2069,1823,1878,2015
365039,-37104,-5016,-36208,-3440,639,1462,745,-282,-186,-85,392,3769,56,47,829,1763,1864,2079,2250,2047,1805,1864,1992
366040,-37028,-4944,-36143,-3375,577,1505,720,-309,-161,10,394,3971,48,42,832,1763,1864,2079,2250,2047,1805,1864,1992
367041,-36980,-4908,-36078,-3310,948,1991,714,-305,-134,72,333,3960,49,51,832,1763,1864,2079,2250,2047,1805,1864,1992
368042,-36916,-4824,-36013,-3245,749,1368,696,-324,-118,425,232,4038,55,44,824,1763,1864,2079,2250,2047,1805,1864,1992
369043,-36844,-4748,-35948,-3180,641,1456,685,-306,-104,348,276,4348,46,42,832,1763,1864,2079,2250,2047,1805,1864,1992
370045,-36764,-4676,-35883,-3115,523,1497,672,-294,-82,289,238,4188,42,39,832,1763,1864,2079,2250,2047,1805,1864,1992
371045,-36700,-4608,-35818,-3050,724,1544,664,-257,-88,568,150,4256,37,47,832,1754,1846,2059,2216,2033,1789,1848,1987
372046,-36628,-4544,-35753,-2985,617,1597,668,-209,-91,431,170,4369,49,42,831,1754,1846,2059,2216,2033,1789,1848,1987
373047,-36592,-4472,-35688,-2920,1102,1488,674,-204,-86,558,232,4077,36,49,831,1754,1846,2059,2216,2033,1789,1848,1987
374048,-36520,-4400,-35623,-2855,643,1480,698,-208,-101,292,197,4121,47,48,828,1754,1846,2059,2216,2033,1789,1848,1987
375049,-36480,-4348,-35558,-2790,1075,1746,699,-253,-110,31,226,3991,37,42,832,1754,1846,2059,2216,2033,1789,1848,1987
376050,-36412,-4256,-35493,-2725,721,1214,708,-252,-117,-125,295,3967,34,42,825,1728,1824,2043,2194,2047,1783,1839,1995
377051,-36352,-4216,-35428,-2660,827,1896,710,-244,-111,-88,484,3930,41,49,832,1728,1824,2043,2194,2047,1783,1839,1995
378052,-36284,-4160,-35363,-2595,725,1707,726,-270,-112,156,618,3545,38,45,826,1728,1824,2043,2194,2047,1783,1839,1995
379053,-36232,-4076,-35298,-2530,941,1335,720,-358,-97,14,418,3441,51,38,828,1728,1824,2043,2194,2047,1783,1839,1995
380054,-36156,-4028,-35233,-2465,628,1805,716,-440,-51,-229,337,3481,51,45,831,1728,1824,2043,2194,2047,1783,1839,1995
381055,-36104,-3976,-35168,-2400,944,1772,699,-455,17,-315,244,3591,52,51,828,1728,1824,2043,2194,2047,1783,1839,1995
382056,-36044,-3924,-35103,-2335,850,1789,695,-388,62,-75,306,3938,49,40,825,1728,1832,2065,2223,2032,1792,1859,1991
383057,-35980,-3848,-35038,-2270,802,1476,681,-340,116,242,394,3909,54,44,827,1728,1832,2065,2223,2032,1792,1859,1991
384058,-35904,-3776,-34973,-2205,639,1518,660,-342,175,429,321,3585,42,41,830,1728,1832,2065,2223,2032,1792,1859,1991
385059,-35840,-3720,-34908,-2140,790,1729,622,-351,212,191,410,3846,53,50,831,1728,1832,2065,2223,2032,1792,1859,1991
386060,-35764,-3656,-34843,-2075,628,1631,592,-368,239,-113,484,3857,36,34,828,1728,1832,2065,2223,2032,1792,1859,1991
387061,-35716,-3584,-34778,-2010,999,1524,570,-369,254,358,436,4062,41,46,830,1753,1856,2063,2223,2019,1781,1844,1976
388062,-35664,-3516,-34713,-1945,964,1570,569,-353,252,670,452,4201,39,45,828,1753,1856,2063,2223,2019,1781,1844,1976
389063,-35584,-3456,-34648,-1880,597,1677,552,-350,242,413,480,4148,47,47,828,1753,1856,2063,2223,2019,1781,1844,1976
390064,-35536,-3432,-34583,-1815,1018,2177,546,-370,222,180,333,4022,37,39,830,1753,1856,2063,2223,2019,1781,1844,1976
391065,-35464,-3368,-34518,-1750,709,1680,526,-413,200,187,354,4039,33,34,821,1753,1856,2063,2223,2019,1781,1844,1976
392066,-35408,-3292,-34453,-1685,921,1517,519,-446,189,229,346,4088,49,48,828,1753,1856,2063,2223,2019,1781,1844,1976
393067,-35348,-3228,-34388,-1620,877,1668,520,-461,181,327,307,4034,34,47,829,1740,1833,2050,2205,2041,1799,1853,1997
394068,-35308,-3172,-34323,-1555,1158,1780,526,-466,169,227,363,4223,37,42,826,1740,1833,2050,2205,2041,1799,1853,1997
395069,-35232,-3124,-34258,-1490,695,1901,537,-472,165,233,328,3908,54,42,824,1740,1833,2050,2205,2041,1799,1853,1997
396070,-35180,-3048,-34193,-1425,1011,1539,536,-490,159,176,252,3955,40,47,826,1740,1833,2050,2205,2041,1799,1853,1997
397071,-35108,-2992,-34128,-1360,754,1801,530,-495,165,-42,362,3986,41,45,828,1740,1833,2050,2205,2041,1799,1853,1997
398072,-35048,-2916,-34063,-1295,910,1537,526,-515,197,42,501,4029,51,42,827,1730,1830,2054,2205,2071,1824,1875,2019
399073,-35004,-2856,-33998,-1230,1136,1744,521,-524,230,-11,396,3989,53,33,828,1730,1830,2054,2205,2071,1824,1875,2019
400074,-34940,-2784,-33933,-1165,888,1587,501,-536,260,-12,526,4023,49,35,825,1730,1830,2054,2205,2071,1824,1875,2019
401075,-34860,-2740,-33868,-1100,669,1962,489,-540,297,-3,464,3833,39,49,828,1730,1830,2054,2205,2071,1824,1875,2019
402076,-34824,-2668,-33803,-1035,1255,1605,468,-525,337,-5,508,4028,50,33,826,1730,1830,2054,2205,2071,1824,1875,2019
403077,-34768,-2616,-33738,-970,1017,1871,447,-507,378,-9,577,3954,51,29,825,1730,1830,2054,2205,2071,1824,1875,2019
404078,-34704,-2544,-33673,-905,918,1613,432,-501,419,97,579,3925,45,37,824,1740,1849,2067,2221,2064,1816,1874,2013
405079,-34656,-2492,-33608,-840,1140,1880,410,-518,441,193,562,4077,41,39,828,1740,1849,2067,2221,2064,1816,1874,2013
406080,-34596,-2444,-33543,-775,996,1951,393,-528,457,14,576,4093,42,34,823,1740,1849,2067,2221,2064,1816,1874,2013
407081,-34532,-2388,-33478,-710,947,1863,372,-520,462,5,621,4143,57,38,824,1740,1849,2067,2221,2064,1816,1874,2013
408082,-34476,-2324,-33413,-645,1059,1765,360,-511,452,289,573,4128,46,39,825,1740,1849,2067,2221,2064,1816,1874,2013
409083,-34428,-2276,-33348,-580,1180,1986,342,-528,452,381,593,4232,44,46,825,1747,1849,2063,2217,2051,1805,1857,1995
410084,-34336,-2204,-33283,-515,598,1678,336,-541,450,265,524,4065,61,35,822,1747,1849,2063,2217,2051,1805,1857,1995
411085,-34260,-2136,-33218,-450,784,1725,326,-544,431,186,541,4180,50,37,828,1747,1849,2063,2217,2051,1805,1857,1995
412086,-34196,-2076,-33153,-385,936,1832,321,-538,414,189,523,4247,57,31,828,1747,1849,2063,2217,2051,1805,1857,1995
413087,-34132,-2012,-33088,-320,938,1784,323,-521,383,485,653,4307,48,34,825,1747,1849,2063,2217,2051,1805,1857,1995
414088,-34060,-1960,-33023,-255,829,1950,316,-512,361,394,531,4271,48,35,826,1747,1849,2063,2217,2051,1805,1857,1995
415089,-33996,-1896,-32958,-190,932,1802,314,-495,357,322,580,4257,46,35,825,1740,1832,2060,2214,2046,1805,1853,1992
416090,-33932,-1856,-32893,-125,933,2134,303,-471,362,447,683,4140,57,34,826,1740,1832,2060,2214,2046,1805,1853,1992
417091,-33868,-1776,-32828,-60,934,1615,296,-444,370,297,646,4096,53,34,822,1740,1832,2060,2214,2046,1805,1853,1992
418092,-33812,-1708,-32763,5,1046,1763,299,-425,384,118,781,4307,44,30,827,1740,1832,2060,2214,2046,1805,1853,1992
419093,-33752,-1660,-32698,70,1002,2034,313,-410,402,61,749,4031,49,42,825,1740,1832,2060,2214,2046,1805,1853,1992
420094,-33680,-1588,-32633,135,845,1726,306,-404,408,32,655,4072,55,43,822,1728,1832,2056,2216,2048,1800,1856,2008
421095,-33616,-1544,-32568,200,946,2102,295,-412,426,-55,757,4033,43,30,827,1728,1832,2056,2216,2048,1800,1856,2008
422096,-33568,-1484,-32503,265,1167,1910,289,-427,471,36,901,4036,41,39,821,1728,1832,2056,2216,2048,1800,1856,2008
423097,-33524,-1428,-32438,330,1243,1970,284,-428,486,41,914,3998,39,34,822,1728,1832,2056,2216,2048,1800,1856,2008
424098,-33456,-1364,-32373,395,940,1873,278,-425,499,-291,912,4118,42,44,821,1728,1832,2056,2216,2048,1800,1856,2008
425099,-33384,-1316,-32308,460,882,2094,291,-466,513,-72,753,4052,45,44,825,1728,1832,2056,2216,2048,1800,1856,2008
426100,-33324,-1256,-32243,525,1038,1951,275,-510,519,369,808,3915,43,40,822,1755,1857,2081,2246,2046,1810,1860,1992
427101,-33260,-1200,-32178,590,989,2013,297,-481,506,-74,363,4800,48,33,823,1755,1857,2081,2246,2046,1810,1860,1992
428102,-33196,-1152,-32113,655,992,2134,322,-560,527,92,176,4002,40,44,821,1755,1857,2081,2246,2046,1810,1860,1992
429103,-33132,-1080,-32048,720,993,1826,337,-557,496,-1034,175,5324,43,34,821,1755,1857,2081,2246,2046,1810,1860,1992
430104,-33068,-1016,-31983,785,995,1928,348,-458,434,-512,703,4937,50,36,823,1755,1857,2081,2246,2046,1810,1860,1992
431105,-33016,-936,-31918,850,1161,1711,382,-435,439,1443,724,4064,49,45,824,1758,1861,2084,2241,2034,1795,1856,1992
432106,-32940,-884,-31853,915,847,2077,357,-435,431,1017,609,4641,49,48,825,1758,1861,2084,2241,2034,1795,1856,1992
433107,-32892,-824,-31788,980,1219,1984,342,-404,381,123,880,4214,43,52,823,1758,1861,2084,2241,2034,1795,1856,1992
434108,-32824,-736,-31723,1045,965,1607,325,-376,355,122,1059,4342,42,44,822,1758,1861,2084,2241,2034,1795,1856,1992
435109,-32764,-664,-31658,1110,1073,1798,308,-340,333,650,830,4166,47,42,828,1758,1861,2084,2241,2034,1795,1856,1992
436110,-32696,-620,-31593,1175,969,2175,301,-301,323,513,967,4117,44,51,825,1758,1861,2084,2241,2034,1795,1856,1992
437111,-32620,-552,-31528,1240,857,1872,290,-306,321,96,827,4074,54,41,821,1791,1891,2103,2267,2031,1799,1866,1998
438112,-32568,-472,-31463,1305,1172,1704,294,-315,304,-102,755,4101,59,49,825,1791,1891,2103,2267,2031,1799,1866,1998
439113,-32496,-404,-31398,1370,914,1851,303,-362,298,-293,1016,4141,47,54,824,1791,1891,2103,2267,2031,1799,1866,1998
440114,-32440,-332,-31333,1435,1126,1793,319,-405,308,-5,939,4037,42,44,826,1791,1891,2103,2267,2031,1799,1866,1998
441115,-32384,-264,-31268,1500,1137,1840,344,-465,308,-81,774,4268,59,46,824,1791,1891,2103,2267,2031,1799,1866,1998
442116,-32308,-200,-31203,1565,874,1892,377,-524,319,-233,833,4140,52,51,824,1774,1873,2093,2251,2043,1810,1859,1992
443117,-32260,-120,-31138,1630,1245,1675,413,-553,316,-184,735,4248,48,50,825,1774,1873,2093,2251,2043,1810,1859,1992
444118,-32184,-60,-31073,1695,883,1931,443,-582,308,-328,722,4339,54,38,825,1774,1873,2093,2251,2043,1810,1859,1992
445119,-32120,24,-31008,1760,1034,1609,472,-605,307,-145,885,4391,56,39,824,1774,1873,2093,2251,2043,1810,1859,1992
446120,-32044,88,-30943,1825,870,1861,496,-632,318,23,689,4140,43,40,827,1774,1873,2093,2251,2043,1810,1859,1992
447121,-31980,140,-30878,1890,1023,2027,512,-631,310,192,780,4299,39,38,825,1774,1873,2093,2251,2043,1810,1859,1992
448122,-31920,220,-30813,1955,1079,1659,524,-635,303,152,863,4163,49,41,823,1747,1853,2076,2227,2023,1787,1838,1973
449123,-31844,280,-30748,2020,866,1917,537,-601,290,185,1058,4400,41,43,826,1747,1853,2076,2227,2023,1787,1838,1973
450124,-31788,352,-30683,2085,1127,1758,538,-559,267,519,1039,4195,45,48,825,1747,1853,2076,2227,2023,1787,1838,1973
451125,-31724,436,-30618,2150,1029,1586,536,-524,238,667,1165,4252,56,54,825,1747,1853,2076,2227,2023,1787,1838,1973
452126,-31672,524,-30553,2215,1195,1509,527,-507,222,443,1247,4280,40,44,827,1747,1853,2076,2227,2023,1787,1838,1973
453127,-31612,592,-30354,2414,1952,2606,527,-515,204,607,957,4065,51,45,826,1768,1872,2085,2245,2000,1765,1828,1963
454128,-31552,660,-30289,2479,1959,2603,478,-547,174,378,922,3987,56,60,808,1768,1872,2085,2245,2000,1765,1828,1963
455129,-31472,764,-30224,2544,1691,2106,384,-479,115,-334,1004,4041,64,52,808,1768,1872,2085,2245,2000,1765,1828,1963
456130,-31380,860,-30159,2609,1509,2169,256,-355,70,-431,1128,3900,74,65,817,1768,1872,2085,2245,2000,1765,1828,1963
457131,-31280,960,-30094,2674,1366,2077,166,-289,48,58,981,3717,73,77,818,1768,1872,2085,2245,2000,1765,1828,1963
458132,-31180,1072,-30029,2739,1325,1870,137,-333,54,61,670,4092,85,62,820,1789,1881,2095,2253,2043,1819,1870,2017
459133,-31080,1192,-29964,2804,1282,1703,187,-431,72,-27,786,4001,78,66,823,1789,1881,2095,2253,2043,1819,1870,2017
460134,-30976,1324,-29899,2869,1184,1472,254,-509,72,-84,912,4204,80,68,825,1789,1881,2095,2253,2043,1819,1870,2017
461135,-30880,1432,-29834,2934,1247,1721,312,-537,26,4,656,3864,78,65,828,1789,1881,2095,2253,2043,1819,1870,2017
462136,-30752,1524,-29769,2999,770,1888,372,-552,9,-276,830,4416,86,66,825,1789,1881,2095,2253,2043,1819,1870,2017
463137,-30644,1632,-29704,3064,969,1637,400,-519,-3,-1,854,4106,77,63,827,1789,1881,2095,2253,2043,1819,1870,2017
464138,-30552,1744,-29639,3129,1136,1529,406,-453,1,293,800,4188,69,70,828,1703,1803,2042,2182,2111,1863,1893,2042
465139,-30436,1860,-29574,3194,774,1418,407,-423,16,342,1147,4147,67,76,828,1703,1803,2042,2182,2111,1863,1893,2042
466140,-30328,1964,-29509,3259,822,1520,390,-424,26,224,1061,3879,87,65,832,1703,1803,2042,2182,2111,1863,1893,2042
467141,-30208,2052,-29444,3324,605,1693,402,-445,1,2,1176,4212,75,73,831,1703,1803,2042,2182,2111,1863,1893,2042
468142,-30112,2148,-29379,3389,867,1555,396,-460,-29,82,1272,4099,80,64,830,1703,1803,2042,2182,2111,1863,1893,2042
469143,-30012,2228,-29314,3454,776,1738,379,-439,-50,279,1365,4224,69,55,830,1696,1808,2040,2188,2064,1817,1859,1993
470144,-29920,2304,-29249,3519,843,1775,350,-400,-61,233,1460,4045,62,71,829,1696,1808,2040,2188,2064,1817,1859,1993
471145,-29816,2400,-29184,3584,645,1488,319,-369,-64,262,1305,4103,76,57,828,1696,1808,2040,2188,2064,1817,1859,1993
472146,-29736,2496,-29119,3649,927,1450,299,-338,-94,529,1582,4221,68,60,832,1696,1808,2040,2188,2064,1817,1859,1993
473147,-29656,2596,-29054,3714,909,1358,279,-341,-126,167,1499,3915,61,55,830,1696,1808,2040,2188,2064,1817,1859,1993
474148,-29576,2704,-28989,3779,891,1206,259,-325,-143,526,1572,4093,63,70,831,1696,1808,2040,2188,2064,1817,1859,1993
475149,-29492,2796,-28924,3844,818,1373,245,-304,-165,764,1727,3954,53,56,833,1745,1850,2077,2237,2005,1772,1826,1958
476150,-29400,2892,-28859,3909,685,1286,222,-310,-195,290,1264,3698,66,47,832,1745,1850,2077,2237,2005,1772,1826,1958
477151,-29328,2968,-28794,3974,926,1523,196,-327,-237,51,1159,3967,55,53,833,1745,1850,2077,2237,2005,1772,1826,1958
478152,-29240,3052,-28729,4039,699,1400,173,-332,-260,-92,1171,3924,59,46,830,1745,1850,2077,2237,2005,1772,1826,1958
479153,-29156,3124,-28664,4104,726,1542,154,-324,-280,212,1264,3873,54,56,830,1745,1850,2077,2237,2005,1772,1826,1958
480154,-29100,3188,-28599,4169,1087,1643,153,-318,-295,354,1170,3867,58,44,830,1776,1874,2104,2254,2006,1775,1824,1968
481155,-29024,3252,-28534,4234,824,1645,163,-352,-304,405,1184,3825,46,51,826,1776,1874,2104,2254,2006,1775,1824,1968
482156,-28936,3336,-28469,4299,646,1372,187,-379,-312,159,1137,3745,54,44,829,1776,1874,2104,2254,2006,1775,1824,1968
483157,-28876,3408,-28404,4364,1003,1513,212,-376,-326,41,1213,3790,55,56,832,1776,1874,2104,2254,2006,1775,1824,1968
484158,-28796,3496,-28339,4429,734,1286,253,-358,-336,214,1240,3813,53,56,828,1776,1874,2104,2254,2006,1775,1824,1968
485159,-28728,3564,-28274,4494,881,1533,295,-344,-331,461,1298,3813,60,58,833,1776,1874,2104,2254,2006,1775,1824,1968
486160,-28656,3624,-28209,4559,822,1639,335,-350,-321,391,1300,3791,42,54,829,1749,1852,2081,2221,2026,1789,1837,1975
487161,-28592,3684,-28144,4624,923,1646,372,-348,-311,277,1474,3854,41,47,829,1749,1852,2081,2221,2026,1789,1837,1975
488162,-28520,3744,-28079,4689,815,1652,398,-350,-311,419,1737,3592,40,58,828,1749,1852,2081,2221,2026,1789,1837,1975
489163,-28448,3848,-28014,4754,807,1055,410,-351,-323,468,1766,3764,47,52,829,1749,1852,2081,2221,2026,1789,1837,1975
490164,-28392,3952,-27949,4819,1018,1008,445,-331,-320,494,1966,3877,46,53,834,1749,1852,2081,2221,2026,1789,1837,1975
491165,-28324,4044,-27884,4884,865,1125,471,-340,-304,662,2172,3562,53,52,834,1729,1831,2047,2203,2004,1770,1822,1944
492166,-28268,4120,-27819,4949,1026,1312,501,-355,-321,479,1840,3657,42,59,833,1729,1831,2047,2203,2004,1770,1822,1944
493167,-28192,4200,-27754,5014,762,1244,513,-390,-344,374,1820,3724,58,57,831,1729,1831,2047,2203,2004,1770,1822,1944
494168,-28128,4264,-27689,5079,913,1445,526,-436,-351,327,1768,3559,47,49,833,1729,1831,2047,2203,2004,1770,1822,1944
495169,-28068,4348,-27624,5144,970,1172,514,-446,-358,312,1786,3643,50,53,830,1729,1831,2047,2203,2004,1770,1822,1944
496170,-28008,4420,-27559,5209,977,1315,517,-441,-361,441,1718,3579,54,44,831,1729,1831,2047,2203,2004,1770,1822,1944
497171,-27924,4500,-27494,5274,653,1196,515,-457,-362,527,1632,3543,43,53,831,1742,1842,2059,2221,1965,1740,1792,1919
498172,-27860,4552,-27429,5339,905,1562,527,-476,-374,387,1422,3538,43,60,834,1742,1842,2059,2221,1965,1740,1792,1919
499173,-27788,4636,-27364,5404,796,1140,554,-493,-386,435,1378,3553,43,45,829,1742,1842,2059,2221,1965,1740,1792,1919
500174,-27712,4708,-27299,5469,733,1281,590,-506,-393,390,1332,3626,57,47,834,1742,1842,2059,2221,1965,1740,1792,1919
501175,-27652,4772,-27234,5534,939,1383,630,-508,-390,322,1245,3492,45,52,833,1742,1842,2059,2221,1965,1740,1792,1919
502176,-27580,4840,-27169,5599,781,1329,667,-516,-379,505,1212,3547,41,54,830,1760,1858,2083,2224,1960,1727,1783,1935
503177,-27516,4912,-27104,5664,882,1271,692,-523,-359,486,1142,3411,58,48,832,1760,1858,2083,2224,1960,1727,1783,1935
504178,-27440,4984,-27039,5729,719,1263,711,-522,-348,435,1314,3332,47,47,832,1760,1858,2083,2224,1960,1727,1783,1935
505179,-27364,5056,-26974,5794,706,1254,729,-521,-338,361,1342,3406,45,53,833,1760,1858,2083,2224,1960,1727,1783,1935
506180,-27288,5148,-26909,5859,692,972,739,-524,-310,401,1438,3320,43,44,834,1760,1858,2083,2224,1960,1727,1783,1935
507181,-27212,5220,-26844,5924,679,1214,754,-525,-265,620,1645,3359,59,56,836,1760,1858,2083,2224,1960,1727,1783,1935
508182,-27128,5296,-26779,5989,557,1150,761,-527,-243,579,1646,3237,42,55,834,1769,1871,2093,2236,1981,1750,1808,1942
509183,-27072,5368,-26714,6054,918,1192,767,-529,-249,147,1720,3497,44,38,835,1769,1871,2093,2236,1981,1750,1808,1942
510184,-27008,5436,-26649,6119,819,1239,777,-551,-254,99,1907,3554,56,45,832,1769,1871,2093,2236,1981,1750,1808,1942
511185,-26916,5500,-26584,6184,436,1290,781,-587,-251,484,2049,3385,55,50,833,1769,1871,2093,2236,1981,1750,1808,1942
512186,-26852,5572,-26519,6249,787,1182,786,-603,-237,605,1982,3545,47,47,835,1769,1871,2093,2236,1981,1750,1808,1942
513187,-26784,5640,-26454,6314,733,1228,786,-642,-229,429,1921,3340,41,53,833,1744,1841,2053,2203,1995,1763,1819,1954
514188,-26720,5700,-26389,6379,785,1335,799,-660,-233,229,1928,3508,43,50,833,1744,1841,2053,2203,1995,1763,1819,1954
515189,-26660,5780,-26324,6444,841,1067,820,-669,-231,327,1764,3534,44,55,832,1744,1841,2053,2203,1995,1763,1819,1954
516190,-26568,5856,-26259,6509,409,1104,848,-689,-220,346,1616,3574,45,57,834,1744,1841,2053,2203,1995,1763,1819,1954
517191,-26488,5916,-26194,6574,540,1310,884,-714,-205,370,1411,3628,46,55,837,1744,1841,2053,2203,1995,1763,1819,1954
518192,-26424,5992,-26129,6639,742,1097,915,-728,-190,418,1389,3612,55,55,834,1744,1841,2053,2203,1995,1763,1819,1954
519193,-26344,6064,-26064,6704,523,1139,956,-730,-183,483,1520,3576,56,42,835,1711,1809,2031,2173,2016,1777,1820,1960
520194,-26276,6120,-25999,6769,670,1350,986,-750,-161,578,1342,3499,41,58,836,1711,1809,2031,2173,2016,1777,1820,1960
521195,-26192,6196,-25934,6834,446,1086,1017,-754,-135,665,1212,3646,53,58,833,1711,1809,2031,2173,2016,1777,1820,1960
522196,-26132,6260,-25869,6899,753,1239,1025,-725,-118,506,1227,3615,44,60,837,1711,1809,2031,2173,2016,1777,1820,1960
523197,-26064,6340,-25804,6964,649,1020,1036,-675,-90,239,1301,3601,54,53,834,1711,1809,2031,2173,2016,1777,1820,1960
524198,-25980,6420,-25739,7029,426,1002,1027,-671,-71,500,1413,3402,44,54,836,1718,1824,2056,2197,1998,1761,1807,1944
525199,-25908,6496,-25674,7094,567,1038,1007,-692,-46,593,1338,3325,43,49,837,1718,1824,2056,2197,1998,1761,1807,1944
526200,-25832,6580,-25609,7159,505,916,987,-728,21,467,1395,3249,54,45,837,1718,1824,2056,2197,1998,1761,1807,1944
527201,-25740,6660,-25544,7224,272,948,951,-721,69,143,1422,3087,41,49,838,1718,1824,2056,2197,1998,1761,1807,1944
528202,-25684,6736,-25479,7289,733,985,907,-674,87,-81,1343,3392,42,58,839,1718,1824,2056,2197,1998,1761,1807,1944
529203,-25608,6812,-25414,7354,469,971,867,-658,102,208,1530,3467,38,41,837,1718,1824,2056,2197,1998,1761,1807,1944
530204,-25532,6876,-25349,7419,456,1122,821,-664,128,368,1634,3214,51,47,836,1756,1857,2082,2230,1993,1762,1813,1950
531205,-25468,6968,-25284,7484,607,740,771,-672,154,455,1666,3450,42,57,837,1756,1857,2082,2230,1993,1762,1813,1950
532206,-25408,7040,-25219,7549,663,982,744,-678,163,433,1644,3244,37,45,838,1756,1857,2082,2230,1993,1762,1813,1950
533207,-25336,7096,-25154,7614,505,1193,710,-666,158,357,1549,3377,38,52,837,1756,1857,2082,2230,1993,1762,1813,1950
534208,-25268,7156,-25089,7679,551,1149,709,-630,155,166,1491,3576,56,39,835,1756,1857,2082,2230,1993,1762,1813,1950
535209,-25188,7240,-25024,7744,383,826,712,-626,151,212,1537,3414,42,42,836,1727,1822,2046,2179,2050,1807,1845,1996
536210,-25124,7308,-24959,7809,584,1023,738,-631,159,546,1465,3477,54,42,839,1727,1822,2046,2179,2050,1807,1845,1996
537211,-25044,7368,-24894,7874,366,1129,760,-667,193,711,1241,3187,42,43,837,1727,1822,2046,2179,2050,1807,1845,1996
538212,-24980,7428,-24829,7939,567,1135,786,-651,227,341,1162,3322,59,47,837,1727,1822,2046,2179,2050,1807,1845,1996
539213,-24904,7504,-24764,8004,403,922,807,-636,258,-36,1191,3356,46,53,835,1727,1822,2046,2179,2050,1807,1845,1996
540214,-24828,7564,-24699,8069,390,1128,837,-649,290,409,1188,3159,46,56,839,1727,1822,2046,2179,2050,1807,1845,1996
541215,-24760,7656,-24634,8134,487,696,862,-643,338,742,1123,3334,59,42,837,1670,1771,2003,2129,2073,1819,1847,1991
542216,-24680,7732,-24569,8199,319,883,876,-629,427,865,1016,3238,56,48,840,1670,1771,2003,2129,2073,1819,1847,1991
543217,-24592,7804,-24504,8264,191,924,846,-575,487,561,1250,3131,47,50,839,1670,1771,2003,2129,2073,1819,1847,1991
544218,-24516,7892,-24439,8329,327,696,797,-500,528,215,1105,3544,56,51,840,1670,1771,2003,2129,2073,1819,1847,1991
545221,-24452,7960,-24374,8394,479,942,742,-423,577,653,1336,3512,41,43,841,1670,1771,2003,2129,2073,1819,1847,1991
546220,-24380,8044,-24309,8459,370,719,666,-345,612,858,1413,3441,54,42,838,1673,1778,2003,2145,2009,1767,1810,1938
547221,-24308,8100,-24244,8524,362,1081,586,-300,638,500,1543,3343,46,52,839,1673,1778,2003,2145,2009,1767,1810,1938
548222,-24248,8172,-24179,8589,518,873,501,-287,653,424,1571,3276,41,39,838,1673,1778,2003,2145,2009,1767,1810,1938
549223,-24172,8256,-24114,8654,304,699,413,-292,665,607,1498,2970,52,40,839,1673,1778,2003,2145,2009,1767,1810,1938
550224,-24100,8316,-24049,8719,346,1005,347,-285,680,370,1296,3114,54,51,841,1673,1778,2003,2145,2009,1767,1810,1938
551225,-24024,8396,-23984,8784,282,737,303,-232,688,77,1094,3027,43,52,838,1673,1778,2003,2145,2009,1767,1810,1938
552226,-23948,8444,-23919,8849,269,1158,267,-208,684,-37,1076,2979,55,54,841,1698,1796,2024,2164,2026,1787,1824,1968
553227,-23880,8520,-23854,8914,365,794,247,-234,690,-106,762,2574,43,41,837,1698,1796,2024,2164,2026,1787,1824,1968
554228,-23808,8596,-23789,8979,307,782,263,-329,711,236,732,2373,43,56,840,1698,1796,2024,2164,2026,1787,1824,1968
555229,-23728,8668,-23724,9044,188,823,307,-387,732,470,705,2300,47,44,840,1698,1796,2024,2164,2026,1787,1824,1968
556230,-23648,8724,-23659,9109,170,1034,339,-368,762,556,471,2642,44,43,841,1698,1796,2024,2164,2026,1787,1824,1968
557231,-23580,8808,-23594,9174,316,661,338,-271,805,674,365,2682,55,53,839,1672,1772,2015,2139,2072,1821,1844,1989
558232,-23488,8892,-23529,9239,-17,638,322,-113,855,854,613,3201,59,49,841,1672,1772,2015,2139,2072,1821,1844,1989
559233,-23404,8980,-23464,9304,60,560,276,89,923,1057,623,3297,58,58,843,1672,1772,2015,2139,2072,1821,1844,1989
560234,-23352,9064,-23399,9369,476,587,219,282,1007,1483,882,3233,39,56,843,1672,1772,2015,2139,2072,1821,1844,1989
561235,-23276,9152,-23334,9434,163,510,167,406,1059,1366,1145,3100,53,53,841,1672,1772,2015,2139,2072,1821,1844,1989
562236,-23200,9232,-23269,9499,149,591,106,461,1082,793,1108,2852,44,45,843,1672,1772,2015,2139,2072,1821,1844,1989
563237,-23132,9324,-23204,9564,246,408,47,490,1092,555,1416,3002,58,46,843,1656,1760,1977,2114,2019,1781,1815,1930
564238,-23056,9404,-23139,9629,132,540,-25,511,1108,517,1418,2849,50,56,842,1656,1760,1977,2114,2019,1781,1815,1930
565239,-22988,9472,-23074,9694,229,686,-99,508,1116,588,1585,2642,42,51,843,1656,1760,1977,2114,2019,1781,1815,1930
566240,-22908,9548,-23009,9759,60,573,-165,456,1108,281,1290,2469,52,42,842,1656,1760,1977,2114,2019,1781,1815,1930
567241,-22836,9624,-22944,9824,152,560,-209,399,1099,-92,1131,2418,40,55,843,1656,1760,1977,2114,2019,1781,1815,1930
568242,-22772,9688,-22879,9889,253,711,-241,373,1099,-100,1042,2400,49,52,843,1641,1730,1959,2119,2016,1787,1812,1934
569243,-22696,9784,-22814,9954,88,273,-276,423,1105,-83,762,2461,50,48,841,1641,1730,1959,2119,2016,1787,1812,1934
570244,-22624,9868,-22749,10019,130,400,-308,485,1117,515,480,2517,45,46,845,1641,1730,1959,2119,2016,1787,1812,1934
571245,-22556,9940,-22684,10084,176,541,-330,556,1131,1143,425,2589,42,56,844,1641,1730,1959,2119,2016,1787,1812,1934
572246,-22484,10020,-22619,10149,118,423,-343,622,1151,1134,320,2587,56,51,843,1641,1730,1959,2119,2016,1787,1812,1934
573247,-22408,10080,-22554,10214,54,679,-347,734,1179,827,198,2631,40,41,844,1641,1730,1959,2119,2016,1787,1812,1934
574248,-22336,10168,-22489,10279,96,302,-359,891,1184,1106,91,2605,54,43,843,1632,1733,1971,2103,2034,1798,1816,1956
575249,-22264,10260,-22424,10344,87,219,-385,1042,1201,1467,116,2456,40,48,845,1632,1733,1971,2103,2034,1798,1816,1956
576250,-22184,10364,-22359,10409,-31,21,-424,1170,1236,1567,393,2545,54,47,845,1632,1733,1971,2103,2034,1798,1816,1956
577251,-22116,10444,-22294,10474,115,303,-480,1299,1262,880,305,2367,38,54,846,1632,1733,1971,2103,2034,1798,1816,1956
578252,-22016,10536,-22229,10539,-328,120,-548,1394,1272,595,469,2341,56,53,845,1632,1733,1971,2103,2034,1798,1816,1956
579253,-21928,10624,-22164,10604,-206,142,-625,1416,1273,768,701,2005,56,39,845,1646,1752,1982,2121,2004,1773,1803,1919
580254,-21824,10696,-22099,10669,-453,334,-697,1428,1278,884,719,1957,41,35,846,1646,1752,1982,2121,2004,1773,1803,1919
581255,-21764,10768,-22034,10734,103,325,-785,1441,1292,527,643,1990,36,50,837,1646,1752,1982,2121,2004,1773,1803,1919
582256,-21708,10844,-21969,10799,164,262,-884,1452,1294,191,760,1874,40,39,845,1646,1752,1982,2121,2004,1773,1803,1919
583257,-21648,10916,-21904,10864,119,303,-984,1494,1289,-8,706,2128,44,37,845,1646,1752,1982,2121,2004,1773,1803,1919
584258,-21600,10984,-21839,10929,290,349,-1082,1572,1285,162,774,2320,39,52,845,1646,1752,1982,2121,2004,1773,1803,1919
585259,-21524,11048,-21774,10994,-74,400,-1190,1641,1286,584,741,2371,55,42,844,1637,1732,1935,2099,1997,1772,1805,1920
586260,-21468,11132,-21709,11059,187,126,-1269,1690,1270,1045,726,2466,42,51,843,1637,1732,1935,2099,1997,1772,1805,1920
587261,-21396,11188,-21644,11124,-21,487,-1328,1741,1271,767,391,2407,54,49,845,1637,1732,1935,2099,1997,1772,1805,1920
588262,-21332,11260,-21579,11189,80,279,-1378,1817,1265,821,491,2636,44,47,844,1637,1732,1935,2099,1997,1772,1805,1920
589263,-21264,11332,-21514,11254,26,270,-1415,1935,1257,1035,173,2631,54,43,845,1637,1732,1935,2099,1997,1772,1805,1920
590264,-21208,11408,-21449,11319,187,207,-1434,2051,1249,1253,163,2737,44,53,845,1577,1675,1896,2030,2057,1821,1836,1977
591265,-21116,11492,-21384,11384,-296,84,-1454,2166,1253,1034,32,2588,52,49,845,1577,1675,1896,2030,2057,1821,1836,1977
592266,-21028,11552,-21319,11449,-274,390,-1481,2280,1257,873,-136,2499,37,56,846,1577,1675,1896,2030,2057,1821,1836,1977
593267,-20952,11632,-21254,11514,-138,121,-1515,2376,1261,723,-11,2395,45,53,843,1577,1675,1896,2030,2057,1821,1836,1977
594268,-20880,11816,-21189,11579,-97,-1324,-1570,2439,1247,488,192,2128,49,52,846,1577,1675,1896,2030,2057,1821,1836,1977
595269,-20836,11988,-21124,11644,279,-1304,-1616,2493,1236,638,392,1867,49,48,833,1577,1675,1896,2030,2057,1821,1836,1977
596270,-20780,12044,-21059,11709,140,157,-1661,2539,1243,1203,579,1768,29,45,834,1565,1671,1917,2054,2081,1841,1846,1970
597271,-20720,12092,-20994,11774,96,277,-1746,2532,1237,644,536,1807,43,35,844,1565,1671,1917,2054,2081,1841,1846,1970
598272,-20664,12136,-20929,11839,157,353,-1865,2517,1164,-963,535,1747,35,25,843,1565,1671,1917,2054,2081,1841,1846,1970
599273,-20572,12180,-20864,11904,-326,379,-1998,2520,1113,-469,726,2017,39,31,844,1565,1671,1917,2054,2081,1841,1846,1970
600274,-20496,12248,-20799,11969,-139,74,-2136,2555,1104,489,941,1977,40,28,844,1565,1671,1917,2054,2081,1841,1846,1970
601275,-20432,12308,-20734,12034,12,180,-2285,2560,1121,440,767,1395,37,36,839,1614,1720,1955,2102,2022,1791,1815,1936
602276,-20360,12344,-20669,12099,-98,515,-2411,2528,1097,855,855,1391,50,44,845,1614,1720,1955,2102,2022,1791,1815,1936
603277,-20300,12404,-20604,12164,58,222,-2493,2462,1065,1090,597,1368,34,37,840,1614,1720,1955,2102,2022,1791,1815,1936
604278,-20240,12460,-20539,12229,65,283,-2553,2470,1056,758,330,1774,43,46,845,1614,1720,1955,2102,2022,1791,1815,1936
605279,-20164,12516,-20474,12294,-149,294,-2605,2574,1069,524,113,2055,50,46,845,1614,1720,1955,2102,2022,1791,1815,1936
606280,-20108,12584,-20409,12359,112,140,-2662,2730,1068,812,225,2504,51,42,838,1614,1720,1955,2102,2022,1791,1815,1936
607281,-20020,12640,-20344,12424,-316,301,-2715,2860,1066,1310,286,2461,52,39,845,1608,1712,1929,2047,2000,1760,1795,1941
608282,-19968,12704,-20279,12489,150,202,-2757,2947,1060,1829,311,2623,54,38,845,1608,1712,1929,2047,2000,1760,1795,1941
609283,-19920,12776,-20214,12554,221,94,-2806,3026,1045,1543,258,2551,43,36,845,1608,1712,1929,2047,2000,1760,1795,1941
610284,-19844,12844,-20149,12619,-144,140,-2844,3084,1046,728,452,2639,40,45,846,1608,1712,1929,2047,2000,1760,1795,1941
611285,-19760,12912,-20084,12684,-267,135,-2866,3034,1069,202,620,2937,52,50,839,1608,1712,1929,2047,2000,1760,1795,1941
612286,-19712,12980,-20019,12749,204,132,-2855,2934,1038,235,626,3471,50,53,845,1565,1677,1890,2006,2005,1765,1800,1928
613287,-19632,13044,-19954,12814,-215,183,-2823,2784,1020,-272,161,3851,32,52,846,1565,1677,1890,2006,2005,1765,1800,1928
614288,-19572,13124,-19889,12879,42,-36,-2743,2552,1001,-613,364,4015,49,42,846,1565,1677,1890,2006,2005,1765,1800,1928
615289,-19512,13196,-19824,12944,48,56,-2632,2270,1008,-1298,631,4272,39,48,844,1565,1677,1890,2006,2005,1765,1800,1928
616290,-19428,13276,-19759,13009,-276,-62,-2515,1939,1002,-1155,548,4153,50,54,846,1565,1677,1890,2006,2005,1765,1800,1928
617291,-19364,13344,-19694,13074,-24,84,-2410,1487,979,-433,423,4526,38,53,846,1565,1677,1890,2006,2005,1765,1800,1928
618292,-19308,13412,-19629,13139,86,80,-2327,1025,973,8,534,4744,40,51,846,1625,1751,1983,2120,2018,1785,1855,1985
619293,-19252,13488,-19564,13204,97,-33,-2270,715,988,118,772,5151,47,42,846,1625,1751,1983,2120,2018,1785,1855,1985
620294,-19188,13564,-19499,13269,-2,-47,-2237,608,991,178,977,5393,29,48,846,1625,1751,1983,2120,2018,1785,1855,1985
621295,-19132,13644,-19434,13334,109,-116,-2224,645,994,649,913,5665,37,57,846,1625,1751,1983,2120,2018,1785,1855,1985
622296,-19080,13740,-19369,13399,175,-354,-2200,688,993,1446,939,5729,32,55,846,1625,1751,1983,2120,2018,1785,1855,1985
623297,-19008,13816,-19304,13464,-84,-117,-2164,621,995,1404,776,5470,30,56,844,1982,2142,2316,2528,2001,1769,1931,2087
624298,-18940,13904,-19239,13529,-37,-295,-2108,478,1021,1071,209,5116,30,53,844,1982,2142,2316,2528,2001,1769,1931,2087
625299,-18876,13984,-19174,13594,14,-214,-2060,294,1040,1286,222,5212,32,44,845,1982,2142,2316,2528,2001,1769,1931,2087
626300,-18820,14068,-19109,13659,125,-287,-1985,69,1048,814,-67,5063,33,45,845,1982,2142,2316,2528,2001,1769,1931,2087
627301,-18768,14144,-19044,13724,190,-200,-1897,-185,1070,38,-378,5471,31,43,845,1982,2142,2316,2528,2001,1769,1931,2087
628302,-18692,14240,-18979,13789,-124,-489,-1793,-423,1081,-470,-490,5942,33,42,845,1982,2142,2316,2528,2001,1769,1931,2087
629303,-18628,14312,-18914,13854,27,-198,-1657,-670,1103,-964,-793,6250,46,38,838,2334,2479,2570,2755,2009,1773,1935,2081
630304,-18568,14376,-18849,13919,83,-96,-1506,-942,1121,-1406,-1015,6822,29,41,845,2334,2479,2570,2755,2009,1773,1935,2081
631305,-18516,14460,-18784,13984,199,-370,-1362,-1208,1113,-1364,-931,7256,48,44,845,2334,2479,2570,2755,2009,1773,1935,2081
632306,-18456,14516,-18719,14049,105,-9,-1186,-1435,1118,-1436,-894,7668,38,40,842,2334,2479,2570,2755,2009,1773,1935,2081
633307,-18392,14588,-18654,14114,57,-217,-1039,-1641,1137,-1013,-985,7772,50,38,846,2334,2479,2570,2755,2009,1773,1935,2081
634308,-18320,14668,-18589,14179,-52,-336,-911,-1771,1099,-644,-700,7992,43,34,845,2215,2322,2425,2602,1976,1750,1882,1990
635309,-18240,14708,-18524,14244,-170,194,-831,-1839,1094,-1101,-922,7974,36,35,844,2215,2322,2425,2602,1976,1750,1882,1990
636310,-18168,14788,-18459,14309,-80,-324,-782,-1815,1086,-748,-478,8533,42,36,837,2215,2322,2425,2602,1976,1750,1882,1990
637311,-18116,14844,-18394,14374,186,-13,-754,-1725,1063,-782,-228,7559,35,44,842,2215,2322,2425,2602,1976,1750,1882,1990
638312,-18040,14912,-18329,14439,-127,-167,-757,-1668,1057,-590,-446,7522,35,43,845,2215,2322,2425,2602,1976,1750,1882,1990
639313,-17984,14980,-18264,14504,134,-172,-762,-1617,1040,-509,-321,7185,34,42,839,2215,2322,2425,2602,1976,1750,1882,1990
640314,-17900,15028,-18199,14569,-239,99,-776,-1607,1036,-611,-444,6518,45,36,844,2030,2112,2241,2483,2023,1843,1941,2015
641315,-17832,15080,-18134,14634,-43,65,-780,-1606,1032,-171,-532,6341,51,30,833,2030,2112,2241,2483,2023,1843,1941,2015
642316,-17784,15136,-18069,14699,228,26,-762,-1614,1029,-285,-839,5941,59,44,846,2030,2112,2241,2483,2023,1843,1941,2015
643317,-17668,15192,-18004,14764,-685,37,-716,-1574,1022,-680,-717,6115,54,43,845,2030,2112,2241,2483,2023,1843,1941,2015
644318,-17600,15248,-17939,14829,-88,48,-671,-1461,1004,-914,-991,5534,51,40,846,2030,2112,2241,2483,2023,1843,1941,2015
645319,-17528,15316,-17874,14894,-148,-107,-637,-1333,997,-712,-1332,5776,56,38,846,1896,1915,2188,2452,2229,2058,2052,2128
646320,-17456,15368,-17809,14959,-156,109,-593,-1209,1003,-808,-1433,5270,53,34,839,1896,1915,2188,2452,2229,2058,2052,2128
647321,-17396,15408,-17744,15024,0,290,-552,-1146,1024,-542,-1850,4762,59,38,838,1896,1915,2188,2452,2229,2058,2052,2128
648322,-17292,15456,-17679,15089,-598,211,-493,-1046,1032,-458,-1736,5249,48,29,845,1896,1915,2188,2452,2229,2058,2052,2128
649323,-17224,15504,-17614,15154,-152,231,-447,-927,1058,-1059,-1832,4525,40,29,843,1896,1915,2188,2452,2229,2058,2052,2128
650324,-17144,15552,-17549,15219,-320,252,-396,-780,1081,-784,-1857,5120,58,36,845,1896,1915,2188,2452,2229,2058,2052,2128
651325,-17068,15616,-17484,15284,-283,53,-347,-623,1090,-744,-1456,4904,58,44,845,1765,1824,2112,2328,2238,2026,1976,2048
652326,-17000,15688,-17419,15349,-188,-56,-332,-495,1060,-989,-1384,4244,41,43,846,1765,1824,2112,2328,2238,2026,1976,2048
653327,-16896,15736,-17354,15414,-686,264,-334,-395,1053,-305,-1210,4051,50,45,846,1765,1824,2112,2328,2238,2026,1976,2048
654328,-16840,15784,-17289,15479,-75,285,-363,-347,1060,16,-1232,4223,43,32,844,1765,1824,2112,2328,2238,2026,1976,2048
655329,-16756,15840,-17224,15544,-448,196,-395,-271,1041,-407,-1069,4036,57,43,844,1765,1824,2112,2328,2238,2026,1976,2048
656330,-16700,15904,-17159,15609,-87,97,-459,-174,1033,-671,-1007,4049,44,44,845,1720,1796,2026,2241,1991,1767,1800,1862
657331,-16612,15936,-17094,15674,-516,538,-556,1,1009,-331,-824,4097,55,39,846,1720,1796,2026,2241,1991,1767,1800,1862
658332,-16552,15952,-17029,15739,-160,797,-705,217,971,-27,-690,4217,52,33,843,1720,1796,2026,2241,1991,1767,1800,1862
659333,-16468,15984,-16964,15804,-483,638,-847,405,978,-142,-988,3945,50,48,838,1720,1796,2026,2241,1991,1767,1800,1862
660334,-16392,16036,-16899,15869,-396,404,-964,546,984,430,-726,3941,55,50,841,1720,1796,2026,2241,1991,1767,1800,1862
661335,-16312,16096,-16834,15934,-465,309,-1058,638,984,222,-954,3528,40,38,844,1720,1796,2026,2241,1991,1767,1800,1862
662336,-16244,16168,-16769,15999,-318,150,-1118,659,1015,-105,-1062,3230,39,50,845,1726,1811,1983,2180,1879,1666,1760,1858
663337,-16188,16244,-16704,16064,-158,87,-1138,599,1032,-363,-1244,3181,50,41,842,1726,1811,1983,2180,1879,1666,1760,1858
664338,-16112,16304,-16639,16129,-422,293,-1134,487,1022,-582,-1422,2745,36,54,846,1726,1811,1983,2180,1879,1666,1760,1858
665339,-16064,16380,-16574,16194,-51,79,-1092,422,1025,134,-1626,3225,47,51,844,1726,1811,1983,2180,1879,1666,1760,1858
666340,-15988,16448,-16509,16259,-414,176,-1035,421,1037,587,-1657,3333,42,49,845,1726,1811,1983,2180,1879,1666,1760,1858
667341,-15924,16536,-16444,16324,-263,-102,-954,408,1035,491,-1762,3149,40,51,844,1695,1763,1987,2159,2030,1812,1884,2015
668342,-15876,16628,-16379,16389,-44,-185,-871,329,1028,496,-1923,2945,42,45,846,1695,1763,1987,2159,2030,1812,1884,2015
669343,-15828,16700,-16314,16454,-23,56,-793,226,1007,820,-1672,2689,40,46,845,1695,1763,1987,2159,2030,1812,1884,2015
670344,-15760,16768,-16249,16519,-276,103,-721,187,974,816,-1680,3141,30,39,846,1695,1763,1987,2159,2030,1812,1884,2015
671345,-15720,16848,-16184,16584,104,-66,-655,227,937,909,-1541,2996,37,47,845,1695,1763,1987,2159,2030,1812,1884,2015
672346,-15648,16920,-16119,16649,-304,26,-599,200,920,1253,-1349,2683,32,42,846,1695,1763,1987,2159,2030,1812,1884,2015
673347,-15600,17028,-16054,16714,15,-478,-553,114,915,748,-1276,2687,33,50,845,1731,1839,2053,2238,2094,1858,1915,2019
674348,-15568,17080,-15989,16779,256,238,-537,11,933,322,-997,2422,30,48,844,1731,1839,2053,2238,2094,1858,1915,2019
675349,-15524,17136,-15924,16844,131,199,-551,-74,946,223,-753,2698,18,39,844,1731,1839,2053,2238,2094,1858,1915,2019
676350,-15496,17196,-15859,16909,376,155,-597,-141,955,-97,-596,2582,38,42,845,1731,1839,2053,2238,2094,1858,1915,2019
677351,-15448,17256,-15794,16974,147,161,-672,-210,980,-7,-543,2878,23,45,844,1731,1839,2053,2238,2094,1858,1915,2019
678352,-15416,17316,-15729,17039,387,167,-769,-352,1021,-102,-637,2287,37,34,845,1816,1920,2092,2313,1935,1723,1811,1874
679353,-15380,17372,-15664,17104,372,228,-853,-458,1047,-176,-751,3109,20,44,844,1816,1920,2092,2313,1935,1723,1811,1874
680354,-15328,17444,-15599,17169,188,20,-929,-527,1061,76,-858,3216,21,39,844,1816,1920,2092,2313,1935,1723,1811,1874
681355,-15316,17500,-15534,17234,752,231,-971,-561,1065,284,-889,3594,26,47,845,1816,1920,2092,2313,1935,1723,1811,1874
682356,-15280,17568,-15469,17299,488,76,-988,-589,1066,188,-1530,3782,37,38,841,1816,1920,2092,2313,1935,1723,1811,1874
683357,-15228,17612,-15404,17364,304,402,-959,-561,1052,650,-1708,4736,25,45,842,1816,1920,2092,2313,1935,1723,1811,1874
684358,-15188,17688,-15339,17429,484,-12,-889,-511,1032,861,-1864,4638,24,34,843,1788,1878,2037,2216,1884,1680,1760,1873
685359,-15156,17760,-15274,17494,624,30,-786,-409,988,900,-2149,5275,39,44,844,1788,1878,2037,2216,1884,1680,1760,1873
686360,-15096,17804,-15209,17559,281,405,-675,-303,922,1160,-2111,5259,29,38,843,1788,1878,2037,2216,1884,1680,1760,1873
687361,-15068,17876,-15144,17624,726,47,-560,-227,871,1001,-2107,5148,25,33,843,1788,1878,2037,2216,1884,1680,1760,1873
688362,-15016,17944,-15079,17689,442,93,-469,-223,822,845,-1941,4883,30,44,842,1788,1878,2037,2216,1884,1680,1760,1873
689363,-14952,17992,-15014,17754,293,364,-383,-234,760,698,-1770,4510,30,34,843,1717,1818,2028,2208,1997,1790,1857,1965
690364,-14900,18040,-14949,17819,459,385,-336,-293,714,353,-1693,4047,29,43,844,1717,1818,2028,2208,1997,1790,1857,1965
691365,-14848,18128,-14884,17884,475,-143,-302,-323,682,299,-1360,4025,28,38,843,1717,1818,2028,2208,1997,1790,1857,1965
692366,-14812,18176,-14819,17949,710,376,-282,-395,686,358,-1105,3415,41,30,843,1717,1818,2028,2208,1997,1790,1857,1965
693367,-14756,18228,-14754,18014,471,342,-261,-457,687,365,-814,3558,31,43,841,1717,1818,2028,2208,1997,1790,1857,1965
694368,-14676,18276,-14689,18079,153,413,-276,-484,695,228,-629,3352,36,34,842,1843,1943,2167,2447,2086,1894,1970,2015
695369,-14628,18336,-14624,18144,573,269,-297,-409,698,731,-513,3824,42,30,844,1843,1943,2167,2447,2086,1894,1970,2015
696370,-14564,18396,-14559,18209,375,275,-312,-313,713,950,-586,3915,33,30,842,1843,1943,2167,2447,2086,1894,1970,2015
697371,-14496,18436,-14494,18274,321,556,-304,-221,745,713,-811,3919,46,46,843,1843,1943,2167,2447,2086,1894,1970,2015
698372,-14436,18500,-14429,18339,427,257,-286,-154,774,767,-931,4121,37,43,843,1843,1943,2167,2447,2086,1894,1970,2015
699373,-14372,18568,-14364,18404,378,203,-248,-97,786,838,-1214,4398,34,30,843,1843,1943,2167,2447,2086,1894,1970,2015
700374,-14316,18644,-14299,18469,489,90,-216,-43,779,937,-1434,4640,52,39,842,1930,2007,2204,2485,2041,1849,1908,1951
701375,-14252,18700,-14234,18534,390,351,-165,35,754,978,-1721,4954,49,35,843,1930,2007,2204,2485,2041,1849,1908,1951
702376,-14192,18752,-14169,18599,447,417,-133,104,721,1113,-1971,5047,34,44,843,1930,2007,2204,2485,2041,1849,1908,1951
703377,-14128,18808,-13970,18798,561,541,-82,174,659,1288,-2092,5592,32,37,842,1930,2007,2204,2485,2041,1849,1908,1951
704378,-14064,18876,-13905,18863,563,388,-38,222,590,938,-2343,5428,40,42,841,1930,2007,2204,2485,2041,1849,1908,1951
705379,-14008,18928,-13840,18928,674,604,27,248,523,829,-2491,5964,42,42,841,1825,1897,2102,2319,1953,1754,1804,1880
706380,-13948,18988,-13775,18993,630,510,116,266,463,778,-2429,6074,44,43,840,1825,1897,2102,2319,1953,1754,1804,1880
707381,-13876,19056,-13710,19058,471,406,209,253,418,550,-2478,5961,46,36,840,1825,1897,2102,2319,1953,1754,1804,1880
708382,-13816,19112,-13645,19123,627,567,292,215,395,475,-2359,5659,38,34,842,1825,1897,2102,2319,1953,1754,1804,1880
709383,-13744,19168,-13580,19188,469,578,363,190,378,531,-2100,5574,54,47,841,1825,1897,2102,2319,1953,1754,1804,1880
710384,-13688,19244,-13515,19253,680,314,424,197,358,696,-1854,5170,40,43,841,1825,1897,2102,2319,1953,1754,1804,1880
711385,-13620,19320,-13450,19318,526,301,461,254,336,833,-1575,4949,52,49,841,1784,1882,2090,2316,1944,1752,1846,1924
712386,-13568,19376,-13385,19383,742,562,471,314,321,985,-1250,4393,46,40,842,1784,1882,2090,2316,1944,1752,1846,1924
713387,-13484,19468,-13320,19448,319,79,453,368,313,975,-1134,3931,41,38,839,1784,1882,2090,2316,1944,1752,1846,1924
714388,-13428,19536,-13255,19513,680,375,425,425,312,1336,-773,3669,52,53,844,1784,1882,2090,2316,1944,1752,1846,1924
715389,-13364,19616,-13190,19578,582,207,407,482,317,1294,-633,3322,42,48,841,1784,1882,2090,2316,1944,1752,1846,1924
716390,-13288,19688,-13125,19643,418,299,412,482,325,856,-640,3467,56,38,842,1911,2023,2193,2455,2024,1825,1938,2011
717391,-13232,19768,-13060,19708,679,180,434,467,316,687,-587,3466,39,47,842,1911,2023,2193,2455,2024,1825,1938,2011
718392,-13152,19844,-12995,19773,361,217,450,386,300,950,-862,3160,36,35,842,1911,2023,2193,2455,2024,1825,1938,2011
719393,-13104,19900,-12930,19838,782,478,487,348,272,968,-1005,3791,53,45,844,1911,2023,2193,2455,2024,1825,1938,2011
720397,-13044,19968,-12865,19903,638,324,541,313,242,821,-1137,3547,36,42,840,1911,2023,2193,2455,2024,1825,1938,2011
721395,-12968,20040,-12800,19968,425,265,619,236,207,724,-1394,3803,45,52,841,1911,2023,2193,2455,2024,1825,1938,2011
722396,-12908,20084,-12735,20033,631,640,702,150,171,570,-1607,4059,50,45,843,1893,1982,2158,2372,2050,1830,1890,1976
723397,-12844,20152,-12670,20098,582,337,803,73,127,680,-1776,4315,54,39,840,1893,1982,2158,2372,2050,1830,1890,1976
724398,-12780,20224,-12605,20163,583,278,910,35,88,755,-1999,4546,45,38,841,1893,1982,2158,2372,2050,1830,1890,1976
725399,-12704,20292,-12540,20228,420,324,1017,-8,62,845,-1983,4751,44,36,842,1893,1982,2158,2372,2050,1830,1890,1976
726400,-12632,20360,-12475,20293,461,321,1118,-47,62,705,-1811,4820,40,49,843,1893,1982,2158,2372,2050,1830,1890,1976
727401,-12568,20412,-12410,20358,562,537,1188,-68,68,558,-1700,4902,41,37,842,1754,1845,2044,2221,1942,1725,1782,1871
728402,-12496,20484,-12345,20423,454,278,1231,-52,60,729,-1448,4872,45,38,841,1754,1845,2044,2221,1942,1725,1782,1871
729403,-12432,20556,-12280,20488,555,269,1237,4,49,802,-1285,4639,44,51,843,1754,1845,2044,2221,1942,1725,1782,1871
730404,-12380,20608,-12215,20553,721,535,1206,57,59,754,-986,4361,46,38,842,1754,1845,2044,2221,1942,1725,1782,1871
731405,-12300,20656,-12150,20618,353,606,1168,79,63,609,-718,3806,38,50,840,1754,1845,2044,2221,1942,1725,1782,1871
732406,-12228,20728,-12085,20683,445,298,1106,26,96,311,-701,3343,56,38,841,1754,1845,2044,2221,1942,1725,1782,1871
733407,-12180,20808,-12020,20748,766,179,1052,23,117,595,-297,3621,35,48,843,1775,1877,2066,2286,1894,1705,1800,1880
734408,-12104,20876,-11955,20813,402,326,989,54,125,401,-275,3087,44,36,840,1775,1877,2066,2286,1894,1705,1800,1880
735409,-12044,20932,-11890,20878,608,487,938,100,120,471,-231,3206,41,46,843,1775,1877,2066,2286,1894,1705,1800,1880
736410,-11988,21012,-11825,20943,669,168,908,119,113,555,-149,2966,33,43,841,1775,1877,2066,2286,1894,1705,1800,1880
737411,-11916,21092,-11760,21008,461,150,914,119,107,250,-110,2993,37,50,842,1775,1877,2066,2286,1894,1705,1800,1880
738412,-11844,21152,-11695,21073,452,406,944,100,86,42,-215,2987,47,44,843,1828,1914,2109,2329,2025,1825,1892,1993
739413,-11780,21220,-11630,21138,554,302,1004,80,66,-5,-382,3096,47,45,842,1828,1914,2109,2329,2025,1825,1892,1993
740414,-11704,21292,-11565,21203,390,244,1080,58,52,7,-509,3201,45,39,842,1828,1914,2109,2329,2025,1825,1892,1993
741415,-11668,21348,-11500,21268,926,455,1172,47,42,70,-637,3269,35,30,843,1828,1914,2109,2329,2025,1825,1892,1993
742416,-11592,21404,-11435,21333,412,466,1256,44,14,221,-712,3311,43,40,839,1828,1914,2109,2329,2025,1825,1892,1993
743417,-11528,21476,-11370,21398,563,257,1340,57,-7,336,-827,3404,37,34,841,1828,1914,2109,2329,2025,1825,1892,1993
744418,-11476,21528,-11305,21463,729,523,1407,65,-10,410,-799,3459,45,36,842,1757,1841,2071,2251,2087,1855,1879,1983
745419,-11408,21584,-11240,21528,526,484,1478,90,-12,500,-704,3607,47,41,840,1757,1841,2071,2251,2087,1855,1879,1983
746420,-11344,21648,-11175,21593,577,385,1516,120,-8,502,-643,3656,39,47,841,1757,1841,2071,2251,2087,1855,1879,1983
747421,-11284,21716,-11110,21658,633,332,1534,154,3,606,-321,3882,56,46,841,1757,1841,2071,2251,2087,1855,1879,1983
748422,-11204,21764,-11045,21723,365,602,1517,188,14,660,-96,3821,51,46,841,1757,1841,2071,2251,2087,1855,1879,1983
749423,-11132,21840,-10980,21788,456,239,1484,222,30,640,32,3815,38,34,841,1721,1807,2027,2220,1953,1741,1787,1869
750424,-11056,21880,-10915,21853,394,720,1413,256,54,602,122,3644,35,44,843,1721,1807,2027,2220,1953,1741,1787,1869
751425,-10988,21948,-10850,21918,490,366,1338,329,79,540,191,3652,48,38,839,1721,1807,2027,2220,1953,1741,1787,1869
752426,-10920,22004,-10785,21983,486,527,1255,386,96,425,320,3630,37,40,841,1721,1807,2027,2220,1953,1741,1787,1869
753427,-10844,22064,-10720,22048,373,483,1195,407,123,250,354,3517,53,40,841,1721,1807,2027,2220,1953,1741,1787,1869
754428,-10788,22132,-10655,22113,634,379,1160,394,150,165,320,3474,45,47,842,1721,1807,2027,2220,1953,1741,1787,1869
755429,-10732,22216,-10590,22178,645,156,1145,371,171,63,235,3567,34,37,841,1748,1836,2042,2244,1922,1731,1795,1895
756430,-10668,22256,-10525,22243,546,737,1148,367,160,100,255,3529,45,41,842,1748,1836,2042,2244,1922,1731,1795,1895
757431,-10612,22320,-10460,22308,657,438,1164,373,145,125,203,3524,32,45,840,1748,1836,2042,2244,1922,1731,1795,1895
758432,-10560,22384,-10395,22373,723,439,1189,393,125,155,174,3448,35,45,840,1748,1836,2042,2244,1922,1731,1795,1895
759433,-10496,22464,-10330,22438,574,221,1226,419,95,271,144,3372,46,47,840,1748,1836,2042,2244,1922,1731,1795,1895
760434,-10428,22536,-10265,22503,520,312,1268,410,78,362,157,3220,35,46,842,1756,1849,2081,2262,2050,1835,1876,2005
761435,-10348,22592,-10200,22568,352,523,1319,412,53,248,230,3482,46,45,842,1756,1849,2081,2262,2050,1835,1876,2005
762436,-10300,22652,-10135,22633,773,479,1357,418,26,234,132,3314,33,42,842,1756,1849,2081,2262,2050,1835,1876,2005
763437,-10244,22720,-10070,22698,684,376,1392,429,-3,445,270,3531,38,47,840,1756,1849,2081,2262,2050,1835,1876,2005
764438,-10180,22792,-10005,22763,585,317,1417,438,-13,427,342,3374,47,36,841,1756,1849,2081,2262,2050,1835,1876,2005
765439,-10132,22852,-9940,22828,806,473,1420,425,-23,501,521,3567,34,45,841,1756,1849,2081,2262,2050,1835,1876,2005
766440,-10072,22892,-9875,22893,662,754,1409,397,-31,508,644,3470,43,46,840,1772,1869,2111,2285,2086,1857,1891,2007
767441,-10004,22968,-9810,22958,558,290,1384,396,-28,446,767,3829,43,32,838,1772,1869,2111,2285,2086,1857,1891,2007
768442,-9952,23028,-9745,23023,775,496,1352,425,-18,433,835,3895,44,32,840,1772,1869,2111,2285,2086,1857,1891,2007
769443,-9876,23100,-9680,23088,462,338,1320,432,-12,403,941,4098,54,31,839,1772,1869,2111,2285,2086,1857,1891,2007
770445,-9820,23164,-9615,23153,723,439,1276,431,-5,382,990,4276,52,32,842,1772,1869,2111,2285,2086,1857,1891,2007
771445,-9764,23224,-9550,23218,734,495,1228,411,16,226,1037,4341,50,43,841,1776,1872,2096,2273,2023,1808,1851,1963
772446,-9696,23276,-9485,23283,580,610,1191,402,33,84,964,4604,39,39,839,1776,1872,2096,2273,2023,1808,1851,1963
773447,-9640,23344,-9420,23348,741,406,1159,374,41,98,913,4483,35,41,840,1776,1872,2096,2273,2023,1808,1851,1963
774448,-9584,23404,-9355,23413,752,512,1129,354,44,356,810,4636,49,46,840,1776,1872,2096,2273,2023,1808,1851,1963
775449,-9528,23468,-9290,23478,763,464,1123,361,61,441,548,4621,49,42,839,1776,1872,2096,2273,2023,1808,1851,1963
776450,-9472,23524,-9225,23543,774,575,1132,395,42,367,699,4911,47,42,839,1776,1872,2096,2273,2023,1808,1851,1963
777451,-9408,23588,-9160,23608,675,477,1140,414,-18,50,832,4639,41,43,839,1754,1853,2087,2253,2047,1832,1868,2005
778452,-9352,23636,-9095,23673,786,698,1119,383,-73,-66,698,4611,37,45,840,1754,1853,2087,2253,2047,1832,1868,2005
779453,-9288,23696,-9030,23738,687,554,1109,341,-118,-76,656,4682,50,46,839,1754,1853,2087,2253,2047,1832,1868,2005
780454,-9240,23752,-8965,23803,909,615,1099,307,-175,60,741,4552,39,41,839,1754,1853,2087,2253,2047,1832,1868,2005
781455,-9176,23828,-8900,23868,710,351,1104,308,-216,340,582,4518,34,37,838,1754,1853,2087,2253,2047,1832,1868,2005
782456,-9116,23872,-8835,23933,767,777,1097,324,-237,376,591,4252,47,39,840,1776,1881,2138,2308,2128,1904,1930,2075
783457,-9052,23948,-8770,23998,718,364,1071,340,-265,44,854,4282,33,47,838,1776,1881,2138,2308,2128,1904,1930,2075
784458,-9000,24020,-8705,24063,884,405,1008,324,-281,-71,1067,3851,35,37,840,1776,1881,2138,2308,2128,1904,1930,2075
785459,-8952,24080,-8640,24128,954,561,951,326,-282,38,1203,3812,38,42,838,1776,1881,2138,2308,2128,1904,1930,2075
786460,-8880,24136,-8575,24193,646,622,887,317,-275,-254,1190,3715,39,34,837,1776,1881,2138,2308,2128,1904,1930,2075
787461,-8840,24192,-8510,24258,1076,633,830,288,-284,-257,1200,3937,45,36,839,1776,1881,2138,2308,2128,1904,1930,2075
788462,-8776,24256,-8445,24323,778,534,782,248,-266,-129,1129,3982,53,45,836,1824,1928,2170,2341,2153,1923,1949,2082
789463,-8720,24292,-8380,24388,890,920,749,234,-252,-16,922,4255,48,41,838,1824,1928,2170,2341,2153,1923,1949,2082
790464,-8664,24348,-8315,24453,901,681,758,253,-253,-7,821,4623,53,36,836,1824,1928,2170,2341,2153,1923,1949,2082
791465,-8580,24428,-8250,24518,527,362,779,263,-249,260,711,4596,41,49,836,1824,1928,2170,2341,2153,1923,1949,2082
792466,-8524,24484,-8185,24583,888,673,788,331,-249,113,563,4807,37,48,840,1824,1928,2170,2341,2153,1923,1949,2082
793467,-8464,24556,-8120,24648,844,465,758,368,-245,132,261,4613,53,42,839,1764,1860,2100,2252,2108,1873,1892,2016
794468,-8396,24616,-8055,24713,741,621,698,317,-237,781,238,4411,38,34,838,1764,1860,2100,2252,2108,1873,1892,2016
795469,-8344,24684,-7990,24778,957,517,601,174,-221,747,397,3611,40,33,839,1764,1860,2100,2252,2108,1873,1892,2016
796470,-8268,24752,-7925,24843,643,514,537,63,-234,253,414,4046,56,38,838,1764,1860,2100,2252,2108,1873,1892,2016
797471,-8196,24820,-7860,24908,686,510,491,-42,-233,-13,264,4073,46,45,839,1764,1860,2100,2252,2108,1873,1892,2016
798472,-8156,24872,-7795,24973,1116,726,481,-23,-245,295,634,4566,37,41,840,1764,1860,2100,2252,2108,1873,1892,2016
799473,-8092,24928,-7730,25038,817,687,484,79,-230,-43,570,4441,46,51,837,1718,1811,2046,2200,2065,1834,1867,1998
800474,-8016,25008,-7665,25103,654,368,478,177,-225,150,464,4466,45,50,836,1718,1811,2046,2200,2065,1834,1867,1998
801475,-7956,25064,-7600,25168,860,679,461,208,-218,312,529,3976,47,48,839,1718,1811,2046,2200,2065,1834,1867,1998
802476,-7912,25124,-7535,25233,1086,636,437,147,-226,247,735,3601,40,35,838,1718,1811,2046,2200,2065,1834,1867,1998
803477,-7828,25192,-7470,25298,563,532,379,93,-239,-141,697,3655,56,39,836,1718,1811,2046,2200,2065,1834,1867,1998
804478,-7772,25248,-7405,25363,924,693,319,58,-271,-250,897,3450,52,40,838,1728,1834,2068,2236,2076,1844,1888,2016
805479,-7708,25324,-7340,25428,826,429,263,73,-304,-97,821,3577,52,35,838,1728,1834,2068,2236,2076,1844,1888,2016
806480,-7644,25388,-7275,25493,827,581,217,89,-313,159,724,3361,42,46,838,1728,1834,2068,2236,2076,1844,1888,2016
807481,-7596,25456,-7210,25558,1048,527,187,131,-289,283,637,3355,53,40,839,1728,1834,2068,2236,2076,1844,1888,2016
808482,-7528,25516,-7145,25623,794,633,173,137,-254,-12,638,3443,38,48,837,1728,1834,2068,2236,2076,1844,1888,2016
809483,-7460,25576,-7080,25688,790,639,169,141,-234,-397,515,3474,46,40,837,1728,1834,2068,2236,2076,1844,1888,2016
810484,-7396,25652,-7015,25753,842,426,180,148,-197,-202,419,3524,38,34,838,1766,1868,2107,2276,2093,1866,1893,2015
811485,-7356,25696,-6950,25818,1173,851,178,137,-165,262,402,3402,55,42,839,1766,1868,2107,2276,2093,1866,1893,2015
812486,-7288,25756,-6885,25883,819,659,174,133,-134,124,423,3471,57,35,836,1766,1868,2107,2276,2093,1866,1893,2015
813487,-7236,25836,-6820,25948,1035,390,179,164,-112,110,388,3615,37,42,835,1766,1868,2107,2276,2093,1866,1893,2015
814488,-7184,25892,-6755,26013,1051,701,224,166,-90,292,196,3301,39,49,838,1766,1868,2107,2276,2093,1866,1893,2015
815489,-7112,25952,-6690,26078,793,657,238,81,-23,606,397,3393,44,47,836,1759,1851,2095,2271,2036,1822,1842,1941
816490,-7040,26012,-6625,26143,784,663,236,86,40,374,1052,4009,48,43,836,1759,1851,2095,2271,2036,1822,1842,1941
817491,-6992,26060,-6560,26208,1105,834,204,172,49,-214,1011,3824,39,44,838,1759,1851,2095,2271,2036,1822,1842,1941
818492,-6916,26140,-6495,26273,742,416,207,208,24,-139,831,3920,42,38,836,1759,1851,2095,2271,2036,1822,1842,1941
819493,-6868,26216,-6430,26338,1113,452,204,180,3,355,1207,3852,55,50,836,1759,1851,2095,2271,2036,1822,1842,1941
820494,-6796,26280,-6365,26403,805,604,200,162,3,214,997,3930,42,34,838,1759,1851,2095,2271,2036,1822,1842,1941
821495,-6732,26340,-6300,26468,906,660,191,147,-4,111,1060,3924,51,36,837,1750,1827,2063,2255,1965,1763,1800,1894
822496,-6672,26384,-6235,26533,962,885,187,151,-30,65,1176,3748,42,43,837,1750,1827,2063,2255,1965,1763,1800,1894
823497,-6620,26460,-6170,26598,1078,472,167,202,-65,72,1070,4131,39,36,835,1750,1827,2063,2255,1965,1763,1800,1894
824498,-6568,26516,-6105,26663,1095,733,154,240,-82,5,1007,3694,48,41,835,1750,1827,2063,2255,1965,1763,1800,1894
825499,-6512,26584,-6040,26728,1056,579,158,268,-98,133,1108,3919,38,47,835,1750,1827,2063,2255,1965,1763,1800,1894
826500,-6460,26620,-5975,26793,1122,1015,173,275,-99,-237,790,3637,33,34,835,1780,1864,2100,2300,1992,1786,1833,1948
827501,-6396,26676,-5910,26858,973,776,192,266,-98,-251,865,3656,35,46,834,1780,1864,2100,2300,1992,1786,1833,1948
828502,-6360,26744,-5845,26923,1358,622,231,279,-77,-208,784,3747,36,41,834,1780,1864,2100,2300,1992,1786,1833,1948
829503,-6288,26804,-5780,26988,901,728,261,296,-62,-198,694,3552,52,48,834,1780,1864,2100,2300,1992,1786,1833,1948
830504,-6248,26852,-5715,27053,1331,899,301,324,-32,-191,680,3573,38,43,835,1780,1864,2100,2300,1992,1786,1833,1948
831505,-6184,26932,-5650,27118,1032,482,336,332,-2,-155,704,3512,48,33,833,1780,1864,2100,2300,1992,1786,1833,1948
832506,-6128,26976,-5585,27183,1143,957,377,334,28,-341,664,3412,46,34,834,1810,1908,2153,2338,2032,1825,1876,1992
833507,-6084,27024,-5520,27248,1319,928,404,328,67,-431,745,3470,35,34,834,1810,1908,2153,2338,2032,1825,1876,1992
834508,-6024,27092,-5455,27313,1126,674,431,337,97,-212,985,3605,38,40,832,1810,1908,2153,2338,2032,1825,1876,1992
835509,-5960,27156,-5390,27378,1077,725,448,340,101,-101,999,3689,38,42,832,1810,1908,2153,2338,2032,1825,1876,1992
836510,-5900,27212,-5325,27443,1133,836,471,350,100,58,1053,3694,53,47,834,1810,1908,2153,2338,2032,1825,1876,1992
837511,-5848,27272,-5260,27508,1249,793,484,343,108,20,1085,3838,45,38,833,1819,1910,2146,2338,2014,1810,1848,1944
838512,-5800,27340,-5195,27573,1320,689,494,339,105,-133,1181,3974,53,48,833,1819,1910,2146,2338,2014,1810,1848,1944
839513,-5736,27372,-5130,27638,1122,1179,494,332,81,-68,1191,3954,52,45,833,1819,1910,2146,2338,2014,1810,1848,1944
840514,-5676,27444,-5065,27703,1178,671,499,313,58,180,1238,4119,40,45,832,1819,1910,2146,2338,2014,1810,1848,1944
841515,-5612,27500,-5000,27768,1130,882,495,293,37,100,1295,4321,36,35,832,1819,1910,2146,2338,2014,1810,1848,1944
842516,-5552,27556,-4935,27833,1186,893,491,288,7,-28,1061,4247,36,44,834,1819,1910,2146,2338,2014,1810,1848,1944
843517,-5496,27612,-4870,27898,1248,905,486,266,-12,122,985,4208,40,32,833,1794,1867,2098,2290,1966,1770,1811,1910
844518,-5440,27676,-4805,27963,1259,806,499,247,-25,121,983,4337,44,38,832,1794,1867,2098,2290,1966,1770,1811,1910
845519,-5372,27720,-4740,28028,1105,1081,508,235,-25,-210,879,4286,36,30,832,1794,1867,2098,2290,1966,1770,1811,1910
846520,-5324,27784,-4675,28093,1376,833,524,240,-31,-190,936,4422,34,41,833,1794,1867,2098,2290,1966,1770,1811,1910
847521,-5268,27832,-4610,28158,1287,1053,534,241,-24,36,1002,4299,50,34,832,1794,1867,2098,2290,1966,1770,1811,1910
848522,-5220,27892,-4545,28223,1408,910,548,247,-9,66,889,4284,45,45,831,1780,1864,2106,2290,2009,1813,1853,1975
849523,-5168,27956,-4480,28288,1374,861,555,233,25,-270,657,3989,33,37,830,1780,1864,2106,2290,2009,1813,1853,1975
850524,-5120,28016,-4415,28353,1445,917,571,211,51,-342,830,3963,47,38,829,1780,1864,2106,2290,2009,1813,1853,1975
851525,-5072,28080,-4350,28418,1467,869,588,205,66,-386,788,3884,52,39,830,1780,1864,2106,2290,2009,1813,1853,1975
852526,-5020,28132,-4285,28483,1433,1035,602,212,87,-249,825,3799,38,39,829,1780,1864,2106,2290,2009,1813,1853,1975
853527,-4952,28204,-4220,28548,1229,776,605,213,113,-231,923,3744,37,38,828,1780,1864,2106,2290,2009,1813,1853,1975
854528,-4912,28272,-4155,28613,1610,823,615,226,129,-224,987,3761,53,54,828,1805,1909,2160,2340,2085,1871,1907,2033
855529,-4848,28344,-4090,28678,1312,764,615,209,140,-306,973,3734,40,58,833,1805,1909,2160,2340,2085,1871,1907,2033
856530,-4784,28428,-4025,28743,1313,591,615,189,137,-225,1003,3734,43,50,829,1805,1909,2160,2340,2085,1871,1907,2033
857531,-4732,28500,-3960,28808,1479,732,609,175,127,-168,1064,3977,43,51,832,1805,1909,2160,2340,2085,1871,1907,2033
858532,-4692,28540,-3895,28873,1659,1163,607,160,110,-186,1125,3973,42,39,833,1805,1909,2160,2340,2085,1871,1907,2033
859533,-4636,28628,-3830,28938,1471,535,594,121,121,-71,1143,3976,39,42,831,1823,1920,2161,2337,2080,1858,1890,2003
860534,-4572,28696,-3765,29003,1373,782,584,105,121,78,1263,4226,40,42,825,1823,1920,2161,2337,2080,1858,1890,2003
861535,-4500,28760,-3700,29068,1264,833,583,100,96,-49,1231,4249,54,43,832,1823,1920,2161,2337,2080,1858,1890,2003
862536,-4440,28840,-3635,29133,1421,615,578,90,90,-19,1246,4579,57,42,831,1823,1920,2161,2337,2080,1858,1890,2003
863537,-4396,28896,-3570,29198,1647,926,568,98,98,193,1210,4590,55,39,832,1823,1920,2161,2337,2080,1858,1890,2003
864538,-4328,28980,-3505,29263,1343,553,558,121,93,274,1117,4734,54,55,832,1823,1920,2161,2337,2080,1858,1890,2003
865539,-4268,29036,-3440,29328,1450,914,560,118,107,229,1090,4625,38,39,828,1784,1868,2108,2282,2032,1821,1848,1961
866540,-4208,29100,-3375,29393,1456,815,565,112,120,264,1077,4701,55,46,833,1784,1868,2108,2282,2032,1821,1848,1961
867541,-4148,29164,-3310,29458,1462,816,570,110,134,98,1022,4539,42,42,829,1784,1868,2108,2282,2032,1821,1848,1961
868542,-4072,29244,-3245,29523,1250,598,578,96,144,163,966,4480,50,51,830,1784,1868,2108,2282,2032,1821,1848,1961
869543,-4032,29296,-3180,29588,1731,965,585,85,173,184,811,4201,48,48,830,1784,1868,2108,2282,2032,1821,1848,1961
870544,-3980,29344,-3115,29653,1596,1036,602,95,212,139,904,4441,46,53,832,1772,1856,2112,2272,2020,1824,1856,1985
871545,-3920,29428,-3050,29718,1504,563,613,95,257,-59,930,4076,53,55,825,1772,1856,2112,2272,2020,1824,1856,1985
872546,-3852,29492,-2985,29783,1400,814,614,78,284,12,1028,4002,49,56,826,1772,1856,2112,2272,2020,1824,1856,1985
873547,-3796,29540,-2920,29848,1561,1034,610,66,302,-93,1022,3682,38,42,832,1772,1856,2112,2272,2020,1824,1856,1985
874548,-3752,29616,-2855,29913,1737,671,596,38,323,-74,866,3640,35,56,830,1772,1856,2112,2272,2020,1824,1856,1985
875549,-3696,29700,-2790,29978,1598,548,571,26,328,119,901,3648,36,54,827,1772,1856,2112,2272,2020,1824,1856,1985
876550,-3636,29740,-2725,30043,1555,1128,542,10,337,236,1113,3531,49,46,828,1815,1911,2173,2365,2071,1860,1892,2005
877551,-3588,29804,-2660,30108,1726,830,505,13,331,141,1126,3725,50,43,830,1815,1911,2173,2365,2071,1860,1892,2005
878552,-3524,29884,-2595,30173,1528,612,483,26,303,113,1145,3818,38,48,826,1815,1911,2173,2365,2071,1860,1892,2005
879553,-3492,29936,-2530,30238,1968,978,453,33,290,250,1026,3791,36,55,827,1815,1911,2173,2365,2071,1860,1892,2005
880554,-3448,30000,-2465,30303,1844,829,433,38,290,359,1112,3976,48,53,830,1815,1911,2173,2365,2071,1860,1892,2005
881555,-3396,30076,-2400,30368,1760,666,408,52,278,263,1174,4062,43,59,823,1824,1911,2154,2329,2071,1851,1882,2000
882556,-3340,30148,-2335,30433,1721,707,401,77,275,260,1155,4189,41,52,826,1824,1911,2154,2329,2071,1851,1882,2000
883557,-3288,30208,-2270,30498,1788,864,399,109,272,339,1111,4212,40,45,828,1824,1911,2154,2329,2071,1851,1882,2000
884558,-3208,30272,-2205,30563,1420,815,406,116,264,329,1045,4376,53,52,828,1824,1911,2154,2329,2071,1851,1882,2000
885559,-3128,30320,-2140,30628,1403,1035,417,115,267,236,1020,4380,44,42,826,1824,1911,2154,2329,2071,1851,1882,2000
886560,-3088,30384,-2075,30693,1933,837,428,123,276,240,986,4408,46,39,830,1824,1911,2154,2329,2071,1851,1882,2000
887561,-3016,30452,-2010,30758,1525,784,440,144,284,376,1080,4465,39,54,828,1751,1841,2083,2247,2059,1844,1868,1988
888562,-2968,30516,-1945,30823,1846,835,461,156,276,485,1141,4317,44,42,823,1751,1841,2083,2247,2059,1844,1868,1988
889563,-2892,30584,-1880,30888,1483,782,470,123,263,400,1250,4050,42,55,830,1751,1841,2083,2247,2059,1844,1868,1988
890564,-2832,30644,-1815,30953,1689,888,475,118,279,183,1146,4222,61,53,826,1751,1841,2083,2247,2059,1844,1868,1988
891565,-2760,30712,-1750,31018,1531,784,467,114,309,104,1138,4054,58,51,830,1751,1841,2083,2247,2059,1844,1868,1988
892566,-2684,30776,-1685,31083,1468,835,453,134,308,226,1180,4047,47,43,827,1733,1831,2090,2270,2051,1846,1866,1977
893567,-2624,30832,-1620,31148,1675,946,422,114,327,459,1195,3768,39,44,829,1733,1831,2090,2270,2051,1846,1866,1977
894568,-2572,30892,-1555,31213,1791,902,386,59,353,439,1297,3401,39,54,829,1733,1831,2090,2270,2051,1846,1866,1977
895569,-2504,30984,-1490,31278,1587,470,339,36,345,275,1232,3790,55,44,827,1733,1831,2090,2270,2051,1846,1866,1977
896570,-2448,31028,-1425,31343,1749,1096,290,64,353,392,1078,3626,56,44,826,1733,1831,2090,2270,2051,1846,1866,1977
897571,-2388,31104,-1360,31408,1705,683,237,96,347,595,1265,3648,49,40,831,1733,1831,2090,2270,2051,1846,1866,1977
898572,-2328,31160,-1295,31473,1712,944,206,137,334,617,1157,3765,45,50,825,1791,1886,2151,2343,2054,1852,1876,1992
899573,-2264,31220,-1230,31538,1664,900,185,142,322,576,1147,3577,42,58,828,1791,1886,2151,2343,2054,1852,1876,1992
900574,-2228,31296,-1165,31603,2049,686,163,169,298,493,1181,3740,50,48,826,1791,1886,2151,2343,2054,1852,1876,1992
901575,-2168,31364,-1100,31668,1756,783,153,216,263,720,1099,3799,37,50,827,1791,1886,2151,2343,2054,1852,1876,1992
902576,-2120,31432,-1035,31733,1927,779,143,253,230,682,1095,3803,40,54,824,1791,1886,2151,2343,2054,1852,1876,1992
903577,-2068,31492,-970,31798,1893,885,139,303,200,342,1171,3926,53,49,827,1795,1884,2140,2311,2069,1856,1874,1992
904578,-2000,31552,-905,31863,1690,892,144,310,179,302,1276,3951,47,51,823,1795,1884,2140,2311,2069,1856,1874,1992
905579,-1948,31608,-840,31928,1906,953,158,308,144,377,1371,3968,57,51,823,1795,1884,2140,2311,2069,1856,1874,1992
906580,-1888,31664,-775,31993,1813,964,166,324,117,193,1397,3999,52,42,827,1795,1884,2140,2311,2069,1856,1874,1992
907581,-1828,31728,-710,32058,1819,865,169,335,101,226,1449,4041,41,42,824,1795,1884,2140,2311,2069,1856,1874,1992
908582,-1756,31796,-645,32123,1662,812,173,363,110,214,1363,4083,44,50,825,1795,1884,2140,2311,2069,1856,1874,1992
909583,-1708,31844,-580,32188,1982,1082,173,393,117,289,1441,4101,50,55,825,1740,1835,2094,2266,2047,1823,1855,1966
910584,-1624,31932,-515,32253,1509,554,170,428,133,345,1426,4100,48,49,828,1740,1835,2094,2266,2047,1823,1855,1966
911585,-1556,31996,-450,32318,1707,856,154,465,150,435,1534,4011,59,54,822,1740,1835,2094,2266,2047,1823,1855,1966
912586,-1488,32064,-385,32383,1703,803,136,533,159,407,1431,4114,41,42,831,1740,1835,2094,2266,2047,1823,1855,1966
913587,-1432,32136,-320,32448,1865,744,119,573,170,559,1397,3855,54,51,827,1740,1835,2094,2266,2047,1823,1855,1966
914588,-1368,32200,-255,32513,1766,846,94,602,193,577,1302,3874,44,50,827,1742,1838,2095,2272,2024,1838,1858,1959
915589,-1316,32272,-190,32578,1933,737,72,634,204,514,1388,3839,42,53,826,1742,1838,2095,2272,2024,1838,1858,1959
916590,-1244,32344,-125,32643,1674,728,45,649,208,600,1379,3742,52,50,827,1742,1838,2095,2272,2024,1838,1858,1959
917591,-1184,32404,-60,32708,1831,885,21,645,191,752,1451,3745,50,47,825,1742,1838,2095,2272,2024,1838,1858,1959
918592,-1112,32464,5,32773,1673,891,-5,648,189,457,1229,3571,54,50,827,1742,1838,2095,2272,2024,1838,1858,1959
919593,-1064,32532,70,32838,1994,787,-32,634,161,696,1276,3591,41,56,825,1775,1860,2132,2328,2046,1849,1862,1972
920594,-988,32604,135,32903,1631,728,-51,632,129,557,1218,3584,36,60,827,1775,1860,2132,2328,2046,1849,1862,1972
921595,-944,32656,200,32968,2057,995,-62,650,88,728,1248,3733,40,47,822,1775,1860,2132,2328,2046,1849,1862,1972
922596,-872,32732,265,33033,1699,682,-75,661,60,761,1170,3616,48,46,827,1775,1860,2132,2328,2046,1849,1862,1972
924598,-744,32884,395,33163,1702,655,-99,682,-8,770,1188,3561,42,47,829,1775,1860,2132,2328,2046,1849,1862,1972
925599,-684,32944,460,33228,1859,861,-102,707,-34,551,1420,3794,47,55,826,1780,1866,2134,2308,2067,1854,1870,1994
926600,-640,33020,525,33293,2085,648,-110,781,-48,431,1460,4047,43,61,828,1780,1866,2134,2308,2067,1854,1870,1994
927601,-548,33088,590,33358,1453,744,-98,874,-63,537,1545,3972,56,62,825,1780,1866,2134,2308,2067,1854,1870,1994
928602,-488,33140,655,33423,1859,960,-95,933,-68,571,1596,3913,66,44,824,1780,1866,2134,2308,2067,1854,1870,1994
929603,-420,33224,720,33488,1756,537,-91,927,-67,444,1609,3690,43,50,830,1780,1866,2134,2308,2067,1854,1870,1994
930604,-336,33300,785,33553,1533,624,-110,885,-63,200,1534,3730,58,53,824,1754,1856,2106,2274,2056,1837,1864,1981
931605,-264,33368,850,33618,1674,721,-132,859,-63,-39,1527,3751,48,56,829,1754,1856,2106,2274,2056,1837,1864,1981
932606,-192,33444,915,33683,1667,607,-173,849,-69,259,1712,3800,48,55,831,1754,1856,2106,2274,2056,1837,1864,1981
933607,-120,33532,980,33748,1658,429,-202,857,-77,250,1764,3889,61,58,828,1754,1856,2106,2274,2056,1837,1864,1981
934608,-48,33608,1045,33813,1651,566,-237,875,-87,160,1621,3743,47,55,829,1754,1856,2106,2274,2056,1837,1864,1981
935609,4,33668,1110,33878,1917,772,-262,885,-98,250,1718,3971,58,57,831,1754,1856,2106,2274,2056,1837,1864,1981
936610,100,33724,1175,33943,1330,833,-284,882,-106,436,1759,3848,56,58,830,1741,1845,2094,2267,2045,1835,1859,1978
937611,160,33796,1240,34008,1786,624,-292,851,-111,626,1612,3711,64,42,825,1741,1845,2094,2267,2045,1835,1859,1978
938612,208,33876,1305,34073,1957,506,-293,824,-144,716,1548,3852,42,53,830,1741,1845,2094,2267,2045,1835,1859,1978
939613,280,33940,1370,34138,1649,707,-297,823,-181,667,1426,3827,49,54,827,1741,1845,2094,2267,2045,1835,1859,1978
940614,356,33992,1435,34203,1586,873,-314,828,-213,858,1362,3701,64,49,826,1741,1845,2094,2267,2045,1835,1859,1978
941615,424,34064,1500,34268,1683,615,-316,849,-260,815,1480,3823,47,59,829,1752,1845,2112,2280,2056,1848,1865,1992
942616,500,34132,1565,34333,1570,661,-331,854,-299,619,1386,3655,56,59,828,1752,1845,2112,2280,2056,1848,1865,1992
943617,576,34224,1630,34398,1556,329,-328,870,-320,725,1285,3706,45,49,829,1752,1845,2112,2280,2056,1848,1865,1992
944618,620,34292,1695,34463,1983,625,-343,899,-341,924,1431,3677,58,47,830,1752,1845,2112,2280,2056,1848,1865,1992
945621,692,34356,1760,34528,1624,676,-359,908,-358,518,1565,3682,42,49,832,1752,1845,2112,2280,2056,1848,1865,1992
946620,752,34420,1825,34593,1781,678,-385,895,-384,307,1582,3680,61,49,826,1752,1845,2112,2280,2056,1848,1865,1992
947621,824,34500,1890,34658,1623,459,-411,874,-391,219,1606,3535,49,51,829,1767,1859,2128,2302,2053,1846,1862,1980
948622,892,34580,1955,34723,1669,441,-434,833,-410,221,1727,3458,64,52,828,1767,1859,2128,2302,2053,1846,1862,1980
949623,972,34664,2020,34788,1502,368,-463,832,-419,-36,1545,3699,52,47,830,1767,1859,2128,2302,2053,1846,1862,1980
950624,1052,34732,2085,34853,1483,564,-501,825,-422,93,1681,3482,48,45,830,1767,1859,2128,2302,2053,1846,1862,1980
951625,1116,34816,2150,34918,1686,341,-516,853,-447,199,1823,3760,47,60,832,1767,1859,2128,2302,2053,1846,1862,1980
952626,1192,34876,2215,34983,1522,647,-537,837,-454,6,1812,3460,48,49,832,1755,1863,2117,2287,2045,1833,1859,1979
953627,1272,34944,2414,35182,1618,707,-531,853,-445,-91,1721,3893,55,51,831,1755,1863,2117,2287,2045,1833,1859,1979
954628,1336,35028,2479,35247,1820,484,-538,883,-435,145,1758,3764,50,53,831,1755,1863,2117,2287,2045,1833,1859,1979
955629,1432,35088,2544,35312,1382,790,-528,921,-451,271,1891,3973,52,55,828,1755,1863,2117,2287,2045,1833,1859,1979
956630,1516,35172,2609,35377,1510,467,-524,934,-473,186,1899,3809,69,48,827,1755,1863,2117,2287,2045,1833,1859,1979
957631,1584,35232,2674,35442,1706,773,-509,960,-489,143,1735,3994,54,53,831,1755,1863,2117,2287,2045,1833,1859,1979
958632,1672,35312,2739,35507,1428,505,-517,996,-514,453,1545,3907,62,63,832,1740,1839,2089,2257,2039,1824,1846,1966
959633,1744,35384,2804,35572,1620,597,-518,1033,-553,748,1565,3931,70,49,828,1740,1839,2089,2257,2039,1824,1846,1966
960634,1816,35476,2869,35637,1612,314,-522,1082,-595,616,1647,3788,51,67,833,1740,1839,2089,2257,2039,1824,1846,1966
961635,1908,35556,2934,35702,1330,446,-537,1114,-635,417,1540,3755,69,68,830,1740,1839,2089,2257,2039,1824,1846,1966
962636,1988,35644,2999,35767,1462,318,-557,1127,-678,385,1571,3579,54,50,832,1740,1839,2089,2257,2039,1824,1846,1966
963637,2064,35712,3064,35832,1498,564,-581,1129,-700,457,1601,3694,62,48,834,1754,1843,2107,2285,2031,1827,1844,1959
964638,2180,35796,3129,35897,937,341,-600,1138,-713,381,1594,3572,61,56,833,1754,1843,2107,2285,2031,1827,1844,1959
965639,2256,35876,3194,35962,1424,372,-614,1126,-717,210,1694,3448,56,53,832,1754,1843,2107,2285,2031,1827,1844,1959
966640,2328,35952,3259,36027,1466,409,-639,1088,-729,15,1720,3431,61,65,838,1754,1843,2107,2285,2031,1827,1844,1959
967641,2412,36012,3324,36092,1293,615,-665,1071,-718,-85,1517,3476,58,61,834,1754,1843,2107,2285,2031,1827,1844,1959
968642,2500,36092,3389,36157,1215,347,-691,1041,-695,170,1671,3278,61,63,833,1754,1843,2107,2285,2031,1827,1844,1959
969643,2580,36168,3454,36222,1297,383,-710,1002,-687,-103,1626,3285,64,56,833,1770,1856,2127,2309,2038,1839,1855,1973
970644,2668,36248,3519,36287,1169,315,-743,981,-690,-210,1468,3398,60,59,836,1770,1856,2127,2309,2038,1839,1855,1973
971645,2744,36328,3584,36352,1306,297,-776,983,-688,-16,1397,3195,56,57,835,1770,1856,2127,2309,2038,1839,1855,1973
972646,2832,36392,3649,36417,1129,498,-803,988,-686,359,1541,3135,62,54,835,1770,1856,2127,2309,2038,1839,1855,1973
973647,2936,36476,3714,36482,881,225,-825,991,-695,361,1484,3377,53,51,834,1770,1856,2127,2309,2038,1839,1855,1973
974648,3020,36540,3779,36547,1108,476,-842,1010,-716,98,1583,3502,50,61,836,1754,1845,2100,2255,2053,1835,1858,1991
975649,3088,36628,3844,36612,1304,148,-853,1025,-730,129,1396,3353,58,58,839,1754,1845,2100,2255,2053,1835,1858,1991
976650,3168,36708,3909,36677,1137,230,-862,1022,-744,238,1524,3414,49,51,836,1754,1845,2100,2255,2053,1835,1858,1991
977651,3256,36768,3974,36742,1009,486,-861,1016,-769,54,1647,3599,55,62,836,1754,1845,2100,2255,2053,1835,1858,1991
978652,3336,36856,4039,36807,1091,108,-861,991,-805,-179,1612,3407,61,56,837,1754,1845,2100,2255,2053,1835,1858,1991
979653,3412,36936,4104,36872,1128,189,-869,962,-827,-200,1471,3480,51,50,837,1754,1845,2100,2255,2053,1835,1858,1991
980654,3504,37012,4169,36937,895,226,-864,936,-852,-56,1570,3520,55,55,838,1707,1806,2048,2190,2043,1811,1842,1978
981655,3576,37100,4234,37002,1137,48,-865,925,-878,-240,1625,3471,50,61,838,1707,1806,2048,2190,2043,1811,1842,1978
982656,3676,37160,4299,37067,744,404,-874,877,-901,-396,1695,3318,57,55,839,1707,1806,2048,2190,2043,1811,1842,1978
983657,3764,37256,4364,37132,867,-84,-889,822,-909,-565,1449,3254,53,62,838,1707,1806,2048,2190,2043,1811,1842,1978
984658,3836,37336,4429,37197,1058,98,-926,754,-921,41,1323,3172,51,47,840,1707,1806,2048,2190,2043,1811,1842,1978
985659,3928,37412,4494,37262,775,134,-958,690,-943,-77,1358,2951,50,45,840,1707,1811,2051,2207,2021,1798,1835,1966
986660,4004,37472,4559,37327,962,340,-998,612,-961,-352,1302,2944,63,59,839,1707,1811,2051,2207,2021,1798,1835,1966
987661,4100,37556,4624,37392,674,17,-1033,588,-978,-250,1121,3012,60,58,841,1707,1811,2051,2207,2021,1798,1835,1966
988662,4180,37640,4689,37457,857,-7,-1075,574,-978,-156,1101,3105,61,57,838,1707,1811,2051,2207,2021,1798,1835,1966
989663,4260,37712,4754,37522,839,135,-1102,573,-983,-67,1173,2909,55,46,841,1707,1811,2051,2207,2021,1798,1835,1966
990664,4328,37780,4819,37587,985,181,-1113,523,-974,-94,1090,2853,47,55,840,1707,1811,2051,2207,2021,1798,1835,1966
991665,4404,37852,4884,37652,871,122,-1119,476,-944,-226,1120,3060,62,59,841,1749,1848,2088,2249,2016,1804,1841,1969
992666,4484,37924,4949,37717,803,114,-1134,436,-930,-446,1174,2898,56,48,839,1749,1848,2088,2249,2016,1804,1841,1969
993667,4572,38004,5014,37782,676,-4,-1141,383,-935,-559,1259,3015,47,48,840,1749,1848,2088,2249,2016,1804,1841,1969
994668,4652,38084,5079,37847,758,-23,-1145,310,-951,-397,957,2880,61,49,841,1749,1848,2088,2249,2016,1804,1841,1969
995670,4732,38168,5144,37912,739,-96,-1150,225,-962,-266,859,3047,55,44,842,1749,1848,2088,2249,2016,1804,1841,1969
996670,4832,38248,5209,37977,447,-64,-1169,139,-978,-373,981,2732,56,45,841,1750,1841,2080,2240,2008,1794,1832,1955
997671,4896,38328,5274,38042,898,-83,-1199,68,-1016,-513,975,2861,57,52,841,1750,1841,2080,2240,2008,1794,1832,1955
998672,4992,38392,5339,38107,460,119,-1225,37,-1060,-638,862,3044,56,40,843,1750,1841,2080,2240,2008,1794,1832,1955
999673,5084,38484,5404,38172,477,-264,-1236,11,-1105,-372,943,3074,45,46,840,1750,1841,2080,2240,2008,1794,1832,1955
1000674,5156,38564,5469,38237,720,-134,-1234,-34,-1132,-518,887,3089,48,54,843,1750,1841,2080,2240,2008,1794,1832,1955
1001675,5252,38636,5534,38302,382,-42,-1236,-79,-1159,-662,1044,3001,57,43,842,1750,1841,2080,2240,2008,1794,1832,1955
1002676,5340,38712,5599,38367,454,-106,-1233,-110,-1171,-648,1022,3108,50,46,841,1725,1817,2041,2195,1991,1774,1822,1948
1003677,5432,38780,5664,38432,371,-9,-1214,-103,-1183,-658,1004,3316,51,48,844,1725,1817,2041,2195,1991,1774,1822,1948
1004678,5520,38832,5729,38497,393,207,-1198,-112,-1195,-703,868,3167,49,41,843,1725,1817,2041,2195,1991,1774,1822,1948
1005679,5596,38908,5794,38562,529,-107,-1180,-129,-1196,-416,874,3116,50,56,844,1725,1817,2041,2195,1991,1774,1822,1948
1006680,5676,38948,5859,38627,461,374,-1165,-147,-1187,-602,843,3126,58,49,842,1725,1817,2041,2195,1991,1774,1822,1948
1007681,5756,39028,5924,38692,443,-146,-1166,-144,-1192,-907,763,3035,42,52,841,1706,1807,2023,2187,1976,1759,1813,1930
1008682,5836,39096,5989,38757,424,1,-1176,-128,-1208,-775,649,3177,44,42,842,1706,1807,2023,2187,1976,1759,1813,1930
1009683,5924,39152,6054,38822,296,162,-1191,-145,-1218,-482,626,2772,50,49,843,1706,1807,2023,2187,1976,1759,1813,1930
1010684,6000,39224,6119,38887,433,-47,-1204,-196,-1224,-663,668,2445,59,43,844,1706,1807,2023,2187,1976,1759,1813,1930
1011685,6088,39288,6184,38952,255,54,-1223,-229,-1232,-1003,525,2691,58,52,844,1706,1807,2023,2187,1976,1759,1813,1930
1012686,6180,39356,6249,39017,172,1,-1243,-247,-1251,-809,456,2575,43,53,844,1706,1807,2023,2187,1976,1759,1813,1930
1013687,6256,39428,6314,39082,358,-58,-1263,-254,-1264,-530,421,2827,48,42,845,1737,1830,2056,2237,1965,1763,1810,1917
1014688,6344,39496,6379,39147,180,-12,-1275,-296,-1274,-512,400,2373,39,53,845,1737,1830,2056,2237,1965,1763,1810,1917
1015689,6432,39560,6444,39212,152,39,-1257,-325,-1287,-628,461,2547,38,54,844,1737,1830,2056,2237,1965,1763,1810,1917
1016690,6520,39636,6509,39277,124,-125,-1260,-331,-1319,-866,142,2554,39,52,845,1737,1830,2056,2237,1965,1763,1810,1917
1017691,6604,39708,6574,39342,151,-83,-1258,-283,-1339,-265,166,2774,58,42,846,1737,1830,2056,2237,1965,1763,1810,1917
1018692,6692,39780,6639,39407,73,-92,-1238,-268,-1333,150,219,2602,38,42,845,1745,1822,2051,2231,1963,1761,1802,1907
1019693,6776,39836,6704,39472,100,119,-1226,-283,-1340,-331,252,2512,56,42,845,1745,1822,2051,2231,1963,1761,1802,1907
1020694,6864,39932,6769,39537,22,-419,-1209,-269,-1361,-719,158,3023,48,48,845,1745,1822,2051,2231,1963,1761,1802,1907
