%  Data file recorded 2016/9/7  21:49:38
%  Stride Frequency         = [1, 1]
%  Lead In /Lead Out        = 
%  Deltas (Fractional)      = [0.25, 0.25, 0.25],[0.25, 0.25, 0.25]
%  Phase                    = 32768
%  Experiment.py 
%  Motor Gains    = [5000, 400, 200, 0, 300, 5000, 400, 200, 0, 300]
% Columns: 
% time | Right Leg Pos | Left Leg Pos | Commanded Right Leg Pos | Commanded Left Leg Pos | DCR | DCL | GyroX | GyroY | GyroZ | AX | AY | AZ | RBEMF | LBEMF | VBatt | S1 | S2 | S3 | S4 | S5 | S6 | S7 | S8
732,-43980,-16496,-46574,-13806,-3800,3800,17,9,-9,5,55,3931,-11,7,905,1756,1864,2080,2256,2036,1805,1856,1978
1733,-43980,-16492,-46574,-13806,-3800,3800,18,11,-9,-8,42,3930,-2,2,905,1756,1864,2080,2256,2036,1805,1856,1978
2734,-43972,-16496,-46574,-13806,-3800,3800,15,13,-6,5,48,3942,2,-6,905,1756,1864,2080,2256,2036,1805,1856,1978
3735,-43980,-16500,-46574,-13806,-3800,3800,16,14,-7,20,79,3898,-10,-7,905,1756,1864,2080,2256,2036,1805,1856,1978
4736,-43984,-16484,-46574,-13806,-3800,3800,15,14,-7,-9,83,3883,6,-5,905,1755,1861,2077,2256,2037,1805,1855,1977
5737,-43968,-16492,-46574,-13806,-3800,3800,14,15,-8,-26,67,3906,-11,7,905,1755,1861,2077,2256,2037,1805,1855,1977
6738,-43988,-16480,-46574,-13806,-3800,3800,14,16,-10,-1,71,3906,7,8,905,1755,1861,2077,2256,2037,1805,1855,1977
7739,-43972,-16496,-46574,-13806,-3800,3800,15,15,-8,-6,65,3923,-5,2,905,1755,1861,2077,2256,2037,1805,1855,1977
8740,-43984,-16488,-46574,-13806,-3800,3800,15,13,-8,-24,67,3933,-7,-7,905,1755,1861,2077,2256,2037,1805,1855,1977
9741,-43968,-16500,-46574,-13806,-3800,3800,14,12,-6,-27,62,3959,7,-4,905,1755,1861,2077,2256,2037,1805,1855,1977
10742,-43992,-16496,-46574,-13806,-3800,3800,15,13,-5,-22,71,3927,-11,0,905,1755,1861,2077,2256,2037,1805,1853,1977
11743,-43992,-16504,-46574,-13806,-3800,3800,17,16,-6,-2,69,3919,8,8,905,1755,1861,2077,2256,2037,1805,1853,1977
12744,-43984,-16480,-46574,-13806,-3800,3800,18,16,-7,2,75,3906,-11,8,905,1755,1861,2077,2256,2037,1805,1853,1977
13745,-43984,-16488,-46574,-13806,-3800,3800,16,13,-9,-3,67,3911,6,7,905,1755,1861,2077,2256,2037,1805,1853,1977
14746,-43976,-16496,-46574,-13806,-3800,3800,16,13,-7,-3,74,3924,-10,-1,905,1755,1861,2077,2256,2037,1805,1853,1977
15747,-43992,-16500,-46574,-13806,-3800,3800,15,13,-6,-4,71,3900,5,-1,905,1756,1862,2080,2258,2040,1808,1856,1978
16748,-43976,-16492,-46574,-13806,-3800,3800,14,13,-5,6,62,3930,2,-4,905,1756,1862,2080,2258,2040,1808,1856,1978
17749,-43976,-16492,-46574,-13806,-3800,3800,13,14,-5,1,82,3934,-6,-6,905,1756,1862,2080,2258,2040,1808,1856,1978
18750,-43980,-16508,-46574,-13806,-3800,3800,14,14,-6,-21,73,3893,5,-3,905,1756,1862,2080,2258,2040,1808,1856,1978
19751,-43980,-16488,-46574,-13806,-3800,3800,14,14,-8,-6,73,3923,-11,-3,904,1756,1862,2080,2258,2040,1808,1856,1978
20752,-43988,-16492,-46574,-13806,-3800,3800,15,15,-6,-4,76,3909,8,-1,905,1756,1862,2080,2258,2040,1808,1856,1978
21753,-43972,-16484,-46574,-13806,-3800,3800,13,14,-4,9,47,3942,-10,0,905,1756,1863,2078,2257,2038,1806,1855,1979
22754,-43980,-16480,-46574,-13806,-3800,3800,13,13,-6,10,56,3950,7,4,905,1756,1863,2078,2257,2038,1806,1855,1979
23755,-43968,-16484,-46574,-13806,-3800,3800,12,12,-6,17,79,3928,-11,7,905,1756,1863,2078,2257,2038,1806,1855,1979
24756,-43980,-16500,-46574,-13806,-3800,3800,13,12,-7,5,74,3886,9,-1,905,1756,1863,2078,2257,2038,1806,1855,1979
25757,-43984,-16488,-46574,-13806,-3800,3800,13,13,-5,-21,54,3926,-8,-3,905,1756,1863,2078,2257,2038,1806,1855,1979
26758,-43980,-16496,-46574,-13806,-3800,3800,14,13,-3,-8,67,3942,4,-7,905,1756,1862,2079,2258,2039,1806,1855,1979
27759,-43984,-16488,-46574,-13806,-3800,3800,13,15,-3,8,103,3960,-6,-5,905,1756,1862,2079,2258,2039,1806,1855,1979
28760,-43972,-16500,-46574,-13806,-3800,3800,15,14,-6,16,74,3978,-4,-5,905,1756,1862,2079,2258,2039,1806,1855,1979
29761,-43980,-16500,-46574,-13806,-3800,3800,16,12,-7,-6,65,3958,-4,6,905,1756,1862,2079,2258,2039,1806,1855,1979
30762,-43976,-16488,-46574,-13806,-3800,3800,16,13,-7,-27,64,3947,8,8,905,1756,1862,2079,2258,2039,1806,1855,1979
31763,-43976,-16496,-46574,-13806,-3800,3800,14,14,-6,-54,65,3930,-11,8,905,1755,1859,2079,2258,2040,1806,1856,1978
32764,-43980,-16484,-46574,-13806,-3800,3800,14,14,-6,-8,71,3942,6,5,905,1755,1859,2079,2258,2040,1806,1856,1978
33765,-43988,-16500,-46574,-13806,-3800,3800,13,14,-6,0,87,3927,-9,5,905,1755,1859,2079,2258,2040,1806,1856,1978
34766,-43964,-16500,-46574,-13806,-3800,3800,14,14,-5,4,65,3908,4,3,905,1755,1859,2079,2258,2040,1806,1856,1978
35767,-43984,-16504,-46574,-13806,-3800,3800,15,15,-4,25,66,3934,-8,-6,905,1755,1859,2079,2258,2040,1806,1856,1978
36768,-43984,-16500,-46574,-13806,-3800,3800,15,16,-4,-2,78,3919,8,-7,904,1755,1859,2079,2258,2040,1806,1856,1978
37769,-43972,-16492,-46574,-13806,-3800,3800,14,17,-6,0,73,3921,-9,-5,905,1756,1862,2078,2257,2037,1805,1854,1978
38770,-43972,-16504,-46574,-13806,-3800,3800,14,14,-7,-15,67,3943,0,-7,905,1756,1862,2078,2257,2037,1805,1854,1978
39771,-43972,-16500,-46574,-13806,-3800,3800,14,12,-7,5,69,3915,2,-7,905,1756,1862,2078,2257,2037,1805,1854,1978
40772,-43984,-16492,-46574,-13806,-3800,3800,12,12,-7,-4,57,3911,-2,-6,905,1756,1862,2078,2257,2037,1805,1854,1978
41773,-43976,-16492,-46574,-13806,-3800,3800,12,13,-5,-5,61,3898,4,-6,905,1756,1862,2078,2257,2037,1805,1854,1978
42774,-43972,-16496,-46574,-13806,-3800,3800,12,13,-6,-7,49,3911,-10,-6,905,1757,1862,2080,2256,2037,1805,1856,1978
43775,-43976,-16496,-46574,-13806,-3800,3800,10,12,-6,9,67,3925,3,-6,905,1757,1862,2080,2256,2037,1805,1856,1978
44776,-43972,-16496,-46574,-13806,-3800,3800,11,13,-6,-16,89,3907,-10,-1,905,1757,1862,2080,2256,2037,1805,1856,1978
45777,-43996,-16488,-46574,-13806,-3800,3800,12,13,-8,-18,95,3883,8,-4,905,1757,1862,2080,2256,2037,1805,1856,1978
46778,-43968,-16488,-46574,-13806,-3800,3800,14,14,-9,12,77,3911,-10,-2,905,1757,1862,2080,2256,2037,1805,1856,1978
47779,-43980,-16492,-46574,-13806,-3800,3800,13,16,-7,26,67,3933,7,3,905,1757,1862,2080,2256,2037,1805,1856,1978
48780,-43976,-16488,-46574,-13806,-3800,3800,12,16,-6,12,74,3936,0,3,905,1756,1861,2078,2257,2037,1805,1854,1979
49781,-43976,-16488,-46574,-13806,-3800,3800,13,14,-5,16,73,3927,-4,0,905,1756,1861,2078,2257,2037,1805,1854,1979
50782,-43976,-16496,-46574,-13806,-3800,3800,13,13,-8,-12,57,3930,6,7,905,1756,1861,2078,2257,2037,1805,1854,1979
51783,-43972,-16500,-46574,-13806,-3800,3800,14,12,-8,-9,56,3930,-11,6,905,1756,1861,2078,2257,2037,1805,1854,1979
52784,-43984,-16496,-46574,-13806,-3800,3800,12,14,-8,-3,62,3941,3,2,905,1756,1861,2078,2257,2037,1805,1854,1979
53785,-43976,-16496,-46574,-13806,-3800,3800,13,14,-7,-15,68,3913,-11,4,904,1757,1862,2079,2257,2037,1805,1854,1978
54786,-43972,-16484,-46574,-13806,-3800,3800,15,15,-7,5,79,3918,7,-6,905,1757,1862,2079,2257,2037,1805,1854,1978
55787,-43972,-16488,-46574,-13806,-3800,3800,15,13,-7,4,66,3926,-10,-7,905,1757,1862,2079,2257,2037,1805,1854,1978
56788,-43972,-16504,-46574,-13806,-3800,3800,14,14,-7,13,55,3934,-1,-3,905,1757,1862,2079,2257,2037,1805,1854,1978
57789,-43984,-16492,-46574,-13806,-3800,3800,14,16,-8,18,85,3922,0,-3,905,1757,1862,2079,2257,2037,1805,1854,1978
58790,-43988,-16496,-46574,-13806,-3800,3800,13,14,-6,-31,66,3914,2,-4,905,1757,1862,2079,2257,2037,1805,1854,1978
59791,-43980,-16500,-46574,-13806,-3800,3800,13,12,-7,-37,62,3912,1,1,905,1757,1863,2079,2255,2035,1803,1855,1980
60792,-43980,-16500,-46574,-13806,-3800,3800,14,12,-8,-13,81,3916,-7,4,905,1757,1863,2079,2255,2035,1803,1855,1980
61793,-43988,-16492,-46574,-13806,-3800,3800,15,12,-8,-1,72,3936,-9,3,905,1757,1863,2079,2255,2035,1803,1855,1980
62794,-43972,-16500,-46574,-13806,-3800,3800,15,12,-7,7,58,3918,7,7,905,1757,1863,2079,2255,2035,1803,1855,1980
63795,-43980,-16504,-46574,-13806,-3800,3800,13,12,-8,-5,84,3928,-7,3,905,1757,1863,2079,2255,2035,1803,1855,1980
64796,-43980,-16492,-46574,-13806,-3800,3800,14,13,-7,-7,102,3933,8,0,905,1757,1862,2077,2256,2037,1804,1855,1978
65797,-43992,-16492,-46574,-13806,-3800,3800,16,12,-5,-7,77,3944,-8,3,905,1757,1862,2077,2256,2037,1804,1855,1978
66798,-43976,-16500,-46574,-13806,-3800,3800,14,13,-7,-12,62,3923,-2,1,905,1757,1862,2077,2256,2037,1804,1855,1978
67799,-43980,-16496,-46574,-13806,-3800,3800,10,13,-7,-27,62,3948,-6,0,905,1757,1862,2077,2256,2037,1804,1855,1978
68800,-43972,-16496,-46574,-13806,-3800,3800,13,13,-8,-33,79,3929,-1,6,905,1757,1862,2077,2256,2037,1804,1855,1978
69801,-43968,-16508,-46574,-13806,-3800,3800,17,12,-5,-7,59,3887,-2,6,905,1757,1862,2077,2256,2037,1804,1855,1978
70802,-43980,-16488,-46574,-13806,-3800,3800,15,10,-4,-7,53,3905,8,5,904,1758,1862,2080,2256,2036,1805,1856,1977
71803,-43984,-16500,-46574,-13806,-3800,3800,15,11,-7,11,72,3920,-10,-1,905,1758,1862,2080,2256,2036,1805,1856,1977
72804,-43988,-16492,-46574,-13806,-3800,3800,15,12,-9,3,95,3920,7,-7,905,1758,1862,2080,2256,2036,1805,1856,1977
73805,-43980,-16496,-46574,-13806,-3800,3800,17,13,-6,-23,75,3950,-11,-7,905,1758,1862,2080,2256,2036,1805,1856,1977
74806,-43988,-16500,-46574,-13806,-3800,3800,18,15,-5,-24,73,3925,8,-3,905,1758,1862,2080,2256,2036,1805,1856,1977
75807,-43980,-16496,-46574,-13806,-3800,3800,16,16,-5,-26,68,3928,-10,-5,905,1756,1862,2078,2255,2037,1805,1855,1977
76808,-43980,-16492,-46574,-13806,-3800,3800,16,16,-6,-14,77,3930,-4,-7,905,1756,1862,2078,2255,2037,1805,1855,1977
77809,-43976,-16492,-46574,-13806,-3800,3800,14,14,-3,-15,67,3892,8,-6,905,1756,1862,2078,2255,2037,1805,1855,1977
78810,-43972,-16492,-46574,-13806,-3800,3800,15,13,-3,-22,53,3919,-9,-7,905,1756,1862,2078,2255,2037,1805,1855,1977
79811,-43980,-16492,-46574,-13806,-3800,3800,15,12,-5,-22,59,3930,8,-6,905,1756,1862,2078,2255,2037,1805,1855,1977
80812,-43964,-16496,-46574,-13806,-3800,3800,14,14,-6,-15,81,3925,-11,-7,905,1756,1862,2078,2255,2037,1805,1855,1977
81813,-43972,-16504,-46574,-13806,-3800,3800,16,14,-4,1,89,3914,8,-6,905,1757,1861,2077,2256,2038,1806,1855,1978
82814,-43992,-16496,-46574,-13806,-3800,3800,16,14,-5,3,95,3891,-9,-4,905,1757,1861,2077,2256,2038,1806,1855,1978
83815,-43972,-16488,-46574,-13806,-3800,3800,16,13,-8,-3,81,3897,8,-5,905,1757,1861,2077,2256,2038,1806,1855,1978
84816,-43976,-16488,-46574,-13806,-3800,3800,15,12,-9,-3,81,3893,-8,-2,905,1757,1861,2077,2256,2038,1806,1855,1978
85817,-43976,-16496,-46574,-13806,-3800,3800,14,12,-8,11,75,3914,8,2,905,1757,1861,2077,2256,2038,1806,1855,1978
86818,-43980,-16492,-46574,-13806,-3800,3800,15,10,-4,16,61,3932,-10,-4,905,1757,1859,2078,2258,2039,1806,1856,1980
87819,-43972,-16488,-46574,-13806,-3800,3800,15,13,-1,-23,90,3918,4,-5,904,1757,1859,2078,2258,2039,1806,1856,1980
88820,-43968,-16496,-46574,-13806,-3800,3800,14,14,-5,-1,74,3919,-5,6,905,1757,1859,2078,2258,2039,1806,1856,1980
89821,-43980,-16496,-46574,-13806,-3800,3800,14,14,-6,-11,71,3954,2,5,905,1757,1859,2078,2258,2039,1806,1856,1980
90822,-43980,-16492,-46574,-13806,-3800,3800,12,13,-5,-1,62,3956,0,8,905,1757,1859,2078,2258,2039,1806,1856,1980
91823,-43976,-16500,-46574,-13806,-3800,3800,14,11,-5,-3,57,3939,3,7,905,1757,1859,2078,2258,2039,1806,1856,1980
92824,-43992,-16492,-46574,-13806,-3800,3800,15,10,-7,-28,55,3945,-2,7,905,1756,1860,2077,2256,2037,1805,1854,1978
93825,-43984,-16492,-46574,-13806,-3800,3800,15,12,-7,7,105,3930,-3,7,905,1756,1860,2077,2256,2037,1805,1854,1978
94826,-43984,-16496,-46574,-13806,-3800,3800,15,14,-7,7,89,3939,-4,5,905,1756,1860,2077,2256,2037,1805,1854,1978
95827,-43976,-16500,-46574,-13806,-3800,3800,14,14,-8,-10,54,3933,-3,7,905,1756,1860,2077,2256,2037,1805,1854,1978
96828,-43980,-16488,-46574,-13806,-3800,3800,13,12,-9,-4,87,3929,-2,3,905,1756,1860,2077,2256,2037,1805,1854,1978
97829,-43984,-16496,-46574,-13806,-3800,3800,14,12,-8,7,90,3915,5,-2,905,1758,1864,2080,2256,2037,1805,1856,1979
98830,-43980,-16496,-46574,-13806,-3800,3800,14,12,-7,-7,71,3958,-6,-3,905,1758,1864,2080,2256,2037,1805,1856,1979
99831,-43988,-16484,-46574,-13806,-3800,3800,13,11,-5,-5,79,3919,-4,-6,905,1758,1864,2080,2256,2037,1805,1856,1979
100832,-43984,-16492,-46574,-13806,-3800,3800,14,11,-7,16,88,3934,-3,-6,905,1758,1864,2080,2256,2037,1805,1856,1979
101833,-43972,-16488,-46574,-13806,-3800,3800,14,11,-8,14,57,3951,1,-7,905,1758,1864,2080,2256,2037,1805,1856,1979
102834,-43984,-16492,-46574,-13806,-3800,3800,16,12,-6,3,56,3939,-4,-6,905,1758,1864,2080,2256,2037,1805,1856,1979
103835,-43972,-16488,-46574,-13806,-3800,3800,15,10,-4,-14,67,3935,-2,-1,905,1758,1862,2078,2256,2039,1805,1853,1975
104836,-43980,-16492,-46574,-13806,-3800,3800,12,12,-5,16,67,3934,0,-4,904,1758,1862,2078,2256,2039,1805,1853,1975
105837,-43972,-16484,-46574,-13806,-3800,3800,12,12,-7,13,73,3933,-8,8,905,1758,1862,2078,2256,2039,1805,1853,1975
106838,-43980,-16504,-46574,-13806,-3800,3800,14,13,-7,17,73,3945,-4,6,905,1758,1862,2078,2256,2039,1805,1853,1975
107839,-43980,-16492,-46574,-13806,-3800,3800,14,12,-6,-1,69,3946,1,8,905,1758,1862,2078,2256,2039,1805,1853,1975
108840,-43984,-16492,-46574,-13806,-3800,3800,13,13,-6,11,92,3939,-4,7,905,1757,1862,2078,2257,2037,1805,1854,1979
109841,-43984,-16504,-46574,-13806,-3800,3800,12,13,-8,-4,74,3922,8,6,905,1757,1862,2078,2257,2037,1805,1854,1979
110842,-43976,-16496,-46574,-13806,-3800,3800,12,11,-8,-15,92,3938,-11,8,905,1757,1862,2078,2257,2037,1805,1854,1979
111843,-43980,-16508,-46574,-13806,-3800,3800,12,12,-8,-8,83,3922,8,7,905,1757,1862,2078,2257,2037,1805,1854,1979
112844,-43992,-16500,-46574,-13806,-3800,3800,13,12,-8,-15,77,3930,-5,6,905,1757,1862,2078,2257,2037,1805,1854,1979
113845,-43980,-16496,-46574,-13806,-3800,3800,14,13,-7,-8,73,3889,-5,7,905,1757,1862,2078,2257,2037,1805,1854,1979
114846,-43984,-16496,-46574,-13806,-3800,3800,16,15,-6,1,59,3909,-1,7,905,1759,1864,2078,2256,2038,1805,1856,1979
115847,-43976,-16488,-46574,-13806,-3800,3800,16,15,-6,-6,54,3919,-9,7,905,1759,1864,2078,2256,2038,1805,1856,1979
116848,-43984,-16492,-46574,-13806,-3800,3800,16,16,-4,-3,66,3926,8,7,905,1759,1864,2078,2256,2038,1805,1856,1979
117849,-43972,-16492,-46574,-13806,-3800,3800,13,16,-6,16,77,3909,-11,7,905,1759,1864,2078,2256,2038,1805,1856,1979
118850,-43984,-16500,-46574,-13806,-3800,3800,12,15,-7,13,59,3971,0,8,905,1759,1864,2078,2256,2038,1805,1856,1979
119851,-43984,-16492,-46574,-13806,-3800,3800,12,13,-7,11,86,3953,3,7,905,1757,1862,2078,2257,2038,1805,1855,1979
120852,-43976,-16488,-46574,-13806,-3800,3800,14,15,-6,13,94,3945,-8,8,905,1757,1862,2078,2257,2038,1805,1855,1979
121853,-43992,-16488,-46574,-13806,-3800,3800,15,15,-9,-10,84,3929,7,7,904,1757,1862,2078,2257,2038,1805,1855,1979
122854,-43976,-16480,-46574,-13806,-3800,3800,14,16,-7,-10,86,3961,-6,6,905,1757,1862,2078,2257,2038,1805,1855,1979
123855,-43980,-16484,-46574,-13806,-3800,3800,13,15,-7,11,87,3932,-9,0,905,1757,1862,2078,2257,2038,1805,1855,1979
124856,-43972,-16488,-46574,-13806,-3800,3800,14,14,-7,8,70,3893,8,-5,905,1757,1862,2078,2257,2038,1805,1855,1979
125857,-43972,-16496,-46574,-13806,-3800,3800,14,14,-8,24,91,3925,-7,-6,905,1757,1861,2078,2257,2038,1806,1856,1979
126858,-43984,-16496,-46574,-13806,-3800,3800,13,13,-6,12,83,3908,-5,-7,905,1757,1861,2078,2257,2038,1806,1856,1979
127859,-43976,-16492,-46574,-13806,-3800,3800,13,12,-5,-13,86,3929,0,-7,905,1757,1861,2078,2257,2038,1806,1856,1979
128862,-43976,-16492,-46574,-13806,-3800,3800,13,13,-4,-3,75,3916,-10,-7,905,1757,1861,2078,2257,2038,1806,1856,1979
129861,-43976,-16488,-46574,-13806,-3800,3800,14,14,-5,-1,62,3940,8,-7,905,1757,1861,2078,2257,2038,1806,1856,1979
130862,-43976,-16500,-46574,-13806,-3800,3800,14,11,-6,-4,57,3949,-10,-5,905,1757,1861,2075,2255,2039,1806,1856,1980
131863,-43980,-16492,-46574,-13806,-3800,3800,14,11,-7,-28,66,3943,2,-7,905,1757,1861,2075,2255,2039,1806,1856,1980
132864,-43980,-16492,-46574,-13806,-3800,3800,14,14,-6,-37,91,3915,4,-3,905,1757,1861,2075,2255,2039,1806,1856,1980
133865,-43980,-16496,-46574,-13806,-3800,3800,15,15,-3,-23,40,3942,-9,0,905,1757,1861,2075,2255,2039,1806,1856,1980
134866,-43972,-16488,-46574,-13806,-3800,3800,13,15,-4,7,73,3939,8,-4,905,1757,1861,2075,2255,2039,1806,1856,1980
135867,-43980,-16496,-46574,-13806,-3800,3800,15,15,-6,5,96,3906,-11,-4,905,1757,1861,2075,2255,2039,1806,1856,1980
136868,-43984,-16484,-46574,-13806,-3800,3800,17,17,-7,-12,76,3947,8,-5,905,1757,1861,2077,2256,2037,1805,1855,1979
137869,-43984,-16492,-46574,-13806,-3800,3800,15,15,-7,-6,57,3949,-8,-7,905,1757,1861,2077,2256,2037,1805,1855,1979
138870,-43972,-16492,-46574,-13806,-3800,3800,16,14,-3,-18,84,3931,-3,-7,904,1757,1861,2077,2256,2037,1805,1855,1979
139871,-43976,-16500,-46574,-13806,-3800,3800,13,14,-2,-15,74,3937,1,-5,905,1757,1861,2077,2256,2037,1805,1855,1979
140872,-43980,-16488,-46574,-13806,-3800,3800,12,14,-4,-4,60,3914,-2,-7,905,1757,1861,2077,2256,2037,1805,1855,1979
141873,-43976,-16492,-46574,-13806,-3800,3800,13,16,-6,-2,58,3903,1,-6,905,1758,1864,2080,2256,2037,1805,1856,1979
142874,-43992,-16492,-46574,-13806,-3800,3800,15,15,-7,-4,61,3930,-4,-4,905,1758,1864,2080,2256,2037,1805,1856,1979
143875,-43984,-16492,-46574,-13806,-3800,3800,13,13,-7,-8,69,3932,5,3,905,1758,1864,2080,2256,2037,1805,1856,1979
144876,-43972,-16492,-46574,-13806,-3800,3800,14,12,-7,-1,54,3967,-11,3,905,1758,1864,2080,2256,2037,1805,1856,1979
145877,-43980,-16492,-46574,-13806,-3800,3800,14,14,-3,-17,37,3966,8,0,905,1758,1864,2080,2256,2037,1805,1856,1979
146878,-43972,-16500,-46574,-13806,-3800,3800,13,16,-3,-19,68,3940,-10,7,905,1758,1864,2080,2256,2037,1805,1856,1979
147879,-43972,-16492,-46574,-13806,-3800,3800,13,14,-5,-47,100,3909,0,6,905,1757,1862,2078,2256,2037,1805,1855,1977
148880,-43976,-16508,-46574,-13806,-3800,3800,17,14,-8,-6,76,3914,-8,4,905,1757,1862,2078,2256,2037,1805,1855,1977
149881,-43976,-16492,-46574,-13806,-3800,3800,19,15,-8,13,76,3911,5,7,905,1757,1862,2078,2256,2037,1805,1855,1977
150882,-43972,-16492,-46574,-13806,-3800,3800,15,16,-7,3,83,3920,-7,8,905,1757,1862,2078,2256,2037,1805,1855,1977
151883,-43972,-16484,-46574,-13806,-3800,3800,13,15,-8,1,56,3920,8,8,905,1757,1862,2078,2256,2037,1805,1855,1977
152884,-43972,-16496,-46574,-13806,-3800,3800,12,14,-5,-10,90,3893,-11,6,905,1757,1861,2078,2257,2037,1806,1855,1977
153885,-43988,-16492,-46574,-13806,-3800,3800,12,14,-3,-20,66,3911,8,7,905,1757,1861,2078,2257,2037,1806,1855,1977
154886,-43976,-16492,-46574,-13806,-3800,3800,12,14,-7,0,61,3927,-11,8,905,1757,1861,2078,2257,2037,1806,1855,1977
155887,-43972,-16492,-46574,-13806,-3800,3800,14,12,-9,-14,54,3927,8,6,904,1757,1861,2078,2257,2037,1806,1855,1977
156888,-43968,-16496,-46574,-13806,-3800,3800,15,12,-6,-37,69,3882,-5,7,905,1757,1861,2078,2257,2037,1806,1855,1977
157889,-43964,-16492,-46574,-13806,-3800,3800,15,15,-5,-16,94,3891,9,7,905,1757,1861,2078,2257,2037,1806,1855,1977
158890,-43968,-16500,-46574,-13806,-3800,3800,13,14,-6,8,107,3925,-10,8,905,1757,1862,2079,2258,2040,1806,1856,1978
159891,-43988,-16484,-46574,-13806,-3800,3800,14,12,-7,2,67,3931,4,8,905,1757,1862,2079,2258,2040,1806,1856,1978
160892,-43980,-16500,-46574,-13806,-3800,3800,17,10,-6,14,65,3916,-7,8,905,1757,1862,2079,2258,2040,1806,1856,1978
161893,-43968,-16484,-46574,-13806,-3800,3800,15,10,-5,-6,64,3913,-4,5,905,1757,1862,2079,2258,2040,1806,1856,1978
162894,-43972,-16492,-46574,-13806,-3800,3800,15,11,-5,-1,68,3920,6,5,905,1757,1862,2079,2258,2040,1806,1856,1978
163895,-43972,-16488,-46574,-13806,-3800,3800,14,12,-6,-14,86,3908,-11,4,905,1757,1861,2078,2256,2037,1805,1855,1978
164896,-43972,-16488,-46574,-13806,-3800,3800,13,11,-5,2,54,3927,8,-5,905,1757,1861,2078,2256,2037,1805,1855,1978
165897,-43980,-16508,-46574,-13806,-3800,3800,15,9,-7,-19,85,3945,-5,-7,905,1757,1861,2078,2256,2037,1805,1855,1978
166898,-43984,-16484,-46574,-13806,-3800,3800,17,12,-8,-19,62,3932,-1,-7,905,1757,1861,2078,2256,2037,1805,1855,1978
167899,-43980,-16484,-46574,-13806,-3800,3800,15,18,-10,-14,65,3913,6,-5,905,1757,1861,2078,2256,2037,1805,1855,1978
168900,-43976,-16496,-46574,-13806,-3800,3800,17,18,-10,-7,72,3901,-9,-1,905,1757,1861,2078,2256,2037,1805,1855,1978
169901,-43968,-16484,-46574,-13806,-3800,3800,17,12,-9,1,89,3938,6,1,905,1757,1861,2078,2257,2037,1805,1855,1979
170902,-43980,-16488,-46574,-13806,-3800,3800,15,11,-6,0,90,3933,4,7,905,1757,1861,2078,2257,2037,1805,1855,1979
171903,-43988,-16496,-46574,-13806,-3800,3800,16,15,-6,-7,68,3895,-10,7,905,1757,1861,2078,2257,2037,1805,1855,1979
172904,-43976,-16504,-46574,-13806,-3800,3800,17,12,-7,-9,70,3914,5,7,904,1757,1861,2078,2257,2037,1805,1855,1979
173905,-43964,-16492,-46574,-13806,-3800,3800,17,11,-6,-15,83,3892,7,6,905,1757,1861,2078,2257,2037,1805,1855,1979
174906,-43984,-16488,-46574,-13806,-3800,3800,18,14,-7,-2,74,3924,-10,5,905,1757,1861,2079,2257,2035,1803,1855,1980
175907,-43976,-16500,-46574,-13806,-3800,3800,17,16,-7,11,72,3909,3,5,905,1757,1861,2079,2257,2035,1803,1855,1980
176908,-43964,-16488,-46574,-13806,-3800,3800,14,13,-5,-10,108,3922,-2,-2,905,1757,1861,2079,2257,2035,1803,1855,1980
177909,-43984,-16500,-46574,-13806,-3800,3800,16,10,-5,-3,107,3908,-9,-1,905,1757,1861,2079,2257,2035,1803,1855,1980
178911,-43984,-16508,-46574,-13806,-3800,3800,16,11,-6,-2,100,3921,1,1,905,1757,1861,2079,2257,2035,1803,1855,1980
179911,-43972,-16496,-46574,-13806,-3800,3800,15,10,-4,-26,86,3949,-8,-5,905,1757,1861,2079,2257,2035,1803,1855,1980
180912,-43980,-16488,-46574,-13806,-3800,3800,17,11,-4,-17,86,3942,8,-6,905,1758,1862,2077,2256,2037,1805,1855,1978
181913,-43980,-16500,-46574,-13806,-3800,3800,17,10,-5,-15,73,3919,-10,-6,905,1758,1862,2077,2256,2037,1805,1855,1978
182914,-43980,-16492,-46574,-13806,-3800,3800,14,12,-4,-15,81,3932,3,-7,905,1758,1862,2077,2256,2037,1805,1855,1978
183915,-43984,-16492,-46574,-13806,-3800,3800,12,13,-7,-15,86,3927,7,-5,905,1758,1862,2077,2256,2037,1805,1855,1978
184916,-43988,-16480,-46574,-13806,-3800,3800,15,12,-8,-20,82,3907,-11,-3,905,1758,1862,2077,2256,2037,1805,1855,1978
185917,-43972,-16488,-46574,-13806,-3800,3800,15,14,-5,-17,82,3890,6,4,905,1758,1864,2080,2256,2038,1805,1856,1979
186918,-43976,-16492,-46574,-13806,-3800,3800,12,12,-4,-9,76,3915,3,5,905,1758,1864,2080,2256,2038,1805,1856,1979
187919,-43972,-16508,-46574,-13806,-3800,3800,14,12,-6,5,65,3921,-5,7,905,1758,1864,2080,2256,2038,1805,1856,1979
188920,-43980,-16496,-46574,-13806,-3800,3800,14,14,-8,21,56,3938,8,7,905,1758,1864,2080,2256,2038,1805,1856,1979
189921,-43988,-16484,-46574,-13806,-3800,3800,17,15,-9,-3,44,3928,-5,7,904,1758,1864,2080,2256,2038,1805,1856,1979
190922,-43980,-16496,-46574,-13806,-3800,3800,16,13,-7,-12,61,3936,-6,7,905,1758,1864,2080,2256,2038,1805,1856,1979
191923,-43976,-16488,-46574,-13806,-3800,3800,17,11,-7,-4,75,3945,8,7,905,1757,1862,2078,2257,2038,1806,1855,1975
192924,-43980,-16484,-46574,-13806,-3800,3800,14,13,-7,-1,90,3953,-11,6,905,1757,1862,2078,2257,2038,1806,1855,1975
193925,-43976,-16484,-46574,-13806,-3800,3800,13,13,-6,-33,69,3927,8,5,905,1757,1862,2078,2257,2038,1806,1855,1975
194926,-43972,-16492,-46574,-13806,-3800,3800,14,13,-4,-7,49,3899,-10,-2,905,1757,1862,2078,2257,2038,1806,1855,1975
195927,-43972,-16496,-46574,-13806,-3800,3800,13,12,-4,-15,71,3934,2,-6,905,1757,1862,2078,2257,2038,1806,1855,1975
196928,-43992,-16504,-46574,-13806,-3800,3800,14,14,-8,-21,70,3903,-3,-6,905,1757,1861,2078,2257,2038,1805,1854,1978
197929,-43976,-16488,-46574,-13806,-3800,3800,15,15,-8,8,69,3891,-7,5,905,1757,1861,2078,2257,2038,1805,1854,1978
198930,-43980,-16496,-46574,-13806,-3800,3800,15,16,-7,29,43,3923,8,8,905,1757,1861,2078,2257,2038,1805,1854,1978
199931,-43972,-16496,-46509,-13741,-2772,3788,14,15,-6,28,56,3906,-10,7,905,1757,1861,2078,2257,2038,1805,1854,1978
200932,-43976,-16492,-46444,-13676,-2539,3800,14,13,-6,10,79,3933,-5,0,873,1757,1861,2078,2257,2038,1805,1854,1978
201933,-43976,-16456,-46379,-13611,-2511,3449,12,24,-3,18,77,3937,17,247,869,1757,1861,2078,2257,2038,1805,1854,1978
202934,-43976,-16356,-46314,-13546,-2433,2608,6,-10,-4,-102,74,3860,17,294,875,1759,1864,2078,2256,2037,1806,1856,1978
203935,-43988,-16188,-46249,-13481,-2190,1633,4,-56,-15,-465,75,4272,6,-113,885,1759,1864,2078,2256,2037,1806,1856,1978
204936,-43968,-16004,-46184,-13416,-2536,1289,7,-112,-19,-453,172,4317,9,73,894,1759,1864,2078,2256,2037,1806,1856,1978
205937,-43988,-15784,-46119,-13351,-1933,650,13,-159,-24,-278,95,4494,15,108,898,1759,1864,2078,2256,2037,1806,1856,1978
206938,-43976,-15604,-46054,-13286,-2269,1011,10,-183,-34,94,18,4243,-3,105,901,1759,1864,2078,2256,2037,1806,1856,1978
207939,-43968,-15420,-45989,-13221,-2151,817,7,-139,-52,350,-156,4058,2,109,901,1760,1864,2081,2259,2044,1801,1866,1998
208940,-43976,-15216,-45924,-13156,-1861,397,-18,-88,-88,296,-132,3797,-3,109,901,1760,1864,2081,2259,2044,1801,1866,1998
209941,-43972,-15008,-45859,-13091,-1938,174,-45,-46,-123,59,80,3905,-1,113,896,1760,1864,2081,2259,2044,1801,1866,1998
210942,-43972,-14780,-45794,-13026,-1810,-274,-67,-11,-136,-188,77,4123,8,119,904,1760,1864,2081,2259,2044,1801,1866,1998
211943,-43976,-14568,-45729,-12961,-1675,-253,-103,-42,-173,-466,-93,4260,3,115,904,1760,1864,2081,2259,2044,1801,1866,1998
212944,-43972,-14376,-45664,-12896,-1702,-158,-107,-89,-173,-646,-127,4148,7,113,904,1760,1864,2081,2259,2044,1801,1866,1998
213945,-43976,-14188,-45599,-12831,-1519,-257,-102,-160,-168,-315,-29,3924,7,106,897,1776,1883,2092,2272,2065,1831,1884,2016
214946,-43988,-14008,-45534,-12766,-1325,-297,-96,-250,-181,-611,-140,4284,-3,91,904,1776,1883,2092,2272,2065,1831,1884,2016
215947,-43976,-13832,-45469,-12701,-1561,-382,-119,-330,-201,-987,-115,4268,9,92,904,1776,1883,2092,2272,2065,1831,1884,2016
216948,-43972,-13656,-45404,-12636,-1388,-517,-123,-375,-188,-771,-206,4240,-5,80,903,1776,1883,2092,2272,2065,1831,1884,2016
217949,-43984,-13492,-45339,-12571,-1094,-487,-121,-384,-188,-216,-39,4318,-7,73,899,1776,1883,2092,2272,2065,1831,1884,2016
218950,-43976,-13364,-45274,-12506,-1275,-114,-117,-382,-202,-374,-269,4401,0,74,902,1758,1870,2084,2254,2081,1841,1895,2030
219951,-43988,-13208,-45209,-12441,-931,-575,-101,-360,-204,-123,-73,4362,13,70,904,1758,1870,2084,2254,2081,1841,1895,2030
220952,-43976,-13068,-45144,-12376,-1167,-466,-88,-360,-211,19,-125,4514,-8,59,902,1758,1870,2084,2254,2081,1841,1895,2030
221953,-43980,-12952,-45079,-12311,-883,-228,-89,-351,-241,-125,-97,4399,7,57,899,1758,1870,2084,2254,2081,1841,1895,2030
222954,-43972,-12828,-45014,-12246,-964,-400,-98,-347,-266,-184,-22,4483,-8,57,904,1758,1870,2084,2254,2081,1841,1895,2030
223955,-43976,-12724,-44949,-12181,-730,-198,-109,-344,-279,43,-43,4194,11,51,903,1758,1870,2084,2254,2081,1841,1895,2030
224956,-43968,-12632,-44884,-12116,-811,-81,-118,-329,-289,-56,-9,4235,7,43,904,1760,1873,2083,2257,2065,1827,1884,2012
225957,-43984,-12552,-44819,-12051,-413,52,-131,-332,-301,-262,0,3911,-8,53,903,1760,1873,2083,2257,2065,1827,1884,2012
226958,-43976,-12464,-44754,-11986,-643,-76,-141,-352,-328,-443,-18,4015,-2,46,905,1760,1873,2083,2257,2065,1827,1884,2012
227959,-43992,-12372,-44689,-11921,-244,-159,-147,-392,-357,-394,-30,3871,-2,50,905,1760,1873,2083,2257,2065,1827,1884,2012
228960,-43980,-12308,-44624,-11856,-531,192,-151,-420,-371,-425,-16,3850,-4,37,904,1760,1873,2083,2257,2065,1827,1884,2012
229961,-43980,-12244,-44559,-11791,-301,193,-149,-452,-370,-546,-49,3855,-3,29,903,1778,1881,2094,2279,2039,1806,1846,1977
230962,-43972,-12168,-44494,-11726,-332,31,-154,-471,-376,-511,-78,3923,-4,26,904,1778,1881,2094,2279,2039,1806,1846,1977
231963,-43988,-12116,-44429,-11661,67,347,-146,-485,-382,-393,-86,3946,-4,25,905,1778,1881,2094,2279,2039,1806,1846,1977
232964,-43980,-12052,-44364,-11596,-163,198,-133,-468,-376,-282,-85,3839,-6,36,904,1778,1881,2094,2279,2039,1806,1846,1977
233965,-43984,-11996,-44299,-11531,70,309,-116,-430,-366,-144,-143,3772,0,33,899,1778,1881,2094,2279,2039,1806,1846,1977
234966,-43980,-11948,-44234,-11466,44,430,-98,-386,-357,-21,-192,3804,-6,24,902,1778,1881,2094,2279,2039,1806,1846,1977
235967,-43972,-11896,-44169,-11401,64,396,-75,-330,-355,-9,-207,3778,4,29,903,1770,1869,2082,2253,2007,1779,1827,1938
236968,-43980,-11856,-44104,-11336,353,577,-47,-281,-342,-33,-191,3730,-8,18,903,1770,1869,2082,2253,2007,1779,1827,1938
237969,-43984,-11812,-44039,-11271,387,553,-19,-241,-331,-113,-108,3730,3,23,901,1770,1869,2082,2253,2007,1779,1827,1938
238970,-43972,-11752,-43974,-11206,252,359,8,-211,-323,-240,-106,3698,6,34,901,1770,1869,2082,2253,2007,1779,1827,1938
239971,-43976,-11716,-43909,-11141,536,694,34,-195,-313,-158,-53,3638,3,21,902,1770,1869,2082,2253,2007,1779,1827,1938
240972,-43972,-11656,-43844,-11076,511,401,59,-196,-298,-156,4,3590,11,24,899,1751,1843,2058,2252,1974,1754,1804,1904
241973,-43960,-11596,-43779,-11011,475,408,73,-182,-292,-229,62,3505,5,21,901,1751,1843,2058,2252,1974,1754,1804,1904
242974,-43956,-11572,-43714,-10946,650,908,78,-164,-289,-102,146,3521,17,20,901,1751,1843,2058,2252,1974,1754,1804,1904
243975,-43940,-11524,-43649,-10881,560,628,85,-144,-283,-10,172,3405,5,33,898,1751,1843,2058,2252,1974,1754,1804,1904
244976,-43932,-11460,-43584,-10816,729,430,92,-118,-280,17,188,3470,15,36,899,1751,1843,2058,2252,1974,1754,1804,1904
245977,-43908,-11424,-43519,-10751,580,816,106,-92,-279,50,141,3436,26,39,899,1756,1842,2053,2255,1974,1754,1804,1904
246978,-43884,-11368,-43454,-10686,630,577,124,-72,-269,9,126,3486,23,25,898,1756,1842,2053,2255,1961,1747,1802,1903
247979,-43852,-11320,-43389,-10621,571,698,144,-54,-255,55,37,3446,18,25,899,1756,1842,2053,2255,1961,1747,1802,1903
248980,-43808,-11264,-43324,-10556,446,609,169,-48,-248,120,133,3433,28,33,899,1756,1842,2053,2255,1961,1747,1802,1903
249981,-43764,-11196,-43259,-10491,472,456,195,-43,-232,21,-19,3431,24,38,900,1756,1842,2053,2255,1961,1747,1802,1903
250982,-43724,-11160,-43194,-10426,552,891,226,-30,-213,149,-66,3500,34,32,901,1756,1842,2053,2255,1961,1747,1802,1903
251983,-43688,-11100,-43129,-10361,639,598,250,-19,-193,152,-84,3576,23,41,899,1756,1845,2059,2251,1984,1762,1818,1934
252984,-43640,-11036,-43064,-10296,510,549,282,0,-179,211,-124,3577,25,43,899,1756,1845,2059,2251,1984,1762,1818,1934
253985,-43596,-10988,-42999,-10231,585,771,308,10,-156,145,-197,3660,24,32,900,1756,1845,2059,2251,1984,1762,1818,1934
254986,-43544,-10920,-42934,-10166,501,517,342,33,-141,166,-111,3721,41,35,899,1756,1845,2059,2251,1984,1762,1818,1934
255987,-43484,-10872,-42869,-10101,408,788,354,27,-121,133,-139,3585,22,34,899,1756,1845,2059,2251,1984,1762,1818,1934
256988,-43436,-10804,-42804,-10036,579,535,368,15,-114,127,-88,3753,42,38,900,1759,1861,2073,2252,2007,1775,1833,1955
257989,-43384,-10748,-42739,-9971,545,696,374,-6,-104,43,-42,3653,40,31,899,1759,1861,2073,2252,2007,1775,1833,1955
258990,-43328,-10688,-42674,-9906,506,652,380,-28,-97,-54,-7,3781,31,29,899,1759,1861,2073,2252,2007,1775,1833,1955
259991,-43248,-10620,-42609,-9841,188,548,380,-44,-92,180,94,3816,33,34,900,1759,1861,2073,2252,2007,1775,1833,1955
260992,-43212,-10572,-42544,-9776,774,820,374,-72,-85,170,110,3701,35,37,901,1759,1861,2073,2252,2007,1775,1833,1955
261993,-43144,-10516,-42479,-9711,370,731,366,-76,-74,50,153,3950,27,30,899,1759,1861,2073,2252,2007,1775,1833,1955
262994,-43084,-10440,-42414,-9646,476,468,363,-74,-75,220,150,3964,29,31,899,1769,1877,2082,2259,2027,1789,1853,1985
263995,-43032,-10384,-42349,-9581,592,730,366,-89,-80,256,106,4011,41,43,901,1769,1877,2082,2259,2027,1789,1853,1985
264996,-42964,-10320,-42284,-9516,390,631,375,-100,-78,244,64,4234,38,37,900,1769,1877,2082,2259,2027,1789,1853,1985
265997,-42912,-10268,-42219,-9451,605,797,379,-114,-72,206,112,4175,44,28,900,1769,1877,2082,2259,2027,1789,1853,1985
266998,-42840,-10200,-42154,-9386,347,594,383,-135,-68,148,86,4195,42,30,900,1769,1877,2082,2259,2027,1789,1853,1985
267999,-42772,-10140,-42089,-9321,393,700,381,-139,-65,249,85,4381,30,34,900,1768,1876,2084,2256,2060,1819,1876,2013
269000,-42716,-10096,-42024,-9256,555,926,387,-159,-54,190,-1,4152,40,28,901,1768,1876,2084,2256,2060,1819,1876,2013
270001,-42652,-10020,-41959,-9191,456,513,394,-191,-46,197,-60,4239,39,35,899,1768,1876,2084,2256,2060,1819,1876,2013
271002,-42584,-9960,-41894,-9126,403,720,399,-213,-33,118,32,4345,33,30,899,1768,1876,2084,2256,2060,1819,1876,2013
272003,-42528,-9916,-41829,-9061,565,945,394,-236,-13,66,-9,4135,48,43,901,1768,1876,2084,2256,2060,1819,1876,2013
273004,-42460,-9840,-41764,-8996,411,532,385,-246,-3,163,-57,4265,31,35,899,1768,1876,2084,2256,2060,1819,1876,2013
274005,-42404,-9780,-41699,-8931,572,739,371,-260,0,218,7,4231,47,33,899,1766,1875,2096,2267,2084,1843,1889,2025
275006,-42324,-9720,-41634,-8866,254,745,363,-273,11,172,-35,4247,33,38,899,1766,1875,2096,2267,2084,1843,1889,2025
276007,-42268,-9652,-41569,-8801,566,641,352,-297,22,94,-18,4172,48,39,899,1766,1875,2096,2267,2084,1843,1889,2025
277008,-42208,-9608,-41504,-8736,522,968,329,-314,31,14,17,4221,30,40,900,1766,1875,2096,2267,2084,1843,1889,2025
278009,-42132,-9540,-41439,-8671,308,664,308,-320,39,191,34,4182,31,30,899,1766,1875,2096,2267,2084,1843,1889,2025
279010,-42068,-9484,-41374,-8606,460,825,287,-327,49,237,5,4226,39,34,899,1767,1874,2098,2272,2087,1843,1887,2023
280011,-42000,-9440,-41309,-8541,407,1002,267,-332,58,159,-49,4291,33,43,900,1767,1874,2098,2272,2087,1843,1887,2023
281012,-41932,-9388,-41244,-8476,403,918,255,-299,51,114,60,4325,26,44,899,1767,1874,2098,2272,2087,1843,1887,2023
282013,-41860,-9320,-41179,-8411,345,714,239,-298,55,47,-71,4166,36,44,898,1767,1874,2098,2272,2087,1843,1887,2023
283014,-41796,-9252,-41114,-8346,446,711,233,-270,45,78,30,4451,33,41,899,1767,1874,2098,2272,2087,1843,1887,2023
284015,-41744,-9192,-41049,-8281,613,818,225,-246,40,109,37,4300,45,43,900,1767,1874,2098,2272,2087,1843,1887,2023
285016,-41684,-9132,-40984,-8216,519,824,214,-213,35,181,124,4475,32,33,899,1756,1862,2080,2248,2080,1833,1877,2010
286017,-41644,-9076,-40919,-8151,800,886,211,-197,44,112,182,4330,47,38,899,1756,1862,2080,2248,2080,1833,1877,2010
287018,-41572,-9032,-40854,-8086,391,1061,185,-164,52,3,171,4331,31,37,897,1756,1862,2080,2248,2080,1833,1877,2010
288019,-41508,-8952,-40789,-8021,493,594,172,-145,43,-50,127,4121,40,27,897,1756,1862,2080,2248,2080,1833,1877,2010
289020,-41448,-8916,-40724,-7956,549,1179,158,-140,37,-56,175,4288,44,42,899,1756,1862,2080,2248,2080,1833,1877,2010
290021,-41396,-8844,-40659,-7891,665,721,157,-150,42,-21,142,4114,45,33,898,1741,1845,2067,2241,2071,1829,1870,1999
291022,-41332,-8792,-40594,-7826,517,988,142,-144,46,-39,157,4083,49,38,897,1741,1845,2067,2241,2071,1829,1870,1999
292023,-41276,-8736,-40529,-7761,628,949,137,-174,53,10,195,4032,33,28,897,1741,1845,2067,2241,2071,1829,1870,1999
293024,-41212,-8680,-40464,-7696,530,960,125,-188,70,-109,89,4054,43,28,897,1741,1845,2067,2241,2071,1829,1870,1999
294025,-41144,-8624,-40399,-7631,476,972,123,-207,87,-87,-12,3702,30,29,897,1741,1845,2067,2241,2071,1829,1870,1999
295026,-41072,-8576,-40334,-7566,418,1092,119,-212,103,-3,93,3882,46,28,898,1741,1845,2067,2241,2071,1829,1870,1999
296027,-41012,-8524,-40269,-7501,574,1058,118,-197,112,183,119,3759,30,32,897,1743,1846,2072,2249,2058,1819,1862,1990
297028,-40944,-8444,-40204,-7436,471,691,122,-175,114,334,136,3713,32,36,897,1743,1846,2072,2249,2058,1819,1862,1990
298029,-40864,-8396,-40139,-7371,304,1112,123,-159,122,395,90,3894,34,29,898,1743,1846,2072,2249,2058,1819,1862,1990
299030,-40800,-8344,-40074,-7306,505,1079,129,-153,132,365,149,3697,46,26,899,1743,1846,2072,2249,2058,1819,1862,1990
300031,-40736,-8276,-40009,-7241,506,875,125,-133,129,359,181,3668,46,45,897,1743,1846,2072,2249,2058,1819,1862,1990
301032,-40688,-8204,-39944,-7176,727,816,126,-124,124,202,236,3867,37,42,897,1753,1855,2071,2241,2026,1789,1839,1964
302033,-40612,-8140,-39879,-7111,364,919,122,-128,116,85,306,3789,39,35,898,1753,1855,2071,2241,2026,1789,1839,1964
303034,-40552,-8088,-39814,-7046,570,1084,121,-138,106,131,289,3639,34,44,898,1753,1855,2071,2241,2026,1789,1839,1964
304035,-40492,-8028,-39749,-6981,576,992,133,-141,87,235,433,3835,31,41,898,1753,1855,2071,2241,2026,1789,1839,1964
305036,-40428,-7988,-39684,-6916,528,1272,140,-159,75,142,481,3696,32,44,896,1753,1855,2071,2241,2026,1789,1839,1964
306039,-40360,-7932,-39619,-6851,475,1083,136,-167,50,53,418,3749,33,40,897,1753,1855,2071,2241,2026,1789,1839,1964
307038,-40308,-7868,-39554,-6786,691,985,145,-150,31,18,491,3997,48,32,895,1749,1851,2060,2233,1998,1763,1821,1943
308039,-40232,-7784,-39489,-6721,377,712,157,-149,18,86,457,3729,43,36,897,1749,1851,2060,2233,1998,1763,1821,1943
309040,-40164,-7736,-39424,-6656,475,1184,180,-143,-9,7,441,3982,36,29,896,1749,1851,2060,2233,1998,1763,1821,1943
310041,-40100,-7700,-39359,-6591,526,1369,206,-149,-25,9,395,3823,29,28,900,1749,1851,2060,2233,1998,1763,1821,1943
311042,-40060,-7624,-39294,-6526,857,856,252,-175,-35,200,480,3793,28,33,896,1749,1851,2060,2233,1998,1763,1821,1943
312043,-40012,-7552,-39229,-6461,777,898,276,-196,-38,-46,409,3647,48,34,895,1750,1856,2067,2243,1996,1769,1826,1946
313044,-39940,-7488,-39164,-6396,470,1000,310,-208,-30,-303,447,3805,43,31,896,1750,1856,2067,2243,1996,1769,1826,1946
314045,-39872,-7432,-39099,-6331,516,1111,317,-208,-6,95,346,3721,50,43,897,1750,1856,2067,2243,1996,1769,1826,1946
315046,-39808,-7376,-39034,-6266,567,1122,346,-238,2,304,198,3441,37,37,898,1750,1856,2067,2243,1996,1769,1826,1946
316047,-39736,-7308,-38969,-6201,460,970,367,-255,17,-14,209,3648,42,44,897,1750,1856,2067,2243,1996,1769,1826,1946
317048,-39668,-7264,-38904,-6136,506,1295,383,-262,25,-18,363,3665,44,30,896,1750,1856,2067,2243,1996,1769,1826,1946
318049,-39596,-7188,-38839,-6071,448,882,396,-266,38,111,292,3565,34,38,898,1773,1879,2093,2279,1995,1772,1830,1948
319050,-39520,-7132,-38774,-6006,384,1144,406,-278,40,354,424,3791,49,45,895,1773,1879,2093,2279,1995,1772,1830,1948
320051,-39464,-7076,-38709,-5941,646,1155,414,-271,43,211,408,3761,47,31,898,1773,1879,2093,2279,1995,1772,1830,1948
321052,-39400,-7008,-38644,-5876,547,1002,422,-269,40,269,458,3993,36,48,897,1773,1879,2093,2279,1995,1772,1830,1948
322053,-39340,-6940,-38579,-5811,603,999,427,-245,25,445,438,4097,38,46,895,1773,1879,2093,2279,1995,1772,1830,1948
323054,-39276,-6872,-38514,-5746,556,995,443,-234,13,434,393,4043,43,45,897,1785,1881,2092,2277,1996,1772,1829,1950
324055,-39208,-6816,-38449,-5681,502,1157,444,-212,-11,515,394,4230,36,40,897,1785,1881,2092,2277,1996,1772,1829,1950
325056,-39152,-6744,-38384,-5616,663,948,463,-210,-44,245,404,4365,40,43,897,1785,1881,2092,2277,1996,1772,1829,1950
326057,-39104,-6688,-38319,-5551,784,1160,479,-201,-74,114,334,4280,43,46,895,1785,1881,2092,2277,1996,1772,1829,1950
327058,-39048,-6644,-38254,-5486,696,1336,508,-209,-104,212,398,4403,45,45,896,1785,1881,2092,2277,1996,1772,1829,1950
328059,-38968,-6580,-38189,-5421,377,1088,524,-220,-120,-19,311,4243,44,34,894,1785,1881,2092,2277,1996,1772,1829,1950
329060,-38912,-6512,-38124,-5356,688,1035,555,-232,-145,-55,318,4172,43,40,894,1769,1865,2081,2263,2035,1801,1854,1982
330061,-38852,-6456,-38059,-5291,646,1197,575,-255,-155,-62,351,4293,49,35,897,1769,1865,2081,2263,2035,1801,1854,1982
331062,-38788,-6380,-37994,-5226,597,933,607,-284,-158,-67,321,4161,48,37,897,1769,1865,2081,2263,2035,1801,1854,1982
332063,-38736,-6324,-37929,-5161,763,1194,623,-268,-162,-29,343,4440,32,30,895,1769,1865,2081,2263,2035,1801,1854,1982
333064,-38680,-6272,-37864,-5096,725,1261,636,-257,-143,15,288,4280,29,34,897,1769,1865,2081,2263,2035,1801,1854,1982
334065,-38624,-6216,-37799,-5031,736,1222,642,-236,-118,119,275,4116,45,32,894,1766,1874,2095,2275,2061,1821,1874,2005
335066,-38548,-6152,-37734,-4966,472,1124,644,-228,-88,22,258,3969,33,30,894,1766,1874,2095,2275,2061,1821,1874,2005
336067,-38492,-6108,-37669,-4901,734,1400,640,-221,-61,-20,426,4199,48,37,894,1766,1874,2095,2275,2061,1821,1874,2005
337068,-38412,-6052,-37604,-4836,416,1262,635,-211,-43,96,322,4025,31,29,896,1766,1874,2095,2275,2061,1821,1874,2005
338069,-38344,-5984,-37539,-4771,562,1108,631,-212,-24,228,317,4060,30,40,893,1766,1874,2095,2275,2061,1821,1874,2005
339070,-38292,-5940,-37474,-4706,778,1435,623,-210,6,126,340,4180,29,34,895,1766,1874,2095,2275,2061,1821,1874,2005
340071,-38224,-5884,-37409,-4641,575,1296,617,-192,18,196,358,4158,44,26,896,1782,1890,2108,2286,2059,1820,1869,1999
341072,-38156,-5836,-37344,-4576,572,1418,593,-174,6,441,266,4146,36,29,892,1782,1890,2108,2286,2059,1820,1869,1999
342073,-38100,-5792,-37279,-4511,733,1493,575,-168,5,442,315,4266,43,29,894,1782,1890,2108,2286,2059,1820,1869,1999
343074,-38040,-5732,-37214,-4446,690,1299,566,-160,-4,428,351,4329,29,30,892,1782,1890,2108,2286,2059,1820,1869,1999
344075,-37968,-5676,-37149,-4381,531,1361,564,-171,-25,331,295,4117,45,35,891,1782,1890,2108,2286,2059,1820,1869,1999
345076,-37908,-5640,-37084,-4316,687,1647,557,-197,-49,310,269,4277,34,24,894,1767,1863,2084,2253,2057,1814,1857,1991
346077,-37836,-5584,-37019,-4251,530,1409,565,-217,-61,236,256,4322,44,23,894,1767,1863,2084,2253,2057,1814,1857,1991
347078,-37788,-5548,-36954,-4186,851,1694,556,-230,-79,387,279,4220,27,36,890,1767,1863,2084,2253,2057,1814,1857,1991
348079,-37740,-5496,-36889,-4121,871,1511,564,-223,-94,356,332,4391,43,33,893,1767,1863,2084,2253,2057,1814,1857,1991
349080,-37668,-5440,-36824,-4056,564,1472,564,-230,-89,244,306,4101,46,41,890,1767,1863,2084,2253,2057,1814,1857,1991
350081,-37608,-5380,-36759,-3991,720,1429,574,-235,-79,187,337,4244,28,32,891,1767,1863,2084,2253,2057,1814,1857,1991
351082,-37564,-5308,-36694,-3926,946,1272,580,-235,-68,130,341,4093,32,45,893,1735,1837,2063,2228,2066,1818,1865,2003
352083,-37500,-5248,-36629,-3861,698,1428,582,-238,-48,108,327,4038,29,38,892,1735,1837,2063,2228,2066,1818,1865,2003
353084,-37452,-5172,-36564,-3796,918,1215,586,-231,-17,36,371,4103,40,41,892,1735,1837,2063,2228,2066,1818,1865,2003
354086,-37396,-5128,-36499,-3731,829,1641,584,-204,11,174,474,4102,32,33,893,1735,1837,2063,2228,2066,1818,1865,2003
355086,-37328,-5068,-36434,-3666,677,1448,573,-197,52,205,401,3680,41,33,893,1735,1837,2063,2228,2066,1818,1865,2003
356087,-37268,-5004,-36369,-3601,783,1399,560,-184,100,12,505,3900,37,51,890,1739,1851,2070,2242,2066,1820,1868,2000
357088,-37204,-4932,-36304,-3536,734,1292,546,-197,142,-70,419,3525,30,49,893,1739,1851,2070,2242,2066,1820,1868,2000
358089,-37136,-4868,-36239,-3471,681,1393,540,-212,159,10,486,3764,36,49,893,1739,1851,2070,2242,2066,1820,1868,2000
359090,-37076,-4804,-36174,-3406,788,1395,532,-227,172,-46,495,3710,45,43,894,1739,1851,2070,2242,2066,1820,1868,2000
360091,-37004,-4740,-36109,-3341,629,1396,525,-243,177,195,457,3680,31,47,893,1739,1851,2070,2242,2066,1820,1868,2000
361092,-36936,-4680,-36044,-3276,676,1453,499,-258,182,103,447,3738,35,46,891,1739,1851,2070,2242,2066,1820,1868,2000
362093,-36876,-4604,-35979,-3211,782,1240,487,-240,181,157,442,3890,38,46,893,1754,1859,2078,2248,2044,1800,1845,1976
363094,-36800,-4524,-35914,-3146,569,1173,463,-211,174,554,426,3716,46,34,893,1754,1859,2078,2248,2044,1800,1845,1976
364095,-36752,-4456,-35849,-3081,941,1319,462,-218,165,644,428,3969,32,32,894,1754,1859,2078,2248,2044,1800,1845,1976
365096,-36656,-4404,-35784,-3016,303,1536,468,-228,143,493,294,3782,41,43,895,1754,1859,2078,2248,2044,1800,1845,1976
366097,-36604,-4344,-35719,-2951,869,1442,472,-244,113,343,220,3716,46,43,892,1754,1859,2078,2248,2044,1800,1845,1976
367098,-36524,-4292,-35654,-2886,502,1559,479,-260,97,299,413,3973,41,33,894,1744,1838,2061,2224,2030,1792,1832,1964
368099,-36484,-4220,-35589,-2821,1032,1301,487,-252,84,397,321,3890,38,33,891,1744,1838,2061,2224,2030,1792,1832,1964
369100,-36424,-4156,-35524,-2756,788,1402,489,-250,85,367,413,4045,27,45,892,1744,1838,2061,2224,2030,1792,1832,1964
370101,-36360,-4100,-35459,-2691,740,1514,498,-259,104,324,425,3973,48,43,892,1744,1838,2061,2224,2030,1792,1832,1964
371102,-36284,-4036,-35394,-2626,577,1416,511,-270,113,301,417,3814,39,34,893,1744,1838,2061,2224,2030,1792,1832,1964
372103,-36236,-3980,-35329,-2561,948,1528,500,-293,133,150,415,3724,40,36,892,1744,1838,2061,2224,2030,1792,1832,1964
373104,-36164,-3908,-35264,-2496,640,1319,497,-317,169,102,551,3778,38,41,893,1726,1828,2050,2219,2027,1791,1839,1972
374105,-36128,-3836,-35199,-2431,1126,1312,494,-323,200,118,549,3716,49,37,891,1726,1828,2050,2219,2027,1791,1839,1972
375106,-36060,-3788,-35134,-2366,722,1632,491,-334,223,12,533,3790,38,48,894,1726,1828,2050,2219,2027,1791,1839,1972
376107,-35988,-3736,-35069,-2301,664,1599,482,-336,252,114,604,3919,48,32,890,1726,1828,2050,2219,2027,1791,1839,1972
377108,-35932,-3680,-35004,-2236,875,1560,465,-352,283,140,458,3528,42,46,890,1726,1828,2050,2219,2027,1791,1839,1972
378109,-35864,-3604,-34939,-2171,722,1298,444,-393,317,-43,476,3689,47,43,890,1738,1850,2065,2240,2037,1799,1854,1987
379110,-35796,-3544,-34874,-2106,719,1504,422,-402,325,-100,665,3733,30,46,891,1738,1850,2065,2240,2037,1799,1854,1987
380111,-35720,-3488,-34809,-2041,606,1566,426,-394,317,208,534,3737,30,40,893,1738,1850,2065,2240,2037,1799,1854,1987
381112,-35656,-3436,-34744,-1976,757,1633,435,-395,312,365,487,4145,28,36,892,1738,1850,2065,2240,2037,1799,1854,1987
382113,-35592,-3376,-34679,-1911,759,1539,445,-391,292,309,469,4001,28,46,892,1738,1850,2065,2240,2037,1799,1854,1987
383114,-35540,-3304,-34614,-1846,925,1381,448,-385,255,232,523,3980,26,50,891,1738,1850,2065,2240,2037,1799,1854,1987
384115,-35484,-3236,-34549,-1781,886,1428,461,-372,227,359,555,4282,31,39,891,1752,1857,2077,2241,2059,1811,1859,1998
385116,-35440,-3172,-34484,-1716,1062,1480,463,-368,199,604,507,4007,38,43,891,1752,1857,2077,2241,2059,1811,1859,1998
386117,-35368,-3112,-34419,-1651,704,1536,474,-378,161,506,483,3932,45,44,891,1752,1857,2077,2241,2059,1811,1859,1998
387118,-35312,-3044,-34354,-1586,916,1433,478,-401,141,174,528,4116,35,39,890,1752,1857,2077,2241,2059,1811,1859,1998
388119,-35244,-3004,-34289,-1521,762,1814,477,-412,115,238,457,3908,41,44,892,1752,1857,2077,2241,2059,1811,1859,1998
389120,-35180,-2952,-34224,-1456,813,1681,466,-436,106,147,388,3955,31,31,891,1754,1856,2084,2250,2057,1813,1856,1989
390121,-35128,-2876,-34159,-1391,980,1368,461,-472,118,50,503,4041,29,35,889,1754,1856,2084,2250,2057,1813,1856,1989
391122,-35072,-2804,-34094,-1326,941,1410,444,-482,135,57,510,4004,48,34,890,1754,1856,2084,2250,2057,1813,1856,1989
392123,-34988,-2764,-34029,-1261,568,1841,441,-492,158,24,559,4119,30,33,891,1754,1856,2084,2250,2057,1813,1856,1989
393124,-34936,-2688,-33964,-1196,985,1378,414,-516,192,166,504,4012,33,32,891,1754,1856,2084,2250,2057,1813,1856,1989
394125,-34876,-2636,-33899,-1131,891,1695,403,-529,216,185,555,4127,44,37,888,1754,1856,2084,2250,2057,1813,1856,1989
395126,-34836,-2576,-33834,-1066,1172,1601,386,-532,249,104,656,4122,49,32,890,1755,1860,2084,2254,2044,1808,1854,1987
396127,-34764,-2512,-33769,-1001,764,1553,370,-524,274,216,621,4210,49,45,889,1755,1860,2084,2254,2044,1808,1854,1987
397128,-34700,-2444,-33704,-936,865,1500,355,-511,291,253,529,4166,36,46,888,1755,1860,2084,2254,2044,1808,1854,1987
398129,-34632,-2396,-33639,-871,813,1771,347,-520,309,99,562,4311,42,32,891,1755,1860,2084,2254,2044,1808,1854,1987
399130,-34580,-2356,-33574,-806,1029,1903,342,-513,316,78,562,4284,38,29,891,1755,1860,2084,2254,2044,1808,1854,1987
400131,-34520,-2288,-33509,-741,935,1549,342,-509,308,217,615,4240,50,45,889,1743,1852,2075,2243,2067,1824,1868,2008
401132,-34476,-2228,-33444,-676,1161,1656,343,-498,292,298,685,4505,45,50,886,1743,1852,2075,2243,2067,1824,1868,2008
402133,-34404,-2156,-33379,-611,803,1497,345,-500,287,296,654,4299,41,35,889,1743,1852,2075,2243,2067,1824,1868,2008
403134,-34336,-2112,-33314,-546,849,1874,343,-524,265,252,642,4115,40,36,888,1743,1852,2075,2243,2067,1824,1868,2008
404135,-34256,-2020,-33249,-481,682,1242,341,-554,241,-146,468,4138,56,44,891,1743,1852,2075,2243,2067,1824,1868,2008
405136,-34192,-1976,-33184,-416,883,1868,348,-566,204,66,694,4223,40,31,887,1743,1852,2075,2243,2067,1824,1868,2008
406137,-34116,-1928,-33119,-351,721,1840,342,-585,175,32,594,4022,44,29,894,1744,1849,2079,2242,2090,1838,1877,2022
407138,-34036,-1872,-33054,-286,652,1751,336,-586,155,227,694,4358,53,41,888,1744,1849,2079,2242,2090,1838,1877,2022
408139,-33980,-1816,-32989,-221,963,1763,319,-602,160,157,627,4022,49,29,889,1744,1849,2079,2242,2090,1838,1877,2022
409140,-33908,-1736,-32924,-156,756,1445,299,-600,162,6,630,4041,30,31,890,1744,1849,2079,2242,2090,1838,1877,2022
410141,-33844,-1700,-32859,-91,857,2031,291,-587,167,-45,637,4237,41,31,888,1744,1849,2079,2242,2090,1838,1877,2022
411142,-33784,-1652,-32794,-26,914,1902,294,-572,181,156,711,4262,36,27,891,1757,1864,2093,2256,2081,1831,1873,2013
412143,-33720,-1588,-32729,39,865,1704,279,-560,183,381,624,4200,50,30,884,1757,1864,2093,2256,2081,1831,1873,2013
413144,-33652,-1536,-32664,104,812,1870,257,-566,202,72,657,4211,45,36,887,1757,1864,2093,2256,2081,1831,1873,2013
414145,-33588,-1468,-32599,169,864,1668,235,-565,245,-157,648,4320,44,35,888,1757,1864,2093,2256,2081,1831,1873,2013
415146,-33552,-1420,-32534,234,1249,1939,224,-533,276,66,700,4248,42,28,887,1757,1864,2093,2256,2081,1831,1873,2013
416147,-33484,-1384,-32469,299,846,2125,213,-525,293,148,627,4256,33,33,888,1757,1864,2093,2256,2081,1831,1873,2013
417148,-33424,-1316,-32404,364,953,1722,204,-529,305,60,741,4533,50,29,883,1756,1864,2089,2253,2059,1815,1860,1998
418149,-33360,-1264,-32339,429,904,1938,195,-557,320,14,665,4161,39,30,885,1756,1864,2089,2253,2059,1815,1860,1998
419150,-33292,-1212,-32274,494,851,1955,191,-576,330,-98,670,4253,46,28,888,1756,1864,2089,2253,2059,1815,1860,1998
420151,-33228,-1160,-32209,559,902,1971,195,-587,339,-108,735,4277,42,32,886,1756,1864,2089,2253,2059,1815,1860,1998
421152,-33160,-1112,-32144,624,849,2043,209,-610,324,71,656,4181,51,37,887,1756,1864,2089,2253,2059,1815,1860,1998
422153,-33100,-1048,-32079,689,956,1845,229,-623,301,32,711,4493,39,45,886,1749,1850,2080,2247,2061,1820,1858,1994
423154,-33036,-984,-32014,754,907,1846,242,-629,276,75,899,4300,35,48,885,1749,1850,2080,2247,2061,1820,1858,1994
424155,-32964,-912,-31949,819,799,1739,259,-645,265,46,754,4356,43,46,886,1749,1850,2080,2247,2061,1820,1858,1994
425156,-32916,-840,-31884,884,1120,1731,266,-637,240,145,887,4439,35,38,887,1749,1850,2080,2247,2061,1820,1858,1994
426157,-32856,-780,-31819,949,976,1887,271,-637,222,151,940,4194,37,42,889,1749,1850,2080,2247,2061,1820,1858,1994
427158,-32792,-704,-31754,1014,929,1675,270,-623,199,348,958,4350,36,38,887,1749,1850,2080,2247,2061,1820,1858,1994
428159,-32716,-640,-31689,1079,765,1827,263,-596,199,319,896,4254,53,52,886,1764,1866,2096,2268,2058,1817,1863,1997
429160,-32648,-568,-31624,1144,862,1718,260,-570,209,123,977,4158,34,39,888,1764,1866,2096,2268,2058,1817,1863,1997
430161,-32588,-504,-31559,1209,969,1821,249,-548,219,1,895,4040,43,52,888,1764,1866,2096,2268,2058,1817,1863,1997
431162,-32520,-440,-31494,1274,865,1823,245,-547,217,-23,1009,4225,32,42,889,1764,1866,2096,2268,2058,1817,1863,1997
432163,-32452,-364,-31429,1339,862,1659,234,-530,231,-118,939,4311,39,39,887,1764,1866,2096,2268,2058,1817,1863,1997
433164,-32404,-284,-31364,1404,1133,1592,245,-522,257,90,1030,4221,42,38,888,1785,1890,2115,2289,2050,1814,1858,1991
434165,-32348,-204,-31299,1469,1044,1575,251,-515,280,48,974,4344,36,53,889,1785,1890,2115,2289,2050,1814,1858,1991
435166,-32280,-156,-31234,1534,891,1995,277,-488,294,56,930,4339,50,43,888,1785,1890,2115,2289,2050,1814,1858,1991
436167,-32212,-64,-31169,1599,888,1414,293,-479,282,105,890,4245,54,38,889,1785,1890,2115,2289,2050,1814,1858,1991
437168,-32144,-4,-31104,1664,885,1821,302,-494,291,-198,879,4531,51,38,886,1785,1890,2115,2289,2050,1814,1858,1991
438169,-32072,64,-31039,1729,826,1717,320,-479,297,-2,939,4476,45,33,891,1785,1890,2115,2289,2050,1814,1858,1991
439170,-32004,132,-30974,1794,873,1714,336,-490,309,50,733,4283,35,40,887,1774,1876,2107,2276,2048,1812,1849,1981
440171,-31944,192,-30909,1859,980,1820,363,-483,295,81,973,4408,49,48,889,1774,1876,2107,2276,2048,1812,1849,1981
441172,-31876,272,-30844,1924,876,1553,394,-497,288,-56,1064,4348,36,39,889,1774,1876,2107,2276,2048,1812,1849,1981
442173,-31820,340,-30779,1989,1038,1700,438,-524,274,-2,947,4455,50,55,887,1774,1876,2107,2276,2048,1812,1849,1981
443174,-31744,404,-30714,2054,775,1752,464,-556,251,101,1053,4348,38,42,890,1774,1876,2107,2276,2048,1812,1849,1981
444175,-31688,488,-30649,2119,1036,1479,494,-563,227,51,1139,4556,36,52,888,1767,1863,2095,2274,2038,1804,1844,1970
445176,-31624,576,-30584,2184,938,1402,519,-551,206,570,1146,4272,34,55,887,1767,1863,2095,2274,2038,1804,1844,1970
446177,-31556,656,-30519,2249,884,1484,536,-584,197,987,1102,4166,34,46,888,1767,1863,2095,2274,2038,1804,1844,1970
447178,-31504,716,-30454,2314,1100,1741,475,-569,177,641,1030,3911,50,52,891,1767,1863,2095,2274,2038,1804,1844,1970
448179,-31436,784,-30389,2379,898,1638,351,-452,123,-1423,738,4894,52,42,891,1767,1863,2095,2274,2038,1804,1844,1970
449180,-31356,868,-30190,2578,1580,2266,262,-261,77,-829,1236,5323,49,45,887,1767,1863,2095,2274,2038,1804,1844,1970
450181,-31300,956,-30125,2643,1892,2189,267,-201,183,1515,1129,3297,41,58,890,1796,1894,2118,2296,2031,1802,1857,1993
451182,-31220,1044,-30060,2708,1574,2161,285,-289,248,1381,818,3821,65,58,878,1796,1894,2118,2296,2031,1802,1857,1993
452183,-31124,1172,-29995,2773,1337,1585,290,-359,207,-857,1035,4514,57,70,876,1796,1894,2118,2296,2031,1802,1857,1993
453184,-31024,1292,-29930,2838,1244,1619,310,-319,180,-914,1085,4261,72,78,880,1796,1894,2118,2296,2031,1802,1857,1993
454185,-30912,1380,-29865,2903,1037,1991,359,-285,175,621,849,3282,67,76,887,1796,1894,2118,2296,2031,1802,1857,1993
455186,-30816,1512,-29800,2968,1200,1360,382,-257,221,318,685,4264,82,73,888,1762,1864,2094,2253,2095,1852,1880,2025
456187,-30704,1624,-29735,3033,942,1552,395,-235,257,-348,994,4379,77,66,886,1762,1864,2094,2253,2095,1852,1880,2025
457188,-30592,1760,-29670,3098,886,1167,425,-211,277,-522,1362,4080,81,78,891,1762,1864,2094,2253,2095,1852,1880,2025
458189,-30476,1868,-29605,3163,774,1464,517,-119,304,369,679,4511,77,79,890,1762,1864,2094,2253,2095,1852,1880,2025
459190,-30376,1968,-29540,3228,931,1523,619,-117,236,1942,163,3112,63,76,894,1762,1864,2094,2253,2095,1852,1880,2025
460191,-30264,2104,-29475,3293,725,986,728,-311,155,434,750,3802,67,67,893,1762,1864,2094,2253,2095,1852,1880,2025
461192,-30132,2204,-29410,3358,393,1394,801,-441,140,-1312,1651,4395,70,68,891,1719,1824,2065,2227,2067,1815,1839,1959
462193,-30044,2304,-29345,3423,915,1351,838,-301,111,634,1195,3948,61,63,895,1719,1824,2065,2227,2067,1815,1839,1959
463194,-29944,2416,-29280,3488,722,1145,810,-297,85,1949,1430,3431,52,67,894,1719,1824,2065,2227,2067,1815,1839,1959
464195,-29832,2532,-29215,3553,516,1033,736,-386,84,65,1641,4054,59,83,892,1719,1824,2065,2227,2067,1815,1839,1959
465196,-29756,2652,-29150,3618,952,916,647,-340,82,-791,1607,3710,67,60,895,1719,1824,2065,2227,2067,1815,1839,1959
466197,-29656,2784,-29085,3683,610,685,595,-225,73,684,1967,4096,64,74,897,1763,1864,2084,2273,1944,1722,1780,1893
467198,-29560,2904,-29020,3748,622,768,520,-171,97,1596,1816,3849,66,57,895,1763,1864,2084,2273,1944,1722,1780,1893
468199,-29468,2992,-28955,3813,640,1140,505,-116,118,961,1354,3954,52,64,899,1763,1864,2084,2273,1944,1722,1780,1893
469200,-29372,3116,-28890,3878,552,619,468,-89,108,370,1396,4096,43,63,898,1763,1864,2084,2273,1944,1722,1780,1893
470201,-29284,3216,-28825,3943,624,876,448,-61,85,380,1221,4088,57,62,895,1763,1864,2084,2273,1944,1722,1780,1893
471202,-29200,3296,-28760,4008,651,1108,405,-21,102,937,969,3635,49,63,899,1763,1864,2084,2273,1944,1722,1780,1893
472203,-29120,3388,-28695,4073,682,926,359,4,115,790,945,3699,54,56,897,1788,1886,2104,2268,1984,1766,1815,1965
473204,-29044,3484,-28630,4138,719,838,315,42,89,-15,792,3869,50,54,895,1788,1886,2104,2268,1984,1766,1815,1965
474205,-28968,3572,-28565,4203,706,910,271,108,43,-10,775,3736,49,67,896,1788,1886,2104,2268,1984,1766,1815,1965
475206,-28884,3640,-28500,4268,583,1156,265,146,31,262,586,3368,48,63,897,1788,1886,2104,2268,1984,1766,1815,1965
476207,-28812,3732,-28435,4333,725,824,284,125,30,423,689,3054,37,53,897,1788,1886,2104,2268,1984,1766,1815,1965
477208,-28744,3812,-28370,4398,771,956,361,51,23,-25,619,3258,40,53,895,1726,1829,2078,2209,2146,1896,1902,2073
478209,-28664,3912,-28305,4463,603,663,449,-66,-3,-364,725,3299,36,52,897,1726,1829,2078,2209,2146,1896,1902,2073
479210,-28584,4016,-28240,4528,584,566,564,-154,-10,-16,914,3373,34,53,895,1726,1829,2078,2209,2146,1896,1902,2073
480211,-28516,4108,-28175,4593,731,683,655,-206,1,541,1152,3043,47,57,898,1726,1829,2078,2209,2146,1896,1902,2073
481212,-28452,4200,-28110,4658,783,651,714,-228,-16,573,1327,3047,48,60,899,1726,1829,2078,2209,2146,1896,1902,2073
482213,-28388,4292,-28045,4723,784,618,720,-241,-36,210,1579,3248,43,46,898,1651,1763,2011,2153,2125,1855,1871,1998
483214,-28320,4360,-27980,4788,731,914,680,-229,-42,543,1848,3351,46,56,898,1651,1763,2011,2153,2125,1855,1871,1998
484215,-28252,4452,-27915,4853,727,581,624,-199,-45,1183,2043,3432,50,53,898,1651,1763,2011,2153,2125,1855,1871,1998
485216,-28192,4536,-27850,4918,833,658,550,-163,-38,1126,2070,3441,33,59,896,1651,1763,2011,2153,2125,1855,1871,1998
486217,-28108,4604,-27785,4983,510,854,478,-122,-41,897,2112,3471,47,41,899,1651,1763,2011,2153,2125,1855,1871,1998
487218,-28048,4680,-27720,5048,816,741,397,-87,-60,694,2049,3567,51,40,897,1651,1763,2011,2153,2125,1855,1871,1998
488219,-27992,4744,-27655,5113,877,893,314,-68,-72,795,1875,3521,44,51,898,1686,1796,1999,2166,1960,1724,1777,1899
489220,-27920,4820,-27590,5178,669,730,235,-68,-71,809,1647,3450,48,56,897,1686,1796,1999,2166,1960,1724,1777,1899
490221,-27856,4896,-27525,5243,771,716,176,-51,-60,679,1280,3488,45,52,895,1686,1796,1999,2166,1960,1724,1777,1899
491222,-27764,4968,-27460,5308,388,758,124,-39,-57,672,1009,3428,35,57,898,1686,1796,1999,2166,1960,1724,1777,1899
492223,-27708,5044,-27395,5373,849,694,90,-29,-59,551,875,3325,45,56,898,1686,1796,1999,2166,1960,1724,1777,1899
493224,-27644,5128,-27330,5438,750,571,71,-46,-72,336,667,3114,32,43,899,1711,1819,2043,2185,1980,1749,1786,1948
494225,-27572,5204,-27265,5503,641,657,71,-63,-80,250,550,3136,38,45,897,1711,1819,2043,2185,1980,1749,1786,1948
495226,-27492,5272,-27200,5568,523,754,86,-110,-74,255,399,2782,41,41,898,1711,1819,2043,2185,1980,1749,1786,1948
496227,-27412,5340,-27135,5633,505,751,119,-165,-93,159,320,2727,36,54,897,1711,1819,2043,2185,1980,1749,1786,1948
497228,-27352,5420,-27070,5698,761,583,148,-217,-109,-192,378,2703,40,54,898,1711,1819,2043,2185,1980,1749,1786,1948
498229,-27276,5500,-27005,5763,548,565,183,-253,-134,9,664,2752,33,56,899,1711,1819,2043,2185,1980,1749,1786,1948
499230,-27212,5580,-26940,5828,700,546,206,-286,-138,350,837,2519,52,48,898,1703,1818,2071,2199,2076,1826,1847,2002
500231,-27140,5652,-26875,5893,591,638,220,-329,-136,459,1104,2472,41,42,900,1703,1818,2071,2199,2076,1826,1847,2002
501232,-27052,5712,-26810,5958,363,794,224,-337,-148,542,1377,2512,50,50,899,1703,1818,2071,2199,2076,1826,1847,2002
502233,-26988,5796,-26745,6023,664,471,219,-338,-166,627,1642,2479,33,49,899,1703,1818,2071,2199,2076,1826,1847,2002
503234,-26924,5868,-26680,6088,665,612,197,-312,-168,807,1840,2629,37,44,899,1703,1818,2071,2199,2076,1826,1847,2002
504235,-26848,5940,-26615,6153,502,604,170,-291,-165,959,2117,2679,44,44,899,1702,1809,2025,2179,2039,1794,1838,1954
505236,-26792,6000,-26550,6218,763,760,127,-274,-161,913,2076,2658,49,41,899,1702,1809,2025,2179,2039,1794,1838,1954
506237,-26720,6072,-26485,6283,554,602,92,-254,-161,1077,2082,2817,40,53,900,1702,1809,2025,2179,2039,1794,1838,1954
507238,-26656,6144,-26420,6348,656,594,59,-244,-146,972,1965,2809,50,51,897,1702,1809,2025,2179,2039,1794,1838,1954
508239,-26600,6220,-26355,6413,767,530,35,-228,-143,891,1833,2970,46,56,899,1702,1809,2025,2179,2039,1794,1838,1954
509240,-26516,6292,-26290,6478,394,572,14,-182,-141,844,1649,3159,51,45,899,1702,1809,2025,2179,2039,1794,1838,1954
510241,-26440,6360,-26225,6543,481,618,-18,-157,-117,882,1279,3095,50,48,898,1668,1764,1964,2123,1967,1736,1776,1895
511242,-26368,6436,-26160,6608,522,504,-47,-152,-96,870,1017,3143,33,44,900,1668,1764,1964,2123,1967,1736,1776,1895
512243,-26320,6512,-26095,6673,843,491,-44,-130,-80,665,962,3303,49,54,900,1668,1764,1964,2123,1967,1736,1776,1895
513244,-26236,6604,-26030,6738,370,258,-27,-113,-74,640,829,3221,34,52,899,1668,1764,1964,2123,1967,1736,1776,1895
514245,-26160,6688,-25965,6803,457,335,-6,-106,-86,590,459,3204,53,55,898,1668,1764,1964,2123,1967,1736,1776,1895
515246,-26084,6736,-25900,6868,443,806,6,-141,-104,373,382,3152,36,48,902,1641,1744,1984,2126,1980,1749,1771,1915
516247,-26000,6824,-25835,6933,320,278,18,-156,-119,150,321,3002,38,38,901,1641,1744,1984,2126,1980,1749,1771,1915
517248,-25952,6896,-25770,6998,791,469,18,-158,-128,317,398,2835,42,53,899,1641,1744,1984,2126,1980,1749,1771,1915
518249,-25860,6964,-25705,7063,208,515,13,-136,-143,341,329,2733,33,47,902,1641,1744,1984,2126,1980,1749,1771,1915
519250,-25784,7048,-25640,7128,394,292,5,-130,-165,161,586,2653,34,54,899,1641,1744,1984,2126,1980,1749,1771,1915
520251,-25712,7112,-25575,7193,436,543,-37,-154,-176,284,780,2199,43,51,901,1641,1744,1984,2126,1980,1749,1771,1915
521252,-25640,7184,-25510,7258,427,435,-79,-161,-182,794,980,2225,41,39,902,1699,1813,2068,2221,2030,1793,1823,1965
522253,-25584,7236,-25445,7323,638,701,-136,-149,-189,679,1071,2245,36,47,901,1699,1813,2068,2221,2030,1793,1823,1965
523254,-25500,7304,-25380,7388,266,497,-186,-95,-197,514,1116,2200,36,41,901,1699,1813,2068,2221,2030,1793,1823,1965
524255,-25428,7388,-25315,7453,407,274,-254,-9,-178,929,1312,2498,47,51,898,1699,1813,2068,2221,2030,1793,1823,1965
525256,-25384,7464,-25250,7518,783,360,-321,133,-124,1193,1306,2427,38,43,901,1699,1813,2068,2221,2030,1793,1823,1965
526257,-25304,7516,-25185,7583,315,676,-383,233,-90,1374,1519,2628,44,40,902,1737,1842,2056,2213,2044,1807,1850,1974
527258,-25228,7604,-25120,7648,351,198,-455,303,-77,1072,1419,2694,36,40,899,1737,1842,2056,2213,2044,1807,1850,1974
528259,-25164,7668,-25055,7713,503,499,-507,384,-58,919,1307,3047,50,46,900,1737,1842,2056,2213,2044,1807,1850,1974
529260,-25092,7744,-24990,7778,394,336,-539,491,-16,1028,1348,3179,34,39,903,1737,1842,2056,2213,2044,1807,1850,1974
530261,-25028,7824,-24925,7843,495,268,-557,575,-10,1123,1278,3340,49,52,900,1737,1842,2056,2213,2044,1807,1850,1974
531263,-24956,7900,-24860,7908,387,305,-565,632,-18,870,935,3581,41,44,901,1737,1842,2056,2213,2044,1807,1850,1974
532263,-24892,7956,-24795,7973,488,566,-573,642,-21,719,805,3511,51,43,901,1637,1734,1948,2092,2066,1821,1832,1960
533264,-24808,8028,-24730,8038,215,358,-562,640,-26,341,743,3517,38,37,902,1637,1734,1948,2092,2066,1821,1832,1960
534265,-24732,8108,-24665,8103,301,239,-543,614,-38,204,649,3406,48,38,900,1637,1734,1948,2092,2066,1821,1832,1960
535266,-24652,8172,-24600,8168,233,441,-543,594,-40,186,239,3353,45,48,902,1637,1734,1948,2092,2066,1821,1832,1960
536267,-24596,8260,-24535,8233,544,112,-539,563,-45,286,403,2984,49,52,903,1637,1734,1948,2092,2066,1821,1832,1960
537268,-24504,8324,-24470,8298,61,413,-561,522,-59,85,322,2955,33,45,902,1577,1679,1937,2086,2077,1831,1827,1966
538269,-24440,8384,-24405,8363,412,469,-588,520,-64,198,294,3093,43,51,902,1577,1679,1937,2086,2077,1831,1827,1966
539270,-24368,8452,-24340,8428,304,365,-623,542,-36,723,331,2800,49,52,902,1577,1679,1937,2086,2077,1831,1827,1966
540271,-24296,8524,-24275,8493,295,307,-684,602,-24,926,273,2733,34,38,901,1577,1679,1937,2086,2077,1831,1827,1966
541272,-24220,8604,-24210,8558,232,188,-767,705,-3,857,489,2881,49,47,902,1577,1679,1937,2086,2077,1831,1827,1966
542273,-24136,8668,-24145,8623,109,390,-873,833,21,925,609,2616,36,38,902,1577,1679,1937,2086,2077,1831,1827,1966
543274,-24060,8736,-24080,8688,195,336,-986,995,58,1279,670,2828,35,41,903,1670,1787,2041,2199,2053,1811,1844,1983
544275,-23984,8796,-24015,8753,182,442,-1100,1141,107,1704,930,2658,37,36,903,1670,1787,2041,2199,2053,1811,1844,1983
545276,-23916,8864,-23950,8818,278,338,-1201,1300,135,1596,727,2650,34,44,903,1670,1787,2041,2199,2053,1811,1844,1983
546277,-23836,8924,-23885,8883,110,444,-1287,1442,153,1194,764,2859,33,54,902,1670,1787,2041,2199,2053,1811,1844,1983
547278,-23752,9012,-23820,8948,36,66,-1385,1493,175,788,909,2405,47,38,901,1670,1787,2041,2199,2053,1811,1844,1983
548279,-23676,9084,-23755,9013,123,258,-1466,1547,208,530,704,2684,41,48,901,1727,1833,2054,2206,2074,1830,1857,1990
549280,-23612,9160,-23690,9078,274,194,-1532,1564,253,636,712,2759,33,53,904,1727,1833,2054,2206,2074,1830,1857,1990
550281,-23512,9232,-23625,9143,-218,236,-1583,1502,266,293,534,2915,50,41,903,1727,1833,2054,2206,2074,1830,1857,1990
551282,-23452,9296,-23560,9208,288,337,-1593,1425,276,-373,346,3126,50,41,903,1727,1833,2054,2206,2074,1830,1857,1990
552283,-23376,9380,-23495,9273,74,64,-1566,1338,285,-296,387,3456,49,53,894,1727,1833,2054,2206,2074,1830,1857,1990
553284,-23292,9460,-23430,9338,-49,96,-1495,1248,300,114,339,3700,42,51,902,1727,1833,2054,2206,2074,1830,1857,1990
554285,-23212,9552,-23365,9403,-17,-87,-1403,1142,299,345,298,3943,40,41,904,1629,1727,1958,2096,2095,1835,1856,1993
555286,-23152,9648,-23300,9468,239,-175,-1320,1060,283,280,130,4226,39,45,904,1629,1727,1958,2096,2095,1835,1856,1993
556287,-23076,9736,-23235,9533,25,-103,-1247,1065,293,573,209,4425,32,52,904,1629,1727,1958,2096,2095,1835,1856,1993
557288,-22996,9808,-23170,9598,-44,88,-1199,1088,324,1008,495,4245,37,50,903,1629,1727,1958,2096,2095,1835,1856,1993
558289,-22912,9908,-23105,9663,-117,-305,-1183,1127,339,1258,560,4307,48,48,904,1629,1727,1958,2096,2095,1835,1856,1993
559290,-22840,9984,-23040,9728,24,-18,-1195,1195,364,1346,542,4353,46,41,904,1635,1754,1987,2151,2042,1793,1843,1969
560291,-22740,10080,-22975,9793,-368,-306,-1222,1247,415,1410,723,4000,47,34,899,1635,1754,1987,2151,2042,1793,1843,1969
561292,-22624,10192,-22910,9858,-631,-564,-1260,1282,469,1284,827,3707,42,39,904,1635,1754,1987,2151,2042,1793,1843,1969
562293,-22552,10272,-22845,9923,-89,-183,-1311,1325,514,1165,804,3650,27,33,903,1635,1754,1987,2151,2042,1793,1843,1969
563294,-22472,10332,-22780,9988,-207,74,-1373,1300,560,859,794,3201,45,37,902,1635,1754,1987,2151,2042,1793,1843,1969
564295,-22416,10388,-22715,10053,104,135,-1437,1241,595,500,918,3328,32,43,900,1635,1754,1987,2151,2042,1793,1843,1969
565296,-22356,10448,-22650,10118,60,91,-1488,1164,621,156,609,2991,46,36,894,1836,1956,2168,2372,1995,1773,1847,1965
566297,-22296,10500,-22585,10183,66,207,-1507,1073,663,136,506,3300,47,36,904,1836,1956,2168,2372,1995,1773,1847,1965
567298,-22216,10568,-22520,10248,-204,3,-1497,958,709,208,406,3077,46,31,904,1836,1956,2168,2372,1995,1773,1847,1965
568299,-22160,10628,-22455,10313,107,109,-1458,823,728,-67,178,3224,38,40,904,1836,1956,2168,2372,1995,1773,1847,1965
569300,-22080,10700,-22390,10378,-211,-51,-1399,713,740,-249,-71,3588,35,38,895,1836,1956,2168,2372,1995,1773,1847,1965
570301,-22020,10764,-22325,10443,45,51,-1317,593,754,-228,-146,3710,43,35,904,1908,2010,2215,2385,2014,1916,1919,1967
571302,-21948,10816,-22260,10508,-113,217,-1220,505,768,-94,-269,4206,48,33,894,1908,2010,2215,2385,2014,1916,1919,1967
572303,-21872,10888,-22195,10573,-177,-42,-1111,470,792,159,-326,4643,31,29,905,1908,2010,2215,2385,2014,1916,1919,1967
573304,-21816,10936,-22130,10638,84,279,-1004,451,818,461,-197,4770,39,42,900,1908,2010,2215,2385,2014,1916,1919,1967
574305,-21744,11012,-22065,10703,-124,-85,-905,416,829,399,-75,4845,30,43,897,1908,2010,2215,2385,2014,1916,1919,1967
575306,-21664,11076,-22000,10768,-244,67,-807,402,836,384,56,4965,40,46,903,1908,2010,2215,2385,2014,1916,1919,1967
576307,-21596,11160,-21935,10833,-97,-207,-716,392,850,551,228,4937,37,35,899,1828,1932,2124,2285,1976,1740,1813,1925
577308,-21532,11216,-21870,10898,-46,153,-646,379,859,579,445,4966,48,45,903,1828,1932,2124,2285,1976,1740,1813,1925
578309,-21468,11284,-21805,10963,-45,0,-603,359,879,340,636,4695,35,41,903,1828,1932,2124,2285,1976,1740,1813,1925
579311,-21388,11364,-21740,11028,-263,-169,-572,357,891,381,809,4653,45,42,904,1828,1932,2124,2285,1976,1740,1813,1925
580311,-21324,11444,-21675,11093,-62,-187,-552,355,910,453,716,4461,36,49,904,1828,1932,2124,2285,1976,1740,1813,1925
581312,-21256,11504,-21610,11158,-116,69,-536,284,940,310,843,3936,44,45,902,1831,1928,2106,2327,1950,1743,1829,1914
582313,-21188,11564,-21545,11223,-119,75,-524,194,951,-82,771,3889,47,45,903,1831,1928,2106,2327,1950,1743,1829,1914
583314,-21132,11628,-21480,11288,41,26,-505,119,952,-180,648,3890,46,50,900,1831,1928,2106,2327,1950,1743,1829,1914
584315,-21060,11696,-21415,11353,-168,-27,-484,58,976,-44,356,3719,29,39,900,1831,1928,2106,2327,1950,1743,1829,1914
585316,-20992,11764,-21350,11418,-122,-32,-446,26,1016,101,121,3632,49,46,904,1831,1928,2106,2327,1950,1743,1829,1914
586317,-20936,11864,-21285,11483,39,-475,-386,36,1046,137,-204,3907,39,51,897,1831,1928,2106,2327,1950,1743,1829,1914
587318,-20872,11932,-21220,11548,-59,-78,-317,55,1054,263,-336,3904,33,42,900,1874,1960,2163,2388,2000,1797,1849,1952
588319,-20784,12012,-21155,11613,-387,-247,-237,54,1066,-10,-610,3731,44,31,902,1874,1960,2163,2388,2000,1797,1849,1952
589320,-20732,12088,-21090,11678,78,-210,-163,46,1068,183,-877,4026,42,46,903,1874,1960,2163,2388,2000,1797,1849,1952
590321,-20656,12144,-21025,11743,-236,51,-107,19,1071,-101,-1010,3783,29,49,903,1874,1960,2163,2388,2000,1797,1849,1952
591322,-20592,12224,-20960,11808,-85,-267,-56,20,1067,-92,-1112,3819,32,33,904,1874,1960,2163,2388,2000,1797,1849,1952
592323,-20528,12296,-20895,11873,-83,-177,-11,35,1066,-189,-952,3898,33,35,905,1849,1935,2165,2355,2009,1795,1832,1931
593324,-20436,12368,-20830,11938,-466,-185,0,39,1056,-330,-880,3712,32,40,901,1849,1935,2165,2355,2009,1795,1832,1931
594325,-20380,12436,-20765,12003,-5,-139,-11,48,1031,-192,-659,3704,29,46,902,1849,1935,2165,2355,2009,1795,1832,1931
595326,-20316,12508,-20700,12068,-104,-198,-46,57,1015,-274,-604,3671,47,32,904,1849,1935,2165,2355,2009,1795,1832,1931
596327,-20228,12580,-20635,12133,-432,-206,-82,70,991,-142,-331,3664,40,43,904,1849,1935,2165,2355,2009,1795,1832,1931
597328,-20164,12644,-20570,12198,-132,-105,-126,93,966,-173,-220,3588,28,35,901,1849,1935,2165,2355,2009,1795,1832,1931
598329,-20076,12704,-20505,12263,-460,-50,-163,169,943,21,-41,3893,42,31,903,1796,1881,2083,2273,1983,1771,1828,1926
599330,-20004,12764,-20440,12328,-269,-44,-191,280,935,142,16,3705,36,46,903,1796,1881,2083,2273,1983,1771,1828,1926
600331,-19924,12828,-20375,12393,-387,-93,-202,353,931,237,19,3742,44,46,904,1796,1881,2083,2273,1983,1771,1828,1926
601332,-19840,12880,-20310,12458,-460,73,-201,394,916,48,-68,3573,50,46,904,1796,1881,2083,2273,1983,1771,1828,1926
602333,-19760,12956,-20245,12523,-429,-240,-191,418,883,-119,-180,3799,38,47,904,1796,1881,2083,2273,1983,1771,1828,1926
603334,-19688,13020,-20180,12588,-338,-90,-169,448,857,-37,-226,3828,33,50,904,1706,1793,1989,2176,2027,1812,1851,1958
604335,-19588,13096,-20115,12653,-731,-253,-161,398,849,-212,-518,3500,31,48,904,1706,1793,1989,2176,2027,1812,1851,1958
605336,-19504,13168,-20050,12718,-554,-212,-154,280,860,-1024,-785,3714,32,41,904,1706,1793,1989,2176,2027,1812,1851,1958
606337,-19452,13232,-19985,12783,-138,-111,-152,206,856,-1087,-736,4022,44,48,897,1706,1793,1989,2176,2027,1812,1851,1958
607338,-19348,13316,-19920,12848,-836,-384,-163,176,830,-784,-793,3987,47,42,904,1706,1793,1989,2176,2027,1812,1851,1958
608339,-19280,13372,-19855,12913,-390,-23,-193,144,809,-495,-968,3978,49,46,899,1706,1793,1989,2176,2027,1812,1851,1958
609340,-19180,13444,-19790,12978,-833,-232,-228,111,802,-475,-1179,3765,40,47,903,1668,1769,1995,2170,2076,1855,1871,1991
610341,-19128,13500,-19725,13043,-217,-21,-249,99,757,-273,-1017,3805,46,33,897,1668,1769,1995,2170,2076,1855,1871,1991
611342,-19056,13580,-19660,13108,-476,-340,-293,98,703,-165,-1105,3575,35,43,904,1668,1769,1995,2170,2076,1855,1871,1991
612343,-18964,13632,-19595,13173,-760,26,-327,82,639,141,-1067,3496,39,39,903,1668,1769,1995,2170,2076,1855,1871,1991
613344,-18888,13696,-19530,13238,-573,-123,-376,40,599,-335,-1398,3226,50,45,901,1668,1769,1995,2170,2076,1855,1871,1991
614345,-18820,13780,-19465,13303,-477,-396,-420,24,563,-371,-1425,3443,50,44,903,1742,1857,2093,2272,2107,1876,1919,2055
615346,-18760,13840,-19400,13368,-371,-91,-478,7,529,-262,-1212,3200,47,41,901,1742,1857,2093,2272,2107,1876,1919,2055
616347,-18668,13900,-19335,13433,-805,-85,-542,-14,487,-362,-1193,3202,46,41,904,1742,1857,2093,2272,2107,1876,1919,2055
617348,-18576,13972,-19270,13498,-838,-243,-623,-28,447,-528,-1228,3425,31,33,901,1742,1857,2093,2272,2107,1876,1919,2055
618349,-18512,14016,-19205,13563,-486,133,-713,-43,440,-619,-1466,3360,50,34,903,1742,1857,2093,2272,2107,1876,1919,2055
619350,-18444,14088,-19140,13628,-540,-226,-805,-40,400,-192,-899,4066,49,38,904,1742,1857,2093,2272,2107,1876,1919,2055
620351,-18372,14144,-19075,13693,-600,-16,-887,-108,360,-732,-930,3778,50,43,903,1796,1908,2109,2275,2085,1848,1910,2036
621352,-18300,14208,-19010,13758,-608,-115,-943,-172,316,-936,-1081,4395,32,42,903,1796,1908,2109,2275,2085,1848,1910,2036
622353,-18216,14268,-18945,13823,-781,-59,-997,-293,296,-1068,-1262,4225,31,35,904,1796,1908,2109,2275,2085,1848,1910,2036
623354,-18128,14344,-18880,13888,-859,-272,-1025,-395,278,-1047,-1409,4696,48,46,904,1796,1908,2109,2275,2085,1848,1910,2036
624355,-18100,14400,-18815,13953,-65,-11,-1040,-467,256,-1214,-1268,4767,46,31,903,1796,1908,2109,2275,2085,1848,1910,2036
625356,-18016,14468,-18750,14018,-788,-165,-1054,-517,226,-974,-1317,4776,29,32,904,1721,1831,2018,2183,2094,1854,1916,2031
626357,-17936,14536,-18685,14083,-757,-169,-1055,-593,191,-754,-1374,4774,41,34,904,1721,1831,2018,2183,2094,1854,1916,2031
627358,-17852,14588,-18620,14148,-831,46,-1069,-675,182,-899,-1590,5031,34,30,904,1721,1831,2018,2183,2094,1854,1916,2031
628359,-17780,14656,-18555,14213,-690,-157,-1080,-726,156,-593,-1295,4824,31,44,905,1721,1831,2018,2183,2094,1854,1916,2031
629360,-17740,14708,-18490,14278,-259,59,-1095,-748,127,-583,-1290,5011,41,30,903,1721,1831,2018,2183,2094,1854,1916,2031
630361,-17656,14768,-18425,14343,-832,-35,-1106,-768,107,-427,-1209,4811,27,37,904,1721,1831,2018,2183,2094,1854,1916,2031
631362,-17576,14812,-18360,14408,-802,190,-1121,-827,101,-600,-1421,4362,29,30,904,1708,1823,2029,2216,2116,1896,1953,2080
632363,-17484,14892,-18295,14473,-984,-279,-1149,-852,96,-467,-1431,4941,44,30,903,1708,1823,2029,2216,2116,1896,1953,2080
633364,-17416,14940,-18230,14538,-688,142,-1179,-829,114,-464,-1352,4333,45,29,903,1708,1823,2029,2216,2116,1896,1953,2080
634365,-17384,14988,-18165,14603,-199,163,-1198,-830,139,-107,-1660,4278,29,40,904,1708,1823,2029,2216,2116,1896,1953,2080
635366,-17316,15052,-18100,14668,-653,-36,-1205,-836,131,-282,-1658,4728,40,42,904,1708,1823,2029,2216,2116,1896,1953,2080
636367,-17244,15096,-18035,14733,-711,239,-1209,-787,112,-401,-1781,4830,33,29,904,1815,1919,2154,2372,2143,1916,1962,2068
637368,-17180,15172,-17970,14798,-611,-174,-1205,-629,110,-262,-2145,5406,25,26,903,1815,1919,2154,2372,2143,1916,1962,2068
638369,-17128,15224,-17905,14863,-445,141,-1179,-486,114,256,-2039,5531,39,41,904,1815,1919,2154,2372,2143,1916,1962,2068
639370,-17072,15276,-17840,14928,-484,157,-1142,-431,113,-143,-2129,5415,28,40,904,1815,1919,2154,2372,2143,1916,1962,2068
640371,-17000,15336,-17775,14993,-693,63,-1118,-456,82,-1001,-2074,5381,28,40,904,1815,1919,2154,2372,2143,1916,1962,2068
641372,-16944,15380,-17710,15058,-483,288,-1105,-461,40,-1304,-1742,5669,23,42,904,1815,1919,2154,2372,2143,1916,1962,2068
642373,-16892,15440,-17645,15123,-417,95,-1117,-488,26,-1268,-1903,5294,24,34,904,1905,1988,2223,2484,2081,1873,1914,1977
643374,-16836,15488,-17580,15188,-456,265,-1138,-535,29,-1050,-1881,5335,37,29,904,1905,1988,2223,2484,2081,1873,1914,1977
644375,-16792,15532,-17515,15253,-281,341,-1156,-566,24,-1034,-1710,5447,38,41,903,1905,1988,2223,2484,2081,1873,1914,1977
645376,-16744,15588,-17450,15318,-310,202,-1160,-538,8,-888,-1824,5656,22,41,903,1905,1988,2223,2484,2081,1873,1914,1977
646377,-16692,15620,-17385,15383,-344,542,-1163,-472,10,-414,-1747,5558,17,29,904,1905,1988,2223,2484,2081,1873,1914,1977
647378,-16656,15684,-17320,15448,-109,142,-1156,-393,22,-141,-1673,5830,15,27,902,1934,2000,2212,2496,2032,1841,1906,1961
648379,-16612,15740,-17255,15513,-184,253,-1136,-274,10,43,-1627,6234,20,31,900,1934,2000,2212,2496,2032,1841,1906,1961
649380,-16564,15796,-17190,15578,-214,264,-1115,-145,27,202,-1976,5770,28,36,895,1934,2000,2212,2496,2032,1841,1906,1961
650381,-16540,15852,-17125,15643,136,275,-1058,-14,35,713,-1879,6127,27,38,894,1934,2000,2212,2496,2032,1841,1906,1961
651382,-16512,15916,-17060,15708,132,177,-1001,79,55,481,-1966,5743,18,32,903,1934,2000,2212,2496,2032,1841,1906,1961
652383,-16480,15968,-16995,15773,121,342,-920,145,67,384,-2101,5718,24,38,903,1934,2000,2212,2496,2032,1841,1906,1961
653384,-16448,16028,-16930,15838,161,249,-839,177,63,552,-2089,5253,18,45,903,1888,1954,2175,2463,2079,1903,1928,1998
654385,-16416,16084,-16865,15903,201,310,-780,180,48,266,-2118,5440,25,34,903,1888,1954,2175,2463,2079,1903,1928,1998
655386,-16392,16148,-16800,15968,351,211,-714,199,50,466,-2173,4826,26,42,902,1888,1954,2175,2463,2079,1903,1928,1998
656387,-16372,16212,-16735,16033,456,212,-663,190,40,697,-2041,4768,8,37,902,1888,1954,2175,2463,2079,1903,1928,1998
657388,-16340,16280,-16670,16098,346,158,-614,178,2,471,-1971,4813,20,34,902,1888,1954,2175,2463,2079,1903,1928,1998
658389,-16308,16344,-16605,16163,386,210,-584,142,-39,409,-1933,4295,25,46,903,1862,1950,2158,2412,2066,1854,1915,1988
659390,-16292,16412,-16540,16228,646,155,-551,101,-63,309,-1911,4261,12,44,902,1862,1950,2158,2412,2066,1854,1915,1988
660391,-16256,16472,-16475,16293,431,261,-510,48,-86,158,-1843,4451,9,34,901,1862,1950,2158,2412,2066,1854,1915,1988
661392,-16212,16536,-16410,16358,357,212,-468,-12,-112,208,-1794,4089,15,44,902,1862,1950,2158,2412,2066,1854,1915,1988
662393,-16196,16608,-16345,16423,767,104,-429,-51,-147,302,-1746,4191,16,33,903,1862,1950,2158,2412,2066,1854,1915,1988
663394,-16156,16660,-16280,16488,497,370,-408,-60,-186,572,-1624,4091,14,38,900,1862,1950,2158,2412,2066,1854,1915,1988
664395,-16124,16728,-16215,16553,637,166,-382,-85,-196,555,-1675,3823,29,34,901,1860,1958,2146,2376,1999,1778,1856,1937
665396,-16064,16796,-16150,16618,294,162,-357,-118,-204,522,-1577,4139,17,43,900,1860,1958,2146,2376,1999,1778,1856,1937
666397,-16028,16860,-16085,16683,629,213,-333,-121,-237,776,-1518,4049,17,34,901,1860,1958,2146,2376,1999,1778,1856,1937
667398,-15976,16932,-16020,16748,445,105,-298,-88,-270,1031,-1538,4104,17,35,901,1860,1958,2146,2376,1999,1778,1856,1937
668399,-15944,16992,-15955,16813,735,261,-260,-85,-290,1049,-1393,3979,36,34,902,1860,1958,2146,2376,1999,1778,1856,1937
669400,-15900,17048,-15890,16878,611,322,-226,-112,-309,865,-1416,3830,19,39,900,1832,1935,2103,2311,1937,1723,1809,1899
670401,-15848,17112,-15825,16943,527,223,-189,-148,-328,558,-1405,3733,33,36,900,1832,1935,2103,2311,1937,1723,1809,1899
671402,-15792,17160,-15760,17008,488,444,-150,-203,-342,746,-1401,3598,42,44,901,1832,1935,2103,2311,1937,1723,1809,1899
672403,-15748,17224,-15695,17073,663,245,-105,-260,-352,821,-1313,3550,42,30,900,1832,1935,2103,2311,1937,1723,1809,1899
673404,-15684,17288,-15630,17138,414,245,-49,-327,-360,659,-1334,3471,39,32,900,1832,1935,2103,2311,1937,1723,1809,1899
674405,-15604,17344,-15565,17203,196,356,6,-409,-373,655,-1298,3494,27,42,902,1832,1935,2103,2311,1937,1723,1809,1899
675406,-15544,17400,-15500,17268,452,367,78,-483,-370,622,-1162,3494,43,39,902,1793,1893,2071,2283,1935,1731,1807,1894
676407,-15488,17476,-15435,17333,513,104,135,-555,-368,756,-1077,3327,41,32,901,1793,1893,2071,2283,1935,1731,1807,1894
677408,-15440,17528,-15370,17398,634,420,189,-590,-386,921,-994,3377,23,31,902,1793,1893,2071,2283,1935,1731,1807,1894
678409,-15392,17592,-15305,17463,655,271,233,-584,-408,1143,-943,3309,25,40,900,1793,1893,2071,2283,1935,1731,1807,1894
679410,-15324,17644,-15240,17528,401,437,274,-576,-435,1196,-807,3168,43,48,900,1793,1893,2071,2283,1935,1731,1807,1894
680411,-15268,17708,-15175,17593,562,288,296,-563,-459,1150,-799,3067,29,43,901,1794,1884,2080,2310,1958,1758,1825,1905
681412,-15216,17768,-15110,17658,628,344,328,-544,-485,1187,-669,3131,37,32,901,1794,1884,2080,2310,1958,1758,1825,1905
682413,-15156,17844,-15045,17723,534,131,350,-568,-494,948,-765,2872,28,45,900,1794,1884,2080,2310,1958,1758,1825,1905
683414,-15100,17904,-14980,17788,595,337,383,-577,-512,850,-697,3128,45,43,901,1794,1884,2080,2310,1958,1758,1825,1905
684415,-15036,17960,-14915,17853,496,398,418,-588,-521,735,-751,2974,35,40,900,1794,1884,2080,2310,1958,1758,1825,1905
685416,-14960,18012,-14850,17918,333,464,464,-581,-523,791,-795,3273,41,32,901,1794,1884,2080,2310,1958,1758,1825,1905
686417,-14904,18076,-14785,17983,594,315,506,-559,-523,747,-785,3238,37,34,901,1806,1888,2096,2323,1974,1769,1821,1902
687418,-14840,18152,-14720,18048,495,152,543,-543,-530,734,-804,3310,46,38,900,1806,1888,2096,2323,1974,1769,1821,1902
688419,-14788,18212,-14655,18113,661,358,588,-491,-527,724,-923,3321,40,37,902,1806,1888,2096,2323,1974,1769,1821,1902
689420,-14704,18268,-14590,18178,238,419,636,-430,-512,831,-695,3352,32,39,900,1806,1888,2096,2323,1974,1769,1821,1902
690421,-14648,18332,-14525,18243,599,320,676,-396,-494,663,-674,3493,43,41,902,1806,1888,2096,2323,1974,1769,1821,1902
691422,-14588,18388,-14460,18308,555,431,716,-335,-485,552,-697,3624,31,33,900,1773,1858,2070,2288,1958,1749,1795,1875
692423,-14504,18444,-14395,18373,232,442,759,-262,-489,780,-549,3686,37,34,900,1773,1858,2070,2288,1958,1749,1795,1875
693424,-14424,18520,-14330,18438,263,178,788,-208,-456,699,-743,3487,31,41,901,1773,1858,2070,2288,1958,1749,1795,1875
694425,-14348,18580,-14265,18503,300,385,822,-137,-446,940,-462,3754,47,39,902,1773,1858,2070,2288,1958,1749,1795,1875
695426,-14276,18636,-14200,18568,341,445,846,-83,-434,706,-443,3438,44,36,902,1773,1858,2070,2288,1958,1749,1795,1875
696427,-14228,18712,-14135,18633,663,181,864,-35,-426,791,-354,3455,38,43,901,1762,1845,2070,2288,1958,1749,1795,1875
697428,-14164,18776,-14070,18698,464,332,879,37,-417,863,-245,3489,26,36,900,1762,1845,2063,2288,1952,1753,1799,1881
698429,-14092,18828,-14005,18763,356,498,882,104,-393,851,-315,3223,41,39,901,1762,1845,2063,2288,1952,1753,1799,1881
699430,-14028,18900,-13806,18962,620,403,897,178,-390,1060,-109,3505,38,36,901,1762,1845,2063,2288,1952,1753,1799,1881
700431,-13972,18956,-13741,19027,731,614,909,244,-386,979,-61,3321,26,37,899,1762,1845,2063,2288,1952,1753,1799,1881
701432,-13904,19020,-13676,19092,578,515,933,301,-376,944,-133,3429,34,40,898,1762,1845,2063,2288,1952,1753,1799,1881
702433,-13844,19096,-13611,19157,684,352,956,353,-371,1016,-122,3282,31,46,899,1775,1854,2080,2308,1992,1793,1831,1920
703434,-13772,19172,-13546,19222,525,339,989,401,-352,941,-167,3394,35,37,900,1775,1854,2080,2308,1992,1793,1831,1920
704435,-13716,19240,-13481,19287,736,435,1021,454,-337,977,-164,3349,50,41,901,1775,1854,2080,2308,1992,1793,1831,1920
705436,-13648,19288,-13416,19352,583,706,1061,495,-318,962,-240,3364,33,46,899,1775,1854,2080,2308,1992,1793,1831,1920
706439,-13580,19352,-13351,19417,579,508,1100,522,-288,812,-289,3364,31,46,898,1775,1854,2080,2308,1992,1793,1831,1920
707438,-13524,19444,-13286,19482,740,125,1138,525,-257,648,-261,3455,37,38,899,1775,1851,2089,2306,2025,1812,1841,1937
708439,-13452,19516,-13221,19547,531,366,1170,531,-229,563,-353,3337,48,43,900,1775,1851,2089,2306,2025,1812,1841,1937
709440,-13368,19596,-13156,19612,358,248,1207,576,-199,858,-254,3478,36,52,901,1775,1851,2089,2306,2025,1812,1841,1937
710441,-13320,19652,-13091,19677,830,559,1231,606,-154,906,-230,3478,46,36,901,1775,1851,2089,2306,2025,1812,1841,1937
711442,-13240,19724,-13026,19742,412,350,1256,652,-119,839,-165,3778,35,35,897,1775,1851,2089,2306,2025,1812,1841,1937
712443,-13180,19800,-12961,19807,668,287,1277,691,-97,815,-22,3662,47,43,901,1775,1851,2089,2306,2025,1812,1841,1937
713444,-13108,19868,-12896,19872,509,383,1296,724,-71,793,-78,3715,31,32,900,1771,1859,2086,2287,2004,1780,1824,1924
714445,-13044,19932,-12831,19937,611,435,1301,762,-42,869,-85,3784,50,38,901,1771,1859,2086,2287,2004,1780,1824,1924
715446,-12964,19984,-12766,20002,392,600,1306,769,-21,775,92,3551,37,36,900,1771,1859,2086,2287,2004,1780,1824,1924
716447,-12892,20056,-12701,20067,484,342,1299,736,-9,609,97,3508,32,45,900,1771,1859,2086,2287,2004,1780,1824,1924
717448,-12828,20128,-12636,20132,585,333,1297,717,9,517,-5,3542,45,33,900,1771,1859,2086,2287,2004,1780,1824,1924
718449,-12764,20192,-12571,20197,586,435,1292,700,27,697,69,3589,47,41,901,1779,1874,2087,2287,1996,1772,1826,1938
719450,-12684,20252,-12506,20262,368,491,1277,703,46,884,77,3673,43,40,900,1779,1874,2087,2287,1996,1772,1826,1938
720451,-12596,20316,-12441,20327,240,442,1271,724,74,978,-4,3663,50,46,901,1779,1874,2087,2287,1996,1772,1826,1938
721452,-12544,20372,-12376,20392,706,553,1281,712,92,950,96,3683,29,40,902,1779,1874,2087,2287,1996,1772,1826,1938
722453,-12476,20436,-12311,20457,502,454,1298,713,102,842,80,4005,42,43,899,1779,1874,2087,2287,1996,1772,1826,1938
723454,-12416,20496,-12246,20522,608,510,1317,732,122,958,-93,3859,29,33,901,1779,1874,2087,2287,1996,1772,1826,1938
724455,-12348,20544,-12181,20587,505,681,1350,737,153,1144,-7,4002,44,48,900,1782,1878,2095,2283,2038,1812,1861,1982
725456,-12276,20624,-12116,20652,447,263,1368,710,177,962,111,3873,30,41,899,1782,1878,2095,2283,2038,1812,1861,1982
726457,-12228,20680,-12051,20717,768,574,1388,652,197,625,122,3722,34,34,902,1782,1878,2095,2283,2038,1812,1861,1982
727458,-12168,20752,-11986,20782,624,365,1404,564,223,529,174,3854,43,37,898,1782,1878,2095,2283,2038,1812,1861,1982
728459,-12100,20816,-11921,20847,520,466,1403,454,255,425,211,3804,30,38,900,1782,1878,2095,2283,2038,1812,1861,1982
729460,-12036,20876,-11856,20912,571,522,1396,343,274,319,243,3964,47,33,901,1783,1882,2115,2306,2077,1846,1887,2014
730461,-11964,20948,-11791,20977,463,364,1375,224,263,503,589,4150,28,44,900,1783,1882,2115,2306,2077,1846,1887,2014
731462,-11916,21008,-11726,21042,783,520,1320,99,274,477,635,4057,28,31,901,1783,1882,2115,2306,2077,1846,1887,2014
732463,-11848,21092,-11661,21107,530,197,1260,4,305,693,601,4000,32,32,899,1783,1882,2115,2306,2077,1846,1887,2014
733464,-11768,21152,-11596,21172,361,503,1190,-76,328,756,667,4190,32,38,901,1783,1882,2115,2306,2077,1846,1887,2014
734465,-11704,21204,-11531,21237,563,619,1120,-80,319,638,648,4591,39,35,900,1783,1882,2115,2306,2077,1846,1887,2014
735466,-11632,21264,-11466,21302,454,525,1063,-35,322,846,513,4483,34,27,899,1798,1903,2133,2299,2119,1879,1922,2086
736467,-11576,21348,-11401,21367,665,202,1033,8,330,1184,440,4697,45,44,900,1798,1903,2133,2299,2119,1879,1922,2086
737468,-11528,21400,-11336,21432,786,618,1002,-1,349,974,331,4657,38,31,901,1798,1903,2133,2299,2119,1879,1922,2086
738469,-11444,21460,-11271,21497,313,524,984,-8,362,565,378,4684,29,36,898,1798,1903,2133,2299,2119,1879,1922,2086
739470,-11392,21516,-11206,21562,729,585,961,-7,365,491,273,4848,46,31,901,1798,1903,2133,2299,2119,1879,1922,2086
740471,-11336,21588,-11141,21627,691,376,975,-19,356,711,134,4576,38,38,899,1768,1886,2126,2262,2205,1939,1957,2131
741472,-11264,21628,-11076,21692,482,807,958,-51,359,550,412,4468,35,46,900,1768,1886,2126,2262,2205,1939,1957,2131
742473,-11192,21692,-11011,21757,473,508,925,-127,361,-24,652,4623,47,35,898,1768,1886,2126,2262,2205,1939,1957,2131
743474,-11104,21768,-10946,21822,245,344,898,-157,341,-172,600,4552,42,34,900,1768,1886,2126,2262,2205,1939,1957,2131
744475,-11028,21832,-10881,21887,382,496,876,-178,314,72,602,4517,40,35,902,1768,1886,2126,2262,2205,1939,1957,2131
745476,-10972,21896,-10816,21952,643,497,848,-232,309,158,587,4302,37,28,901,1768,1886,2126,2262,2205,1939,1957,2131
746477,-10900,21960,-10751,22017,434,498,803,-317,304,61,736,4271,34,39,900,1750,1866,2120,2278,2201,1943,1949,2088
747478,-10832,22004,-10686,22082,481,774,734,-375,299,-224,973,4335,48,28,901,1750,1866,2120,2278,2201,1943,1949,2088
748479,-10772,22088,-10621,22147,587,251,640,-386,281,2,1194,4473,34,42,899,1750,1866,2120,2278,2201,1943,1949,2088
749480,-10700,22144,-10556,22212,428,612,554,-369,260,236,1144,4325,47,44,901,1750,1866,2120,2278,2201,1943,1949,2088
750481,-10632,22208,-10491,22277,475,513,478,-347,230,310,1166,4607,45,43,901,1750,1866,2120,2278,2201,1943,1949,2088
751482,-10568,22276,-10426,22342,526,459,399,-319,219,341,1224,4668,32,41,900,1762,1862,2113,2296,2141,1908,1916,2043
752483,-10524,22320,-10361,22407,801,785,311,-271,220,338,1202,4707,26,42,901,1762,1862,2113,2296,2141,1908,1916,2043
753484,-10456,22364,-10296,22472,498,810,251,-209,226,549,918,4741,25,42,897,1762,1862,2113,2296,2141,1908,1916,2043
754485,-10388,22436,-10231,22537,494,452,217,-137,215,680,860,4877,29,37,899,1762,1862,2113,2296,2141,1908,1916,2043
755486,-10316,22508,-10166,22602,436,443,186,-85,206,460,747,4823,43,34,901,1762,1862,2113,2296,2141,1908,1916,2043
756488,-10272,22572,-10101,22667,811,544,165,-31,204,210,531,4627,38,39,901,1762,1862,2113,2296,2141,1908,1916,2043
757488,-10212,22640,-10036,22732,618,491,153,8,198,260,608,4569,40,44,898,1747,1838,2105,2279,2138,1915,1906,2041
758489,-10132,22684,-9971,22797,350,816,143,28,183,120,552,4452,45,46,899,1747,1838,2105,2279,2138,1915,1906,2041
759490,-10084,22764,-9906,22862,771,348,135,15,177,-96,570,4293,35,44,899,1747,1838,2105,2279,2138,1915,1906,2041
760491,-10020,22848,-9841,22927,572,275,124,21,163,-209,638,4256,26,32,899,1747,1838,2105,2279,2138,1915,1906,2041
761492,-9956,22912,-9776,22992,573,526,104,20,141,-310,694,4120,44,43,901,1747,1838,2105,2279,2138,1915,1906,2041
762493,-9900,22988,-9711,23057,684,363,81,50,106,-170,808,3995,38,31,899,1749,1846,2124,2306,2128,1901,1899,2021
763494,-9836,23040,-9646,23122,585,679,52,79,67,-71,1039,4090,31,31,900,1749,1846,2124,2306,2128,1901,1899,2021
764495,-9780,23108,-9581,23187,696,475,18,123,24,-109,987,3951,39,30,899,1749,1846,2124,2306,2128,1901,1899,2021
765496,-9716,23180,-9516,23252,598,416,-20,151,-18,54,1289,3967,34,39,899,1749,1846,2124,2306,2128,1901,1899,2021
766497,-9652,23260,-9451,23317,599,298,-70,175,-49,10,1325,3656,30,35,900,1749,1846,2124,2306,2128,1901,1899,2021
767498,-9596,23324,-9386,23382,710,499,-106,193,-75,-46,1185,3709,31,38,901,1749,1846,2124,2306,2128,1901,1899,2021
768499,-9536,23372,-9321,23447,666,720,-140,216,-115,125,1339,3742,47,41,898,1777,1873,2125,2313,2072,1849,1873,1987
769500,-9472,23428,-9256,23512,617,631,-154,250,-147,220,1038,3911,29,42,898,1777,1873,2125,2313,2072,1849,1873,1987
770501,-9396,23500,-9191,23577,454,423,-150,313,-183,243,906,4162,45,42,899,1777,1873,2125,2313,2072,1849,1873,1987
771502,-9336,23564,-9126,23642,661,525,-127,398,-231,482,1136,4211,37,43,901,1777,1873,2125,2313,2072,1849,1873,1987
772503,-9284,23608,-9061,23707,777,800,-108,425,-229,299,693,3896,28,33,899,1777,1873,2125,2313,2072,1849,1873,1987
773504,-9220,23672,-8996,23772,628,552,-79,455,-218,77,771,4121,37,29,897,1761,1857,2089,2273,2016,1802,1832,1938
774505,-9172,23744,-8931,23837,849,443,-64,507,-214,-63,717,4151,27,43,899,1761,1857,2089,2273,2016,1802,1832,1938
775506,-9124,23784,-8866,23902,869,874,-65,563,-234,49,805,3921,40,39,899,1761,1857,2089,2273,2016,1802,1832,1938
776507,-9052,23856,-8801,23967,561,465,-68,602,-248,186,612,3587,41,36,896,1761,1857,2089,2273,2016,1802,1832,1938
777508,-8992,23916,-8736,24032,717,621,-55,585,-261,-170,578,3584,47,36,900,1761,1857,2089,2273,2016,1802,1832,1938
778509,-8932,23988,-8671,24097,723,463,-53,544,-273,-551,493,3634,27,38,899,1761,1857,2089,2273,2016,1802,1832,1938
779510,-8872,24024,-8606,24162,729,948,-33,513,-299,-366,614,3581,30,40,899,1766,1857,2095,2297,1985,1787,1815,1913
780511,-8824,24080,-8541,24227,900,709,-29,474,-300,-230,526,3279,33,38,896,1766,1857,2095,2297,1985,1787,1815,1913
781512,-8756,24140,-8476,24292,646,665,-13,429,-322,-222,770,3571,27,26,897,1766,1857,2095,2297,1985,1787,1815,1913
782513,-8708,24200,-8411,24357,918,671,-7,391,-356,-340,621,3234,30,27,899,1766,1857,2095,2297,1985,1787,1815,1913
783514,-8660,24256,-8346,24422,939,732,5,358,-384,-132,640,3400,25,29,897,1766,1857,2095,2297,1985,1787,1815,1913
784515,-8592,24312,-8281,24487,685,743,20,337,-405,-143,605,3394,28,27,896,1792,1873,2114,2322,1984,1787,1824,1927
785516,-8532,24376,-8216,24552,791,644,39,342,-436,45,631,3490,32,42,897,1792,1873,2114,2322,1984,1787,1824,1927
786517,-8464,24428,-8151,24617,688,810,49,374,-468,295,749,3557,43,35,898,1792,1873,2114,2322,1984,1787,1824,1927
787518,-8408,24460,-8086,24682,849,1100,60,396,-484,212,728,3262,46,33,897,1792,1873,2114,2322,1984,1787,1824,1927
788519,-8344,24516,-8021,24747,750,811,72,412,-501,97,741,3517,42,26,894,1792,1873,2114,2322,1984,1787,1824,1927
789520,-8264,24584,-7956,24812,531,658,98,420,-500,-120,470,3543,49,33,897,1792,1873,2114,2322,1984,1787,1824,1927
790521,-8212,24628,-7891,24877,897,984,136,442,-513,119,552,3828,41,30,899,1803,1886,2113,2306,1995,1788,1835,1944
791522,-8168,24688,-7826,24942,1024,791,189,492,-520,175,461,3509,28,35,895,1803,1886,2113,2306,1995,1788,1835,1944
792523,-8100,24760,-7761,25007,720,632,251,478,-522,63,375,3175,28,41,895,1803,1886,2113,2306,1995,1788,1835,1944
793524,-8044,24824,-7696,25072,881,733,291,420,-492,-482,297,3606,42,48,899,1803,1886,2113,2306,1995,1788,1835,1944
794525,-7980,24880,-7631,25137,783,844,335,358,-459,-683,382,3608,44,35,896,1803,1886,2113,2306,1995,1788,1835,1944
795526,-7924,24952,-7566,25202,894,636,370,314,-441,-460,379,3524,32,35,896,1786,1879,2095,2291,1988,1774,1823,1924
796527,-7872,25012,-7501,25267,959,792,416,255,-423,-340,309,3525,44,34,897,1786,1879,2095,2291,1988,1774,1823,1924
797528,-7820,25072,-7436,25332,975,798,472,193,-385,-559,212,3614,44,46,896,1786,1879,2095,2291,1988,1774,1823,1924
798529,-7740,25128,-7371,25397,608,859,505,133,-358,-690,468,3729,32,41,896,1786,1879,2095,2291,1988,1774,1823,1924
799530,-7692,25180,-7306,25462,1029,925,526,135,-348,-331,473,3743,49,45,898,1786,1879,2095,2291,1988,1774,1823,1924
800531,-7632,25248,-7241,25527,885,722,548,120,-331,-3,542,3486,44,30,894,1786,1879,2095,2291,1988,1774,1823,1924
801532,-7576,25320,-7176,25592,946,664,573,111,-316,-170,402,3914,36,47,897,1800,1892,2110,2317,1962,1753,1810,1908
802533,-7512,25388,-7111,25657,847,710,594,117,-309,-134,401,3809,43,48,895,1800,1892,2110,2317,1962,1753,1810,1908
803534,-7456,25432,-7046,25722,958,1036,617,134,-303,293,379,3740,28,37,897,1800,1892,2110,2317,1962,1753,1810,1908
804536,-7400,25512,-6981,25787,969,567,658,133,-292,410,216,3779,46,35,894,1800,1892,2110,2317,1962,1753,1810,1908
805536,-7328,25564,-6916,25852,761,933,687,98,-272,327,399,3673,34,48,897,1800,1892,2110,2317,1962,1753,1810,1908
806537,-7280,25640,-6851,25917,1082,620,705,85,-246,-38,444,3713,35,39,896,1844,1920,2145,2360,1978,1773,1825,1927
807538,-7232,25704,-6786,25982,1103,771,731,104,-227,-164,327,3957,30,37,895,1844,1920,2145,2360,1978,1773,1825,1927
808539,-7164,25804,-6721,26047,849,278,760,124,-212,266,220,3656,41,46,894,1844,1920,2145,2360,1978,1773,1825,1927
809540,-7104,25856,-6656,26112,955,894,792,93,-186,244,217,3653,34,40,899,1844,1920,2145,2360,1978,1773,1825,1927
810541,-7044,25928,-6591,26177,961,636,822,72,-169,-49,229,3783,32,49,895,1844,1920,2145,2360,1978,1773,1825,1927
811542,-6988,25996,-6526,26242,1023,683,854,96,-157,162,312,3968,48,39,897,1844,1920,2145,2360,1978,1773,1825,1927
812543,-6928,26072,-6461,26307,980,569,895,90,-116,-44,240,3753,36,43,895,1848,1920,2154,2366,2017,1812,1849,1951
813544,-6844,26144,-6396,26372,656,611,942,79,-68,-158,181,3914,50,42,897,1848,1920,2154,2366,2017,1812,1849,1951
814545,-6800,26212,-6331,26437,1182,657,989,104,-32,-49,333,4211,41,45,898,1848,1920,2154,2366,2017,1812,1849,1951
815546,-6736,26276,-6266,26502,933,708,1014,104,28,-282,107,3694,46,40,895,1848,1920,2154,2366,2017,1812,1849,1951
816547,-6692,26336,-6201,26567,1209,764,1057,94,63,-81,279,4138,46,48,896,1848,1920,2154,2366,2017,1812,1849,1951
817548,-6620,26400,-6136,26632,851,716,1057,88,102,-103,465,3939,30,44,894,1819,1899,2136,2344,2034,1821,1857,1956
818549,-6560,26484,-6071,26697,1007,443,1072,59,140,-235,548,3947,43,46,897,1819,1899,2136,2344,2034,1821,1857,1956
819550,-6496,26548,-6006,26762,959,694,1075,73,161,-208,411,4300,40,40,895,1819,1899,2136,2344,2034,1821,1857,1956
820551,-6440,26608,-5941,26827,1070,750,1092,93,200,12,381,4221,44,34,896,1819,1899,2136,2344,2034,1821,1857,1956
821552,-6384,26660,-5876,26892,1081,866,1115,118,243,44,334,4200,25,29,895,1819,1899,2136,2344,2034,1821,1857,1956
822553,-6332,26740,-5811,26957,1147,498,1132,157,285,171,422,4359,44,43,894,1819,1899,2136,2344,2034,1821,1857,1956
823554,-6292,26796,-5746,27022,1328,809,1130,194,320,145,457,4239,42,36,895,1795,1879,2113,2317,2039,1824,1860,1968
824555,-6244,26860,-5681,27087,1249,711,1101,208,333,196,561,4197,29,46,893,1795,1879,2113,2317,2039,1824,1860,1968
825556,-6192,26924,-5616,27152,1215,712,1053,264,333,278,626,4353,37,46,894,1795,1879,2113,2317,2039,1824,1860,1968
826557,-6120,26972,-5551,27217,956,933,1005,291,315,307,396,4154,47,43,894,1795,1879,2113,2317,2039,1824,1860,1968
827558,-6072,27036,-5486,27282,1278,734,981,304,281,224,312,4223,49,43,894,1795,1879,2113,2317,2039,1824,1860,1968
828559,-6008,27100,-5421,27347,1079,735,963,303,277,-158,414,4281,29,46,893,1795,1879,2123,2318,2077,1859,1886,2011
829560,-5928,27164,-5356,27412,861,736,950,323,266,165,211,4391,34,33,895,1795,1879,2123,2318,2077,1859,1886,2011
830561,-5888,27220,-5291,27477,1391,847,920,358,244,494,140,4256,48,36,897,1795,1879,2123,2318,2077,1859,1886,2011
831562,-5840,27268,-5226,27542,1312,968,902,372,227,416,362,4387,40,37,892,1795,1879,2123,2318,2077,1859,1886,2011
832563,-5756,27340,-5161,27607,840,659,872,380,236,-23,170,4311,39,38,892,1795,1879,2123,2318,2077,1859,1886,2011
833564,-5692,27380,-5096,27672,1091,1091,854,384,236,-34,250,4462,32,31,897,1795,1879,2123,2318,2077,1859,1886,2011
834565,-5652,27436,-5031,27737,1422,902,835,374,234,-32,228,4536,43,24,892,1780,1872,2132,2313,2144,1921,1931,2064
835566,-5580,27496,-4966,27802,1013,858,824,361,250,-34,234,4604,43,30,891,1780,1872,2132,2313,2144,1921,1931,2064
836567,-5512,27540,-4901,27867,1060,1084,789,336,272,-54,370,4237,47,37,893,1780,1872,2132,2313,2144,1921,1931,2064
837568,-5472,27588,-4836,27932,1441,1054,749,311,273,-183,481,4228,28,26,893,1780,1872,2132,2313,2144,1921,1931,2064
838569,-5416,27632,-4771,27997,1252,1130,685,302,292,-281,477,4260,44,37,890,1780,1872,2132,2313,2144,1921,1931,2064
839570,-5352,27700,-4706,28062,1153,826,625,282,304,-92,616,4167,34,41,890,1765,1870,2131,2311,2169,1940,1951,2084
840571,-5300,27756,-4641,28127,1320,987,563,277,311,36,576,4392,43,32,893,1765,1870,2131,2311,2169,1940,1951,2084
841572,-5236,27796,-4576,28192,1171,1219,516,291,301,214,606,4472,35,28,891,1765,1870,2131,2311,2169,1940,1951,2084
842573,-5180,27852,-4511,28257,1282,1030,468,299,282,218,668,4358,35,36,891,1765,1870,2131,2311,2169,1940,1951,2084
843574,-5116,27904,-4446,28322,1183,1096,426,311,245,93,787,4554,35,40,891,1765,1870,2131,2311,2169,1940,1951,2084
844575,-5056,27972,-4381,28387,1240,892,372,335,213,82,560,4481,45,45,892,1765,1870,2131,2311,2169,1940,1951,2084
845576,-4988,28040,-4316,28452,1137,888,331,370,168,360,662,4487,35,32,892,1755,1861,2112,2279,2159,1921,1934,2071
846577,-4944,28108,-4251,28517,1462,885,295,379,115,371,589,4445,47,34,893,1755,1861,2112,2279,2159,1921,1934,2071
847578,-4888,28160,-4186,28582,1323,1101,265,386,63,150,383,4577,29,33,891,1755,1861,2112,2279,2159,1921,1934,2071
848579,-4816,28212,-4121,28647,1116,1118,244,374,5,-39,612,4395,40,38,891,1755,1861,2112,2279,2159,1921,1934,2071
849580,-4756,28280,-4056,28712,1272,914,223,353,-50,-141,454,4482,45,39,892,1755,1861,2112,2279,2159,1921,1934,2071
850581,-4720,28356,-3991,28777,1607,800,192,344,-107,19,439,4406,46,39,892,1740,1844,2098,2269,2121,1889,1899,2027
851582,-4648,28432,-3926,28842,1149,787,169,317,-149,83,336,4335,46,52,890,1740,1844,2098,2269,2121,1889,1899,2027
852583,-4580,28496,-3861,28907,1196,938,143,287,-185,-100,343,4329,52,47,894,1740,1844,2098,2269,2121,1889,1899,2027
853584,-4512,28560,-3796,28972,1193,939,118,288,-205,-262,493,4242,35,43,892,1740,1844,2098,2269,2121,1889,1899,2027
854585,-4448,28596,-3731,29037,1244,1326,75,253,-212,-148,665,4062,32,39,893,1740,1844,2098,2269,2121,1889,1899,2027
855586,-4392,28672,-3666,29102,1356,812,31,212,-214,-265,768,4027,33,37,890,1740,1844,2098,2269,2121,1889,1899,2027
856587,-4328,28752,-3601,29167,1257,744,-34,172,-225,-323,689,3759,33,53,892,1764,1869,2124,2315,2073,1860,1883,1997
857588,-4272,28828,-3536,29232,1368,781,-77,186,-223,-167,585,4118,34,49,893,1764,1869,2124,2315,2073,1860,1883,1997
858589,-4192,28884,-3471,29297,1050,1042,-115,198,-221,318,663,4017,51,48,892,1764,1869,2124,2315,2073,1860,1883,1997
859590,-4140,28940,-3406,29362,1416,1053,-128,211,-218,291,524,3957,32,31,893,1764,1869,2124,2315,2073,1860,1883,1997
860591,-4068,29016,-3341,29427,1158,790,-126,221,-212,209,676,3924,32,46,890,1764,1869,2124,2315,2073,1860,1883,1997
861592,-4000,29064,-3276,29492,1204,1161,-127,213,-209,47,626,3776,46,41,894,1791,1891,2140,2334,2064,1856,1882,1992
862593,-3940,29124,-3211,29557,1310,1017,-122,230,-222,243,700,3973,34,46,891,1791,1891,2140,2334,2064,1856,1882,1992
863594,-3892,29184,-3146,29622,1482,1023,-123,234,-249,374,880,3983,40,48,891,1791,1891,2140,2334,2064,1856,1882,1992
864595,-3832,29276,-3081,29687,1338,590,-98,226,-273,290,663,3988,39,43,890,1791,1891,2140,2334,2064,1856,1882,1992
865596,-3768,29324,-3016,29752,1289,1161,-23,199,-284,224,535,4003,37,38,894,1791,1891,2140,2334,2064,1856,1882,1992
866597,-3708,29380,-2951,29817,1347,1072,40,136,-283,3,959,3865,33,48,890,1791,1891,2140,2334,2064,1856,1882,1992
867598,-3644,29452,-2886,29882,1298,864,67,109,-288,-109,1275,4055,37,48,890,1786,1874,2121,2315,2042,1826,1851,1954
868599,-3592,29512,-2821,29947,1464,1021,74,107,-316,-180,1175,4073,48,41,892,1786,1874,2121,2315,2042,1826,1851,1954
869600,-3548,29600,-2756,30012,1589,642,81,119,-352,245,1026,3837,40,43,890,1786,1874,2121,2315,2042,1826,1851,1954
870601,-3488,29680,-2691,30077,1396,724,104,86,-369,200,991,3610,36,59,890,1786,1874,2121,2315,2042,1826,1851,1954
871602,-3436,29732,-2626,30142,1512,1090,140,67,-384,-77,1107,3857,28,46,892,1786,1874,2121,2315,2042,1826,1851,1954
872603,-3376,29812,-2561,30207,1418,722,157,99,-364,0,1055,3751,31,46,889,1805,1891,2133,2337,1988,1778,1816,1916
873604,-3324,29896,-2496,30272,1535,649,174,131,-353,351,1120,3556,30,47,892,1805,1891,2133,2337,1988,1778,1816,1916
874605,-3292,29952,-2431,30337,1826,1010,155,189,-344,383,1041,3776,47,57,891,1805,1891,2133,2337,1988,1778,1816,1916
875606,-3228,30028,-2366,30402,1427,747,137,230,-334,418,939,3597,43,47,887,1805,1891,2133,2337,1988,1778,1816,1916
876607,-3152,30104,-2301,30467,1264,734,151,223,-302,-29,998,3551,34,53,892,1805,1891,2133,2337,1988,1778,1816,1916
877608,-3088,30176,-2236,30532,1416,775,190,197,-283,-50,1109,3623,52,59,893,1805,1891,2133,2337,1988,1778,1816,1916
878609,-3040,30248,-2171,30597,1636,767,208,188,-253,4,828,3525,33,54,892,1833,1913,2151,2358,1972,1774,1810,1912
879610,-2964,30340,-2106,30662,1274,484,234,187,-228,128,930,3855,52,43,890,1833,1913,2151,2358,1972,1774,1810,1912
880611,-2904,30388,-2041,30727,1480,1054,259,193,-186,46,894,3741,45,48,894,1833,1913,2151,2358,1972,1774,1810,1912
881612,-2832,30444,-1976,30792,1321,966,308,193,-155,268,826,3675,50,50,890,1833,1913,2151,2358,1972,1774,1810,1912
882613,-2764,30508,-1911,30857,1369,868,354,167,-113,166,1009,3621,41,40,891,1833,1913,2151,2358,1972,1774,1810,1912
883614,-2712,30592,-1846,30922,1585,594,402,127,-85,-19,937,3672,36,41,891,1814,1892,2141,2343,2001,1801,1830,1938
884615,-2636,30660,-1781,30987,1271,791,438,151,-70,137,971,3807,34,54,891,1814,1892,2141,2343,2001,1801,1830,1938
885616,-2568,30724,-1716,31052,1369,842,485,159,-59,408,1130,3659,44,56,893,1814,1892,2141,2343,2001,1801,1830,1938
886617,-2508,30776,-1651,31117,1475,1008,509,182,-50,361,1137,3897,35,44,891,1814,1892,2141,2343,2001,1801,1830,1938
887618,-2464,30844,-1586,31182,1700,804,555,214,-34,409,1187,3674,31,38,888,1814,1892,2141,2343,2001,1801,1830,1938
888619,-2400,30900,-1521,31247,1452,965,572,226,-31,470,1424,3704,42,43,889,1814,1892,2141,2343,2001,1801,1830,1938
889620,-2340,30972,-1456,31312,1509,758,594,247,-27,189,1230,3679,39,46,890,1803,1882,2131,2335,2023,1817,1844,1947
890621,-2292,31044,-1391,31377,1679,749,599,275,-18,369,1518,3718,43,42,891,1803,1882,2131,2335,2023,1817,1844,1947
891622,-2232,31104,-1326,31442,1536,905,610,294,-25,418,1434,3672,34,51,889,1803,1882,2131,2335,2023,1817,1844,1947
892623,-2160,31168,-1261,31507,1378,856,613,291,-29,221,1398,3731,31,53,890,1803,1882,2131,2335,2023,1817,1844,1947
893624,-2104,31224,-1196,31572,1589,967,627,290,-30,112,1502,3661,29,47,891,1803,1882,2131,2335,2023,1817,1844,1947
894625,-2040,31284,-1131,31637,1491,923,649,273,-40,-75,1366,3766,44,47,889,1797,1875,2123,2327,2027,1820,1844,1950
895626,-1988,31356,-1066,31702,1657,765,668,305,-56,234,1198,4024,31,40,890,1797,1875,2123,2327,2027,1820,1844,1950
896627,-1912,31436,-1001,31767,1344,648,675,382,-25,312,1007,4241,30,51,889,1797,1875,2123,2327,2027,1820,1844,1950
897628,-1868,31480,-936,31832,1770,1123,697,448,-7,322,849,4429,39,39,893,1797,1875,2123,2327,2027,1820,1844,1950
898629,-1816,31520,-871,31897,1686,1204,712,480,25,346,750,4153,28,37,886,1797,1875,2123,2327,2027,1820,1844,1950
899630,-1744,31588,-806,31962,1428,850,723,495,97,297,845,3928,41,48,886,1797,1875,2123,2327,2027,1820,1844,1950
900631,-1676,31648,-741,32027,1475,956,716,459,153,73,784,3866,34,47,891,1793,1881,2142,2337,2031,1826,1847,1959
901632,-1616,31712,-676,32092,1581,907,698,475,186,1,665,4146,54,45,890,1793,1881,2142,2337,2031,1826,1847,1959
902633,-1536,31764,-611,32157,1313,1073,667,504,222,145,944,3898,50,45,889,1793,1881,2142,2337,2031,1826,1847,1959
903634,-1480,31824,-546,32222,1625,979,630,517,265,254,902,3686,51,53,891,1793,1881,2142,2337,2031,1826,1847,1959
904635,-1412,31884,-481,32287,1471,986,585,516,287,398,995,3779,39,46,888,1793,1881,2142,2337,2031,1826,1847,1959
905636,-1324,31952,-416,32352,1193,883,544,518,285,395,1187,3794,53,40,890,1802,1889,2153,2347,2068,1859,1877,1998
906637,-1260,32024,-351,32417,1495,824,505,508,284,326,967,3520,47,39,893,1802,1889,2153,2347,2068,1859,1877,1998
907638,-1204,32096,-286,32482,1606,816,477,530,277,508,892,3757,35,45,891,1802,1889,2153,2347,2068,1859,1877,1998
908639,-1124,32176,-221,32547,1288,697,448,538,284,544,1062,3840,35,37,890,1802,1889,2153,2347,2068,1859,1877,1998
909640,-1064,32212,-156,32612,1545,1283,436,557,279,412,1025,3852,54,37,893,1802,1889,2153,2347,2068,1859,1877,1998
910641,-992,32268,-91,32677,1386,1045,409,588,266,780,1194,4025,38,34,887,1802,1889,2153,2347,2068,1859,1877,1998
911642,-924,32340,-26,32742,1433,836,397,579,267,716,1191,3937,43,40,890,1772,1854,2114,2288,2129,1899,1909,2043
912643,-860,32396,39,32807,1485,1047,388,545,240,266,1183,3618,33,53,891,1772,1854,2114,2288,2129,1899,1909,2043
913644,-792,32460,104,32872,1431,948,384,537,202,131,1107,4021,51,39,889,1772,1854,2114,2288,2129,1899,1909,2043
914645,-724,32528,169,32937,1428,895,376,547,209,494,1047,3945,41,53,890,1772,1854,2114,2288,2129,1899,1909,2043
915646,-648,32584,234,33002,1315,1056,382,538,219,488,1124,3859,52,44,891,1772,1854,2114,2288,2129,1899,1909,2043
916647,-604,32648,299,33067,1741,957,375,547,245,229,1015,3947,54,44,890,1718,1814,2073,2234,2138,1895,1901,2035
917648,-528,32708,364,33132,1327,1014,378,557,285,271,1182,4014,38,41,888,1718,1814,2073,2234,2138,1895,1901,2035
918649,-444,32788,429,33197,1205,746,361,582,332,394,1150,3908,41,55,891,1718,1814,2073,2234,2138,1895,1901,2035
919650,-388,32860,494,33262,1566,837,319,598,381,506,1163,3908,37,43,893,1718,1814,2073,2234,2138,1895,1901,2035
920651,-300,32932,559,33327,1138,829,290,583,404,223,1317,3708,38,50,890,1718,1814,2073,2234,2138,1895,1901,2035
921652,-220,33000,624,33392,1221,875,258,570,443,-539,921,3632,47,47,893,1718,1814,2073,2234,2138,1895,1901,2035
922653,-148,33068,689,33457,1312,871,238,615,477,42,1184,3764,38,49,893,1730,1839,2100,2273,2080,1851,1866,1987
923654,-80,33156,754,33522,1359,594,232,635,485,719,1292,3269,44,47,892,1730,1839,2100,2273,2080,1851,1866,1987
924655,12,33204,819,33587,1027,1115,189,592,491,154,1261,3271,38,51,893,1730,1839,2100,2273,2080,1851,1866,1987
925656,76,33268,884,33652,1378,916,109,575,487,-87,1416,3479,43,41,892,1730,1839,2100,2273,2080,1851,1866,1987
926657,148,33340,949,33717,1269,808,35,518,468,44,855,3099,45,49,891,1730,1839,2100,2273,2080,1851,1866,1987
927658,224,33412,1014,33782,1207,799,0,473,429,-395,1140,3069,37,54,893,1785,1877,2141,2329,2031,1823,1839,1954
928659,300,33492,1079,33847,1193,681,-29,400,368,-109,1607,3252,43,45,894,1785,1877,2141,2329,2031,1823,1839,1954
929660,352,33560,1144,33912,1509,827,-67,323,331,101,1137,3192,45,51,894,1785,1877,2141,2329,2031,1823,1839,1954
930661,424,33628,1209,33977,1252,824,-118,356,331,312,984,3704,36,53,891,1785,1877,2141,2329,2031,1823,1839,1954
931664,496,33692,1274,34042,1243,876,-156,466,334,948,1114,4104,37,57,892,1785,1877,2141,2329,2031,1823,1839,1954
932663,572,33756,1339,34107,1180,877,-151,511,318,962,1474,3426,54,44,892,1780,1859,2115,2287,2037,1829,1846,1974
933664,624,33828,1404,34172,1496,768,-148,496,309,368,1395,3425,52,54,893,1780,1859,2115,2287,2037,1829,1846,1974
934665,708,33912,1469,34237,1073,595,-153,504,326,-71,1067,3757,34,56,891,1780,1859,2115,2287,2037,1829,1846,1974
935666,772,33996,1534,34302,1325,572,-158,583,357,553,1198,4057,47,51,895,1780,1859,2115,2287,2037,1829,1846,1974
936667,840,34064,1599,34367,1271,768,-150,634,371,936,1351,3607,40,51,894,1780,1859,2115,2287,2037,1829,1846,1974
937668,916,34140,1664,34432,1159,655,-126,594,367,163,1504,3586,36,56,893,1780,1859,2115,2287,2037,1829,1846,1974
938669,976,34216,1729,34497,1365,642,-104,541,378,-693,1516,3572,52,45,893,1725,1817,2074,2248,2074,1856,1868,1992
939670,1044,34288,1794,34562,1261,684,-81,504,400,-530,1438,3523,33,42,893,1725,1817,2074,2248,2074,1856,1868,1992
940671,1104,34376,1859,34627,1367,456,-90,497,418,-4,1407,3892,39,52,893,1725,1817,2074,2248,2074,1856,1868,1992
941672,1180,34452,1924,34692,1155,592,-108,490,417,26,1674,3571,53,46,894,1725,1817,2074,2248,2074,1856,1868,1992
942673,1268,34524,1989,34757,977,634,-134,437,401,-449,1704,3283,38,61,895,1725,1817,2074,2248,2074,1856,1868,1992
943674,1336,34596,2054,34822,1223,625,-155,363,363,-717,1556,3403,49,56,896,1734,1834,2095,2283,2070,1851,1867,1985
944675,1396,34680,2119,34887,1330,452,-180,348,347,-437,1534,3435,41,49,894,1734,1834,2095,2283,2070,1851,1867,1985
945676,1476,34760,2184,34952,1062,484,-218,363,331,17,1441,3501,55,57,894,1734,1834,2095,2283,2070,1851,1867,1985
946677,1552,34840,2249,35017,1098,466,-256,417,305,380,1480,3557,38,42,896,1734,1834,2095,2283,2070,1851,1867,1985
947678,1632,34896,2314,35082,1030,777,-272,461,249,337,1935,3603,54,52,896,1734,1834,2095,2283,2070,1851,1867,1985
948679,1696,34960,2379,35147,1232,678,-292,486,210,-92,1500,3352,39,52,895,1734,1834,2095,2283,2070,1851,1867,1985
949680,1768,35024,2578,35346,1287,843,-320,562,204,-27,1240,3983,49,43,894,1778,1874,2137,2316,2053,1838,1851,1977
950681,1844,35092,2643,35411,1224,789,-345,657,191,566,1194,4006,53,49,893,1778,1874,2137,2316,2053,1838,1851,1977
951682,1916,35160,2708,35476,1265,786,-350,716,178,587,1152,3617,44,49,893,1778,1874,2137,2316,2053,1838,1851,1977
952683,1996,35236,2773,35541,1148,673,-345,747,158,332,1242,3615,47,51,893,1778,1874,2137,2316,2053,1838,1851,1977
953684,2080,35300,2838,35606,1075,824,-369,752,140,-73,1264,3777,47,54,895,1778,1874,2137,2316,2053,1838,1851,1977
954685,2140,35400,2903,35671,1381,331,-383,778,132,-85,1065,3679,43,45,894,1782,1866,2139,2315,2039,1838,1842,1960
955686,2244,35472,2968,35736,784,673,-399,808,143,210,1022,3829,53,48,894,1782,1866,2139,2315,2039,1838,1842,1960
956687,2332,35540,3033,35801,956,719,-403,809,153,266,1422,3801,47,53,898,1782,1866,2139,2315,2039,1838,1842,1960
957688,2384,35628,3098,35866,1422,441,-401,717,144,-394,1565,3475,53,44,896,1782,1866,2139,2315,2039,1838,1842,1960
958689,2472,35704,3163,35931,944,578,-408,652,144,-741,1343,3667,55,55,894,1782,1866,2139,2315,2039,1838,1842,1960
959690,2556,35792,3228,35996,972,400,-441,641,142,-118,1492,3923,62,49,897,1782,1866,2139,2315,2039,1838,1842,1960
960691,2636,35860,3293,36061,1004,646,-455,620,125,131,1743,3527,50,54,897,1760,1841,2109,2302,2046,1846,1857,1967
961692,2720,35936,3358,36126,930,533,-468,589,90,-131,1916,3439,48,47,896,1760,1841,2109,2302,2046,1846,1857,1967
962693,2800,35992,3423,36191,962,794,-477,582,80,-460,1751,3851,42,55,897,1760,1841,2109,2302,2046,1846,1857,1967
963694,2896,36088,3488,36256,725,257,-503,636,81,18,1786,3969,41,46,895,1760,1841,2109,2302,2046,1846,1857,1967
964695,2980,36148,3553,36321,852,713,-512,681,59,387,1972,3690,44,46,899,1760,1841,2109,2302,2046,1846,1857,1967
965696,3056,36236,3618,36386,939,335,-514,713,30,222,1747,3691,45,57,897,1754,1844,2100,2284,2071,1853,1874,2001
966697,3136,36312,3683,36451,870,471,-516,777,4,217,1746,4239,45,54,898,1754,1844,2100,2284,2071,1853,1874,2001
967698,3204,36380,3748,36516,1018,568,-527,811,-28,203,1583,3691,38,48,898,1754,1844,2100,2284,2071,1853,1874,2001
968699,3276,36456,3813,36581,959,454,-508,837,-70,60,1529,3704,54,56,896,1754,1844,2100,2284,2071,1853,1874,2001
969700,3372,36548,3878,36646,621,221,-490,868,-104,48,1279,3823,38,56,898,1754,1844,2100,2284,2071,1853,1874,2001
970701,3452,36608,3943,36711,803,627,-473,895,-141,-15,1294,3920,45,60,901,1754,1844,2100,2284,2071,1853,1874,2001
971702,3524,36688,4008,36776,894,359,-464,880,-174,-162,1183,3680,37,44,898,1761,1861,2122,2295,2070,1847,1859,1987
972703,3612,36764,4073,36841,667,395,-461,832,-200,-313,1100,3677,46,59,897,1761,1861,2122,2295,2070,1847,1859,1987
973704,3668,36848,4138,36906,1078,272,-465,760,-211,-514,1066,3782,50,46,900,1761,1861,2122,2295,2070,1847,1859,1987
974705,3760,36940,4203,36971,595,139,-478,685,-240,-397,1228,3481,53,45,897,1761,1861,2122,2295,2070,1847,1859,1987
975706,3840,37016,4268,37036,727,326,-493,619,-263,-505,1170,3772,36,60,901,1761,1861,2122,2295,2070,1847,1859,1987
976707,3908,37084,4333,37101,873,422,-524,570,-270,-364,1164,3677,38,55,899,1788,1886,2149,2330,2025,1816,1840,1961
977708,3988,37168,4398,37166,705,199,-558,532,-271,-324,1300,3701,37,43,898,1788,1886,2149,2330,2025,1816,1840,1961
978709,4072,37252,4463,37231,633,176,-597,492,-279,-137,1323,3512,52,59,900,1788,1886,2149,2330,2025,1816,1840,1961
979710,4140,37332,4528,37296,829,208,-636,457,-290,-147,1308,3537,47,43,901,1788,1886,2149,2330,2025,1816,1840,1961
980711,4208,37416,4593,37361,825,134,-678,444,-304,-71,1405,3751,51,51,899,1788,1886,2149,2330,2025,1816,1840,1961
981713,4284,37476,4658,37426,712,440,-719,433,-327,110,1373,3529,52,46,900,1788,1886,2149,2330,2025,1816,1840,1961
982713,4368,37552,4723,37491,589,227,-750,423,-360,175,1415,3659,50,50,899,1804,1894,2138,2316,2028,1821,1857,1986
983714,4432,37620,4788,37556,840,323,-769,420,-395,139,1424,3888,38,50,901,1804,1894,2138,2316,2028,1821,1857,1986
984715,4500,37676,4853,37621,786,484,-764,422,-419,139,1407,3646,45,40,899,1804,1894,2138,2316,2028,1821,1857,1986
985716,4612,37760,4918,37686,179,111,-754,397,-460,-40,1368,3860,52,49,898,1804,1894,2138,2316,2028,1821,1857,1986
986717,4676,37824,4983,37751,781,362,-736,359,-501,-278,1228,3575,35,52,903,1804,1894,2138,2316,2028,1821,1857,1986
987718,4740,37900,5048,37816,782,199,-715,310,-536,-409,1313,3817,36,48,899,1756,1848,2089,2254,2073,1851,1877,2007
988719,4824,37964,5113,37881,509,350,-684,258,-576,-288,1121,3661,41,43,900,1756,1848,2089,2254,2073,1851,1877,2007
989720,4896,38040,5178,37946,651,187,-664,207,-606,-457,1028,3734,43,48,900,1756,1848,2089,2254,2073,1851,1877,2007
990721,4960,38112,5243,38011,752,228,-653,144,-641,-652,1134,3686,43,49,901,1756,1848,2089,2254,2073,1851,1877,2007
991722,5060,38184,5308,38076,259,220,-640,70,-675,-767,1150,3280,49,42,900,1756,1848,2089,2254,2073,1851,1877,2007
992723,5132,38264,5373,38141,601,101,-651,-19,-711,-1005,1024,3460,45,43,903,1756,1848,2089,2254,2073,1851,1877,2007
993724,5220,38340,5438,38206,373,138,-653,-41,-749,-653,983,3572,41,44,901,1734,1835,2084,2258,2061,1835,1860,1986
994725,5312,38412,5503,38271,290,179,-670,-97,-772,-414,1102,3174,47,46,902,1734,1835,2084,2258,2061,1835,1860,1986
995726,5388,38488,5568,38336,476,116,-694,-135,-794,-733,808,3292,38,53,903,1734,1835,2084,2258,2061,1835,1860,1986
996727,5468,38588,5633,38401,409,-227,-731,-150,-802,-758,871,3264,40,51,902,1734,1835,2084,2258,2061,1835,1860,1986
997728,5536,38660,5698,38466,555,114,-773,-158,-813,-245,943,3517,46,46,902,1734,1835,2084,2258,2061,1835,1860,1986
998729,5608,38756,5763,38531,497,-224,-810,-161,-829,-278,877,3335,50,51,901,1765,1866,2107,2287,2018,1802,1838,1960
999730,5700,38820,5828,38596,214,177,-861,-181,-832,-343,849,3249,32,43,902,1765,1866,2107,2287,2018,1802,1838,1960
1000731,5760,38884,5893,38661,620,178,-900,-178,-849,-368,827,3554,51,41,903,1765,1866,2107,2287,2018,1802,1838,1960
1001732,5848,38956,5958,38726,242,70,-928,-204,-875,-274,852,3142,45,39,901,1765,1866,2107,2287,2018,1802,1838,1960
1002733,5908,39008,6023,38791,598,336,-944,-214,-895,-299,906,3543,50,44,903,1765,1866,2107,2287,2018,1802,1838,1960
1003734,6000,39060,6088,38856,165,351,-955,-201,-913,-254,728,3365,32,50,901,1765,1866,2107,2287,2018,1802,1838,1960
1004735,6072,39108,6153,38921,406,422,-962,-220,-938,-265,762,3327,33,53,902,1770,1857,2097,2272,2017,1807,1838,1962
1005736,6152,39176,6218,38986,288,169,-975,-226,-965,-353,762,3375,44,40,901,1770,1857,2097,2272,2017,1807,1838,1962
1006737,6220,39264,6283,39051,434,-110,-988,-270,-999,-478,698,2968,50,50,902,1770,1857,2097,2272,2017,1807,1838,1962
1007738,6296,39336,6348,39116,321,82,-1001,-310,-1025,-534,681,3492,50,51,902,1770,1857,2097,2272,2017,1807,1838,1962
1008739,6372,39440,6413,39181,308,-366,-1004,-340,-1063,-506,650,3329,39,41,903,1770,1857,2097,2272,2017,1807,1838,1962
1009740,6448,39508,6478,39246,294,80,-997,-368,-1100,-424,642,2996,30,49,902,1736,1820,2064,2240,2044,1826,1851,1972
1010741,6532,39592,6543,39311,171,-144,-998,-359,-1130,-584,639,3225,47,37,903,1736,1820,2064,2240,2044,1826,1851,1972
1011742,6596,39636,6608,39376,422,382,-1001,-371,-1150,-378,739,3101,48,49,903,1736,1820,2064,2240,2044,1826,1851,1972
1012743,6680,39728,6673,39441,149,-251,-1009,-367,-1158,-482,803,3124,43,37,901,1736,1820,2064,2240,2044,1826,1851,1972
1013744,6764,39796,6738,39506,126,45,-1008,-367,-1172,-486,748,2823,41,43,903,1736,1820,2064,2240,2044,1826,1851,1972
1014745,6844,39872,6803,39571,157,-68,-1019,-381,-1175,-562,713,3130,41,45,904,1736,1820,2064,2240,2044,1826,1851,1972
1015746,6924,39916,6868,39636,139,358,-1029,-385,-1165,-514,721,2994,47,49,903,1718,1807,2046,2229,2040,1819,1845,1959
1016747,6996,39992,6933,39701,231,-56,-1029,-386,-1155,-432,596,3037,45,42,903,1718,1807,2046,2229,2040,1819,1845,1959
1017748,7084,40060,6998,39766,3,41,-1026,-382,-1152,-454,667,3020,44,37,903,1718,1807,2046,2229,2040,1819,1845,1959
1018749,7160,40124,7063,39831,139,91,-1038,-375,-1161,-390,555,2931,32,39,904,1718,1807,2046,2229,2040,1819,1845,1959
1019750,7236,40216,7128,39896,126,-292,-1049,-370,-1170,-330,461,2868,31,39,903,1718,1807,2046,2229,2040,1819,1845,1959
1020751,7328,40288,7193,39961,-107,-51,-1061,-377,-1171,-332,371,3099,39,47,903,1723,1813,2050,2236,1999,1784,1815,1926
1021752,7408,40368,7258,40026,24,-169,-1074,-359,-1179,-198,302,3063,42,51,901,1723,1813,2050,2236,1999,1784,1815,1926
1022753,7496,40404,7323,40091,-104,416,-1089,-323,-1186,-111,295,3207,35,44,904,1723,1813,2050,2236,1999,1784,1815,1926
1023754,7576,40472,7388,40156,-22,13,-1099,-276,-1188,-22,263,3108,30,44,899,1723,1813,2050,2236,1999,1784,1815,1926
1024755,7656,40536,7453,40221,-40,64,-1115,-250,-1191,-6,270,3035,33,47,904,1723,1813,2050,2236,1999,1784,1815,1926
1025756,7744,40604,7518,40286,-168,10,-1124,-236,-1198,-146,339,3041,32,35,904,1723,1813,2050,2236,1999,1784,1815,1926
