%  Data file recorded 2016/9/4  19:11:34
%  Stride Frequency         = [1, 1]
%  Lead In /Lead Out        = 
%  Deltas (Fractional)      = [0.25, 0.25, 0.25],[0.25, 0.25, 0.25]
%  Phase                    = 32768
%  Experiment.py 
%  Motor Gains    = [5000, 400, 200, 0, 300, 5000, 400, 200, 0, 300]
% Columns: 
% time | Right Leg Pos | Left Leg Pos | Commanded Right Leg Pos | Commanded Left Leg Pos | DCR | DCL | GyroX | GyroY | GyroZ | AX | AY | AZ | RBEMF | LBEMF | VBatt | S1 | S2 | S3 | S4 | S5 | S6 | S7 | S8
90,-43952,-15076,-45894,-13126,1043,3800,-15,-23,0,38,76,3925,-9,7,913,1809,1891,2115,2291,2059,1843,1890,2002
1091,-43944,-15076,-45894,-13126,982,3800,-17,-20,1,33,19,3919,-8,1,914,1809,1891,2115,2291,2059,1843,1890,2002
2092,-43964,-15072,-45894,-13126,1356,3800,-17,-20,1,8,45,3914,-2,-5,914,1809,1891,2115,2291,2059,1843,1890,2002
3093,-43952,-15076,-45894,-13126,941,3800,-16,-20,3,29,56,3922,4,6,913,1809,1891,2115,2291,2059,1843,1890,2002
4094,-43960,-15080,-45894,-13126,1200,3800,-17,-20,5,29,53,3930,9,-7,913,1809,1891,2115,2291,2059,1843,1890,2002
5095,-43956,-15076,-45894,-13126,1044,3800,-17,-19,6,15,65,3942,10,5,913,1811,1893,2117,2292,2060,1843,1890,2003
6096,-43964,-15064,-45894,-13126,1204,3800,-17,-21,3,26,66,3920,9,-2,913,1811,1893,2117,2292,2060,1843,1890,2003
7097,-43964,-15076,-45894,-13126,1103,3800,-17,-23,1,24,62,3944,6,-7,913,1811,1893,2117,2292,2060,1843,1890,2003
8098,-43952,-15064,-45894,-13126,937,3800,-16,-19,2,19,60,3915,-7,7,913,1811,1893,2117,2292,2060,1843,1890,2003
9099,-43952,-15080,-45894,-13126,1086,3800,-17,-16,1,16,68,3939,-10,-5,913,1811,1893,2117,2292,2060,1843,1890,2003
10100,-43948,-15068,-45894,-13126,1031,3800,-17,-16,1,7,56,3924,-6,-4,913,1811,1893,2117,2292,2060,1843,1890,2003
11101,-43964,-15076,-45894,-13126,1300,3800,-17,-20,4,32,55,3923,2,4,914,1808,1891,2115,2291,2060,1843,1891,2003
12102,-43948,-15068,-45894,-13126,879,3800,-16,-21,3,27,59,3933,5,-5,914,1808,1891,2115,2291,2060,1843,1891,2003
13103,-43960,-15064,-45894,-13126,1243,3800,-15,-21,0,31,50,3973,10,7,914,1808,1891,2115,2291,2060,1843,1891,2003
14104,-43940,-15072,-45894,-13126,818,3800,-15,-20,1,14,65,3944,6,-7,914,1808,1891,2115,2291,2060,1843,1891,2003
15105,-43948,-15072,-45894,-13126,1177,3800,-18,-20,0,28,77,3902,-5,7,914,1808,1891,2115,2291,2060,1843,1891,2003
16106,-43956,-15072,-45894,-13126,1186,3800,-19,-18,-3,16,96,3919,-9,-4,913,1809,1892,2115,2291,2059,1843,1890,2003
17107,-43944,-15080,-45894,-13126,920,3800,-19,-19,1,5,83,3917,5,4,914,1809,1892,2115,2291,2059,1843,1890,2003
18108,-43956,-15068,-45894,-13126,1235,3800,-20,-20,3,30,72,3924,9,0,914,1809,1892,2115,2291,2059,1843,1890,2003
19109,-43948,-15072,-45894,-13126,974,3800,-18,-19,3,19,85,3954,-9,-7,912,1809,1892,2115,2291,2059,1843,1890,2003
20110,-43960,-15084,-45894,-13126,1238,3800,-19,-18,4,19,81,3949,-3,7,914,1809,1892,2115,2291,2059,1843,1890,2003
21111,-43960,-15064,-45894,-13126,1087,3800,-21,-20,2,19,63,3944,5,-7,913,1809,1892,2115,2291,2059,1843,1890,2003
22112,-43952,-15080,-45894,-13126,977,3800,-19,-19,3,8,53,3948,8,-5,913,1809,1892,2117,2291,2060,1843,1891,2004
23113,-43940,-15072,-45894,-13126,911,3800,-18,-17,0,7,74,3929,-2,7,913,1809,1892,2117,2291,2060,1843,1891,2004
24114,-43956,-15080,-45894,-13126,1280,3800,-17,-17,-1,14,72,3925,-9,2,913,1809,1892,2117,2291,2060,1843,1891,2004
25115,-43952,-15076,-45894,-13126,1024,3800,-18,-18,1,34,50,3922,-10,-4,913,1809,1892,2117,2291,2060,1843,1891,2004
26116,-43972,-15068,-45894,-13126,1348,3800,-19,-17,2,39,57,3919,-7,-4,914,1809,1892,2117,2291,2060,1843,1891,2004
27117,-43952,-15068,-45894,-13126,823,3800,-19,-19,2,27,44,3909,-6,7,914,1809,1892,2117,2291,2060,1844,1891,2004
28118,-43956,-15080,-45894,-13126,1127,3800,-20,-19,3,26,47,3913,4,4,913,1809,1892,2117,2291,2060,1844,1891,2004
29119,-43944,-15068,-45894,-13126,911,3800,-19,-18,3,6,59,3946,9,-5,913,1809,1892,2117,2291,2060,1844,1891,2004
30120,-43948,-15076,-45894,-13126,1116,3800,-17,-18,4,29,65,3907,7,-6,913,1809,1892,2117,2291,2060,1844,1891,2004
31121,-43936,-15072,-45894,-13126,900,3800,-17,-18,4,44,63,3931,9,-4,913,1809,1892,2117,2291,2060,1844,1891,2004
32122,-43964,-15080,-45894,-13126,1434,3800,-19,-19,1,26,77,3941,0,6,913,1809,1892,2117,2291,2060,1844,1891,2004
33123,-43968,-15076,-45894,-13126,1137,3800,-18,-18,-1,19,69,3940,-4,6,913,1808,1892,2116,2291,2059,1843,1889,2002
34124,-43956,-15072,-45894,-13126,923,3800,-18,-16,1,42,41,3935,-9,2,913,1808,1892,2116,2291,2059,1843,1889,2002
35125,-43960,-15084,-45894,-13126,1127,3800,-20,-15,2,45,29,3910,-4,-7,913,1808,1892,2116,2291,2059,1843,1889,2002
36126,-43956,-15080,-45894,-13126,1021,3800,-21,-17,2,27,65,3924,-5,3,913,1808,1892,2116,2291,2059,1843,1889,2002
37127,-43948,-15060,-45894,-13126,960,3800,-20,-18,0,35,56,3918,2,6,912,1808,1892,2116,2291,2059,1843,1889,2002
38128,-43960,-15064,-45894,-13126,1225,3800,-20,-17,1,39,59,3924,9,6,914,1809,1892,2116,2291,2060,1843,1891,2004
39129,-43964,-15072,-45894,-13126,1129,3800,-21,-16,1,37,50,3898,10,-6,913,1809,1892,2116,2291,2060,1843,1891,2004
40130,-43968,-15076,-45894,-13126,1132,3800,-23,-16,0,43,46,3920,7,-7,913,1809,1892,2116,2291,2060,1843,1891,2004
41131,-43960,-15064,-45894,-13126,973,3800,-25,-16,3,12,48,3936,-2,3,913,1809,1892,2116,2291,2060,1843,1891,2004
42132,-43960,-15072,-45894,-13126,1072,3800,-23,-14,2,21,57,3930,-8,5,913,1809,1892,2116,2291,2060,1843,1891,2004
43133,-43952,-15084,-45894,-13126,961,3800,-20,-15,2,21,51,3966,-9,-2,913,1809,1892,2116,2291,2060,1843,1891,2004
44134,-43944,-15068,-45894,-13126,950,3800,-18,-17,0,43,68,3932,-1,-7,913,1810,1893,2115,2287,2058,1843,1891,2005
45135,-43956,-15072,-45894,-13126,1215,3800,-19,-19,-3,31,60,3912,4,6,913,1810,1893,2115,2287,2058,1843,1891,2005
46136,-43952,-15068,-45894,-13126,1009,3800,-19,-19,-1,35,73,3905,3,7,913,1810,1893,2115,2287,2058,1843,1891,2005
47137,-43956,-15080,-45894,-13126,1113,3800,-20,-17,-1,27,62,3920,-6,-5,913,1810,1893,2115,2287,2058,1843,1891,2005
48138,-43968,-15072,-45894,-13126,1226,3800,-20,-18,1,2,72,3886,-10,-1,913,1810,1893,2115,2287,2058,1843,1891,2005
49139,-43956,-15076,-45894,-13126,912,3800,-16,-20,3,28,70,3891,-3,5,913,1809,1892,2116,2292,2059,1843,1890,2002
50140,-43948,-15068,-45894,-13126,951,3800,-18,-20,1,37,79,3898,9,2,914,1809,1892,2116,2292,2059,1843,1890,2002
51141,-43964,-15072,-45894,-13126,1270,3800,-23,-19,0,39,92,3918,2,-7,914,1809,1892,2116,2292,2059,1843,1890,2002
52142,-43948,-15072,-45894,-13126,849,3800,-21,-17,2,33,70,3933,-9,0,913,1809,1892,2116,2292,2059,1843,1890,2002
53143,-43952,-15072,-45894,-13126,1104,3800,-19,-17,3,33,70,3936,8,0,913,1809,1892,2116,2292,2059,1843,1890,2002
54146,-43960,-15080,-45894,-13126,1163,3800,-17,-21,2,30,82,3942,9,-5,912,1809,1892,2116,2292,2059,1843,1890,2002
55145,-43956,-15076,-45894,-13126,1007,3800,-19,-20,4,20,57,3955,-3,0,913,1807,1892,2118,2292,2061,1844,1892,2004
56146,-43944,-15072,-45894,-13126,891,3800,-18,-21,3,41,54,3922,-8,6,914,1807,1892,2118,2292,2061,1844,1892,2004
57147,-43944,-15076,-45894,-13126,1041,3800,-18,-16,1,24,40,3915,-3,-3,913,1807,1892,2118,2292,2061,1844,1892,2004
58148,-43960,-15084,-45894,-13126,1260,3800,-19,-15,0,-2,39,3935,10,-6,913,1807,1892,2118,2292,2061,1844,1892,2004
59149,-43964,-15080,-45894,-13126,1114,3800,-21,-18,-1,40,54,3924,0,-3,913,1807,1892,2118,2292,2061,1844,1892,2004
60150,-43948,-15072,-45894,-13126,843,3800,-19,-20,1,49,52,3940,-2,6,914,1809,1892,2116,2290,2058,1842,1890,2003
61151,-43960,-15080,-45894,-13126,1208,3800,-20,-19,2,36,55,3968,-10,7,913,1809,1892,2116,2290,2058,1842,1890,2003
62152,-43952,-15064,-45894,-13126,947,3800,-20,-19,3,26,45,3929,-1,-1,913,1809,1892,2116,2290,2058,1842,1890,2003
63153,-43948,-15068,-45894,-13126,991,3800,-19,-17,4,43,54,3919,8,-7,913,1809,1892,2116,2290,2058,1842,1890,2003
64154,-43944,-15068,-45894,-13126,985,3800,-17,-17,4,28,65,3929,8,-2,914,1809,1892,2116,2290,2058,1842,1890,2003
65155,-43960,-15072,-45894,-13126,1255,3800,-16,-20,2,34,50,3916,-7,7,914,1809,1892,2116,2290,2058,1842,1890,2003
66156,-43968,-15064,-45894,-13126,1163,3800,-16,-20,2,26,33,3908,-6,-6,913,1812,1894,2118,2292,2060,1844,1892,2004
67157,-43960,-15068,-45894,-13126,953,3800,-17,-20,2,16,47,3937,-3,-5,914,1812,1894,2118,2292,2060,1844,1892,2004
68158,-43952,-15072,-45894,-13126,942,3800,-16,-19,2,27,73,3930,9,7,913,1812,1894,2118,2292,2060,1844,1892,2004
69159,-43964,-15072,-45894,-13126,1207,3800,-19,-18,2,30,76,3927,0,-7,913,1812,1894,2118,2292,2060,1844,1892,2004
70160,-43960,-15072,-45894,-13126,1001,3800,-17,-18,2,23,50,3931,-9,4,912,1812,1894,2118,2292,2060,1844,1892,2004
71161,-43944,-15064,-45894,-13126,830,3800,-15,-18,2,42,53,3931,4,-5,913,1809,1892,2117,2291,2059,1842,1891,2003
72162,-43968,-15072,-45894,-13126,1359,3800,-18,-19,0,33,62,3943,4,2,913,1809,1892,2117,2291,2059,1842,1891,2003
73163,-43968,-15080,-45894,-13126,1058,3800,-18,-19,0,23,70,3946,9,6,914,1809,1892,2117,2291,2059,1842,1891,2003
74164,-43944,-15076,-45894,-13126,728,3800,-15,-19,3,45,62,3951,2,-7,914,1809,1892,2117,2291,2059,1842,1891,2003
75165,-43940,-15060,-45894,-13126,972,3800,-17,-17,4,41,73,3939,-5,5,913,1809,1892,2117,2291,2059,1842,1891,2003
76166,-43948,-15080,-45894,-13126,1132,3800,-19,-17,3,33,54,3916,-8,4,913,1809,1892,2117,2291,2059,1842,1891,2003
77167,-43956,-15084,-45894,-13126,1141,3800,-21,-19,1,9,40,3927,-8,-6,913,1809,1892,2116,2290,2059,1843,1891,2002
78168,-43952,-15068,-45894,-13126,985,3800,-19,-19,1,39,54,3930,-3,7,913,1809,1892,2116,2290,2059,1843,1891,2002
79169,-43952,-15068,-45894,-13126,1034,3800,-17,-20,4,33,56,3927,6,-3,913,1809,1892,2116,2290,2059,1843,1891,2002
80170,-43948,-15068,-45894,-13126,979,3800,-16,-19,2,16,46,3941,10,-2,913,1809,1892,2116,2290,2059,1843,1891,2002
81171,-43960,-15064,-45894,-13126,1193,3800,-14,-17,1,18,49,3926,9,5,913,1809,1892,2116,2290,2059,1843,1891,2002
82172,-43960,-15084,-45894,-13126,1042,3800,-16,-18,2,20,72,3927,9,-5,913,1808,1891,2115,2289,2059,1843,1890,2003
83173,-43956,-15080,-45894,-13126,986,3800,-18,-18,3,38,69,3915,-2,2,913,1808,1891,2115,2289,2059,1843,1890,2003
84174,-43964,-15080,-45894,-13126,1146,3800,-17,-19,3,26,73,3908,-6,0,914,1808,1891,2115,2289,2059,1843,1890,2003
85175,-43940,-15076,-45894,-13126,715,3800,-16,-21,2,24,51,3934,-10,-7,913,1808,1891,2115,2289,2059,1843,1890,2003
86176,-43948,-15068,-45894,-13126,1124,3800,-15,-20,3,-4,67,3935,-10,6,913,1808,1891,2115,2289,2059,1843,1890,2003
87177,-43948,-15076,-45894,-13126,1023,3800,-18,-18,1,17,50,3891,-9,-7,913,1808,1891,2115,2289,2059,1843,1890,2003
88178,-43944,-15072,-45894,-13126,968,3800,-20,-16,0,13,75,3915,-10,-5,913,1808,1892,2116,2290,2059,1843,1891,2003
89179,-43948,-15068,-45894,-13126,1072,3800,-18,-19,1,1,56,3924,-9,7,914,1808,1892,2116,2290,2059,1843,1891,2003
90180,-43952,-15088,-45894,-13126,1076,3800,-17,-20,2,-6,66,3915,-8,0,913,1808,1892,2116,2290,2059,1843,1891,2003
91181,-43956,-15064,-45894,-13126,1080,3800,-17,-20,4,17,72,3931,-8,-7,913,1808,1892,2116,2290,2059,1843,1891,2003
92182,-43964,-15080,-45894,-13126,1140,3800,-16,-20,3,32,54,3925,3,1,913,1808,1892,2116,2290,2059,1843,1891,2003
93183,-43960,-15068,-45894,-13126,984,3800,-16,-19,3,32,59,3945,7,5,913,1809,1892,2116,2290,2060,1844,1891,2003
94184,-43952,-15076,-45894,-13126,923,3800,-18,-18,3,38,54,3957,9,-4,913,1809,1892,2116,2290,2060,1844,1891,2003
95185,-43956,-15084,-45894,-13126,1077,3800,-19,-19,4,32,64,3939,3,-4,913,1809,1892,2116,2290,2060,1844,1891,2003
96186,-43952,-15072,-45894,-13126,972,3800,-20,-21,2,6,50,3937,2,6,913,1809,1892,2116,2290,2060,1844,1891,2003
97187,-43956,-15076,-45894,-13126,1076,3800,-19,-20,0,-5,71,3958,-7,7,913,1809,1892,2116,2290,2060,1844,1891,2003
98188,-43956,-15076,-45894,-13126,1025,3800,-16,-20,0,16,86,3963,-8,0,914,1809,1892,2116,2290,2060,1844,1891,2003
99189,-43960,-15080,-45894,-13126,1079,3800,-17,-20,1,4,60,3935,-7,-7,913,1808,1891,2116,2290,2059,1843,1891,2003
100190,-43968,-15068,-45894,-13126,1138,3800,-20,-21,3,26,39,3963,2,-6,913,1808,1891,2116,2290,2059,1843,1891,2003
101191,-43952,-15068,-45894,-13126,818,3800,-19,-20,2,9,50,3952,9,6,913,1808,1891,2116,2290,2059,1843,1891,2003
102194,-43960,-15080,-45894,-13126,1127,3800,-16,-18,1,28,42,3938,7,3,913,1808,1891,2116,2290,2059,1843,1891,2003
103193,-43952,-15072,-45894,-13126,916,3800,-15,-18,0,55,74,3917,8,-5,913,1808,1891,2116,2290,2059,1843,1891,2003
104194,-43952,-15068,-45894,-13126,1016,3800,-14,-20,1,16,91,3916,-4,-1,913,1809,1892,2117,2291,2059,1843,1891,2003
105195,-43948,-15072,-45894,-13126,960,3800,-18,-19,1,-3,64,3918,-4,7,913,1809,1892,2117,2291,2059,1843,1891,2003
106196,-43964,-15084,-45894,-13126,1229,3800,-22,-18,4,20,47,3927,-9,7,913,1809,1892,2117,2291,2059,1843,1891,2003
107197,-43948,-15060,-45894,-13126,809,3800,-24,-19,2,30,56,3971,-7,-2,913,1809,1892,2117,2291,2059,1843,1891,2003
108198,-43940,-15080,-45894,-13126,898,3800,-24,-21,3,21,67,3955,-8,-7,913,1809,1892,2117,2291,2059,1843,1891,2003
109199,-43960,-15076,-45894,-13126,1272,3800,-19,-19,3,41,83,3952,-6,-3,914,1809,1892,2117,2291,2059,1843,1891,2003
110200,-43952,-15084,-45894,-13126,911,3800,-17,-19,0,55,83,3936,1,7,913,1809,1893,2117,2291,2060,1844,1891,2003
111201,-43960,-15084,-45894,-13126,1121,3800,-19,-17,-2,35,69,3911,-7,-1,913,1809,1893,2117,2291,2060,1844,1891,2003
112202,-43956,-15072,-45894,-13126,965,3800,-21,-16,0,37,80,3938,-4,-7,913,1809,1893,2117,2291,2060,1844,1891,2003
113203,-43956,-15072,-45894,-13126,1014,3800,-23,-19,0,41,81,3933,2,-2,913,1809,1893,2117,2291,2060,1844,1891,2003
114204,-43948,-15068,-45894,-13126,903,3800,-22,-21,0,38,66,3961,0,6,913,1809,1893,2117,2291,2060,1844,1891,2003
115205,-43956,-15068,-45894,-13126,1113,3800,-19,-21,1,28,49,3960,7,7,913,1809,1892,2116,2291,2060,1844,1892,2004
116206,-43960,-15076,-45894,-13126,1067,3800,-20,-18,0,12,66,3929,8,0,913,1809,1892,2116,2291,2060,1844,1892,2004
117207,-43944,-15072,-45894,-13126,796,3800,-23,-17,2,14,46,3909,9,-7,913,1809,1892,2116,2291,2060,1844,1892,2004
118208,-43960,-15080,-45894,-13126,1215,3800,-21,-18,1,26,40,3949,10,-4,913,1809,1892,2116,2291,2060,1844,1892,2004
119209,-43960,-15068,-45894,-13126,1015,3800,-20,-19,1,50,45,3952,10,7,913,1809,1892,2116,2291,2060,1844,1892,2004
120210,-43960,-15072,-45894,-13126,1014,3800,-22,-18,3,30,50,3900,7,0,914,1809,1892,2116,2291,2060,1844,1892,2004
121211,-43952,-15068,-45894,-13126,903,3800,-20,-14,2,33,60,3939,-9,-7,912,1809,1892,2115,2290,2059,1843,1891,2003
122212,-43952,-15080,-45894,-13126,1002,3800,-19,-15,1,-4,38,3931,-7,1,913,1809,1892,2115,2290,2059,1843,1891,2003
123213,-43964,-15080,-45894,-13126,1167,3800,-18,-19,1,13,42,3902,-3,7,913,1809,1892,2115,2290,2059,1843,1891,2003
124214,-43940,-15076,-45894,-13126,686,3800,-20,-20,3,34,44,3900,3,6,913,1809,1892,2115,2290,2059,1843,1891,2003
125215,-43948,-15072,-45894,-13126,1095,3800,-22,-19,1,19,52,3915,5,-5,913,1809,1892,2115,2290,2059,1843,1891,2003
126216,-43964,-15076,-45894,-13126,1214,3800,-21,-18,2,22,51,3913,6,-4,914,1809,1892,2117,2291,2059,1843,1891,2003
127217,-43960,-15080,-45894,-13126,959,3800,-21,-16,2,10,57,3949,10,1,913,1809,1892,2117,2291,2059,1843,1891,2003
128218,-43948,-15080,-45894,-13126,843,3800,-20,-16,0,14,54,3935,6,7,913,1809,1892,2117,2291,2059,1843,1891,2003
129219,-43956,-15068,-45894,-13126,1102,3800,-20,-16,0,0,35,3927,7,-3,913,1809,1892,2117,2291,2059,1843,1891,2003
130220,-43960,-15076,-45894,-13126,1056,3800,-20,-17,1,15,21,3925,-2,-7,913,1809,1892,2117,2291,2059,1843,1891,2003
131221,-43964,-15072,-45894,-13126,1061,3800,-19,-18,3,13,48,3960,-9,7,913,1809,1892,2117,2291,2059,1843,1891,2003
132222,-43956,-15068,-45894,-13126,900,3800,-18,-18,3,24,45,3958,-9,-3,914,1809,1891,2116,2291,2059,1843,1891,2003
133223,-43960,-15076,-45894,-13126,1054,3800,-19,-19,3,6,48,3965,-9,-7,914,1809,1891,2116,2291,2059,1843,1891,2003
134224,-43956,-15084,-45894,-13126,948,3800,-21,-20,4,1,67,3959,-6,-3,913,1809,1891,2116,2291,2059,1843,1891,2003
135225,-43960,-15076,-45894,-13126,1053,3800,-20,-20,4,14,69,3936,-8,7,913,1809,1891,2116,2291,2059,1843,1891,2003
136226,-43952,-15088,-45894,-13126,892,3800,-20,-18,3,37,75,3939,1,4,913,1809,1891,2116,2291,2059,1843,1891,2003
137227,-43956,-15072,-45894,-13126,1046,3800,-19,-18,1,43,70,3966,9,-7,913,1808,1892,2116,2290,2059,1842,1891,2003
138228,-43960,-15068,-45894,-13126,1050,3800,-17,-19,3,33,77,3926,9,1,912,1808,1892,2116,2290,2059,1842,1891,2003
139229,-43948,-15072,-45894,-13126,835,3800,-17,-19,5,37,62,3944,4,7,912,1808,1892,2116,2290,2059,1842,1891,2003
140230,-43948,-15068,-45894,-13126,984,3800,-18,-18,4,0,61,3940,-7,-4,913,1808,1892,2116,2290,2059,1842,1891,2003
141231,-43972,-15080,-45894,-13126,1312,3800,-18,-19,2,7,44,3931,-3,-5,913,1808,1892,2116,2290,2059,1842,1891,2003
142232,-43944,-15084,-45894,-13126,628,3800,-18,-17,3,41,40,3943,-8,1,913,1808,1892,2116,2290,2059,1842,1891,2003
143233,-43956,-15084,-45894,-13126,1142,3800,-19,-18,5,34,68,3935,-8,7,913,1809,1892,2117,2291,2059,1843,1890,2003
144234,-43952,-15064,-45894,-13126,936,3800,-19,-20,3,26,60,3908,-9,-4,913,1809,1892,2117,2291,2059,1843,1890,2003
145235,-43956,-15072,-45894,-13126,1040,3800,-14,-22,2,26,62,3924,-5,-7,913,1809,1892,2117,2291,2059,1843,1890,2003
146236,-43952,-15072,-45894,-13126,935,3800,-14,-21,2,21,61,3948,-1,6,913,1809,1892,2117,2291,2059,1843,1890,2003
147237,-43948,-15080,-45894,-13126,929,3800,-19,-20,3,9,83,3943,-4,1,913,1809,1892,2117,2291,2059,1843,1890,2003
148238,-43952,-15088,-45894,-13126,1033,3800,-19,-18,1,27,70,3930,-2,-7,913,1809,1892,2117,2291,2059,1843,1889,2003
149239,-43956,-15080,-45894,-13126,1037,3800,-17,-18,2,39,36,3958,1,0,913,1809,1892,2117,2291,2059,1843,1889,2003
150240,-43948,-15076,-45894,-13126,877,3800,-17,-22,5,22,53,3947,-4,6,913,1809,1892,2117,2291,2059,1843,1889,2003
151241,-43956,-15056,-45894,-13126,1086,3800,-17,-24,3,39,51,3927,-4,1,913,1809,1892,2117,2291,2059,1843,1889,2003
152242,-43952,-15068,-45894,-13126,930,3800,-16,-22,1,16,76,3948,-2,-6,913,1809,1892,2117,2291,2059,1843,1889,2003
153243,-43956,-15072,-45894,-13126,1034,3800,-16,-22,3,18,45,3938,-4,7,913,1809,1892,2117,2291,2059,1843,1889,2003
154244,-43952,-15072,-45894,-13126,929,3800,-16,-21,3,55,45,3900,0,5,913,1809,1892,2117,2291,2059,1843,1890,2003
155245,-43956,-15088,-45894,-13126,1033,3800,-15,-17,1,41,61,3913,8,-8,913,1809,1892,2117,2291,2059,1843,1890,2003
156246,-43948,-15084,-45894,-13126,872,3800,-13,-20,-1,45,79,3914,8,6,912,1809,1892,2117,2291,2059,1843,1890,2003
157247,-43960,-15072,-45894,-13126,1136,3800,-15,-23,-1,21,51,3943,10,7,914,1809,1892,2117,2291,2059,1843,1890,2003
158248,-43960,-15068,-45894,-13126,986,3800,-16,-23,1,43,45,3972,10,0,913,1809,1892,2117,2291,2059,1843,1890,2003
159249,-43944,-15080,-45894,-13126,765,3800,-18,-22,0,16,70,3910,10,-7,913,1807,1889,2118,2292,2061,1844,1892,2004
160250,-43944,-15076,-45894,-13126,964,3800,-18,-20,-1,17,77,3913,10,-6,914,1807,1889,2118,2292,2061,1844,1892,2004
161251,-43968,-15080,-45894,-13126,1292,3800,-18,-18,-1,20,55,3929,9,5,913,1807,1889,2118,2292,2061,1844,1892,2004
162252,-43960,-15080,-45894,-13126,883,3800,-18,-19,1,24,67,3928,4,5,913,1807,1889,2118,2292,2061,1844,1892,2004
163253,-43960,-15064,-45894,-13126,982,3800,-16,-20,-1,30,75,3897,-8,0,913,1807,1889,2118,2292,2061,1844,1892,2004
164254,-43964,-15072,-45894,-13126,1036,3800,-17,-19,0,29,63,3922,-9,-7,913,1807,1889,2118,2292,2061,1844,1892,2004
165255,-43964,-15084,-45894,-13126,985,3800,-18,-19,2,41,70,3923,-9,-4,913,1808,1892,2116,2291,2059,1844,1890,2003
166256,-43948,-15072,-45894,-13126,765,3800,-17,-21,3,20,68,3911,-1,-1,913,1808,1892,2116,2291,2059,1844,1890,2003
167257,-43956,-15068,-45894,-13126,1074,3800,-15,-24,2,21,58,3916,8,7,913,1808,1892,2116,2291,2059,1844,1890,2003
168258,-43952,-15072,-45894,-13126,918,3800,-17,-22,-1,40,54,3937,9,4,913,1808,1892,2116,2291,2059,1844,1890,2003
169259,-43956,-15068,-45894,-13126,1022,3800,-18,-21,0,29,80,3935,6,-4,913,1808,1892,2116,2291,2059,1844,1890,2003
170260,-43948,-15072,-45894,-13126,862,3800,-18,-20,1,20,69,3952,-6,-6,914,1807,1892,2118,2292,2062,1844,1892,2004
171261,-43952,-15076,-45894,-13126,1016,3800,-18,-16,-1,18,56,3912,-9,4,914,1807,1892,2118,2292,2062,1844,1892,2004
172262,-43948,-15068,-45894,-13126,910,3800,-20,-16,0,16,52,3875,-1,7,912,1807,1892,2118,2292,2062,1844,1892,2004
173263,-43952,-15072,-45894,-13126,1014,3800,-18,-16,1,15,58,3908,10,-1,913,1807,1892,2118,2292,2062,1844,1892,2004
174264,-43948,-15072,-45894,-13126,909,3800,-16,-18,0,31,60,3927,10,-7,913,1807,1892,2118,2292,2062,1844,1892,2004
175265,-43956,-15084,-45894,-13126,1068,3800,-14,-19,1,39,73,3921,4,-2,914,1807,1892,2118,2292,2062,1844,1892,2004
176266,-43960,-15060,-45894,-13126,1022,3800,-16,-21,2,40,55,3900,-8,7,913,1808,1891,2116,2290,2059,1843,1891,2003
177267,-43960,-15084,-45894,-13126,972,3800,-16,-17,2,37,45,3904,-10,-3,913,1808,1891,2116,2290,2059,1843,1891,2003
178268,-43964,-15072,-45894,-13126,1026,3800,-17,-17,3,44,62,3933,4,-7,913,1808,1891,2116,2290,2059,1843,1891,2003
179269,-43964,-15076,-45894,-13126,975,3800,-21,-19,4,29,49,3938,7,-1,914,1808,1891,2116,2290,2059,1843,1891,2003
180270,-43948,-15080,-45894,-13126,754,3800,-22,-18,3,32,67,3922,1,7,913,1808,1891,2116,2290,2059,1843,1891,2003
181271,-43956,-15080,-45894,-13126,1064,3800,-21,-17,5,43,84,3950,-10,2,914,1807,1892,2118,2292,2062,1846,1892,2004
182272,-43948,-15072,-45894,-13126,853,3800,-19,-18,4,25,74,3944,-2,-7,913,1807,1892,2118,2292,2062,1846,1892,2004
183273,-43960,-15080,-45894,-13126,1117,3800,-18,-17,4,43,78,3916,7,6,913,1807,1892,2118,2292,2062,1846,1892,2004
184274,-43956,-15076,-45894,-13126,911,3800,-19,-17,2,38,67,3938,3,4,913,1807,1892,2118,2292,2062,1846,1892,2004
185275,-43952,-15072,-45894,-13126,906,3800,-20,-17,2,31,67,3916,-10,-6,913,1807,1892,2118,2292,2062,1846,1892,2004
186276,-43940,-15076,-45894,-13126,790,3800,-21,-19,0,20,83,3925,-9,7,913,1807,1892,2118,2292,2062,1846,1892,2004
187277,-43948,-15084,-45894,-13126,1049,3800,-22,-18,3,40,65,3941,-1,0,913,1808,1892,2116,2290,2059,1843,1890,2003
188278,-43952,-15068,-45894,-13126,1003,3800,-20,-16,4,27,64,3932,10,-6,913,1808,1892,2116,2290,2059,1843,1890,2003
189279,-43944,-15072,-45894,-13126,843,3800,-20,-15,4,34,58,3931,6,5,912,1808,1892,2116,2290,2059,1843,1890,2003
190280,-43944,-15088,-45894,-13126,942,3800,-22,-17,2,19,78,3941,-2,-7,912,1808,1892,2116,2290,2059,1843,1890,2003
191281,-43948,-15064,-45894,-13126,996,3800,-19,-17,4,26,50,3916,-10,4,913,1808,1892,2116,2290,2059,1843,1890,2003
192282,-43956,-15072,-45894,-13126,1055,3800,-19,-18,4,23,56,3913,-9,1,914,1809,1891,2115,2291,2058,1842,1891,2004
193283,-43960,-15076,-45894,-13126,1010,3800,-20,-22,0,17,50,3915,3,-7,914,1809,1891,2115,2291,2058,1842,1891,2004
194284,-43960,-15076,-45894,-13126,959,3800,-20,-20,2,1,51,3929,8,3,913,1809,1891,2115,2291,2058,1842,1891,2004
195285,-43952,-15060,-45894,-13126,848,3800,-20,-17,2,0,50,3947,10,2,913,1809,1891,2115,2291,2058,1842,1891,2004
196286,-43952,-15076,-45894,-13126,947,3800,-20,-18,3,14,41,3942,6,-7,913,1809,1891,2115,2291,2058,1842,1891,2004
197287,-43952,-15068,-45894,-13126,947,3800,-20,-19,6,32,40,3955,-9,2,913,1809,1891,2115,2291,2058,1842,1891,2004
198288,-43952,-15068,-45894,-13126,946,3800,-19,-19,4,18,39,3972,-9,2,913,1808,1893,2117,2292,2059,1843,1891,2003
199289,-43948,-15068,-45894,-13126,890,3800,-18,-18,1,21,50,3939,-2,-5,913,1808,1893,2117,2292,2059,1843,1891,2003
200290,-43952,-15068,-45894,-13126,994,3800,-17,-17,1,45,81,3907,9,-4,913,1808,1893,2117,2292,2059,1843,1891,2003
201291,-43956,-15076,-29510,3258,3800,3800,-17,-19,4,28,46,3916,7,6,914,1808,1893,2117,2292,2059,1843,1891,2003
202292,-43932,-15060,-29445,3323,3800,3800,-20,-19,4,21,34,3933,-10,287,914,1808,1893,2117,2292,2059,1843,1891,2003
203293,-43904,-15008,-29380,3388,3800,3800,-22,-19,0,20,76,3909,349,315,830,1809,1891,2115,2291,2059,1843,1892,2006
204294,-43804,-14876,-29315,3453,3800,3800,-32,-50,4,-292,-112,3944,335,306,836,1809,1891,2115,2291,2059,1843,1892,2006
205295,-43620,-14700,-29250,3518,3800,3800,-38,-91,36,-353,-96,4097,356,323,841,1809,1891,2115,2291,2059,1843,1892,2006
206296,-43432,-14500,-29185,3583,3800,3800,-22,-200,64,-600,71,3823,324,343,846,1809,1891,2115,2291,2059,1843,1892,2006
207297,-43188,-14276,-29120,3648,3800,3800,-37,-368,85,-1120,-596,3959,358,352,850,1809,1891,2115,2291,2059,1843,1892,2006
208298,-42908,-14012,-29055,3713,3800,3800,-60,-436,97,-510,-694,3733,368,345,855,1809,1891,2115,2291,2059,1843,1892,2006
209299,-42632,-13680,-28990,3778,3800,3800,-71,-409,115,-122,-649,4095,359,355,859,1808,1893,2117,2291,2065,1845,1899,2022
210300,-42296,-13336,-28925,3843,3800,3800,-61,-375,151,10,-850,4302,374,352,862,1808,1893,2117,2291,2065,1845,1899,2022
211301,-41952,-12976,-28860,3908,3800,3800,-98,-397,169,-203,-766,4486,389,339,865,1808,1893,2117,2291,2065,1845,1899,2022
212302,-41592,-12592,-28795,3973,3800,3800,-130,-287,146,-630,-1042,4481,361,345,868,1808,1893,2117,2291,2065,1845,1899,2022
213303,-41212,-12188,-28730,4038,3800,3800,-128,-296,138,527,-1151,3916,375,345,870,1808,1893,2117,2291,2065,1845,1899,2022
214304,-40788,-11724,-28665,4103,3800,3800,-107,-346,130,760,-397,5752,390,370,873,1820,1908,2118,2281,2089,1859,1927,2055
215305,-40308,-11292,-28600,4168,3800,3800,-72,-165,98,-623,-769,5867,389,380,876,1820,1908,2118,2281,2089,1859,1927,2055
216306,-39916,-10840,-28535,4233,3800,3800,-79,-318,85,683,-1194,3001,396,381,877,1820,1908,2118,2281,2089,1859,1927,2055
217307,-39444,-10336,-28470,4298,3800,3800,-63,-183,102,-929,39,8422,377,367,878,1820,1908,2118,2281,2089,1859,1927,2055
218308,-38928,-9856,-28405,4363,3800,3800,-40,-169,80,-870,-817,4531,383,353,882,1820,1908,2118,2281,2089,1859,1927,2055
219309,-38464,-9364,-28340,4428,3800,3800,-4,-179,96,-1230,-529,6561,377,387,882,1834,1923,2133,2331,2129,1903,1927,2055
220310,-37884,-8792,-28275,4493,3800,3800,54,-243,31,-1088,-75,6240,380,354,883,1834,1923,2133,2331,2129,1903,1975,2084
221311,-37392,-8292,-28210,4558,3800,3800,138,-249,-6,-905,-543,7695,391,382,884,1834,1923,2133,2331,2129,1903,1975,2084
222312,-36876,-7776,-28145,4623,3800,3800,208,-445,-65,-1643,-430,5357,399,393,885,1834,1923,2133,2331,2129,1903,1975,2084
223313,-36292,-7264,-28080,4688,3800,3800,356,-295,-100,718,177,9058,378,381,885,1834,1923,2133,2331,2129,1903,1975,2084
224314,-35752,-6760,-28015,4753,3800,3800,411,-399,-127,-1405,-1153,5813,404,363,884,1834,1923,2133,2331,2129,1903,1975,2084
225315,-35172,-6216,-27950,4818,2787,3800,556,-201,-60,-376,-502,9766,413,394,886,1928,2025,2267,2524,2154,1945,2019,2111
226316,-34600,-5724,-27885,4883,2272,3800,589,-334,69,-1272,-1026,5176,407,391,884,1928,2025,2267,2524,2154,1945,2019,2111
227317,-34108,-5252,-27820,4948,2752,3800,719,-151,12,-325,-451,9751,302,357,890,1928,2025,2267,2524,2154,1945,2019,2111
228318,-33516,-4752,-27755,5013,862,3800,833,-77,-95,107,467,7178,331,377,891,1928,2025,2267,2524,2154,1945,2019,2111
229319,-32988,-4264,-27690,5078,1099,3800,973,-173,-68,528,-560,8346,327,383,888,1928,2025,2267,2524,2154,1945,2019,2111
230320,-32488,-3780,-27625,5143,920,3800,1071,-203,-146,-136,307,7471,323,334,892,2167,2250,2511,2843,2118,1936,2020,2084
231321,-31920,-3336,-27560,5208,-542,3800,1202,-316,-152,-714,-158,6698,318,358,892,2167,2250,2511,2843,2118,1936,2020,2084
232322,-31416,-2872,-27495,5273,-276,3800,1306,-471,-222,-811,504,6654,304,347,890,2167,2250,2511,2843,2118,1936,2020,2084
233323,-30944,-2472,-27430,5338,-372,3800,1375,-669,-317,-235,-535,6876,292,339,892,2167,2250,2511,2843,2118,1936,2020,2084
234324,-30456,-2060,-27365,5403,-1087,3800,1529,-805,-313,-989,616,6524,295,351,891,2167,2250,2511,2843,2118,1936,2020,2084
235325,-30044,-1656,-27300,5468,-559,3800,1679,-1011,-410,-16,538,6405,286,344,891,2167,2250,2511,2843,2118,1936,2020,2084
236326,-29568,-1232,-27235,5533,-1860,3800,1808,-1128,-508,-695,498,8184,277,343,886,2358,2389,2622,2929,2005,1814,1929,1999
237327,-29132,-836,-27170,5598,-1812,3800,2005,-1198,-496,23,866,7585,252,355,889,2358,2389,2622,2929,2005,1814,1929,1999
238328,-28740,-464,-27105,5663,-1661,3800,2267,-1228,-558,2541,1967,7187,231,328,888,2358,2389,2622,2929,2005,1814,1929,1999
239329,-28284,-104,-27040,5728,-2937,3800,2439,-1407,-640,-677,727,8928,240,323,886,2358,2389,2622,2929,2005,1814,1929,1999
240330,-27944,252,-26975,5793,-1823,3617,2659,-1652,-721,492,1221,7499,226,344,884,2358,2389,2622,2929,2005,1814,1929,1999
241331,-27564,576,-26910,5858,-2706,3703,2986,-1681,-679,1685,3006,7392,233,44,889,2252,2319,2451,2684,1883,1685,1833,1927
242332,-27212,880,-26845,5923,-2707,3664,3241,-1698,-694,1177,1137,7597,204,163,886,2252,2319,2451,2684,1883,1685,1833,1927
243333,-26896,1192,-26780,5988,-2563,3264,3529,-1796,-741,321,2315,8530,195,88,887,2252,2319,2451,2684,1883,1685,1833,1927
244334,-26576,1476,-26715,6053,-2924,3349,3712,-1960,-827,-742,2895,7544,206,84,890,2252,2319,2451,2684,1883,1685,1833,1927
245335,-26272,1752,-26650,6118,-3016,3193,4028,-1972,-894,836,3249,8437,174,64,888,2252,2319,2451,2684,1883,1685,1833,1927
246336,-25992,2020,-26585,6183,-2978,3046,4239,-2025,-896,1935,2893,5313,187,101,890,2252,2319,2451,2684,1883,1685,1833,1927
247337,-25692,2252,-26520,6248,-3515,3294,4372,-2149,-928,-514,3078,5296,162,110,891,2211,2314,2450,2699,1919,1674,1817,1903
248338,-25448,2512,-26455,6313,-3035,2707,4435,-2280,-994,-2908,3329,7121,152,55,888,2211,2314,2450,2699,1919,1674,1817,1903
249339,-25220,2764,-26390,6378,-3034,2581,4350,-2313,-990,-1863,2927,5562,134,128,893,2211,2314,2450,2699,1919,1674,1817,1903
250340,-25008,3000,-26325,6443,-3013,2573,4420,-2162,-850,2458,4468,5363,145,106,894,2211,2314,2450,2699,1919,1674,1817,1903
251341,-24788,3188,-26260,6508,-3303,3024,4408,-2103,-781,2443,3742,4101,120,104,894,2211,2314,2450,2699,1919,1674,1817,1903
252342,-24576,3400,-26195,6573,-3384,2547,4436,-2235,-857,-1739,3114,5248,130,75,889,2251,2288,2496,2707,1952,1783,1845,1968
253343,-24392,3612,-26130,6638,-3179,2368,4512,-2479,-889,-3639,2648,4348,107,103,894,2251,2288,2496,2707,1952,1783,1845,1968
254344,-24236,3864,-26065,6703,-2941,1641,4727,-2826,-916,-1041,2335,3858,112,108,895,2251,2288,2496,2707,1952,1783,1845,1968
255345,-24076,4092,-26000,6768,-3108,1743,4772,-3149,-876,2658,2390,3187,105,122,902,2251,2288,2496,2707,1952,1783,1845,1968
256346,-23940,4288,-25935,6833,-2895,1984,4661,-3334,-1053,-2167,884,4709,82,113,901,2251,2288,2496,2707,1952,1783,1845,1968
257347,-23788,4500,-25870,6898,-3202,1606,4500,-3426,-1575,-4603,1292,5102,83,113,899,2251,2288,2496,2707,1952,1783,1845,1968
258348,-23668,4672,-25805,6963,-2870,1976,4340,-3134,-1932,305,1475,4935,85,124,903,1928,1960,2254,2359,2111,1897,1875,2091
259349,-23548,4844,-25740,7028,-2938,1847,4317,-2904,-1940,4222,697,2875,71,120,900,1928,1960,2254,2359,2111,1897,1875,2091
260350,-23444,5020,-25675,7093,-2786,1662,4492,-3015,-1859,1381,1615,4513,76,123,901,1928,1960,2254,2359,2111,1897,1875,2091
261351,-23344,5244,-25610,7158,-2780,869,4841,-3342,-1792,-1059,2111,5007,61,106,903,1928,1960,2254,2359,2111,1897,1875,2091
262352,-23264,5464,-25545,7223,-2549,730,5335,-3476,-1703,-215,1966,5015,61,112,908,1928,1960,2254,2359,2111,1897,1875,2091
263353,-23188,5648,-25480,7288,-2513,1035,5708,-3363,-1543,996,2015,4486,45,91,909,1586,1660,1922,1990,2244,1972,1956,2112
264354,-23120,5816,-25415,7353,-2418,1111,5835,-3204,-1377,410,2377,3778,36,100,907,1586,1660,1922,1990,2244,1972,1956,2112
265355,-23064,6000,-25350,7418,-2258,765,5722,-3132,-1218,-1126,3596,3526,32,93,906,1586,1660,1922,1990,2244,1972,1956,2112
266356,-23004,6120,-25285,7483,-2303,1499,5508,-3035,-1121,-852,4426,3152,34,91,909,1586,1660,1922,1990,2244,1972,1956,2112
267357,-22960,6236,-25220,7548,-2078,1487,5289,-3030,-1100,-63,4706,1737,23,84,903,1586,1660,1922,1990,2244,1972,1956,2112
268358,-22924,6368,-25155,7613,-1943,1206,5103,-3186,-1186,-1411,5011,2330,19,80,903,1586,1660,1922,1990,2244,1972,1956,2112
269359,-22888,6492,-25090,7678,-1908,1234,4950,-3408,-1296,-2853,4985,1944,15,84,906,1645,1782,1977,2148,1972,1742,1807,1893
270360,-22868,6648,-25025,7743,-1655,724,4790,-3659,-1370,-1568,4800,2161,27,83,906,1645,1782,1977,2148,1972,1742,1807,1893
271361,-22844,6796,-24960,7808,-1656,723,4721,-3898,-1387,-1065,3890,1604,9,85,909,1645,1782,1977,2148,1972,1742,1807,1893
272362,-22836,6940,-24895,7873,-1387,676,4686,-3949,-1488,-1355,2937,1740,3,60,909,1645,1782,1977,2148,1972,1742,1807,1893
273363,-22812,7072,-24830,7938,-1538,746,4686,-3934,-1624,-1466,1919,2250,15,54,909,1645,1782,1977,2148,1972,1742,1807,1893
274364,-22824,7184,-24765,8003,-994,938,4685,-3863,-1719,-448,1197,2186,-3,55,908,1812,1890,2134,2277,1905,1675,1707,1861
275365,-22828,7280,-24700,8068,-1011,1100,4716,-3741,-1792,306,597,1979,4,65,907,1812,1890,2134,2277,1905,1675,1707,1861
276366,-22816,7368,-24635,8133,-1147,1173,4717,-3575,-1862,1035,167,2372,-9,58,906,1812,1890,2134,2277,1905,1675,1707,1861
277367,-22800,7460,-24570,8198,-1138,1090,4750,-3333,-1910,241,-276,3065,-2,55,899,1812,1890,2134,2277,1905,1675,1707,1861
278368,-22796,7560,-24505,8263,-914,948,4787,-3102,-1834,178,-1358,3231,-4,67,906,1812,1890,2134,2277,1905,1675,1707,1861
279370,-22792,7664,-24440,8328,-840,851,4754,-3213,-1670,-182,-1477,1527,2,54,907,1812,1890,2134,2277,1905,1675,1707,1861
280370,-22804,7780,-24375,8393,-546,639,4741,-3463,-1529,-988,-171,1075,-10,49,908,1829,1888,2158,2237,1897,1714,1716,1851
281371,-22804,7888,-24310,8458,-618,686,4700,-3506,-1420,-881,230,899,-4,49,903,1829,1888,2158,2237,1897,1714,1716,1851
282372,-22820,7976,-24245,8523,-320,908,4664,-3515,-1329,-143,1120,537,-10,52,909,1829,1888,2158,2237,1897,1714,1716,1851
283373,-22840,8060,-24180,8588,-166,935,4657,-3493,-1242,-160,1698,1768,0,38,908,1829,1888,2158,2237,1897,1714,1716,1851
284374,-22844,8152,-24115,8653,-283,803,4608,-3527,-1086,-1096,1549,805,-9,37,900,1829,1888,2158,2237,1897,1714,1716,1851
285375,-22868,8236,-24050,8718,76,880,4543,-3626,-937,-754,2687,1113,-10,46,901,1703,1746,1973,2138,1952,1777,1819,1891
286376,-22884,8312,-23985,8783,74,966,4484,-3696,-816,-783,3001,514,-10,34,908,1703,1746,1973,2138,1952,1777,1819,1891
287377,-22884,8380,-23920,8848,-47,1063,4429,-3745,-730,-671,3070,528,-7,44,906,1703,1746,1973,2138,1952,1777,1819,1891
288378,-22888,8448,-23855,8913,87,1059,4397,-3767,-679,-478,3102,945,-4,41,906,1703,1746,1973,2138,1952,1777,1819,1891
289379,-22896,8536,-23790,8978,225,782,4402,-3769,-640,-567,3009,1091,6,48,906,1703,1746,1973,2138,1952,1777,1819,1891
290380,-22900,8612,-23725,9043,259,919,4443,-3675,-615,248,2841,2029,-1,41,907,1703,1746,1973,2138,1952,1777,1819,1891
291381,-22904,8676,-23660,9108,343,1070,4512,-3497,-624,1504,2619,1986,8,49,905,1594,1646,1826,1982,2052,1809,1849,1953
292382,-22892,8752,-23595,9173,207,906,4634,-3304,-686,1129,2028,2020,10,52,905,1594,1646,1826,1982,2052,1809,1849,1953
293383,-22896,8820,-23530,9238,492,1003,4767,-3155,-793,4,1428,1937,1,50,907,1594,1646,1826,1982,2052,1809,1849,1953
294384,-22904,8908,-23465,9303,631,725,4928,-3114,-863,-609,1012,1433,15,40,904,1594,1646,1826,1982,2052,1809,1849,1953
295385,-22912,8996,-23400,9368,719,698,5004,-3115,-893,638,494,1574,17,49,906,1594,1646,1826,1982,2052,1809,1849,1953
296386,-22900,9076,-23335,9433,533,779,5083,-3058,-843,-860,-715,1053,4,53,905,1560,1653,1888,2011,1957,1703,1710,1828
297387,-22884,9156,-23270,9498,543,761,5074,-3010,-754,-1344,-831,1315,13,50,906,1560,1653,1888,2011,1957,1703,1710,1828
298388,-22864,9232,-23205,9563,548,798,5019,-2949,-648,-849,-843,923,27,50,906,1560,1653,1888,2011,1957,1703,1710,1828
299389,-22840,9320,-23140,9628,548,619,4902,-2844,-509,-603,-779,1690,28,48,906,1560,1653,1888,2011,1957,1703,1710,1828
300390,-22796,9400,-23075,9693,324,701,4747,-2730,-347,-418,-559,1230,20,39,907,1560,1653,1888,2011,1957,1703,1710,1828
301391,-22760,9472,-23010,9758,459,793,4599,-2699,-189,-338,-347,809,17,44,908,1560,1653,1888,2011,1957,1703,1710,1828
302392,-22728,9556,-22945,9823,550,619,4457,-2661,-52,-310,38,1209,28,49,906,1748,1832,2100,2256,1784,1616,1650,1746
303393,-22696,9624,-22880,9888,589,816,4305,-2561,18,144,907,1172,26,42,907,1748,1832,2100,2256,1784,1616,1650,1746
304394,-22660,9696,-22815,9953,574,758,4132,-2509,73,-321,960,691,20,47,905,1748,1832,2100,2256,1784,1616,1650,1746
305395,-22608,9768,-22750,10018,390,750,3958,-2579,142,145,1081,347,36,43,906,1748,1832,2100,2256,1784,1616,1650,1746
306396,-22576,9844,-22685,10083,680,686,3848,-2597,211,-576,772,66,30,44,907,1748,1832,2100,2256,1784,1616,1650,1746
307397,-22528,9916,-22620,10148,501,728,3781,-2511,316,-281,944,988,32,54,905,1813,1858,2086,2257,1922,1761,1799,1903
308398,-22476,9976,-22555,10213,467,884,3710,-2437,381,723,1370,220,33,43,906,1813,1858,2086,2257,1922,1761,1799,1903
309399,-22444,10036,-22490,10278,757,890,3637,-2369,422,694,1330,1245,36,56,906,1813,1858,2086,2257,1922,1761,1799,1903
310400,-22372,10120,-22425,10343,249,567,3583,-2247,442,791,1274,1567,34,55,903,1813,1858,2086,2257,1922,1761,1799,1903
311401,-22312,10208,-22360,10408,405,489,3555,-2088,471,1158,1230,1641,29,57,909,1813,1858,2086,2257,1922,1761,1799,1903
312402,-22264,10308,-22295,10473,576,296,3552,-1895,514,1182,1018,2258,37,42,909,1813,1858,2086,2257,1922,1761,1799,1903
313403,-22216,10384,-22230,10538,596,582,3545,-1703,543,1140,858,1742,29,53,908,1616,1649,1868,2002,2174,1913,1890,2000
314404,-22156,10456,-22165,10603,453,624,3462,-1625,541,757,171,1504,41,51,907,1616,1649,1868,2002,2174,1913,1890,2000
315405,-22080,10520,-22100,10668,239,725,3308,-1470,537,658,-695,1870,27,53,907,1616,1649,1868,2002,2174,1913,1890,2000
316406,-22040,10624,-22035,10733,720,179,3032,-1429,555,447,-1270,738,34,53,908,1616,1649,1868,2002,2174,1913,1890,2000
317407,-21952,10700,-21970,10798,92,515,2532,-1345,633,161,-1906,1000,32,54,908,1616,1649,1868,2002,2174,1913,1890,2000
318408,-21896,10776,-21905,10863,503,502,1877,-1350,720,63,-2196,-72,33,52,909,1763,1878,2261,2538,1556,1384,1361,1386
319409,-21848,10848,-21840,10928,623,543,1116,-1148,844,331,-2799,1054,45,41,908,1763,1878,2261,2538,1556,1384,1361,1386
320410,-21776,10928,-21775,10993,315,425,296,-1033,957,807,-3585,-559,41,51,907,1763,1878,2261,2538,1556,1384,1361,1386
321411,-21720,10988,-21710,11058,526,681,-510,-795,1064,512,-4345,1270,38,40,909,1763,1878,2261,2538,1556,1384,1361,1386
322412,-21656,11056,-21645,11123,427,577,-1228,-756,1188,739,-4884,-887,39,40,907,1763,1878,2261,2538,1556,1384,1361,1386
323413,-21572,11124,-21580,11188,154,574,-1846,-582,1241,138,-5179,1091,49,56,908,1763,1878,2261,2538,1556,1384,1361,1386
324414,-21520,11208,-21515,11253,570,350,-2316,-575,1353,-654,-5476,-898,30,40,909,3020,2838,3240,3568,1281,1241,1300,1414
325415,-21456,11276,-21450,11318,421,547,-2714,-377,1399,1958,-4749,533,41,44,907,3020,2838,3240,3568,1281,1241,1300,1414
326416,-21376,11324,-21385,11383,203,818,-2953,-133,1533,184,-5806,187,37,50,908,3020,2838,3240,3568,1281,1241,1300,1414
327418,-21312,11396,-21320,11448,404,509,-3078,228,1654,933,-4804,1351,39,38,907,3020,2838,3240,3568,1281,1241,1300,1414
328418,-21240,11444,-21255,11513,295,830,-3184,359,1683,613,-3969,-853,42,49,908,3020,2838,3240,3568,1281,1241,1300,1414
329419,-21180,11520,-21190,11578,451,466,-3243,657,1652,491,-3104,1997,44,50,906,2341,2278,2581,2616,1807,1652,1650,1803
330420,-21108,11592,-21125,11643,293,508,-3321,742,1630,1090,-1999,-602,46,44,908,2341,2278,2581,2616,1807,1652,1650,1803
331421,-21024,11660,-21060,11708,120,554,-3371,952,1586,1359,-1817,1547,49,39,909,2341,2278,2581,2616,1807,1652,1650,1803
332422,-20956,11728,-20995,11773,316,550,-3417,1044,1508,1334,-1685,580,49,44,910,2341,2278,2581,2616,1807,1652,1650,1803
333423,-20900,11800,-20930,11838,477,492,-3416,1122,1426,753,-1776,933,46,33,909,2341,2278,2581,2616,1807,1652,1650,1803
334424,-20840,11860,-20865,11903,433,648,-3429,1054,1324,473,-1207,845,29,33,908,2341,2278,2581,2616,1807,1652,1650,1803
335425,-20764,11912,-20800,11968,220,764,-3481,1049,1227,626,-614,1679,39,48,908,1840,1813,2125,2272,1829,1641,1586,1659
336426,-20692,11972,-20735,12033,261,670,-3574,1062,1170,1335,176,1385,36,47,908,1840,1813,2125,2272,1829,1641,1586,1659
337427,-20648,12036,-20670,12098,637,621,-3649,1127,1160,1442,571,2314,37,49,909,1840,1813,2125,2272,1829,1641,1586,1659
338428,-20564,12108,-20605,12163,113,513,-3746,1178,1187,1280,1448,1954,42,38,906,1840,1813,2125,2272,1829,1641,1586,1659
339429,-20512,12168,-20540,12228,529,669,-3799,1269,1265,1147,2048,3061,39,40,910,1840,1813,2125,2272,1829,1641,1586,1659
340430,-20456,12228,-20475,12293,490,675,-3829,1411,1408,1123,2584,2779,47,39,907,1667,1650,1875,2045,1797,1653,1707,1795
341431,-20376,12284,-20410,12358,172,736,-3772,1557,1591,1299,2727,3411,41,36,907,1667,1650,1875,2045,1797,1653,1707,1795
342432,-20316,12356,-20345,12423,428,527,-3718,1720,1808,979,3145,3142,38,49,907,1667,1650,1875,2045,1797,1653,1707,1795
343433,-20240,12400,-20280,12488,215,903,-3640,1904,2041,879,3140,3253,41,47,909,1667,1650,1875,2045,1797,1653,1707,1795
344434,-20164,12468,-20215,12553,201,599,-3585,2052,2292,555,3217,2665,32,52,907,1667,1650,1875,2045,1797,1653,1707,1795
345435,-20096,12524,-20150,12618,298,760,-3495,2149,2483,255,3224,2582,39,41,909,1667,1650,1875,2045,1797,1653,1707,1795
346436,-20016,12600,-20085,12683,129,497,-3429,2280,2633,-156,3044,2278,30,42,908,1460,1557,1736,1918,2104,1860,1900,2010
347437,-19956,12660,-20020,12748,385,703,-3343,2407,2739,374,2623,2160,47,53,910,1460,1557,1736,1918,2104,1860,1900,2010
348438,-19884,12748,-19955,12813,227,325,-3248,2513,2806,367,2326,2019,39,45,908,1460,1557,1736,1918,2104,1860,1900,2010
349439,-19812,12824,-19890,12878,218,461,-3130,2537,2828,423,1747,1655,37,44,911,1460,1557,1736,1918,2104,1860,1900,2010
350440,-19732,12900,-19825,12943,100,448,-3023,2634,2803,566,1463,2001,30,42,910,1460,1557,1736,1918,2104,1860,1900,2010
351441,-19676,12956,-19760,13008,411,709,-2919,2730,2731,765,1313,1606,28,35,910,1667,1779,2056,2223,2203,1911,1899,2067
352442,-19616,13028,-19695,13073,367,500,-2837,2815,2631,1059,1120,1721,23,35,908,1667,1779,2056,2223,2203,1911,1899,2067
353443,-19564,13108,-19630,13138,482,382,-2802,2932,2518,1483,982,2191,34,36,909,1667,1779,2056,2223,2203,1911,1899,2067
354444,-19500,13168,-19565,13203,333,638,-2801,3061,2419,1799,1110,2129,25,33,909,1667,1779,2056,2223,2203,1911,1899,2067
355445,-19440,13232,-19500,13268,389,589,-2878,3133,2339,2228,1309,2165,28,36,908,1667,1779,2056,2223,2203,1911,1899,2067
356446,-19392,13292,-19435,13333,560,646,-3012,3209,2271,2129,1432,2639,25,46,909,1667,1779,2056,2223,2203,1911,1899,2067
357447,-19340,13352,-19370,13398,526,652,-3175,3365,2237,2382,1742,2977,41,42,907,1960,2043,2384,2568,1933,1717,1694,1792
358448,-19268,13408,-19305,13463,267,713,-3360,3497,2241,2969,2070,3216,27,49,908,1960,2043,2384,2568,1933,1717,1694,1792
359449,-19212,13480,-19240,13528,478,504,-3540,3579,2269,2739,2393,3572,41,49,907,1960,2043,2384,2568,1933,1717,1694,1792
360450,-19164,13524,-19175,13593,599,880,-3701,3658,2360,2424,2721,4316,28,44,908,1960,2043,2384,2568,1933,1717,1694,1792
361451,-19100,13604,-19110,13658,400,411,-3818,3729,2487,2500,3045,4598,33,43,905,1960,2043,2384,2568,1933,1717,1694,1792
362452,-19024,13656,-19045,13723,237,777,-3912,3775,2656,2172,3168,4824,28,53,909,2040,1994,2254,2449,1836,1692,1717,1816
363453,-18968,13720,-18980,13788,498,629,-3965,3804,2853,1744,3233,4982,44,38,908,2040,1994,2254,2449,1836,1692,1717,1816
364454,-18912,13808,-18915,13853,509,301,-4008,3907,3072,1195,3302,5552,31,49,908,2040,1994,2254,2449,1836,1692,1717,1816
365455,-18844,13868,-18850,13918,355,658,-4024,4039,3261,802,3426,5198,37,44,909,2040,1994,2254,2449,1836,1692,1717,1816
366456,-18784,13940,-18785,13983,461,499,-4011,4161,3390,1030,3633,5567,44,41,908,2040,1994,2254,2449,1836,1692,1717,1816
367457,-18716,14000,-18720,14048,358,655,-3932,4141,3466,1190,3664,5058,46,54,909,2040,1994,2254,2449,1836,1692,1717,1816
368458,-18660,14084,-18655,14113,519,332,-3809,4074,3519,615,3389,5042,38,51,909,1620,1682,1922,2067,2141,1933,1917,2082
369459,-18596,14180,-18590,14178,420,144,-3676,4020,3532,410,3515,4473,34,38,909,1620,1682,1922,2067,2141,1933,1917,2082
370460,-18520,14256,-18525,14243,256,381,-3544,4059,3511,1032,3536,4649,34,41,911,1620,1682,1922,2067,2141,1933,1917,2082
371461,-18464,14320,-18460,14308,517,532,-3407,4159,3459,1626,3276,4389,32,44,910,1620,1682,1922,2067,2141,1933,1917,2082
372462,-18392,14412,-18395,14373,309,149,-3263,4290,3364,1974,3340,4407,50,50,908,1620,1682,1922,2067,2141,1933,1917,2082
373463,-18316,14472,-18330,14438,245,555,-3147,4403,3257,1674,3273,4000,47,52,911,1568,1668,1954,2075,2508,2149,2097,2330
374464,-18236,14532,-18265,14503,177,561,-3059,4534,3129,1709,3388,3971,53,34,909,1568,1668,1954,2075,2508,2149,2097,2330
375465,-18168,14616,-18200,14568,323,238,-3020,4698,3015,1919,3166,3841,34,38,910,1568,1668,1954,2075,2508,2149,2097,2330
376466,-18112,14688,-18135,14633,484,378,-3055,4840,2931,2109,3008,3277,45,38,911,1568,1668,1954,2075,2508,2149,2097,2330
377467,-18040,14752,-18070,14698,276,480,-3156,4972,2885,1781,2791,3073,34,43,909,1568,1668,1954,2075,2508,2149,2097,2330
378468,-17968,14828,-18005,14763,267,316,-3323,5117,2859,1354,2685,3071,37,33,910,1568,1668,1954,2075,2508,2149,2097,2330
379469,-17884,14880,-17940,14828,94,632,-3539,5253,2871,1376,2358,3245,52,48,911,1834,1963,2301,2490,2180,1905,1875,1989
380470,-17816,14940,-17875,14893,290,538,-3776,5352,2921,1191,2271,3109,52,49,909,1834,1963,2301,2490,2180,1905,1875,1989
381471,-17748,15024,-17810,14958,287,215,-4034,5396,3036,338,1785,3234,36,45,909,1834,1963,2301,2490,2180,1905,1875,1989
382472,-17696,15080,-17745,15023,503,576,-4265,5451,3140,153,1941,3474,40,40,911,1834,1963,2301,2490,2180,1905,1875,1989
383473,-17604,15152,-17680,15088,-30,367,-4447,5428,3234,-28,1795,3256,41,50,908,1834,1963,2301,2490,2180,1905,1875,1989
384474,-17524,15212,-17615,15153,101,523,-4616,5341,3322,-152,1848,3597,52,41,912,2035,2074,2336,2470,1923,1731,1720,1830
385475,-17444,15312,-17550,15218,83,-19,-4744,5220,3408,-353,1784,3798,48,39,910,2035,2074,2336,2470,1923,1731,1720,1830
386476,-17360,15388,-17485,15283,10,267,-4851,5137,3508,-155,1362,3863,38,48,913,2035,2074,2336,2470,1923,1731,1720,1830
387477,-17280,15476,-17420,15348,42,89,-4938,5086,3596,558,1460,3920,35,48,912,2035,2074,2336,2470,1923,1731,1720,1830
388478,-17212,15556,-17355,15413,188,171,-5009,5063,3647,600,1540,3981,49,33,913,2035,2074,2336,2470,1923,1731,1720,1830
389479,-17144,15620,-17290,15478,184,372,-5057,5121,3659,785,1645,4340,32,46,912,2035,2074,2336,2470,1923,1731,1720,1830
390480,-17076,15732,-17225,15543,181,-285,-5058,5215,3648,1263,1670,4309,33,32,911,1692,1725,1979,2083,1950,1748,1753,1929
391481,-17000,15852,-17160,15608,67,-452,-4997,5367,3624,1535,1750,3966,29,46,911,1692,1725,1979,2083,1950,1748,1753,1929
392482,-16948,15960,-17095,15673,383,-355,-4864,5615,3574,2467,1602,3846,29,38,910,1692,1725,1979,2083,1950,1748,1753,1929
393483,-16868,16084,-17030,15738,15,-627,-4716,5722,3426,3355,1467,2624,40,24,909,1692,1725,1979,2083,1950,1748,1753,1929
394484,-16792,16212,-16965,15803,51,-754,-4529,5673,3254,2010,1086,2324,32,29,910,1692,1725,1979,2083,1950,1748,1753,1929
395485,-16740,16264,-16900,15868,366,211,-4405,5637,3114,857,1810,1773,45,26,909,1480,1550,1772,1876,2244,1959,1949,2095
396486,-16660,16276,-16835,15933,-2,776,-4373,5593,3009,1012,2300,2018,45,13,911,1480,1550,1772,1876,2244,1959,1949,2095
397487,-16604,16312,-16770,15998,309,511,-4457,5557,2892,222,2425,1463,29,31,909,1480,1550,1772,1876,2244,1959,1949,2095
398488,-16532,16352,-16705,16063,100,492,-4570,5384,2896,-847,2713,711,47,31,910,1480,1550,1772,1876,2244,1959,1949,2095
399489,-16476,16408,-16640,16128,311,303,-4681,4871,2948,-1445,2636,1002,43,38,910,1480,1550,1772,1876,2244,1959,1949,2095
400490,-16416,16480,-16575,16193,267,94,-4729,4167,3032,-2681,1713,2175,34,28,911,1480,1550,1772,1876,2244,1959,1949,2095
401491,-16336,16536,-16510,16258,-1,305,-4628,3507,3132,-3245,678,2774,41,31,913,1624,1740,1966,2176,2065,1815,1874,1990
402492,-16252,16604,-16445,16323,-74,151,-4442,2924,3244,-2882,106,3959,46,35,912,1624,1740,1966,2176,2065,1815,1874,1990
403493,-16188,16652,-16380,16388,177,421,-4264,2506,3363,-1988,-177,4984,43,27,911,1624,1740,1966,2176,2065,1815,1874,1990
404494,-16132,16724,-16315,16453,288,113,-4132,2214,3490,-568,-396,5108,40,37,911,1624,1740,1966,2176,2065,1815,1874,1990
405495,-16064,16780,-16250,16518,134,324,-4070,1914,3613,268,-548,5234,26,35,911,1624,1740,1966,2176,2065,1815,1874,1990
406496,-16028,16852,-16185,16583,570,115,-4036,1678,3704,776,-847,5598,27,44,911,1922,2099,2258,2390,1882,1634,1787,1967
407497,-15972,16920,-16120,16648,331,161,-4039,1497,3751,1768,-961,5450,29,42,910,1922,2099,2258,2390,1882,1634,1787,1967
408498,-15900,17000,-16055,16713,122,-7,-4048,1277,3768,1898,-1032,5194,36,33,911,1922,2099,2258,2390,1882,1634,1787,1967
409499,-15824,17060,-15990,16778,59,249,-4041,1026,3749,1331,-1197,5640,30,34,913,1922,2099,2258,2390,1882,1634,1787,1967
410500,-15784,17144,-15925,16843,538,-74,-4040,768,3684,1325,-1132,5791,47,35,911,1922,2099,2258,2390,1882,1634,1787,1967
411501,-15708,17228,-15860,16908,75,-97,-4023,370,3582,934,-783,5020,44,33,910,1922,2099,2258,2390,1882,1634,1787,1967
412502,-15648,17288,-15795,16973,281,209,-3970,-188,3451,-286,-774,4879,36,46,912,2458,2611,2617,2727,1807,1586,1815,2023
413503,-15580,17372,-15730,17038,177,-115,-3863,-764,3321,-938,-790,5348,34,40,911,2458,2611,2617,2727,1807,1586,1815,2023
414504,-15520,17436,-15665,17103,283,136,-3729,-1386,3197,-923,-575,5246,35,35,912,2458,2611,2617,2727,1807,1586,1815,2023
415505,-15416,17508,-15600,17168,-314,27,-3556,-2000,3091,-1342,-634,5211,42,43,912,2458,2611,2617,2727,1807,1586,1815,2023
416506,-15360,17568,-15535,17233,297,184,-3353,-2586,3015,-1822,-448,5930,50,39,913,2458,2611,2617,2727,1807,1586,1815,2023
417507,-15300,17652,-15470,17298,253,-140,-3157,-3049,2965,-1900,-214,6632,40,31,913,2389,2492,2464,2602,2055,1801,2027,2185
418508,-15236,17704,-15405,17363,204,276,-2970,-3398,2927,-1406,-332,6934,43,44,912,2389,2492,2464,2602,2055,1801,2027,2185
419509,-15184,17732,-15340,17428,370,621,-2796,-3695,2928,-932,-412,6921,49,35,911,2389,2492,2464,2602,2055,1801,2027,2185
420510,-15112,17760,-15275,17493,112,666,-2613,-3900,2939,-948,-173,7355,37,38,908,2389,2492,2464,2602,2055,1801,2027,2185
421511,-15048,17796,-15210,17558,213,601,-2372,-3939,2929,-1002,-483,8086,49,50,909,2389,2492,2464,2602,2055,1801,2027,2185
422512,-14984,17864,-15145,17623,214,197,-2112,-3915,2926,-447,-997,8464,38,37,910,2389,2492,2464,2602,2055,1801,2027,2185
423513,-14904,17964,-15080,17688,-4,-245,-1819,-3830,2928,130,-1022,8087,37,52,912,2134,2266,2295,2501,2148,1926,2087,2169
424514,-14844,18044,-15015,17753,252,-14,-1500,-3720,2936,514,-1439,8780,54,45,912,2134,2266,2295,2501,2148,1926,2087,2169
425515,-14760,18140,-14950,17818,-72,-252,-1204,-3693,2961,-71,-2111,8540,50,42,912,2134,2266,2295,2501,2148,1926,2087,2169
426516,-14708,18212,-14885,17883,343,40,-898,-3687,2960,-687,-2416,8717,35,45,911,2134,2266,2295,2501,2148,1926,2087,2169
427517,-14628,18292,-14820,17948,-25,-78,-639,-3643,2920,-484,-2578,8772,36,39,911,2134,2266,2295,2501,2148,1926,2087,2169
428518,-14564,18360,-14755,18013,176,68,-504,-3541,2844,-170,-2427,8827,43,34,913,1985,2068,2280,2646,2045,1895,1921,1873
429519,-14484,18428,-14690,18078,-42,63,-500,-3413,2748,-28,-2272,8694,33,46,912,1985,2068,2280,2646,2045,1895,1921,1873
430520,-14420,18476,-14625,18143,159,334,-602,-3290,2627,-148,-2204,8215,34,39,913,1985,2068,2280,2646,2045,1895,1921,1873
431521,-14360,18536,-14560,18208,215,190,-738,-3156,2503,-365,-2348,8638,46,41,911,1985,2068,2280,2646,2045,1895,1921,1873
432522,-14284,18576,-14495,18273,2,471,-826,-2981,2366,-117,-2449,8579,48,33,911,1985,2068,2280,2646,2045,1895,1921,1873
433523,-14232,18644,-14430,18338,318,117,-874,-2767,2221,-159,-2649,8579,29,44,911,1985,2068,2280,2646,2045,1895,1921,1873
434524,-14168,18704,-14365,18403,169,223,-851,-2501,2093,2,-2963,8442,42,39,911,2272,2233,2545,3081,1905,1858,1866,1839
435525,-14112,18744,-14300,18468,280,504,-744,-2217,1978,307,-3156,8334,25,31,912,2272,2233,2545,3081,1905,1858,1866,1839
436526,-14060,18796,-14235,18533,346,369,-570,-1913,1878,404,-3251,7990,29,42,910,2272,2233,2545,3081,1905,1858,1866,1839
437527,-14004,18844,-14170,18598,307,439,-384,-1573,1779,423,-2986,7987,38,41,910,2272,2233,2545,3081,1905,1858,1866,1839
438528,-13944,18928,-14105,18663,262,-34,-222,-1136,1701,1032,-2709,7603,28,46,910,2272,2233,2545,3081,1905,1858,1866,1839
439529,-13892,19004,-14040,18728,378,53,-75,-717,1630,1485,-2463,6973,41,44,912,2238,2202,2519,2974,2138,2033,2049,2045
440530,-13844,19060,-13975,18793,449,314,50,-367,1589,1130,-2168,6556,22,40,911,2238,2202,2519,2974,2138,2033,2049,2045
441531,-13800,19124,-13910,18858,524,215,172,-66,1541,438,-1824,5991,37,35,910,2238,2202,2519,2974,2138,2033,2049,2045
442532,-13732,19184,-13845,18923,221,271,259,266,1491,312,-1398,6139,30,48,910,2238,2202,2519,2974,2138,2033,2049,2045
443533,-13692,19248,-13780,18988,601,222,335,515,1464,880,-1225,5411,29,45,911,2238,2202,2519,2974,2138,2033,2049,2045
444534,-13632,19316,-13715,19053,357,168,411,650,1459,603,-958,5076,41,48,908,2238,2202,2519,2974,2138,2033,2049,2045
445535,-13584,19388,-13650,19118,528,110,521,748,1432,-54,-779,5460,29,49,911,2112,2126,2319,2642,2167,1975,2037,2044
446536,-13516,19452,-13585,19183,274,211,642,859,1387,28,-856,5190,25,35,910,2112,2126,2319,2642,2167,1975,2037,2044
447537,-13460,19536,-13520,19248,435,-63,764,945,1369,401,-1109,5095,29,37,911,2112,2126,2319,2642,2167,1975,2037,2044
448538,-13408,19588,-13455,19313,501,353,851,1027,1334,762,-975,5249,25,46,911,2112,2126,2319,2642,2167,1975,2037,2044
449539,-13344,19652,-13390,19378,352,204,922,1084,1289,449,-1156,4940,45,46,909,2112,2126,2319,2642,2167,1975,2037,2044
450540,-13288,19712,-13126,19642,706,503,1006,1136,1255,535,-1344,4839,39,43,911,1783,1857,2000,2211,1952,1715,1785,1841
451541,-13216,19768,-13061,19707,498,564,1075,1203,1189,698,-1505,4874,29,45,908,1783,1857,2000,2211,1952,1715,1785,1841
452542,-13160,19836,-12996,19772,709,410,1130,1305,1128,869,-1740,4820,33,45,908,1783,1857,2000,2211,1952,1715,1785,1841
453543,-13088,19900,-12931,19837,500,462,1188,1398,1087,1094,-1813,4437,47,45,907,1783,1857,2000,2211,1952,1715,1785,1841
454546,-13024,19976,-12866,19902,601,298,1227,1449,1063,1002,-1708,3973,39,42,909,1783,1857,2000,2211,1952,1715,1785,1841
455545,-12956,20052,-12801,19967,548,285,1245,1435,1057,656,-1678,3349,50,36,909,1730,1809,1979,2149,1806,1613,1690,1796
456546,-12852,20128,-12736,20032,50,271,1269,1390,1034,432,-1632,2752,53,41,909,1730,1809,1979,2149,1806,1613,1690,1796
457547,-12760,20216,-12671,20097,167,93,1286,1340,1017,391,-1340,2290,49,50,912,1730,1809,1979,2149,1806,1613,1690,1796
458548,-12688,20288,-12606,20162,409,285,1265,1239,1000,212,-1048,1058,40,44,912,1730,1809,1979,2149,1806,1613,1690,1796
459549,-12600,20368,-12541,20227,181,166,1212,1098,990,238,-669,434,53,36,910,1730,1809,1979,2149,1806,1613,1690,1796
460550,-12492,20444,-12476,20292,-122,203,1113,921,1004,-2,-632,-167,44,52,912,1730,1809,1979,2149,1806,1613,1690,1796
461551,-12396,20520,-12411,20357,-10,190,1018,760,984,-149,-310,-722,51,34,906,1827,1916,2123,2323,1875,1700,1771,1875
462552,-12316,20592,-12346,20422,172,231,922,642,936,533,-356,-500,38,46,912,1827,1916,2123,2323,1875,1700,1771,1875
463553,-12244,20656,-12281,20487,263,332,821,498,943,947,-723,-915,33,35,912,1827,1916,2123,2323,1875,1700,1771,1875
464554,-12160,20716,-12216,20552,90,387,763,376,963,958,-480,-408,45,47,911,1827,1916,2123,2323,1875,1700,1771,1875
465555,-12092,20792,-12151,20617,286,174,755,317,951,589,-326,-26,48,34,911,1827,1916,2123,2323,1875,1700,1771,1875
466556,-12020,20864,-12086,20682,228,215,792,244,944,284,-394,464,39,43,911,1840,1889,2066,2200,2033,1808,1867,1998
467557,-11936,20924,-12021,20747,55,371,870,152,959,527,-369,888,45,46,912,1840,1889,2066,2200,2033,1808,1867,1998
468558,-11864,20996,-11956,20812,196,213,977,59,970,315,-429,1446,34,47,912,1840,1889,2066,2200,2033,1808,1867,1998
469559,-11816,21064,-11891,20877,517,259,1093,-33,985,45,-477,1719,46,39,911,1840,1889,2066,2200,2033,1808,1867,1998
470560,-11740,21148,-11826,20942,154,36,1213,-125,999,113,-417,1692,38,45,910,1840,1889,2066,2200,2033,1808,1867,1998
471561,-11680,21228,-11761,21007,360,68,1297,-239,1017,-359,-262,1948,42,30,913,1840,1889,2066,2200,2033,1808,1867,1998
472562,-11620,21296,-11696,21072,366,214,1319,-351,1013,-357,-27,1726,31,30,911,1551,1645,1807,1922,1970,1707,1762,1867
473563,-11544,21364,-11631,21137,152,210,1325,-426,1001,-165,73,1983,33,40,911,1551,1645,1807,1922,1970,1707,1762,1867
474564,-11480,21432,-11566,21202,304,207,1309,-499,983,-145,18,1986,34,39,912,1551,1645,1807,1922,1970,1707,1762,1867
475565,-11424,21488,-11501,21267,415,368,1294,-526,966,-35,-19,2213,28,38,911,1551,1645,1807,1922,1970,1707,1762,1867
476566,-11348,21548,-11436,21332,151,324,1258,-539,952,-11,-112,2073,42,35,910,1551,1645,1807,1922,1970,1707,1762,1867
477567,-11304,21596,-11371,21397,577,494,1207,-529,931,174,-272,2060,30,37,911,1543,1647,1811,1962,1877,1654,1728,1838
478568,-11232,21660,-11306,21462,218,295,1146,-470,906,433,-328,2079,30,36,908,1543,1647,1811,1962,1877,1654,1728,1838
479569,-11180,21704,-11241,21527,484,570,1060,-406,884,537,-495,1705,36,43,911,1543,1647,1811,1962,1877,1654,1728,1838
480570,-11104,21780,-11176,21592,171,157,964,-340,865,566,-790,1601,35,27,908,1543,1647,1811,1962,1877,1654,1728,1838
481571,-11036,21848,-11111,21657,267,253,863,-299,855,589,-877,1232,34,44,912,1543,1647,1811,1962,1877,1654,1728,1838
482572,-10976,21892,-11046,21722,373,579,760,-295,855,416,-1162,1113,29,32,911,1543,1647,1811,1962,1877,1654,1728,1838
483573,-10924,21952,-10981,21787,489,385,669,-288,867,208,-1311,981,43,35,909,1748,1842,2074,2289,1932,1757,1805,1913
484574,-10856,22020,-10916,21852,285,281,601,-297,885,244,-1501,993,46,31,910,1748,1842,2074,2289,1932,1757,1805,1913
485575,-10784,22096,-10851,21917,227,168,559,-288,911,155,-1543,1248,47,47,911,1748,1842,2074,2289,1932,1757,1805,1913
486576,-10728,22180,-10786,21982,438,45,538,-273,927,267,-1448,1528,50,36,912,1748,1842,2074,2289,1932,1757,1805,1913
487577,-10668,22236,-10721,22047,394,406,549,-243,934,417,-1388,1849,45,29,911,1748,1842,2074,2289,1932,1757,1805,1913
488578,-10596,22304,-10656,22112,235,252,578,-228,945,287,-1311,2065,49,31,910,1869,1915,2167,2361,2118,1923,1926,2020
489579,-10544,22372,-10591,22177,501,248,616,-199,945,270,-1159,2595,32,38,911,1869,1915,2167,2361,2118,1923,1926,2020
490580,-10484,22432,-10526,22242,407,354,641,-148,944,348,-1003,3145,34,38,910,1869,1915,2167,2361,2118,1923,1926,2020
491581,-10416,22500,-10461,22307,304,250,666,-65,940,589,-710,3591,37,32,910,1869,1915,2167,2361,2118,1923,1926,2020
492582,-10372,22592,-10396,22372,629,-83,675,43,947,722,-504,4196,44,38,911,1869,1915,2167,2361,2118,1923,1926,2020
493583,-10300,22652,-10331,22437,271,323,686,154,939,738,-281,4700,39,42,910,1869,1915,2167,2361,2118,1923,1926,2020
494584,-10228,22704,-10266,22502,262,439,700,255,939,592,-193,4956,46,40,911,1736,1787,2007,2211,2053,1838,1871,1938
495585,-10196,22752,-10201,22567,802,510,717,357,936,549,-49,5416,30,36,909,1736,1787,2007,2211,2053,1838,1871,1938
496586,-10136,22816,-10136,22632,459,311,740,440,926,533,-10,5586,26,34,907,1736,1787,2007,2211,2053,1838,1871,1938
497587,-10072,22876,-10071,22697,410,367,768,556,917,532,-139,5997,32,42,910,1736,1787,2007,2211,2053,1838,1871,1938
498588,-10024,22932,-10006,22762,630,428,790,678,905,810,-132,5919,34,40,910,1736,1787,2007,2211,2053,1838,1871,1938
499589,-9960,22996,-9941,22827,432,329,809,796,880,805,-326,5941,28,32,908,1668,1754,1949,2163,2057,1844,1899,1984
500590,-9904,23068,-9876,22892,543,221,807,895,851,695,-563,5674,42,27,910,1668,1754,1949,2163,2057,1844,1899,1984
501591,-9856,23108,-9811,22957,663,651,789,986,824,773,-714,5634,36,41,910,1668,1754,1949,2163,2057,1844,1899,1984
502592,-9800,23156,-9746,23022,574,572,768,1069,798,854,-961,5328,26,41,906,1668,1754,1949,2163,2057,1844,1899,1984
503593,-9740,23240,-9681,23087,531,99,741,1108,783,657,-1298,4996,42,41,908,1668,1754,1949,2163,2057,1844,1899,1984
504595,-9700,23300,-9616,23152,811,404,722,1138,763,641,-1574,4853,29,33,910,1668,1754,1949,2163,2057,1844,1899,1984
505595,-9640,23364,-9551,23217,567,355,713,1154,757,614,-1776,4703,29,35,907,1879,1994,2250,2516,2130,1933,1982,2098
506596,-9588,23416,-9486,23282,683,521,712,1141,754,674,-1887,4550,45,35,909,1879,1994,2250,2516,2130,1933,1982,2098
507597,-9532,23480,-9421,23347,644,372,720,1122,747,708,-1916,4594,29,42,907,1879,1994,2250,2516,2130,1933,1982,2098
508598,-9476,23540,-9356,23412,655,428,726,1099,744,782,-1905,4633,46,44,908,1879,1994,2250,2516,2130,1933,1982,2098
509599,-9424,23608,-9291,23477,721,325,741,1080,742,932,-1851,4790,46,37,908,1879,1994,2250,2516,2130,1933,1982,2098
510600,-9360,23660,-9226,23542,572,540,736,1057,722,1039,-1612,4872,46,37,908,2088,2170,2431,2658,2215,1994,2029,2131
511601,-9304,23712,-9161,23607,683,556,727,1027,692,973,-1355,5083,37,42,908,2088,2170,2431,2658,2215,1994,2029,2131
512602,-9228,23776,-9096,23672,420,408,698,980,674,950,-1122,5305,32,33,906,2088,2170,2431,2658,2215,1994,2029,2131
513603,-9192,23836,-9031,23737,955,464,666,908,658,969,-931,5521,46,44,909,2088,2170,2431,2658,2215,1994,2029,2131
514604,-9128,23908,-8966,23802,606,305,627,815,626,1004,-677,5945,30,37,905,2088,2170,2431,2658,2215,1994,2029,2131
515605,-9072,23956,-8901,23867,717,626,585,723,593,752,-531,6279,32,31,909,2088,2170,2431,2658,2215,1994,2029,2131
516606,-9016,24040,-8836,23932,728,153,562,658,573,821,-389,6634,30,32,906,2018,2082,2260,2450,2106,1880,1954,2064
517607,-8968,24088,-8771,23997,849,623,565,593,556,1063,-142,6837,30,30,908,2018,2082,2260,2450,2106,1880,1954,2064
518608,-8904,24144,-8706,24062,650,534,592,537,537,936,-182,6983,44,34,905,2018,2082,2260,2450,2106,1880,1954,2064
519609,-8852,24204,-8641,24127,816,491,628,469,523,640,-93,7017,46,37,907,2018,2082,2260,2450,2106,1880,1954,2064
520610,-8784,24264,-8576,24192,613,497,670,428,490,411,-79,7142,44,45,906,2018,2082,2260,2450,2106,1880,1954,2064
521611,-8732,24344,-8511,24257,829,228,711,397,443,764,-436,6566,46,45,908,1775,1876,2035,2197,2163,1905,1988,2133
522612,-8676,24404,-8446,24322,790,484,738,326,403,760,-539,6410,30,43,907,1775,1876,2035,2197,2163,1905,1988,2133
523613,-8604,24456,-8381,24387,582,600,751,244,376,131,-619,5909,43,46,906,1775,1876,2035,2197,2163,1905,1988,2133
524614,-8540,24532,-8316,24452,683,287,761,172,344,38,-785,5556,37,43,907,1775,1876,2035,2197,2163,1905,1988,2133
525615,-8480,24584,-8251,24517,739,603,761,112,324,94,-956,5149,28,43,908,1775,1876,2035,2197,2163,1905,1988,2133
526616,-8400,24640,-8186,24582,471,564,768,46,316,-7,-1143,4615,37,38,906,1775,1876,2035,2197,2163,1905,1988,2133
527617,-8348,24720,-8121,24647,837,245,762,-26,310,-215,-1202,4287,35,42,908,1836,1973,2188,2362,2242,1991,2045,2208
528618,-8284,24768,-8056,24712,688,666,747,-98,292,-89,-1159,4048,36,44,907,1836,1973,2188,2362,2242,1991,2045,2208
529619,-8232,24836,-7991,24777,854,411,712,-185,288,-231,-1268,3608,50,35,905,1836,1973,2188,2362,2242,1991,2045,2208
530620,-8160,24904,-7926,24842,595,408,664,-263,285,-303,-1139,3675,50,34,907,1836,1973,2188,2362,2242,1991,2045,2208
531621,-8088,24964,-7861,24907,587,514,610,-298,276,-36,-962,3739,53,33,908,1836,1973,2188,2362,2242,1991,2045,2208
532622,-8052,25032,-7796,24972,1073,410,545,-341,266,60,-910,3470,34,38,908,1954,2055,2301,2488,2188,1949,1969,2076
533623,-7968,25088,-7731,25037,450,571,458,-392,256,52,-735,3512,47,40,905,1954,2055,2301,2488,2188,1949,1969,2076
534624,-7904,25144,-7666,25102,701,582,369,-430,239,-34,-574,3778,49,48,908,1954,2055,2301,2488,2188,1949,1969,2076
535625,-7844,25224,-7601,25167,757,264,281,-427,215,94,-410,3995,44,33,907,1954,2055,2301,2488,2188,1949,1969,2076
536626,-7788,25304,-7536,25232,818,246,214,-443,187,315,-185,4104,39,39,908,1954,2055,2301,2488,2188,1949,1969,2076
537627,-7732,25372,-7471,25297,829,392,157,-439,167,148,-140,4504,37,37,908,1954,2055,2301,2488,2188,1949,1969,2076
538628,-7668,25448,-7406,25362,730,279,130,-402,137,163,-9,4749,48,39,907,1891,1936,2141,2307,2028,1825,1851,1946
539629,-7584,25500,-7341,25427,457,594,134,-369,119,308,173,4720,50,40,908,1891,1936,2141,2307,2028,1825,1851,1946
540630,-7532,25560,-7276,25492,873,500,159,-354,102,121,361,5003,32,42,908,1891,1936,2141,2307,2028,1825,1851,1946
541631,-7472,25644,-7211,25557,779,177,175,-327,78,-199,413,4964,40,36,906,1891,1936,2141,2307,2028,1825,1851,1946
542632,-7408,25720,-7146,25622,730,264,209,-309,67,-264,193,4580,45,48,908,1891,1936,2141,2307,2028,1825,1851,1946
543633,-7344,25776,-7081,25687,733,525,245,-310,68,-105,315,4434,37,41,908,1666,1732,1938,2109,2027,1814,1843,1945
544634,-7284,25844,-7016,25752,789,371,287,-292,65,-364,511,4248,31,32,907,1666,1732,1938,2109,2027,1814,1843,1945
545635,-7216,25896,-6951,25817,685,587,296,-261,63,-538,431,3888,33,42,907,1666,1732,1938,2109,2027,1814,1843,1945
546636,-7164,25964,-6886,25882,901,383,294,-216,64,-244,546,3509,33,30,906,1666,1732,1938,2109,2027,1814,1843,1945
547637,-7112,26028,-6821,25947,917,435,291,-182,53,-252,705,3205,49,32,906,1666,1732,1938,2109,2027,1814,1843,1945
548638,-7028,26088,-6756,26012,494,491,289,-163,44,-525,470,2835,35,32,906,1666,1732,1938,2109,2027,1814,1843,1945
549639,-6960,26128,-6691,26077,690,771,295,-124,43,-624,443,2665,44,42,909,1721,1811,2051,2248,2096,1884,1916,2033
550640,-6916,26204,-6626,26142,1016,308,304,-77,31,-354,514,2453,48,33,906,1721,1811,2051,2248,2096,1884,1916,2033
551641,-6856,26272,-6561,26207,822,404,317,-15,20,-288,213,2445,50,45,906,1721,1811,2051,2248,2096,1884,1916,2033
552642,-6780,26316,-6496,26272,608,730,302,39,13,-97,344,2155,52,45,907,1721,1811,2051,2248,2096,1884,1916,2033
553643,-6724,26392,-6431,26337,870,316,279,98,-8,-154,563,2306,49,33,906,1721,1811,2051,2248,2096,1884,1916,2033
554644,-6668,26460,-6366,26402,881,413,236,147,-22,-429,229,2073,33,29,907,1848,1937,2192,2388,2051,1837,1851,1948
555645,-6584,26516,-6301,26467,508,574,195,192,-42,-129,234,2345,36,47,906,1848,1937,2192,2388,2051,1837,1851,1948
556646,-6532,26584,-6236,26532,924,420,175,212,-60,-62,222,2463,46,42,908,1848,1937,2192,2388,2051,1837,1851,1948
557647,-6480,26652,-6171,26597,940,416,155,228,-69,-152,247,2762,28,43,906,1848,1937,2192,2388,2051,1837,1851,1948
558648,-6412,26696,-6106,26662,736,742,156,263,-92,-127,412,3104,27,30,906,1848,1937,2192,2388,2051,1837,1851,1948
559649,-6352,26748,-6041,26727,842,658,156,277,-111,-111,459,3246,29,40,905,1848,1937,2192,2388,2051,1837,1851,1948
560650,-6300,26816,-5976,26792,958,454,170,298,-128,29,720,3594,32,30,905,1853,1898,2123,2292,1932,1743,1767,1857
561651,-6248,26884,-5911,26857,974,451,193,338,-147,89,811,3723,42,37,905,1853,1898,2123,2292,1932,1743,1767,1857
562652,-6200,26940,-5846,26922,1046,612,225,381,-174,283,941,3709,34,33,905,1853,1898,2123,2292,1932,1743,1767,1857
563653,-6152,26984,-5781,26987,1066,787,250,398,-183,68,1141,3788,30,32,902,1853,1898,2123,2292,1932,1743,1767,1857
564654,-6092,27048,-5716,27052,922,538,273,390,-192,-120,1326,3623,47,46,902,1853,1898,2123,2292,1932,1743,1767,1857
565655,-6024,27120,-5651,27117,819,430,291,385,-208,-225,1365,3556,42,40,905,1724,1784,1995,2179,1911,1727,1771,1863
566656,-5972,27184,-5586,27182,1035,531,302,387,-216,-74,1400,3487,32,38,906,1724,1784,1995,2179,1911,1727,1771,1863
567657,-5928,27260,-5521,27247,1160,368,326,391,-218,141,1400,3104,46,33,904,1724,1784,1995,2179,1911,1727,1771,1863
568658,-5868,27328,-5456,27312,966,464,366,390,-215,-111,1476,3262,46,40,904,1724,1784,1995,2179,1911,1727,1771,1863
569659,-5788,27388,-5391,27377,699,570,417,387,-210,-268,1454,2998,32,33,905,1724,1784,1995,2179,1911,1727,1771,1863
570660,-5748,27444,-5326,27442,1230,631,474,389,-215,-223,1363,3072,35,33,907,1724,1784,1995,2179,1911,1727,1771,1863
571661,-5680,27496,-5261,27507,876,697,540,393,-213,-195,1256,2861,33,44,902,1754,1830,2053,2248,2035,1834,1880,1999
572662,-5644,27552,-5196,27572,1311,658,607,383,-209,-211,1151,2819,43,44,904,1754,1830,2053,2248,2035,1834,1880,1999
573663,-5584,27648,-5131,27637,1017,120,658,373,-212,-301,1013,2699,43,35,901,1754,1830,2053,2248,2035,1834,1880,1999
574664,-5504,27704,-5066,27702,749,631,702,360,-216,-103,1001,2608,31,45,906,1754,1830,2053,2248,2035,1834,1880,1999
575665,-5460,27752,-5001,27767,1226,752,723,347,-220,-160,889,2717,36,34,906,1754,1830,2053,2248,2035,1834,1880,1999
576666,-5400,27816,-4936,27832,1032,553,735,350,-233,-162,886,2737,26,36,901,1849,1943,2189,2375,2039,1827,1858,1970
577667,-5340,27904,-4871,27897,1038,225,741,341,-234,-245,829,2888,47,35,904,1849,1943,2189,2375,2039,1827,1858,1970
578668,-5288,27956,-4806,27962,1154,691,742,332,-239,-177,770,3059,41,46,905,1849,1943,2189,2375,2039,1827,1858,1970
579669,-5232,28028,-4741,28027,1115,432,735,322,-248,-24,815,3344,34,45,902,1849,1943,2189,2375,2039,1827,1858,1970
580670,-5188,28092,-4676,28092,1291,534,732,325,-244,27,849,3428,38,39,903,1849,1943,2189,2375,2039,1827,1858,1970
581671,-5148,28140,-4611,28157,1372,754,738,326,-242,19,1045,3691,42,41,902,1849,1943,2189,2375,2039,1827,1858,1970
582672,-5084,28204,-4546,28222,1073,555,730,305,-249,-20,1005,3785,39,38,900,1892,1958,2182,2344,1974,1768,1807,1916
583673,-5020,28272,-4481,28287,1074,502,722,294,-253,63,1090,4093,40,35,903,1892,1958,2182,2344,1974,1768,1807,1916
584674,-4968,28344,-4416,28352,1240,443,712,297,-250,148,1111,4158,31,49,904,1892,1958,2182,2344,1974,1768,1807,1916
585675,-4920,28384,-4351,28417,1311,874,717,304,-226,219,966,4239,29,47,903,1892,1958,2182,2344,1974,1768,1807,1916
586676,-4860,28448,-4286,28482,1168,575,733,371,-202,666,1134,4288,38,35,899,1892,1958,2182,2344,1974,1768,1807,1916
587677,-4796,28508,-4221,28547,1119,631,761,418,-206,371,1318,4361,34,41,903,1824,1883,2105,2283,1971,1781,1826,1934
588678,-4752,28564,-4156,28612,1395,692,782,380,-219,-207,1295,4242,34,33,903,1824,1883,2105,2283,1971,1781,1826,1934
589679,-4692,28632,-4091,28677,1201,538,803,305,-213,-356,1590,4335,30,41,900,1824,1883,2105,2283,1971,1781,1826,1934
590680,-4640,28700,-4026,28742,1318,535,823,212,-176,-717,1580,4597,42,40,902,1824,1883,2105,2283,1971,1781,1826,1934
591681,-4584,28744,-3961,28807,1279,860,854,153,-112,-200,1279,4177,47,32,901,1824,1883,2105,2283,1971,1781,1826,1934
592682,-4536,28804,-3896,28872,1400,667,888,116,-37,146,1383,4309,30,33,900,1824,1883,2105,2283,1971,1781,1826,1934
593683,-4472,28880,-3831,28937,1201,453,910,109,24,29,1519,4119,45,32,900,1794,1866,2103,2291,2117,1908,1938,2065
594684,-4424,28936,-3766,29002,1423,714,912,107,46,227,1534,4058,46,46,903,1794,1866,2103,2291,2117,1908,1938,2065
595685,-4360,28984,-3701,29067,1224,835,915,117,79,104,1214,4162,39,32,899,1794,1866,2103,2291,2117,1908,1938,2065
596686,-4292,29036,-3636,29132,1170,801,897,147,104,159,1125,4106,50,40,900,1794,1866,2103,2291,2117,1908,1938,2065
597687,-4256,29088,-3571,29197,1606,817,886,221,106,442,919,4099,38,44,900,1794,1866,2103,2291,2117,1908,1938,2065
598688,-4184,29148,-3506,29262,1148,723,866,297,109,731,880,4033,38,44,897,1857,1943,2206,2383,2175,1943,1955,2099
599689,-4124,29224,-3441,29327,1304,509,866,356,105,419,786,4155,49,47,901,1857,1943,2206,2383,2175,1943,1955,2099
600690,-4056,29280,-3376,29392,1201,770,871,410,105,78,721,4394,38,34,902,1857,1943,2206,2383,2175,1943,1955,2099
601691,-4004,29340,-3311,29457,1416,726,890,447,102,96,607,4392,30,46,901,1857,1943,2206,2383,2175,1943,1955,2099
602692,-3952,29384,-3246,29522,1433,952,915,450,113,31,626,4580,39,42,899,1857,1943,2206,2383,2175,1943,1955,2099
603693,-3888,29484,-3181,29587,1285,209,924,429,111,-119,702,4675,42,50,897,1857,1943,2206,2383,2175,1943,1955,2099
604694,-3840,29540,-3116,29652,1505,770,905,363,119,-322,787,4582,48,42,903,1864,1943,2201,2355,2150,1909,1911,2031
605695,-3784,29616,-3051,29717,1416,507,872,313,128,-160,929,4765,32,49,897,1864,1943,2201,2355,2150,1909,1911,2031
606696,-3728,29680,-2986,29782,1428,658,828,274,156,-173,1038,4742,49,49,901,1864,1943,2201,2355,2150,1909,1911,2031
607697,-3676,29744,-2921,29847,1494,659,768,238,182,-95,1202,4885,49,52,899,1864,1943,2201,2355,2150,1909,1911,2031
608698,-3624,29808,-2856,29912,1510,660,701,232,217,29,1315,4964,43,53,899,1864,1943,2201,2355,2150,1909,1911,2031
609699,-3576,29884,-2791,29977,1582,497,628,253,265,195,1338,5103,33,52,899,1857,1933,2179,2359,2065,1856,1889,2010
610700,-3500,29952,-2726,30042,1218,593,564,283,314,383,1417,4895,37,55,899,1857,1933,2179,2359,2065,1856,1889,2010
611701,-3444,30016,-2661,30107,1479,645,500,334,358,499,1332,5123,41,54,902,1857,1933,2179,2359,2065,1856,1889,2010
612702,-3396,30080,-2596,30172,1600,646,446,389,390,753,1236,4979,38,40,899,1857,1933,2179,2359,2065,1856,1889,2010
613703,-3368,30160,-2531,30237,1896,427,404,403,413,508,1275,5020,40,46,898,1857,1933,2179,2359,2065,1856,1889,2010
614704,-3292,30228,-2466,30302,1283,574,378,438,418,585,1267,4841,47,53,895,1857,1933,2179,2359,2065,1856,1889,2010
615705,-3244,30312,-2401,30367,1654,351,360,427,437,512,1147,4900,44,56,901,1822,1899,2142,2310,2171,1951,1968,2116
616706,-3176,30360,-2336,30432,1401,821,374,434,447,564,1096,4746,38,37,899,1822,1899,2142,2310,2171,1951,1968,2116
617707,-3120,30424,-2271,30497,1562,623,393,409,460,450,995,4660,38,50,898,1822,1899,2142,2310,2171,1951,1968,2116
618708,-3052,30492,-2206,30562,1408,569,413,381,479,201,940,4657,45,48,898,1822,1899,2142,2310,2171,1951,1968,2116
619709,-2996,30564,-2141,30627,1570,511,436,337,497,151,1008,4513,40,56,900,1822,1899,2142,2310,2171,1951,1968,2116
620710,-2912,30616,-2076,30692,1197,777,460,304,501,122,998,4591,53,51,899,1813,1900,2172,2326,2250,2008,1998,2151
621711,-2848,30692,-2011,30757,1448,464,477,290,482,186,1010,4496,50,44,901,1813,1900,2172,2326,2250,2008,1998,2151
622712,-2796,30764,-1946,30822,1615,505,484,262,467,152,1111,4316,43,46,901,1813,1900,2172,2326,2250,2008,1998,2151
623713,-2720,30800,-1881,30887,1302,991,476,264,434,210,1277,4406,40,40,899,1813,1900,2172,2326,2250,2008,1998,2151
624714,-2652,30864,-1816,30952,1398,642,446,272,411,107,1191,4254,57,44,898,1813,1900,2172,2326,2250,2008,1998,2151
625715,-2580,30952,-1751,31017,1340,314,405,291,374,292,1507,4363,55,40,900,1813,1900,2172,2326,2250,2008,1998,2151
626716,-2504,31028,-1686,31082,1277,450,342,308,357,245,1392,4316,55,59,902,1826,1921,2186,2347,2172,1923,1930,2049
627717,-2436,31092,-1621,31147,1373,602,254,327,341,293,1470,4375,39,54,902,1826,1921,2186,2347,2172,1923,1930,2049
628718,-2380,31156,-1556,31212,1534,603,176,351,318,308,1593,4371,39,53,900,1826,1921,2186,2347,2172,1923,1930,2049
629719,-2336,31232,-1491,31277,1711,439,78,356,329,177,1440,4435,47,51,899,1826,1921,2186,2347,2172,1923,1930,2049
630720,-2268,31292,-1426,31342,1407,646,7,371,335,272,1597,4500,34,58,898,1826,1921,2186,2347,2172,1923,1930,2049
631721,-2192,31364,-1361,31407,1294,487,-61,380,332,214,1519,4623,52,58,899,1867,1947,2187,2358,2060,1853,1878,2001
632722,-2116,31452,-1296,31472,1281,259,-103,386,332,311,1450,4581,54,57,902,1867,1947,2187,2358,2060,1853,1878,2001
633723,-2052,31528,-1231,31537,1433,395,-131,390,342,236,1426,4607,34,43,903,1867,1947,2187,2358,2060,1853,1878,2001
634724,-2004,31596,-1166,31602,1653,492,-137,395,352,274,1222,4448,39,40,901,1867,1947,2187,2358,2060,1853,1878,2001
635725,-1940,31668,-1101,31667,1456,433,-142,409,345,358,1151,4552,37,53,898,1867,1947,2187,2358,2060,1853,1878,2001
636726,-1888,31744,-1036,31732,1622,370,-129,414,339,408,1202,4320,43,46,900,1867,1947,2187,2358,2060,1853,1878,2001
637727,-1832,31804,-971,31797,1583,576,-115,412,321,412,1305,4256,36,50,899,1792,1871,2126,2286,2101,1893,1898,2030
638728,-1764,31864,-906,31862,1430,582,-95,396,295,243,1303,4083,38,54,898,1792,1871,2126,2286,2101,1893,1898,2030
639729,-1704,31932,-841,31927,1536,478,-73,392,266,247,1437,4044,50,43,900,1792,1871,2126,2286,2101,1893,1898,2030
640730,-1608,31984,-776,31992,1048,694,-58,382,238,298,1499,3812,53,42,899,1792,1871,2126,2286,2101,1893,1898,2030
641731,-1544,32068,-711,32057,1450,271,-42,382,203,217,1581,3827,39,56,903,1792,1871,2126,2286,2101,1893,1898,2030
642732,-1488,32144,-646,32122,1561,358,-21,384,157,197,1614,3623,46,41,901,1785,1866,2130,2296,2126,1912,1916,2039
643733,-1424,32212,-581,32187,1463,454,-7,391,102,273,1680,3693,36,42,899,1785,1866,2130,2296,2126,1912,1916,2039
644734,-1344,32284,-516,32252,1245,395,-4,397,43,232,1729,3424,53,54,900,1785,1866,2130,2296,2126,1912,1916,2039
645735,-1264,32348,-451,32317,1227,497,-18,403,-35,228,1910,3408,40,39,903,1785,1866,2130,2296,2126,1912,1916,2039
646736,-1196,32420,-386,32382,1373,388,-37,428,-99,133,1845,3353,50,51,902,1785,1866,2130,2296,2126,1912,1916,2039
647737,-1144,32496,-321,32447,1589,325,-63,465,-147,246,1813,3521,54,52,902,1785,1866,2130,2296,2126,1912,1916,2039
648738,-1060,32560,-256,32512,1167,476,-94,499,-180,334,1774,3639,53,45,899,1807,1891,2142,2324,2061,1845,1865,1968
649739,-992,32624,-191,32577,1363,477,-130,518,-210,239,1833,3382,39,46,903,1807,1891,2142,2324,2061,1845,1865,1968
650740,-936,32692,-126,32642,1524,423,-175,524,-236,-56,1739,3350,40,53,901,1807,1891,2142,2324,2061,1845,1865,1968
651741,-860,32748,-61,32707,1262,584,-208,548,-253,-51,1486,3587,40,55,900,1807,1891,2142,2324,2061,1845,1865,1968
652742,-796,32828,4,32772,1413,266,-245,571,-263,164,1419,3584,47,51,901,1807,1891,2142,2324,2061,1845,1865,1968
653743,-736,32904,69,32837,1469,303,-263,591,-274,164,1381,3570,38,40,902,1827,1903,2142,2314,2002,1805,1831,1946
654744,-664,32968,134,32902,1312,454,-270,597,-295,-12,1346,3484,47,43,901,1827,1903,2142,2314,2002,1805,1831,1946
655745,-608,33036,199,32967,1523,399,-277,599,-315,-109,1198,3410,41,46,902,1827,1903,2142,2314,2002,1805,1831,1946
656746,-524,33104,264,33032,1149,396,-281,622,-349,125,1209,3626,40,39,900,1827,1903,2142,2314,2002,1805,1831,1946
657747,-464,33176,329,33097,1457,337,-285,643,-380,367,1108,3477,50,53,904,1827,1903,2142,2314,2002,1805,1831,1946
658748,-392,33244,394,33162,1298,383,-277,654,-402,324,1096,3440,45,54,901,1827,1903,2142,2314,2002,1805,1831,1946
659749,-316,33308,459,33227,1235,435,-276,667,-438,242,1230,3423,42,54,902,1770,1850,2099,2261,2015,1817,1831,1954
660750,-228,33372,524,33292,1056,436,-266,684,-468,183,1232,3351,46,42,903,1770,1850,2099,2261,2015,1817,1831,1954
661751,-156,33448,589,33357,1249,272,-257,691,-511,273,1453,3330,59,43,904,1770,1850,2099,2261,2015,1817,1831,1954
662752,-84,33500,654,33422,1240,588,-247,694,-566,234,1457,3105,55,35,904,1770,1850,2099,2261,2015,1817,1831,1954
663753,-8,33576,719,33487,1177,275,-243,683,-616,281,1556,3210,53,38,902,1770,1850,2099,2261,2015,1817,1831,1954
664754,52,33656,784,33552,1384,207,-231,686,-666,168,1605,3027,55,37,904,1758,1831,2079,2245,2063,1857,1875,1989
665755,140,33724,849,33617,1006,353,-233,703,-712,324,1659,3015,49,39,901,1758,1831,2079,2245,2063,1857,1875,1989
666756,224,33788,914,33682,1033,404,-255,695,-769,397,1811,2914,55,53,905,1758,1831,2079,2245,2063,1857,1875,1989
667757,284,33856,979,33747,1339,350,-260,670,-840,140,1962,2524,46,49,905,1758,1831,2079,2245,2063,1857,1875,1989
668758,340,33908,1044,33812,1401,566,-288,624,-870,-111,1635,2788,53,51,903,1758,1831,2079,2245,2063,1857,1875,1989
669759,424,33988,1109,33877,1028,198,-321,644,-883,92,1582,2925,38,53,901,1765,1846,2089,2268,2054,1842,1866,1989
670760,500,34044,1174,33942,1114,509,-357,656,-900,382,1662,2824,45,40,906,1765,1846,2089,2268,2054,1842,1866,1980
671761,560,34112,1239,34007,1320,355,-370,626,-918,23,1637,2597,42,47,903,1765,1846,2089,2268,2054,1842,1866,1980
672762,648,34200,1304,34072,943,77,-373,592,-938,-354,1439,2873,35,51,902,1765,1846,2089,2268,2054,1842,1866,1980
673763,704,34252,1369,34137,1354,543,-382,587,-938,-246,1074,2885,41,57,906,1765,1846,2089,2268,2054,1842,1866,1980
674764,764,34312,1434,34202,1310,449,-383,618,-933,429,935,3084,52,45,901,1765,1846,2089,2268,2054,1842,1866,1980
675765,844,34376,1499,34267,1042,400,-399,646,-930,429,913,3117,34,40,902,1769,1852,2088,2241,2030,1812,1836,1963
676766,912,34448,1564,34332,1189,292,-415,646,-947,-16,1119,3013,39,42,904,1769,1852,2088,2241,2030,1812,1836,1963
677767,1004,34552,1629,34397,856,-156,-429,618,-976,-269,1056,2965,55,55,904,1769,1852,2088,2241,2030,1812,1836,1963
678768,1056,34632,1694,34462,1372,126,-439,595,-994,-298,716,3177,50,41,907,1769,1852,2088,2241,2030,1812,1836,1963
679771,1132,34700,1759,34527,1059,272,-455,616,-998,368,597,3333,52,46,903,1769,1852,2088,2241,2030,1812,1836,1963
680770,1196,34768,1824,34592,1211,268,-473,646,-999,427,920,3325,54,51,905,1750,1836,2075,2225,1994,1783,1811,1935
681771,1288,34852,1889,34657,828,44,-502,623,-1019,-114,1090,2928,51,41,904,1750,1836,2075,2225,1994,1783,1811,1935
682772,1368,34928,1954,34722,960,131,-511,589,-1069,-356,1075,3293,54,50,907,1750,1836,2075,2225,1994,1783,1811,1935
683773,1452,34988,2019,34787,887,337,-535,574,-1093,-33,1091,3215,50,48,907,1750,1836,2075,2225,1994,1783,1811,1935
684774,1508,35064,2084,34852,1248,124,-558,561,-1105,347,1145,3091,40,44,906,1750,1836,2075,2225,1994,1783,1811,1935
685775,1588,35132,2149,34917,930,220,-596,551,-1114,200,1173,3105,52,42,904,1750,1836,2075,2225,1994,1783,1811,1935
686776,1672,35180,2214,34982,857,491,-610,520,-1155,157,1537,3124,49,42,906,1756,1831,2066,2232,2040,1828,1863,1987
687777,1772,35256,2279,35047,614,127,-639,479,-1182,-288,1358,2812,44,46,906,1756,1831,2066,2232,2040,1828,1863,1987
688778,1848,35332,2344,35112,901,114,-654,471,-1190,82,1256,3241,45,42,909,1756,1831,2066,2232,2040,1828,1863,1987
689779,1912,35400,2409,35177,1052,210,-670,464,-1191,329,1135,3066,41,45,907,1756,1831,2066,2232,2040,1828,1863,1987
690780,2000,35472,2474,35242,725,152,-674,462,-1186,203,1183,3026,40,39,905,1756,1831,2066,2232,2040,1828,1863,1987
691781,2072,35548,2539,35307,917,88,-685,448,-1178,-77,1065,3099,51,51,908,1774,1852,2093,2270,2092,1873,1901,2028
692782,2164,35620,2604,35372,634,129,-684,428,-1183,-24,1095,3060,38,41,907,1774,1852,2093,2270,2092,1873,1901,2028
693783,2232,35688,2669,35437,930,175,-693,403,-1160,-151,934,3155,38,44,909,1774,1852,2093,2270,2092,1873,1901,2028
694784,2308,35764,2734,35502,817,62,-679,361,-1129,-38,882,3003,45,39,906,1774,1852,2093,2270,2092,1873,1901,2028
695785,2396,35836,2799,35567,639,103,-683,342,-1122,-137,817,3279,38,46,908,1774,1852,2093,2270,2092,1873,1901,2028
696786,2468,35900,2864,35632,831,204,-684,326,-1121,-134,740,3218,45,42,909,1774,1852,2093,2270,2092,1873,1901,2028
697787,2548,35988,2929,35697,713,-124,-681,308,-1097,-112,585,3357,46,53,908,1774,1855,2095,2256,2095,1862,1881,2011
698788,2636,36048,2994,35762,585,232,-689,301,-1073,-172,675,3673,55,54,909,1774,1855,2095,2256,2095,1862,1881,2011
699789,2708,36116,3059,35827,776,129,-711,295,-1068,-124,387,3386,50,41,908,1774,1855,2095,2256,2095,1862,1881,2011
700790,2784,36192,3258,36026,876,179,-736,270,-1058,-135,559,3653,38,37,908,1774,1855,2095,2256,2095,1862,1881,2011
701791,2864,36268,3323,36091,808,165,-772,261,-1053,-238,692,3656,37,49,907,1774,1855,2095,2256,2095,1862,1881,2011
702792,2940,36340,3388,36156,845,206,-813,251,-1040,-374,646,3768,56,58,908,1779,1863,2100,2256,2023,1799,1836,1967
703793,3032,36392,3453,36221,612,472,-850,251,-1035,-122,678,3854,43,45,908,1779,1863,2100,2256,2023,1799,1836,1967
704794,3128,36468,3518,36286,525,158,-893,239,-1029,-68,616,3674,45,43,908,1779,1863,2100,2256,2023,1799,1836,1967
705795,3220,36532,3583,36351,542,310,-919,223,-1031,-169,805,4065,44,54,910,1779,1863,2100,2256,2023,1799,1836,1967
706796,3320,36604,3648,36416,399,201,-950,207,-1039,-123,756,3637,48,47,909,1779,1863,2100,2256,2023,1799,1836,1967
707797,3400,36700,3713,36481,631,-137,-994,185,-1061,-62,662,3752,49,59,910,1779,1863,2100,2256,2023,1799,1836,1967
708798,3476,36800,3778,36546,667,-230,-1037,202,-1059,-129,564,3711,49,54,909,1781,1859,2086,2250,2059,1834,1878,2014
709799,3564,36864,3843,36611,490,222,-1062,168,-1080,-29,789,3591,42,51,909,1781,1859,2086,2250,2059,1834,1878,2014
710800,3644,36944,3908,36676,572,3,-1078,139,-1098,-380,722,3674,44,45,910,1781,1859,2086,2250,2059,1834,1878,2014
711801,3724,37020,3973,36741,553,40,-1086,101,-1079,-287,563,3562,50,55,910,1781,1859,2086,2250,2059,1834,1878,2014
712802,3816,37120,4038,36806,370,-303,-1080,97,-1053,-142,643,3753,54,60,910,1781,1859,2086,2250,2059,1834,1878,2014
713803,3900,37200,4103,36871,447,-72,-1057,100,-1034,-169,635,3719,52,45,910,1797,1876,2112,2285,2126,1899,1933,2068
714804,4012,37280,4168,36936,40,-90,-1024,76,-1008,-334,684,3655,55,48,911,1797,1876,2112,2285,2126,1899,1933,2068
715805,4088,37340,4233,37001,477,166,-988,51,-962,-534,482,3671,51,57,912,1797,1876,2112,2285,2126,1899,1933,2068
716806,4168,37412,4298,37066,408,7,-955,50,-912,-436,446,3802,55,53,909,1797,1876,2112,2285,2126,1899,1933,2068
717807,4248,37484,4363,37131,390,-1,-928,30,-880,-308,506,3560,48,50,911,1797,1876,2112,2285,2126,1899,1933,2068
718808,4336,37576,4428,37196,262,-284,-907,25,-873,-389,548,3930,36,47,911,1797,1876,2112,2285,2126,1899,1933,2068
719809,4428,37656,4493,37261,179,-153,-905,-20,-869,-472,518,3579,36,43,910,1795,1876,2113,2293,2103,1869,1896,2003
720810,4512,37728,4558,37326,256,-62,-917,-25,-872,-547,355,3895,49,46,912,1795,1876,2113,2293,2103,1869,1896,2003
721811,4568,37812,4623,37391,617,-235,-932,-37,-878,-351,384,3854,36,46,912,1795,1876,2113,2293,2103,1869,1896,2003
722812,4652,37896,4688,37456,243,-259,-955,-15,-888,-281,465,4209,51,51,909,1795,1876,2113,2293,2103,1869,1896,2003
723813,4728,37972,4753,37521,330,-172,-979,-14,-890,-270,378,4127,35,56,911,1795,1876,2113,2293,2103,1869,1896,2003
724814,4820,38044,4818,37586,97,-131,-1003,-25,-904,-470,250,4033,36,41,911,1830,1899,2124,2311,1998,1785,1829,1940
725815,4892,38124,4883,37651,339,-249,-1005,-13,-910,-383,120,4152,34,38,912,1830,1899,2124,2311,1998,1785,1829,1940
726816,4956,38188,4948,37716,440,-49,-1010,11,-911,-131,122,4095,29,39,911,1830,1899,2124,2311,1998,1785,1829,1940
727817,5048,38264,5013,37781,57,-212,-1009,51,-913,21,210,4138,47,52,911,1830,1899,2124,2311,1998,1785,1829,1940
728818,5128,38340,5078,37846,188,-226,-1007,77,-917,-267,23,4030,49,54,911,1830,1899,2124,2311,1998,1785,1829,1940
729819,5212,38424,5143,37911,115,-349,-999,92,-915,-279,-88,3941,30,37,911,1830,1899,2124,2311,1998,1785,1829,1940
730820,5272,38512,5208,37976,421,-427,-997,101,-912,-361,-135,3750,33,47,911,1829,1897,2115,2307,1998,1791,1844,1956
731821,5352,38584,5273,38041,153,-236,-993,110,-916,-311,18,3780,49,37,909,1829,1897,2115,2307,1998,1791,1844,1956
732822,5464,38644,5338,38106,-304,-80,-985,102,-906,-332,-9,3664,40,45,911,1829,1897,2115,2307,1998,1791,1844,1956
733823,5552,38740,5403,38171,-32,-568,-968,64,-879,-403,-51,3361,33,46,907,1829,1897,2115,2307,1998,1791,1844,1956
734824,5652,38792,5468,38236,-225,-2,-935,43,-866,-547,55,3304,50,44,910,1829,1897,2115,2307,1998,1791,1844,1956
735825,5744,38852,5533,38301,-158,-96,-890,36,-862,-399,128,3319,38,45,908,1837,1904,2123,2318,2048,1837,1888,1998
736826,5828,38896,5598,38366,-81,129,-856,7,-840,-235,74,3126,31,33,905,1837,1904,2123,2318,2048,1837,1888,1998
737827,5904,38976,5663,38431,5,-340,-836,28,-827,-42,113,3406,35,44,909,1837,1904,2123,2318,2048,1837,1888,1998
738828,5964,39032,5728,38496,211,-29,-806,43,-834,-497,124,3000,49,41,911,1837,1904,2123,2318,2048,1837,1888,1998
739829,6056,39088,5793,38561,-222,-18,-776,34,-854,-118,224,3414,39,33,912,1837,1904,2123,2318,2048,1837,1888,1998
740830,6140,39148,5858,38626,-146,-62,-738,27,-865,-156,83,3178,32,34,902,1837,1904,2123,2318,2048,1837,1888,1998
741831,6200,39216,5923,38691,160,-166,-709,29,-875,-37,42,3183,35,39,906,1799,1867,2079,2271,2031,1809,1856,1954
742832,6276,39272,5988,38756,-53,-5,-697,79,-879,-25,-101,3494,48,49,911,1799,1867,2079,2271,2031,1809,1856,1954
743833,6364,39336,6053,38821,-231,-104,-699,110,-885,-5,-100,3045,34,40,913,1799,1867,2079,2271,2031,1809,1856,1954
744834,6436,39400,6118,38886,-40,-103,-700,101,-888,-131,-155,3407,51,39,910,1799,1867,2079,2271,2031,1809,1856,1954
745835,6532,39480,6183,38951,-378,-321,-698,86,-889,-554,-318,3368,45,51,912,1799,1867,2079,2271,2031,1809,1856,1954
746836,6600,39540,6248,39016,-31,-66,-699,67,-888,-298,-290,3413,43,38,911,1783,1843,2047,2229,1963,1751,1801,1903
747837,6672,39604,6313,39081,-90,-115,-701,79,-885,19,-348,3627,46,44,913,1783,1843,2047,2229,1963,1751,1801,1903
748838,6760,39676,6378,39146,-319,-223,-711,78,-885,-261,-407,3122,35,53,910,1783,1843,2047,2229,1963,1751,1801,1903
749839,6836,39748,6443,39211,-182,-232,-725,78,-891,-94,-400,3350,32,53,911,1783,1843,2047,2229,1963,1751,1801,1903
750840,6908,39828,6508,39276,-141,-350,-729,77,-899,-276,-497,3021,38,45,911,1783,1843,2047,2229,1963,1751,1801,1903
751841,7000,39904,6573,39341,-424,-315,-723,50,-892,-257,-646,3126,53,43,905,1783,1843,2047,2229,1963,1751,1801,1903
752842,7068,39976,6638,39406,-127,-273,-704,38,-896,-225,-696,3315,36,40,910,1762,1832,2047,2231,1970,1762,1815,1927
753843,7164,40052,6703,39471,-515,-337,-682,45,-882,-241,-750,3206,40,38,911,1762,1832,2047,2231,1970,1762,1815,1927
754844,7236,40108,6768,39536,-224,-76,-650,34,-855,-49,-584,3026,37,51,911,1762,1832,2047,2231,1970,1762,1815,1927
755845,7308,40168,6833,39601,-233,-121,-624,8,-855,-153,-563,3002,48,39,913,1762,1832,2047,2231,1970,1762,1815,1927
756846,7404,40244,6898,39666,-571,-334,-584,21,-851,-131,-597,3067,37,51,912,1762,1832,2047,2231,1970,1762,1815,1927
757847,7492,40300,6963,39731,-499,-73,-532,13,-815,48,-555,2922,55,41,910,1792,1863,2075,2263,2027,1811,1866,1978
758848,7584,40368,7028,39796,-582,-227,-480,1,-803,-283,-434,2734,44,35,912,1792,1863,2075,2263,2027,1811,1866,1978
759849,7648,40428,7093,39861,-231,-121,-461,5,-793,-146,-204,2831,52,46,912,1792,1863,2075,2263,2027,1811,1866,1978
760850,7736,40512,7158,39926,-560,-445,-456,23,-795,136,10,2677,49,41,912,1792,1863,2075,2263,2027,1811,1866,1978
761851,7820,40568,7223,39991,-533,-84,-469,42,-797,319,-21,2812,40,45,910,1792,1863,2075,2263,2027,1811,1866,1978
762852,7916,40632,7288,40056,-721,-183,-467,55,-794,330,-54,2909,49,37,912,1792,1863,2075,2263,2027,1811,1866,1978
763853,7992,40708,7353,40121,-485,-346,-460,29,-796,-204,-91,2791,41,48,912,1818,1890,2084,2291,2000,1781,1843,1934
764854,8080,40768,7418,40186,-664,-141,-458,4,-814,-528,-166,2982,41,38,911,1818,1890,2084,2291,2000,1781,1843,1934
765855,8180,40840,7483,40251,-856,-299,-452,2,-821,-117,-453,3491,39,49,912,1818,1890,2084,2291,2000,1781,1843,1934
766856,8284,40900,7548,40316,-954,-143,-433,13,-813,37,-478,3296,45,36,911,1818,1890,2084,2291,2000,1781,1843,1934
767857,8360,40972,7613,40381,-617,-302,-400,11,-817,-5,-541,3529,42,36,911,1818,1890,2084,2291,2000,1781,1843,1934
768858,8476,41036,7678,40446,-1181,-201,-362,14,-827,-124,-777,3507,58,53,911,1794,1855,2050,2241,1965,1751,1806,1906
769859,8560,41116,7743,40511,-804,-420,-328,0,-821,-12,-894,3671,44,43,912,1794,1855,2050,2241,1965,1751,1806,1906
770860,8660,41188,7808,40576,-1047,-329,-301,21,-817,123,-964,3687,45,49,911,1794,1855,2050,2241,1965,1751,1806,1906
771861,8748,41268,7873,40641,-926,-447,-282,38,-804,-138,-1211,3725,41,37,911,1794,1855,2050,2241,1965,1751,1806,1906
772862,8836,41328,7938,40706,-954,-191,-248,36,-795,-259,-1180,3656,41,40,911,1794,1855,2050,2241,1965,1751,1806,1906
773863,8956,41392,8003,40771,-1421,-241,-222,-2,-779,-179,-1247,3704,45,32,912,1794,1855,2050,2241,1965,1751,1806,1906
774864,9056,41460,8068,40836,-1215,-294,-186,-26,-765,-326,-1149,3628,44,42,905,1778,1849,2060,2257,1967,1762,1821,1899
775865,9152,41508,8133,40901,-1202,-23,-163,-70,-753,-391,-1137,3491,49,43,912,1778,1849,2060,2257,1967,1762,1821,1899
776866,9260,41572,8198,40966,-1405,-222,-135,-69,-750,-208,-1072,3804,51,37,913,1778,1849,2060,2257,1967,1762,1821,1899
777867,9384,41644,8263,41031,-1678,-332,-120,-84,-734,159,-1235,3593,64,50,912,1778,1849,2060,2257,1967,1762,1821,1899
778868,9508,41676,8328,41096,-1750,208,-100,-104,-720,172,-942,3551,47,35,904,1778,1849,2060,2257,1967,1762,1821,1899
779869,9636,41740,8393,41161,-1878,-190,-110,-155,-725,-132,-738,3482,52,34,912,1830,1902,2106,2323,2017,1815,1890,1990
780870,9752,41804,8458,41226,-1790,-189,-136,-222,-735,-135,-803,3610,68,45,912,1830,1902,2106,2323,2017,1815,1890,1990
781871,9856,41856,8523,41291,-1689,-23,-168,-260,-747,-43,-657,3457,71,37,912,1830,1902,2106,2323,2017,1815,1890,1990
782872,9980,41920,8588,41356,-2011,-173,-189,-277,-768,111,-637,3663,68,44,909,1830,1902,2106,2323,2017,1815,1890,1990
783873,10092,41996,8653,41421,-1919,-336,-206,-260,-777,174,-678,3781,69,45,913,1830,1902,2106,2323,2017,1815,1890,1990
784874,10204,42056,8718,41486,-1976,-130,-213,-278,-791,97,-776,3723,66,39,910,1830,1902,2106,2323,2017,1815,1890,1990
785875,10324,42120,8783,41551,-2145,-179,-209,-292,-805,-156,-823,4041,57,37,912,1863,1926,2122,2329,2074,1848,1924,2040
786876,10452,42184,8848,41616,-2322,-179,-174,-326,-814,-32,-1108,4241,62,37,910,1863,1926,2122,2329,2074,1848,1924,2040
787877,10576,42252,8913,41681,-2345,-233,-117,-340,-829,215,-1185,4262,59,49,912,1863,1926,2122,2329,2074,1848,1924,2040
788878,10704,42316,8978,41746,-2472,-181,-69,-374,-846,-71,-1256,4461,77,37,912,1863,1926,2122,2329,2074,1848,1924,2040
789879,10832,42388,9043,41811,-2549,-290,-7,-430,-880,-409,-1511,4632,66,47,912,1863,1926,2122,2329,2074,1848,1924,2040
790880,10980,42436,9108,41876,-2902,31,45,-528,-906,28,-1812,4234,77,41,910,1807,1890,2083,2257,2089,1846,1903,2028
791881,11120,42500,9173,41941,-2894,-169,54,-652,-945,147,-1640,4306,62,43,913,1807,1890,2083,2257,2089,1846,1903,2028
792882,11268,42568,9238,42006,-3097,-223,6,-805,-981,-565,-1562,4234,74,50,912,1807,1890,2083,2257,2089,1846,1903,2028
793883,11396,42632,9303,42071,-2923,-171,-79,-937,-1032,-591,-1481,4451,68,38,912,1807,1890,2083,2257,2089,1846,1903,2028
794884,11544,42692,9368,42136,-3276,-115,-189,-1038,-1075,-300,-1528,4682,75,38,911,1807,1890,2083,2257,2089,1846,1903,2028
795885,11692,42748,9433,42201,-3378,-55,-312,-1116,-1121,31,-1434,4603,79,37,913,1807,1890,2083,2257,2089,1846,1903,2028
796886,11836,42796,9498,42266,-3426,66,-438,-1206,-1162,49,-1537,4386,72,45,912,1814,1908,2104,2280,2066,1840,1916,2060
797887,11972,42852,9563,42331,-3413,-23,-526,-1267,-1197,59,-1727,4809,84,43,913,1814,1908,2104,2280,2066,1840,1916,2060
798888,12132,42916,9628,42396,-3800,-122,-579,-1293,-1231,-30,-2008,4800,75,44,912,1814,1908,2104,2280,2066,1840,1916,2060
799889,12284,42992,9693,42461,-3800,-286,-610,-1301,-1256,235,-1819,4765,88,40,913,1814,1908,2104,2280,2066,1840,1916,2060
800890,12440,43032,9758,42526,-3800,194,-641,-1337,-1249,356,-1840,4568,81,39,912,1814,1908,2104,2280,2066,1840,1916,2060
801891,12588,43096,9823,42591,-3800,-105,-644,-1359,-1259,277,-1852,4930,74,45,912,1797,1904,2096,2253,2201,1942,2023,2185
802892,12740,43156,9888,42656,-3800,-49,-626,-1389,-1263,81,-2006,4721,95,49,912,1797,1904,2096,2253,2201,1942,2023,2185
803893,12908,43220,9953,42721,-3800,-98,-594,-1417,-1281,-147,-1901,4827,92,50,913,1797,1904,2096,2253,2201,1942,2023,2185
804894,13044,43272,10018,42786,-3800,68,-585,-1464,-1273,-189,-2079,4963,85,51,912,1797,1904,2096,2253,2201,1942,2023,2185
805895,13208,43332,10083,42851,-3800,-27,-579,-1494,-1256,-185,-1822,4808,84,53,913,1797,1904,2096,2253,2201,1942,2023,2185
806898,13376,43392,10148,42916,-3800,-21,-577,-1481,-1271,-175,-1759,5109,89,46,913,1797,1904,2096,2253,2201,1942,2023,2185
807897,13520,43436,10213,42981,-3800,205,-588,-1512,-1297,-514,-1647,4888,88,37,913,1788,1900,2088,2284,2244,1981,2034,2148
808898,13688,43500,10278,43046,-3800,-44,-611,-1544,-1310,-734,-1542,5594,92,43,913,1788,1900,2088,2284,2244,1981,2034,2148
809899,13840,43564,10343,43111,-3800,-42,-630,-1548,-1316,-751,-1732,5241,84,49,913,1788,1900,2088,2284,2244,1981,2034,2148
810900,14008,43612,10408,43176,-3800,178,-656,-1460,-1346,-387,-1733,6008,95,38,913,1788,1900,2088,2284,2244,1981,2034,2148
811901,14200,43668,10473,43241,-3800,88,-686,-1368,-1360,-278,-1877,5259,97,40,913,1788,1900,2088,2284,2244,1981,2034,2148
812902,14384,43724,10538,43306,-3800,99,-737,-1316,-1368,-93,-1665,5404,88,42,913,1833,1916,2124,2357,2144,1909,1955,2024
813903,14568,43788,10603,43371,-3800,0,-771,-1302,-1367,-478,-1730,5335,99,46,913,1833,1916,2124,2357,2144,1909,1955,2024
814904,14744,43860,10668,43436,-3800,-108,-793,-1288,-1382,-572,-1871,5463,97,49,913,1833,1916,2124,2357,2144,1909,1955,2024
815905,14900,43916,10733,43501,-3800,103,-806,-1189,-1377,-476,-2207,6314,88,50,913,1833,1916,2124,2357,2144,1909,1955,2024
816906,15084,43980,10798,43566,-3800,4,-809,-1131,-1319,-317,-2154,5176,96,52,913,1833,1916,2124,2357,2144,1909,1955,2024
817907,15232,44052,10863,43631,-3800,-105,-801,-1067,-1242,-358,-2240,5886,99,45,913,1833,1916,2124,2357,2144,1909,1955,2024
818908,15404,44100,10928,43696,-3800,215,-796,-974,-1202,-48,-2079,4888,85,37,911,1910,1958,2188,2447,2066,1869,1912,1982
819909,15544,44184,10993,43761,-3800,-258,-794,-841,-1172,12,-1881,5247,100,53,912,1910,1958,2188,2447,2066,1869,1912,1982
820910,15720,44252,11058,43826,-3800,-62,-786,-629,-1116,183,-2069,5223,93,41,912,1910,1958,2188,2447,2066,1869,1912,1982
821911,15888,44312,11123,43891,-3800,45,-762,-471,-1020,285,-2242,4912,84,43,913,1910,1958,2188,2447,2066,1869,1912,1982
822912,16056,44360,11188,43956,-3800,215,-694,-366,-946,-100,-2315,5211,92,45,913,1910,1958,2188,2447,2066,1869,1912,1982
823913,16204,44428,11253,44021,-3800,-39,-639,-330,-858,-742,-2022,4917,100,36,899,1933,1966,2198,2455,2056,1857,1897,1960
824914,16384,44484,11318,44086,-3800,122,-599,-271,-769,-628,-1882,5295,84,50,913,1933,1966,2198,2455,2056,1857,1897,1960
825915,16516,44548,11383,44151,-3800,23,-554,-188,-713,-553,-1638,4796,88,43,913,1933,1966,2198,2455,2056,1857,1897,1960
826916,16628,44616,11448,44216,-3800,-31,-472,-65,-676,-382,-1613,4978,101,35,913,1933,1966,2198,2455,2056,1857,1897,1960
827917,16788,44672,11513,44281,-3800,130,-367,62,-611,-50,-1706,5323,82,39,906,1933,1966,2198,2455,2056,1857,1897,1960
828918,16936,44716,11578,44346,-3800,306,-263,180,-535,145,-1656,5053,94,39,913,1933,1966,2198,2455,2056,1857,1897,1960
829919,17076,44772,11643,44411,-3800,167,-189,202,-495,-478,-1218,4397,100,37,912,1912,1948,2156,2412,2026,1818,1880,1933
830920,17232,44828,11708,44476,-3800,177,-129,252,-483,-459,-1061,4919,85,36,912,1912,1948,2156,2412,2026,1818,1880,1933
831921,17352,44896,11773,44541,-3800,23,-94,288,-450,2,-901,4385,86,37,907,1912,1948,2156,2412,2026,1818,1880,1933
832922,17520,44948,11838,44606,-3800,239,-67,320,-415,-78,-789,4725,76,45,913,1912,1948,2156,2412,2026,1818,1880,1933
833923,17668,45012,11903,44671,-3800,90,-30,388,-377,-83,-945,4640,75,45,912,1912,1948,2156,2412,2026,1818,1880,1933
834924,17808,45048,11968,44736,-3800,476,13,440,-332,270,-1182,4668,91,50,912,1902,1945,2129,2384,1978,1771,1850,1917
835925,17944,45112,12033,44801,-3800,127,71,480,-283,372,-1208,4572,81,41,907,1902,1945,2129,2384,1978,1771,1850,1917
836926,18080,45172,12098,44866,-3800,183,128,505,-216,73,-1426,4033,85,35,912,1902,1945,2129,2384,1978,1771,1850,1917
837927,18228,45244,12163,44931,-3800,23,182,527,-149,116,-1558,4092,71,40,913,1902,1945,2129,2384,1978,1771,1850,1917
838928,18344,45304,12228,44996,-3800,180,235,523,-75,341,-1589,3636,90,37,913,1902,1945,2129,2384,1978,1771,1850,1917
839929,18484,45344,12293,45061,-3800,460,305,492,10,-58,-1663,3795,70,43,910,1902,1945,2129,2384,1978,1771,1850,1917
840930,18600,45400,12358,45126,-3800,271,391,441,91,93,-1671,3574,77,34,911,1908,1966,2152,2368,1977,1760,1841,1936
841931,18736,45464,12423,45191,-3800,172,475,402,158,290,-1811,3691,72,35,912,1908,1966,2152,2368,1977,1760,1841,1936
842932,18860,45532,12488,45256,-3800,119,553,369,223,365,-1660,3731,65,36,912,1908,1966,2152,2368,1977,1760,1841,1936
843933,18964,45576,12553,45321,-3800,444,616,303,297,-3,-1736,3447,61,36,911,1908,1966,2152,2368,1977,1760,1841,1936
844934,19084,45632,12618,45386,-3800,305,667,245,339,307,-1244,3802,77,44,911,1908,1966,2152,2368,1977,1760,1841,1936
845935,19208,45692,12683,45451,-3800,261,697,192,368,493,-1163,3623,76,36,911,1883,1952,2127,2329,1963,1745,1825,1924
846936,19316,45752,12748,45516,-3800,267,718,110,398,390,-996,3241,78,34,912,1883,1952,2127,2329,1963,1745,1825,1924
847937,19440,45808,12813,45581,-3800,327,735,30,432,318,-688,3835,75,41,911,1883,1952,2127,2329,1963,1745,1825,1924
848938,19564,45876,12878,45646,-3800,174,754,-64,447,269,-620,3362,70,33,912,1883,1952,2127,2329,1963,1745,1825,1924
849939,19652,45944,12943,45711,-3800,170,769,-167,448,218,-570,3428,59,32,912,1883,1952,2127,2329,1963,1745,1825,1924
850940,19764,46000,13008,45776,-3800,331,796,-240,444,328,-346,3610,64,34,912,1883,1952,2127,2329,1963,1745,1825,1924
851941,19876,46060,13073,45841,-3800,287,822,-298,472,475,-305,3791,68,37,911,1860,1930,2095,2282,1986,1762,1850,1957
852942,19972,46116,13138,45906,-3800,348,858,-363,498,676,-255,3385,48,44,911,1860,1930,2095,2282,1986,1762,1850,1957
853943,20072,46188,13203,45971,-3800,140,882,-404,506,633,-262,3737,61,40,912,1860,1930,2095,2282,1986,1762,1850,1957
854946,20168,46256,13268,46036,-3800,186,916,-433,524,583,-405,3474,52,36,912,1860,1930,2095,2282,1986,1762,1850,1957
855945,20272,46304,13333,46101,-3800,457,952,-435,536,751,-315,3450,46,34,912,1860,1930,2095,2282,1986,1762,1850,1957
856946,20344,46368,13398,46166,-3800,258,981,-454,565,572,-378,3486,62,31,911,1813,1897,2077,2252,2038,1810,1879,1999
857947,20456,46420,13463,46231,-3800,424,1038,-463,571,541,-337,3578,58,35,912,1813,1897,2077,2252,2038,1810,1879,1999
858948,20540,46472,13528,46296,-3800,439,1069,-500,589,539,-522,3460,57,35,911,1813,1897,2077,2252,2038,1810,1879,1999
859949,20624,46544,13593,46361,-3800,180,1099,-534,617,184,-570,3232,38,43,911,1813,1897,2077,2252,2038,1810,1879,1999
860950,20696,46588,13658,46426,-3800,556,1125,-584,652,62,-536,3723,38,48,912,1813,1897,2077,2252,2038,1810,1879,1999
861951,20784,46656,13723,46491,-3800,252,1139,-652,665,70,-410,3392,47,33,911,1813,1897,2077,2252,2038,1810,1879,1999
862952,20876,46712,13788,46556,-3800,413,1143,-688,684,145,-354,3610,36,32,911,1796,1880,2094,2272,2062,1837,1872,1984
863953,20940,46788,13853,46621,-3800,150,1132,-690,707,303,-270,3571,44,34,911,1796,1880,2094,2272,2062,1837,1872,1984
864954,21028,46836,13918,46686,-3800,520,1115,-707,736,298,-256,3625,42,34,912,1796,1880,2094,2272,2062,1837,1872,1984
865955,21092,46908,13983,46751,-3800,212,1093,-709,734,257,-313,3760,33,39,912,1796,1880,2094,2272,2062,1837,1872,1984
866956,21164,46984,14048,46816,-3800,148,1087,-712,737,141,-410,3822,39,37,911,1796,1880,2094,2272,2062,1837,1872,1984
867957,21232,47056,14113,46881,-3800,190,1098,-669,773,445,-201,4427,28,34,912,1801,1876,2107,2295,2040,1831,1859,1963
868958,21280,47104,14178,46946,-3800,511,1117,-590,809,558,-262,4032,27,43,913,1801,1876,2107,2295,2040,1831,1859,1963
869959,21332,47188,14243,47011,-3800,37,1101,-492,801,459,37,4088,34,39,910,1801,1876,2107,2295,2040,1831,1859,1963
870960,21396,47252,14308,47076,-3800,289,1044,-331,800,618,233,4173,26,33,912,1801,1876,2107,2295,2040,1831,1859,1963
871961,21468,47308,14373,47141,-3800,400,954,-175,804,883,478,3687,27,32,912,1801,1876,2107,2295,2040,1831,1859,1963
872962,21504,47364,14438,47206,-3800,411,862,-52,784,585,545,3544,39,46,911,1801,1876,2107,2295,2040,1831,1859,1963
873963,21552,47444,14503,47271,-3800,91,773,37,752,371,621,3538,23,49,911,1808,1872,2104,2304,2072,1864,1889,1994
874964,21608,47500,14568,47336,-3800,402,711,60,714,426,659,3501,36,46,912,1808,1872,2104,2304,2072,1864,1889,1994
875965,21656,47572,14633,47401,-3800,194,701,4,697,-254,279,3564,19,39,912,1808,1872,2104,2304,2072,1864,1889,1994
876966,21684,47636,14698,47466,-3800,295,772,-50,676,-354,305,4038,19,45,912,1808,1872,2104,2304,2072,1864,1889,1994
877967,21744,47704,14763,47531,-3800,241,783,-50,681,-237,325,3974,31,35,912,1808,1872,2104,2304,2072,1864,1889,1994
878968,21776,47788,14828,47596,-3800,18,786,-2,698,132,236,4133,20,36,912,1755,1818,2067,2247,2148,1915,1923,2049
879969,21812,47828,14893,47661,-3800,599,787,33,698,60,164,3782,33,47,912,1755,1818,2067,2247,2148,1915,1923,2049
880970,21848,47908,14958,47726,-3800,80,775,119,702,-327,162,4064,21,45,903,1755,1818,2067,2247,2148,1915,1923,2049
881971,21884,47980,15023,47791,-3800,172,741,181,717,287,336,3683,23,45,911,1755,1818,2067,2247,2148,1915,1923,2049
882972,21916,48040,15088,47856,-3800,328,728,245,766,409,204,4191,12,36,913,1755,1818,2067,2247,2148,1915,1923,2049
883973,21940,48112,15153,47921,-3800,169,705,302,791,106,451,4094,28,43,912,1755,1818,2067,2247,2148,1915,1923,2049
884974,21980,48184,15218,47986,-3800,161,665,382,787,41,566,4019,23,32,907,1729,1816,2057,2219,2140,1898,1911,2047
885975,21992,48248,15283,48051,-3800,262,597,457,795,300,722,3919,9,32,912,1729,1816,2057,2219,2140,1898,1911,2047
886976,22028,48308,15348,48116,-3800,318,512,487,805,347,772,3690,21,42,911,1729,1816,2057,2219,2140,1898,1911,2047
887977,22060,48364,15413,48181,-3800,378,419,469,799,-141,793,3664,24,45,912,1729,1816,2057,2219,2140,1898,1911,2047
888978,22064,48428,15478,48246,-3800,279,328,438,766,-366,955,3579,4,44,908,1729,1816,2057,2219,2140,1898,1911,2047
889979,22100,48500,15543,48311,-3800,171,228,393,744,-312,1013,3478,15,36,912,1769,1859,2091,2250,2087,1855,1884,2020
890980,22104,48556,15608,48376,-3800,382,131,300,728,-49,1114,3388,11,31,912,1769,1859,2091,2250,2087,1855,1884,2020
891981,22140,48632,15673,48441,-3800,118,67,205,699,-211,828,3561,3,35,912,1769,1859,2091,2250,2087,1855,1884,2020
892982,22136,48692,15738,48506,-3800,324,41,145,665,-464,718,3922,1,34,909,1769,1859,2091,2250,2087,1855,1884,2020
893983,22152,48756,15803,48571,-3800,276,25,88,627,-342,825,3570,0,40,912,1769,1859,2091,2250,2087,1855,1884,2020
894984,22156,48828,15868,48636,-3800,167,6,51,603,11,749,3774,5,35,912,1770,1853,2084,2222,2122,1855,1884,2020
895985,22176,48884,15933,48701,-3800,378,-7,0,571,313,743,3767,2,31,912,1770,1853,2084,2222,2122,1879,1905,2070
896986,22176,48952,15998,48766,-3800,224,-19,-56,529,-79,684,3677,13,40,910,1770,1853,2084,2222,2122,1879,1905,2070
897987,22196,49020,16063,48831,-3800,221,-32,-54,509,-147,683,3995,27,43,912,1770,1853,2084,2222,2122,1879,1905,2070
898988,22192,49076,16128,48896,-3800,382,-43,-69,486,421,842,3707,9,37,912,1770,1853,2084,2222,2122,1879,1905,2070
899989,22196,49132,16193,48961,-3800,393,-50,-110,467,426,956,3884,-4,27,912,1770,1853,2084,2222,2122,1879,1905,2070
900990,22204,49176,16258,49026,-3800,568,-52,-178,459,180,1100,3969,-4,34,910,1751,1847,2079,2206,2139,1887,1919,2081
901991,22212,49248,16323,49091,-3800,209,-40,-192,468,-177,1101,4229,6,28,911,1751,1847,2079,2206,2139,1887,1919,2081
902992,22212,49292,16388,49156,-3800,584,-55,-199,460,44,1457,4018,10,35,911,1751,1847,2079,2206,2139,1887,1919,2081
903993,22208,49364,16453,49221,-3800,226,-95,-199,439,106,1389,4037,12,26,910,1751,1847,2079,2206,2139,1887,1919,2081
904995,22224,49420,16518,49286,-3800,437,-139,-196,433,-42,1485,4242,-4,41,910,1751,1847,2079,2206,2139,1887,1919,2081
905995,22216,49488,16583,49351,-3800,283,-199,-214,426,-220,1734,3945,2,34,912,1767,1871,2095,2234,2100,1864,1898,2029
906996,22220,49528,16648,49416,-3800,664,-268,-273,398,-211,1677,3724,11,33,911,1767,1871,2095,2234,2100,1864,1898,2029
907997,22220,49596,16713,49481,-3800,310,-319,-341,355,-496,1539,4058,8,29,912,1767,1871,2095,2234,2100,1864,1898,2029
908998,22224,49644,16778,49546,-3800,581,-367,-406,318,-382,1330,3840,-4,38,908,1767,1871,2095,2234,2100,1864,1898,2029
909999,22220,49712,16843,49611,-3800,327,-387,-454,290,-299,1096,4073,-6,24,911,1767,1871,2095,2234,2100,1864,1898,2029
911000,22208,49784,16908,49676,-3800,269,-398,-446,251,-496,965,4152,2,40,910,1767,1871,2095,2234,2100,1864,1898,2029
912001,22216,49836,16973,49741,-3800,535,-396,-417,176,156,840,4208,8,39,911,1801,1900,2137,2307,2079,1859,1885,2017
913002,22224,49884,17038,49806,-3800,605,-387,-411,109,329,797,4211,0,29,912,1801,1900,2137,2307,2079,1859,1885,2017
914003,22224,49940,17103,49871,-3800,516,-359,-413,67,94,847,4408,9,37,911,1801,1900,2137,2307,2079,1859,1885,2017
915004,22216,50012,17168,49936,-3800,308,-331,-372,7,269,936,4735,-7,43,910,1801,1900,2137,2307,2079,1859,1885,2017
916005,22216,50064,17233,50001,-3800,574,-310,-284,-67,515,967,4668,3,41,910,1801,1900,2137,2307,2079,1859,1885,2017
917006,22220,50140,17298,50066,-3800,260,-298,-197,-119,606,936,4777,5,31,911,1815,1896,2150,2319,2085,1867,1886,2009
918007,22220,50196,17363,50131,-3800,521,-289,-154,-145,435,1036,4665,2,29,910,1815,1896,2150,2319,2085,1867,1886,2009
919008,22220,50256,17428,50196,-3800,477,-281,-125,-162,178,1226,4483,11,38,912,1815,1896,2150,2319,2085,1867,1886,2009
920009,22228,50316,17493,50261,-3800,483,-287,-122,-196,137,1319,4324,-6,43,911,1815,1896,2150,2319,2085,1867,1886,2009
921010,22212,50384,17558,50326,-3800,380,-292,-107,-227,33,1288,4300,6,44,910,1815,1896,2150,2319,2085,1867,1886,2009
922011,22224,50448,17623,50391,-3800,431,-299,-88,-239,1,1326,4303,12,42,911,1815,1896,2150,2319,2085,1867,1886,2009
923012,22220,50516,17688,50456,-3800,377,-310,-67,-252,82,1313,4180,12,34,912,1840,1914,2153,2359,2067,1863,1891,1997
924013,22216,50600,17753,50521,-3800,154,-327,-39,-261,-68,1346,4247,-7,38,911,1840,1914,2153,2359,2067,1863,1891,1997
925014,22212,50668,17818,50586,-3800,350,-332,-19,-271,-37,1316,4085,-7,30,911,1840,1914,2153,2359,2067,1863,1891,1997
926015,22220,50740,17883,50651,-3800,292,-333,-27,-292,-115,1188,4164,-7,32,912,1840,1914,2153,2359,2067,1863,1891,1997
927016,22212,50812,17948,50716,-3800,283,-335,-28,-325,-134,1074,4208,-7,33,911,1840,1914,2153,2359,2067,1863,1891,1997
928017,22220,50876,18013,50781,-3800,385,-330,6,-351,8,879,4222,-4,31,912,1840,1915,2148,2344,2068,1854,1885,1997
929018,22216,50944,18078,50846,-3800,330,-325,60,-372,151,716,4220,-2,31,912,1840,1915,2148,2344,2068,1854,1885,1997
930019,22220,51004,18143,50911,-3800,436,-307,101,-400,130,555,4167,-2,32,911,1840,1915,2148,2344,2068,1854,1885,1997
931020,22204,51088,18208,50976,-3734,113,-277,119,-443,78,495,4261,11,34,912,1840,1915,2148,2344,2068,1854,1885,1997
932021,22212,51116,18273,51041,-3800,858,-246,134,-474,97,319,4098,-3,36,911,1840,1915,2148,2344,2068,1854,1885,1997
933022,22208,51184,18338,51106,-3734,354,-217,155,-497,91,267,4223,-7,28,912,1840,1915,2148,2344,2068,1854,1885,1997
934023,22200,51272,18403,51171,-3597,76,-197,159,-527,150,204,4055,3,43,898,1814,1893,2118,2287,2063,1835,1869,1997
935024,22204,51328,18468,51236,-3673,487,-179,156,-548,-30,206,4128,-8,39,911,1814,1893,2118,2287,2063,1835,1869,1997
936025,22188,51392,18533,51301,-3325,388,-168,138,-553,92,213,3832,10,43,913,1814,1893,2118,2287,2063,1835,1869,1997
937026,22204,51448,18598,51366,-3667,499,-175,137,-556,10,197,3812,2,43,911,1814,1893,2118,2287,2063,1835,1869,1997
938027,22196,51536,18663,51431,-3279,71,-196,130,-558,-8,262,3738,5,33,903,1814,1893,2118,2287,2063,1835,1869,1997
939028,22204,51596,18728,51496,-3412,427,-219,119,-554,-52,243,3625,-4,31,910,1802,1882,2104,2273,2040,1815,1850,1984
940029,22204,51652,18793,51561,-3233,488,-247,94,-529,29,302,3612,5,29,913,1802,1882,2104,2273,2040,1815,1850,1984
941030,22196,51704,18858,51626,-3045,554,-274,78,-510,22,255,3530,-1,41,911,1802,1882,2104,2273,2040,1815,1850,1984
942031,22184,51788,18923,51691,-2902,131,-293,59,-508,-42,230,3595,9,41,906,1802,1882,2104,2273,2040,1815,1850,1984
943032,22196,51852,18988,51756,-3140,382,-302,37,-495,-51,209,3677,1,34,910,1802,1882,2104,2273,2040,1815,1850,1984
944033,22196,51920,19053,51821,-2911,329,-301,-3,-463,15,142,3669,9,32,912,1802,1882,2104,2273,2040,1815,1850,1984
945034,22176,51992,19118,51886,-2558,270,-296,-31,-450,3,70,3772,6,36,911,1807,1883,2089,2251,2047,1822,1876,1998
946035,22184,52048,19183,51951,-2840,481,-287,-53,-448,-93,-33,3704,9,37,909,1807,1883,2089,2251,2047,1822,1876,1998
947036,22164,52096,19248,52016,-2387,602,-270,-66,-434,3,-64,3753,-9,40,912,1807,1883,2089,2251,2047,1822,1876,1998
948037,22160,52168,19313,52081,-2505,293,-256,-89,-416,33,-201,3656,-2,36,911,1807,1883,2089,2251,2047,1822,1876,1998
949038,22176,52244,19378,52146,-2696,230,-239,-110,-401,-83,-340,3753,1,32,910,1807,1883,2089,2251,2047,1822,1876,1998
950039,22164,52304,19443,52211,-2253,436,-222,-111,-402,-105,-375,3697,-10,39,907,1780,1866,2076,2249,2067,1833,1881,2005
951040,22164,52360,19642,52410,-2161,661,-201,-117,-408,-102,-409,3689,-2,24,912,1780,1866,2076,2249,2067,1833,1881,2005
952041,22148,52420,19707,52475,-1863,617,-183,-133,-384,-68,-435,3772,-8,31,911,1780,1866,2076,2249,2067,1833,1881,2005
953042,22152,52484,19772,52540,-2040,568,-164,-157,-362,-130,-424,3709,-7,30,910,1780,1866,2076,2249,2067,1833,1881,2005
954043,22148,52552,19837,52605,-1857,514,-156,-166,-359,-213,-394,3804,-3,33,908,1780,1866,2076,2249,2067,1833,1881,2005
955044,22148,52612,19902,52670,-1827,620,-157,-178,-355,-195,-412,3730,-1,34,910,1780,1866,2076,2249,2067,1833,1881,2005
956045,22128,52672,19967,52735,-1474,626,-154,-188,-329,-221,-370,3872,-10,33,910,1795,1875,2090,2271,2053,1820,1873,1984
957046,22136,52752,20032,52800,-1756,358,-164,-196,-308,-128,-352,3824,-11,42,910,1795,1875,2090,2271,2053,1820,1873,1984
958047,22140,52816,20097,52865,-1632,559,-183,-189,-293,-128,-410,3860,3,38,908,1795,1875,2090,2271,2053,1820,1873,1984
959048,22124,52916,20162,52930,-1285,67,-203,-183,-269,-128,-407,3938,-3,30,911,1795,1875,2090,2271,2053,1820,1873,1984
960049,22116,52960,20227,52995,-1295,792,-216,-181,-237,-106,-416,3941,-10,44,910,1795,1875,2090,2271,2053,1820,1873,1984
961050,22116,53028,20292,53060,-1317,489,-226,-186,-211,-13,-471,3930,6,31,913,1828,1902,2112,2310,2031,1814,1870,1976
962051,22104,53100,20357,53125,-1074,430,-232,-169,-189,48,-444,4029,9,32,908,1828,1902,2112,2310,2031,1814,1870,1976
963052,22108,53172,20422,53190,-1201,421,-226,-149,-166,75,-492,4015,-3,43,911,1828,1902,2112,2310,2031,1814,1870,1976
964053,22092,53228,20487,53255,-852,632,-208,-128,-144,39,-482,4074,-2,39,911,1828,1902,2112,2310,2031,1814,1870,1976
965054,22088,53312,20552,53320,-918,259,-188,-124,-130,85,-499,4040,-10,40,911,1828,1902,2112,2310,2031,1814,1870,1976
966055,22092,53376,20617,53385,-944,510,-155,-119,-116,12,-552,4161,7,34,909,1828,1902,2112,2310,2031,1814,1870,1976
967056,22084,53440,20682,53450,-706,512,-120,-112,-100,74,-485,4203,8,42,912,1833,1901,2113,2308,2055,1836,1885,1993
968057,22076,53520,20747,53515,-618,293,-83,-116,-83,52,-433,4109,0,44,910,1833,1901,2113,2308,2055,1836,1885,1993
969058,22080,53556,20812,53580,-693,879,-58,-138,-76,23,-401,4152,-8,30,911,1833,1901,2113,2308,2055,1836,1885,1993
970059,22064,53648,20877,53645,-345,146,-31,-150,-66,-91,-406,4191,5,36,911,1833,1901,2113,2308,2055,1836,1885,1993
971060,22064,53712,20942,53710,-466,497,-11,-153,-62,47,-396,4142,-5,42,908,1833,1901,2113,2308,2055,1836,1885,1993
972061,22064,53772,21007,53775,-387,553,10,-149,-57,-17,-350,4228,5,29,911,1828,1899,2116,2312,2056,1835,1888,1992
973062,22060,53832,21072,53840,-254,559,28,-150,-41,-17,-298,4149,-9,26,910,1828,1899,2116,2312,2056,1835,1888,1992
974063,22048,53912,21137,53905,-60,291,40,-151,-29,1,-266,4238,-10,40,910,1828,1899,2116,2312,2056,1835,1888,1992
975064,22052,53968,21202,53970,-186,602,50,-157,-16,68,-208,4166,-6,25,910,1828,1899,2116,2312,2056,1835,1888,1992
976065,22052,54028,21267,54035,-57,558,57,-154,-8,68,-239,4138,-4,33,911,1828,1899,2116,2312,2056,1835,1888,1992
977066,22048,54092,21332,54100,77,509,64,-142,7,111,-238,4193,-9,25,901,1828,1899,2116,2312,2056,1835,1888,1992
978067,22048,54148,21397,54165,107,620,64,-137,17,145,-256,4104,5,33,910,1840,1915,2125,2323,2046,1823,1873,1981
979068,22040,54212,21462,54230,295,521,65,-133,24,138,-286,4105,-3,29,910,1840,1915,2125,2323,2046,1823,1873,1981
980069,22028,54268,21527,54295,439,632,70,-126,35,86,-316,4075,12,38,910,1840,1915,2125,2323,2046,1823,1873,1981
981070,22040,54328,21592,54360,204,589,78,-134,46,106,-316,4055,-2,27,909,1840,1915,2125,2323,2046,1823,1873,1981
982071,22044,54380,21657,54425,378,704,91,-140,51,120,-356,4047,6,25,907,1840,1915,2125,2323,2046,1823,1873,1981
983072,22052,54436,21722,54490,398,665,111,-152,55,136,-299,4075,-3,28,909,1850,1928,2136,2321,2044,1824,1876,1992
984073,22052,54500,21787,54555,576,567,128,-176,62,57,-239,3995,10,37,908,1850,1928,2136,2321,2044,1824,1876,1992
985074,22060,54560,21852,54620,546,623,150,-201,61,115,-294,4060,14,43,908,1850,1928,2136,2321,2044,1824,1876,1992
986075,22080,54616,21917,54685,451,684,164,-221,61,151,-243,4035,25,31,907,1850,1928,2136,2321,2044,1824,1876,1992
987076,22084,54684,21982,54750,725,530,180,-244,65,144,-242,4009,10,41,908,1850,1928,2136,2321,2044,1824,1876,1992
988077,22116,54732,22047,54815,415,801,195,-265,65,168,-182,3981,13,36,907,1850,1928,2136,2321,2044,1824,1876,1992
989078,22132,54800,22112,54880,675,547,201,-280,61,186,-153,3994,16,43,905,1827,1905,2116,2295,2054,1829,1879,1995
990079,22176,54872,22177,54945,351,489,205,-299,64,148,-127,3976,16,36,906,1827,1905,2116,2295,2054,1829,1879,1995
991080,22216,54952,22242,55010,431,370,206,-311,72,223,36,3944,19,42,907,1827,1905,2116,2295,2054,1829,1879,1995
992081,22236,55008,22307,55075,736,681,211,-324,79,234,-8,3820,30,36,909,1827,1905,2116,2295,2054,1829,1879,1995
993082,22308,55068,22372,55140,78,637,203,-329,74,199,-80,3936,18,39,909,1827,1905,2116,2295,2054,1829,1879,1995
994083,22340,55132,22437,55205,618,589,196,-325,82,200,-6,3840,20,39,905,1809,1888,2096,2276,2050,1824,1876,1995
995084,22380,55156,22502,55270,548,1139,193,-324,88,197,-33,3840,35,28,909,1809,1888,2096,2276,2050,1824,1876,1995
996085,22420,55232,22567,55335,579,475,196,-318,94,174,13,3907,40,39,907,1809,1888,2096,2276,2050,1824,1876,1995
997086,22484,55300,22632,55400,280,572,195,-340,103,34,-25,3734,35,43,903,1809,1888,2096,2276,2050,1824,1876,1995
998087,22532,55352,22697,55465,501,787,194,-363,120,31,-31,3855,29,30,908,1809,1888,2096,2276,2050,1824,1876,1995
999088,22580,55408,22762,55530,522,748,195,-385,122,79,-92,3743,36,41,909,1809,1888,2096,2276,2050,1824,1876,1995
1000089,22628,55464,22827,55595,542,759,201,-406,121,158,-63,3847,28,29,906,1795,1874,2086,2264,2066,1837,1882,2003
1001090,22692,55512,22892,55660,345,880,200,-413,133,82,-136,3808,31,42,906,1795,1874,2086,2264,2066,1837,1882,2003
1002091,22748,55588,22957,55725,456,517,197,-410,127,155,-115,3783,30,29,906,1795,1874,2086,2264,2066,1837,1882,2003
1003092,22816,55640,23022,55790,302,833,201,-393,129,219,-185,3846,43,39,907,1795,1874,2086,2264,2066,1837,1882,2003
1004093,22872,55700,23087,55855,463,740,203,-376,133,265,-110,3819,48,38,909,1795,1874,2086,2264,2066,1837,1882,2003
1005094,22920,55756,23152,55920,584,801,211,-355,135,202,-139,3929,47,31,907,1793,1873,2092,2266,2070,1840,1880,2002
1006095,22984,55824,23217,55985,385,647,220,-331,128,244,27,4015,44,46,906,1793,1873,2092,2266,2070,1840,1880,2002
1007096,23056,55880,23282,56050,276,808,223,-314,131,179,-58,3940,37,44,905,1793,1873,2092,2266,2070,1840,1880,2002
1008097,23128,55944,23347,56115,268,709,208,-318,143,107,-16,3782,41,27,908,1793,1873,2092,2266,2070,1840,1880,2002
1009098,23184,56008,23412,56180,479,710,192,-324,155,2,39,3835,33,35,907,1793,1873,2092,2266,2070,1840,1880,2002
1010099,23252,56076,23477,56245,325,657,176,-322,156,-28,179,3893,47,37,908,1793,1873,2092,2266,2070,1840,1880,2002
1011100,23312,56132,23542,56310,431,818,164,-319,162,-57,129,3802,30,31,907,1795,1875,2095,2276,2058,1831,1874,1989
1012101,23380,56200,23607,56375,328,664,148,-323,172,70,41,3701,34,34,909,1795,1875,2095,2276,2058,1831,1874,1989
1013102,23440,56272,23672,56440,435,606,141,-329,178,97,92,3885,36,44,907,1795,1875,2095,2276,2058,1831,1874,1989
1014103,23500,56324,23737,56505,441,871,131,-337,188,50,61,3816,35,40,908,1795,1875,2095,2276,2058,1831,1874,1989
1015104,23568,56380,23802,56570,337,832,130,-317,197,213,119,4030,43,41,908,1795,1875,2095,2276,2058,1831,1874,1989
1016105,23632,56448,23867,56635,388,679,130,-293,206,320,62,3815,28,34,906,1807,1882,2104,2287,2062,1840,1880,2000
1017106,23680,56504,23932,56700,609,840,136,-277,213,353,33,3927,34,34,907,1807,1882,2104,2287,2062,1840,1880,2000
