%  Data file recorded 2016/9/8  21:27:39
%  Stride Frequency         = [1, 1]
%  Lead In /Lead Out        = 
%  Deltas (Fractional)      = [0.25, 0.25, 0.25],[0.25, 0.25, 0.25]
%  Phase                    = 32768
%  Experiment.py 
%  Motor Gains    = [5000, 400, 200, 0, 300, 5000, 400, 200, 0, 300]
% Columns: 
% time | Right Leg Pos | Left Leg Pos | Commanded Right Leg Pos | Commanded Left Leg Pos | DCR | DCL | GyroX | GyroY | GyroZ | AX | AY | AZ | RBEMF | LBEMF | VBatt | S1 | S2 | S3 | S4 | S5 | S6 | S7 | S8
840,17616,-19828,15274,-17494,339,-3800,-12,1,0,24,106,3863,-6,5,924,2112,2174,2476,2737,2462,2253,2190,2308
1841,17608,-19836,15274,-17494,297,-3800,-15,-1,1,26,90,3855,-8,-7,924,2112,2174,2476,2737,2462,2253,2190,2308
2842,17604,-19836,15274,-17494,251,-3800,-16,0,1,13,102,3872,-9,3,924,2112,2174,2476,2737,2462,2253,2190,2308
3843,17612,-19832,15274,-17494,90,-3800,-16,0,1,33,119,3828,0,0,924,2112,2174,2476,2737,2462,2253,2190,2308
4844,17604,-19832,15274,-17494,299,-3800,-15,1,1,35,116,3826,1,-6,924,2112,2174,2476,2737,2462,2253,2190,2308
5845,17596,-19836,15274,-17494,308,-3800,-16,0,0,27,127,3851,3,3,924,2112,2174,2476,2737,2462,2253,2190,2308
6846,17620,-19836,15274,-17494,-122,-3800,-17,-3,0,-14,130,3848,9,-3,924,2112,2174,2476,2737,2462,2253,2190,2308
7847,17612,-19832,15274,-17494,286,-3800,-18,-2,0,-8,121,3851,9,7,924,2112,2174,2476,2737,2462,2253,2190,2308
8848,17620,-19844,15274,-17494,77,-3800,-17,0,-2,18,87,3882,9,-7,924,2112,2174,2476,2737,2462,2253,2190,2308
9849,17616,-19828,15274,-17494,231,-3800,-16,-3,-2,42,104,3878,-4,3,924,2112,2174,2476,2737,2462,2253,2190,2308
10850,17608,-19840,15274,-17494,289,-3800,-17,-4,1,27,115,3854,-6,-5,924,2112,2174,2476,2737,2462,2253,2190,2308
11851,17612,-19836,15274,-17494,133,-3800,-17,-2,-1,-7,129,3851,-8,-4,924,2112,2174,2476,2737,2462,2253,2190,2308
12852,17620,-19840,15274,-17494,73,-3800,-15,0,-3,18,87,3869,-8,7,924,2112,2174,2476,2737,2462,2253,2190,2308
13853,17616,-19844,15274,-17494,227,-3800,-16,1,-1,8,99,3854,-5,-7,923,2112,2174,2476,2737,2462,2253,2190,2308
14854,17616,-19836,15274,-17494,176,-3800,-17,0,0,33,134,3847,-5,4,924,2112,2174,2476,2737,2462,2253,2190,2308
15855,17620,-19840,15274,-17494,120,-3800,-17,0,0,0,135,3863,7,0,924,2112,2174,2476,2737,2462,2253,2190,2308
16856,17628,-19840,15274,-17494,59,-3800,-17,0,-2,8,110,3841,4,2,924,2112,2174,2476,2737,2462,2253,2190,2308
17857,17620,-19836,15274,-17494,268,-3800,-19,1,-2,37,94,3840,4,2,924,2112,2174,2476,2737,2462,2253,2190,2308
18858,17620,-19832,15274,-17494,168,-3800,-18,0,-1,36,73,3853,8,-3,924,2112,2174,2476,2737,2462,2253,2190,2308
19859,17612,-19832,15274,-17494,276,-3800,-17,1,-2,25,92,3858,9,-4,923,2112,2174,2476,2737,2462,2253,2190,2308
20860,17612,-19840,15274,-17494,175,-3800,-16,1,2,15,114,3857,9,-7,923,2112,2174,2476,2737,2462,2253,2190,2308
21861,17612,-19840,15274,-17494,174,-3800,-17,-1,2,20,119,3843,5,5,924,2112,2174,2476,2737,2462,2253,2190,2308
22862,17600,-19848,15274,-17494,338,-3800,-17,-2,2,28,117,3860,7,-6,923,2112,2174,2476,2737,2462,2253,2190,2308
23863,17620,-19832,15274,-17494,-87,-3800,-18,0,-1,34,115,3836,9,-2,924,2112,2174,2476,2737,2462,2253,2190,2308
24864,17608,-19836,15274,-17494,326,-3800,-19,0,-1,35,126,3823,4,6,924,2112,2174,2476,2737,2462,2253,2190,2308
25865,17616,-19844,15274,-17494,66,-3800,-19,0,-1,56,108,3853,2,-7,924,2112,2174,2476,2737,2462,2253,2190,2308
26866,17616,-19828,15274,-17494,165,-3800,-19,-2,1,30,93,3838,-2,0,924,2112,2174,2476,2737,2462,2253,2190,2308
27867,17616,-19844,15274,-17494,165,-3800,-19,-4,0,5,111,3852,-7,5,924,2112,2174,2476,2737,2462,2253,2190,2308
28868,17624,-19832,15274,-17494,54,-3800,-19,-4,0,11,119,3843,-8,-7,924,2112,2174,2476,2737,2462,2253,2190,2308
29869,17620,-19844,15274,-17494,208,-3800,-19,-2,0,30,122,3847,-9,5,924,2112,2174,2476,2737,2462,2253,2190,2308
30870,17612,-19848,15274,-17494,266,-3800,-19,-2,-1,23,103,3835,-7,-1,924,2112,2174,2476,2737,2462,2253,2190,2308
31871,17604,-19856,15274,-17494,275,-3800,-18,-3,-1,4,95,3833,-7,-3,924,2112,2174,2476,2737,2462,2253,2190,2308
32872,17620,-19848,15274,-17494,-45,-3800,-16,-3,1,18,107,3824,-7,7,924,2112,2174,2476,2737,2462,2253,2190,2308
33873,17612,-19836,15274,-17494,263,-3800,-16,-2,1,15,130,3829,-4,-3,924,2112,2174,2476,2737,2462,2253,2190,2308
34874,17616,-19832,15274,-17494,108,-3800,-15,0,0,-6,142,3816,-3,0,924,2112,2174,2476,2737,2462,2253,2190,2308
35875,17608,-19836,15274,-17494,266,-3800,-15,-1,0,-16,96,3821,-1,5,924,2112,2174,2476,2737,2462,2253,2190,2308
36876,17628,-19832,15274,-17494,-109,-3800,-16,-3,1,-3,87,3842,8,-1,922,2112,2174,2476,2737,2462,2253,2190,2308
37877,17608,-19832,15274,-17494,415,-3800,-16,-4,2,23,94,3831,10,-5,923,2112,2174,2476,2737,2462,2253,2190,2308
38878,17612,-19836,15274,-17494,109,-3800,-16,-5,0,8,114,3805,9,6,924,2112,2174,2476,2737,2462,2253,2190,2308
39879,17612,-19844,15274,-17494,158,-3800,-15,-3,-2,5,105,3831,7,5,924,2112,2174,2476,2737,2462,2253,2190,2308
40880,17624,-19836,15274,-17494,-7,-3800,-16,-2,-4,36,99,3815,8,-7,924,2112,2174,2476,2737,2462,2253,2190,2308
41881,17620,-19832,15274,-17494,197,-3800,-15,-2,-3,39,89,3822,9,6,924,2112,2174,2476,2737,2462,2253,2190,2308
42882,17624,-19836,15274,-17494,91,-3800,-14,-4,-2,-4,98,3841,7,2,924,2112,2174,2476,2737,2462,2253,2190,2308
43883,17616,-19844,15274,-17494,250,-3800,-16,-1,-1,20,107,3841,6,-2,924,2112,2174,2476,2737,2462,2253,2190,2308
44884,17616,-19844,15274,-17494,149,-3800,-18,-3,1,29,134,3847,5,7,924,2112,2174,2476,2737,2462,2253,2190,2308
45885,17620,-19840,15274,-17494,93,-3800,-18,-2,2,10,127,3838,4,-6,923,2112,2174,2476,2737,2462,2253,2190,2308
46886,17616,-19836,15274,-17494,197,-3800,-15,-3,-1,-2,102,3824,7,6,924,2112,2174,2476,2737,2462,2253,2190,2308
47887,17612,-19844,15274,-17494,201,-3800,-15,-3,-2,8,124,3819,9,0,924,2112,2174,2476,2737,2462,2253,2190,2308
48888,17612,-19840,15274,-17494,150,-3800,-16,-2,-1,22,133,3838,7,-6,924,2112,2174,2476,2737,2462,2253,2190,2308
49889,17608,-19832,15274,-17494,204,-3800,-15,-3,-2,23,108,3843,6,2,924,2112,2174,2476,2737,2462,2253,2190,2308
50890,17620,-19836,15274,-17494,-11,-3800,-14,-3,-3,2,106,3854,7,4,924,2112,2174,2476,2737,2462,2253,2190,2308
51891,17624,-19832,15274,-17494,83,-3800,-16,-2,-5,3,123,3818,2,-7,924,2112,2174,2476,2737,2462,2253,2190,2308
52892,17624,-19828,15274,-17494,132,-3800,-19,-1,-1,17,135,3815,3,6,924,2112,2174,2476,2737,2462,2253,2190,2308
53893,17612,-19832,15274,-17494,295,-3800,-19,-4,-1,19,131,3797,6,5,923,2112,2174,2476,2737,2462,2253,2190,2308
54894,17616,-19840,15274,-17494,90,-3800,-17,-2,0,29,114,3820,-4,-4,923,2112,2174,2476,2737,2462,2253,2190,2308
55895,17612,-19836,15274,-17494,193,-3800,-15,-2,-3,25,111,3875,-6,-4,924,2112,2174,2476,2737,2462,2253,2190,2308
56896,17612,-19832,15274,-17494,143,-3800,-14,-2,-4,15,106,3836,-6,4,924,2112,2174,2476,2737,2462,2253,2190,2308
57897,17604,-19836,15274,-17494,252,-3800,-14,-1,-4,23,108,3811,-9,3,924,2112,2174,2476,2737,2462,2253,2190,2308
58898,17608,-19828,15274,-17494,96,-3800,-16,-3,-3,21,112,3828,-8,6,924,2112,2174,2476,2737,2462,2253,2190,2308
59899,17608,-19832,15274,-17494,145,-3800,-15,-2,-2,11,103,3813,-9,2,924,2112,2174,2476,2737,2462,2253,2190,2308
60900,17616,-19836,15274,-17494,35,-3800,-14,-1,-1,32,114,3839,-9,-8,924,2112,2174,2476,2737,2462,2253,2190,2308
61901,17616,-19832,15274,-17494,134,-3800,-13,-1,0,19,106,3860,-9,6,924,2112,2174,2476,2737,2462,2253,2190,2308
62902,17612,-19836,15274,-17494,187,-3800,-13,0,-1,22,113,3800,-6,-5,924,2112,2174,2476,2737,2462,2253,2190,2308
63903,17616,-19832,15274,-17494,82,-3800,-15,-1,0,42,118,3834,-8,-3,924,2112,2174,2476,2737,2462,2253,2190,2308
64904,17620,-19836,15274,-17494,76,-3800,-16,-1,-2,36,121,3869,-9,7,924,2112,2174,2476,2737,2462,2253,2190,2308
65905,17608,-19836,15274,-17494,289,-3800,-16,-1,-1,66,141,3857,-8,-6,924,2112,2174,2476,2737,2462,2253,2190,2308
66906,17616,-19840,15274,-17494,30,-3800,-16,-1,0,55,120,3865,-9,7,924,2112,2174,2476,2737,2462,2253,2190,2308
67907,17612,-19832,15274,-17494,183,-3800,-17,-3,0,48,116,3880,-9,-6,924,2112,2174,2476,2737,2462,2253,2190,2308
68908,17612,-19836,15274,-17494,132,-3800,-18,-1,-2,48,129,3835,-9,-2,924,2112,2174,2476,2737,2462,2253,2190,2308
69909,17612,-19836,15274,-17494,131,-3800,-17,-1,0,9,115,3838,1,0,924,2112,2174,2476,2737,2462,2253,2190,2308
70910,17616,-19836,15274,-17494,76,-3800,-15,0,-1,32,87,3834,9,5,922,2112,2174,2476,2737,2462,2253,2190,2308
71911,17612,-19836,15274,-17494,179,-3800,-15,-1,-2,24,106,3823,-1,3,923,2112,2174,2476,2737,2462,2253,2190,2308
72912,17624,-19844,15274,-17494,-36,-3800,-17,-3,-1,42,114,3827,-5,-7,924,2112,2174,2476,2737,2462,2253,2190,2308
73913,17616,-19840,15274,-17494,223,-3800,-18,-1,2,29,113,3826,1,6,924,2112,2174,2476,2737,2462,2253,2190,2308
74914,17612,-19840,15274,-17494,176,-3800,-15,0,1,33,124,3813,0,-7,923,2112,2174,2476,2737,2462,2253,2190,2308
75915,17620,-19832,15274,-17494,16,-3800,-14,1,0,29,111,3799,-1,4,924,2112,2174,2476,2737,2462,2253,2190,2308
76916,17620,-19836,15274,-17494,116,-3800,-14,0,2,40,95,3840,-4,-5,924,2112,2174,2476,2737,2462,2253,2190,2308
77917,17616,-19844,15274,-17494,170,-3800,-16,-2,1,57,106,3854,-7,7,924,2112,2174,2476,2737,2462,2253,2190,2308
78918,17616,-19836,15274,-17494,119,-3800,-15,-1,-1,29,87,3858,-1,-6,923,2112,2174,2476,2737,2462,2253,2190,2308
79919,17608,-19840,15274,-17494,227,-3800,-14,0,0,18,118,3876,0,6,924,2112,2174,2476,2737,2462,2253,2190,2308
80920,17612,-19844,15274,-17494,71,-3800,-15,-1,-1,17,88,3874,-5,-7,924,2112,2174,2476,2737,2462,2253,2190,2308
81921,17620,-19840,15274,-17494,11,-3800,-17,-2,0,42,108,3846,0,6,924,2112,2174,2476,2737,2462,2253,2190,2308
82922,17616,-19836,15274,-17494,165,-3800,-17,-3,0,67,89,3859,-2,-7,924,2112,2174,2476,2737,2462,2253,2190,2308
83923,17608,-19836,15274,-17494,223,-3800,-17,-1,1,55,108,3854,2,5,924,2112,2174,2476,2737,2462,2253,2190,2308
84924,17624,-19824,15274,-17494,-97,-3800,-17,0,0,40,105,3832,8,-7,924,2112,2174,2476,2737,2462,2253,2190,2308
85925,17612,-19840,15274,-17494,267,-3800,-18,-1,-1,40,109,3843,9,6,924,2112,2174,2476,2737,2462,2253,2190,2308
86926,17616,-19836,15274,-17494,62,-3800,-19,0,-1,31,105,3843,9,-3,924,2112,2174,2476,2737,2462,2253,2190,2308
87927,17620,-19836,15274,-17494,56,-3800,-18,1,-1,26,95,3857,9,1,922,2112,2174,2476,2737,2462,2253,2190,2308
88928,17620,-19844,15274,-17494,105,-3800,-15,1,-2,25,121,3866,9,0,922,2112,2174,2476,2737,2462,2253,2190,2308
89929,17620,-19836,15274,-17494,104,-3800,-18,0,-3,26,114,3818,9,-7,924,2112,2174,2476,2737,2462,2253,2190,2308
90930,17616,-19844,15274,-17494,158,-3800,-18,0,-2,25,89,3844,8,6,924,2112,2174,2476,2737,2462,2253,2190,2308
91931,17608,-19844,15274,-17494,216,-3800,-18,-1,-1,17,117,3829,7,-4,923,2112,2174,2476,2737,2462,2253,2190,2308
92932,17608,-19844,15274,-17494,115,-3800,-18,-3,-2,25,111,3838,9,0,924,2112,2174,2476,2737,2462,2253,2190,2308
93933,17600,-19844,15274,-17494,224,-3800,-17,-2,-1,32,93,3860,6,6,924,2112,2174,2476,2737,2462,2253,2190,2308
94934,17624,-19844,15274,-17494,-206,-3800,-18,-2,0,5,116,3846,7,-5,924,2112,2174,2476,2737,2462,2253,2190,2308
95935,17620,-19844,15274,-17494,149,-3800,-19,-3,-1,5,108,3817,9,6,924,2112,2174,2476,2737,2462,2253,2190,2308
96936,17616,-19832,15274,-17494,153,-3800,-19,-3,-2,22,114,3848,9,-3,924,2112,2174,2476,2737,2462,2253,2190,2308
97937,17604,-19832,15274,-17494,266,-3800,-20,1,0,23,142,3849,7,-2,924,2112,2174,2476,2737,2462,2253,2190,2308
98938,17620,-19836,15274,-17494,-104,-3800,-18,2,0,33,148,3845,2,0,924,2112,2174,2476,2737,2462,2253,2190,2308
99939,17612,-19828,15274,-17494,204,-3800,-15,0,-2,38,122,3858,7,-2,924,2112,2174,2476,2737,2462,2253,2190,2308
100940,17620,-19840,15274,-17494,-6,-3800,-16,-1,-2,14,94,3859,8,-3,924,2112,2174,2476,2737,2462,2253,2190,2308
101941,17612,-19832,15274,-17494,202,-3800,-19,-1,-3,21,95,3855,8,-3,924,2112,2174,2476,2737,2462,2253,2190,2308
102942,17620,-19840,15274,-17494,-8,-3800,-20,-3,-2,9,97,3879,9,6,924,2112,2174,2476,2737,2462,2253,2190,2308
103943,17608,-19840,15274,-17494,255,-3800,-17,-4,-2,4,124,3857,3,-7,924,2112,2174,2476,2737,2462,2253,2190,2308
104944,17612,-19844,15274,-17494,50,-3800,-15,-2,-3,30,128,3848,-4,7,923,2112,2174,2476,2737,2462,2253,2190,2308
105945,17616,-19840,15274,-17494,45,-3800,-15,-2,-2,39,107,3826,3,-3,922,2112,2174,2476,2737,2462,2253,2190,2308
106946,17628,-19844,15274,-17494,-71,-3800,-17,-1,1,10,94,3794,2,6,924,2112,2174,2476,2737,2462,2253,2190,2308
107947,17608,-19836,15274,-17494,352,-3800,-17,1,1,18,113,3836,-8,-6,924,2112,2174,2476,2737,2462,2253,2190,2308
108948,17624,-19832,15274,-17494,-118,-3800,-16,0,-1,33,115,3861,-8,3,924,2112,2174,2476,2737,2462,2253,2190,2308
109949,17620,-19832,15274,-17494,136,-3800,-15,-1,-4,9,113,3872,-7,5,924,2112,2174,2476,2737,2462,2253,2190,2308
110950,17612,-19836,15274,-17494,194,-3800,-17,-4,-2,16,104,3835,-7,-7,924,2112,2174,2476,2737,2462,2253,2190,2308
111951,17620,-19836,15274,-17494,-16,-3800,-16,-3,0,24,124,3848,3,1,924,2112,2174,2476,2737,2462,2253,2190,2308
112952,17624,-19828,15274,-17494,28,-3800,-15,-1,2,38,110,3838,5,-3,924,2112,2174,2476,2737,2462,2253,2190,2308
113953,17616,-19848,15274,-17494,187,-3800,-15,-1,1,4,97,3849,2,-5,924,2112,2174,2476,2737,2462,2253,2190,2308
114954,17612,-19824,15274,-17494,141,-3800,-17,-2,0,-3,109,3812,5,6,924,2112,2174,2476,2737,2462,2253,2190,2308
115955,17612,-19832,15274,-17494,90,-3800,-16,-2,0,10,103,3824,-3,-5,924,2112,2174,2476,2737,2462,2253,2190,2308
116956,17620,-19844,15274,-17494,-20,-3800,-15,-2,0,23,111,3833,-5,5,923,2112,2174,2476,2737,2462,2253,2190,2308
117957,17624,-19840,15274,-17494,24,-3800,-17,-2,-1,10,104,3822,3,-8,924,2112,2174,2476,2737,2462,2253,2190,2308
118958,17612,-19840,15274,-17494,237,-3800,-17,1,-2,26,91,3845,4,6,924,2112,2174,2476,2737,2462,2253,2190,2308
119959,17612,-19836,15274,-17494,86,-3800,-14,1,-5,28,100,3850,4,-3,924,2112,2174,2476,2737,2462,2253,2190,2308
120960,17604,-19844,15274,-17494,195,-3800,-15,-2,-2,21,117,3801,9,4,923,2112,2174,2476,2737,2462,2253,2190,2308
121961,17628,-19840,15274,-17494,-235,-3800,-14,-1,0,29,86,3873,9,-3,923,2112,2174,2476,2737,2462,2253,2190,2308
122962,17616,-19832,15274,-17494,229,-3800,-15,-2,0,19,105,3828,6,-3,924,2112,2174,2476,2737,2462,2253,2190,2308
123963,17616,-19836,15274,-17494,78,-3800,-18,-2,-1,24,119,3801,-2,2,924,2112,2174,2476,2737,2462,2253,2190,2308
124964,17624,-19844,15274,-17494,-32,-3800,-16,-2,0,31,106,3821,-1,-6,924,2112,2174,2476,2737,2462,2253,2190,2308
125965,17612,-19832,15274,-17494,231,-3800,-15,-1,0,32,101,3864,-1,7,924,2112,2174,2476,2737,2462,2253,2190,2308
126966,17608,-19844,15274,-17494,135,-3800,-16,2,0,23,105,3884,-6,-3,924,2112,2174,2476,2737,2462,2253,2190,2308
127967,17620,-19828,15274,-17494,-80,-3800,-16,0,2,7,100,3862,-7,6,924,2112,2174,2476,2737,2462,2253,2190,2308
128968,17612,-19832,15274,-17494,178,-3800,-15,-2,2,17,105,3886,-5,-6,923,2112,2174,2476,2737,2462,2253,2190,2308
129969,17620,-19832,15274,-17494,-32,-3800,-16,-3,-1,10,116,3865,-9,-3,924,2112,2174,2476,2737,2462,2253,2190,2308
130970,17620,-19836,15274,-17494,67,-3800,-18,-2,-1,18,138,3852,-9,1,924,2112,2174,2476,2737,2462,2253,2190,2308
131971,17616,-19840,15274,-17494,121,-3800,-17,-2,-2,10,108,3863,-7,-7,924,2112,2174,2476,2737,2462,2253,2190,2308
132972,17620,-19836,15274,-17494,15,-3800,-16,1,-2,25,105,3828,5,7,924,2112,2174,2476,2737,2462,2253,2190,2308
133973,17608,-19848,15274,-17494,229,-3800,-16,-2,0,14,124,3834,9,-1,923,2112,2174,2476,2737,2462,2253,2190,2308
134974,17620,-19836,15274,-17494,-86,-3800,-16,-2,-2,58,132,3844,9,1,924,2112,2174,2476,2737,2462,2253,2190,2308
135975,17616,-19828,15274,-17494,118,-3800,-16,-2,-2,34,125,3828,-4,-7,924,2112,2174,2476,2737,2462,2253,2190,2308
136976,17608,-19832,15274,-17494,176,-3800,-17,-2,-1,16,122,3829,-9,6,924,2112,2174,2476,2737,2462,2253,2190,2308
137977,17608,-19852,15274,-17494,75,-3800,-18,-2,-3,58,91,3823,-9,-7,923,2112,2174,2476,2737,2462,2253,2190,2308
138978,17612,-19832,15274,-17494,19,-3800,-19,-3,1,48,114,3810,-6,2,922,2112,2174,2476,2737,2462,2253,2190,2308
139979,17608,-19828,15274,-17494,123,-3800,-19,-3,2,16,120,3840,-4,0,924,2112,2174,2476,2737,2462,2253,2190,2308
140980,17628,-19836,15274,-17494,-202,-3800,-18,-3,0,27,115,3863,2,-1,924,2112,2174,2476,2737,2462,2253,2190,2308
141981,17624,-19836,15274,-17494,102,-3800,-15,-2,-1,21,120,3835,7,7,924,2112,2174,2476,2737,2462,2253,2190,2308
142982,17620,-19840,15274,-17494,106,-3800,-15,-1,-2,29,118,3854,9,-6,924,2112,2174,2476,2737,2462,2253,2190,2308
143983,17616,-19836,15274,-17494,111,-3800,-18,-1,-1,15,114,3816,9,4,923,2112,2174,2476,2737,2462,2253,2190,2308
144984,17612,-19836,15274,-17494,114,-3800,-17,-2,-2,17,97,3829,1,1,923,2112,2174,2476,2737,2462,2253,2190,2308
145985,17620,-19840,15274,-17494,-46,-3800,-17,-1,-2,36,103,3865,5,-5,923,2112,2174,2476,2737,2462,2253,2190,2308
146986,17612,-19844,15274,-17494,162,-3800,-18,-2,-1,29,96,3863,8,7,924,2112,2174,2476,2737,2462,2253,2190,2308
147987,17612,-19848,15274,-17494,61,-3800,-18,-1,1,25,117,3838,4,2,923,2112,2174,2476,2737,2462,2253,2190,2308
148988,17620,-19844,15274,-17494,-49,-3800,-16,-1,3,16,122,3846,5,-3,924,2112,2174,2476,2737,2462,2253,2190,2308
149989,17612,-19828,15274,-17494,159,-3800,-17,0,3,5,124,3825,2,6,924,2112,2174,2476,2737,2462,2253,2190,2308
150990,17620,-19832,15274,-17494,-51,-3800,-16,-2,3,15,123,3833,-7,-6,924,2112,2174,2476,2737,2462,2253,2190,2308
151991,17612,-19836,15274,-17494,157,-3800,-14,-2,-1,19,131,3856,-9,-1,924,2112,2174,2476,2737,2462,2253,2190,2308
152992,17624,-19832,15274,-17494,-108,-3800,-14,-1,-1,26,130,3846,-7,7,923,2112,2174,2476,2737,2462,2253,2190,2308
153993,17612,-19844,15274,-17494,206,-3800,-15,-1,3,26,116,3878,-8,0,924,2112,2174,2476,2737,2462,2253,2190,2308
154994,17620,-19840,15274,-17494,-54,-3800,-16,-1,1,15,129,3852,-4,-2,923,2112,2174,2476,2737,2462,2253,2190,2308
155995,17616,-19832,15274,-17494,100,-3800,-16,-2,1,-8,103,3850,0,6,922,2112,2174,2476,2737,2462,2253,2190,2308
156996,17620,-19844,15274,-17494,-6,-3800,-18,-2,0,17,119,3851,-9,-4,923,2112,2174,2476,2737,2462,2253,2190,2308
157997,17616,-19840,15274,-17494,98,-3800,-19,0,-2,20,103,3824,-9,0,924,2112,2174,2476,2737,2462,2253,2190,2308
158998,17616,-19828,15274,-17494,47,-3800,-18,0,1,40,122,3808,-9,7,923,2112,2174,2476,2737,2462,2253,2190,2308
159999,17612,-19828,15274,-17494,100,-3800,-16,-2,1,35,142,3833,-4,0,923,2112,2174,2476,2737,2462,2253,2190,2308
161000,17612,-19836,15274,-17494,49,-3800,-17,-1,0,48,135,3851,-5,-6,924,2112,2174,2476,2737,2462,2253,2190,2308
162001,17620,-19836,15274,-17494,-61,-3800,-18,1,-1,35,128,3843,-9,6,923,2112,2174,2476,2737,2462,2253,2190,2308
163002,17612,-19832,15274,-17494,148,-3800,-17,-1,-1,32,111,3849,-8,-5,923,2112,2174,2476,2737,2462,2253,2190,2308
164003,17612,-19840,15274,-17494,47,-3800,-16,-2,-2,40,111,3839,1,3,923,2112,2174,2476,2737,2462,2253,2190,2308
165004,17616,-19852,15274,-17494,-8,-3800,-16,-3,-2,23,98,3825,9,6,923,2112,2174,2476,2737,2462,2253,2190,2308
166005,17612,-19840,15274,-17494,95,-3800,-15,-2,-1,8,121,3849,8,-5,923,2112,2174,2476,2737,2462,2253,2190,2308
167006,17620,-19840,15274,-17494,-65,-3800,-16,-1,0,17,113,3822,-3,1,924,2112,2174,2476,2737,2462,2253,2190,2308
168007,17616,-19832,15274,-17494,89,-3800,-17,3,-1,37,95,3822,-9,-5,923,2112,2174,2476,2737,2462,2253,2190,2308
169008,17616,-19828,15274,-17494,38,-3800,-16,3,-1,24,116,3816,-6,-4,923,2112,2174,2476,2737,2462,2253,2190,2308
170009,17608,-19836,15274,-17494,146,-3800,-15,0,-5,36,126,3859,7,-4,924,2112,2174,2476,2737,2462,2253,2190,2308
171010,17612,-19840,15274,-17494,-10,-3800,-17,-2,-3,7,124,3854,8,3,923,2112,2174,2476,2737,2462,2253,2190,2308
172011,17616,-19832,15274,-17494,-15,-3800,-16,-1,-1,9,118,3815,8,3,923,2112,2174,2476,2737,2462,2253,2190,2308
173012,17616,-19836,15274,-17494,35,-3800,-13,-2,0,34,104,3796,-2,-4,922,2112,2174,2476,2737,2462,2253,2190,2308
174013,17616,-19840,15274,-17494,34,-3800,-14,0,-2,18,108,3813,-5,7,923,2112,2174,2476,2737,2462,2253,2190,2308
175014,17612,-19840,15274,-17494,87,-3800,-16,0,-2,41,101,3851,-2,-1,923,2112,2174,2476,2737,2462,2253,2190,2308
176015,17616,-19852,15274,-17494,-18,-3800,-17,-1,-2,14,108,3850,-9,-1,923,2112,2174,2476,2737,2462,2253,2190,2308
177016,17612,-19836,15274,-17494,85,-3800,-16,-2,-3,0,116,3859,-8,4,923,2112,2174,2476,2737,2462,2253,2190,2308
178017,17616,-19828,15274,-17494,-20,-3800,-16,-3,-2,12,114,3851,-6,-7,923,2112,2174,2476,2737,2462,2253,2190,2308
179018,17616,-19840,15274,-17494,29,-3800,-16,-1,-1,18,116,3866,1,7,923,2112,2174,2476,2737,2462,2253,2190,2308
180019,17604,-19836,15274,-17494,192,-3800,-16,0,0,21,106,3868,-2,-6,923,2112,2174,2476,2737,2462,2253,2190,2308
181020,17612,-19840,15274,-17494,-69,-3800,-16,0,0,10,123,3886,-9,1,923,2112,2174,2476,2737,2462,2253,2190,2308
182021,17620,-19844,15274,-17494,-79,-3800,-16,-1,0,29,95,3892,-4,-7,923,2112,2174,2476,2737,2462,2253,2190,2308
183022,17612,-19840,15274,-17494,130,-3800,-14,-4,1,9,107,3871,-2,6,923,2112,2174,2476,2737,2462,2253,2190,2308
184023,17612,-19836,15274,-17494,29,-3800,-13,-3,0,13,119,3848,-3,-7,923,2112,2174,2476,2737,2462,2253,2190,2308
185024,17608,-19828,15274,-17494,83,-3800,-15,-3,-1,22,100,3844,0,0,923,2112,2174,2476,2737,2462,2253,2190,2308
186025,17620,-19824,15274,-17494,-132,-3800,-16,0,-2,23,74,3845,-1,-4,923,2112,2174,2476,2737,2462,2253,2190,2308
187026,17612,-19832,15274,-17494,126,-3800,-16,-1,0,33,86,3850,-2,-2,924,2112,2174,2476,2737,2462,2253,2190,2308
188027,17608,-19836,15274,-17494,80,-3800,-18,-3,1,20,92,3854,5,3,923,2112,2174,2476,2737,2462,2253,2190,2308
189028,17612,-19848,15274,-17494,-26,-3800,-17,-1,1,43,114,3827,9,1,923,2112,2174,2476,2737,2462,2253,2190,2308
190029,17612,-19836,15274,-17494,23,-3800,-19,0,1,42,122,3852,4,-6,923,2112,2174,2476,2737,2462,2253,2190,2308
191030,17608,-19844,15274,-17494,77,-3800,-19,-1,1,16,111,3863,-5,3,923,2112,2174,2476,2737,2462,2253,2190,2308
192031,17604,-19824,15274,-17494,82,-3800,-18,-2,0,20,117,3832,-6,-7,923,2112,2174,2476,2737,2462,2253,2190,2308
193032,17608,-19844,15274,-17494,-24,-3800,-18,-2,1,41,111,3844,-7,-1,923,2112,2174,2476,2737,2462,2253,2190,2308
194033,17608,-19836,15274,-17494,25,-3800,-18,-2,2,28,92,3829,2,6,923,2112,2174,2476,2737,2462,2253,2190,2308
195034,17624,-19824,15274,-17494,-195,-3800,-18,-2,2,16,104,3817,7,-6,923,2112,2174,2476,2737,2462,2253,2190,2308
196035,17612,-19836,15274,-17494,168,-3800,-19,-1,-2,12,105,3833,4,5,923,2112,2174,2476,2737,2462,2253,2190,2308
197036,17612,-19844,15274,-17494,17,-3800,-20,0,-3,37,151,3815,9,-3,923,2112,2174,2476,2737,2462,2253,2190,2308
198037,17620,-19836,15274,-17494,-93,-3800,-17,-1,-1,17,130,3843,8,-4,923,2112,2174,2476,2737,2462,2253,2190,2308
199038,17612,-19836,15274,-17494,115,-3800,-16,0,-2,7,111,3844,4,-3,923,2112,2174,2476,2737,2462,2253,2190,2308
200039,17616,-19848,15274,-17494,-40,-3800,-15,-1,-1,16,123,3840,-2,-5,923,2112,2174,2476,2737,2462,2253,2190,2308
201040,17604,-19836,15274,-17494,173,-3800,-16,0,1,32,113,3822,-4,6,923,2112,2174,2476,2737,2462,2253,2190,2308
202041,17624,-19844,15339,-17429,-2615,3472,-17,0,-1,15,119,3841,-3,-6,924,2112,2174,2476,2737,2462,2253,2190,2308
203042,17612,-19844,15404,-17364,-2122,3452,-16,-2,-4,21,103,3855,-7,-6,879,2112,2174,2476,2737,2462,2253,2190,2308
204043,17608,-19828,15469,-17299,-2139,3313,-18,-3,-1,26,124,3874,1,-204,880,2112,2174,2476,2737,2462,2253,2190,2308
205044,17616,-19748,15534,-17234,-2220,2495,-19,-4,-3,66,145,3785,19,-158,883,2112,2174,2476,2737,2462,2253,2190,2308
206045,17612,-19592,15599,-17169,-1987,1435,-29,-4,-13,-42,111,4033,20,-16,898,2112,2174,2476,2737,2462,2253,2190,2308
207046,17616,-19412,15664,-17104,-2013,996,-40,-36,-21,-172,-53,3799,19,78,910,2112,2174,2476,2737,2462,2253,2190,2308
208047,17616,-19216,15729,-17039,-1884,637,-37,-55,-38,-616,-43,4392,0,106,915,2112,2174,2476,2737,2462,2253,2190,2308
209048,17616,-19036,15794,-16974,-1806,698,-22,-72,-50,-232,65,3981,7,97,918,2112,2174,2476,2737,2462,2253,2190,2308
210049,17616,-18856,15859,-16909,-1727,558,-17,-94,-46,616,-89,3705,3,100,919,2112,2174,2476,2737,2462,2253,2190,2308
211050,17608,-18656,15924,-16844,-1538,143,-15,-32,-46,703,79,4273,17,115,920,2112,2174,2476,2737,2462,2253,2190,2308
212051,17624,-18460,15989,-16779,-1779,35,-31,24,-57,382,156,3311,-1,108,922,2112,2174,2476,2737,2462,2253,2190,2308
213052,17616,-18236,16054,-16714,-1391,-509,-47,91,-76,413,-145,3448,13,110,922,2112,2174,2476,2737,2462,2253,2190,2308
214053,17608,-18068,16119,-16649,-1302,66,-56,180,-91,861,-148,3293,11,99,919,2112,2174,2476,2737,2462,2253,2190,2308
215054,17616,-17880,16184,-16584,-1434,-333,-52,194,-86,505,-100,3227,14,103,923,2112,2174,2476,2737,2462,2253,2190,2308
216055,17608,-17716,16249,-16519,-1144,-154,-43,123,-83,-666,1,3535,18,98,921,2112,2174,2476,2737,2462,2253,2190,2308
217056,17616,-17568,16314,-16454,-1276,-55,-42,-6,-89,-605,126,3493,-3,93,922,2112,2174,2476,2737,2462,2253,2190,2308
218057,17612,-17372,16379,-16389,-1042,-815,-32,-120,-103,-533,-93,3794,-3,84,923,2112,2174,2476,2737,2462,2253,2190,2308
219058,17616,-17240,16444,-16324,-1068,-95,-28,-243,-115,46,-60,3426,8,90,916,2112,2174,2476,2737,2462,2253,2190,2308
220059,17620,-17104,16509,-16259,-994,-232,-16,-305,-108,-562,-87,4433,10,76,922,2112,2174,2476,2737,2462,2253,2190,2308
221060,17620,-16960,16574,-16194,-865,-428,-22,-293,-109,561,231,3783,5,77,922,2112,2174,2476,2737,2462,2253,2190,2308
222061,17628,-16816,16639,-16129,-896,-524,-21,-216,-117,770,-63,4510,0,82,921,2112,2174,2476,2737,2462,2253,2190,2308
223062,17616,-16692,16704,-16064,-553,-346,-41,-73,-159,843,-229,3765,12,65,919,2112,2174,2476,2737,2462,2253,2190,2308
224063,17608,-16580,16769,-15999,-514,-253,-59,53,-188,808,-283,4337,-6,60,920,2112,2174,2476,2737,2462,2253,2190,2308
225064,17616,-16472,16834,-15934,-644,-256,-73,120,-223,637,-411,3621,9,58,922,2112,2174,2476,2737,2462,2253,2190,2308
226065,17612,-16360,16899,-15869,-411,-363,-74,95,-233,683,-304,4031,13,50,922,2112,2174,2476,2737,2462,2253,2190,2308
227066,17608,-16268,16964,-15804,-327,-145,-60,63,-243,17,-289,3832,-5,58,921,2112,2174,2476,2737,2462,2253,2190,2308
228067,17604,-16172,17029,-15739,-242,-233,-72,15,-258,-272,-208,3594,-3,47,923,2112,2174,2476,2737,2462,2253,2190,2308
229068,17616,-16092,17094,-15674,-378,-51,-82,-28,-273,70,-384,3477,8,37,921,2112,2174,2476,2737,2462,2253,2190,2308
230069,17616,-16020,17159,-15609,-149,40,-93,-83,-277,15,-291,3299,-7,44,915,2112,2174,2476,2737,2462,2253,2190,2308
231070,17612,-15956,17224,-15544,-15,141,-104,-124,-285,-103,-332,3334,11,45,923,2112,2174,2476,2737,2462,2253,2190,2308
232071,17620,-15884,17289,-15479,-96,33,-116,-128,-302,39,-334,3379,-2,30,923,2112,2174,2476,2737,2462,2253,2190,2308
233072,17616,-15812,17354,-15414,139,25,-114,-121,-306,172,-303,3494,-6,32,919,2112,2174,2476,2737,2462,2253,2190,2308
234073,17624,-15748,17419,-15349,58,127,-103,-120,-304,51,-321,3657,-6,29,923,2112,2174,2476,2737,2462,2253,2190,2308
235074,17608,-15692,17484,-15284,457,238,-84,-110,-323,-30,-289,3864,10,39,923,2112,2174,2476,2737,2462,2253,2190,2308
236075,17616,-15648,17549,-15219,227,413,-62,-104,-338,265,-236,3872,-6,25,919,2112,2174,2476,2737,2462,2253,2190,2308
237076,17604,-15584,17614,-15154,571,164,-51,-99,-350,326,-233,4046,1,31,920,2112,2174,2476,2737,2462,2253,2190,2308
238077,17612,-15520,17679,-15089,390,166,-39,-89,-361,247,-62,4136,17,25,919,2112,2174,2476,2737,2462,2253,2190,2308
239078,17620,-15480,17744,-15024,460,497,-45,-57,-368,216,-84,4222,22,27,920,2112,2174,2476,2737,2462,2253,2190,2308
240079,17644,-15432,17809,-14959,310,418,-45,-32,-375,264,-77,4246,14,26,918,2112,2174,2476,2737,2462,2253,2190,2308
241080,17660,-15384,17874,-14894,470,439,-50,-24,-384,128,-183,4091,16,39,918,2112,2174,2476,2737,2462,2253,2190,2308
242081,17684,-15328,17939,-14829,420,350,-53,-22,-389,-60,-161,4073,8,26,918,2112,2174,2476,2737,2462,2253,2190,2308
243082,17724,-15284,18004,-14764,250,525,-59,7,-390,42,-194,4032,28,28,919,2112,2174,2476,2737,2462,2253,2190,2308
244083,17744,-15232,18069,-14699,555,441,-67,17,-401,189,-234,3825,14,34,919,2112,2174,2476,2737,2462,2253,2190,2308
245084,17784,-15184,18134,-14634,336,513,-73,4,-402,-2,-193,3781,32,33,918,2112,2174,2476,2737,2462,2253,2190,2308
246085,17828,-15128,18199,-14569,311,424,-75,-35,-394,-253,-240,3850,24,31,919,2112,2174,2476,2737,2462,2253,2190,2308
247086,17864,-15064,18264,-14504,448,325,-81,-70,-393,-217,-241,3777,26,38,920,2112,2174,2476,2737,2462,2253,2190,2308
248087,17924,-15020,18329,-14439,154,601,-83,-81,-391,-238,-307,3772,38,33,919,2112,2174,2476,2737,2462,2253,2190,2308
249088,17956,-14964,18394,-14374,544,463,-78,-90,-388,-168,-306,3753,40,31,919,2112,2174,2476,2737,2462,2253,2190,2308
250089,18008,-14920,18459,-14309,310,638,-69,-100,-378,-194,-296,3712,39,37,918,2112,2174,2476,2737,2462,2253,2190,2308
251090,18044,-14852,18524,-14244,545,335,-58,-105,-374,62,-181,3660,38,28,918,2112,2174,2476,2737,2462,2253,2190,2308
252091,18080,-14804,18589,-14179,581,605,-40,-106,-366,33,-184,3695,42,38,919,2112,2174,2476,2737,2462,2253,2190,2308
253092,18132,-14756,18654,-14114,398,626,-22,-100,-364,-326,-258,3631,46,33,916,2112,2174,2476,2737,2462,2253,2190,2308
254093,18192,-14684,18719,-14049,304,319,-6,-58,-366,-149,-263,3823,32,28,917,2112,2174,2476,2737,2462,2253,2190,2308
255094,18276,-14636,18784,-13984,-19,639,13,-19,-358,188,-73,3648,46,33,920,2112,2174,2476,2737,2462,2253,2190,2308
256095,18340,-14596,18849,-13919,232,770,33,-28,-339,-2,-144,3594,51,26,919,2112,2174,2476,2737,2462,2253,2190,2308
257096,18408,-14528,18914,-13854,178,416,53,-60,-340,-314,-1,3664,50,41,918,2112,2174,2476,2737,2462,2253,2190,2308
258097,18456,-14468,18979,-13789,450,523,57,-59,-341,-208,-18,3744,46,39,919,2112,2174,2476,2737,2462,2253,2190,2308
259098,18528,-14428,19044,-13724,141,804,61,-58,-319,36,162,3893,48,43,918,2112,2174,2476,2737,2462,2253,2190,2308
260099,18604,-14372,19109,-13659,78,615,67,-100,-294,-209,158,3803,37,44,917,2112,2174,2476,2737,2462,2253,2190,2308
261100,18684,-14292,19174,-13594,10,297,79,-131,-279,-343,127,4174,37,39,919,2112,2174,2476,2737,2462,2253,2190,2308
262101,18744,-14236,19239,-13529,266,609,83,-154,-260,-320,37,3925,32,39,922,2112,2174,2476,2737,2462,2253,2190,2308
263102,18808,-14164,19304,-13464,217,400,75,-152,-255,-263,147,4048,51,33,919,2112,2174,2476,2737,2462,2253,2190,2308
264103,18876,-14096,19369,-13399,164,446,74,-134,-241,-120,76,3860,37,46,920,2112,2174,2476,2737,2462,2253,2190,2308
265104,18948,-14020,19434,-13334,106,334,76,-161,-228,40,-26,3799,51,46,920,2112,2174,2476,2737,2462,2253,2190,2308
266105,19016,-13960,19499,-13269,152,540,88,-199,-213,-168,-63,3902,33,38,921,2112,2174,2476,2737,2462,2253,2190,2308
267106,19084,-13912,19564,-13204,148,711,112,-200,-200,-276,-105,3923,34,46,920,2112,2174,2476,2737,2462,2253,2190,2308
268107,19156,-13848,19629,-13139,90,512,129,-187,-191,7,-80,3897,38,39,918,2112,2174,2476,2737,2462,2253,2190,2308
269108,19212,-13760,19694,-13074,302,185,147,-143,-179,-49,-191,3802,44,34,920,2112,2174,2476,2737,2462,2253,2190,2308
270109,19280,-13696,19759,-13009,148,486,159,-114,-171,-100,-131,3887,45,40,921,2112,2174,2476,2737,2462,2253,2190,2308
271110,19356,-13640,19824,-12944,35,597,175,-123,-172,-139,0,3746,38,46,921,2112,2174,2476,2737,2462,2253,2190,2308
272111,19420,-13572,19889,-12879,186,443,188,-158,-167,-216,-88,3703,46,46,920,2112,2174,2476,2737,2462,2253,2190,2308
273112,19496,-13520,19954,-12814,23,660,205,-203,-162,-256,-39,3701,49,41,921,2112,2174,2476,2737,2462,2253,2190,2308
274113,19552,-13452,20019,-12749,284,457,217,-218,-153,-396,-9,3768,49,33,920,2112,2174,2476,2737,2462,2253,2190,2308
275114,19620,-13376,20084,-12684,131,343,220,-214,-145,-150,139,3894,36,38,919,2112,2174,2476,2737,2462,2253,2190,2308
276115,19696,-13312,20149,-12619,17,494,219,-199,-139,45,120,3791,36,35,921,2112,2174,2476,2737,2462,2253,2190,2308
277116,19756,-13244,20214,-12554,224,442,206,-181,-130,-78,162,3695,48,40,921,2112,2174,2476,2737,2462,2253,2190,2308
278117,19816,-13180,20279,-12489,230,493,211,-184,-117,-305,167,3862,39,31,921,2112,2174,2476,2737,2462,2253,2190,2308
279118,19876,-13092,20344,-12424,236,165,210,-179,-111,-265,165,3902,48,44,920,2112,2174,2476,2737,2462,2253,2190,2308
280119,19948,-13040,20409,-12359,78,631,215,-176,-96,-137,180,3997,31,43,922,2112,2174,2476,2737,2462,2253,2190,2308
281120,19992,-12976,20474,-12294,454,483,218,-174,-86,-52,236,3904,30,28,920,2112,2174,2476,2737,2462,2253,2190,2308
282121,20060,-12924,20539,-12229,150,649,221,-160,-83,-170,338,4138,42,43,919,2112,2174,2476,2737,2462,2253,2190,2308
283122,20124,-12860,20604,-12164,201,500,223,-177,-80,-88,261,3955,30,46,919,2112,2174,2476,2737,2462,2253,2190,2308
284123,20192,-12796,20669,-12099,148,501,233,-186,-74,1,230,4178,48,40,920,2112,2174,2476,2737,2462,2253,2190,2308
285124,20264,-12728,20734,-12034,89,449,239,-188,-71,-111,267,4203,31,31,921,2112,2174,2476,2737,2462,2253,2190,2308
286125,20304,-12664,20799,-11969,521,500,249,-159,-71,58,176,4397,47,39,921,2112,2174,2476,2737,2462,2253,2190,2308
287126,20380,-12608,20864,-11904,57,611,260,-160,-61,106,111,4159,39,39,918,2112,2174,2476,2737,2462,2253,2190,2308
288127,20436,-12540,20929,-11839,318,458,279,-174,-51,-87,125,4120,47,43,920,2112,2174,2476,2737,2462,2253,2190,2308
289128,20504,-12492,20994,-11774,165,729,291,-193,-50,-279,-15,4113,29,34,920,2112,2174,2476,2737,2462,2253,2190,2308
290129,20564,-12416,21059,-11709,271,366,298,-204,-57,-77,142,4039,48,33,918,2112,2174,2476,2737,2462,2253,2190,2308
291130,20632,-12360,21124,-11644,167,627,293,-210,-43,70,121,3914,45,44,920,2112,2174,2476,2737,2462,2253,2190,2308
292131,20700,-12292,21189,-11579,164,474,280,-201,-35,21,238,3979,31,35,918,2112,2174,2476,2737,2462,2253,2190,2308
293132,20740,-12232,21254,-11514,545,580,262,-205,-23,-54,245,3915,45,40,920,2112,2174,2476,2737,2462,2253,2190,2308
294133,20792,-12180,21319,-11449,411,696,243,-232,-5,104,277,3748,42,43,917,2112,2174,2476,2737,2462,2253,2190,2308
295134,20880,-12120,21384,-11384,-67,602,222,-224,6,-65,326,3839,39,45,917,2112,2174,2476,2737,2462,2253,2190,2308
296135,20936,-12044,21449,-11319,344,390,211,-211,9,-52,299,3778,46,32,919,2112,2174,2476,2737,2462,2253,2190,2308
297136,20996,-11980,21514,-11254,301,541,209,-202,9,191,244,3671,47,40,920,2112,2174,2476,2737,2462,2253,2190,2308
298137,21060,-11912,21579,-11189,252,487,200,-211,2,123,161,3508,38,43,919,2112,2174,2476,2737,2462,2253,2190,2308
299138,21124,-11856,21644,-11124,253,649,196,-211,-4,-70,125,3709,38,38,920,2112,2174,2476,2737,2462,2253,2190,2308
300139,21176,-11796,21709,-11059,419,605,198,-217,-8,-113,216,3724,30,44,918,2112,2174,2476,2737,2462,2253,2190,2308
301140,21240,-11724,21774,-10994,270,447,200,-234,-14,-91,299,3876,30,41,918,2112,2174,2476,2737,2462,2253,2190,2308
302141,21304,-11668,21839,-10929,273,658,192,-238,-14,-40,301,4008,31,31,920,2112,2174,2476,2737,2462,2253,2190,2308
303142,21356,-11608,21904,-10864,438,615,182,-219,-6,-9,251,3957,44,40,918,2112,2174,2476,2737,2462,2253,2190,2308
304143,21420,-11548,21969,-10799,290,621,173,-202,8,-16,223,3871,39,30,917,2112,2174,2476,2737,2462,2253,2190,2308
305144,21464,-11484,22034,-10734,565,572,162,-214,21,-96,174,3930,30,30,918,2112,2174,2476,2737,2462,2253,2190,2308
306145,21528,-11424,22099,-10669,317,628,167,-239,33,-82,171,4111,38,42,917,2112,2174,2476,2737,2462,2253,2190,2308
307146,21576,-11364,22164,-10604,538,635,175,-247,38,-23,348,4093,49,40,918,2112,2174,2476,2737,2462,2253,2190,2308
308147,21632,-11304,22229,-10539,449,641,177,-234,42,45,351,4161,48,37,917,2112,2174,2476,2737,2462,2253,2190,2308
309148,21712,-11248,22294,-10474,131,702,166,-213,47,154,298,4083,36,37,916,2112,2174,2476,2737,2462,2253,2190,2308
310149,21776,-11172,22359,-10409,332,440,151,-198,67,82,287,3898,34,38,918,2112,2174,2476,2737,2462,2253,2190,2308
311150,21848,-11116,22424,-10344,225,701,145,-209,71,-73,308,3876,45,34,920,2112,2174,2476,2737,2462,2253,2190,2308
312151,21904,-11052,22489,-10279,436,602,141,-233,70,12,277,3759,40,42,918,2112,2174,2476,2737,2462,2253,2190,2308
313152,21964,-10984,22554,-10214,392,549,123,-261,68,141,331,3815,30,31,918,2112,2174,2476,2737,2462,2253,2190,2308
314153,22020,-10936,22619,-10149,453,820,116,-254,72,71,259,3725,34,35,918,2112,2174,2476,2737,2462,2253,2190,2308
315154,22092,-10876,22684,-10084,244,676,98,-255,81,101,287,3774,44,32,916,2112,2174,2476,2737,2462,2253,2190,2308
316155,22156,-10816,22749,-10019,346,682,96,-254,84,130,188,3580,37,32,918,2112,2174,2476,2737,2462,2253,2190,2308
317156,22208,-10728,22814,-9954,512,305,75,-263,84,59,202,3690,29,40,917,2112,2174,2476,2737,2462,2253,2190,2308
318157,22284,-10660,22879,-9889,199,552,71,-264,90,60,153,3493,48,44,919,2112,2174,2476,2737,2462,2253,2190,2308
319158,22360,-10592,22944,-9824,185,548,74,-259,100,19,132,3681,50,28,919,2112,2174,2476,2737,2462,2253,2190,2308
320159,22408,-10544,23009,-9759,557,820,90,-262,104,-29,113,3579,30,37,920,2112,2174,2476,2737,2462,2253,2190,2308
321160,22464,-10488,23074,-9694,468,731,90,-250,102,82,36,3693,29,28,914,2112,2174,2476,2737,2462,2253,2190,2308
322161,22516,-10428,23139,-9629,534,687,84,-202,97,187,78,3857,46,43,916,2112,2174,2476,2737,2462,2253,2190,2308
323162,22580,-10368,23204,-9564,385,693,83,-140,105,102,159,3802,31,29,916,2112,2174,2476,2737,2462,2253,2190,2308
324163,22656,-10312,23269,-9499,222,755,74,-113,120,-54,237,3839,46,41,917,2112,2174,2476,2737,2462,2253,2190,2308
325164,22708,-10244,23334,-9434,539,601,70,-122,123,-42,335,3849,30,34,918,2112,2174,2476,2737,2462,2253,2190,2308
326165,22780,-10196,23399,-9369,280,872,67,-147,125,-228,282,3922,48,41,916,2112,2174,2476,2737,2462,2253,2190,2308
327166,22816,-10116,23464,-9304,766,455,77,-165,127,-319,376,4087,40,32,916,2112,2174,2476,2737,2462,2253,2190,2308
328167,22888,-10064,23529,-9239,307,821,80,-189,127,-156,413,3923,33,43,916,2112,2174,2476,2737,2462,2253,2190,2308
329168,22944,-9996,23594,-9174,519,617,76,-210,131,-42,422,4017,45,36,916,2112,2174,2476,2737,2462,2253,2190,2308
330169,23012,-9932,23659,-9109,365,669,59,-215,147,-50,483,4015,38,28,917,2112,2174,2476,2737,2462,2253,2190,2308
331170,23068,-9876,23724,-9044,526,780,55,-203,152,62,396,3881,51,29,917,2112,2174,2476,2737,2462,2253,2190,2308
332171,23124,-9828,23789,-8979,537,901,38,-201,163,77,373,3938,49,36,915,2112,2174,2476,2737,2462,2253,2190,2308
333172,23188,-9768,23854,-8914,439,758,59,-174,164,300,309,4145,49,37,914,2112,2174,2476,2737,2462,2253,2190,2308
334173,23260,-9716,23919,-8849,331,874,70,-169,170,232,292,3971,36,43,916,2112,2174,2476,2737,2462,2253,2190,2308
335174,23324,-9664,23984,-8784,432,890,98,-158,173,52,233,3974,40,42,916,2112,2174,2476,2737,2462,2253,2190,2308
336175,23408,-9596,24049,-8719,159,687,107,-159,183,153,167,3865,47,41,915,2112,2174,2476,2737,2462,2253,2190,2308
337176,23460,-9536,24114,-8654,576,793,127,-156,186,174,200,3949,40,27,918,2112,2174,2476,2737,2462,2253,2190,2308
338177,23512,-9480,24179,-8589,592,854,135,-150,188,268,137,3779,46,33,915,2112,2174,2476,2737,2462,2253,2190,2308
339178,23588,-9444,24244,-8524,278,1141,143,-139,186,261,233,3925,33,42,914,2112,2174,2476,2737,2462,2253,2190,2308
340179,23652,-9372,24309,-8459,430,682,143,-135,200,54,152,3620,35,34,913,2112,2174,2476,2737,2462,2253,2190,2308
341180,23736,-9316,24374,-8394,157,893,142,-142,202,-78,207,3784,49,43,917,2112,2174,2476,2737,2462,2253,2190,2308
342181,23788,-9248,24439,-8329,573,740,148,-142,191,-133,255,3734,35,42,916,2112,2174,2476,2737,2462,2253,2190,2308
343182,23836,-9180,24504,-8264,644,737,156,-149,178,-69,376,3928,35,40,914,2112,2174,2476,2737,2462,2253,2190,2308
344183,23896,-9128,24569,-8199,500,953,164,-172,166,9,374,3822,43,28,914,2112,2174,2476,2737,2462,2253,2190,2308
345184,23964,-9076,24634,-8134,397,969,170,-180,160,73,447,3939,47,40,913,2112,2174,2476,2737,2462,2253,2190,2308
346185,24012,-9012,24699,-8069,668,821,164,-179,151,-64,397,3838,36,37,914,2112,2174,2476,2737,2462,2253,2190,2308
347186,24084,-8956,24764,-8004,360,932,159,-161,146,-67,400,4011,33,28,913,2112,2174,2476,2737,2462,2253,2190,2308
348187,24132,-8904,24829,-7939,680,998,163,-144,141,72,378,3986,33,29,914,2112,2174,2476,2737,2462,2253,2190,2308
349188,24212,-8844,24894,-7874,263,905,164,-110,137,14,437,4218,43,27,912,2112,2174,2476,2737,2462,2253,2190,2308
350189,24272,-8804,24959,-7809,519,1185,174,-104,140,140,435,4133,37,28,915,2112,2174,2476,2737,2462,2253,2190,2308
351190,24332,-8768,25024,-7744,525,1272,181,-109,141,48,398,4239,34,32,911,2112,2174,2476,2737,2462,2253,2190,2308
352191,24408,-8696,25089,-7679,312,813,189,-125,142,-38,276,4178,47,40,910,2112,2174,2476,2737,2462,2253,2190,2308
353192,24456,-8632,25154,-7614,684,915,207,-132,143,-44,323,4168,37,41,916,2112,2174,2476,2737,2462,2253,2190,2308
354193,24520,-8564,25219,-7549,485,862,233,-154,147,-55,299,4138,49,28,912,2112,2174,2476,2737,2462,2253,2190,2308
355194,24600,-8516,25284,-7484,266,1132,260,-158,135,200,304,4054,33,42,914,2112,2174,2476,2737,2462,2253,2190,2308
356195,24672,-8452,25349,-7419,358,934,278,-183,126,219,271,3971,34,35,913,2112,2174,2476,2737,2462,2253,2190,2308
357196,24740,-8412,25414,-7354,405,1265,297,-199,118,-42,248,3833,34,39,915,2112,2174,2476,2737,2462,2253,2190,2308
358197,24780,-8348,25479,-7289,786,967,301,-170,100,249,357,3887,43,28,910,2112,2174,2476,2737,2462,2253,2190,2308
359198,24860,-8284,25544,-7224,267,968,308,-147,86,365,421,3984,46,40,910,2112,2174,2476,2737,2462,2253,2190,2308
360199,24920,-8220,25609,-7159,525,970,311,-134,74,363,444,3969,51,45,913,2112,2174,2476,2737,2462,2253,2190,2308
361200,24976,-8160,25674,-7094,586,1027,302,-137,61,159,334,3922,32,29,913,2112,2174,2476,2737,2462,2253,2190,2308
362201,25052,-8116,25739,-7029,322,1252,311,-147,42,83,509,3932,49,35,912,2112,2174,2476,2737,2462,2253,2190,2308
363202,25112,-8044,25804,-6964,528,895,312,-161,34,258,539,3898,34,41,911,2112,2174,2476,2737,2462,2253,2190,2308
364203,25180,-7984,25869,-6899,426,1051,307,-182,20,341,440,3806,48,31,914,2112,2174,2476,2737,2462,2253,2190,2308
365204,25240,-7920,25934,-6834,532,1002,301,-192,10,74,485,3995,44,42,913,2112,2174,2476,2737,2462,2253,2190,2308
366205,25288,-7868,25999,-6769,702,1169,301,-209,9,-15,395,3986,43,39,913,2112,2174,2476,2737,2462,2253,2190,2308
367206,25356,-7820,26064,-6704,449,1240,313,-192,3,161,224,4173,49,30,909,2112,2174,2476,2737,2462,2253,2190,2308
368207,25408,-7756,26129,-6639,666,1042,337,-179,13,-51,169,4158,34,33,910,2112,2174,2476,2737,2462,2253,2190,2308
369208,25464,-7700,26194,-6574,627,1153,337,-161,10,-6,420,3918,31,34,911,2112,2174,2476,2737,2462,2253,2190,2308
370209,25524,-7640,26259,-6509,583,1110,341,-138,11,72,337,4073,33,29,910,2112,2174,2476,2737,2462,2253,2190,2308
371210,25592,-7584,26324,-6444,479,1171,346,-130,4,211,390,4014,43,42,911,2112,2174,2476,2737,2462,2253,2190,2308
372211,25640,-7520,26389,-6379,751,1072,364,-126,9,-8,240,4257,35,33,911,2112,2174,2476,2737,2462,2253,2190,2308
373212,25716,-7456,26454,-6314,387,1075,375,-125,3,147,324,3959,36,40,910,2112,2174,2476,2737,2462,2253,2190,2308
374213,25796,-7424,26519,-6249,319,1515,381,-119,-12,177,301,4025,48,28,913,2112,2174,2476,2737,2462,2253,2190,2308
375214,25852,-7360,26584,-6184,631,1117,376,-140,-17,21,442,3884,38,28,907,2112,2174,2476,2737,2462,2253,2190,2308
376215,25924,-7312,26649,-6119,423,1338,368,-149,-27,174,391,3937,35,30,911,2112,2174,2476,2737,2462,2253,2190,2308
377216,25972,-7236,26714,-6054,743,975,361,-158,-39,227,476,3902,48,35,908,2112,2174,2476,2737,2462,2253,2190,2308
378217,26044,-7172,26779,-5989,435,1127,354,-162,-50,93,587,3978,41,31,911,2112,2174,2476,2737,2462,2253,2190,2308
379218,26108,-7112,26844,-5924,537,1183,356,-154,-58,170,528,3992,43,35,912,2112,2174,2476,2737,2462,2253,2190,2308
380219,26176,-7052,26909,-5859,483,1190,341,-153,-62,311,508,3963,37,44,911,2112,2174,2476,2737,2462,2253,2190,2308
381220,26240,-6984,26974,-5794,534,1086,350,-172,-66,356,422,3794,34,35,911,2112,2174,2476,2737,2462,2253,2190,2308
382221,26308,-6912,27039,-5729,481,1029,336,-193,-58,446,449,3894,33,44,911,2112,2174,2476,2737,2462,2253,2190,2308
383222,26360,-6856,27104,-5664,698,1240,355,-199,-60,264,397,3973,41,46,913,2112,2174,2476,2737,2462,2253,2190,2308
384223,26404,-6788,27169,-5599,823,1087,353,-196,-69,191,376,4003,33,35,909,2112,2174,2476,2737,2462,2253,2190,2308
385224,26472,-6740,27234,-5534,520,1358,367,-190,-69,257,297,3999,35,39,909,2112,2174,2476,2737,2462,2253,2190,2308
386225,26536,-6660,27299,-5469,572,940,372,-194,-59,208,398,4048,36,43,909,2112,2174,2476,2737,2462,2253,2190,2308
387226,26600,-6596,27364,-5404,573,1142,384,-226,-63,-20,350,3860,38,34,912,2112,2174,2476,2737,2462,2253,2190,2308
388227,26680,-6544,27429,-5339,355,1308,383,-253,-61,164,313,3880,48,36,911,2112,2174,2476,2737,2462,2253,2190,2308
389228,26728,-6484,27494,-5274,776,1215,392,-262,-72,23,426,3917,53,44,911,2112,2174,2476,2737,2462,2253,2190,2308
390229,26780,-6412,27559,-5209,742,1056,397,-270,-88,106,463,3897,35,42,908,2112,2174,2476,2737,2462,2253,2190,2308
391230,26856,-6348,27624,-5144,429,1158,411,-271,-97,299,491,4163,49,30,910,2112,2174,2476,2737,2462,2253,2190,2308
392231,26920,-6316,27689,-5079,580,1599,416,-298,-91,143,398,3937,40,42,910,2112,2174,2476,2737,2462,2253,2190,2308
393232,26976,-6244,27754,-5014,692,1091,410,-293,-97,38,389,3835,39,28,905,2112,2174,2476,2737,2462,2253,2190,2308
394233,27052,-6188,27819,-4949,429,1302,400,-284,-104,93,550,3954,49,41,908,2112,2174,2476,2737,2462,2253,2190,2308
395234,27132,-6140,27884,-4884,360,1424,395,-276,-114,250,643,3970,34,40,910,2112,2174,2476,2737,2462,2253,2190,2308
396235,27176,-6096,27949,-4819,837,1499,386,-288,-115,279,629,4045,48,37,909,2112,2174,2476,2737,2462,2253,2190,2308
397236,27236,-6040,28014,-4754,643,1361,374,-307,-117,30,588,3881,36,31,905,2112,2174,2476,2737,2462,2253,2190,2308
398237,27316,-5984,28079,-4689,375,1372,363,-317,-103,30,644,3987,43,39,907,2112,2174,2476,2737,2462,2253,2190,2308
399238,27380,-5932,28144,-4624,576,1439,360,-325,-96,181,610,3807,46,24,909,2112,2174,2476,2737,2462,2253,2190,2308
400239,27436,-5888,28209,-4559,688,1565,354,-329,-96,294,437,3817,44,33,907,2112,2174,2476,2737,2462,2253,2190,2308
401240,27484,-5844,28274,-4494,809,1591,355,-330,-99,126,377,3947,42,31,904,2112,2174,2476,2737,2462,2253,2190,2308
402241,27552,-5780,28339,-4429,555,1343,359,-341,-87,51,366,3950,30,25,903,2112,2174,2476,2737,2462,2253,2190,2308
403242,27620,-5740,28404,-4364,553,1674,384,-352,-83,191,282,4085,50,28,908,2112,2174,2476,2737,2462,2253,2190,2308
404243,27684,-5672,28469,-4299,604,1321,408,-383,-72,120,303,3960,47,31,904,2112,2174,2476,2737,2462,2253,2190,2308
405244,27740,-5632,28534,-4234,715,1702,430,-408,-74,165,423,4054,38,35,907,2112,2174,2476,2737,2462,2253,2190,2308
406245,27812,-5576,28599,-4169,506,1513,431,-416,-81,125,461,4028,47,24,903,2112,2174,2476,2737,2462,2253,2190,2308
407246,27864,-5516,28664,-4104,773,1470,459,-416,-79,341,512,3954,31,38,906,2112,2174,2476,2737,2462,2253,2190,2308
408247,27928,-5452,28729,-4039,624,1421,486,-420,-88,75,524,4103,47,37,905,2112,2174,2476,2737,2462,2253,2190,2308
409248,27964,-5380,28794,-3974,1010,1314,502,-430,-94,34,604,4005,50,35,907,2112,2174,2476,2737,2462,2253,2190,2308
410249,28036,-5316,28859,-3909,552,1415,517,-433,-106,68,586,4101,45,32,905,2112,2174,2476,2737,2462,2253,2190,2308
411250,28096,-5248,28924,-3844,708,1362,532,-429,-112,84,595,4003,51,36,906,2112,2174,2476,2737,2462,2253,2190,2308
412251,28144,-5188,28989,-3779,879,1469,543,-419,-114,71,564,4095,37,44,907,2112,2174,2476,2737,2462,2253,2190,2308
413252,28196,-5124,29054,-3714,846,1421,569,-442,-106,106,485,4148,37,41,904,2112,2174,2476,2737,2462,2253,2190,2308
414253,28256,-5068,29119,-3649,752,1533,590,-514,-81,-189,502,3871,38,50,905,2112,2174,2476,2737,2462,2253,2190,2308
415254,28332,-4984,29184,-3584,539,1159,591,-559,-82,-368,495,4092,45,44,904,2112,2174,2476,2737,2462,2253,2190,2308
416255,28396,-4908,29249,-3519,691,1247,592,-546,-64,-234,486,4029,39,40,910,2112,2174,2476,2737,2462,2253,2190,2308
417256,28460,-4856,29314,-3454,692,1563,593,-544,-31,-61,331,3970,37,46,908,2112,2174,2476,2737,2462,2253,2190,2308
418257,28524,-4784,29379,-3389,693,1305,586,-558,-23,23,421,3878,44,36,904,2112,2174,2476,2737,2462,2253,2190,2308
419258,28608,-4712,29444,-3324,421,1297,578,-594,-13,-324,309,4257,38,39,908,2112,2174,2476,2737,2462,2253,2190,2308
420259,28660,-4636,29509,-3259,837,1234,573,-590,20,339,529,3843,40,48,910,2112,2174,2476,2737,2462,2253,2190,2308
421260,28740,-4568,29574,-3194,469,1331,552,-523,42,289,407,4143,53,43,907,2112,2174,2476,2737,2462,2253,2190,2308
422261,28820,-4500,29639,-3129,451,1328,539,-458,59,318,449,3857,36,42,909,2112,2174,2476,2737,2462,2253,2190,2308
423262,28872,-4432,29704,-3064,817,1324,520,-425,63,285,487,3962,41,41,910,2112,2174,2476,2737,2462,2253,2190,2308
424263,28928,-4368,29769,-2999,778,1377,527,-409,53,75,423,3996,30,33,907,2112,2174,2476,2737,2462,2253,2190,2308
425264,28992,-4308,29834,-2934,679,1433,539,-427,33,9,595,4096,33,42,906,2112,2174,2476,2737,2462,2253,2190,2308
426265,29064,-4220,29899,-2869,572,1056,563,-455,17,-147,518,3929,50,33,906,2112,2174,2476,2737,2462,2253,2190,2308
427266,29112,-4172,29964,-2804,893,1576,578,-500,8,-105,569,4026,34,35,911,2112,2174,2476,2737,2462,2253,2190,2308
428267,29176,-4120,30029,-2739,694,1543,594,-558,-12,-87,624,3819,36,41,901,2112,2174,2476,2737,2462,2253,2190,2308
429268,29240,-4072,30094,-2674,696,1614,615,-624,-30,-264,586,3865,34,32,904,2112,2174,2476,2737,2462,2253,2190,2308
430269,29296,-3992,30159,-2609,807,1197,634,-686,-25,-218,528,3850,34,43,904,2112,2174,2476,2737,2462,2253,2190,2308
431270,29356,-3908,30224,-2544,763,1124,659,-717,-18,-153,542,3882,47,36,908,2112,2174,2476,2737,2462,2253,2190,2308
432271,29400,-3848,30289,-2479,990,1431,684,-731,-9,-362,520,3985,49,46,908,2112,2174,2476,2737,2462,2253,2190,2308
433272,29460,-3784,30354,-2414,796,1383,701,-745,6,-91,488,4068,49,34,903,2112,2174,2476,2737,2462,2253,2190,2308
434273,29544,-3708,30419,-2349,473,1219,708,-752,30,166,485,3931,51,37,906,2112,2174,2476,2737,2462,2253,2190,2308
435274,29616,-3656,30484,-2284,615,1536,704,-759,67,-163,497,3819,51,39,910,2112,2174,2476,2737,2462,2253,2190,2308
436275,29680,-3592,30549,-2219,716,1388,695,-741,103,-28,674,3907,35,39,905,2112,2174,2476,2737,2462,2253,2190,2308
437276,29736,-3508,30614,-2154,827,1115,683,-720,135,140,613,3947,46,39,906,2112,2174,2476,2737,2462,2253,2190,2308
438277,29800,-3436,30679,-2089,729,1257,674,-732,173,105,561,3945,32,36,908,2112,2174,2476,2737,2462,2253,2190,2308
439278,29876,-3372,30744,-2024,566,1359,651,-742,189,117,465,4035,29,38,908,2112,2174,2476,2737,2462,2253,2190,2308
440279,29916,-3320,30809,-1959,1047,1525,608,-729,174,60,546,3736,30,44,909,2112,2174,2476,2737,2462,2253,2190,2308
441280,29996,-3232,30874,-1894,529,1048,515,-703,145,-339,511,3947,44,45,902,2112,2174,2476,2737,2462,2253,2190,2308
442281,30032,-3156,30939,-1829,1115,1184,473,-635,135,-65,375,4285,46,43,911,2112,2174,2476,2737,2462,2253,2190,2308
443282,30088,-3088,31004,-1764,876,1282,450,-651,181,528,724,3474,44,36,905,2112,2174,2476,2737,2462,2253,2190,2308
444283,30164,-3032,31069,-1699,613,1443,402,-690,171,-68,410,3550,33,42,906,2112,2174,2476,2737,2462,2253,2190,2308
445284,30216,-2944,31134,-1634,929,1016,366,-718,134,-484,437,3695,36,37,905,2112,2174,2476,2737,2462,2253,2190,2308
446285,30268,-2864,31199,-1569,945,1097,362,-737,136,-104,487,3618,47,44,909,2112,2174,2476,2737,2462,2253,2190,2308
447286,30336,-2788,31264,-1504,742,1135,371,-717,136,125,217,3615,34,40,907,2112,2174,2476,2737,2462,2253,2190,2308
448287,30396,-2728,31329,-1439,848,1341,385,-704,140,-111,298,3873,41,42,909,2112,2174,2476,2737,2462,2253,2190,2308
449288,30448,-2660,31394,-1374,964,1238,405,-738,153,-87,337,3661,41,39,905,2112,2174,2476,2737,2462,2253,2190,2308
450289,30520,-2580,31459,-1309,707,1070,412,-754,159,-213,320,3878,51,47,905,2112,2174,2476,2737,2462,2253,2190,2308
451290,30564,-2532,31658,-1110,1933,2342,423,-771,173,-61,441,3847,42,36,910,2112,2174,2476,2737,2462,2253,2190,2308
452291,30640,-2460,31723,-1045,1521,2034,432,-767,197,63,486,3911,32,43,881,2112,2174,2476,2737,2462,2253,2190,2308
453292,30708,-2384,31788,-980,1617,1971,431,-779,229,-69,495,3925,44,48,890,2112,2174,2476,2737,2462,2253,2190,2308
454293,30788,-2292,31853,-915,1449,1738,419,-794,265,-59,538,3938,66,54,891,2112,2174,2476,2737,2462,2253,2190,2308
455294,30880,-2212,31918,-850,1267,1871,395,-778,312,43,491,4026,56,54,895,2112,2174,2476,2737,2462,2253,2190,2308
456295,30952,-2108,31983,-785,1508,1523,365,-731,343,177,687,3984,74,62,895,2112,2174,2476,2737,2462,2253,2190,2308
457296,31032,-1992,32048,-720,1391,1312,344,-721,373,113,797,4140,64,69,897,2112,2174,2476,2737,2462,2253,2190,2308
458297,31156,-1876,32113,-655,769,1250,322,-740,396,303,731,3880,81,70,902,2112,2174,2476,2737,2462,2253,2190,2308
459298,31280,-1792,32178,-590,697,1628,288,-752,425,-78,563,4062,70,59,908,2112,2174,2476,2737,2462,2253,2190,2308
460299,31400,-1680,32243,-525,681,1220,256,-730,443,149,864,4136,80,68,904,2112,2174,2476,2737,2462,2253,2190,2308
461300,31508,-1584,32308,-460,778,1384,241,-686,447,440,912,4323,62,65,909,2112,2174,2476,2737,2462,2253,2190,2308
462301,31612,-1484,32373,-395,780,1291,232,-683,446,392,569,4149,71,49,905,2112,2174,2476,2737,2462,2253,2190,2308
463302,31712,-1392,32438,-330,789,1358,205,-662,436,367,850,4529,62,47,907,2112,2174,2476,2737,2462,2253,2190,2308
464303,31812,-1316,32503,-265,746,1545,198,-658,421,166,962,4242,65,56,906,2112,2174,2476,2737,2462,2253,2190,2308
465304,31892,-1236,32568,-200,978,1477,188,-627,412,268,607,4304,63,43,905,2112,2174,2476,2737,2462,2253,2190,2308
466305,31976,-1160,32633,-135,905,1515,188,-603,410,471,581,4273,68,55,903,2112,2174,2476,2737,2462,2253,2190,2308
467306,32072,-1092,32698,-70,718,1611,194,-554,413,263,719,4288,50,46,903,2112,2174,2476,2737,2462,2253,2190,2308
468307,32156,-1008,32763,-5,844,1388,198,-517,425,248,442,4047,63,48,903,2112,2174,2476,2737,2462,2253,2190,2308
469308,32236,-940,32828,60,876,1585,205,-501,452,46,442,4077,66,48,905,2112,2174,2476,2737,2462,2253,2190,2308
470309,32332,-872,32893,125,638,1582,206,-512,481,-125,555,3858,60,39,902,2112,2174,2476,2737,2462,2253,2190,2308
471310,32412,-796,32958,190,821,1469,210,-500,507,43,616,4052,61,43,904,2112,2174,2476,2737,2462,2253,2190,2308
472311,32504,-716,33023,255,638,1401,212,-490,541,118,581,3922,57,50,905,2112,2174,2476,2737,2462,2253,2190,2308
473312,32564,-644,33088,320,1044,1492,212,-487,573,373,841,4056,57,51,907,2112,2174,2476,2737,2462,2253,2190,2308
474313,32620,-568,33153,385,1105,1430,216,-472,597,191,963,4077,46,46,902,2112,2174,2476,2737,2462,2253,2190,2308
475314,32708,-492,33218,450,677,1416,208,-462,604,191,994,4034,53,53,902,2112,2174,2476,2737,2462,2253,2190,2308
476315,32796,-412,33283,515,650,1348,198,-460,625,247,865,4155,47,55,906,2112,2174,2476,2737,2462,2253,2190,2308
477316,32848,-340,33348,580,1116,1441,182,-442,646,353,982,4217,37,47,907,2112,2174,2476,2737,2462,2253,2190,2308
478317,32920,-248,33413,645,857,1158,185,-397,666,504,1104,4498,33,52,902,2112,2174,2476,2737,2462,2253,2190,2308
479318,32948,-184,33478,710,1452,1509,189,-358,693,701,963,4342,37,45,906,2112,2174,2476,2737,2462,2253,2190,2308
480319,33040,-108,33543,775,620,1346,182,-330,687,576,767,4404,52,54,898,2112,2174,2476,2737,2462,2253,2190,2308
481320,33096,-24,33608,840,1081,1223,133,-290,659,-165,895,4300,47,60,908,2112,2174,2476,2737,2462,2253,2190,2308
482321,33160,72,33673,905,983,1035,83,-216,638,360,1058,4413,54,45,905,2112,2174,2476,2737,2462,2253,2190,2308
483322,33228,144,33738,970,929,1328,47,-118,627,911,837,4293,38,43,908,2112,2174,2476,2737,2462,2253,2190,2308
484323,33292,208,33803,1035,980,1429,58,-80,615,800,707,4372,42,54,905,2112,2174,2476,2737,2462,2253,2190,2308
485324,33368,280,33868,1100,817,1320,98,-107,621,566,891,4235,43,55,903,2112,2174,2476,2737,2462,2253,2190,2308
486325,33428,368,33933,1165,1023,1093,145,-168,610,135,644,3933,46,46,907,2112,2174,2476,2737,2462,2253,2190,2308
487326,33516,456,33998,1230,646,1065,186,-185,595,109,585,3947,38,54,907,2112,2174,2476,2737,2462,2253,2190,2308
488327,33572,528,34063,1295,1057,1257,204,-178,596,208,848,3939,50,61,910,2112,2174,2476,2737,2462,2253,2190,2308
489328,33624,620,34128,1360,1123,975,221,-147,616,372,778,3679,45,56,905,2112,2174,2476,2737,2462,2253,2190,2308
490329,33692,684,34193,1425,919,1326,215,-139,626,450,935,3780,41,51,907,2112,2174,2476,2737,2462,2253,2190,2308
491330,33760,772,34258,1490,915,998,209,-144,645,180,998,3472,36,56,906,2112,2174,2476,2737,2462,2253,2190,2308
492331,33812,844,34323,1555,1132,1189,187,-146,668,241,1041,3528,44,43,909,2112,2174,2476,2737,2462,2253,2190,2308
493332,33884,924,34388,1620,874,1072,173,-113,678,84,980,3403,35,45,905,2112,2174,2476,2737,2462,2253,2190,2308
494333,33948,1000,34453,1685,975,1109,141,-65,689,507,1082,3430,34,46,908,2112,2174,2476,2737,2462,2253,2190,2308
495334,34012,1068,34518,1750,976,1205,117,-32,718,528,1036,3383,37,49,907,2112,2174,2476,2737,2462,2253,2190,2308
496335,34072,1140,34583,1815,1032,1146,82,-25,746,539,1124,3372,45,42,904,2112,2174,2476,2737,2462,2253,2190,2308
497336,34120,1220,34648,1880,1204,1029,60,-17,755,404,998,3362,53,54,906,2112,2174,2476,2737,2462,2253,2190,2308
498337,34200,1304,34713,1945,786,956,40,0,740,463,1089,3474,55,38,906,2112,2174,2476,2737,2462,2253,2190,2308
499338,34280,1372,34778,2010,767,1152,22,27,728,591,1056,3537,53,44,911,2112,2174,2476,2737,2462,2253,2190,2308
500339,34344,1420,34843,2075,969,1423,15,53,725,520,1150,3688,43,48,909,2112,2174,2476,2737,2462,2253,2190,2308
501340,34404,1500,34908,2140,1025,1006,8,76,694,619,1161,3657,55,41,904,2112,2174,2476,2737,2462,2253,2190,2308
502341,34476,1560,34973,2205,866,1262,14,61,670,549,1090,3826,53,50,907,2112,2174,2476,2737,2462,2253,2190,2308
503342,34556,1632,35038,2270,749,1103,34,31,651,674,1238,3792,51,51,906,2112,2174,2476,2737,2462,2253,2190,2308
504343,34616,1708,35103,2335,1005,1040,64,5,636,468,1152,3819,41,41,909,2112,2174,2476,2737,2462,2253,2190,2308
505344,34672,1780,35168,2400,1066,1082,99,-7,607,469,1095,3748,38,37,907,2112,2174,2476,2737,2462,2253,2190,2308
506345,34748,1856,35233,2465,803,1019,130,-35,581,570,1282,3759,57,52,907,2112,2174,2476,2737,2462,2253,2190,2308
507346,34820,1920,35298,2530,844,1170,138,-59,573,708,1202,3720,48,50,910,2112,2174,2476,2737,2462,2253,2190,2308
508347,34900,1984,35363,2595,727,1171,153,-82,586,716,1091,3697,54,39,908,2112,2174,2476,2737,2462,2253,2190,2308
509348,34960,2052,35428,2660,983,1119,161,-79,602,653,1237,3577,52,43,909,2112,2174,2476,2737,2462,2253,2190,2308
510349,35028,2112,35493,2725,879,1225,170,-63,618,541,1332,3495,36,49,907,2112,2174,2476,2737,2462,2253,2190,2308
511350,35088,2176,35558,2790,985,1176,173,-54,636,583,1320,3270,38,37,907,2112,2174,2476,2737,2462,2253,2190,2308
512351,35168,2240,35623,2855,717,1177,177,-69,659,548,1316,3320,40,49,907,2112,2174,2476,2737,2462,2253,2190,2308
513352,35240,2308,35688,2920,808,1124,178,-69,672,599,1335,3244,46,42,908,2112,2174,2476,2737,2462,2253,2190,2308
514353,35300,2368,35753,2985,965,1231,185,-75,686,628,1373,3270,50,48,908,2112,2174,2476,2737,2462,2253,2190,2308
515354,35368,2424,35818,3050,862,1292,182,-60,701,728,1413,3227,54,39,906,2112,2174,2476,2737,2462,2253,2190,2308
516355,35432,2508,35883,3115,913,918,182,-52,700,574,1335,3158,53,55,906,2112,2174,2476,2737,2462,2253,2190,2308
517356,35500,2580,35948,3180,859,1060,170,-39,697,493,1335,3309,53,52,909,2112,2174,2476,2737,2462,2253,2190,2308
518357,35560,2676,36013,3245,965,723,183,-35,718,685,1364,3275,46,51,909,2112,2174,2476,2737,2462,2253,2190,2308
519358,35656,2760,36078,3310,478,850,193,-30,716,827,1289,3175,38,46,911,2112,2174,2476,2737,2462,2253,2190,2308
520359,35704,2840,36143,3375,1099,882,212,-53,673,534,1322,3344,47,52,914,2112,2174,2476,2737,2462,2253,2190,2308
521360,35772,2904,36208,3440,846,1083,217,-90,642,342,1187,3448,43,46,909,2112,2174,2476,2737,2462,2253,2190,2308
522361,35836,2980,36273,3505,897,919,221,-87,609,632,1281,3631,40,52,909,2112,2174,2476,2737,2462,2253,2190,2308
523362,35892,3040,36338,3570,1008,1126,216,-85,591,740,1230,3522,41,46,910,2112,2174,2476,2737,2462,2253,2190,2308
524363,35968,3120,36403,3635,745,858,222,-62,567,728,1286,3729,35,52,907,2112,2174,2476,2737,2462,2253,2190,2308
525364,36028,3168,36468,3700,951,1279,233,-53,539,850,1292,3725,53,51,911,2112,2174,2476,2737,2462,2253,2190,2308
526365,36100,3248,36533,3765,793,861,257,-53,520,648,1252,3756,43,39,906,2112,2174,2476,2737,2462,2253,2190,2308
527366,36160,3308,36598,3830,949,1117,268,-61,511,678,1262,3745,52,53,911,2112,2174,2476,2737,2462,2253,2190,2308
528367,36240,3384,36663,3895,681,904,293,-48,508,720,1291,3801,50,38,908,2112,2174,2476,2737,2462,2253,2190,2308
529368,36300,3468,36728,3960,937,781,311,-25,512,822,1371,3803,46,48,912,2112,2174,2476,2737,2462,2253,2190,2308
530369,36360,3528,36793,4025,943,1087,326,-9,519,851,1481,3795,34,45,909,2112,2174,2476,2737,2462,2253,2190,2308
531370,36428,3580,36858,4090,839,1203,343,12,526,831,1514,3763,43,53,908,2112,2174,2476,2737,2462,2253,2190,2308
532371,36512,3648,36923,4155,617,999,338,21,542,711,1490,3631,47,48,907,2112,2174,2476,2737,2462,2253,2190,2308
533372,36572,3716,36988,4220,923,997,346,40,558,716,1510,3585,51,56,911,2112,2174,2476,2737,2462,2253,2190,2308
534373,36652,3796,37053,4285,655,828,345,44,574,727,1593,3471,42,45,909,2112,2174,2476,2737,2462,2253,2190,2308
535374,36720,3888,37118,4350,801,645,361,64,568,609,1473,3655,37,48,913,2112,2174,2476,2737,2462,2253,2190,2308
536375,36772,3964,37183,4415,1017,832,358,65,583,561,1606,3430,34,54,913,2112,2174,2476,2737,2462,2253,2190,2308
537376,36852,4052,37248,4480,649,654,377,55,599,839,1564,3378,53,57,910,2112,2174,2476,2737,2462,2253,2190,2308
538377,36920,4120,37313,4545,796,900,391,62,585,730,1379,3308,49,46,914,2112,2174,2476,2737,2462,2253,2190,2308
539378,36980,4208,37378,4610,902,623,405,39,556,461,1433,3343,37,42,911,2112,2174,2476,2737,2462,2253,2190,2308
540379,37052,4272,37443,4675,744,924,419,49,528,499,1371,3558,52,41,912,2112,2174,2476,2737,2462,2253,2190,2308
541380,37104,4360,37508,4740,1010,596,412,60,508,761,1372,3354,49,49,911,2112,2174,2476,2737,2462,2253,2190,2308
542381,37188,4432,37573,4805,586,788,414,87,482,866,1326,3559,40,56,912,2112,2174,2476,2737,2462,2253,2190,2308
543382,37240,4492,37638,4870,1002,944,415,86,463,743,1266,3512,47,55,914,2112,2174,2476,2737,2462,2253,2190,2308
544383,37316,4592,37703,4935,689,401,415,107,426,795,1368,3680,46,51,909,2112,2174,2476,2737,2462,2253,2190,2308
545384,37380,4672,37768,5000,841,633,419,133,398,728,1303,3671,55,46,916,2112,2174,2476,2737,2462,2253,2190,2308
546385,37448,4732,37833,5065,787,890,424,160,364,695,1322,3815,43,49,913,2112,2174,2476,2737,2462,2253,2190,2308
547386,37512,4808,37898,5130,839,677,427,183,334,674,1397,3786,52,49,909,2112,2174,2476,2737,2462,2253,2190,2308
548387,37584,4872,37963,5195,730,828,434,213,315,656,1340,3733,49,40,912,2112,2174,2476,2737,2462,2253,2190,2308
549388,37656,4952,38028,5260,722,609,445,221,313,635,1345,3775,38,48,912,2112,2174,2476,2737,2462,2253,2190,2308
550389,37736,5024,38093,5325,603,701,413,219,334,926,1421,3574,41,46,915,2112,2174,2476,2737,2462,2253,2190,2308
551390,37784,5096,38158,5390,1024,692,387,265,319,1158,1554,3825,55,43,915,2112,2174,2476,2737,2462,2253,2190,2308
552391,37880,5184,38223,5455,387,464,354,322,335,423,1558,3593,55,49,911,2112,2174,2476,2737,2462,2253,2190,2308
553392,37940,5252,38288,5520,843,711,354,352,349,536,1634,3555,51,54,918,2112,2174,2476,2737,2462,2253,2190,2308
554393,38008,5340,38353,5585,740,433,346,344,343,690,1451,3451,50,39,913,2112,2174,2476,2737,2462,2253,2190,2308
555394,38088,5408,38418,5650,571,680,339,309,335,496,1515,3445,47,43,915,2112,2174,2476,2737,2462,2253,2190,2308
556395,38152,5468,38483,5715,773,786,327,287,342,398,1483,3435,38,46,915,2112,2174,2476,2737,2462,2253,2190,2308
557396,38232,5544,38548,5780,554,573,319,287,350,742,1370,3293,49,53,913,2112,2174,2476,2737,2462,2253,2190,2308
558397,38316,5632,38613,5845,481,395,320,300,356,999,1432,3369,57,57,916,2112,2174,2476,2737,2462,2253,2190,2308
559398,38388,5704,38678,5910,623,586,313,312,353,709,1386,3321,38,49,918,2112,2174,2476,2737,2462,2253,2190,2308
560399,38472,5780,38743,5975,450,523,325,341,325,645,1415,3420,37,51,916,2112,2174,2476,2737,2462,2253,2190,2308
561400,38532,5844,38808,6040,756,674,326,350,291,826,1385,3381,46,48,917,2112,2174,2476,2737,2462,2253,2190,2308
562401,38608,5912,38873,6105,543,620,330,345,265,808,1351,3262,36,51,914,2112,2174,2476,2737,2462,2253,2190,2308
563402,38664,5984,38938,6170,804,562,321,355,228,809,1379,3315,50,50,916,2112,2174,2476,2737,2462,2253,2190,2308
564403,38732,6052,39003,6235,650,608,310,363,188,740,1340,3137,39,40,913,2112,2174,2476,2737,2462,2253,2190,2308
565404,38800,6124,39068,6300,647,549,291,383,163,724,1252,3116,52,54,915,2112,2174,2476,2737,2462,2253,2190,2308
566405,38868,6196,39133,6365,643,541,263,409,136,799,1235,3149,40,49,916,2112,2174,2476,2737,2462,2253,2190,2308
567406,38948,6272,39198,6430,475,477,239,427,118,772,1164,3056,54,46,916,2112,2174,2476,2737,2462,2253,2190,2308
568407,39032,6336,39263,6495,401,629,196,431,115,640,977,3001,51,44,918,2112,2174,2476,2737,2462,2253,2190,2308
569408,39108,6420,39328,6560,488,356,158,462,107,619,1121,2995,38,46,917,2112,2174,2476,2737,2462,2253,2190,2308
570409,39180,6500,39393,6625,530,388,118,482,111,679,1366,3042,36,48,918,2112,2174,2476,2737,2462,2253,2190,2308
571410,39240,6580,39458,6690,687,370,92,526,109,671,1306,3074,39,55,918,2112,2174,2476,2737,2462,2253,2190,2308
572411,39316,6656,39523,6755,473,406,63,548,116,814,1205,3040,51,46,917,2112,2174,2476,2737,2462,2253,2190,2308
573412,39392,6724,39588,6820,460,503,35,557,102,576,1272,3041,41,50,919,2112,2174,2476,2737,2462,2253,2190,2308
574413,39460,6812,39653,6885,556,225,4,592,103,341,1230,3138,53,52,918,2112,2174,2476,2737,2462,2253,2190,2308
575414,39548,6892,39718,6950,278,306,-21,660,112,879,1132,2977,40,42,919,2112,2174,2476,2737,2462,2253,2190,2308
576415,39632,6972,39783,7015,305,288,-41,683,114,1055,986,2865,53,49,920,2112,2174,2476,2737,2462,2253,2190,2308
577416,39700,7060,39848,7080,501,160,-69,668,113,366,908,2779,50,40,921,2112,2174,2476,2737,2462,2253,2190,2308
578417,39776,7128,39913,7145,388,406,-95,684,101,359,982,2802,34,39,920,2112,2174,2476,2737,2462,2253,2190,2308
579418,39840,7208,39978,7210,539,238,-109,698,86,786,820,2569,47,44,919,2112,2174,2476,2737,2462,2253,2190,2308
580419,39912,7276,40043,7275,430,384,-139,671,52,803,955,2694,36,50,919,2112,2174,2476,2737,2462,2253,2190,2308
581420,39988,7344,40108,7340,367,381,-182,655,25,476,972,2590,45,52,917,2112,2174,2476,2737,2462,2253,2190,2308
582421,40052,7416,40173,7405,518,322,-233,669,14,733,962,2703,44,52,919,2112,2174,2476,2737,2462,2253,2190,2308
583422,40140,7492,40238,7470,190,259,-273,697,-9,753,1002,2624,49,54,918,2112,2174,2476,2737,2462,2253,2190,2308
584423,40188,7552,40303,7535,711,465,-314,722,-40,679,941,2500,53,44,921,2112,2174,2476,2737,2462,2253,2190,2308
585424,40260,7632,40368,7600,402,196,-352,770,-49,795,791,2706,47,41,916,2112,2174,2476,2737,2462,2253,2190,2308
586425,40336,7712,40433,7665,339,178,-391,805,-64,815,909,2521,44,46,920,2112,2174,2476,2737,2462,2253,2190,2308
587426,40428,7804,40498,7730,106,-5,-424,853,-59,719,751,2646,38,45,921,2112,2174,2476,2737,2462,2253,2190,2308
588427,40520,7876,40563,7795,73,237,-474,892,-57,782,668,2469,56,43,923,2112,2174,2476,2737,2462,2253,2190,2308
589428,40576,7948,40628,7860,534,228,-524,909,-60,636,651,2513,39,53,922,2112,2174,2476,2737,2462,2253,2190,2308
590429,40632,8040,40693,7925,545,-55,-585,936,-69,447,736,2585,37,53,919,2112,2174,2476,2737,2462,2253,2190,2308
591430,40716,8104,40758,7990,172,296,-644,948,-75,384,689,2458,50,59,920,2112,2174,2476,2737,2462,2253,2190,2308
592431,40788,8204,40823,8055,313,-196,-708,972,-69,573,476,2587,55,53,921,2112,2174,2476,2737,2462,2253,2190,2308
593432,40868,8268,40888,8120,195,254,-774,979,-78,638,509,2276,38,39,921,2112,2174,2476,2737,2462,2253,2190,2308
594433,40948,8364,40953,8185,177,-184,-838,986,-87,370,544,2414,39,41,921,2112,2174,2476,2737,2462,2253,2190,2308
595434,41020,8440,41018,8250,268,53,-905,1001,-93,243,573,2355,50,44,922,2112,2174,2476,2737,2462,2253,2190,2308
596435,41088,8544,41083,8315,314,-345,-970,1004,-100,454,522,2365,44,40,922,2112,2174,2476,2737,2462,2253,2190,2308
597436,41156,8660,41148,8380,311,-557,-1042,1008,-101,731,417,2353,37,38,920,2112,2174,2476,2737,2462,2253,2190,2308
598437,41220,8756,41213,8445,362,-345,-1101,1031,-100,603,592,2489,37,35,917,2112,2174,2476,2737,2462,2253,2190,2308
599438,41304,8844,41278,8510,89,-273,-1167,1088,-117,421,663,2456,47,39,919,2112,2174,2476,2737,2462,2253,2190,2308
600439,41384,8900,41343,8575,120,138,-1233,1118,-149,587,538,2428,55,35,921,2112,2174,2476,2737,2462,2253,2190,2308
601440,41460,8960,41408,8640,157,94,-1306,1139,-173,625,289,2570,51,42,922,2112,2174,2476,2737,2462,2253,2190,2308
602441,41528,9016,41473,8705,253,155,-1383,1169,-179,868,439,2454,35,28,922,2112,2174,2476,2737,2462,2253,2190,2308
603442,41600,9072,41538,8770,195,165,-1454,1212,-173,739,506,2607,37,36,922,2112,2174,2476,2737,2462,2253,2190,2308
604443,41688,9120,41603,8835,-33,286,-1522,1288,-186,704,515,2434,38,37,922,2112,2174,2476,2737,2462,2253,2190,2308
605444,41748,9180,41668,8900,323,142,-1586,1341,-205,785,416,2456,39,30,922,2112,2174,2476,2737,2462,2253,2190,2308
606445,41816,9232,41733,8965,219,258,-1645,1372,-226,695,451,2447,50,35,921,2112,2174,2476,2737,2462,2253,2190,2308
607446,41896,9292,41798,9030,51,164,-1704,1387,-231,589,479,2515,53,35,921,2112,2174,2476,2737,2462,2253,2190,2308
608447,41980,9348,41863,9095,-22,225,-1721,1372,-196,391,431,2620,41,35,922,2112,2174,2476,2737,2462,2253,2190,2308
609448,42056,9408,41928,9160,64,181,-1739,1313,-174,93,292,2628,51,32,923,2112,2174,2476,2737,2462,2253,2190,2308
610449,42120,9472,41993,9225,215,132,-1747,1249,-190,-251,125,3054,38,42,922,2112,2174,2476,2737,2462,2253,2190,2308
611450,42200,9544,42058,9290,-3,23,-1718,1158,-185,-105,254,3178,36,34,922,2112,2174,2476,2737,2462,2253,2190,2308
612451,42260,9604,42123,9355,253,180,-1679,1084,-152,-69,236,3390,49,35,923,2112,2174,2476,2737,2462,2253,2190,2308
613452,42320,9664,42188,9420,259,185,-1639,1038,-132,34,274,3566,50,47,922,2112,2174,2476,2737,2462,2253,2190,2308
614453,42412,9732,42253,9485,-174,81,-1602,964,-116,149,289,3521,53,36,922,2112,2174,2476,2737,2462,2253,2190,2308
615454,42480,9788,42318,9550,123,242,-1571,925,-104,405,459,3755,35,43,912,2112,2174,2476,2737,2462,2253,2190,2308
616455,42552,9856,42383,9615,64,88,-1535,920,-78,637,413,3795,35,34,920,2112,2174,2476,2737,2462,2253,2190,2308
617456,42640,9924,42448,9680,-164,85,-1520,924,-58,584,518,3911,38,49,923,2112,2174,2476,2737,2462,2253,2190,2308
618457,42728,9984,42513,9745,-192,191,-1512,927,-39,537,569,3891,33,48,914,2112,2174,2476,2737,2462,2253,2190,2308
619458,42840,10056,42578,9810,-549,32,-1512,916,-19,508,508,3859,50,40,910,2112,2174,2476,2737,2462,2253,2190,2308
620459,42968,10124,42643,9875,-827,79,-1505,907,-1,491,437,4076,33,50,921,2112,2174,2476,2737,2462,2253,2190,2308
621460,43024,10196,42708,9940,84,20,-1488,879,26,545,525,3973,35,37,923,2112,2174,2476,2737,2462,2253,2190,2308
622461,43096,10268,42773,10005,-125,11,-1460,796,31,-24,675,3705,32,48,923,2112,2174,2476,2737,2462,2253,2190,2308
623462,43164,10344,42838,10070,-78,-53,-1421,678,32,-99,458,3872,41,37,918,2112,2174,2476,2737,2462,2253,2190,2308
624463,43216,10416,42903,10135,137,-12,-1353,545,52,149,280,3964,50,46,920,2112,2174,2476,2737,2462,2253,2190,2308
625464,43284,10488,42968,10200,-66,-20,-1273,395,67,-187,350,4049,48,47,923,2112,2174,2476,2737,2462,2253,2190,2308
626465,43360,10556,43033,10265,-180,26,-1178,260,69,-741,256,4268,50,43,922,2112,2174,2476,2737,2462,2253,2190,2308
627466,43416,10636,43098,10330,81,-142,-1079,163,80,-501,121,4501,49,42,913,2112,2174,2476,2737,2462,2253,2190,2308
628467,43476,10712,43163,10395,36,-105,-966,69,123,21,74,4578,33,38,921,2112,2174,2476,2737,2462,2253,2190,2308
629468,43556,10780,43228,10460,-232,-9,-850,-26,172,-361,-16,4631,34,43,923,2112,2174,2476,2737,2462,2253,2190,2308
630469,43620,10864,43293,10525,-31,-232,-733,-105,206,-663,-97,5121,34,46,909,2112,2174,2476,2737,2462,2253,2190,2308
631470,43700,10932,43358,10590,-249,-36,-618,-180,232,-228,-160,5073,47,33,922,2112,2174,2476,2737,2462,2253,2190,2308
632471,43772,10984,43423,10655,-158,179,-521,-247,259,-3,-177,5168,42,37,919,2112,2174,2476,2737,2462,2253,2190,2308
633472,43844,11064,43488,10720,-166,-189,-440,-300,277,2,-121,5145,39,32,922,2112,2174,2476,2737,2462,2253,2190,2308
634473,43904,11136,43553,10785,-10,-98,-379,-324,304,-403,-149,5220,49,41,913,2112,2174,2476,2737,2462,2253,2190,2308
635474,43976,11216,43618,10850,-169,-216,-326,-342,332,-59,21,5003,38,47,921,2112,2174,2476,2737,2462,2253,2190,2308
636475,44060,11280,43683,10915,-343,-15,-287,-372,351,-289,-5,4839,48,36,913,2112,2174,2476,2737,2462,2253,2190,2308
637476,44120,11364,43748,10980,-37,-288,-252,-446,360,-507,-16,4900,43,32,921,2112,2174,2476,2737,2462,2253,2190,2308
638477,44188,11436,43813,11045,-140,-147,-216,-538,364,-603,52,4707,41,34,922,2112,2174,2476,2737,2462,2253,2190,2308
639478,44248,11504,43878,11110,-34,-101,-169,-607,366,-495,-24,4687,49,42,916,2112,2174,2476,2737,2462,2253,2190,2308
640479,44328,11580,43943,11175,-302,-215,-124,-662,373,-534,-114,4505,40,46,922,2112,2174,2476,2737,2462,2253,2190,2308
641480,44404,11648,44008,11240,-266,-119,-74,-702,375,-547,-147,4412,32,34,921,2112,2174,2476,2737,2462,2253,2190,2308
642481,44472,11708,44073,11305,-171,-12,-30,-716,380,-718,-354,4373,33,42,923,2112,2174,2476,2737,2462,2253,2190,2308
643482,44528,11768,44138,11370,-10,-6,18,-673,378,-162,-340,4319,37,43,923,2112,2174,2476,2737,2462,2253,2190,2308
644483,44592,11844,44203,11435,-108,-220,58,-616,391,-175,-649,4022,49,33,923,2112,2174,2476,2737,2462,2253,2190,2308
645484,44660,11916,44268,11500,-162,-179,101,-552,382,-109,-501,4203,35,45,918,2112,2174,2476,2737,2462,2253,2190,2308
646485,44732,11984,44333,11565,-221,-133,139,-450,375,-298,-459,4118,34,36,913,2112,2174,2476,2737,2462,2253,2190,2308
647486,44824,12076,44398,11630,-504,-466,163,-391,361,-158,-526,3939,40,38,908,2112,2174,2476,2737,2462,2253,2190,2308
648487,44884,12136,44463,11695,-97,-60,179,-361,339,-535,-893,3940,36,43,918,2112,2174,2476,2737,2462,2253,2190,2308
649488,44956,12200,44528,11760,-257,-109,183,-339,305,-504,-922,3619,52,35,921,2112,2174,2476,2737,2462,2253,2190,2308
650489,45032,12280,44593,11825,-320,-327,172,-320,287,-204,-938,3592,47,35,921,2112,2174,2476,2737,2462,2253,2190,2308
651490,45124,12336,44658,11890,-553,-17,137,-312,268,-759,-830,3344,52,46,921,2112,2174,2476,2737,2462,2253,2190,2308
652491,45188,12408,44723,11955,-202,-225,97,-379,270,-1018,-921,3380,49,33,914,2112,2174,2476,2737,2462,2253,2190,2308
653492,45256,12468,44788,12020,-256,-69,66,-433,241,-1244,-904,3783,55,37,922,2112,2174,2476,2737,2462,2253,2190,2308
654493,45344,12532,44853,12085,-534,-118,59,-502,213,-1013,-765,3829,54,32,920,2112,2174,2476,2737,2462,2253,2190,2308
655494,45432,12592,44918,12150,-563,-62,50,-504,208,-471,-567,4169,39,38,923,2112,2174,2476,2737,2462,2253,2190,2308
656495,45516,12644,44983,12215,-536,54,25,-470,188,-397,-572,4178,52,44,913,2112,2174,2476,2737,2462,2253,2190,2308
657496,45596,12704,45048,12280,-504,-41,-18,-376,167,-341,-683,3953,54,46,923,2112,2174,2476,2737,2462,2253,2190,2308
658497,45664,12768,45113,12345,-358,-90,-49,-281,172,534,-532,3938,45,35,923,2112,2174,2476,2737,2462,2253,2190,2308
659498,45748,12844,45178,12410,-582,-253,-63,-179,175,659,-322,3778,45,40,923,2112,2174,2476,2737,2462,2253,2190,2308
660499,45860,12900,45243,12475,-990,8,-70,-83,159,-186,-459,3981,38,33,918,2112,2174,2476,2737,2462,2253,2190,2308
661500,45944,12960,45308,12540,-663,-36,-85,0,172,-402,-916,3328,52,34,923,2112,2174,2476,2737,2462,2253,2190,2308
662501,46024,13004,45373,12605,-631,189,-103,69,186,586,-763,3275,49,41,923,2112,2174,2476,2737,2462,2253,2190,2308
663502,46108,13084,45438,12670,-704,-280,-134,43,197,114,-410,2553,39,44,923,2112,2174,2476,2737,2462,2253,2190,2308
664503,46188,13148,45503,12735,-674,-79,-185,-42,187,-869,-265,2765,57,47,920,2112,2174,2476,2737,2462,2253,2190,2308
665504,46268,13216,45568,12800,-692,-132,-249,-113,197,-1045,-765,2639,51,48,923,2112,2174,2476,2737,2462,2253,2190,2308
666505,46352,13288,45633,12865,-765,-191,-313,-188,178,-257,-454,2959,42,44,921,2112,2174,2476,2737,2462,2253,2190,2308
667506,46428,13356,45698,12930,-680,-145,-368,-202,145,-414,-500,3074,55,46,922,2112,2174,2476,2737,2462,2253,2190,2308
668507,46516,13440,45763,12995,-858,-368,-420,-217,119,-625,-568,2953,46,41,921,2112,2174,2476,2737,2462,2253,2190,2308
669508,46584,13492,45828,13060,-611,47,-450,-209,98,-340,-1031,3163,40,39,921,2112,2174,2476,2737,2462,2253,2190,2308
670509,46688,13544,45893,13125,-1109,63,-484,-217,70,41,-913,3113,37,32,923,2112,2174,2476,2737,2462,2253,2190,2308
671510,46736,13608,45958,13190,-389,-86,-517,-262,41,-101,-1019,2816,36,46,923,2112,2174,2476,2737,2462,2253,2190,2308
672511,46824,13668,46023,13255,-917,-30,-548,-267,-11,-523,-1044,3360,36,47,922,2112,2174,2476,2737,2462,2253,2190,2308
673512,46916,13728,46088,13320,-1000,-24,-572,-218,-16,-542,-1432,3337,33,33,924,2112,2174,2476,2737,2462,2253,2190,2308
674513,46968,13788,46153,13385,-485,-17,-629,-199,9,-310,-1478,3432,40,45,924,2112,2174,2476,2737,2462,2253,2190,2308
675514,47040,13868,46218,13450,-744,-287,-678,-223,12,11,-990,3407,39,38,923,2112,2174,2476,2737,2462,2253,2190,2308
676515,47100,13920,46283,13515,-588,79,-718,-274,23,-489,-940,3497,40,43,921,2112,2174,2476,2737,2462,2253,2190,2308
677516,47176,13980,46348,13580,-802,-15,-760,-317,38,-489,-946,3927,35,43,923,2112,2174,2476,2737,2462,2253,2190,2308
678517,47244,14048,46413,13645,-706,-118,-806,-368,65,-94,-1142,3843,41,41,923,2112,2174,2476,2737,2462,2253,2190,2308
679518,47316,14116,46478,13710,-764,-122,-865,-394,89,-438,-1108,3933,37,34,923,2112,2174,2476,2737,2462,2253,2190,2308
680519,47372,14172,46543,13775,-554,39,-910,-348,133,-218,-1149,3895,41,45,922,2112,2174,2476,2737,2462,2253,2190,2308
681520,47436,14232,46608,13840,-653,-5,-959,-310,189,105,-1057,4090,31,32,923,2112,2174,2476,2737,2462,2253,2190,2308
682521,47492,14292,46673,13905,-542,0,-1031,-342,227,-673,-914,3743,42,43,923,2112,2174,2476,2737,2462,2253,2190,2308
683522,47552,14356,46738,13970,-586,-49,-1103,-365,247,-586,-1184,3975,31,30,922,2112,2174,2476,2737,2462,2253,2190,2308
684523,47624,14420,46803,14035,-746,-47,-1170,-354,272,-223,-1313,4049,46,29,923,2112,2174,2476,2737,2462,2253,2190,2308
685524,47680,14484,46868,14100,-535,-46,-1228,-379,297,79,-1319,3845,28,40,923,2112,2174,2476,2737,2462,2253,2190,2308
686525,47744,14548,46933,14165,-633,-45,-1283,-425,305,-465,-1445,4227,42,32,923,2112,2174,2476,2737,2462,2253,2190,2308
687526,47784,14608,46998,14230,-304,11,-1312,-467,306,-750,-1465,4198,43,44,924,2112,2174,2476,2737,2462,2253,2190,2308
688527,47844,14668,47063,14295,-548,16,-1324,-492,291,-282,-1466,4295,23,35,923,2112,2174,2476,2737,2462,2253,2190,2308
689528,47892,14736,47128,14360,-377,-87,-1346,-516,277,-236,-1868,4211,32,33,923,2112,2174,2476,2737,2462,2253,2190,2308
690529,47948,14768,47193,14425,-467,403,-1347,-536,253,69,-1665,4358,30,43,923,2112,2174,2476,2737,2462,2253,2190,2308
691530,48008,14844,47258,14490,-511,-161,-1344,-554,224,-482,-1737,4338,21,42,922,2112,2174,2476,2737,2462,2253,2190,2308
692531,48064,14900,47323,14555,-450,100,-1354,-541,214,-522,-1712,4514,28,30,922,2112,2174,2476,2737,2462,2253,2190,2308
693532,48084,14944,47388,14620,55,276,-1380,-542,211,78,-1621,4412,37,27,923,2112,2174,2476,2737,2462,2253,2190,2308
694533,48148,15020,47453,14685,-495,-137,-1414,-577,209,-414,-1652,4264,28,39,922,2112,2174,2476,2737,2462,2253,2190,2308
695534,48196,15084,47518,14750,-274,14,-1435,-573,212,-598,-1681,5012,36,41,921,2112,2174,2476,2737,2462,2253,2190,2308
696535,48236,15124,47583,14815,-144,343,-1479,-584,259,-235,-1702,4325,17,34,923,2112,2174,2476,2737,2462,2253,2190,2308
697536,48272,15184,47648,14880,-59,99,-1526,-628,298,-404,-1669,4842,31,28,918,2112,2174,2476,2737,2462,2253,2190,2308
698537,48312,15236,47713,14945,-79,215,-1570,-648,336,-465,-1479,4820,35,27,921,2112,2174,2476,2737,2462,2253,2190,2308
699538,48356,15296,47778,15010,-103,121,-1615,-663,387,-256,-1490,5113,15,36,920,2112,2174,2476,2737,2462,2253,2190,2308
700539,48408,15308,47843,15075,-187,786,-1645,-641,427,-216,-1505,5342,16,39,917,2112,2174,2476,2737,2462,2253,2190,2308
701540,48416,15320,48042,15274,596,1014,-1663,-627,461,21,-1304,5640,29,40,908,2112,2174,2476,2737,2462,2253,2190,2308
702541,48448,15364,48107,15339,335,640,-1663,-600,486,-27,-1252,5812,16,31,911,2112,2174,2476,2737,2462,2253,2190,2308
703542,48488,15440,48172,15404,266,227,-1651,-515,495,94,-1429,5969,32,38,916,2112,2174,2476,2737,2462,2253,2190,2308
704543,48528,15524,48237,15469,296,103,-1618,-436,505,1011,-1482,6110,29,53,920,2112,2174,2476,2737,2462,2253,2190,2308
705544,48560,15600,48302,15534,437,190,-1567,-374,487,622,-1390,6061,22,52,921,2112,2174,2476,2737,2462,2253,2190,2308
706545,48600,15672,48367,15599,367,231,-1512,-340,461,271,-1569,6090,33,43,920,2112,2174,2476,2737,2462,2253,2190,2308
707546,48652,15748,48432,15664,233,168,-1442,-311,423,230,-1508,6114,30,53,920,2112,2174,2476,2737,2462,2253,2190,2308
708547,48684,15832,48497,15729,523,45,-1374,-313,378,260,-1465,5968,36,52,921,2112,2174,2476,2737,2462,2253,2190,2308
709548,48740,15900,48562,15794,234,241,-1323,-354,337,182,-1418,5575,33,36,921,2112,2174,2476,2737,2462,2253,2190,2308
710549,48768,15992,48627,15859,629,-92,-1287,-398,286,274,-1370,5454,22,44,921,2112,2174,2476,2737,2462,2253,2190,2308
711550,48820,16048,48692,15924,345,369,-1271,-489,247,123,-1411,4867,24,51,919,2112,2174,2476,2737,2462,2253,2190,2308
712551,48868,16124,48757,15989,415,105,-1242,-540,203,378,-1197,5140,36,40,919,2112,2174,2476,2737,2462,2253,2190,2308
713552,48900,16184,48822,16054,655,311,-1237,-590,188,410,-1439,4553,25,36,920,2112,2174,2476,2737,2462,2253,2190,2308
714553,48948,16260,48887,16119,476,97,-1227,-580,175,605,-1321,4918,28,42,918,2112,2174,2476,2737,2462,2253,2190,2308
715554,48996,16320,48952,16184,497,303,-1218,-557,171,787,-1368,4591,27,53,919,2112,2174,2476,2737,2462,2253,2190,2308
716555,49044,16400,49017,16249,518,35,-1212,-520,172,840,-1391,4846,43,46,919,2112,2174,2476,2737,2462,2253,2190,2308
717556,49100,16460,49082,16314,429,291,-1188,-472,174,1248,-1507,4837,40,53,918,2112,2174,2476,2737,2462,2253,2190,2308
718557,49168,16516,49147,16379,275,352,-1153,-439,184,1316,-1594,4904,29,38,920,2112,2174,2476,2737,2462,2253,2190,2308
719558,49216,16584,49212,16444,546,199,-1099,-360,193,1077,-1582,5302,43,45,920,2112,2174,2476,2737,2462,2253,2190,2308
720559,49276,16672,49277,16509,402,-79,-1044,-335,200,994,-1687,5016,43,41,919,2112,2174,2476,2737,2462,2253,2190,2308
721560,49332,16744,49342,16574,463,112,-973,-298,197,1233,-1649,5455,31,51,920,2112,2174,2476,2737,2462,2253,2190,2308
722561,49380,16840,49407,16639,583,-226,-903,-330,195,996,-1752,4850,42,38,920,2112,2174,2476,2737,2462,2253,2190,2308
723562,49428,16900,49472,16704,604,230,-827,-350,160,909,-1644,5240,41,47,919,2112,2174,2476,2737,2462,2253,2190,2308
724563,49492,16968,49537,16769,405,127,-756,-366,119,816,-1592,4864,29,50,918,2112,2174,2476,2737,2462,2253,2190,2308
725564,49560,17040,49602,16834,352,68,-700,-412,80,943,-1571,4873,46,33,920,2112,2174,2476,2737,2462,2253,2190,2308
726565,49596,17116,49667,16899,787,5,-633,-437,22,1101,-1404,4938,46,43,921,2112,2174,2476,2737,2462,2253,2190,2308
727566,49672,17160,49732,16964,274,429,-570,-457,-30,838,-1336,4684,39,34,919,2112,2174,2476,2737,2462,2253,2190,2308
728567,49740,17228,49797,17029,370,126,-515,-471,-80,852,-1190,4568,35,35,919,2112,2174,2476,2737,2462,2253,2190,2308
729568,49792,17272,49862,17094,586,451,-452,-513,-122,856,-1067,4386,41,30,920,2112,2174,2476,2737,2462,2253,2190,2308
730569,49864,17332,49927,17159,327,257,-397,-551,-161,771,-1009,4086,44,42,918,2112,2174,2476,2737,2462,2253,2190,2308
731570,49920,17388,49992,17224,538,318,-343,-561,-196,868,-934,3771,31,38,920,2112,2174,2476,2737,2462,2253,2190,2308
732571,49984,17456,50057,17289,441,165,-312,-566,-218,1037,-1061,3372,45,41,919,2112,2174,2476,2737,2462,2253,2190,2308
733572,50040,17528,50122,17354,552,106,-291,-544,-230,1326,-941,3252,37,34,919,2112,2174,2476,2737,2462,2253,2190,2308
734573,50096,17584,50187,17419,563,317,-260,-512,-224,1246,-890,3135,46,41,919,2112,2174,2476,2737,2462,2253,2190,2308
735574,50148,17644,50252,17484,628,273,-241,-484,-218,1172,-991,3142,44,41,918,2112,2174,2476,2737,2462,2253,2190,2308
736575,50188,17708,50317,17549,809,224,-220,-418,-227,1407,-991,3178,32,48,918,2112,2174,2476,2737,2462,2253,2190,2308
737576,50260,17772,50382,17614,400,226,-188,-376,-231,1129,-983,2865,31,46,917,2112,2174,2476,2737,2462,2253,2190,2308
738577,50324,17832,50447,17679,502,282,-152,-365,-209,877,-1236,2714,36,47,919,2112,2174,2476,2737,2462,2253,2190,2308
739578,50376,17900,50512,17744,668,178,-103,-383,-201,988,-1155,2977,39,46,919,2112,2174,2476,2737,2462,2253,2190,2308
740579,50456,17964,50577,17809,299,229,-53,-408,-208,689,-1244,2785,45,39,918,2112,2174,2476,2737,2462,2253,2190,2308
741580,50528,18032,50642,17874,391,176,-10,-425,-222,625,-1273,3006,39,42,920,2112,2174,2476,2737,2462,2253,2190,2308
742581,50588,18104,50707,17939,547,117,38,-418,-239,855,-1131,3109,33,31,920,2112,2174,2476,2737,2462,2253,2190,2308
743582,50648,18152,50772,18004,553,437,90,-425,-252,674,-1181,2960,45,42,920,2112,2174,2476,2737,2462,2253,2190,2308
744583,50716,18232,50837,18069,449,19,146,-408,-265,816,-1037,3228,39,42,918,2112,2174,2476,2737,2462,2253,2190,2308
745584,50796,18292,50902,18134,281,275,202,-372,-286,724,-892,3239,51,34,920,2112,2174,2476,2737,2462,2253,2190,2308
746585,50860,18336,50967,18199,482,500,257,-326,-310,601,-809,3444,41,37,920,2112,2174,2476,2737,2462,2253,2190,2308
747586,50920,18400,51032,18264,538,251,313,-262,-334,760,-600,3529,34,43,918,2112,2174,2476,2737,2462,2253,2190,2308
748587,51004,18468,51097,18329,215,198,366,-228,-339,737,-573,3335,47,38,919,2112,2174,2476,2737,2462,2253,2190,2308
749588,51064,18532,51162,18394,521,249,420,-162,-352,719,-452,3496,34,30,920,2112,2174,2476,2737,2462,2253,2190,2308
750589,51140,18592,51227,18459,308,305,451,-105,-360,820,-285,3151,50,30,920,2112,2174,2476,2737,2462,2253,2190,2308
751590,51224,18660,51292,18524,185,201,477,-23,-366,735,-185,3195,35,32,918,2112,2174,2476,2737,2462,2253,2190,2308
752591,51280,18728,51357,18589,545,198,493,50,-362,757,-133,3004,46,29,921,2112,2174,2476,2737,2462,2253,2190,2308
753592,51340,18784,51422,18654,502,359,503,130,-350,672,-82,2758,48,33,920,2112,2174,2476,2737,2462,2253,2190,2308
754593,51408,18852,51487,18719,398,205,510,213,-342,794,-66,2964,46,44,919,2112,2174,2476,2737,2462,2253,2190,2308
755594,51468,18900,51552,18784,504,476,524,290,-329,729,-131,2519,42,43,920,2112,2174,2476,2737,2462,2253,2190,2308
756595,51540,18988,51617,18849,345,-52,539,327,-317,487,-182,2708,48,44,919,2112,2174,2476,2737,2462,2253,2190,2308
757596,51596,19048,51682,18914,556,304,577,362,-307,555,-315,2713,30,42,920,2112,2174,2476,2737,2462,2253,2190,2308
758597,51664,19100,51747,18979,403,420,617,390,-296,705,-314,2748,48,38,920,2112,2174,2476,2737,2462,2253,2190,2308
759598,51732,19172,51812,19044,399,161,670,423,-284,449,-559,2654,31,40,919,2112,2174,2476,2737,2462,2253,2190,2308
760599,51772,19212,51877,19109,780,591,723,448,-275,610,-505,2847,31,29,920,2112,2174,2476,2737,2462,2253,2190,2308
761600,51848,19272,51942,19174,317,347,778,465,-271,513,-573,2690,41,32,917,2112,2174,2476,2737,2462,2253,2190,2308
762601,51908,19344,52007,19239,523,188,834,484,-264,512,-541,2984,46,43,917,2112,2174,2476,2737,2462,2253,2190,2308
763602,51968,19408,52072,19304,529,290,885,506,-266,659,-525,3000,38,42,919,2112,2174,2476,2737,2462,2253,2190,2308
764603,52032,19484,52137,19369,481,126,937,529,-256,754,-541,2857,40,34,919,2112,2174,2476,2737,2462,2253,2190,2308
765604,52084,19548,52202,19434,647,277,979,554,-253,887,-241,3218,47,31,919,2112,2174,2476,2737,2462,2253,2190,2308
766605,52156,19628,52267,19499,388,59,1011,595,-248,638,-191,3086,33,42,919,2112,2174,2476,2737,2462,2253,2190,2308
767606,52208,19700,52332,19564,654,150,1028,637,-247,694,-68,3425,33,39,919,2112,2174,2476,2737,2462,2253,2190,2308
768607,52264,19756,52397,19629,615,361,1040,666,-247,1030,58,3331,46,31,919,2112,2174,2476,2737,2462,2253,2190,2308
769608,52328,19808,52462,19694,516,427,1047,679,-245,952,237,3547,43,42,918,2112,2174,2476,2737,2462,2253,2190,2308
770609,52384,19884,52527,19759,627,114,1049,707,-229,458,166,3441,48,39,917,2112,2174,2476,2737,2462,2253,2190,2308
771610,52464,19936,52592,19824,309,430,1044,724,-214,632,344,3472,32,30,918,2112,2174,2476,2737,2462,2253,2190,2308
772611,52504,19984,52657,19889,839,501,1051,730,-205,771,284,3594,38,32,919,2112,2174,2476,2737,2462,2253,2190,2308
773612,52564,20048,52722,19954,595,302,1062,736,-179,678,197,3562,34,42,917,2112,2174,2476,2737,2462,2253,2190,2308
774613,52640,20092,52787,20019,382,577,1087,747,-155,694,251,3572,54,39,916,2112,2174,2476,2737,2462,2253,2190,2308
775614,52720,20160,52852,20084,314,274,1112,743,-123,491,29,3462,37,36,918,2112,2174,2476,2737,2462,2253,2190,2308
776615,52788,20232,52917,20149,460,215,1151,745,-95,577,-2,3737,44,28,919,2112,2174,2476,2737,2462,2253,2190,2308
777616,52840,20280,52982,20214,676,536,1202,741,-74,574,-9,3633,41,36,920,2112,2174,2476,2737,2462,2253,2190,2308
778617,52904,20348,53047,20279,527,282,1251,739,-59,493,-59,3737,36,41,917,2112,2174,2476,2737,2462,2253,2190,2308
779618,52988,20400,53112,20344,254,498,1301,743,-39,416,-65,3710,46,31,917,2112,2174,2476,2737,2462,2253,2190,2308
780619,53052,20460,53177,20409,505,404,1330,730,-13,435,-206,3633,48,32,919,2112,2174,2476,2737,2462,2253,2190,2308
781620,53104,20504,53242,20474,671,630,1369,712,0,628,-269,3661,46,44,919,2112,2174,2476,2737,2462,2253,2190,2308
782621,53172,20580,53307,20539,467,216,1400,676,13,552,-191,3525,32,36,917,2112,2174,2476,2737,2462,2253,2190,2308
783622,53236,20660,53372,20604,520,148,1419,650,20,452,-157,3671,45,44,917,2112,2174,2476,2737,2462,2253,2190,2308
784623,53296,20700,53437,20669,576,679,1436,641,27,527,-194,3785,33,30,919,2112,2174,2476,2737,2462,2253,2190,2308
785624,53352,20752,53502,20734,637,545,1452,612,34,609,-64,3750,36,43,916,2112,2174,2476,2737,2462,2253,2190,2308
786625,53428,20828,53567,20799,373,231,1452,589,43,724,-41,3757,33,43,915,2112,2174,2476,2737,2462,2253,2190,2308
787626,53488,20884,53632,20864,579,492,1437,564,50,566,73,3840,40,43,918,2112,2174,2476,2737,2462,2253,2190,2308
788627,53540,20944,53697,20929,695,448,1414,535,71,346,32,3812,31,43,918,2112,2174,2476,2737,2462,2253,2190,2308
789628,53596,21028,53762,20994,656,125,1402,518,97,756,155,4226,43,32,917,2112,2174,2476,2737,2462,2253,2190,2308
790629,53664,21084,53827,21059,502,486,1391,535,121,953,285,4275,48,30,917,2112,2174,2476,2737,2462,2253,2190,2308
791630,53732,21152,53892,21124,499,332,1386,545,137,662,240,4472,42,42,918,2112,2174,2476,2737,2462,2253,2190,2308
792631,53804,21224,53957,21189,440,273,1381,564,173,546,145,4725,40,41,918,2112,2174,2476,2737,2462,2253,2190,2308
793632,53868,21280,54022,21254,541,484,1395,568,197,550,227,4638,30,29,919,2112,2174,2476,2737,2462,2253,2190,2308
794633,53932,21332,54087,21319,543,550,1403,560,221,507,156,4637,41,37,918,2112,2174,2476,2737,2462,2253,2190,2308
795634,53980,21412,54152,21384,763,181,1417,556,236,334,130,4657,38,33,917,2112,2174,2476,2737,2462,2253,2190,2308
796635,54040,21460,54217,21449,620,602,1431,525,265,306,60,4546,47,38,917,2112,2174,2476,2737,2462,2253,2190,2308
797636,54096,21508,54282,21514,681,623,1451,479,279,437,171,4464,48,29,916,2112,2174,2476,2737,2462,2253,2190,2308
798637,54168,21568,54347,21579,472,479,1472,441,299,243,81,4400,52,36,915,2112,2174,2476,2737,2462,2253,2190,2308
799638,54240,21628,54412,21644,463,485,1493,429,301,355,299,4501,36,44,916,2112,2174,2476,2737,2462,2253,2190,2308
800639,54304,21684,54477,21709,566,546,1497,427,302,255,294,4374,31,45,918,2112,2174,2476,2737,2462,2253,2190,2308
801640,54364,21740,54542,21774,622,557,1491,418,297,276,365,4268,49,41,917,2112,2174,2476,2737,2462,2253,2190,2308
802641,54440,21816,54607,21839,408,294,1465,394,311,319,279,4170,50,33,915,2112,2174,2476,2737,2462,2253,2190,2308
803642,54520,21884,54672,21904,340,390,1433,388,308,244,364,4284,35,31,917,2112,2174,2476,2737,2462,2253,2190,2308
804643,54568,21944,54737,21969,761,496,1393,381,300,329,344,4133,36,35,920,2112,2174,2476,2737,2462,2253,2190,2308
805644,54644,22028,54802,22034,397,173,1350,359,308,492,343,4258,46,32,918,2112,2174,2476,2737,2462,2253,2190,2308
806645,54716,22092,54867,22099,439,424,1313,357,318,450,291,4332,33,33,917,2112,2174,2476,2737,2462,2253,2190,2308
807646,54784,22160,54932,22164,485,370,1275,370,324,411,204,4491,31,33,920,2112,2174,2476,2737,2462,2253,2190,2308
808647,54848,22220,54997,22229,536,476,1247,383,330,333,225,4610,34,34,918,2112,2174,2476,2737,2462,2253,2190,2308
809648,54896,22280,55062,22294,757,483,1223,396,336,280,348,4790,43,32,919,2112,2174,2476,2737,2462,2253,2190,2308
810649,54956,22344,55127,22359,613,434,1188,411,343,382,248,4786,44,42,918,2112,2174,2476,2737,2462,2253,2190,2308
811650,55024,22400,55192,22424,510,545,1151,416,334,399,161,4802,38,39,915,2112,2174,2476,2737,2462,2253,2190,2308
812651,55092,22472,55257,22489,506,336,1118,385,330,341,233,4591,48,29,917,2112,2174,2476,2737,2462,2253,2190,2308
813652,55164,22540,55322,22554,447,383,1082,345,338,319,377,4556,48,34,917,2112,2174,2476,2737,2462,2253,2190,2308
814653,55208,22588,55387,22619,823,653,1034,322,343,-186,495,4620,31,42,919,2112,2174,2476,2737,2462,2253,2190,2308
815654,55276,22664,55452,22684,519,290,976,302,343,-189,605,4471,34,36,919,2112,2174,2476,2737,2462,2253,2190,2308
816655,55344,22720,55517,22749,516,552,920,278,346,-5,622,4453,48,31,914,2112,2174,2476,2737,2462,2253,2190,2308
817656,55392,22780,55582,22814,787,508,862,241,327,-35,636,4424,48,30,919,2112,2174,2476,2737,2462,2253,2190,2308
818657,55452,22848,55647,22879,644,404,806,204,313,-135,584,4310,39,42,917,2112,2174,2476,2737,2462,2253,2190,2308
819658,55516,22920,55712,22944,595,346,759,179,295,-28,618,4357,41,30,914,2112,2174,2476,2737,2462,2253,2190,2308
820659,55580,22972,55777,23009,596,612,719,171,283,108,523,4462,32,29,916,2112,2174,2476,2737,2462,2253,2190,2308
821660,55656,23048,55842,23074,433,298,709,209,257,-139,407,4866,32,30,917,2112,2174,2476,2737,2462,2253,2190,2308
822661,55720,23100,55907,23139,584,614,707,341,220,80,339,5093,33,31,916,2112,2174,2476,2737,2462,2253,2190,2308
823662,55768,23176,55972,23204,805,301,666,387,201,1105,377,4508,48,28,919,2112,2174,2476,2737,2462,2253,2190,2308
824663,55840,23228,56037,23269,496,617,596,334,207,408,642,3959,34,34,916,2112,2174,2476,2737,2462,2253,2190,2308
825664,55900,23296,56102,23334,652,413,519,267,200,-1037,710,4047,33,36,916,2112,2174,2476,2737,2462,2253,2190,2308
826665,55968,23348,56167,23399,548,629,449,248,174,-799,493,4126,39,36,917,2112,2174,2476,2737,2462,2253,2190,2308
827666,56024,23408,56232,23464,709,535,397,252,141,292,317,4193,47,33,917,2112,2174,2476,2737,2462,2253,2190,2308
828667,56096,23480,56297,23529,501,376,340,222,115,411,459,3720,35,42,916,2112,2174,2476,2737,2462,2253,2190,2308
829668,56148,23536,56362,23594,767,587,267,146,90,-298,645,3573,43,34,915,2112,2174,2476,2737,2462,2253,2190,2308
830669,56220,23576,56427,23659,508,818,172,55,65,-547,593,3307,47,28,918,2112,2174,2476,2737,2462,2253,2190,2308
831670,56296,23632,56492,23724,446,629,83,7,55,-266,576,3693,42,35,914,2112,2174,2476,2737,2462,2253,2190,2308
832671,56340,23696,56557,23789,871,530,16,43,41,100,617,3926,34,32,914,2112,2174,2476,2737,2462,2253,2190,2308
833672,56400,23764,56622,23854,677,476,-37,112,17,163,499,4123,32,45,916,2112,2174,2476,2737,2462,2253,2190,2308
834673,56468,23824,56687,23919,574,582,-67,170,-4,207,377,3981,38,46,914,2112,2174,2476,2737,2462,2253,2190,2308
835674,56540,23892,56752,23984,515,479,-92,170,-25,72,418,3840,43,32,916,2112,2174,2476,2737,2462,2253,2190,2308
836675,56592,23964,56817,24049,781,420,-112,155,-54,-147,469,3827,48,30,915,2112,2174,2476,2737,2462,2253,2190,2308
837676,56648,23996,56882,24114,742,961,-140,138,-80,29,520,3840,39,33,916,2112,2174,2476,2737,2462,2253,2190,2308
838677,56720,24064,56947,24179,534,507,-157,149,-100,64,691,3844,38,31,916,2112,2174,2476,2737,2462,2253,2190,2308
839678,56784,24120,57012,24244,635,668,-177,157,-129,-255,739,3825,33,41,911,2112,2174,2476,2737,2462,2253,2190,2308
840679,56836,24176,57077,24309,801,679,-191,159,-152,-190,627,3710,30,34,917,2112,2174,2476,2737,2462,2253,2190,2308
841680,56912,24252,57142,24374,487,415,-213,146,-172,-73,650,3579,47,32,915,2112,2174,2476,2737,2462,2253,2190,2308
842681,56960,24312,57207,24439,858,622,-231,116,-191,-76,662,3543,32,29,913,2112,2174,2476,2737,2462,2253,2190,2308
843682,57044,24364,57272,24504,386,737,-263,94,-203,-323,818,3489,48,38,917,2112,2174,2476,2737,2462,2253,2190,2308
844683,57092,24440,57337,24569,857,424,-287,95,-229,-598,906,3493,31,29,913,2112,2174,2476,2737,2462,2253,2190,2308
845684,57152,24488,57402,24634,713,795,-313,110,-259,-307,824,3581,36,32,916,2112,2174,2476,2737,2462,2253,2190,2308
846685,57220,24552,57467,24699,609,596,-337,132,-284,15,750,3218,48,44,915,2112,2174,2476,2737,2462,2253,2190,2308
847686,57272,24624,57532,24764,825,487,-357,146,-307,-125,846,3342,49,39,913,2112,2174,2476,2737,2462,2253,2190,2308
848687,57356,24684,57597,24829,402,644,-358,151,-326,-337,814,2887,37,32,916,2112,2174,2476,2737,2462,2253,2190,2308
849688,57392,24744,57662,24894,1037,650,-342,154,-343,-281,580,3090,31,30,915,2112,2174,2476,2737,2462,2253,2190,2308
850689,57452,24796,57727,24959,743,766,-304,158,-340,-54,549,2938,31,44,916,2112,2174,2476,2737,2462,2253,2190,2308
851690,57528,24868,57792,25024,530,508,-272,174,-331,-137,500,3128,47,44,910,2112,2174,2476,2737,2462,2253,2190,2308
852691,57576,24924,57857,25089,901,719,-232,197,-323,-76,528,2998,43,44,913,2112,2174,2476,2737,2462,2253,2190,2308
853692,57632,24988,57922,25154,812,620,-197,173,-314,-15,578,3097,41,46,915,2112,2174,2476,2737,2462,2253,2190,2308
854693,57684,25064,57987,25219,878,457,-162,162,-298,-283,633,3234,34,41,911,2112,2174,2476,2737,2462,2253,2190,2308
855694,57756,25120,58052,25284,620,718,-144,140,-303,-335,806,3343,36,30,913,2112,2174,2476,2737,2462,2253,2190,2308
856695,57828,25172,58117,25349,611,784,-117,131,-314,-226,868,3319,39,37,914,2112,2174,2476,2737,2462,2253,2190,2308
857696,57860,25228,58182,25414,1152,745,-96,105,-322,-134,825,3397,37,42,915,2112,2174,2476,2737,2462,2253,2190,2308
858697,57928,25312,58247,25479,698,371,-72,114,-311,-35,697,3515,46,35,914,2112,2174,2476,2737,2462,2253,2190,2308
859698,57992,25384,58312,25544,749,513,-47,146,-302,286,869,3421,51,39,909,2112,2174,2476,2737,2462,2253,2190,2308
860699,58044,25448,58377,25609,915,614,-26,187,-300,118,997,3561,44,42,916,2112,2174,2476,2737,2462,2253,2190,2308
861700,58116,25520,58442,25674,656,505,-27,212,-295,-260,969,3457,48,33,915,2112,2174,2476,2737,2462,2253,2190,2308
862701,58164,25552,58507,25739,978,1046,-13,232,-297,-87,996,3452,37,44,913,2112,2174,2476,2737,2462,2253,2190,2308
863702,58208,25648,58572,25804,1054,208,5,228,-290,53,902,3417,36,46,916,2112,2174,2476,2737,2462,2253,2190,2308
864703,58268,25720,58637,25869,860,499,40,237,-300,11,820,3383,42,39,908,2112,2174,2476,2737,2462,2253,2190,2308
865704,58336,25792,58702,25934,756,491,84,249,-306,-35,822,3550,40,41,914,2112,2174,2476,2737,2462,2253,2190,2308
866705,58396,25852,58767,25999,862,647,134,256,-300,-225,774,3273,49,40,914,2112,2174,2476,2737,2462,2253,2190,2308
867706,58464,25916,58832,26064,759,599,186,273,-287,-220,722,3482,35,32,915,2112,2174,2476,2737,2462,2253,2190,2308
868707,58516,25984,58897,26129,975,546,264,299,-276,-138,710,3507,47,32,913,2112,2174,2476,2737,2462,2253,2190,2308
869708,58560,26044,58962,26194,1100,652,339,319,-254,-186,610,3541,41,46,914,2112,2174,2476,2737,2462,2253,2190,2308
870709,58644,26120,59027,26259,578,438,421,333,-235,-235,652,3444,42,45,912,2112,2174,2476,2737,2462,2253,2190,2308
871710,58712,26180,59092,26324,774,644,505,305,-219,-322,681,3402,43,30,908,2112,2174,2476,2737,2462,2253,2190,2308
872711,58772,26232,59157,26389,880,760,577,276,-196,-388,664,3399,50,41,917,2112,2174,2476,2737,2462,2253,2190,2308
873712,58828,26292,59222,26454,941,666,625,254,-170,-253,788,3311,36,45,913,2112,2174,2476,2737,2462,2253,2190,2308
874713,58884,26352,59287,26519,952,672,678,254,-139,-116,840,3688,47,41,912,2112,2174,2476,2737,2462,2253,2190,2308
875714,58940,26420,59352,26584,963,569,715,230,-116,-100,908,3379,47,43,912,2112,2174,2476,2737,2462,2253,2190,2308
876715,59000,26468,59417,26649,921,839,751,231,-113,-69,837,3809,47,31,911,2112,2174,2476,2737,2462,2253,2190,2308
877716,59056,26540,59482,26714,982,531,771,218,-79,101,835,3618,48,39,912,2112,2174,2476,2737,2462,2253,2190,2308
878717,59112,26620,59547,26779,993,413,782,213,-59,188,977,3801,33,37,910,2112,2174,2476,2737,2462,2253,2190,2308
879718,59148,26644,59612,26844,1278,1163,797,254,-47,70,942,3952,31,32,912,2112,2174,2476,2737,2462,2253,2190,2308
880719,59220,26712,59677,26909,819,609,808,285,-25,273,974,4006,37,34,913,2112,2174,2476,2737,2462,2253,2190,2308
881720,59280,26780,59742,26974,975,605,817,306,-5,227,934,3975,35,46,904,2112,2174,2476,2737,2462,2253,2190,2308
882721,59332,26836,59807,27039,1092,766,830,316,2,175,906,4052,47,41,913,2112,2174,2476,2737,2462,2253,2190,2308
883722,59388,26908,59872,27104,1053,559,848,316,11,57,744,4017,34,45,911,2112,2174,2476,2737,2462,2253,2190,2308
884723,59448,26956,59937,27169,1009,880,862,316,16,-66,567,4090,37,44,909,2112,2174,2476,2737,2462,2253,2190,2308
885724,59484,27012,60002,27234,1345,790,872,305,7,79,597,4024,46,32,911,2112,2174,2476,2737,2462,2253,2190,2308
886725,59564,27072,60067,27299,777,747,890,295,4,66,707,4260,47,38,908,2112,2174,2476,2737,2462,2253,2190,2308
887726,59624,27152,60132,27364,1033,478,909,281,3,65,561,4023,53,34,905,2112,2174,2476,2737,2462,2253,2190,2308
888727,59668,27188,60197,27429,1259,1064,936,272,-1,-88,407,4254,36,42,911,2112,2174,2476,2737,2462,2253,2190,2308
889728,59748,27252,60262,27494,791,715,968,267,16,-10,467,4065,39,41,912,2112,2174,2476,2737,2462,2253,2190,2308
890729,59804,27312,60327,27559,1102,771,989,248,40,-64,605,4090,42,41,904,2112,2174,2476,2737,2462,2253,2190,2308
891730,59856,27372,60392,27624,1168,777,1010,265,66,-150,656,4247,34,29,912,2112,2174,2476,2737,2462,2253,2190,2308
892731,59928,27420,60457,27689,909,948,1024,268,93,-90,673,4095,47,30,909,2112,2174,2476,2737,2462,2253,2190,2308
893732,59980,27492,60522,27754,1176,639,1039,264,126,-247,808,4234,48,40,908,2112,2174,2476,2737,2462,2253,2190,2308
894733,60036,27552,60587,27819,1137,795,1043,267,151,-151,790,4047,42,41,909,2112,2174,2476,2737,2462,2253,2190,2308
895734,60088,27616,60652,27884,1203,748,1033,235,182,123,774,3984,39,40,909,2112,2174,2476,2737,2462,2253,2190,2308
896735,60144,27660,60717,27949,1164,1023,1016,208,203,115,915,4051,38,29,908,2112,2174,2476,2737,2462,2253,2190,2308
897736,60200,27708,60782,28014,1175,994,989,186,227,-162,829,4093,37,39,908,2112,2174,2476,2737,2462,2253,2190,2308
898737,60260,27760,60847,28079,1132,960,959,174,236,24,974,4254,34,43,906,2112,2174,2476,2737,2462,2253,2190,2308
899738,60312,27824,60912,28144,1248,811,934,170,239,360,993,4215,39,45,906,2112,2174,2476,2737,2462,2253,2190,2308
900739,60380,27872,60977,28209,1044,1032,913,171,248,278,827,4310,48,34,907,2112,2174,2476,2737,2462,2253,2190,2308
901740,60436,27952,61042,28274,1205,614,880,171,247,389,868,4456,47,41,907,2112,2174,2476,2737,2462,2253,2190,2308
902741,60496,28004,61107,28339,1162,979,852,164,238,400,878,4412,32,32,907,2112,2174,2476,2737,2462,2253,2190,2308
903742,60548,28048,61172,28404,1278,1105,818,172,223,339,693,4634,40,34,909,2112,2174,2476,2737,2462,2253,2190,2308
904743,60596,28124,61237,28469,1349,693,788,150,211,415,552,4375,46,49,903,2112,2174,2476,2737,2462,2253,2190,2308
905744,60672,28172,61302,28534,986,1063,761,119,193,383,684,4651,50,43,902,2112,2174,2476,2737,2462,2253,2190,2308
906745,60728,28248,61367,28599,1248,700,726,119,188,-10,529,4578,52,41,907,2112,2174,2476,2737,2462,2253,2190,2308
907746,60780,28316,61432,28664,1313,796,684,131,175,109,615,4595,39,41,907,2112,2174,2476,2737,2462,2253,2190,2308
908747,60832,28400,61497,28729,1329,573,647,108,159,108,540,4389,35,51,907,2112,2174,2476,2737,2462,2253,2190,2308
909748,60888,28468,61562,28794,1290,769,602,71,170,1,639,4587,52,41,905,2112,2174,2476,2737,2462,2253,2190,2308
910749,60952,28544,61627,28859,1192,656,549,29,191,-262,661,4346,43,51,908,2112,2174,2476,2737,2462,2253,2190,2308
911750,61024,28616,61692,28924,1084,698,509,16,201,-150,908,4659,37,39,907,2112,2174,2476,2737,2462,2253,2190,2308
912751,61084,28688,61757,28989,1240,690,471,6,227,-30,773,4221,34,41,909,2112,2174,2476,2737,2462,2253,2190,2308
913752,61136,28752,61822,29054,1356,791,433,4,248,-158,937,4438,39,40,910,2112,2174,2476,2737,2462,2253,2190,2308
914753,61208,28832,61887,29119,1098,573,392,32,278,-87,800,4344,54,48,908,2112,2174,2476,2737,2462,2253,2190,2308
915754,61280,28908,61952,29184,1090,609,382,59,309,102,743,4178,44,35,906,2112,2174,2476,2737,2462,2253,2190,2308
916755,61336,28952,62017,29249,1301,1035,352,62,338,219,936,4180,35,49,911,2112,2174,2476,2737,2462,2253,2190,2308
917756,61392,29020,62082,29314,1312,731,330,88,364,219,1039,4311,34,35,910,2112,2174,2476,2737,2462,2253,2190,2308
918757,61452,29096,62147,29379,1269,618,303,107,376,70,857,4062,53,39,904,2112,2174,2476,2737,2462,2253,2190,2308
919758,61508,29148,62212,29444,1330,934,287,103,374,265,1098,4094,34,51,906,2112,2174,2476,2737,2462,2253,2190,2308
920759,61572,29220,62277,29509,1231,675,267,104,355,241,1104,4232,35,40,908,2112,2174,2476,2737,2462,2253,2190,2308
921760,61640,29284,62342,29574,1177,778,244,92,328,191,1037,4074,37,45,904,2112,2174,2476,2737,2462,2253,2190,2308
922761,61696,29356,62407,29639,1339,669,226,88,306,319,1051,4175,50,48,907,2112,2174,2476,2737,2462,2253,2190,2308
923762,61772,29420,62472,29704,1076,770,209,85,279,326,1170,4136,50,40,908,2112,2174,2476,2737,2462,2253,2190,2308
924763,61816,29480,62537,29769,1502,826,185,86,259,293,962,4171,47,46,907,2112,2174,2476,2737,2462,2253,2190,2308
925764,61868,29548,62602,29834,1417,723,156,89,234,313,977,4221,31,39,909,2112,2174,2476,2737,2462,2253,2190,2308
926765,61940,29632,62667,29899,1160,499,130,90,213,268,954,4275,35,49,904,2112,2174,2476,2737,2462,2253,2190,2308
927766,61984,29700,62732,29964,1536,696,97,81,210,153,825,4173,36,37,906,2112,2174,2476,2737,2462,2253,2190,2308
928767,62024,29752,62797,30029,1616,912,63,67,204,292,978,4202,45,40,910,2112,2174,2476,2737,2462,2253,2190,2308
929768,62084,29804,62862,30094,1373,928,46,47,227,9,765,4048,32,51,904,2112,2174,2476,2737,2462,2253,2190,2308
930769,62140,29884,62927,30159,1434,560,24,74,247,117,911,4275,51,51,902,2112,2174,2476,2737,2462,2253,2190,2308
931770,62200,29944,62992,30224,1390,816,0,114,270,279,861,4117,37,56,904,2112,2174,2476,2737,2462,2253,2190,2308
932771,62248,30044,63057,30289,1561,274,-30,148,292,231,893,4110,38,44,906,2112,2174,2476,2737,2462,2253,2190,2308
933772,62320,30116,63122,30354,1254,615,-45,162,323,-29,908,3951,34,41,905,2112,2174,2476,2737,2462,2253,2190,2308
934773,62380,30168,63187,30419,1410,881,-58,175,340,217,980,3964,44,50,907,2112,2174,2476,2737,2462,2253,2190,2308
935774,62440,30256,63252,30484,1416,403,-60,196,358,208,934,3854,44,46,908,2112,2174,2476,2737,2462,2253,2190,2308
936775,62516,30328,63317,30549,1203,594,-67,241,366,209,1115,3935,38,49,904,2112,2174,2476,2737,2462,2253,2190,2308
937776,62572,30396,63382,30614,1464,641,-74,299,359,264,1220,3833,49,40,907,2112,2174,2476,2737,2462,2253,2190,2308
938777,62644,30452,63447,30679,1256,802,-65,323,359,210,1170,3649,43,51,907,2112,2174,2476,2737,2462,2253,2190,2308
939778,62692,30536,63512,30744,1577,428,-54,351,339,282,1333,3794,42,51,904,2112,2174,2476,2737,2462,2253,2190,2308
940779,62788,30592,63577,30809,940,789,-51,353,316,92,1183,3509,43,51,907,2112,2174,2476,2737,2462,2253,2190,2308
941780,62852,30648,63642,30874,1341,800,-45,363,280,321,1348,3713,46,50,906,2112,2174,2476,2737,2462,2253,2190,2308
942781,62920,30732,63707,30939,1288,428,-40,358,237,292,1397,3562,48,52,910,2112,2174,2476,2737,2462,2253,2190,2308
943782,62968,30780,63772,31004,1559,899,-32,370,180,177,1305,3726,51,46,906,2112,2174,2476,2737,2462,2253,2190,2308
944783,63048,30836,63837,31069,1141,810,-27,393,139,341,1438,3738,46,41,909,2112,2174,2476,2737,2462,2253,2190,2308
945784,63108,30920,63902,31134,1397,437,-26,412,108,283,1436,3693,49,51,902,2112,2174,2476,2737,2462,2253,2190,2308
946785,63180,30984,63967,31199,1239,688,-28,441,79,170,1393,3816,34,50,908,2112,2174,2476,2737,2462,2253,2190,2308
947786,63236,31056,64032,31264,1450,579,-30,460,48,360,1452,3721,39,41,908,2112,2174,2476,2737,2462,2253,2190,2308
948787,63288,31124,64097,31329,1516,626,-33,466,40,263,1299,3718,34,37,908,2112,2174,2476,2737,2462,2253,2190,2308
949788,63348,31176,64162,31394,1423,842,-23,474,44,252,1264,3742,50,53,906,2112,2174,2476,2737,2462,2253,2190,2308
950789,63408,31236,64227,31459,1429,748,-15,495,58,363,1248,3856,34,46,905,2112,2174,2476,2737,2462,2253,2190,2308
951790,63476,31308,64426,31658,1489,753,5,528,69,449,1026,3751,47,48,904,2112,2174,2476,2737,2462,2253,2190,2308
952791,63532,31400,64491,31723,1651,470,3,546,95,475,1150,3685,40,41,905,2112,2174,2476,2737,2462,2253,2190,2308
953792,63592,31456,64556,31788,1607,932,5,569,106,171,1275,3722,48,52,904,2112,2174,2476,2737,2462,2253,2190,2308
954793,63656,31524,64621,31853,1558,778,11,586,111,130,1243,3767,43,39,904,2112,2174,2476,2737,2462,2253,2190,2308
955794,63724,31576,64686,31918,1506,994,28,600,113,428,1243,3721,51,54,900,2112,2174,2476,2737,2462,2253,2190,2308
956795,63808,31636,64751,31983,1283,900,40,599,102,465,1341,3559,45,45,901,2112,2174,2476,2737,2462,2253,2190,2308
957796,63868,31712,64816,32048,1589,687,51,608,77,425,1266,3657,42,41,902,2112,2174,2476,2737,2462,2253,2190,2308
958797,63948,31788,64881,32113,1321,673,54,618,46,438,1387,3540,54,46,905,2112,2174,2476,2737,2462,2253,2190,2308
959798,64032,31864,64946,32178,1248,660,68,654,13,464,1471,3664,57,56,903,2112,2174,2476,2737,2462,2253,2190,2308
960799,64104,31920,65011,32243,1390,921,83,703,-24,467,1564,3596,41,55,907,2112,2174,2476,2737,2462,2253,2190,2308
961800,64172,32008,65076,32308,1437,494,94,738,-70,429,1562,3524,55,53,908,2112,2174,2476,2737,2462,2253,2190,2308
962801,64244,32076,65141,32373,1378,740,95,767,-115,330,1514,3416,47,49,904,2112,2174,2476,2737,2462,2253,2190,2308
963802,64316,32164,65206,32438,1370,462,100,761,-157,350,1571,3436,47,46,907,2112,2174,2476,2737,2462,2253,2190,2308
964803,64404,32212,65271,32503,1143,983,105,753,-191,389,1644,3497,41,44,906,2112,2174,2476,2737,2462,2253,2190,2308
965804,64452,32296,65336,32568,1664,510,117,720,-220,192,1728,3407,50,39,908,2112,2174,2476,2737,2462,2253,2190,2308
966805,64512,32348,65401,32633,1520,925,133,714,-239,102,1557,3489,37,44,906,2112,2174,2476,2737,2462,2253,2190,2308
967806,64596,32444,65466,32698,1198,338,138,731,-255,239,1455,3402,45,41,904,2112,2174,2476,2737,2462,2253,2190,2308
968807,64672,32512,65531,32763,1284,684,158,750,-258,536,1468,3675,50,52,902,2112,2174,2476,2737,2462,2253,2190,2308
969808,64752,32580,65596,32828,1216,680,185,782,-261,330,1411,3601,39,44,911,2112,2174,2476,2737,2462,2253,2190,2308
970809,64828,32636,65661,32893,1253,841,209,819,-250,-15,1340,3908,40,51,907,2112,2174,2476,2737,2462,2253,2190,2308
971810,64928,32696,65726,32958,911,798,212,929,-228,-90,1148,4149,54,51,908,2112,2174,2476,2737,2462,2253,2190,2308
972811,64984,32764,65791,33023,1472,695,172,995,-207,464,809,3783,43,50,905,2112,2174,2476,2737,2462,2253,2190,2308
973812,65036,32840,65856,33088,1538,581,83,978,-112,1564,-170,3507,37,47,910,2112,2174,2476,2737,2462,2253,2190,2308
974813,65124,32916,65921,33153,1060,568,-48,820,-15,1229,671,2584,48,46,905,2112,2174,2476,2737,2462,2253,2190,2308
975814,65208,32980,65986,33218,1087,719,-149,605,-28,-468,1710,2594,46,43,905,2112,2174,2476,2737,2462,2253,2190,2308
976815,65280,33068,66051,33283,1230,391,-189,524,-106,-487,1363,3672,45,39,911,2112,2174,2476,2737,2462,2253,2190,2308
977816,65360,33140,66116,33348,1111,582,-177,604,-144,643,902,4066,45,53,909,2112,2174,2476,2737,2462,2253,2190,2308
978817,65448,33212,66181,33413,983,574,-129,718,-166,1059,1179,4180,54,41,910,2112,2174,2476,2737,2462,2253,2190,2308
979818,65532,33284,66246,33478,1010,565,-92,759,-197,714,1130,3622,56,45,910,2112,2174,2476,2737,2462,2253,2190,2308
980819,65600,33344,66311,33543,1207,721,-108,728,-207,478,866,3321,42,52,912,2112,2174,2476,2737,2462,2253,2190,2308
981820,65664,33424,66376,33608,1259,453,-139,633,-239,562,1335,3347,53,41,911,2112,2174,2476,2737,2462,2253,2190,2308
982821,65752,33504,66441,33673,931,435,-155,575,-301,335,1592,3383,49,44,908,2112,2174,2476,2737,2462,2253,2190,2308
983822,65828,33580,66506,33738,1068,472,-164,583,-354,290,1208,3745,61,43,910,2112,2174,2476,2737,2462,2253,2190,2308
984823,65880,33640,66571,33803,1384,678,-169,637,-370,801,1101,3693,40,53,913,2112,2174,2476,2737,2462,2253,2190,2308
985824,65964,33712,66636,33868,961,520,-169,686,-370,666,1202,3489,55,52,912,2112,2174,2476,2737,2462,2253,2190,2308
986825,66048,33772,66701,33933,938,676,-191,688,-380,193,1549,3338,59,49,907,2112,2174,2476,2737,2462,2253,2190,2308
987826,66096,33836,66766,33998,1409,627,-226,650,-376,-123,1360,3144,44,45,912,2112,2174,2476,2737,2462,2253,2190,2308
988827,66188,33928,66831,34063,826,244,-280,600,-364,-28,1202,3240,47,46,911,2112,2174,2476,2737,2462,2253,2190,2308
989828,66260,33988,66896,34128,1068,650,-336,586,-340,249,1261,3264,40,44,906,2112,2174,2476,2737,2462,2253,2190,2308
990829,66320,34048,66961,34193,1224,657,-392,564,-313,122,1338,3215,37,49,914,2112,2174,2476,2737,2462,2253,2190,2308
991830,66396,34116,67026,34258,1012,553,-438,526,-288,-265,1352,3278,38,40,910,2112,2174,2476,2737,2462,2253,2190,2308
992831,66452,34200,67091,34323,1273,330,-482,481,-261,-316,1071,3157,43,42,909,2112,2174,2476,2737,2462,2253,2190,2308
993832,66524,34264,67156,34388,1064,581,-529,445,-240,186,932,3278,39,54,912,2112,2174,2476,2737,2462,2253,2190,2308
994833,66592,34352,67221,34453,1110,253,-570,434,-225,404,975,3402,47,41,910,2112,2174,2476,2737,2462,2253,2190,2308
995834,66676,34416,67286,34518,888,554,-612,406,-238,271,1028,3296,56,43,911,2112,2174,2476,2737,2462,2253,2190,2308
996835,66756,34488,67351,34583,920,445,-638,391,-267,223,1091,3495,41,42,913,2112,2174,2476,2737,2462,2253,2190,2308
997836,66816,34572,67416,34648,1176,272,-648,368,-290,248,1088,3331,42,39,913,2112,2174,2476,2737,2462,2253,2190,2308
998837,66892,34636,67481,34713,962,523,-653,393,-315,333,943,3640,41,40,913,2112,2174,2476,2737,2462,2253,2190,2308
999838,66964,34724,67546,34778,1004,195,-667,401,-331,568,912,3461,43,54,912,2112,2174,2476,2737,2462,2253,2190,2308
1000839,67044,34796,67611,34843,887,387,-665,419,-369,594,1337,3487,43,44,912,2112,2174,2476,2737,2462,2253,2190,2308
1001840,67116,34856,67676,34908,978,543,-664,383,-408,83,1303,3308,40,51,914,2112,2174,2476,2737,2462,2253,2190,2308
1002841,67192,34920,67741,34973,915,494,-673,375,-439,-39,1185,3571,54,40,914,2112,2174,2476,2737,2462,2253,2190,2308
1003842,67268,34996,67806,35038,901,331,-691,395,-453,417,1243,3468,56,39,912,2112,2174,2476,2737,2462,2253,2190,2308
1004843,67352,35060,67871,35103,778,482,-708,379,-479,444,1461,3216,46,53,913,2112,2174,2476,2737,2462,2253,2190,2308
1005844,67412,35128,67936,35168,1085,428,-729,359,-517,-286,1475,3157,54,37,915,2112,2174,2476,2737,2462,2253,2190,2308
1006845,67484,35204,68001,35233,927,315,-755,344,-533,-434,1586,3235,48,38,913,2112,2174,2476,2737,2462,2253,2190,2308
1007846,67572,35256,68066,35298,699,631,-781,326,-547,-242,1551,3056,58,46,910,2112,2174,2476,2737,2462,2253,2190,2308
1008847,67652,35332,68131,35363,780,317,-801,316,-562,-180,1355,3200,42,42,914,2112,2174,2476,2737,2462,2253,2190,2308
1009848,67732,35412,68196,35428,762,249,-820,308,-571,-273,1456,3089,54,48,914,2112,2174,2476,2737,2462,2253,2190,2308
1010849,67796,35468,68261,35493,964,560,-827,299,-577,-588,1520,3239,38,39,915,2112,2174,2476,2737,2462,2253,2190,2308
1011850,67876,35524,68326,35558,746,571,-832,304,-575,-769,1311,3227,54,41,916,2112,2174,2476,2737,2462,2253,2190,2308
1012851,67932,35608,68391,35623,1057,198,-822,321,-566,-293,1030,3360,58,36,912,2112,2174,2476,2737,2462,2253,2190,2308
1013852,68032,35676,68456,35688,464,394,-809,332,-559,170,1077,3200,48,52,914,2112,2174,2476,2737,2462,2253,2190,2308
1014853,68104,35740,68521,35753,806,445,-798,320,-554,-395,1041,3081,43,47,914,2112,2174,2476,2737,2462,2253,2190,2308
1015854,68160,35812,68586,35818,1017,337,-787,321,-567,-544,1012,3395,38,41,918,2112,2174,2476,2737,2462,2253,2190,2308
1016855,68252,35872,68651,35883,535,493,-775,343,-595,-225,950,3255,53,49,915,2112,2174,2476,2737,2462,2253,2190,2308
1017856,68324,35944,68716,35948,776,334,-775,343,-604,-126,682,3207,42,42,914,2112,2174,2476,2737,2462,2253,2190,2308
1018857,68408,35996,68781,36013,603,600,-768,321,-631,62,1023,3176,57,42,917,2112,2174,2476,2737,2462,2253,2190,2308
1019858,68484,36064,68846,36078,689,397,-767,280,-648,-664,914,3090,51,52,916,2112,2174,2476,2737,2462,2253,2190,2308
1020859,68568,36128,68911,36143,566,448,-784,292,-686,-346,983,3533,53,54,916,2112,2174,2476,2737,2462,2253,2190,2308
1021860,68656,36204,68976,36208,488,284,-803,293,-717,176,1059,3150,38,40,917,2112,2174,2476,2737,2462,2253,2190,2308
1022861,68728,36260,69041,36273,680,545,-831,240,-750,32,1088,3148,55,42,917,2112,2174,2476,2737,2462,2253,2190,2308
1023862,68808,36340,69106,36338,562,227,-851,189,-786,-492,1133,3061,43,40,917,2112,2174,2476,2737,2462,2253,2190,2308
1024863,68880,36412,69171,36403,654,319,-895,145,-830,-481,1189,3194,42,52,914,2112,2174,2476,2737,2462,2253,2190,2308
1025864,68956,36488,69236,36468,590,255,-911,103,-883,-320,1119,3045,56,50,918,2112,2174,2476,2737,2462,2253,2190,2308
1026865,69048,36564,69301,36533,357,242,-921,45,-909,-225,1058,3134,43,41,917,2112,2174,2476,2737,2462,2253,2190,2308
1027866,69120,36624,69366,36598,599,448,-923,-5,-922,-341,1109,2913,44,48,918,2112,2174,2476,2737,2462,2253,2190,2308
1028867,69212,36692,69431,36663,316,344,-911,-73,-950,-552,1111,3028,47,47,920,2112,2174,2476,2737,2462,2253,2190,2308
1029868,69312,36756,69496,36728,173,395,-881,-137,-955,-1088,716,2988,56,49,917,2112,2174,2476,2737,2462,2253,2190,2308
1030869,69384,36852,69561,36793,515,-43,-841,-149,-935,-973,605,3435,42,51,919,2112,2174,2476,2737,2462,2253,2190,2308
1031870,69480,36932,69626,36858,177,139,-798,-112,-920,-576,742,3379,46,43,920,2112,2174,2476,2737,2462,2253,2190,2308
1032871,69548,36992,69691,36923,523,395,-763,-131,-903,-726,782,3153,54,55,920,2112,2174,2476,2737,2462,2253,2190,2308
1033872,69612,37076,69756,36988,574,72,-740,-148,-885,-636,751,3307,53,48,922,2112,2174,2476,2737,2462,2253,2190,2308
1034873,69708,37148,69821,37053,136,214,-735,-152,-881,-612,704,3320,54,54,918,2112,2174,2476,2737,2462,2253,2190,2308
1035874,69788,37228,69886,37118,318,95,-739,-184,-891,-470,744,3117,52,43,919,2112,2174,2476,2737,2462,2253,2190,2308
1036875,69888,37316,69951,37183,25,-33,-758,-226,-915,-594,814,3189,50,54,921,2112,2174,2476,2737,2462,2253,2190,2308
1037876,69948,37396,70016,37248,532,49,-763,-280,-936,-855,705,3021,39,53,921,2112,2174,2476,2737,2462,2253,2190,2308
