%  Data file recorded 2016/9/8  22:15:18
%  Stride Frequency         = [1, 1]
%  Lead In /Lead Out        = 
%  Deltas (Fractional)      = [0.25, 0.25, 0.25],[0.25, 0.25, 0.25]
%  Phase                    = 32768
%  Experiment.py 
%  Motor Gains    = [5000, 400, 200, 0, 300, 5000, 400, 200, 0, 300]
% Columns: 
% time | Right Leg Pos | Left Leg Pos | Commanded Right Leg Pos | Commanded Left Leg Pos | DCR | DCL | GyroX | GyroY | GyroZ | AX | AY | AZ | RBEMF | LBEMF | VBatt | S1 | S2 | S3 | S4 | S5 | S6 | S7 | S8
730,-45688,-15608,-47044,-14276,-3800,3800,12,37,-21,-57,84,3930,13,10,838,1734,1854,2071,2240,2023,1793,1855,1974
1731,-45680,-15616,-47044,-14276,-3800,3800,13,39,-21,-52,50,3952,-4,9,838,1734,1856,2072,2240,2023,1794,1856,1974
2732,-45696,-15612,-47044,-14276,-3800,3800,15,37,-23,-46,39,3917,3,1,838,1734,1856,2072,2240,2023,1794,1856,1974
3733,-45692,-15612,-47044,-14276,-3800,3800,15,35,-21,-61,60,3918,13,-2,838,1734,1856,2072,2240,2023,1794,1856,1974
4734,-45692,-15608,-47044,-14276,-3800,3800,13,36,-24,-51,72,3908,-4,-5,838,1734,1856,2072,2240,2023,1794,1856,1974
5735,-45700,-15620,-47044,-14276,-3800,3800,14,39,-22,-26,58,3904,-2,7,838,1734,1856,2072,2240,2023,1794,1856,1974
6736,-45688,-15612,-47044,-14276,-3800,3800,14,39,-21,-53,31,3948,13,10,838,1735,1853,2072,2240,2023,1794,1855,1973
7737,-45700,-15612,-47044,-14276,-3800,3800,14,38,-22,-21,46,3954,-4,7,838,1735,1853,2072,2240,2023,1794,1855,1973
8738,-45692,-15620,-47044,-14276,-3800,3800,14,36,-23,-17,54,3941,1,-2,838,1735,1853,2072,2240,2023,1794,1855,1973
9739,-45688,-15624,-47044,-14276,-3800,3800,15,36,-21,-19,58,3926,12,-5,838,1735,1853,2072,2240,2023,1794,1855,1973
10740,-45692,-15620,-47044,-14276,-3800,3800,17,39,-21,-35,70,3898,-5,1,838,1735,1853,2072,2240,2023,1794,1855,1973
11741,-45692,-15604,-47044,-14276,-3800,3800,18,39,-21,-39,89,3916,7,10,838,1735,1853,2072,2240,2023,1794,1855,1973
12742,-45692,-15616,-47044,-14276,-3800,3800,16,37,-21,-58,89,3945,10,5,838,1736,1856,2072,2240,2022,1792,1856,1973
13743,-45692,-15620,-47044,-14276,-3800,3800,18,37,-20,-59,71,3937,-5,0,838,1736,1856,2072,2240,2022,1792,1856,1973
14744,-45684,-15612,-47044,-14276,-3800,3800,17,36,-23,-42,59,3929,11,-5,838,1736,1856,2072,2240,2022,1792,1856,1973
15745,-45688,-15600,-47044,-14276,-3800,3800,17,35,-22,-33,58,3901,10,-2,838,1736,1856,2072,2240,2022,1792,1856,1973
16746,-45696,-15596,-47044,-14276,-3800,3800,19,36,-20,-42,89,3964,-5,8,838,1736,1856,2072,2240,2022,1792,1856,1973
17747,-45692,-15624,-47044,-14276,-3800,3800,17,35,-18,-34,52,3920,13,5,838,1734,1854,2071,2240,2022,1793,1856,1973
18748,-45704,-15600,-47044,-14276,-3800,3800,14,35,-18,-37,45,3910,7,-4,838,1734,1854,2071,2240,2022,1793,1856,1973
19749,-45688,-15612,-47044,-14276,-3800,3800,18,38,-18,-42,38,3959,-6,-4,837,1734,1854,2071,2240,2022,1793,1856,1973
20750,-45692,-15608,-47044,-14276,-3800,3800,19,36,-20,-37,36,3967,14,-4,836,1734,1854,2071,2240,2022,1793,1856,1973
21751,-45700,-15616,-47044,-14276,-3800,3800,18,35,-18,-56,49,3964,2,-2,838,1734,1854,2071,2240,2022,1793,1856,1973
22752,-45692,-15616,-47044,-14276,-3800,3800,17,35,-21,-38,78,3961,-1,2,838,1734,1854,2071,2240,2022,1793,1856,1973
23753,-45692,-15616,-47044,-14276,-3800,3800,16,35,-19,-54,80,3966,12,10,838,1737,1855,2074,2242,2024,1793,1856,1974
24754,-45688,-15624,-47044,-14276,-3800,3800,19,35,-20,-34,65,3943,1,8,838,1737,1855,2074,2242,2024,1793,1856,1974
25755,-45692,-15616,-47044,-14276,-3800,3800,20,35,-19,-14,90,3936,1,5,838,1737,1855,2074,2242,2024,1793,1856,1974
26756,-45688,-15604,-47044,-14276,-3800,3800,19,35,-19,-25,85,3919,10,-2,838,1737,1855,2074,2242,2024,1793,1856,1974
27757,-45700,-15608,-47044,-14276,-3800,3800,19,36,-18,-14,70,3931,10,-2,838,1737,1855,2074,2242,2024,1793,1856,1974
28758,-45700,-15620,-47044,-14276,-3800,3800,19,36,-20,-21,58,3912,-6,0,838,1735,1854,2071,2240,2023,1793,1856,1973
29759,-45696,-15620,-47044,-14276,-3800,3800,19,35,-18,-23,71,3924,0,-2,838,1735,1854,2071,2240,2023,1793,1856,1973
30760,-45680,-15612,-47044,-14276,-3800,3800,16,35,-18,-20,77,3941,13,-1,838,1735,1854,2071,2240,2023,1793,1856,1973
31761,-45692,-15608,-47044,-14276,-3800,3800,17,35,-18,-28,72,3954,-1,-1,838,1735,1854,2071,2240,2023,1793,1856,1973
32762,-45692,-15612,-47044,-14276,-3800,3800,20,34,-18,-17,75,3955,-5,-5,837,1735,1854,2071,2240,2023,1793,1856,1973
33763,-45696,-15612,-47044,-14276,-3800,3800,20,34,-19,-30,65,3952,2,-5,838,1735,1854,2071,2240,2023,1793,1856,1973
34764,-45696,-15620,-47044,-14276,-3800,3800,21,36,-20,-31,51,3929,13,-5,838,1735,1855,2074,2242,2025,1796,1856,1976
35765,-45692,-15616,-47044,-14276,-3800,3800,19,37,-20,-23,64,3936,4,-2,838,1735,1855,2074,2242,2025,1796,1856,1976
36766,-45704,-15616,-47044,-14276,-3800,3800,18,36,-19,-25,81,3961,-1,-5,837,1735,1855,2074,2242,2025,1796,1856,1976
37767,-45692,-15616,-47044,-14276,-3800,3800,18,37,-20,-30,79,3951,8,0,837,1735,1855,2074,2242,2025,1796,1856,1976
38768,-45700,-15616,-47044,-14276,-3800,3800,17,35,-19,-43,76,3944,12,-3,838,1735,1855,2074,2242,2025,1796,1856,1976
39769,-45692,-15620,-47044,-14276,-3800,3800,19,33,-17,-39,65,3952,5,-1,838,1736,1854,2072,2239,2024,1794,1856,1974
40770,-45696,-15620,-47044,-14276,-3800,3800,19,35,-19,-6,60,3928,-3,0,838,1736,1854,2072,2239,2024,1794,1856,1974
41771,-45688,-15620,-47044,-14276,-3800,3800,20,37,-19,-27,78,3922,8,-5,838,1736,1854,2072,2239,2024,1794,1856,1974
42772,-45704,-15624,-47044,-14276,-3800,3800,20,38,-19,-18,88,3967,13,-4,838,1736,1854,2072,2239,2024,1794,1856,1974
43773,-45700,-15624,-47044,-14276,-3800,3800,20,36,-20,-34,95,3972,-3,-5,838,1736,1854,2072,2239,2024,1794,1856,1974
44774,-45696,-15612,-47044,-14276,-3800,3800,18,38,-19,-35,85,3953,-2,2,838,1736,1854,2072,2239,2024,1794,1856,1974
45775,-45700,-15616,-47044,-14276,-3800,3800,18,37,-19,-4,69,3984,6,6,837,1735,1853,2071,2239,2023,1794,1858,1975
46776,-45700,-15624,-47044,-14276,-3800,3800,17,36,-19,4,90,3982,12,5,838,1735,1853,2071,2239,2023,1794,1858,1975
47777,-45688,-15608,-47044,-14276,-3800,3800,16,35,-22,-13,110,3925,-1,10,838,1735,1853,2071,2239,2023,1794,1858,1975
48778,-45700,-15612,-47044,-14276,-3800,3800,17,37,-24,-6,77,3916,-3,9,838,1735,1853,2071,2239,2023,1794,1858,1975
49779,-45692,-15620,-47044,-14276,-3800,3800,16,36,-22,-13,48,3966,12,6,838,1735,1853,2071,2239,2023,1794,1858,1975
50780,-45696,-15612,-47044,-14276,-3800,3800,16,37,-20,-19,72,3943,10,-4,838,1736,1854,2073,2240,2024,1795,1856,1976
51781,-45700,-15616,-47044,-14276,-3800,3800,18,36,-21,-10,76,3910,-3,-5,838,1736,1854,2073,2240,2024,1795,1856,1976
52782,-45700,-15608,-47044,-14276,-3800,3800,17,37,-21,-41,52,3916,6,-2,838,1736,1854,2073,2240,2024,1795,1856,1976
53783,-45700,-15596,-47044,-14276,-3800,3800,17,39,-19,-36,61,3950,13,7,836,1736,1854,2073,2240,2024,1795,1856,1976
54784,-45696,-15620,-47044,-14276,-3800,3800,16,37,-23,-62,73,3925,-4,8,838,1736,1854,2073,2240,2024,1795,1856,1976
55787,-45692,-15596,-47044,-14276,-3800,3800,17,35,-21,-35,78,3927,7,10,838,1736,1854,2073,2240,2024,1795,1856,1976
56786,-45692,-15624,-47044,-14276,-3800,3800,16,35,-21,-19,76,3943,12,1,838,1736,1854,2072,2241,2025,1795,1857,1975
57787,-45692,-15616,-47044,-14276,-3800,3800,12,37,-22,-44,98,3936,-3,-4,838,1736,1854,2072,2241,2025,1795,1857,1975
58788,-45700,-15624,-47044,-14276,-3800,3800,13,40,-23,-34,76,3943,7,-5,838,1736,1854,2072,2241,2025,1795,1857,1975
59789,-45692,-15616,-47044,-14276,-3800,3800,16,40,-19,-39,61,3940,12,0,838,1736,1854,2072,2241,2025,1795,1857,1975
60790,-45692,-15608,-47044,-14276,-3800,3800,16,38,-20,-12,66,3942,-2,5,838,1736,1854,2072,2241,2025,1795,1857,1975
61791,-45688,-15612,-47044,-14276,-3800,3800,16,38,-22,-37,73,3939,1,9,838,1735,1854,2072,2240,2023,1794,1855,1974
62792,-45680,-15616,-47044,-14276,-3800,3800,17,36,-21,-14,82,3943,12,2,838,1735,1854,2072,2240,2023,1794,1855,1974
63793,-45688,-15612,-47044,-14276,-3800,3800,15,36,-20,-35,64,3916,12,-2,838,1735,1854,2072,2240,2023,1794,1855,1974
64794,-45700,-15612,-47044,-14276,-3800,3800,11,40,-19,-28,62,3922,-1,-4,838,1735,1854,2072,2240,2023,1794,1855,1974
65795,-45700,-15612,-47044,-14276,-3800,3800,12,40,-21,-21,70,3918,-5,1,838,1735,1854,2072,2240,2023,1794,1855,1974
66796,-45680,-15616,-47044,-14276,-3800,3800,15,38,-21,-24,70,3934,5,8,838,1736,1854,2072,2239,2023,1793,1855,1973
67797,-45700,-15616,-47044,-14276,-3800,3800,15,38,-23,-26,35,3916,10,10,838,1736,1854,2072,2239,2023,1793,1855,1973
68798,-45700,-15624,-47044,-14276,-3800,3800,14,40,-21,-28,69,3929,-5,-2,838,1736,1854,2072,2239,2023,1793,1855,1973
69799,-45692,-15624,-47044,-14276,-3800,3800,14,36,-17,-45,51,3939,3,-4,837,1736,1854,2072,2239,2023,1793,1855,1973
70800,-45700,-15616,-47044,-14276,-3800,3800,14,36,-16,-41,60,3946,13,-4,836,1736,1854,2072,2239,2023,1793,1855,1973
71801,-45692,-15620,-47044,-14276,-3800,3800,14,36,-20,-33,62,3916,-5,0,837,1736,1854,2072,2239,2023,1793,1855,1973
72802,-45700,-15608,-47044,-14276,-3800,3800,14,35,-20,-34,55,3883,10,7,838,1735,1854,2071,2240,2023,1793,1855,1974
73803,-45700,-15608,-47044,-14276,-3800,3800,13,36,-19,-35,76,3930,3,9,838,1735,1854,2071,2240,2023,1793,1855,1974
74804,-45700,-15608,-47044,-14276,-3800,3800,13,36,-18,-20,54,3935,-5,7,838,1735,1854,2071,2240,2023,1793,1855,1974
75805,-45704,-15620,-47044,-14276,-3800,3800,12,36,-19,-43,58,3899,-1,1,838,1735,1854,2071,2240,2023,1793,1855,1974
76806,-45704,-15620,-47044,-14276,-3800,3800,14,35,-22,-38,53,3918,12,-3,838,1735,1854,2071,2240,2023,1793,1855,1974
77807,-45692,-15616,-47044,-14276,-3800,3800,17,37,-19,-36,57,3940,-3,1,838,1736,1854,2072,2241,2023,1793,1855,1974
78808,-45700,-15624,-47044,-14276,-3800,3800,16,39,-20,-19,63,3934,-3,6,838,1736,1854,2072,2241,2023,1793,1855,1974
79809,-45688,-15616,-47044,-14276,-3800,3800,14,37,-17,-34,75,3933,13,9,838,1736,1854,2072,2241,2023,1793,1855,1974
80810,-45704,-15612,-47044,-14276,-3800,3800,14,37,-17,-54,77,3926,1,7,838,1736,1854,2072,2241,2023,1793,1855,1974
81811,-45704,-15624,-47044,-14276,-3800,3800,17,37,-20,-55,61,3910,-6,3,838,1736,1854,2072,2241,2023,1793,1855,1974
82812,-45700,-15620,-47044,-14276,-3800,3800,16,35,-21,-29,80,3897,13,-2,838,1736,1854,2072,2241,2023,1793,1855,1974
83813,-45692,-15616,-47044,-14276,-3800,3800,13,35,-21,-12,74,3909,1,-4,838,1736,1856,2072,2241,2022,1793,1856,1973
84814,-45700,-15616,-47044,-14276,-3800,3800,13,37,-19,-35,104,3926,-4,0,838,1736,1856,2072,2241,2022,1793,1856,1973
85815,-45696,-15608,-47044,-14276,-3800,3800,15,38,-19,-24,86,3921,13,6,838,1736,1856,2072,2241,2022,1793,1856,1973
86816,-45688,-15612,-47044,-14276,-3800,3800,17,36,-19,-34,66,3922,-4,7,837,1736,1856,2072,2241,2022,1793,1856,1973
87817,-45700,-15616,-47044,-14276,-3800,3800,18,37,-21,-41,61,3927,0,3,837,1736,1856,2072,2241,2022,1793,1856,1973
88818,-45688,-15616,-47044,-14276,-3800,3800,18,39,-20,-21,45,3903,0,3,837,1736,1854,2071,2240,2023,1793,1854,1974
89819,-45688,-15616,-47044,-14276,-3800,3800,19,36,-19,-16,56,3892,6,-5,837,1736,1854,2071,2240,2023,1793,1854,1974
90820,-45696,-15612,-47044,-14276,-3800,3800,19,35,-18,-14,71,3908,4,0,838,1736,1854,2071,2240,2023,1793,1854,1974
91821,-45692,-15596,-47044,-14276,-3800,3800,20,36,-19,-28,80,3935,5,8,838,1736,1854,2071,2240,2023,1793,1854,1974
92822,-45692,-15620,-47044,-14276,-3800,3800,19,35,-19,-24,57,3915,7,6,837,1736,1854,2071,2240,2023,1793,1854,1974
93823,-45692,-15620,-47044,-14276,-3800,3800,18,35,-18,-27,64,3925,-5,0,838,1736,1854,2071,2240,2023,1793,1854,1974
94824,-45704,-15628,-47044,-14276,-3800,3800,18,38,-20,-22,55,3925,9,-5,838,1738,1855,2073,2242,2024,1794,1856,1976
95825,-45692,-15612,-47044,-14276,-3800,3800,19,37,-21,-24,70,3932,-3,8,838,1738,1855,2073,2242,2024,1794,1856,1976
96826,-45696,-15612,-47044,-14276,-3800,3800,20,34,-20,-56,56,3922,10,10,838,1738,1855,2073,2242,2024,1794,1856,1976
97827,-45692,-15612,-47044,-14276,-3800,3800,18,36,-21,-28,72,3916,2,1,838,1738,1855,2073,2242,2024,1794,1856,1976
98828,-45696,-15620,-47044,-14276,-3800,3800,18,38,-19,-23,58,3926,2,0,838,1738,1855,2073,2242,2024,1794,1856,1976
99829,-45700,-15624,-47044,-14276,-3800,3800,19,36,-19,-30,40,3928,0,10,837,1736,1854,2072,2240,2023,1793,1856,1974
100830,-45700,-15608,-47044,-14276,-3800,3800,19,36,-22,-15,59,3924,8,1,838,1736,1854,2072,2240,2023,1793,1856,1974
101831,-45700,-15624,-47044,-14276,-3800,3800,19,34,-22,-23,57,3945,-6,-2,838,1736,1854,2072,2240,2023,1793,1856,1974
102832,-45700,-15612,-47044,-14276,-3800,3800,19,32,-21,-38,54,3943,12,8,837,1736,1854,2072,2240,2023,1793,1856,1974
103833,-45684,-15604,-47044,-14276,-3800,3800,21,34,-20,-48,68,3935,-4,8,837,1736,1854,2072,2240,2023,1793,1856,1974
104834,-45696,-15592,-47044,-14276,-3800,3800,19,37,-20,-18,52,3949,4,-3,836,1736,1854,2072,2240,2023,1793,1856,1974
105835,-45696,-15628,-47044,-14276,-3800,3800,18,38,-20,-26,65,3933,4,-5,838,1735,1851,2069,2239,2023,1793,1855,1973
106836,-45692,-15616,-47044,-14276,-3800,3800,18,37,-22,-16,39,3961,7,-3,837,1735,1851,2069,2239,2023,1793,1855,1973
107837,-45700,-15636,-47044,-14276,-3800,3800,20,37,-21,-38,33,3949,13,10,837,1735,1851,2069,2239,2023,1793,1855,1973
108838,-45688,-15616,-47044,-14276,-3800,3800,18,35,-23,-58,62,3926,-1,2,837,1735,1851,2069,2239,2023,1793,1855,1973
109839,-45688,-15600,-47044,-14276,-3800,3800,17,36,-25,-23,101,3936,4,-4,838,1735,1851,2069,2239,2023,1793,1855,1973
110840,-45692,-15612,-47044,-14276,-3800,3800,17,36,-23,-21,81,3917,13,1,837,1735,1854,2071,2239,2023,1794,1855,1974
111841,-45704,-15616,-47044,-14276,-3800,3800,17,36,-19,-17,78,3911,0,7,838,1735,1854,2071,2239,2023,1794,1855,1974
112842,-45700,-15620,-47044,-14276,-3800,3800,17,36,-19,-3,70,3908,6,10,838,1735,1854,2071,2239,2023,1794,1855,1974
113843,-45700,-15608,-47044,-14276,-3800,3800,19,36,-20,-12,91,3910,11,-1,838,1735,1854,2071,2239,2023,1794,1855,1974
114844,-45692,-15624,-47044,-14276,-3800,3800,18,37,-20,-39,82,3878,-6,-5,838,1735,1854,2071,2239,2023,1794,1855,1974
115845,-45704,-15624,-47044,-14276,-3800,3800,16,37,-24,-25,78,3865,13,1,838,1735,1854,2071,2239,2023,1794,1855,1974
116846,-45700,-15616,-47044,-14276,-3800,3800,18,37,-25,-24,73,3904,-1,10,837,1736,1854,2071,2240,2024,1794,1855,1974
117847,-45692,-15612,-47044,-14276,-3800,3800,18,36,-21,-15,89,3911,5,8,838,1736,1854,2071,2240,2024,1794,1855,1974
118848,-45688,-15624,-47044,-14276,-3800,3800,17,36,-19,-27,73,3919,2,2,838,1736,1854,2071,2240,2024,1794,1855,1974
119849,-45692,-15608,-47044,-14276,-3800,3800,18,40,-19,11,81,3949,-3,-5,837,1736,1854,2071,2240,2024,1794,1855,1974
120850,-45692,-15616,-47044,-14276,-3800,3800,19,39,-17,-17,79,3945,11,-4,837,1736,1854,2071,2240,2024,1794,1855,1974
121851,-45692,-15620,-47044,-14276,-3800,3800,16,36,-21,-33,57,3918,0,1,836,1736,1854,2072,2240,2024,1794,1856,1974
122852,-45704,-15604,-47044,-14276,-3800,3800,14,33,-20,-11,36,3928,11,8,838,1736,1854,2072,2240,2024,1794,1856,1974
123853,-45692,-15608,-47044,-14276,-3800,3800,16,33,-19,0,48,3968,-3,10,837,1736,1854,2072,2240,2024,1794,1856,1974
124854,-45712,-15628,-47044,-14276,-3800,3800,16,35,-18,-25,62,3960,9,4,838,1736,1854,2072,2240,2024,1794,1856,1974
125855,-45696,-15612,-47044,-14276,-3800,3800,13,37,-18,-28,65,3957,7,-4,837,1736,1854,2072,2240,2024,1794,1856,1974
126856,-45688,-15616,-47044,-14276,-3800,3800,16,38,-18,-12,83,3939,-4,-4,838,1736,1854,2072,2240,2024,1794,1856,1974
127857,-45700,-15604,-47044,-14276,-3800,3800,15,38,-20,1,74,3938,12,-2,838,1736,1853,2071,2240,2023,1794,1856,1974
128858,-45696,-15624,-47044,-14276,-3800,3800,14,37,-21,-20,61,3941,-4,9,837,1736,1853,2071,2240,2023,1794,1856,1974
129859,-45696,-15612,-47044,-14276,-3800,3800,17,36,-20,-26,64,3957,4,10,837,1736,1853,2071,2240,2023,1794,1856,1974
130862,-45688,-15616,-47044,-14276,-3800,3800,18,37,-18,-45,65,3962,8,6,838,1736,1853,2071,2240,2023,1794,1856,1974
131861,-45692,-15620,-47044,-14276,-3800,3800,16,36,-18,-31,55,3927,-5,-3,838,1736,1853,2071,2240,2023,1794,1856,1974
132862,-45704,-15604,-47044,-14276,-3800,3800,13,36,-18,-46,70,3960,0,-5,837,1735,1854,2074,2242,2026,1796,1857,1976
133863,-45696,-15608,-47044,-14276,-3800,3800,13,37,-21,-12,57,3952,10,-2,837,1735,1854,2074,2242,2026,1796,1857,1976
134864,-45692,-15616,-47044,-14276,-3800,3800,15,37,-21,-12,69,3930,-4,10,837,1735,1854,2074,2242,2026,1796,1857,1976
135865,-45700,-15620,-47044,-14276,-3800,3800,16,36,-18,-37,75,3917,1,6,837,1735,1854,2074,2242,2026,1796,1857,1976
136866,-45696,-15608,-47044,-14276,-3800,3800,14,38,-17,-33,51,3937,10,-1,837,1735,1854,2074,2242,2026,1796,1857,1976
137867,-45696,-15620,-47044,-14276,-3800,3800,14,39,-18,-17,49,3902,-4,-4,837,1735,1854,2074,2242,2026,1796,1857,1976
138868,-45696,-15620,-47044,-14276,-3800,3800,15,38,-18,-15,67,3917,-2,2,837,1737,1854,2072,2240,2024,1793,1856,1974
139869,-45692,-15608,-47044,-14276,-3800,3800,16,37,-20,-23,59,3918,3,1,837,1737,1854,2072,2240,2024,1793,1856,1974
140870,-45700,-15604,-47044,-14276,-3800,3800,15,38,-20,-8,87,3947,-1,10,837,1737,1854,2072,2240,2024,1793,1856,1974
141871,-45692,-15604,-47044,-14276,-3800,3800,15,38,-18,-11,51,3941,13,7,837,1737,1854,2072,2240,2024,1793,1856,1974
142872,-45700,-15616,-47044,-14276,-3800,3800,15,38,-18,-30,65,3943,-5,3,837,1737,1854,2072,2240,2024,1793,1856,1974
143873,-45696,-15608,-47044,-14276,-3800,3800,15,37,-17,-49,72,3945,10,-5,837,1737,1854,2071,2240,2024,1791,1851,1971
144874,-45700,-15608,-47044,-14276,-3800,3800,14,38,-17,-59,73,3931,4,-2,837,1737,1854,2071,2240,2024,1791,1851,1971
145875,-45692,-15620,-47044,-14276,-3800,3800,14,37,-18,-46,72,3943,0,5,837,1737,1854,2071,2240,2024,1791,1851,1971
146876,-45684,-15612,-47044,-14276,-3800,3800,15,36,-20,-43,86,3948,12,9,837,1737,1854,2071,2240,2024,1791,1851,1971
147877,-45688,-15620,-47044,-14276,-3800,3800,15,35,-22,-51,70,3935,-3,4,837,1737,1854,2071,2240,2024,1791,1851,1971
148878,-45688,-15612,-47044,-14276,-3800,3800,18,36,-21,-35,60,3954,7,-3,837,1737,1854,2071,2240,2024,1791,1851,1971
149879,-45688,-15616,-47044,-14276,-3800,3800,18,39,-19,-27,31,3936,7,-1,837,1737,1854,2072,2240,2023,1794,1855,1974
150880,-45696,-15616,-47044,-14276,-3800,3800,16,37,-23,-38,73,3930,-4,9,838,1737,1854,2072,2240,2023,1794,1855,1974
151881,-45684,-15620,-47044,-14276,-3800,3800,15,37,-24,-47,77,3937,10,10,838,1737,1854,2072,2240,2023,1794,1855,1974
152882,-45688,-15620,-47044,-14276,-3800,3800,14,37,-22,-23,46,3923,11,3,837,1737,1854,2072,2240,2023,1794,1855,1974
153883,-45708,-15616,-47044,-14276,-3800,3800,15,37,-21,-15,50,3910,4,-2,837,1737,1854,2072,2240,2023,1794,1855,1974
154884,-45692,-15616,-47044,-14276,-3800,3800,15,38,-20,-31,77,3945,-5,-5,837,1737,1855,2071,2240,2024,1794,1857,1975
155885,-45696,-15612,-47044,-14276,-3800,3800,16,38,-20,-47,57,3925,7,1,836,1737,1855,2071,2240,2024,1794,1857,1975
156886,-45688,-15620,-47044,-14276,-3800,3800,16,38,-21,-46,76,3920,-1,4,838,1737,1855,2071,2240,2024,1794,1857,1975
157887,-45704,-15616,-47044,-14276,-3800,3800,18,36,-21,-8,57,3942,10,10,838,1737,1855,2071,2240,2024,1794,1857,1975
158888,-45692,-15620,-47044,-14276,-3800,3800,20,38,-20,-26,64,3933,11,0,837,1737,1855,2071,2240,2024,1794,1857,1975
159889,-45704,-15608,-47044,-14276,-3800,3800,16,38,-20,-39,74,3886,-5,-5,837,1737,1855,2071,2240,2024,1794,1857,1975
160890,-45700,-15620,-47044,-14276,-3800,3800,15,39,-20,-14,50,3927,13,1,838,1737,1854,2073,2240,2023,1793,1856,1974
161891,-45688,-15636,-47044,-14276,-3800,3800,16,37,-22,-28,65,3943,-1,10,838,1737,1854,2073,2240,2023,1793,1856,1974
162892,-45700,-15608,-47044,-14276,-3800,3800,16,35,-21,-26,87,3924,-4,7,838,1737,1854,2073,2240,2023,1793,1856,1974
163893,-45688,-15620,-47044,-14276,-3800,3800,16,36,-22,-18,63,3947,11,0,837,1737,1854,2073,2240,2023,1793,1856,1974
164894,-45700,-15624,-47044,-14276,-3800,3800,19,37,-20,-10,59,3961,13,-3,838,1737,1854,2073,2240,2023,1793,1856,1974
165895,-45692,-15616,-47044,-14276,-3800,3800,17,37,-20,-23,65,3938,2,6,838,1737,1854,2072,2240,2024,1794,1855,1974
166896,-45712,-15612,-47044,-14276,-3800,3800,16,38,-22,-35,61,3974,-2,8,837,1737,1854,2072,2240,2024,1794,1855,1974
167897,-45700,-15620,-47044,-14276,-3800,3800,18,36,-24,-46,61,3977,12,-4,837,1737,1854,2072,2240,2024,1794,1855,1974
168898,-45688,-15608,-47044,-14276,-3800,3800,20,35,-22,-35,48,3919,4,-4,838,1737,1854,2072,2240,2024,1794,1855,1974
169899,-45700,-15612,-47044,-14276,-3800,3800,17,37,-21,-30,84,3914,0,2,838,1737,1854,2072,2240,2024,1794,1855,1974
170900,-45688,-15628,-47044,-14276,-3800,3800,16,38,-21,-18,80,3914,14,9,838,1737,1854,2072,2240,2024,1794,1855,1974
171901,-45696,-15612,-47044,-14276,-3800,3800,16,38,-20,-31,55,3939,-1,5,838,1737,1856,2072,2240,2024,1793,1856,1974
172902,-45704,-15608,-47044,-14276,-3800,3800,18,35,-20,-55,47,3932,5,2,836,1737,1856,2072,2240,2024,1793,1856,1974
173903,-45700,-15620,-47044,-14276,-3800,3800,18,36,-18,-38,86,3955,5,-2,838,1737,1856,2072,2240,2024,1793,1856,1974
174904,-45692,-15624,-47044,-14276,-3800,3800,19,36,-20,-12,58,3971,-6,-5,838,1737,1856,2072,2240,2024,1793,1856,1974
175905,-45688,-15616,-47044,-14276,-3800,3800,19,36,-20,-39,59,3959,12,-3,838,1737,1856,2072,2240,2024,1793,1856,1974
176906,-45692,-15616,-47044,-14276,-3800,3800,19,34,-20,-45,67,3943,8,9,838,1737,1855,2071,2240,2023,1794,1856,1974
177907,-45692,-15608,-47044,-14276,-3800,3800,19,32,-20,-43,50,3941,-4,9,837,1737,1855,2071,2240,2023,1794,1856,1974
178908,-45696,-15604,-47044,-14276,-3800,3800,18,34,-21,-51,49,3946,11,5,837,1737,1855,2071,2240,2023,1794,1856,1974
179909,-45700,-15608,-47044,-14276,-3800,3800,18,37,-21,-37,59,3951,2,-4,838,1737,1855,2071,2240,2023,1794,1856,1974
180911,-45708,-15608,-47044,-14276,-3800,3800,17,38,-21,-33,62,3962,-5,-5,838,1737,1855,2071,2240,2023,1794,1856,1974
181911,-45684,-15608,-47044,-14276,-3800,3800,16,36,-20,7,74,3933,13,0,837,1737,1855,2071,2240,2023,1794,1856,1974
182912,-45700,-15604,-47044,-14276,-3800,3800,18,34,-18,-15,59,3971,2,10,838,1737,1856,2072,2240,2023,1794,1856,1974
183913,-45696,-15620,-47044,-14276,-3800,3800,19,35,-18,-34,52,3948,-4,2,838,1737,1856,2072,2240,2023,1794,1856,1974
184914,-45696,-15624,-47044,-14276,-3800,3800,17,36,-20,-37,45,3934,13,-4,838,1737,1856,2072,2240,2023,1794,1856,1974
185915,-45692,-15620,-47044,-14276,-3800,3800,18,37,-19,-38,61,3953,3,0,838,1737,1856,2072,2240,2023,1794,1856,1974
186916,-45696,-15608,-47044,-14276,-3800,3800,18,36,-20,-8,96,3948,-4,7,838,1737,1856,2072,2240,2023,1794,1856,1974
187917,-45692,-15628,-47044,-14276,-3800,3800,15,37,-20,-10,107,3903,13,10,838,1737,1854,2071,2239,2023,1793,1855,1973
188918,-45704,-15612,-47044,-14276,-3800,3800,14,36,-21,-16,57,3905,-6,-1,838,1737,1854,2071,2239,2023,1793,1855,1973
189919,-45684,-15624,-47044,-14276,-3800,3800,14,32,-17,-18,75,3915,3,-5,837,1737,1854,2071,2239,2023,1793,1855,1973
190920,-45688,-15624,-47044,-14276,-3800,3800,16,34,-18,0,68,3940,-2,-3,838,1737,1854,2071,2239,2023,1793,1855,1973
191921,-45704,-15608,-47044,-14276,-3800,3800,17,34,-19,19,54,3946,11,1,838,1737,1854,2071,2239,2023,1793,1855,1973
192922,-45704,-15612,-47044,-14276,-3800,3800,18,35,-19,13,72,3916,5,8,838,1737,1854,2071,2239,2023,1793,1855,1973
193923,-45700,-15620,-47044,-14276,-3800,3800,18,36,-16,-10,76,3926,-4,10,838,1736,1853,2071,2240,2023,1793,1856,1974
194924,-45696,-15620,-47044,-14276,-3800,3800,18,36,-19,-24,75,3894,13,5,838,1736,1853,2071,2240,2023,1793,1856,1974
195925,-45708,-15616,-47044,-14276,-3800,3800,17,36,-18,-5,61,3912,-1,-2,838,1736,1853,2071,2240,2023,1793,1856,1974
196926,-45692,-15612,-47044,-14276,-3800,3800,16,35,-20,-21,62,3932,8,-5,838,1736,1853,2071,2240,2023,1793,1856,1974
197927,-45704,-15612,-47044,-14276,-3800,3800,14,34,-18,-18,79,3944,9,-2,838,1736,1853,2071,2240,2023,1793,1856,1974
198928,-45684,-15612,-47044,-14276,-3800,3800,14,34,-20,-32,87,3897,-5,4,838,1737,1854,2072,2240,2023,1793,1855,1974
199929,-45704,-15608,-47044,-14276,-3800,3800,16,36,-21,-47,83,3922,13,10,838,1737,1854,2072,2240,2023,1793,1855,1974
200930,-45688,-15620,-47044,-14276,-3800,3800,16,38,-21,-37,81,3927,2,6,838,1737,1854,2072,2240,2023,1793,1855,1974
201931,-45692,-15608,-47044,-14276,-3800,3800,16,35,-20,-31,83,3934,-3,-1,838,1737,1854,2072,2240,2023,1793,1855,1974
202932,-45704,-15616,-47044,-14276,-3800,3800,14,35,-19,-33,66,3923,13,-5,838,1737,1854,2072,2240,2023,1793,1855,1974
203933,-45692,-15616,-47044,-14276,-3800,3800,15,38,-20,-13,90,3949,8,6,838,1737,1854,2072,2240,2023,1793,1855,1974
204934,-45700,-15612,-46979,-14211,-1037,2085,14,39,-20,-18,80,3953,-5,10,838,1738,1856,2072,2240,2024,1794,1856,1975
205935,-45692,-15612,-46914,-14146,-1168,2214,14,38,-21,-17,83,3923,10,5,818,1738,1856,2072,2240,2024,1794,1856,1975
206936,-45704,-15600,-46849,-14081,-824,2130,16,39,-22,-4,98,3908,18,20,817,1738,1856,2072,2240,2024,1794,1856,1975
207937,-45708,-15556,-46784,-14016,-841,1755,19,32,-17,-9,59,3858,7,20,820,1738,1856,2072,2240,2024,1794,1856,1975
208938,-45692,-15492,-46719,-13951,-1031,1508,14,25,-14,-106,95,4049,7,46,824,1738,1856,2072,2240,2024,1794,1856,1975
209939,-45688,-15408,-46654,-13886,-808,1234,8,7,-21,-142,82,4036,11,45,824,1737,1853,2071,2240,2023,1794,1856,1972
210940,-45708,-15288,-46589,-13821,-404,718,15,6,-25,-342,123,4203,2,56,829,1737,1853,2071,2240,2023,1794,1856,1972
211941,-45688,-15168,-46524,-13756,-849,651,26,-14,-30,-144,89,4101,2,72,834,1737,1853,2071,2240,2023,1794,1856,1972
212942,-45692,-15052,-46459,-13691,-466,640,36,-44,-34,73,96,4100,6,74,834,1737,1853,2071,2240,2023,1794,1856,1972
213943,-45688,-14932,-46394,-13626,-491,524,27,-55,-42,41,-4,4174,18,73,833,1737,1853,2071,2240,2023,1794,1856,1972
214944,-45700,-14800,-46329,-13561,-197,292,21,-30,-61,-55,-52,4170,2,63,836,1737,1853,2071,2240,2023,1794,1856,1972
215945,-45692,-14684,-46264,-13496,-379,430,10,5,-77,-163,-51,3967,14,61,836,1742,1860,2077,2243,2027,1800,1866,1988
216946,-45692,-14572,-46199,-13431,-199,423,-9,33,-90,39,-118,3976,14,62,836,1742,1860,2077,2243,2027,1800,1866,1988
217947,-45696,-14448,-46134,-13366,-65,201,-24,70,-111,155,-102,3795,6,76,827,1742,1860,2077,2243,2027,1800,1866,1988
218948,-45692,-14324,-46069,-13301,-91,130,-36,80,-116,-147,-81,3765,2,66,837,1742,1860,2077,2243,2027,1800,1866,1988
219949,-45692,-14224,-46004,-13236,39,388,-43,72,-110,-450,-6,3955,10,69,834,1742,1860,2077,2243,2027,1800,1866,1988
220950,-45692,-14100,-45939,-13171,118,17,-49,24,-114,-593,39,3801,15,54,836,1749,1865,2083,2250,2010,1809,1872,1990
221951,-45704,-13980,-45874,-13106,361,-1,-47,-22,-116,-529,-9,4194,6,62,838,1749,1865,2083,2250,2010,1809,1872,1990
222952,-45700,-13880,-45809,-13041,235,207,-43,-83,-122,-503,-38,3945,18,67,836,1749,1865,2083,2250,2010,1809,1872,1990
223953,-45700,-13780,-45744,-12976,365,165,-36,-118,-119,-609,-34,4255,19,66,835,1749,1865,2083,2250,2010,1809,1872,1990
224954,-45688,-13680,-45679,-12911,279,122,-34,-137,-119,-269,-66,4109,11,67,836,1749,1865,2083,2250,2010,1809,1872,1990
225955,-45684,-13560,-45614,-12846,454,-195,-30,-132,-126,-103,-76,4212,22,52,837,1749,1865,2083,2250,2010,1809,1872,1990
226956,-45684,-13472,-45549,-12781,583,177,-23,-107,-130,-119,-27,4246,22,50,835,1731,1851,2066,2233,2036,1805,1868,1991
227957,-45664,-13368,-45484,-12716,388,-70,-12,-74,-128,124,41,4217,19,46,834,1731,1851,2066,2233,2036,1805,1868,1991
228958,-45648,-13284,-45419,-12651,499,157,-2,-59,-141,2,-40,4224,19,56,836,1731,1851,2066,2233,2036,1805,1868,1991
229959,-45632,-13200,-45354,-12586,559,134,0,-44,-161,-131,-5,4232,15,51,835,1731,1851,2066,2233,2036,1805,1868,1991
230960,-45612,-13120,-45289,-12521,564,166,-1,-49,-173,-118,-27,4150,30,48,834,1731,1851,2066,2233,2036,1805,1868,1991
231961,-45604,-13056,-45224,-12456,783,368,-5,-57,-184,-119,35,4038,32,41,834,1740,1860,2074,2244,2028,1796,1864,1981
232962,-45576,-12972,-45159,-12391,579,95,-17,-64,-192,-197,-19,3899,32,36,832,1740,1860,2074,2244,2028,1796,1864,1981
233963,-45536,-12896,-45094,-12326,459,181,-31,-84,-201,-371,62,3798,29,47,835,1740,1860,2074,2244,2028,1796,1864,1981
234964,-45488,-12824,-45029,-12261,380,223,-45,-118,-205,-496,-71,3677,35,44,835,1740,1860,2074,2244,2028,1796,1864,1981
235965,-45452,-12768,-44964,-12196,565,434,-60,-143,-203,-308,-57,3590,27,42,835,1740,1860,2074,2244,2028,1796,1864,1981
236966,-45424,-12704,-44899,-12131,711,336,-67,-150,-200,-278,-29,3734,24,35,833,1740,1860,2074,2244,2028,1796,1864,1981
237967,-45376,-12640,-44834,-12066,482,337,-64,-151,-194,-403,-94,3856,23,35,832,1756,1872,2084,2254,2020,1790,1855,1974
238968,-45344,-12600,-44769,-12001,722,668,-50,-170,-186,-364,-137,3896,43,36,834,1756,1872,2084,2254,2020,1790,1855,1974
239969,-45292,-12536,-44704,-11936,488,369,-34,-173,-175,-229,-89,3957,35,43,830,1756,1872,2084,2254,2020,1790,1855,1974
240970,-45240,-12480,-44639,-11871,504,481,-16,-166,-165,-77,-144,4009,42,33,833,1756,1872,2084,2254,2020,1790,1855,1974
241971,-45188,-12424,-44574,-11806,521,492,-2,-151,-151,-57,-118,4033,35,36,833,1756,1872,2084,2254,2020,1790,1855,1974
242972,-45124,-12368,-44509,-11741,372,503,15,-132,-142,-62,-143,3905,37,43,833,1743,1860,2072,2236,2010,1778,1844,1960
243973,-45064,-12308,-44444,-11676,428,459,30,-123,-131,4,-132,3875,50,42,834,1743,1860,2072,2236,2010,1778,1844,1960
244974,-44988,-12260,-44379,-11611,215,631,46,-118,-124,35,-77,3943,36,42,834,1743,1860,2072,2236,2010,1778,1844,1960
245975,-44936,-12196,-44314,-11546,532,432,60,-102,-125,20,-59,3853,48,30,834,1743,1860,2072,2236,2010,1778,1844,1960
246976,-44876,-12136,-44249,-11481,438,488,64,-85,-119,46,-52,3911,45,33,833,1743,1860,2072,2236,2010,1778,1844,1960
247977,-44808,-12108,-44184,-11416,334,933,65,-92,-104,76,-11,3684,35,31,833,1743,1860,2072,2236,2010,1778,1844,1960
248978,-44752,-12048,-44119,-11351,495,540,73,-98,-100,-56,9,3837,41,42,831,1735,1846,2058,2232,1996,1768,1836,1944
249979,-44696,-11992,-44054,-11286,507,601,70,-112,-94,-177,-8,3691,43,31,832,1735,1846,2058,2232,1996,1768,1836,1944
250980,-44632,-11920,-43989,-11221,408,393,82,-120,-84,-51,20,3826,37,38,833,1735,1846,2058,2232,1996,1768,1836,1944
251981,-44552,-11876,-43924,-11156,190,768,85,-145,-63,-73,-84,3718,35,42,834,1735,1846,2058,2232,1996,1768,1836,1944
252982,-44488,-11820,-43859,-11091,391,630,103,-149,-61,3,-37,3859,39,31,833,1735,1846,2058,2232,1996,1768,1836,1944
253983,-44440,-11752,-43794,-11026,613,477,100,-145,-46,-138,-145,3641,39,37,833,1740,1849,2059,2242,1995,1770,1842,1951
254984,-44372,-11708,-43729,-10961,359,802,127,-128,-42,-117,-137,3917,33,36,832,1740,1849,2059,2242,1995,1770,1842,1951
255985,-44308,-11648,-43664,-10896,411,608,136,-118,-29,75,-190,3774,53,40,832,1740,1849,2059,2242,1995,1770,1842,1951
256986,-44264,-11584,-43599,-10831,686,561,161,-79,-13,214,-122,3989,53,36,833,1740,1849,2059,2242,1995,1770,1842,1951
257987,-44196,-11536,-43534,-10766,384,781,173,-44,7,174,-196,3927,37,45,831,1740,1849,2059,2242,1995,1770,1842,1951
258988,-44128,-11484,-43469,-10701,380,747,191,-30,24,203,-265,3862,44,46,832,1740,1849,2059,2242,1995,1770,1842,1951
259989,-44068,-11424,-43404,-10636,486,654,210,-18,40,21,-127,3917,37,45,832,1746,1858,2072,2249,2004,1778,1844,1958
260990,-44008,-11364,-43339,-10571,492,661,227,-25,56,-118,-310,3747,53,45,832,1746,1858,2072,2249,2004,1778,1844,1958
261991,-43940,-11300,-43274,-10506,389,612,236,-36,65,72,-67,3998,46,34,832,1746,1858,2072,2249,2004,1778,1844,1958
262992,-43888,-11232,-43209,-10441,605,558,248,-56,79,-13,-178,3645,40,39,833,1746,1858,2072,2249,2004,1778,1844,1958
263993,-43820,-11172,-43144,-10376,402,665,248,-63,93,18,-87,3949,53,35,832,1746,1858,2072,2249,2004,1778,1844,1958
264994,-43760,-11128,-43079,-10311,508,891,246,-62,98,0,-132,3918,39,41,832,1751,1865,2079,2254,2006,1777,1843,1959
265995,-43692,-11068,-43014,-10246,405,697,245,-67,102,19,-85,3866,55,34,830,1751,1865,2079,2254,2006,1777,1843,1959
266996,-43624,-10996,-42949,-10181,401,539,244,-60,110,38,-142,4047,41,43,832,1751,1865,2079,2254,2006,1777,1843,1959
267997,-43540,-10932,-42884,-10116,178,641,245,-45,122,-104,-55,4004,40,32,833,1751,1865,2079,2254,2006,1777,1843,1959
268998,-43484,-10892,-42819,-10051,539,971,248,-44,129,-19,-52,4129,48,38,834,1751,1865,2079,2254,2006,1777,1843,1959
269999,-43416,-10820,-42754,-9986,387,564,254,-36,122,189,-90,3932,41,34,829,1751,1865,2079,2254,2006,1777,1843,1959
271000,-43356,-10764,-42689,-9921,493,775,247,-18,106,192,-131,4020,51,36,833,1751,1865,2075,2246,2019,1787,1857,1978
272001,-43292,-10696,-42624,-9856,444,621,255,14,127,40,-1,4313,46,45,831,1751,1865,2075,2246,2019,1787,1857,1978
273002,-43232,-10628,-42559,-9791,500,618,264,29,151,101,123,4095,42,39,832,1751,1865,2075,2246,2019,1787,1857,1978
274003,-43168,-10572,-42494,-9726,452,779,274,23,142,106,-36,3903,36,35,832,1751,1865,2075,2246,2019,1787,1857,1978
275004,-43108,-10504,-42429,-9661,508,626,283,-1,136,-95,-55,4212,39,39,830,1751,1865,2075,2246,2019,1787,1857,1978
276005,-43056,-10456,-42364,-9596,624,897,297,-46,142,-131,-109,3933,52,36,832,1741,1857,2071,2239,2041,1807,1871,1991
277006,-42984,-10396,-42299,-9531,366,753,311,-51,142,-51,-14,4249,35,42,829,1741,1857,2071,2239,2041,1807,1871,1991
278007,-42928,-10344,-42234,-9466,578,869,319,-55,150,-13,-53,3975,51,48,832,1741,1857,2071,2239,2041,1807,1871,1991
279008,-42868,-10280,-42169,-9401,534,721,319,-75,155,-55,-9,4052,38,33,830,1741,1857,2071,2239,2041,1807,1871,1991
280009,-42812,-10216,-42104,-9336,595,723,310,-85,157,-108,-42,4046,49,46,831,1741,1857,2071,2239,2041,1807,1871,1991
281011,-42732,-10168,-42039,-9271,276,943,306,-104,165,-54,-36,4029,56,32,831,1741,1857,2071,2239,2041,1807,1871,1991
282011,-42680,-10096,-41974,-9206,643,636,308,-117,169,-58,-10,3937,51,31,831,1740,1861,2073,2241,2043,1807,1870,1995
283012,-42616,-10044,-41909,-9141,495,902,303,-113,160,49,9,4170,41,35,831,1740,1861,2073,2241,2043,1807,1870,1995
284013,-42556,-9980,-41844,-9076,551,753,300,-112,158,77,19,4016,55,30,830,1740,1861,2073,2241,2043,1807,1870,1995
285014,-42488,-9928,-41779,-9011,447,920,282,-116,161,40,30,4009,37,42,831,1740,1861,2073,2241,2043,1807,1870,1995
286015,-42424,-9872,-41714,-8946,499,881,273,-104,159,69,79,4069,40,45,830,1740,1861,2073,2241,2043,1807,1870,1995
287016,-42368,-9812,-41649,-8881,610,837,250,-106,154,14,84,3948,54,37,830,1745,1865,2081,2244,2031,1796,1862,1987
288017,-42304,-9748,-41584,-8816,511,789,247,-98,141,38,85,4170,40,35,830,1745,1865,2081,2244,2031,1796,1862,1987
289018,-42228,-9696,-41519,-8751,349,955,233,-107,135,-5,95,4006,41,38,831,1745,1865,2081,2244,2031,1796,1862,1987
290019,-42164,-9624,-41454,-8686,500,697,236,-133,131,-65,78,4044,46,30,830,1745,1865,2081,2244,2031,1796,1862,1987
291020,-42088,-9572,-41389,-8621,337,963,231,-141,118,8,53,4036,47,34,831,1745,1865,2081,2244,2031,1796,1862,1987
292021,-42036,-9524,-41324,-8556,653,1034,229,-146,104,-67,78,4094,48,39,829,1745,1865,2081,2244,2031,1796,1862,1987
293022,-41988,-9464,-41259,-8491,724,890,225,-151,102,-61,58,4071,37,31,828,1736,1856,2072,2232,2034,1798,1860,1986
294023,-41900,-9408,-41194,-8426,196,952,235,-136,90,91,104,4111,36,48,828,1736,1856,2072,2232,2034,1798,1860,1986
295024,-41828,-9340,-41129,-8361,388,799,241,-123,82,-39,111,3954,57,38,831,1736,1856,2072,2232,2034,1798,1860,1986
296025,-41780,-9288,-41064,-8296,709,1014,249,-121,70,-85,86,4080,50,45,831,1736,1856,2072,2232,2034,1798,1860,1986
297026,-41716,-9212,-40999,-8231,511,702,253,-118,55,-21,187,4002,53,44,828,1736,1856,2072,2232,2034,1798,1860,1986
298027,-41648,-9168,-40934,-8166,457,1128,266,-110,38,95,272,4204,52,47,831,1725,1844,2062,2226,2031,1797,1859,1979
299028,-41580,-9096,-40869,-8101,453,770,265,-121,41,175,257,3944,34,29,828,1725,1844,2062,2226,2031,1797,1859,1979
300029,-41520,-9052,-40804,-8036,560,1146,261,-128,38,169,236,3821,41,31,831,1725,1844,2062,2226,2031,1797,1859,1979
301030,-41468,-8992,-40739,-7971,676,952,240,-107,35,-135,275,3919,35,43,827,1725,1844,2062,2226,2031,1797,1859,1979
302031,-41420,-8940,-40674,-7906,747,1069,228,-95,32,-283,233,3777,35,44,828,1725,1844,2062,2226,2031,1797,1859,1979
303032,-41360,-8868,-40609,-7841,603,810,235,-75,15,1,257,4067,52,33,826,1733,1850,2070,2239,2024,1792,1852,1970
304033,-41296,-8820,-40544,-7776,555,1132,240,-88,10,54,316,3902,57,34,830,1733,1850,2070,2239,2024,1792,1852,1970
305034,-41228,-8756,-40479,-7711,502,933,248,-96,7,15,251,3949,46,38,828,1733,1850,2070,2239,2024,1792,1852,1970
306035,-41168,-8700,-40414,-7646,608,1044,247,-108,12,-68,222,3979,49,39,830,1733,1850,2070,2239,2024,1792,1852,1970
307036,-41096,-8632,-40349,-7581,449,891,243,-101,18,-177,192,3901,42,44,828,1733,1850,2070,2239,2024,1792,1852,1970
308037,-41020,-8584,-40284,-7516,387,1162,245,-90,15,-223,226,3928,39,41,830,1733,1850,2070,2239,2024,1792,1852,1970
309038,-40956,-8532,-40219,-7451,538,1129,251,-56,-10,33,246,3990,50,44,827,1735,1850,2072,2240,2015,1785,1844,1964
310039,-40896,-8468,-40154,-7386,594,980,262,-54,-23,216,289,3969,39,29,828,1735,1850,2072,2240,2015,1785,1844,1964
311040,-40832,-8412,-40089,-7321,546,1091,272,-66,-20,227,290,3937,52,35,829,1735,1850,2072,2240,2015,1785,1844,1964
312041,-40776,-8336,-40024,-7256,657,829,281,-70,-32,88,287,3762,39,45,828,1735,1850,2072,2240,2015,1785,1844,1964
313042,-40712,-8292,-39959,-7191,559,1254,277,-47,-54,8,285,3987,42,38,829,1735,1850,2072,2240,2015,1785,1844,1964
314043,-40652,-8236,-39894,-7126,615,1116,282,-24,-80,70,326,3929,40,44,827,1739,1853,2077,2239,2007,1775,1846,1966
315044,-40600,-8160,-39829,-7061,732,853,294,12,-102,106,293,3949,37,37,827,1739,1853,2077,2239,2007,1775,1846,1966
316045,-40540,-8124,-39764,-6996,638,1388,311,17,-123,-33,349,3888,43,48,828,1739,1853,2077,2239,2007,1775,1846,1966
317046,-40448,-8060,-39699,-6931,205,1041,324,-6,-144,-323,534,3760,55,32,824,1739,1853,2077,2239,2007,1775,1846,1966
318047,-40396,-8004,-39634,-6866,722,1152,344,-12,-178,-206,364,3857,42,40,830,1739,1853,2077,2239,2007,1775,1846,1966
319048,-40336,-7948,-39569,-6801,628,1164,362,1,-206,-371,385,4011,43,38,826,1739,1853,2077,2239,2007,1775,1846,1966
320049,-40292,-7876,-39504,-6736,853,955,386,11,-221,-175,751,3993,46,35,826,1736,1861,2077,2240,2000,1770,1837,1961
321050,-40204,-7824,-39439,-6671,275,1222,441,-18,-238,127,616,3732,55,34,827,1736,1861,2077,2240,2000,1770,1837,1961
322051,-40140,-7780,-39374,-6606,578,1348,488,-114,-250,89,621,3642,44,47,828,1736,1861,2077,2240,2000,1770,1837,1961
323052,-40076,-7716,-39309,-6541,579,1099,513,-191,-247,-294,432,3664,56,30,826,1736,1861,2077,2240,2000,1770,1837,1961
324053,-40024,-7664,-39244,-6476,745,1266,511,-160,-236,-183,430,3943,39,40,828,1736,1861,2077,2240,2000,1770,1837,1961
325054,-39956,-7608,-39179,-6411,542,1227,499,-92,-224,151,425,3943,40,38,825,1743,1867,2079,2252,1975,1751,1826,1942
326055,-39896,-7548,-39114,-6346,648,1184,524,11,-228,236,404,4478,59,45,825,1743,1867,2079,2252,1975,1751,1826,1942
327056,-39836,-7480,-39049,-6281,654,1080,549,40,-222,144,163,3848,45,47,826,1743,1867,2079,2252,1975,1751,1826,1942
328057,-39768,-7432,-38984,-6216,551,1352,580,41,-230,84,192,4067,53,45,827,1743,1867,2079,2252,1975,1751,1826,1942
329058,-39684,-7348,-38919,-6151,328,879,594,-7,-237,-240,267,3759,44,34,825,1743,1867,2079,2252,1975,1751,1826,1942
330059,-39616,-7312,-38854,-6086,525,1515,604,-57,-261,-140,307,3769,57,32,830,1743,1867,2079,2252,1975,1751,1826,1942
331060,-39548,-7248,-38789,-6021,521,1166,614,-98,-279,-42,260,3896,39,29,824,1763,1878,2090,2268,1972,1752,1824,1937
332061,-39500,-7192,-38724,-5956,793,1278,628,-109,-308,3,427,4060,46,47,827,1763,1878,2090,2268,1972,1752,1824,1937
333062,-39440,-7132,-38659,-5891,649,1234,634,-140,-343,-74,380,3881,37,48,824,1763,1878,2090,2268,1972,1752,1824,1937
334063,-39364,-7072,-38594,-5826,435,1241,646,-170,-377,-8,422,4021,48,47,826,1763,1878,2090,2268,1972,1752,1824,1937
335064,-39308,-7020,-38529,-5761,697,1357,661,-192,-409,11,358,3906,56,38,827,1763,1878,2090,2268,1972,1752,1824,1937
336065,-39244,-6940,-38464,-5696,599,989,679,-221,-446,155,381,3893,48,47,824,1764,1871,2085,2259,1995,1767,1839,1963
337066,-39188,-6880,-38399,-5631,710,1246,702,-201,-473,247,377,4156,49,43,828,1764,1871,2085,2259,1995,1767,1839,1963
338067,-39120,-6824,-38334,-5566,556,1307,725,-201,-482,132,244,4176,49,49,825,1764,1871,2085,2259,1995,1767,1839,1963
339068,-39068,-6772,-38269,-5501,773,1374,747,-167,-480,213,87,4191,38,34,825,1764,1871,2085,2259,1995,1767,1839,1963
340069,-39008,-6696,-38204,-5436,679,1061,774,-146,-479,260,206,4206,42,46,823,1764,1871,2085,2259,1995,1767,1839,1963
341070,-38940,-6640,-38139,-5371,575,1323,790,-125,-465,-27,92,4159,45,35,827,1764,1871,2085,2259,1995,1767,1839,1963
342071,-38888,-6588,-38074,-5306,792,1388,823,-129,-455,-87,88,4096,42,45,825,1746,1865,2077,2242,2027,1792,1862,1989
343072,-38828,-6520,-38009,-5241,698,1186,856,-165,-443,-92,117,4095,40,37,823,1746,1865,2077,2242,2027,1792,1862,1989
344073,-38776,-6472,-37944,-5176,814,1457,883,-197,-429,-185,-12,4096,42,45,826,1746,1865,2077,2242,2027,1792,1862,1989
345074,-38712,-6424,-37879,-5111,666,1478,908,-225,-408,-56,96,4199,41,45,822,1746,1865,2077,2242,2027,1792,1862,1989
346075,-38644,-6360,-37814,-5046,613,1280,915,-245,-396,-16,126,4068,50,38,823,1746,1865,2077,2242,2027,1792,1862,1989
347076,-38576,-6324,-37749,-4981,609,1666,910,-246,-389,-32,177,4220,44,39,825,1743,1867,2080,2250,2028,1791,1863,1985
348077,-38508,-6268,-37684,-4916,605,1427,895,-256,-385,-61,220,3959,38,43,822,1743,1867,2080,2250,2028,1791,1863,1985
349078,-38448,-6212,-37619,-4851,712,1439,882,-264,-389,-83,313,4283,41,34,824,1743,1867,2080,2250,2028,1791,1863,1985
350079,-38392,-6164,-37554,-4786,773,1560,873,-269,-400,133,285,4112,50,35,823,1743,1867,2080,2250,2028,1791,1863,1985
351080,-38312,-6100,-37489,-4721,455,1362,858,-273,-402,228,219,4176,43,29,821,1743,1867,2080,2250,2028,1791,1863,1985
352081,-38248,-6044,-37424,-4656,657,1473,854,-255,-414,255,186,4259,48,29,825,1743,1867,2080,2250,2028,1791,1863,1985
353082,-38188,-6004,-37359,-4591,713,1704,850,-255,-418,290,111,4203,52,23,823,1756,1872,2080,2248,2028,1788,1860,1988
354083,-38136,-5968,-37294,-4526,829,1790,860,-254,-427,338,65,4319,37,29,820,1756,1872,2080,2248,2028,1788,1860,1988
355084,-38072,-5928,-37229,-4461,682,1771,860,-248,-436,310,-114,4258,37,35,818,1756,1872,2080,2248,2028,1788,1860,1988
356087,-38004,-5888,-37164,-4396,628,1803,881,-266,-442,-90,-321,4459,54,35,819,1756,1872,2080,2248,2028,1788,1860,1988
357086,-37940,-5836,-37099,-4331,679,1669,909,-313,-434,-32,-353,4431,36,37,819,1756,1872,2080,2248,2028,1788,1860,1988
358087,-37888,-5792,-37034,-4266,846,1795,949,-355,-430,110,-329,4340,42,24,820,1729,1840,2055,2240,2048,1783,1847,1983
359088,-37832,-5724,-36969,-4201,807,1492,967,-375,-423,-30,-302,4470,53,32,818,1729,1840,2055,2240,2048,1783,1847,1983
360089,-37760,-5688,-36904,-4136,598,1928,989,-404,-426,-94,-193,4344,46,34,820,1729,1840,2055,2240,2048,1783,1847,1983
361090,-37708,-5632,-36839,-4071,865,1689,997,-440,-409,89,-115,4270,52,40,818,1729,1840,2055,2240,2048,1783,1847,1983
362091,-37656,-5588,-36774,-4006,881,1866,988,-466,-375,59,12,4092,37,35,819,1729,1840,2055,2240,2048,1783,1847,1983
363092,-37600,-5528,-36709,-3941,842,1673,973,-456,-349,-51,50,4137,53,31,817,1729,1840,2055,2240,2048,1783,1847,1983
364093,-37544,-5472,-36644,-3876,854,1734,952,-455,-321,-32,169,4168,57,31,820,1755,1878,2090,2261,2040,1798,1877,2004
365094,-37468,-5404,-36579,-3811,591,1581,940,-440,-292,130,168,3949,56,34,819,1755,1878,2090,2261,2040,1798,1877,2004
366095,-37428,-5356,-36514,-3746,1071,1852,919,-434,-260,-9,202,4120,58,34,822,1755,1878,2090,2261,2040,1798,1877,2004
367096,-37360,-5288,-36449,-3681,719,1599,911,-440,-251,-150,210,3919,42,40,816,1755,1878,2090,2261,2040,1798,1877,2004
368097,-37304,-5228,-36384,-3616,880,1706,910,-461,-240,66,297,3950,45,45,821,1755,1878,2090,2261,2040,1798,1877,2004
369098,-37220,-5144,-36319,-3551,506,1383,920,-470,-218,135,159,3973,44,49,819,1760,1880,2083,2248,2038,1792,1866,1995
370099,-37168,-5084,-36254,-3486,923,1690,917,-530,-201,-66,-34,3786,54,45,824,1760,1880,2083,2248,2038,1792,1866,1995
371100,-37112,-5024,-36189,-3421,884,1696,927,-566,-194,-191,-55,4065,56,52,819,1760,1880,2083,2248,2038,1792,1866,1995
372101,-37036,-4940,-36124,-3356,621,1374,946,-594,-194,-98,-132,4158,56,51,819,1760,1880,2083,2248,2038,1792,1866,1995
373102,-36952,-4872,-36059,-3291,499,1571,986,-591,-199,-109,-231,4396,59,41,823,1760,1880,2083,2248,2038,1792,1866,1995
374103,-36908,-4804,-35994,-3226,1024,1568,1024,-662,-210,94,-478,4108,43,39,823,1760,1880,2083,2248,2038,1792,1866,1995
375104,-36844,-4748,-35929,-3161,775,1730,1064,-771,-242,260,-547,4163,55,38,820,1730,1844,2056,2208,2026,1778,1841,1972
376105,-36772,-4660,-35864,-3096,668,1302,1062,-861,-286,-209,-288,4684,46,55,820,1730,1844,2056,2208,2026,1778,1841,1972
377106,-36692,-4584,-35799,-3031,550,1439,1077,-851,-324,-121,-366,4716,48,47,823,1730,1844,2056,2208,2026,1778,1841,1972
378107,-36628,-4508,-35734,-2966,751,1427,1086,-815,-321,654,-122,4555,45,42,824,1730,1844,2056,2208,2026,1778,1841,1972
379108,-36580,-4428,-35669,-2901,973,1359,1071,-748,-284,913,86,4076,52,50,823,1730,1844,2056,2208,2026,1778,1841,1972
380109,-36520,-4356,-35604,-2836,829,1451,1005,-722,-250,275,105,3666,41,43,822,1734,1858,2066,2232,2006,1769,1853,1979
381110,-36456,-4304,-35539,-2771,780,1717,950,-700,-215,-132,260,3884,41,39,822,1734,1858,2066,2232,2006,1769,1853,1979
382111,-36388,-4228,-35474,-2706,727,1404,904,-680,-184,352,288,3439,45,41,819,1734,1858,2066,2232,2006,1769,1853,1979
383112,-36328,-4160,-35409,-2641,833,1502,871,-646,-141,229,176,3737,56,45,823,1734,1858,2066,2232,2006,1769,1853,1979
384113,-36268,-4108,-35344,-2576,839,1718,847,-639,-92,32,236,3391,56,35,822,1734,1858,2066,2232,2006,1769,1853,1979
385114,-36212,-4040,-35279,-2511,901,1515,831,-641,-66,-223,173,3434,43,47,819,1734,1858,2066,2232,2006,1769,1853,1979
386115,-36160,-3984,-35214,-2446,967,1676,818,-668,-32,-575,176,3428,51,49,821,1750,1870,2079,2244,2050,1810,1874,2002
387116,-36092,-3900,-35149,-2381,765,1304,818,-720,-1,-345,233,3405,37,39,819,1750,1870,2079,2244,2050,1810,1874,2002
388117,-36032,-3844,-35084,-2316,871,1665,819,-768,21,-150,228,3567,50,47,824,1750,1870,2079,2244,2050,1810,1874,2002
389118,-35964,-3784,-35019,-2251,767,1622,836,-801,37,-260,151,3827,37,49,819,1750,1870,2079,2244,2050,1810,1874,2002
390119,-35896,-3716,-34954,-2186,764,1519,849,-830,50,-16,40,3690,53,40,821,1750,1870,2079,2244,2050,1810,1874,2002
391120,-35832,-3640,-34889,-2121,816,1406,866,-827,51,33,-62,3919,49,35,822,1691,1796,2016,2173,2066,1804,1848,1984
392121,-35764,-3596,-34824,-2056,762,1832,871,-799,42,3,217,4118,48,48,823,1691,1796,2016,2173,2066,1804,1848,1984
393122,-35720,-3528,-34759,-1991,1089,1529,886,-753,23,295,255,4082,48,51,819,1691,1796,2016,2173,2066,1804,1848,1984
394123,-35640,-3472,-34694,-1926,620,1691,895,-694,10,521,264,4118,48,49,817,1691,1796,2016,2173,2066,1804,1848,1984
395124,-35592,-3396,-34629,-1861,1041,1428,893,-658,-2,562,366,3975,44,42,821,1691,1796,2016,2173,2066,1804,1848,1984
396125,-35536,-3320,-34564,-1796,953,1415,883,-615,-12,339,499,3963,49,49,821,1691,1796,2016,2173,2066,1804,1848,1984
397126,-35476,-3264,-34499,-1731,909,1677,843,-575,-9,135,515,3886,43,53,821,1663,1775,2014,2158,2032,1776,1834,1964
398127,-35420,-3196,-34434,-1666,970,1523,807,-528,1,347,712,3892,36,45,819,1663,1775,2014,2158,2032,1776,1834,1964
399128,-35368,-3136,-34369,-1601,1037,1630,752,-501,38,396,597,3496,51,33,820,1663,1775,2014,2158,2032,1776,1834,1964
400129,-35320,-3076,-34304,-1536,1108,1636,711,-464,91,194,673,3595,38,49,819,1663,1775,2014,2158,2032,1776,1834,1964
401130,-35256,-3012,-34239,-1471,910,1589,665,-436,140,42,709,3369,41,36,818,1663,1775,2014,2158,2032,1776,1834,1964
402131,-35180,-2948,-34174,-1406,747,1591,625,-409,174,-27,648,3307,55,46,820,1710,1823,2053,2215,2027,1791,1847,1975
403132,-35140,-2888,-34109,-1341,1227,1647,589,-399,224,-34,737,3430,56,47,821,1710,1823,2053,2215,2027,1791,1847,1975
404133,-35068,-2812,-34044,-1276,820,1435,564,-392,271,76,777,3281,52,51,816,1710,1823,2053,2215,2027,1791,1847,1975
405134,-35016,-2740,-33979,-1211,1085,1476,545,-385,313,-116,749,3478,39,54,822,1710,1823,2053,2215,2027,1791,1847,1975
406136,-34944,-2676,-33914,-1146,828,1578,541,-398,342,-163,655,3373,54,42,819,1710,1823,2053,2215,2027,1791,1847,1975
407136,-34888,-2624,-33849,-1081,1039,1745,536,-393,364,36,663,3489,41,48,820,1710,1823,2053,2215,2027,1791,1847,1975
408137,-34832,-2544,-33784,-1016,1050,1377,545,-374,378,47,710,3566,53,39,818,1709,1824,2052,2204,2052,1806,1851,1989
409138,-34784,-2504,-33719,-951,1172,1908,551,-362,382,195,687,3573,41,34,821,1709,1824,2052,2204,2052,1806,1851,1989
410139,-34704,-2440,-33654,-886,753,1609,563,-351,383,356,716,3681,59,49,815,1709,1824,2052,2204,2052,1806,1851,1989
411140,-34656,-2380,-33589,-821,1175,1667,572,-332,369,232,725,3785,50,42,819,1709,1824,2052,2204,2052,1806,1851,1989
412141,-34600,-2332,-33524,-756,1086,1837,574,-314,345,271,714,3734,42,44,816,1709,1824,2052,2204,2052,1806,1851,1989
413142,-34552,-2264,-33459,-691,1207,1585,574,-298,328,510,798,3764,48,48,816,1692,1805,2038,2178,2038,1790,1836,1968
414143,-34500,-2212,-33394,-626,1174,1802,570,-278,313,512,945,3798,51,42,818,1692,1805,2038,2178,2038,1790,1836,1968
415144,-34416,-2164,-33329,-561,750,1872,559,-265,306,466,936,3750,58,37,815,1692,1805,2038,2178,2038,1790,1836,1968
416145,-34348,-2100,-33264,-496,948,1675,536,-258,304,530,1028,3729,51,44,818,1692,1805,2038,2178,2038,1790,1836,1968
417146,-34272,-2032,-33199,-431,834,1621,509,-246,310,352,927,3689,59,44,819,1692,1805,2038,2178,2038,1790,1836,1968
418147,-34188,-1996,-33134,-366,711,2057,483,-207,309,246,1102,3897,59,47,820,1692,1805,2038,2178,2038,1790,1836,1968
419148,-34136,-1936,-33069,-301,1128,1764,454,-201,313,140,1223,3613,60,46,816,1695,1809,2033,2184,2009,1769,1827,1959
420149,-34068,-1892,-33004,-236,924,1990,439,-221,322,480,1209,3753,42,43,814,1695,1809,2033,2184,2009,1769,1827,1959
421150,-33988,-1832,-32939,-171,757,1797,414,-278,367,450,943,3563,43,47,815,1695,1809,2033,2184,2009,1769,1827,1959
422151,-33928,-1776,-32874,-106,1013,1859,383,-294,403,164,1027,3658,44,42,818,1695,1809,2033,2184,2009,1769,1827,1959
423152,-33860,-1712,-32809,-41,909,1760,358,-258,430,-85,982,3821,41,28,815,1695,1809,2033,2184,2009,1769,1827,1959
424153,-33800,-1668,-32744,24,1017,2037,345,-236,459,302,1009,3962,47,34,817,1707,1823,2047,2204,2028,1790,1845,1986
425154,-33740,-1624,-32679,89,1023,2064,349,-227,469,569,891,3928,42,29,814,1707,1823,2047,2204,2028,1790,1845,1986
426155,-33684,-1568,-32614,154,1085,1925,346,-263,477,161,785,3930,50,26,813,1707,1823,2047,2204,2028,1790,1845,1986
427156,-33628,-1516,-32549,219,1096,1991,346,-299,482,73,890,3979,56,29,814,1707,1823,2047,2204,2028,1790,1845,1986
428157,-33584,-1472,-32484,284,1271,2117,342,-331,495,250,876,3842,38,42,812,1707,1823,2047,2204,2028,1790,1845,1986
429158,-33516,-1432,-32419,349,969,2199,346,-332,482,448,777,3910,41,36,810,1707,1823,2047,2204,2028,1790,1845,1986
430159,-33464,-1368,-32354,414,1184,1901,354,-346,462,288,838,4013,46,41,812,1709,1834,2067,2209,2056,1808,1861,2008
431160,-33400,-1332,-32289,479,1037,2286,366,-347,445,421,795,4060,57,38,813,1709,1834,2067,2209,2056,1808,1861,2008
432161,-33352,-1296,-32224,544,1257,2323,379,-360,428,388,871,4005,45,35,811,1709,1834,2067,2209,2056,1808,1861,2008
433162,-33288,-1232,-32159,609,1060,1975,373,-375,409,563,888,3938,50,34,808,1709,1834,2067,2209,2056,1808,1861,2008
434163,-33232,-1176,-32094,674,1171,2087,366,-387,395,525,970,4028,60,36,813,1709,1834,2067,2209,2056,1808,1861,2008
435164,-33168,-1120,-32029,739,1072,2098,349,-381,396,403,914,4055,43,32,812,1719,1825,2051,2211,2043,1792,1856,1983
436165,-33116,-1076,-31964,804,1239,2274,317,-349,382,478,956,4068,43,45,812,1719,1825,2051,2211,2043,1792,1856,1983
437166,-33060,-1004,-31899,869,1200,1917,292,-328,372,453,1026,4086,50,36,808,1719,1825,2051,2211,2043,1792,1856,1983
438167,-32988,-956,-31834,934,992,2238,251,-350,386,280,993,4171,42,45,813,1719,1825,2051,2211,2043,1792,1856,1983
439168,-32932,-904,-31769,999,1203,2204,225,-364,392,399,1083,4210,43,36,811,1719,1825,2051,2211,2043,1792,1856,1983
440169,-32864,-848,-31704,1064,1051,2166,190,-381,401,336,1001,4141,43,32,810,1719,1825,2051,2211,2043,1792,1856,1983
441170,-32808,-776,-31639,1129,1212,1959,173,-392,411,181,991,4367,54,44,812,1750,1871,2090,2245,2063,1815,1877,2013
442171,-32756,-704,-31574,1194,1277,1950,159,-400,421,186,921,4374,43,45,813,1750,1871,2090,2245,2063,1815,1877,2013
443172,-32700,-656,-31509,1259,1239,2272,156,-417,450,220,857,4351,41,53,813,1750,1871,2090,2245,2063,1815,1877,2013
444173,-32640,-600,-31444,1324,1195,2184,164,-443,473,256,929,4526,57,43,808,1750,1871,2090,2245,2063,1815,1877,2013
445174,-32584,-528,-31379,1389,1257,1976,158,-463,482,167,696,4436,53,45,809,1750,1871,2090,2245,2063,1815,1877,2013
446175,-32528,-460,-31314,1454,1268,2023,178,-474,492,267,727,4521,44,36,812,1716,1837,2067,2211,2065,1818,1868,2015
447176,-32464,-396,-31249,1519,1171,2075,190,-492,509,378,789,4580,58,54,812,1716,1837,2067,2211,2065,1818,1868,2015
448177,-32408,-336,-31184,1584,1282,2132,202,-502,517,569,833,4470,45,48,812,1716,1837,2067,2211,2065,1818,1868,2015
449178,-32344,-264,-31119,1649,1184,1974,212,-519,521,350,778,4435,44,49,810,1716,1837,2067,2211,2065,1818,1868,2015
450179,-32296,-204,-31054,1714,1405,2131,223,-534,517,352,824,4402,47,36,813,1716,1837,2067,2211,2065,1818,1868,2015
451180,-32224,-140,-30989,1779,1097,2083,226,-527,509,600,891,4272,58,38,809,1716,1837,2067,2211,2065,1818,1868,2015
452181,-32188,-64,-30924,1844,1582,1921,220,-527,496,483,928,4323,57,43,813,1726,1851,2091,2240,2073,1822,1875,2017
453182,-32104,-8,-30859,1909,960,2182,213,-522,487,479,969,4321,43,48,810,1726,1851,2091,2240,2073,1822,1875,2017
454183,-32044,52,-30660,2108,2117,2989,198,-521,472,369,1149,4312,43,39,812,1726,1851,2091,2240,2073,1822,1875,2017
455184,-31976,116,-30595,2173,2014,2941,163,-523,469,305,977,4218,53,44,791,1726,1851,2091,2240,2073,1822,1875,2017
456185,-31892,180,-30530,2238,1791,2944,140,-513,461,616,986,4250,52,12,794,1726,1851,2091,2240,2073,1822,1875,2017
457186,-31820,268,-30465,2303,1934,2616,108,-524,471,350,1164,4260,61,26,796,1765,1879,2106,2274,2058,1791,1847,1988
458187,-31744,368,-30400,2368,1870,2424,100,-506,488,152,1196,4433,71,27,799,1765,1879,2106,2274,2058,1791,1847,1988
459188,-31640,476,-30335,2433,1474,2272,74,-511,499,350,1011,4196,80,67,802,1765,1879,2106,2274,2058,1791,1847,1988
460189,-31552,584,-30270,2498,1645,2221,85,-525,512,154,1070,4559,79,74,808,1765,1879,2106,2274,2058,1791,1847,1988
461190,-31440,676,-30205,2563,1289,2388,96,-543,528,52,1103,4547,81,76,807,1765,1879,2106,2274,2058,1791,1847,1988
462191,-31344,784,-30140,2628,1451,2136,104,-556,525,4,1049,4733,77,77,807,1765,1879,2106,2274,2058,1791,1847,1988
463192,-31248,904,-30075,2693,1414,1920,131,-587,548,210,1071,4914,87,66,811,1728,1847,2085,2236,2045,1806,1856,1989
464193,-31136,1004,-30010,2758,1157,2128,148,-657,568,416,1155,4869,73,79,813,1728,1847,2085,2236,2045,1806,1856,1989
465194,-31028,1112,-29945,2823,1155,1976,183,-658,568,69,967,5195,74,72,813,1728,1847,2085,2236,2045,1806,1856,1989
466195,-30944,1216,-29880,2888,1432,1980,227,-662,563,381,1304,5161,68,65,814,1728,1847,2085,2236,2045,1806,1856,1989
467196,-30836,1300,-29815,2953,1080,2206,263,-659,586,771,1156,5013,82,55,812,1728,1847,2085,2236,2045,1806,1856,1989
468197,-30740,1392,-29750,3018,1193,2074,301,-631,585,1216,1269,4916,77,57,813,1732,1862,2095,2244,2048,1815,1869,2003
469198,-30648,1480,-29685,3083,1210,2097,319,-612,580,433,1530,4963,68,55,813,1732,1862,2095,2244,2048,1815,1869,2003
470199,-30548,1560,-29620,3148,1067,2179,327,-584,555,227,1335,4791,80,52,812,1732,1862,2095,2244,2048,1815,1869,2003
471200,-30464,1644,-29555,3213,1245,2107,317,-549,534,885,1407,4592,66,62,812,1732,1862,2095,2244,2048,1815,1869,2003
472201,-30352,1732,-29490,3278,838,2029,322,-517,536,671,1625,4666,75,54,812,1732,1862,2095,2244,2048,1815,1869,2003
473202,-30276,1804,-29425,3343,1274,2221,307,-504,529,415,1680,4431,81,50,815,1732,1862,2095,2244,2048,1815,1869,2003
474203,-30180,1900,-29360,3408,987,1884,316,-520,512,220,1667,4548,62,45,810,1787,1907,2147,2311,2057,1817,1862,1993
475204,-30096,1972,-29295,3473,1114,2176,321,-555,485,153,1674,4451,73,59,816,1787,1907,2147,2311,2057,1817,1862,1993
476205,-30008,2088,-29230,3538,1036,1565,345,-581,465,99,1520,4734,64,58,812,1787,1907,2147,2311,2057,1817,1862,1993
477206,-29924,2168,-29165,3603,1064,1996,404,-682,432,1151,1566,4714,72,42,818,1787,1907,2147,2311,2057,1817,1862,1993
478207,-29844,2240,-29100,3668,1096,2089,435,-855,488,1292,715,4437,61,58,815,1787,1907,2147,2311,2057,1817,1862,1993
479208,-29772,2324,-29035,3733,1187,1915,309,-802,466,-424,693,4530,56,56,812,1827,1920,2176,2360,2060,1808,1856,2000
480209,-29688,2392,-28970,3798,1014,2113,20,-350,297,-2299,1077,4463,68,55,814,1827,1920,2176,2360,2060,1808,1856,2000
481210,-29616,2484,-28905,3863,1156,1781,-255,173,197,-1189,1154,4184,54,60,814,1827,1920,2176,2360,2060,1808,1856,2000
482211,-29548,2568,-28840,3928,1203,1858,-319,284,359,698,733,4630,55,58,816,1827,1920,2176,2360,2060,1808,1856,2000
483212,-29468,2680,-28775,3993,1034,1451,-228,11,455,1498,1174,4317,59,58,815,1827,1920,2176,2360,2060,1808,1856,2000
484213,-29380,2788,-28710,4058,906,1449,-26,-218,435,-97,1013,4854,58,67,820,1827,1920,2176,2360,2060,1808,1856,2000
485214,-29304,2876,-28645,4123,1044,1672,193,-440,341,-747,1387,4285,54,57,821,1727,1829,2074,2201,2132,1895,1902,2047
486215,-29220,2968,-28580,4188,921,1589,332,-422,258,-459,531,4657,49,63,818,1727,1829,2074,2201,2132,1895,1902,2047
487216,-29160,3060,-28515,4253,1227,1556,381,-244,199,109,1198,4711,47,62,820,1727,1829,2074,2201,2132,1895,1902,2047
488217,-29088,3132,-28450,4318,1068,1798,332,-144,186,-169,1457,3940,50,59,818,1727,1829,2074,2201,2132,1895,1902,2047
489218,-29012,3208,-28385,4383,1006,1735,266,-89,206,287,1628,4452,62,45,817,1727,1829,2074,2201,2132,1895,1902,2047
490219,-28940,3268,-28320,4448,1047,1942,244,-97,243,458,1657,3934,55,54,818,1634,1751,1999,2149,2077,1831,1861,1987
491220,-28856,3360,-28255,4513,874,1509,272,-160,249,446,1962,3813,45,47,815,1634,1751,1999,2149,2077,1831,1861,1987
492221,-28784,3432,-28190,4578,1016,1751,333,-270,219,371,1928,3708,47,52,821,1634,1751,1999,2149,2077,1831,1861,1987
493222,-28712,3508,-28125,4643,1008,1688,369,-331,148,-131,2074,3913,59,50,818,1634,1751,1999,2149,2077,1831,1861,1987
494223,-28636,3592,-28060,4708,945,1566,358,-283,74,-169,2139,4067,57,49,818,1634,1751,1999,2149,2077,1831,1861,1987
495224,-28580,3672,-27995,4773,1206,1597,301,-195,26,460,2006,3687,44,64,820,1634,1751,1999,2149,2077,1831,1861,1987
496225,-28512,3756,-27930,4838,1052,1524,219,-124,9,831,1889,3641,56,54,817,1694,1819,2050,2216,1970,1737,1802,1923
497226,-28432,3852,-27865,4903,885,1337,144,-67,2,683,1845,3487,62,70,819,1694,1819,2050,2216,1970,1737,1802,1923
498227,-28376,3956,-27800,4968,1196,1190,80,-77,-39,248,1753,3172,45,70,822,1694,1819,2050,2216,1970,1737,1802,1923
499228,-28296,4056,-27735,5033,877,1198,43,-79,-67,109,1808,3436,56,55,822,1694,1819,2050,2216,1970,1737,1802,1923
500229,-28232,4132,-27670,5098,1079,1485,64,-65,-97,554,1567,3233,60,66,824,1694,1819,2050,2216,1970,1737,1802,1923
501230,-28168,4220,-27605,5163,1080,1307,71,-106,-152,-1,1071,3262,50,53,820,1780,1904,2128,2268,1952,1722,1784,1932
502231,-28088,4320,-27540,5228,862,1115,122,-158,-204,-509,960,3582,61,63,821,1780,1904,2128,2268,1952,1722,1784,1932
503232,-28036,4392,-27475,5293,1228,1456,144,-185,-238,-300,963,3320,45,62,825,1780,1904,2128,2268,1952,1722,1784,1932
504233,-27956,4464,-27410,5358,860,1448,168,-182,-249,-107,1058,3398,43,49,819,1780,1904,2128,2268,1952,1722,1784,1932
505234,-27880,4544,-27345,5423,897,1330,209,-183,-254,114,1205,3394,59,51,822,1780,1904,2128,2268,1952,1722,1784,1932
506236,-27828,4612,-27280,5488,1212,1477,288,-307,-316,-91,1456,3400,55,47,823,1780,1904,2128,2268,1952,1722,1784,1932
507236,-27748,4692,-27215,5553,845,1309,340,-359,-341,-122,1764,3391,51,55,819,1742,1866,2097,2220,1973,1741,1798,1936
508237,-27672,4768,-27150,5618,882,1346,387,-397,-362,12,1748,3334,48,55,823,1742,1866,2097,2220,1973,1741,1798,1936
509238,-27600,4840,-27085,5683,923,1388,438,-423,-374,360,1950,3509,65,49,823,1742,1866,2097,2220,1973,1741,1798,1936
510239,-27532,4916,-27020,5748,970,1324,476,-460,-372,478,1995,3287,63,53,822,1742,1866,2097,2220,1973,1741,1798,1936
511240,-27468,4980,-26955,5813,1021,1476,507,-479,-375,446,2301,3382,62,51,823,1742,1866,2097,2220,1973,1741,1798,1936
512241,-27388,5060,-26890,5878,803,1258,536,-469,-399,415,2354,3518,50,62,821,1694,1810,2025,2175,1970,1745,1808,1922
513242,-27312,5140,-26825,5943,840,1240,569,-459,-413,713,2474,3397,48,58,823,1694,1810,2025,2175,1970,1745,1808,1922
514243,-27232,5220,-26760,6008,772,1222,605,-473,-404,1180,2529,3295,64,51,824,1694,1810,2025,2175,1970,1745,1808,1922
515244,-27152,5300,-26695,6073,753,1204,635,-492,-423,1035,2298,3253,56,58,824,1694,1810,2025,2175,1970,1745,1808,1922
516245,-27084,5376,-26630,6138,900,1241,664,-522,-463,363,2189,3514,54,50,825,1694,1810,2025,2175,1970,1745,1808,1922
517246,-27016,5456,-26565,6203,897,1172,690,-552,-497,292,2115,3415,60,57,824,1695,1807,2023,2189,1946,1727,1786,1901
518247,-26936,5528,-26500,6268,729,1265,713,-555,-512,575,1912,3543,42,53,824,1695,1807,2023,2189,1946,1727,1786,1901
519248,-26872,5604,-26435,6333,930,1201,731,-566,-528,493,1649,3364,44,48,824,1695,1807,2023,2189,1946,1727,1786,1901
520249,-26792,5664,-26370,6398,712,1407,750,-604,-558,102,1507,3337,50,50,824,1695,1807,2023,2189,1946,1727,1786,1901
521250,-26736,5724,-26305,6463,1023,1415,776,-638,-581,4,1375,3267,58,41,824,1695,1807,2023,2189,1946,1727,1786,1901
522251,-26664,5788,-26240,6528,814,1366,811,-669,-602,145,1264,3226,45,55,821,1695,1807,2023,2189,1946,1727,1786,1901
523252,-26584,5860,-26175,6593,696,1257,843,-696,-614,-4,1072,3298,56,43,823,1747,1840,2080,2255,1959,1712,1764,1923
524253,-26516,5932,-26110,6658,843,1249,870,-705,-619,-13,944,3371,59,53,824,1747,1840,2080,2255,1959,1712,1764,1923
525254,-26452,5996,-26045,6723,894,1351,889,-709,-606,-40,1019,3267,59,58,824,1747,1840,2080,2255,1959,1712,1764,1923
526255,-26368,6060,-25980,6788,621,1352,897,-680,-607,41,1162,3338,52,56,823,1747,1840,2080,2255,1959,1712,1764,1923
527256,-26300,6132,-25915,6853,817,1244,900,-639,-616,44,1221,3398,60,58,824,1747,1840,2080,2255,1959,1712,1764,1923
528257,-26212,6208,-25850,6918,539,1181,898,-623,-614,257,1447,3338,47,60,825,1765,1893,2130,2265,1959,1733,1792,1929
529258,-26148,6272,-25785,6983,841,1332,896,-619,-612,481,1658,3225,59,63,827,1765,1893,2130,2265,1959,1733,1792,1929
530259,-26080,6356,-25720,7048,787,1059,898,-598,-622,399,1813,3396,49,52,822,1765,1893,2130,2265,1959,1733,1792,1929
531260,-26020,6424,-25655,7113,894,1256,896,-608,-644,314,1948,3257,59,53,827,1765,1893,2130,2265,1959,1733,1792,1929
532261,-25924,6520,-25590,7178,406,869,912,-600,-628,620,2111,3284,58,58,824,1765,1893,2130,2265,1959,1733,1792,1929
533264,-25856,6600,-25525,7243,753,1050,920,-602,-597,688,2019,3326,60,60,830,1765,1893,2130,2265,1959,1733,1792,1929
534263,-25768,6684,-25460,7308,474,977,927,-590,-597,478,1906,3402,58,43,827,1741,1853,2067,2212,1993,1765,1826,1947
535264,-25704,6772,-25395,7373,776,899,934,-591,-610,316,2110,3596,42,45,829,1741,1853,2067,2212,1993,1765,1826,1947
536265,-25620,6844,-25330,7438,503,1092,941,-587,-620,426,2065,3746,58,54,828,1741,1853,2067,2212,1993,1765,1826,1947
537266,-25548,6920,-25265,7503,644,1028,945,-584,-612,704,2063,3688,58,48,828,1741,1853,2067,2212,1993,1765,1826,1947
538267,-25492,6996,-25200,7568,855,1015,953,-607,-608,891,1958,3656,48,50,828,1741,1853,2067,2212,1993,1765,1826,1947
539268,-25412,7052,-25135,7633,538,1276,952,-610,-635,593,1821,3833,55,51,826,1672,1777,2000,2146,2024,1789,1831,1963
540269,-25352,7112,-25070,7698,794,1232,979,-596,-670,-44,1680,3886,49,51,826,1672,1777,2000,2146,2024,1789,1831,1963
541270,-25284,7172,-25005,7763,690,1239,1003,-614,-700,382,1671,3624,52,49,825,1672,1777,2000,2146,2024,1789,1831,1963
542271,-25208,7256,-24940,7828,577,916,1040,-674,-691,756,1386,3627,57,54,825,1672,1777,2000,2146,2024,1789,1831,1963
543272,-25148,7308,-24875,7893,783,1332,1062,-721,-667,223,1047,3471,63,48,829,1672,1777,2000,2146,2024,1789,1831,1963
544273,-25068,7368,-24810,7958,514,1238,1070,-760,-651,-480,954,3118,47,57,825,1672,1777,2000,2146,2024,1789,1831,1963
545274,-24984,7444,-24745,8023,441,1024,1089,-778,-630,-327,860,3232,57,50,827,1653,1771,2023,2159,2046,1802,1831,1980
546275,-24904,7508,-24680,8088,473,1177,1113,-838,-586,199,666,3073,59,58,829,1653,1771,2023,2159,2046,1802,1831,1980
547276,-24820,7604,-24615,8153,400,739,1107,-897,-543,412,791,2739,63,44,826,1653,1771,2023,2159,2046,1802,1831,1980
548277,-24748,7664,-24550,8218,541,1195,1077,-883,-477,228,797,3022,55,44,831,1653,1771,2023,2159,2046,1802,1831,1980
549278,-24668,7748,-24485,8283,423,872,1000,-777,-410,381,810,3308,43,53,827,1653,1771,2023,2159,2046,1802,1831,1980
550279,-24580,7816,-24420,8348,296,1069,900,-609,-370,480,945,3502,46,43,830,1720,1854,2100,2228,2000,1756,1810,1953
551280,-24504,7892,-24355,8413,432,955,803,-468,-329,685,1239,3796,51,46,830,1720,1854,2100,2228,2000,1756,1810,1953
552281,-24440,7972,-24290,8478,584,887,689,-361,-299,1010,1410,3594,44,52,829,1720,1854,2100,2228,2000,1756,1810,1953
553282,-24364,8044,-24225,8543,420,979,583,-277,-297,767,1728,3613,39,41,829,1720,1854,2100,2228,2000,1756,1810,1953
554283,-24304,8100,-24160,8608,626,1190,480,-241,-311,528,1868,3527,44,53,829,1720,1854,2100,2228,2000,1756,1810,1953
555284,-24236,8164,-24095,8673,523,1092,391,-230,-347,450,1896,3296,58,51,827,1720,1854,2100,2228,2000,1756,1810,1953
556285,-24164,8232,-24030,8738,464,1038,345,-249,-375,-134,1745,3245,55,54,828,1733,1846,2057,2190,2027,1787,1842,1981
557286,-24088,8300,-23965,8803,401,1035,337,-342,-385,43,1700,2967,57,56,829,1733,1846,2057,2190,2027,1787,1842,1981
558287,-24016,8376,-23900,8868,442,921,366,-509,-406,171,1397,2420,59,56,829,1733,1846,2057,2190,2027,1787,1842,1981
559288,-23944,8428,-23835,8933,434,1237,419,-661,-384,-317,659,2962,46,53,830,1733,1846,2057,2190,2027,1787,1842,1981
560289,-23852,8492,-23770,8998,151,1088,486,-730,-342,-541,620,2712,48,41,827,1733,1846,2057,2190,2027,1787,1842,1981
561290,-23772,8576,-23705,9063,282,816,539,-666,-285,-184,613,3493,61,54,829,1625,1728,1971,2095,2132,1870,1884,2034
562291,-23700,8644,-23640,9128,374,1012,571,-557,-207,659,568,3624,48,53,831,1625,1728,1971,2095,2132,1870,1884,2034
563292,-23628,8704,-23575,9193,365,1118,579,-472,-122,1475,692,3393,58,58,830,1625,1728,1971,2095,2132,1870,1884,2034
564293,-23548,8788,-23510,9258,247,795,583,-371,-69,1031,702,3825,45,48,828,1625,1728,1971,2095,2132,1870,1884,2034
565294,-23464,8872,-23445,9323,174,772,573,-222,-28,287,712,3865,46,57,832,1625,1728,1971,2095,2132,1870,1884,2034
566295,-23396,8956,-23380,9388,370,750,549,-96,19,1162,1368,3439,54,48,832,1625,1728,1971,2095,2132,1870,1884,2034
567296,-23340,9044,-23315,9453,531,672,513,-108,64,1962,1672,2642,41,49,832,1595,1716,1956,2087,2058,1804,1834,1958
568297,-23252,9116,-23250,9518,103,863,446,-196,107,781,1047,2523,56,55,831,1595,1716,1956,2087,2058,1804,1834,1958
569298,-23164,9204,-23185,9583,75,635,350,-232,149,-318,899,2364,46,56,832,1595,1716,1956,2087,2058,1804,1834,1958
570299,-23084,9300,-23120,9648,157,497,248,-228,197,-296,933,2366,55,63,834,1595,1716,1956,2087,2058,1804,1834,1958
571300,-23004,9384,-23055,9713,138,624,135,-188,256,56,914,2280,46,59,834,1595,1716,1956,2087,2058,1804,1834,1958
572301,-22940,9464,-22990,9778,339,656,-8,-185,321,408,727,2296,44,53,834,1681,1799,2033,2189,1969,1737,1785,1903
573302,-22860,9544,-22925,9843,121,638,-156,-182,388,291,574,2514,43,47,833,1681,1799,2033,2189,1969,1737,1785,1903
574303,-22772,9604,-22860,9908,-7,895,-288,-145,440,256,570,2531,50,60,834,1681,1799,2033,2189,1969,1737,1785,1903
575304,-22704,9696,-22795,9973,239,462,-385,-49,472,403,473,3054,41,58,832,1681,1799,2033,2189,1969,1737,1785,1903
576305,-22640,9772,-22730,10038,291,648,-448,91,483,911,281,3197,47,51,834,1681,1799,2033,2189,1969,1737,1785,1903
577306,-22564,9848,-22665,10103,127,635,-476,213,484,1072,306,3204,59,46,833,1681,1799,2033,2189,1969,1737,1785,1903
578307,-22476,9920,-22600,10168,-51,676,-483,335,470,793,255,3139,47,54,834,1685,1792,2015,2132,2028,1782,1823,1980
579308,-22408,9992,-22535,10233,195,668,-475,419,468,957,152,2995,56,44,834,1685,1792,2015,2132,2028,1782,1823,1980
580309,-22344,10060,-22470,10298,247,714,-463,474,466,852,117,2846,52,57,833,1685,1792,2015,2132,2028,1782,1823,1980
581312,-22256,10152,-22405,10363,-81,381,-438,498,481,269,275,2422,56,48,832,1685,1792,2015,2132,2028,1782,1823,1980
582311,-22184,10248,-22340,10428,110,293,-416,558,510,-65,435,2543,38,46,834,1685,1792,2015,2132,2028,1782,1823,1980
583312,-22120,10328,-22275,10493,211,475,-399,609,538,-40,732,2156,38,45,835,1596,1706,1948,2066,2127,1863,1879,2013
584313,-22052,10408,-22210,10558,158,458,-407,583,564,-179,918,1938,44,42,835,1596,1706,1948,2066,2127,1863,1879,2013
585314,-21956,10488,-22145,10623,-230,439,-420,511,599,50,1235,1941,48,55,835,1596,1706,1948,2066,2127,1863,1879,2013
586315,-21836,10560,-22080,10688,-598,531,-454,424,656,30,1096,1794,50,50,824,1596,1706,1948,2066,2127,1863,1879,2013
587316,-21764,10636,-22015,10753,-7,467,-484,336,736,370,1101,1527,42,52,835,1596,1706,1948,2066,2127,1863,1879,2013
588317,-21672,10708,-21950,10818,-290,509,-502,244,787,292,1288,1126,36,45,835,1596,1706,1948,2066,2127,1863,1879,2013
589318,-21624,10776,-21885,10883,281,555,-535,241,844,-214,800,1563,36,50,834,1577,1691,1924,2080,2004,1791,1823,1920
590319,-21556,10852,-21820,10948,27,442,-585,314,903,768,826,1945,44,39,835,1577,1691,1924,2080,2004,1791,1823,1920
591320,-21484,10924,-21755,11013,-31,483,-661,443,993,1394,747,2037,37,38,835,1577,1691,1924,2080,2004,1791,1823,1920
592321,-21416,11012,-21690,11078,15,255,-766,614,1056,2000,724,2493,51,53,835,1577,1691,1924,2080,2004,1791,1823,1920
593322,-21352,11068,-21625,11143,66,666,-881,799,1104,1780,396,2714,39,38,836,1577,1691,1924,2080,2004,1791,1823,1920
594323,-21304,11136,-21560,11208,287,512,-1006,982,1138,1673,339,2845,36,52,834,1619,1731,1939,2082,1889,1667,1720,1835
595324,-21280,11216,-21495,11273,637,344,-1131,1114,1170,1507,110,2630,50,53,834,1619,1731,1939,2082,1889,1667,1720,1835
596325,-21216,11276,-21430,11338,137,600,-1232,1222,1177,1243,50,2749,44,54,833,1619,1731,1939,2082,1889,1667,1720,1835
597326,-21128,11364,-21365,11403,-191,222,-1296,1282,1160,1084,-157,2619,57,44,834,1619,1731,1939,2082,1889,1667,1720,1835
598327,-21012,11416,-21300,11468,-603,688,-1341,1333,1114,384,-194,2692,39,50,826,1619,1731,1939,2082,1889,1667,1720,1835
599328,-20936,11500,-21235,11533,-116,265,-1392,1322,1084,-238,-156,2099,53,49,831,1619,1731,1939,2082,1889,1667,1720,1835
600329,-20880,11588,-21170,11598,144,187,-1406,1224,1022,101,425,1545,43,48,835,1622,1727,1958,2086,1958,1733,1743,1885
601330,-20816,11680,-21105,11663,46,104,-1372,1044,968,-115,201,1174,48,56,837,1622,1727,1958,2086,1958,1733,1743,1885
602331,-20740,11756,-21040,11728,-118,290,-1317,949,942,-189,34,1521,56,60,837,1622,1727,1958,2086,1958,1733,1743,1885
603332,-20688,11856,-20975,11793,198,-52,-1298,982,959,-552,62,1460,55,46,832,1622,1727,1958,2086,1958,1733,1743,1885
604333,-20616,11948,-20910,11858,-60,15,-1312,1066,957,-341,464,1376,38,45,836,1622,1727,1958,2086,1958,1733,1743,1885
605334,-20532,12028,-20845,11923,-235,146,-1344,1245,976,275,632,2427,39,58,836,1607,1729,1975,2111,2090,1823,1859,1995
606335,-20476,12100,-20780,11988,126,238,-1423,1415,1056,1083,657,1993,48,56,833,1607,1729,1975,2111,2090,1823,1859,1995
607336,-20404,12180,-20715,12053,-82,119,-1519,1586,1156,1361,1006,2278,47,45,836,1607,1729,1975,2111,2090,1823,1859,1995
608337,-20340,12260,-20650,12118,19,101,-1628,1738,1251,1255,1040,2147,44,45,835,1607,1729,1975,2111,2090,1823,1859,1995
609338,-20252,12352,-20585,12183,-309,-82,-1730,1906,1324,1549,1115,2700,36,48,836,1607,1729,1975,2111,2090,1823,1859,1995
610339,-20224,12428,-20520,12248,486,105,-1815,2092,1379,1833,1067,2819,52,57,835,1607,1729,1975,2111,2090,1823,1859,1995
611340,-20140,12504,-20455,12313,-237,91,-1888,2207,1415,1699,990,2655,40,48,837,1609,1728,1940,2096,2048,1808,1848,1946
612341,-20080,12588,-20390,12378,69,-32,-1944,2302,1431,1458,886,3097,52,41,826,1609,1728,1940,2096,2048,1808,1848,1946
613342,-20000,12680,-20325,12443,-200,-166,-2006,2390,1451,1432,837,2753,52,56,837,1609,1728,1940,2096,2048,1808,1848,1946
614343,-19936,12832,-20260,12508,1,-1022,-2052,2506,1464,922,521,2914,37,55,828,1609,1728,1940,2096,2048,1808,1848,1946
615344,-19864,12952,-20195,12573,-108,-689,-2098,2574,1395,1326,276,2605,42,51,828,1609,1728,1940,2096,2048,1808,1848,1946
616345,-19816,13004,-20130,12638,213,177,-2117,2557,1340,795,114,2881,35,44,828,1571,1645,1908,2064,2036,1791,1783,1913
617346,-19748,13068,-20065,12703,-40,28,-2146,2522,1291,517,263,2704,34,42,835,1571,1645,1908,2064,2036,1791,1783,1913
618347,-19676,13168,-20000,12768,-99,-465,-2189,2537,1250,25,-76,2898,38,39,837,1571,1645,1908,2064,2036,1791,1783,1913
619348,-19600,13256,-19935,12833,-162,-343,-2264,2578,1204,791,38,2520,42,29,833,1571,1645,1908,2064,2036,1791,1783,1913
620349,-19524,13316,-19870,12898,-176,12,-2338,2602,1157,755,-144,2399,39,30,829,1571,1645,1908,2064,2036,1791,1783,1913
621350,-19472,13364,-19805,12963,139,183,-2404,2670,1105,109,19,2727,50,27,828,1571,1645,1908,2064,2036,1791,1783,1913
622351,-19416,13404,-19740,13028,100,314,-2485,2729,1077,75,84,2189,42,33,835,1580,1684,1964,2110,2040,1804,1795,1928
623352,-19340,13460,-19675,13093,-163,125,-2561,2761,1092,589,-36,1959,49,33,835,1580,1684,1964,2110,2040,1804,1795,1928
624353,-19276,13500,-19610,13158,-12,355,-2636,2834,1139,1109,-68,2110,46,42,830,1580,1684,1964,2110,2040,1804,1795,1928
625354,-19208,13552,-19545,13223,-66,221,-2705,3003,1164,1310,230,2331,39,34,835,1580,1684,1964,2110,2040,1804,1795,1928
626355,-19144,13604,-19480,13288,-15,237,-2773,3219,1237,700,314,2492,32,29,835,1580,1684,1964,2110,2040,1804,1795,1928
627356,-19092,13652,-19415,13353,151,307,-2837,3327,1354,781,772,2827,40,33,836,1640,1772,2008,2127,2022,1800,1848,1976
628357,-19036,13700,-19350,13418,112,327,-2882,3368,1429,568,655,3567,31,42,836,1640,1772,2008,2127,2022,1800,1848,1976
629358,-18964,13756,-19285,13483,-97,238,-2879,3291,1499,-100,491,3813,38,33,836,1640,1772,2008,2127,2022,1800,1848,1976
630359,-18920,13824,-19220,13548,278,85,-2787,3015,1563,-241,518,4343,50,45,833,1640,1772,2008,2127,2022,1800,1848,1976
631360,-18840,13892,-19155,13613,-190,81,-2662,2589,1597,-187,597,4893,35,34,835,1640,1772,2008,2127,2022,1800,1848,1976
632361,-18780,13952,-19090,13678,66,187,-2528,2150,1603,-364,620,4992,45,47,827,1640,1772,2008,2127,2022,1800,1848,1976
633362,-18724,14004,-19025,13743,127,303,-2412,1754,1614,-462,871,5580,52,45,835,1639,1768,1972,2128,2022,1781,1853,1975
634363,-18664,14088,-18960,13808,83,-120,-2323,1483,1594,-190,1111,5724,48,41,835,1639,1768,1972,2128,2022,1781,1853,1975
635364,-18600,14144,-18895,13873,34,241,-2247,1333,1570,345,692,6036,34,44,836,1639,1768,1972,2128,2022,1781,1853,1975
636365,-18524,14204,-18830,13938,-129,196,-2161,1196,1534,1058,839,6291,34,42,836,1639,1768,1972,2128,2022,1781,1853,1975
637366,-18464,14288,-18765,14003,76,-127,-2061,987,1477,1212,801,5896,35,46,832,1639,1768,1972,2128,2022,1781,1853,1975
638367,-18428,14376,-18700,14068,411,-205,-1964,740,1409,1158,330,5937,46,45,836,1815,1974,2162,2343,2010,1756,1904,2059
639368,-18360,14440,-18635,14133,8,96,-1897,530,1332,1335,329,5486,44,44,835,1815,1974,2162,2343,2010,1756,1904,2059
640369,-18292,14504,-18570,14198,4,97,-1863,359,1304,1487,-71,5298,34,40,837,1815,1974,2162,2343,2010,1756,1904,2059
641370,-18220,14588,-18505,14263,-54,-176,-1864,255,1289,1475,-264,5351,45,45,837,1815,1974,2162,2343,2010,1756,1904,2059
642371,-18152,14660,-18440,14328,-8,-35,-1872,158,1280,927,-332,5180,46,39,836,1815,1974,2162,2343,2010,1756,1904,2059
643372,-18116,14720,-18375,14393,427,121,-1872,-19,1282,62,-564,5006,48,36,837,1815,1974,2162,2343,2010,1756,1904,2059
644373,-18048,14804,-18310,14458,24,-202,-1830,-273,1319,-821,-955,5223,47,45,836,2228,2420,2540,2715,2016,1768,1949,2118
645374,-17992,14884,-18245,14523,185,-171,-1761,-559,1368,-1169,-988,5525,44,37,837,2228,2420,2540,2715,2016,1768,1949,2118
646375,-17920,14952,-18180,14588,-24,-25,-1695,-868,1443,-1597,-1290,5537,38,42,836,2228,2420,2540,2715,2016,1768,1949,2118
647376,-17856,15032,-18115,14653,76,-193,-1614,-1154,1511,-1630,-1214,6347,46,39,837,2228,2420,2540,2715,2016,1768,1949,2118
648377,-17768,15108,-18050,14718,-252,-157,-1513,-1399,1586,-2030,-1241,6369,37,46,836,2228,2420,2540,2715,2016,1768,1949,2118
649378,-17724,15180,-17985,14783,324,-115,-1390,-1619,1658,-1995,-1004,7208,35,43,825,2256,2419,2511,2665,2031,1796,1935,2061
650379,-17632,15252,-17920,14848,-309,-124,-1261,-1787,1695,-1865,-741,7334,49,31,836,2256,2419,2511,2665,2031,1796,1935,2061
651380,-17576,15332,-17855,14913,152,-243,-1162,-1963,1732,-1535,-926,7221,50,46,832,2256,2419,2511,2665,2031,1796,1935,2061
652381,-17492,15384,-17790,14978,-221,123,-1057,-2080,1711,-716,-611,7701,36,43,837,2256,2419,2511,2665,2031,1796,1935,2061
653382,-17428,15448,-17725,15043,30,-26,-969,-2162,1664,-657,-644,7198,35,39,828,2256,2419,2511,2665,2031,1796,1935,2061
654383,-17356,15504,-17660,15108,-79,85,-913,-2174,1599,-128,-508,7141,45,37,834,2256,2419,2511,2665,2031,1796,1935,2061
655384,-17264,15568,-17595,15173,-362,-14,-897,-2092,1508,306,-332,6859,39,33,835,1959,2067,2214,2410,2040,1832,1906,1986
656385,-17192,15640,-17530,15238,-121,-122,-928,-1986,1410,442,-451,6517,38,34,833,1959,2067,2214,2410,2040,1832,1906,1986
657386,-17132,15684,-17465,15303,35,253,-968,-1857,1309,708,-367,6048,40,34,837,1959,2067,2214,2410,2040,1832,1906,1986
658387,-17064,15752,-17400,15368,-69,-51,-1015,-1785,1227,788,-426,5972,37,36,837,1959,2067,2214,2410,2040,1832,1906,1986
659388,-16992,15820,-17335,15433,-127,-55,-1040,-1742,1151,65,-801,5405,38,35,836,1959,2067,2214,2410,2040,1832,1906,1986
660389,-16920,15884,-17270,15498,-136,-4,-1041,-1692,1094,-121,-1012,5684,42,33,833,1813,1877,2067,2333,2129,1951,1980,2049
661390,-16848,15944,-17205,15563,-144,52,-1015,-1648,1062,-305,-969,5124,43,44,831,1813,1877,2067,2333,2129,1951,1980,2049
662391,-16776,15996,-17140,15628,-153,168,-962,-1594,1053,-1057,-1441,5299,41,37,830,1813,1877,2067,2333,2129,1951,1980,2049
663392,-16716,16068,-17075,15693,2,-90,-869,-1508,1089,-1011,-1947,5685,45,34,829,1813,1877,2067,2333,2129,1951,1980,2049
664393,-16632,16116,-17010,15758,-321,230,-741,-1371,1160,-642,-2029,5752,49,42,835,1813,1877,2067,2333,2129,1951,1980,2049
665394,-16560,16160,-16945,15823,-179,305,-599,-1215,1251,-908,-2220,5555,38,45,833,1813,1877,2067,2333,2129,1951,1980,2049
666395,-16480,16204,-16880,15888,-298,331,-470,-1042,1320,-1222,-2357,5837,39,30,834,1717,1802,2084,2308,2182,1987,1972,2043
667396,-16412,16256,-16815,15953,-151,247,-384,-915,1366,-1285,-2230,5283,40,42,836,1717,1802,2084,2308,2182,1987,1972,2043
668397,-16360,16292,-16750,16018,64,482,-346,-797,1397,-1191,-2133,5007,49,45,836,1717,1802,2084,2308,2182,1987,1972,2043
669398,-16272,16336,-16685,16083,-414,408,-376,-668,1437,-786,-1807,4732,39,49,834,1717,1802,2084,2308,2182,1987,1972,2043
670399,-16212,16336,-16620,16148,-59,1037,-446,-506,1480,-799,-1387,4548,44,52,832,1717,1802,2084,2308,2182,1987,1972,2043
671400,-16136,16324,-16555,16213,-272,1281,-550,-300,1492,-955,-940,4712,48,52,833,1782,1896,2170,2432,2014,1824,1860,1897
672401,-16060,16416,-16490,16278,-285,-52,-688,-115,1471,-642,-658,4054,38,43,826,1782,1896,2170,2432,2014,1824,1860,1897
673402,-16004,16492,-16425,16343,-24,135,-828,102,1400,377,-571,4052,34,45,835,1782,1896,2170,2432,2014,1824,1860,1897
674403,-15940,16576,-16360,16408,-123,11,-947,341,1290,1061,-651,4020,44,48,837,1782,1896,2170,2432,2014,1824,1860,1897
675404,-15868,16656,-16295,16473,-232,42,-1028,616,1170,608,-956,4713,46,62,837,1782,1896,2170,2432,2014,1824,1860,1897
676405,-15836,16752,-16230,16538,308,-196,-1074,843,1047,754,-988,4361,51,60,827,1782,1896,2170,2432,2014,1824,1860,1897
677406,-15772,16844,-16165,16603,-91,-179,-1079,958,934,851,-1241,4233,47,49,836,1893,1966,2163,2418,1926,1737,1812,1865
678407,-15712,16920,-16100,16668,-35,8,-1053,1020,824,582,-1401,4461,34,42,834,1893,1966,2163,2418,1926,1737,1812,1865
679408,-15648,17004,-16035,16733,-84,-115,-1008,1075,744,448,-1534,4865,40,45,836,1893,1966,2163,2418,1926,1737,1812,1865
680409,-15600,17096,-15970,16798,137,-248,-928,1073,682,564,-1474,4659,39,54,835,1893,1966,2163,2418,1926,1737,1812,1865
681410,-15552,17172,-15905,16863,158,-62,-832,1007,673,583,-1934,4421,34,48,835,1893,1966,2163,2418,1926,1737,1812,1865
682411,-15504,17264,-15840,16928,178,-295,-712,905,702,655,-1918,4557,30,37,836,1753,1821,2027,2238,2004,1812,1864,1946
683412,-15464,17308,-15775,16993,308,331,-591,800,761,121,-2000,4145,40,46,834,1753,1821,2027,2238,2004,1812,1864,1946
684413,-15420,17384,-15710,17058,283,-82,-480,725,810,147,-2067,4299,41,50,835,1753,1821,2027,2238,2004,1812,1864,1946
685414,-15380,17440,-15645,17123,364,178,-384,705,891,572,-2134,3775,24,36,836,1753,1821,2027,2238,2004,1812,1864,1946
686415,-15348,17524,-15580,17188,504,-196,-288,667,975,1046,-2066,3645,40,36,835,1753,1821,2027,2238,2004,1812,1864,1946
687416,-15296,17572,-15515,17253,270,275,-211,652,1063,722,-1634,3601,28,34,834,1753,1821,2027,2238,2004,1812,1864,1946
688417,-15256,17640,-15450,17318,451,21,-155,655,1134,883,-1471,3270,22,42,835,1686,1809,2027,2230,2030,1819,1895,1982
689418,-15224,17704,-15385,17383,591,73,-129,702,1180,1115,-1356,3351,26,39,835,1686,1809,2027,2230,2030,1819,1895,1982
690419,-15180,17748,-15320,17448,467,348,-140,698,1210,920,-1018,2738,40,41,834,1686,1809,2027,2230,2030,1819,1895,1982
691420,-15116,17820,-15255,17513,218,-10,-149,731,1213,709,-757,2988,43,45,834,1686,1809,2027,2230,2030,1819,1895,1982
692421,-15100,17872,-15190,17578,878,256,-188,769,1217,-18,-451,2867,30,45,835,1686,1809,2027,2230,2030,1819,1895,1982
693422,-15044,17936,-15125,17643,389,106,-258,764,1158,-42,237,2378,36,41,833,1812,1950,2120,2340,1940,1716,1825,1897
694423,-14980,18000,-15060,17708,290,107,-390,458,1100,-434,-213,973,31,31,834,1812,1950,2120,2340,1940,1716,1825,1897
695424,-14936,18048,-14995,17773,565,328,-466,208,1005,-1425,-362,1862,32,31,836,1812,1950,2120,2340,1940,1716,1825,1897
696425,-14876,18096,-14930,17838,371,349,-509,126,879,-503,-1119,3045,47,29,834,1812,1950,2120,2340,1940,1716,1825,1897
697426,-14828,18148,-14865,17903,541,314,-533,-67,734,1761,-1300,2108,33,38,834,1812,1950,2120,2340,1940,1716,1825,1897
698427,-14764,18224,-14800,17968,343,1,-554,-315,592,783,-1104,1762,46,29,833,1812,1950,2120,2340,1940,1716,1825,1897
699428,-14708,18268,-14735,18033,454,427,-508,-333,447,-377,-1572,3765,44,32,835,1843,1941,2100,2266,1899,1673,1762,1881
700429,-14652,18312,-14670,18098,465,452,-446,-318,371,570,-2112,3979,30,29,833,1843,1941,2100,2266,1899,1673,1762,1881
701430,-14584,18376,-14605,18163,311,203,-354,-307,337,1590,-2149,3816,34,30,833,1843,1941,2100,2266,1899,1673,1762,1881
702431,-14532,18412,-14540,18228,527,589,-243,-241,321,1403,-2463,4075,47,36,834,1843,1941,2100,2266,1899,1673,1762,1881
703432,-14468,18460,-14475,18293,378,459,-112,-198,336,1056,-2384,4712,40,43,834,1843,1941,2100,2266,1899,1673,1762,1881
704433,-14396,18548,-14276,18492,433,94,0,-218,401,880,-2159,3960,43,36,833,1682,1793,1976,2100,1942,1720,1800,1924
705434,-14348,18592,-14211,18557,754,670,81,-222,485,716,-1968,3954,41,43,834,1682,1793,1976,2100,1942,1720,1800,1924
706435,-14260,18648,-14146,18622,226,531,105,-248,566,565,-1495,3734,51,34,832,1682,1793,1976,2100,1942,1720,1800,1924
707436,-14200,18716,-14081,18687,583,377,96,-314,655,451,-1081,3323,40,44,832,1682,1793,1976,2100,1942,1720,1800,1924
708437,-14132,18764,-14016,18752,479,648,71,-422,747,267,-747,2947,54,46,833,1682,1793,1976,2100,1942,1720,1800,1924
709438,-14056,18828,-13951,18817,366,449,19,-577,828,-300,-493,2517,53,40,832,1682,1793,1976,2100,1942,1720,1800,1924
710439,-14004,18888,-13886,18882,682,505,-37,-715,862,-210,-178,2742,55,40,833,1673,1806,1998,2219,1984,1794,1890,1949
711440,-13932,18972,-13821,18947,423,182,-84,-791,865,195,-120,2941,46,51,833,1673,1806,1998,2219,1984,1794,1890,1949
712441,-13852,19012,-13756,19012,305,763,-99,-814,849,229,-332,3169,42,49,833,1673,1806,1998,2219,1984,1794,1890,1949
713442,-13788,19068,-13691,19077,506,573,-93,-800,798,188,-544,3485,49,45,834,1673,1806,1998,2219,1984,1794,1890,1949
714443,-13724,19148,-13626,19142,507,255,-69,-787,700,605,-745,3501,44,52,832,1673,1806,1998,2219,1984,1794,1890,1949
715444,-13660,19216,-13561,19207,508,402,-24,-737,586,854,-1091,3921,43,45,833,1787,1895,2098,2358,2054,1848,1916,1982
716445,-13612,19288,-13496,19272,729,343,25,-686,466,904,-1425,4136,39,46,833,1787,1895,2098,2358,2054,1848,1916,1982
717446,-13544,19360,-13431,19337,475,334,87,-645,342,571,-1731,4309,43,41,832,1787,1895,2098,2358,2054,1848,1916,1982
718447,-13452,19444,-13366,19402,142,161,121,-586,220,658,-2053,4386,46,49,833,1787,1895,2098,2358,2054,1848,1916,1982
719448,-13404,19520,-13301,19467,713,248,169,-487,120,1225,-2237,4673,57,37,835,1787,1895,2098,2358,2054,1848,1916,1982
720449,-13324,19576,-13236,19532,295,509,215,-379,46,1062,-2351,4885,45,47,834,1787,1895,2098,2358,2054,1848,1916,1982
721450,-13284,19668,-13171,19597,825,26,243,-265,9,650,-2439,5181,44,49,833,1815,1907,2142,2353,2024,1803,1846,1937
722451,-13224,19728,-13106,19662,582,432,272,-124,-18,670,-2422,5413,48,38,833,1815,1907,2142,2353,2024,1803,1846,1937
723452,-13144,19804,-13041,19727,313,219,283,4,5,585,-2504,5239,45,42,832,1815,1907,2142,2353,2024,1803,1846,1937
724453,-13084,19888,-12976,19792,569,95,292,131,46,595,-2188,5595,51,41,834,1815,1907,2142,2353,2024,1803,1846,1937
725454,-13020,19928,-12911,19857,521,676,281,226,104,441,-1975,5089,51,47,835,1815,1907,2142,2353,2024,1803,1846,1937
726455,-12960,20004,-12846,19922,577,212,260,312,157,303,-1734,5098,41,35,833,1805,1911,2135,2359,1959,1767,1839,1905
727456,-12912,20064,-12781,19987,747,419,235,380,209,237,-1356,4711,53,45,833,1805,1911,2135,2359,1959,1767,1839,1905
728457,-12840,20124,-12716,20052,439,425,202,411,265,229,-1211,4493,41,39,832,1805,1911,2135,2359,1959,1767,1839,1905
729458,-12784,20180,-12651,20117,650,486,190,440,295,397,-847,4759,42,32,832,1805,1911,2135,2359,1959,1767,1839,1905
730459,-12724,20248,-12586,20182,606,332,190,450,310,428,-725,4253,46,49,833,1805,1911,2135,2359,1959,1767,1839,1905
731460,-12656,20296,-12521,20247,502,603,211,456,306,669,-609,4599,37,36,832,1805,1911,2135,2359,1959,1767,1839,1905
732461,-12592,20368,-12456,20312,555,294,253,458,282,685,-521,4490,34,41,832,1814,1920,2125,2389,2023,1842,1924,1977
733462,-12532,20420,-12391,20377,611,560,326,451,241,756,-489,4743,47,44,833,1814,1920,2125,2389,2023,1842,1924,1977
734463,-12468,20488,-12326,20442,562,356,411,437,188,861,-579,4772,45,36,831,1814,1920,2125,2389,2023,1842,1924,1977
735464,-12416,20556,-12261,20507,728,353,496,448,109,1080,-666,4741,38,37,832,1814,1920,2125,2389,2023,1842,1924,1977
736465,-12360,20616,-12196,20572,689,459,585,469,4,1231,-871,4531,48,37,832,1814,1920,2125,2389,2023,1842,1924,1977
737466,-12300,20680,-12131,20637,645,410,658,430,-73,1442,-1242,4077,43,46,832,1793,1888,2103,2342,2096,1875,1934,2016
738467,-12240,20748,-12066,20702,651,356,743,459,-128,1524,-1181,4739,35,35,832,1793,1888,2103,2342,2096,1875,1934,2016
739468,-12172,20824,-12001,20767,547,243,785,482,-180,1039,-1363,4014,44,48,832,1793,1888,2103,2342,2096,1875,1934,2016
740469,-12120,20872,-11936,20832,763,614,819,536,-237,1416,-1541,4551,50,39,833,1793,1888,2103,2342,2096,1875,1934,2016
741470,-12048,20948,-11871,20897,505,250,831,580,-277,1291,-1528,4213,41,47,832,1793,1888,2103,2342,2096,1875,1934,2016
742471,-11992,21004,-11806,20962,716,511,842,607,-293,969,-1588,4185,39,36,832,1804,1916,2134,2326,2010,1875,1934,2016
743472,-11944,21072,-11741,21027,836,358,847,588,-270,605,-1473,4285,46,37,832,1804,1916,2134,2326,2010,1778,1844,1944
744473,-11864,21148,-11676,21092,418,244,847,588,-234,276,-1326,4192,37,40,831,1804,1916,2134,2326,2010,1778,1844,1944
745474,-11824,21212,-11611,21157,949,395,824,594,-190,127,-1358,4264,34,44,832,1804,1916,2134,2326,2010,1778,1844,1944
746475,-11752,21272,-11546,21222,540,451,802,595,-137,83,-1245,4159,39,36,832,1804,1916,2134,2326,2010,1778,1844,1944
747476,-11684,21336,-11481,21287,586,403,781,567,-71,-122,-1060,4002,37,39,831,1804,1916,2134,2326,2010,1778,1844,1944
748477,-11632,21388,-11416,21352,803,569,767,504,-19,-42,-801,3857,48,35,832,1814,1942,2132,2317,1917,1708,1797,1892
749478,-11584,21444,-11351,21417,874,530,757,444,15,-47,-654,3760,51,41,833,1814,1942,2132,2317,1917,1708,1797,1892
750479,-11512,21508,-11286,21482,565,431,747,404,26,150,-437,3753,37,47,830,1814,1942,2132,2317,1917,1708,1797,1892
751480,-11444,21560,-11221,21547,612,596,745,385,24,456,-277,3688,48,34,828,1814,1942,2132,2317,1917,1708,1797,1892
752481,-11380,21604,-11156,21612,663,721,759,365,3,673,-114,3633,40,41,832,1814,1942,2132,2317,1917,1708,1797,1892
753482,-11324,21684,-11091,21677,774,253,776,338,-33,667,-32,3653,47,39,831,1785,1897,2082,2273,1974,1766,1851,1947
754483,-11264,21744,-11026,21742,730,509,814,320,-87,830,111,3625,58,34,830,1785,1897,2082,2273,1974,1766,1851,1947
755484,-11176,21816,-10961,21807,352,351,872,276,-129,815,121,3675,49,44,832,1785,1897,2082,2273,1974,1766,1851,1947
756485,-11116,21872,-10896,21872,708,562,943,224,-173,841,112,3679,36,31,830,1785,1897,2082,2273,1974,1766,1851,1947
757486,-11048,21936,-10831,21937,604,463,998,188,-221,886,17,3609,40,45,834,1785,1897,2082,2273,1974,1766,1851,1947
758489,-10964,21996,-10766,22002,381,519,1057,177,-265,945,-63,3712,38,38,830,1785,1897,2082,2273,1974,1766,1851,1947
759488,-10904,22056,-10701,22067,687,525,1111,143,-291,966,-96,3421,45,42,832,1734,1829,2044,2235,2056,1834,1886,1988
760489,-10836,22108,-10636,22132,585,641,1171,94,-293,906,-174,3379,55,48,833,1734,1829,2044,2235,2056,1834,1886,1988
761490,-10776,22180,-10571,22197,691,382,1218,66,-263,670,-392,3626,47,37,831,1734,1829,2044,2235,2056,1834,1886,1988
762491,-10712,22224,-10506,22262,642,758,1265,83,-230,536,-403,3702,38,37,831,1734,1829,2044,2235,2056,1834,1886,1988
763492,-10644,22284,-10441,22327,588,564,1282,111,-211,583,-261,3480,52,39,832,1734,1829,2044,2235,2056,1834,1886,1988
764493,-10572,22356,-10376,22392,530,406,1278,117,-167,352,-496,3384,38,45,829,1736,1841,2075,2263,2020,1798,1846,1942
765494,-10520,22440,-10311,22457,796,233,1260,122,-107,212,-452,3334,44,47,832,1736,1841,2075,2263,2020,1798,1846,1942
766495,-10464,22484,-10246,22522,757,759,1234,124,-43,106,-277,3213,40,46,833,1736,1841,2075,2263,2020,1798,1846,1942
767496,-10392,22556,-10181,22587,548,400,1198,136,3,-57,0,3443,51,36,832,1736,1841,2075,2263,2020,1798,1846,1942
768497,-10324,22612,-10116,22652,594,611,1163,144,42,-268,-71,3350,39,35,828,1736,1841,2075,2263,2020,1798,1846,1942
769498,-10268,22692,-10051,22717,755,293,1129,166,81,-296,-41,3690,42,42,832,1736,1841,2075,2263,2020,1798,1846,1942
770499,-10216,22752,-9986,22782,821,549,1109,166,94,-254,85,3536,52,34,831,1767,1885,2108,2303,1950,1731,1787,1888
771500,-10156,22800,-9921,22847,727,720,1093,165,91,-106,218,3653,36,35,832,1767,1885,2108,2303,1950,1731,1787,1888
772501,-10096,22880,-9856,22912,733,302,1097,166,82,129,267,3714,54,39,830,1767,1885,2108,2303,1950,1731,1787,1888
773502,-10044,22940,-9791,22977,850,558,1105,194,58,301,294,3972,49,47,829,1767,1885,2108,2303,1950,1731,1787,1888
774503,-9968,23004,-9726,23042,537,509,1123,278,2,568,583,3933,36,48,832,1767,1885,2108,2303,1950,1731,1787,1888
775504,-9916,23068,-9661,23107,853,510,1136,343,-33,715,575,3767,49,29,830,1760,1860,2079,2257,1975,1762,1823,1932
776505,-9852,23136,-9596,23172,704,456,1162,381,-55,793,572,3871,38,37,832,1760,1860,2079,2257,1975,1762,1823,1932
777506,-9784,23212,-9531,23237,650,343,1201,405,-81,822,387,4038,39,45,830,1760,1860,2079,2257,1975,1762,1823,1932
778507,-9728,23272,-9466,23302,811,549,1269,470,-114,522,517,4312,45,33,831,1760,1860,2079,2257,1975,1762,1823,1932
779508,-9668,23328,-9401,23367,767,610,1332,527,-160,701,499,4271,46,45,832,1760,1860,2079,2257,1975,1762,1823,1932
780509,-9604,23388,-9336,23432,719,566,1344,504,-177,1460,559,3631,54,47,830,1760,1860,2079,2257,1975,1762,1823,1932
781510,-9556,23448,-9271,23497,939,572,1326,417,-164,831,1026,3093,55,41,830,1739,1835,2071,2263,2039,1831,1874,1975
782511,-9484,23520,-9206,23562,631,414,1313,393,-143,-327,708,4038,56,47,830,1739,1835,2071,2263,2039,1831,1874,1975
783512,-9420,23564,-9141,23627,732,789,1262,348,-95,-284,622,3501,55,32,829,1739,1835,2071,2263,2039,1831,1874,1975
784513,-9356,23620,-9076,23692,734,650,1229,350,-52,249,845,3501,56,31,832,1739,1835,2071,2263,2039,1831,1874,1975
785514,-9280,23656,-9011,23757,571,936,1213,332,8,53,562,3634,54,47,827,1739,1835,2071,2263,2039,1831,1874,1975
786515,-9232,23760,-8946,23822,942,38,1198,296,63,-194,594,3680,46,46,829,1759,1863,2112,2305,2072,1861,1895,2008
787516,-9160,23792,-8881,23887,633,978,1182,289,111,-76,650,3761,44,49,828,1759,1863,2112,2305,2072,1861,1895,2008
788517,-9112,23860,-8816,23952,954,525,1151,271,141,-83,536,3565,52,47,831,1759,1863,2112,2305,2072,1861,1895,2008
789518,-9056,23936,-8751,24017,865,411,1131,283,162,-288,439,3956,45,43,828,1759,1863,2112,2305,2072,1861,1895,2008
790519,-8996,24004,-8686,24082,821,508,1107,279,167,154,433,3802,52,41,829,1759,1863,2112,2305,2072,1861,1895,2008
791520,-8936,24068,-8621,24147,827,559,1097,271,154,414,689,4067,36,47,830,1759,1863,2112,2305,2072,1861,1895,2008
792521,-8884,24132,-8556,24212,943,560,1081,287,132,-27,697,4258,37,45,830,1751,1867,2115,2264,2078,1842,1876,2014
793522,-8804,24188,-8491,24277,576,671,1065,338,83,91,808,4622,49,42,830,1751,1867,2115,2264,2078,1842,1876,2014
794523,-8764,24244,-8426,24342,1106,682,1050,349,43,235,918,4314,47,36,829,1751,1867,2115,2264,2078,1842,1876,2014
795524,-8692,24304,-8361,24407,698,638,1033,341,1,173,914,4473,35,38,831,1751,1867,2115,2264,2078,1842,1876,2014
796525,-8652,24372,-8296,24472,1128,535,1014,357,-43,-21,882,4453,38,46,826,1751,1867,2115,2264,2078,1842,1876,2014
797526,-8596,24452,-8231,24537,939,366,1000,405,-71,365,1043,4401,47,48,830,1722,1837,2079,2215,2070,1826,1868,2007
798527,-8520,24508,-8166,24602,676,677,972,470,-111,434,1227,4279,45,38,827,1722,1837,2079,2215,2070,1826,1868,2007
799528,-8464,24572,-8101,24667,937,578,931,494,-161,-51,1167,4047,39,32,830,1722,1837,2079,2215,2070,1826,1868,2007
800529,-8412,24656,-8036,24732,1002,305,891,461,-200,-338,1311,4065,44,35,830,1722,1837,2079,2215,2070,1826,1868,2007
801530,-8332,24712,-7971,24797,635,666,824,370,-217,-432,1231,3732,57,43,828,1722,1837,2079,2215,2070,1826,1868,2007
802531,-8276,24776,-7906,24862,946,567,772,324,-218,-92,1209,3972,56,38,828,1722,1837,2079,2215,2070,1826,1868,2007
803532,-8204,24836,-7841,24927,738,624,748,302,-181,-103,1119,3776,55,49,829,1734,1849,2095,2262,2083,1863,1899,2023
804533,-8160,24900,-7776,24992,1113,575,737,306,-137,-236,1016,3858,39,40,828,1734,1849,2095,2262,2083,1863,1899,2023
805534,-8100,24952,-7711,25057,919,741,724,318,-81,16,740,3703,39,49,830,1734,1849,2095,2262,2083,1863,1899,2023
806536,-8048,25008,-7646,25122,1035,702,702,304,-7,339,748,3762,36,38,827,1734,1849,2095,2262,2083,1863,1899,2023
807536,-7980,25072,-7581,25187,832,603,686,294,51,146,960,3687,45,35,828,1734,1849,2095,2262,2083,1863,1899,2023
808537,-7940,25132,-7516,25252,1213,659,660,293,81,-54,882,3691,41,46,826,1743,1839,2095,2283,2091,1876,1896,2003
809538,-7868,25192,-7451,25317,805,666,651,268,104,-99,929,3773,37,45,829,1743,1839,2095,2283,2091,1876,1896,2003
810539,-7820,25244,-7386,25382,1125,782,639,228,117,-80,1008,3841,52,33,826,1743,1839,2095,2283,2091,1876,1896,2003
811540,-7756,25324,-7321,25447,927,414,623,235,110,197,879,4111,42,45,829,1743,1839,2095,2283,2091,1876,1896,2003
812541,-7696,25384,-7256,25512,983,670,606,222,92,588,936,3933,35,44,825,1743,1839,2095,2283,2091,1876,1896,2003
813542,-7632,25440,-7191,25577,934,731,588,215,57,365,997,4274,43,38,829,1743,1839,2095,2283,2091,1876,1896,2003
814543,-7596,25500,-7126,25642,1320,687,573,222,0,-117,1105,4369,35,36,827,1743,1843,2103,2269,2067,1842,1863,1982
815544,-7528,25544,-7061,25707,917,912,557,243,-62,-101,1213,4316,40,36,827,1743,1843,2103,2269,2067,1842,1863,1982
816545,-7476,25628,-6996,25772,1132,389,527,248,-116,216,1192,4282,55,48,824,1743,1843,2103,2269,2067,1842,1863,1982
817546,-7416,25688,-6931,25837,1039,695,485,263,-164,228,1104,4269,53,41,826,1743,1843,2103,2269,2067,1842,1863,1982
818547,-7360,25744,-6866,25902,1100,756,439,252,-196,48,1053,4093,49,46,828,1743,1843,2103,2269,2067,1842,1863,1982
819548,-7304,25800,-6801,25967,1112,767,398,277,-226,-66,1149,4323,40,34,825,1739,1846,2095,2255,2038,1811,1853,1979
820549,-7244,25868,-6736,26032,1068,614,360,323,-244,-184,1016,4136,49,45,824,1739,1846,2095,2255,2038,1811,1853,1979
821550,-7188,25928,-6671,26097,1129,720,329,367,-250,-109,1082,4163,46,47,825,1739,1846,2095,2255,2038,1811,1853,1979
822551,-7136,25988,-6606,26162,1194,726,297,390,-215,-365,969,3929,53,39,827,1739,1846,2095,2255,2038,1811,1853,1979
823552,-7080,26056,-6541,26227,1155,622,268,429,-171,-228,921,4077,43,44,826,1739,1846,2095,2255,2038,1811,1853,1979
824553,-7016,26104,-6476,26292,1057,893,249,440,-128,-354,971,3683,42,39,825,1739,1846,2095,2255,2038,1811,1853,1979
825554,-6956,26180,-6411,26357,1114,530,252,443,-85,-478,806,3856,41,43,826,1749,1869,2115,2275,2075,1856,1895,2024
826555,-6896,26232,-6346,26422,1120,845,287,462,-35,-247,524,3835,42,47,825,1749,1869,2115,2275,2075,1856,1895,2024
827556,-6840,26304,-6281,26487,1181,588,318,389,36,22,887,3425,42,44,827,1749,1869,2115,2275,2075,1856,1895,2024
828557,-6776,26356,-6216,26552,1082,854,342,391,123,-334,1078,4081,45,48,825,1749,1869,2115,2275,2075,1856,1895,2024
829558,-6708,26420,-6151,26617,1029,705,320,440,153,-165,920,3910,46,47,826,1749,1869,2115,2275,2075,1856,1895,2024
830559,-6660,26492,-6086,26682,1300,596,362,452,174,323,615,3985,38,36,825,1751,1863,2115,2295,2085,1869,1891,1994
831560,-6592,26564,-6021,26747,1047,588,401,310,225,219,1231,3371,35,49,827,1751,1863,2115,2295,2085,1869,1891,1994
832561,-6552,26616,-5956,26812,1427,854,408,265,232,-318,1452,4299,53,42,824,1751,1863,2115,2295,2085,1869,1891,1994
833562,-6500,26676,-5891,26877,1293,760,394,308,214,-58,1250,3952,35,50,827,1751,1863,2115,2295,2085,1869,1891,1994
834563,-6444,26728,-5826,26942,1255,876,391,366,179,568,1362,4207,53,53,822,1751,1863,2115,2295,2085,1869,1891,1994
835564,-6384,26804,-5761,27007,1211,562,387,387,142,446,1253,4280,40,46,824,1751,1863,2115,2295,2085,1869,1891,1994
836565,-6328,26872,-5696,27072,1272,659,374,378,84,450,1229,4077,56,37,822,1771,1858,2113,2306,2020,1806,1836,1932
837566,-6264,26936,-5631,27137,1173,710,366,354,28,322,1021,3957,56,47,824,1771,1858,2113,2306,2020,1806,1836,1932
838567,-6216,26996,-5566,27202,1395,766,342,350,-22,296,1104,4033,51,40,824,1771,1858,2113,2306,2020,1806,1836,1932
839568,-6144,27036,-5501,27267,1086,1046,318,410,-42,163,1000,4322,41,40,825,1771,1858,2113,2306,2020,1806,1836,1932
840569,-6100,27124,-5436,27332,1462,418,281,467,-53,29,923,4252,50,41,822,1771,1858,2113,2306,2020,1806,1836,1932
841570,-6032,27172,-5371,27397,1158,940,264,531,-47,-45,809,4122,55,46,823,1792,1880,2128,2312,1986,1779,1824,1937
842571,-5976,27236,-5306,27462,1320,741,254,527,-9,-172,798,4034,55,49,824,1792,1880,2128,2312,1986,1779,1824,1937
843572,-5924,27288,-5241,27527,1386,907,257,528,33,-585,839,4277,54,41,824,1792,1880,2128,2312,1986,1779,1824,1937
844573,-5860,27376,-5176,27592,1237,429,264,528,92,-917,590,4017,48,49,823,1792,1880,2128,2312,1986,1779,1824,1937
845574,-5784,27404,-5111,27657,1074,1224,275,545,153,-699,619,4102,49,45,822,1792,1880,2128,2312,1986,1779,1824,1937
846575,-5740,27464,-5046,27722,1501,830,297,551,223,-674,823,3924,38,31,826,1792,1880,2128,2312,1986,1779,1824,1937
847576,-5676,27524,-4981,27787,1252,837,324,539,282,-768,817,3969,37,47,822,1762,1876,2140,2303,2020,1812,1876,2000
848577,-5612,27580,-4916,27852,1253,898,347,537,329,-685,859,3835,39,43,821,1762,1876,2140,2303,2020,1812,1876,2000
849578,-5556,27636,-4851,27917,1364,909,383,554,342,-348,1047,3903,37,42,823,1762,1876,2140,2303,2020,1812,1876,2000
850579,-5500,27692,-4786,27982,1376,920,412,540,357,-666,1041,3732,37,45,823,1762,1876,2140,2303,2020,1812,1876,2000
851580,-5444,27740,-4721,28047,1387,1040,443,531,348,-455,1125,3870,39,45,822,1762,1876,2140,2303,2020,1812,1876,2000
852581,-5384,27788,-4656,28112,1343,1062,462,486,329,-182,1259,3601,50,33,822,1775,1891,2143,2319,2079,1863,1895,2003
853582,-5316,27852,-4591,28177,1240,863,471,442,296,15,1373,3661,58,39,819,1775,1891,2143,2319,2079,1863,1895,2003
854583,-5264,27904,-4526,28242,1456,1029,450,385,243,274,1513,3771,41,48,819,1775,1891,2143,2319,2079,1863,1895,2003
855584,-5184,27972,-4461,28307,1088,825,434,337,174,427,1465,3651,38,49,823,1775,1891,2143,2319,2079,1863,1895,2003
856585,-5148,28040,-4396,28372,1673,822,423,304,121,374,1421,3841,52,48,819,1775,1891,2143,2319,2079,1863,1895,2003
857586,-5076,28104,-4331,28437,1216,873,405,294,61,343,1408,4050,50,52,824,1775,1891,2143,2319,2079,1863,1895,2003
858587,-5024,28152,-4266,28502,1482,1094,387,294,18,476,1287,4260,41,47,819,1777,1863,2111,2295,2019,1809,1847,1951
859588,-4976,28220,-4201,28567,1553,840,366,278,-18,550,1273,4310,49,42,823,1777,1863,2111,2295,2019,1809,1847,1951
860589,-4896,28284,-4136,28632,1134,892,353,258,-48,170,1115,4201,56,48,819,1777,1863,2111,2295,2019,1809,1847,1951
861590,-4848,28352,-4071,28697,1556,839,348,223,-64,-137,862,4214,54,47,820,1777,1863,2111,2295,2019,1809,1847,1951
862591,-4792,28432,-4006,28762,1467,670,357,198,-59,-162,750,4234,55,43,824,1777,1863,2111,2295,2019,1809,1847,1951
863592,-4736,28492,-3941,28827,1478,926,361,182,-38,-197,558,4211,58,52,820,1754,1853,2097,2263,1997,1789,1833,1960
864593,-4676,28568,-3876,28892,1435,713,367,156,-4,-361,621,4249,50,45,823,1754,1853,2097,2263,1997,1789,1833,1960
865594,-4616,28628,-3811,28957,1441,919,373,117,38,-677,784,4139,58,54,821,1754,1853,2097,2263,1997,1789,1833,1960
866595,-4564,28704,-3746,29022,1557,706,379,84,64,-707,765,4069,39,45,822,1754,1853,2097,2263,1997,1789,1833,1960
867596,-4492,28760,-3681,29087,1299,967,379,54,102,-854,833,4045,56,48,821,1754,1853,2097,2263,1997,1789,1833,1960
868597,-4432,28844,-3616,29152,1456,594,374,-1,129,-775,989,3871,46,39,821,1754,1853,2097,2263,1997,1789,1833,1960
869598,-4384,28916,-3551,29217,1626,736,364,-26,139,-752,959,3822,53,37,822,1755,1885,2133,2294,2043,1827,1877,2009
870599,-4312,28980,-3486,29282,1318,837,355,-77,145,-500,1096,3722,41,50,822,1755,1885,2133,2294,2043,1827,1877,2009
871600,-4244,29048,-3421,29347,1365,783,338,-103,129,-384,1317,3794,40,52,819,1755,1885,2133,2294,2043,1827,1877,2009
872601,-4196,29104,-3356,29412,1636,944,331,-83,89,-30,1407,3878,43,40,822,1755,1885,2133,2294,2043,1827,1877,2009
873602,-4120,29172,-3291,29477,1272,791,331,-65,59,187,1240,3834,38,44,822,1755,1885,2133,2294,2043,1827,1877,2009
874603,-4068,29236,-3226,29542,1589,842,323,-32,17,327,1405,4059,41,51,818,1796,1916,2160,2333,2084,1862,1905,2022
875604,-4020,29308,-3161,29607,1660,733,318,11,-40,532,1374,3919,38,44,823,1796,1916,2160,2333,2084,1862,1905,2022
876605,-3956,29360,-3096,29672,1461,999,316,8,-82,572,1331,4025,55,55,820,1796,1916,2160,2333,2084,1862,1905,2022
877606,-3884,29416,-3031,29737,1354,961,322,7,-131,514,1393,4149,43,53,820,1796,1916,2160,2333,2084,1862,1905,2022
878607,-3836,29500,-2966,29802,1675,588,320,1,-189,359,1402,4227,41,40,820,1796,1916,2160,2333,2084,1862,1905,2022
879608,-3776,29552,-2901,29867,1531,1004,324,5,-228,425,1138,4331,42,44,821,1796,1916,2160,2333,2084,1862,1905,2022
880609,-3712,29636,-2836,29932,1483,581,328,14,-247,499,952,4337,51,42,821,1784,1876,2126,2308,2065,1851,1874,1974
881610,-3672,29688,-2771,29997,1813,997,324,23,-247,295,965,4368,37,42,819,1784,1876,2126,2308,2065,1851,1874,1974
882611,-3616,29740,-2706,30062,1624,1013,325,2,-233,177,908,4269,46,43,823,1784,1876,2126,2308,2065,1851,1874,1974
883612,-3560,29820,-2641,30127,1636,644,316,-20,-216,-115,939,4435,35,43,815,1784,1876,2126,2308,2065,1851,1874,1974
884613,-3508,29880,-2576,30192,1702,900,308,-48,-196,-107,970,4272,40,42,818,1784,1876,2126,2308,2065,1851,1874,1974
885614,-3464,29952,-2511,30257,1828,743,301,-66,-164,-151,793,4227,47,48,820,1727,1837,2103,2271,2007,1814,1836,1952
886615,-3408,30028,-2446,30322,1690,679,285,-42,-125,-146,805,4524,49,58,818,1727,1837,2103,2271,2007,1814,1836,1952
887616,-3352,30092,-2381,30387,1701,831,269,-14,-80,-168,856,4179,40,52,816,1727,1837,2103,2271,2007,1814,1836,1952
888617,-3296,30168,-2316,30452,1712,667,257,-1,-43,-21,885,4186,56,54,819,1727,1837,2103,2271,2007,1814,1836,1952
889618,-3236,30232,-2251,30517,1669,818,241,-1,-29,160,938,4026,53,44,819,1727,1837,2103,2271,2007,1814,1836,1952
890619,-3176,30300,-2186,30582,1675,765,225,28,-21,162,1048,4166,43,54,819,1727,1837,2103,2271,2007,1814,1836,1952
891620,-3120,30360,-2121,30647,1737,871,197,96,-14,221,1062,4078,44,46,819,1760,1864,2120,2304,2054,1846,1856,1984
892621,-3040,30416,-2056,30712,1419,932,188,182,-35,455,1136,4114,43,42,819,1760,1864,2120,2304,2054,1846,1856,1984
893622,-2988,30484,-1991,30777,1785,778,171,250,-70,628,1296,4152,63,54,818,1760,1864,2120,2304,2054,1846,1856,1984
894623,-2916,30548,-1926,30842,1527,830,166,287,-104,496,1261,3894,54,56,821,1760,1864,2120,2304,2054,1846,1856,1984
895624,-2844,30600,-1861,30907,1518,996,162,340,-170,642,1512,4142,63,50,819,1760,1864,2120,2304,2054,1846,1856,1984
896625,-2776,30684,-1796,30972,1565,573,158,391,-228,616,1321,3895,64,42,821,1783,1894,2149,2319,2083,1863,1898,2018
897626,-2712,30744,-1731,31037,1617,879,153,457,-287,733,1411,4082,56,57,819,1783,1894,2149,2319,2083,1863,1898,2018
898627,-2644,30820,-1666,31102,1563,666,153,508,-325,498,1305,4055,60,42,822,1783,1894,2149,2319,2083,1863,1898,2018
899628,-2572,30864,-1601,31167,1506,1091,136,522,-361,565,1449,3951,43,55,819,1783,1894,2149,2319,2083,1863,1898,2018
900629,-2516,30936,-1536,31232,1717,733,135,525,-406,364,1361,3990,41,42,820,1783,1894,2149,2319,2083,1863,1898,2018
901630,-2448,31020,-1471,31297,1563,560,116,505,-409,120,1270,3912,53,53,819,1783,1894,2149,2319,2083,1863,1898,2018
902631,-2392,31072,-1406,31362,1725,976,109,515,-405,358,1236,4018,59,42,819,1764,1866,2125,2303,2079,1861,1879,1983
903632,-2328,31140,-1341,31427,1626,772,95,533,-401,338,1286,4019,43,46,822,1764,1866,2125,2303,2079,1861,1879,1983
904633,-2268,31212,-1276,31492,1682,714,93,528,-382,220,1223,3940,54,54,816,1764,1866,2125,2303,2079,1861,1879,1983
905634,-2208,31268,-1211,31557,1690,925,82,516,-356,179,1161,3939,38,52,819,1764,1866,2125,2303,2079,1861,1879,1983
906635,-2128,31348,-1146,31622,1421,607,88,507,-338,364,1112,4045,57,44,819,1764,1866,2125,2303,2079,1861,1879,1983
907636,-2088,31416,-1081,31687,1953,753,81,493,-314,563,1001,3849,53,50,818,1729,1829,2097,2276,2038,1835,1850,1955
908637,-2016,31492,-1016,31752,1544,640,75,501,-287,513,1095,3911,47,57,823,1729,1829,2097,2276,2038,1835,1850,1955
909638,-1960,31548,-951,31817,1755,901,66,507,-264,402,1268,3907,62,52,816,1729,1829,2097,2276,2038,1835,1850,1955
910639,-1888,31608,-886,31882,1548,857,57,518,-271,493,1428,3882,50,53,821,1729,1829,2097,2276,2038,1835,1850,1955
911640,-1820,31672,-821,31947,1594,808,51,528,-276,543,1312,3740,46,51,818,1729,1829,2097,2276,2038,1835,1850,1955
912641,-1756,31736,-756,32012,1645,809,43,532,-284,724,1332,3636,53,52,820,1729,1829,2097,2276,2038,1835,1850,1955
913642,-1688,31808,-691,32077,1593,702,26,524,-301,789,1387,3525,55,52,820,1726,1833,2096,2268,2016,1808,1837,1953
914643,-1624,31852,-626,32142,1644,1078,8,536,-342,725,1367,3565,47,52,819,1726,1833,2096,2268,2016,1808,1837,1953
915644,-1544,31920,-561,32207,1426,774,-9,558,-395,695,1533,3507,50,43,821,1726,1833,2096,2268,2016,1808,1837,1953
916645,-1468,32000,-496,32272,1463,606,-17,593,-448,690,1558,3568,50,56,817,1726,1833,2096,2268,2016,1808,1837,1953
917646,-1408,32076,-431,32337,1669,642,-34,669,-508,751,1427,3547,59,46,822,1726,1833,2096,2268,2016,1808,1837,1953
918647,-1336,32140,-366,32402,1512,793,-52,715,-544,840,1592,3521,58,48,823,1751,1859,2109,2270,2022,1801,1845,1969
919648,-1268,32212,-301,32467,1558,685,-70,733,-575,552,1571,3396,59,47,820,1751,1859,2109,2270,2022,1801,1845,1969
920649,-1192,32264,-236,32532,1444,951,-81,718,-609,241,1528,3484,49,58,821,1751,1859,2109,2270,2022,1801,1845,1969
921650,-1148,32344,-171,32597,1871,582,-85,701,-639,266,1636,3538,56,49,820,1751,1859,2109,2270,2022,1801,1845,1969
922651,-1068,32416,-106,32662,1403,674,-91,673,-651,193,1359,3340,41,53,819,1751,1859,2109,2270,2022,1801,1845,1969
923652,-1004,32480,-41,32727,1605,776,-97,645,-648,159,1358,3409,48,52,819,1751,1859,2109,2270,2022,1801,1845,1969
924653,-940,32540,24,32792,1606,832,-108,630,-648,242,1438,3505,55,50,822,1741,1854,2100,2264,2036,1816,1852,1972
925654,-856,32604,89,32857,1333,783,-105,620,-643,159,1339,3319,61,56,820,1741,1854,2100,2264,2036,1816,1852,1972
926655,-800,32644,154,32922,1695,1114,-106,594,-632,219,1284,3506,58,53,820,1741,1854,2100,2264,2036,1816,1852,1972
927656,-708,32732,219,32987,1212,486,-104,592,-615,297,1226,3482,61,59,823,1741,1854,2100,2264,2036,1816,1852,1972
928657,-656,32808,284,33052,1728,622,-102,606,-602,534,1317,3719,64,47,817,1741,1854,2100,2264,2036,1816,1852,1972
929658,-592,32876,349,33117,1580,719,-93,616,-592,649,1226,3515,43,58,826,1705,1811,2065,2235,2021,1839,1871,1965
930659,-504,32956,414,33182,1252,550,-97,621,-575,558,1249,3720,65,54,820,1705,1811,2065,2235,2021,1839,1871,1965
931660,-432,33016,479,33247,1444,806,-94,631,-582,633,1429,3736,50,44,820,1705,1811,2065,2235,2021,1839,1871,1965
932661,-356,33084,544,33312,1381,703,-121,604,-584,756,1288,3455,61,48,825,1705,1811,2065,2235,2021,1839,1871,1965
933662,-292,33172,609,33377,1532,425,-144,585,-603,833,1320,3714,47,53,822,1705,1811,2065,2235,2021,1839,1871,1965
934663,-216,33244,674,33442,1369,616,-183,575,-624,831,1481,3633,50,57,823,1705,1811,2065,2235,2021,1839,1871,1965
935664,-148,33304,739,33507,1466,773,-212,583,-665,770,1498,3617,51,40,823,1725,1827,2091,2263,2029,1817,1845,1959
936665,-64,33376,804,33572,1243,615,-245,581,-702,601,1357,3729,45,44,824,1725,1827,2091,2263,2029,1817,1845,1959
937666,-4,33448,869,33637,1549,606,-273,555,-726,530,1251,3521,64,60,822,1725,1827,2091,2263,2029,1817,1845,1959
938667,76,33516,934,33702,1282,653,-305,577,-769,842,1328,3592,42,46,824,1725,1827,2091,2263,2029,1817,1845,1959
939668,156,33604,999,33767,1264,374,-326,542,-820,569,1372,3418,58,49,821,1725,1827,2091,2263,2029,1817,1845,1959
940669,220,33664,1064,33832,1465,731,-350,529,-843,319,1176,3536,50,45,825,1733,1835,2093,2258,2044,1824,1859,1988
941670,304,33740,1129,33897,1193,517,-372,536,-857,348,1276,3702,45,56,827,1733,1835,2093,2258,2044,1824,1859,1988
942671,372,33804,1194,33962,1389,668,-389,551,-865,246,1302,3661,64,57,822,1733,1835,2093,2258,2044,1824,1859,1988
943672,436,33876,1259,34027,1440,560,-397,574,-869,69,1245,3621,43,55,826,1733,1835,2093,2258,2044,1824,1859,1988
944673,504,33940,1324,34092,1387,661,-404,562,-868,-93,1297,3510,53,43,823,1733,1835,2093,2258,2044,1824,1859,1988
945674,572,34016,1389,34157,1384,498,-398,555,-855,-105,1043,3471,61,58,823,1733,1835,2093,2258,2044,1824,1859,1988
946675,644,34080,1454,34222,1325,649,-412,547,-833,86,919,3570,45,56,823,1723,1844,2095,2246,2074,1840,1877,2012
947676,712,34156,1519,34287,1373,485,-420,556,-800,317,1125,3472,56,45,824,1723,1844,2095,2246,2074,1840,1877,2012
948677,788,34224,1584,34352,1259,582,-435,563,-789,213,1295,3455,50,50,824,1723,1844,2095,2246,2074,1840,1877,2012
949678,860,34296,1649,34417,1301,523,-446,569,-776,-71,1381,3577,57,56,825,1723,1844,2095,2246,2074,1840,1877,2012
950679,924,34388,1714,34482,1402,240,-459,605,-756,-110,1228,3781,57,57,825,1723,1844,2095,2246,2074,1840,1877,2012
951680,1004,34464,1779,34547,1185,427,-476,635,-731,443,1117,3477,47,56,825,1717,1839,2086,2239,2060,1828,1862,1982
952681,1068,34528,1844,34612,1386,578,-483,617,-725,699,1284,3557,54,61,825,1717,1839,2086,2239,2060,1828,1862,1982
953682,1152,34612,1909,34677,1113,306,-497,583,-734,367,1321,3499,58,47,827,1717,1839,2086,2239,2060,1828,1862,1982
954683,1236,34700,2108,34876,1254,391,-507,561,-774,161,1412,3569,55,49,824,1717,1839,2086,2239,2060,1828,1862,1982
955684,1296,34772,2173,34941,1560,583,-516,580,-801,239,1207,3527,67,50,827,1717,1839,2086,2239,2060,1828,1862,1982
956685,1380,34872,2238,35006,1237,190,-549,593,-810,855,1070,3562,63,48,825,1717,1839,2086,2239,2060,1828,1862,1982
957686,1468,34936,2303,35071,1160,641,-562,607,-825,868,1381,3602,55,60,822,1719,1818,2071,2241,2016,1799,1828,1938
958687,1556,34996,2368,35136,1132,697,-580,581,-868,274,1459,3376,64,48,827,1719,1818,2071,2241,2016,1799,1828,1938
959688,1652,35080,2433,35201,994,374,-581,556,-894,-137,1185,3577,65,55,826,1719,1818,2071,2241,2016,1799,1828,1938
960689,1732,35156,2498,35266,1177,461,-601,568,-894,318,858,3642,66,55,826,1719,1818,2071,2241,2016,1799,1828,1938
961690,1820,35236,2563,35331,1048,392,-609,575,-887,948,1080,3527,58,52,829,1719,1818,2071,2241,2016,1799,1828,1938
962691,1924,35316,2628,35396,801,374,-614,568,-900,271,1074,3177,61,55,827,1723,1817,2074,2250,2004,1794,1828,1942
963692,2000,35400,2693,35461,1137,301,-616,563,-896,-519,1004,3394,57,47,828,1723,1817,2074,2250,2004,1794,1828,1942
964693,2084,35492,2758,35526,1015,168,-628,587,-870,-318,793,3554,47,49,830,1723,1817,2074,2250,2004,1794,1828,1942
965694,2176,35584,2823,35591,882,135,-640,623,-828,405,845,3278,59,60,828,1723,1817,2074,2250,2004,1794,1828,1942
966695,2248,35664,2888,35656,1124,267,-633,624,-791,37,1179,3075,54,55,830,1723,1817,2074,2250,2004,1794,1828,1942
967696,2340,35756,2953,35721,841,84,-630,626,-768,-839,1167,3335,65,51,831,1723,1817,2074,2250,2004,1794,1828,1942
968697,2420,35828,3018,35786,973,325,-632,649,-739,-649,878,3547,69,46,829,1732,1841,2087,2254,2014,1797,1841,1961
969698,2504,35908,3083,35851,900,207,-630,653,-689,137,1098,3314,68,58,831,1732,1841,2087,2254,2014,1797,1841,1961
970699,2608,35996,3148,35916,603,79,-620,646,-655,4,1342,3153,67,59,830,1732,1841,2087,2254,2014,1797,1841,1961
971700,2696,36068,3213,35981,775,270,-624,621,-643,-729,1254,3280,52,60,830,1732,1841,2087,2254,2014,1797,1841,1961
972701,2792,36140,3278,36046,637,262,-614,631,-665,-827,1229,3518,58,52,832,1732,1841,2087,2254,2014,1797,1841,1961
973702,2896,36216,3343,36111,490,198,-623,644,-698,33,950,3482,52,45,830,1731,1843,2079,2241,2018,1791,1839,1962
974703,3016,36308,3408,36176,223,-35,-658,642,-721,681,808,2886,53,53,832,1731,1843,2079,2241,2018,1791,1839,1962
975704,3088,36360,3473,36241,814,481,-738,618,-743,818,623,2973,49,44,834,1731,1843,2079,2241,2018,1791,1839,1962
976705,3164,36444,3538,36306,751,58,-851,519,-729,1023,221,2486,49,57,836,1731,1843,2079,2241,2018,1791,1839,1962
977706,3260,36536,3603,36371,463,-75,-949,368,-715,909,581,2377,50,45,830,1731,1843,2079,2241,2018,1791,1839,1962
978707,3328,36620,3668,36436,810,2,-991,275,-750,-22,867,3018,52,53,832,1728,1828,2063,2216,2019,1794,1840,1976
979708,3420,36716,3733,36501,477,-187,-967,327,-813,26,689,3785,59,58,835,1728,1828,2063,2216,2019,1794,1840,1976
980709,3508,36780,3798,36566,500,214,-905,424,-821,629,413,3902,57,59,833,1728,1828,2063,2216,2019,1794,1840,1976
981710,3596,36864,3863,36631,471,-59,-835,495,-773,730,362,3659,65,54,834,1728,1828,2063,2216,2019,1794,1840,1976
982711,3688,36936,3928,36696,388,83,-780,475,-731,231,497,3296,51,45,834,1728,1828,2063,2216,2019,1794,1840,1976
983713,3772,37012,3993,36761,465,19,-743,422,-717,-492,549,3473,65,45,835,1728,1828,2063,2216,2019,1794,1840,1976
984713,3876,37100,4058,36826,168,-159,-744,342,-715,-329,440,3217,57,55,835,1660,1771,2007,2145,2045,1805,1847,1975
985714,3952,37176,4123,36891,504,-22,-771,270,-689,99,347,2810,63,41,835,1660,1771,2007,2145,2045,1805,1847,1975
986715,4024,37248,4188,36956,546,19,-806,221,-674,-339,555,3222,43,47,836,1660,1771,2007,2145,2045,1805,1847,1975
987716,4132,37320,4253,37021,43,11,-845,224,-670,-670,508,2919,50,57,835,1660,1771,2007,2145,2045,1805,1847,1975
988717,4216,37388,4318,37086,320,57,-869,213,-657,-428,856,3244,45,43,835,1660,1771,2007,2145,2045,1805,1847,1975
989718,4292,37468,4383,37151,407,-112,-885,185,-630,-196,912,2624,40,51,836,1686,1806,2036,2203,2013,1784,1839,1953
990719,4388,37536,4448,37216,119,34,-917,140,-613,-555,782,2995,56,55,835,1686,1806,2036,2203,2013,1784,1839,1953
991720,4464,37600,4513,37281,355,85,-942,150,-599,-688,738,3056,57,56,835,1686,1806,2036,2203,2013,1784,1839,1953
992721,4536,37680,4578,37346,397,-133,-975,187,-586,-424,952,3194,42,41,837,1686,1806,2036,2203,2013,1784,1839,1953
993722,4620,37740,4643,37411,224,123,-996,173,-586,-61,787,2917,56,53,835,1686,1806,2036,2203,2013,1784,1839,1953
994723,4700,37816,4708,37476,255,-91,-1011,172,-607,-204,423,3023,57,45,835,1686,1806,2036,2203,2013,1784,1839,1953
995724,4792,37880,4773,37541,72,61,-1022,144,-617,-235,238,2999,56,53,836,1732,1839,2069,2244,1986,1769,1820,1931
996725,4868,37952,4838,37606,259,-48,-1037,143,-646,167,192,2979,47,51,836,1732,1839,2069,2244,1986,1769,1820,1931
997726,4944,38024,4903,37671,245,-57,-1058,164,-677,162,127,3245,42,47,837,1732,1839,2069,2244,1986,1769,1820,1931
998727,5016,38104,4968,37736,287,-176,-1069,175,-714,314,66,2981,53,43,836,1732,1839,2069,2244,1986,1769,1820,1931
999728,5100,38176,5033,37801,114,-84,-1073,181,-726,-40,44,3185,47,41,836,1732,1839,2069,2244,1986,1769,1820,1931
1000729,5184,38244,5098,37866,91,-38,-1073,192,-741,-442,110,3331,40,53,835,1733,1824,2058,2224,1980,1767,1813,1926
1001730,5240,38324,5163,37931,452,-206,-1057,195,-741,-614,164,3338,38,48,836,1733,1824,2058,2224,1980,1767,1813,1926
1002731,5320,38404,5228,37996,133,-225,-1048,183,-722,-385,251,3316,52,43,837,1733,1824,2058,2224,1980,1767,1813,1926
1003732,5424,38480,5293,38061,-214,-188,-1036,170,-697,-504,144,3230,54,42,834,1733,1824,2058,2224,1980,1767,1813,1926
1004733,5508,38552,5358,38126,12,-148,-1028,154,-677,-735,298,3198,37,47,835,1733,1824,2058,2224,1980,1767,1813,1926
1005734,5620,38628,5423,38191,-395,-211,-1021,113,-664,-855,423,3031,42,50,825,1733,1824,2058,2224,1980,1767,1813,1926
1006735,5704,38728,5488,38256,-68,-554,-1015,86,-662,-816,425,3091,36,38,835,1696,1794,2024,2195,1983,1769,1792,1897
1007736,5796,38780,5553,38321,-201,62,-1029,69,-652,-627,218,3127,43,39,834,1696,1794,2024,2195,1983,1769,1792,1897
1008737,5868,38844,5618,38386,40,-87,-1034,78,-638,-312,326,3132,48,44,833,1696,1794,2024,2195,1983,1769,1792,1897
1009738,5932,38900,5683,38451,142,23,-1041,94,-631,-314,334,3069,58,38,826,1696,1794,2024,2195,1983,1769,1792,1897
1010739,6004,38972,5748,38516,33,-185,-1032,124,-636,-565,444,3257,40,46,837,1696,1794,2024,2195,1983,1769,1792,1897
1011740,6084,39028,5813,38581,-86,26,-1022,152,-646,-841,374,3194,53,40,837,1699,1807,2023,2167,1968,1771,1835,1945
1012741,6152,39080,5878,38646,60,92,-1000,173,-663,-602,442,3346,52,53,836,1699,1807,2023,2167,1968,1771,1835,1945
1013742,6228,39140,5943,38711,-53,-2,-978,202,-671,-442,217,3372,48,49,835,1699,1807,2023,2167,1968,1771,1835,1945
1014743,6296,39224,6008,38776,43,-325,-966,213,-676,-519,38,3180,40,49,837,1699,1807,2023,2167,1968,1771,1835,1945
1015744,6368,39288,6073,38841,-16,-75,-955,238,-701,-573,24,3517,49,55,837,1699,1807,2023,2167,1968,1771,1835,1945
1016745,6460,39360,6138,38906,-299,-184,-962,218,-730,-562,-188,3260,55,52,836,1699,1807,2023,2167,1968,1771,1835,1945
1017746,6528,39412,6203,38971,-2,82,-965,191,-762,-415,-152,3386,37,57,837,1721,1829,2049,2228,1980,1760,1820,1929
1018747,6600,39500,6268,39036,-61,-396,-978,140,-782,-497,-172,3317,47,42,836,1721,1829,2049,2228,1980,1760,1820,1929
1019748,6688,39572,6333,39101,-289,-204,-987,110,-799,-524,-251,3349,41,51,837,1721,1829,2049,2228,1980,1760,1820,1929
