%  Data file recorded 2016/9/7  22:4:8
%  Stride Frequency         = [1, 1]
%  Lead In /Lead Out        = 
%  Deltas (Fractional)      = [0.25, 0.25, 0.25],[0.25, 0.25, 0.25]
%  Phase                    = 32768
%  Experiment.py 
%  Motor Gains    = [5000, 400, 200, 0, 300, 5000, 400, 200, 0, 300]
% Columns: 
% time | Right Leg Pos | Left Leg Pos | Commanded Right Leg Pos | Commanded Left Leg Pos | DCR | DCL | GyroX | GyroY | GyroZ | AX | AY | AZ | RBEMF | LBEMF | VBatt | S1 | S2 | S3 | S4 | S5 | S6 | S7 | S8
413,-44788,-16484,-47012,-14244,-3800,3800,-80,-130,10,46,144,3914,1,-8,920,1766,1867,2074,2242,2033,1799,1854,1978
1414,-44796,-16468,-47012,-14244,-3800,3800,-81,-130,12,34,131,3925,-9,3,920,1766,1867,2074,2242,2033,1799,1854,1978
2415,-44804,-16468,-47012,-14244,-3800,3800,-83,-130,11,17,147,3908,-9,3,920,1766,1867,2074,2242,2033,1799,1854,1978
3416,-44800,-16484,-47012,-14244,-3800,3800,-86,-131,12,48,179,3868,-4,-5,920,1766,1868,2075,2242,2034,1799,1856,1979
4417,-44800,-16472,-47012,-14244,-3800,3800,-85,-129,15,53,157,3950,-3,6,920,1766,1868,2075,2242,2034,1799,1856,1979
5418,-44804,-16468,-47012,-14244,-3800,3800,-86,-129,16,36,154,3961,-3,-1,920,1766,1868,2075,2242,2034,1799,1856,1979
6419,-44808,-16468,-47012,-14244,-3800,3800,-88,-130,14,19,176,3936,6,2,920,1766,1868,2075,2242,2034,1799,1856,1979
7420,-44796,-16480,-47012,-14244,-3800,3800,-88,-130,14,11,154,3943,10,3,920,1766,1868,2075,2242,2034,1799,1856,1979
8421,-44804,-16480,-47012,-14244,-3800,3800,-91,-127,13,30,133,3931,8,-8,920,1767,1868,2075,2242,2034,1800,1854,1979
9422,-44792,-16476,-47012,-14244,-3800,3800,-91,-128,12,-5,158,3924,-5,7,920,1767,1868,2075,2242,2034,1800,1854,1979
10423,-44800,-16468,-47012,-14244,-3800,3800,-92,-130,12,20,184,3885,-9,-4,920,1767,1868,2075,2242,2034,1800,1854,1979
11424,-44788,-16476,-47012,-14244,-3800,3800,-90,-130,14,2,190,3924,3,3,920,1767,1868,2075,2242,2034,1800,1854,1979
12425,-44796,-16472,-47012,-14244,-3800,3800,-90,-127,12,-15,182,3924,10,-6,920,1767,1868,2075,2242,2034,1800,1854,1979
13426,-44800,-16468,-47012,-14244,-3800,3800,-93,-128,10,-4,168,3968,10,7,920,1767,1868,2075,2242,2034,1800,1854,1979
14427,-44784,-16480,-47012,-14244,-3800,3800,-95,-130,9,-17,164,3923,7,-6,920,1768,1868,2074,2243,2033,1800,1856,1979
15428,-44800,-16476,-47012,-14244,-3800,3800,-94,-130,10,-28,155,3917,-5,7,920,1768,1868,2074,2243,2033,1800,1856,1979
16429,-44800,-16476,-47012,-14244,-3800,3800,-95,-131,8,-13,152,3951,-9,-4,920,1768,1868,2074,2243,2033,1800,1856,1979
17430,-44800,-16476,-47012,-14244,-3800,3800,-95,-130,8,-26,167,3955,-8,2,920,1768,1868,2074,2243,2033,1800,1856,1979
18431,-44788,-16464,-47012,-14244,-3800,3800,-96,-131,9,-50,178,3946,2,5,920,1768,1868,2074,2243,2033,1800,1856,1979
19432,-44788,-16480,-47012,-14244,-3800,3800,-95,-130,12,-48,198,3923,1,2,918,1768,1869,2075,2243,2033,1799,1855,1979
20433,-44800,-16472,-47012,-14244,-3800,3800,-96,-129,9,-30,173,3944,6,-7,920,1768,1869,2075,2243,2033,1799,1855,1979
21434,-44796,-16480,-47012,-14244,-3800,3800,-97,-129,8,-43,172,3974,9,2,920,1768,1869,2075,2243,2033,1799,1855,1979
22435,-44808,-16476,-47012,-14244,-3800,3800,-94,-131,7,-46,174,3940,1,5,920,1768,1869,2075,2243,2033,1799,1855,1979
23436,-44792,-16472,-47012,-14244,-3800,3800,-94,-130,8,-42,171,3923,-10,-7,920,1768,1869,2075,2243,2033,1799,1855,1979
24437,-44800,-16480,-47012,-14244,-3800,3800,-96,-130,6,-60,181,3934,-3,5,919,1768,1869,2075,2243,2033,1799,1855,1979
25438,-44800,-16460,-47012,-14244,-3800,3800,-97,-130,3,-74,153,3940,7,3,920,1768,1872,2076,2244,2032,1798,1856,1979
26439,-44804,-16472,-47012,-14244,-3800,3800,-95,-129,3,-52,150,3924,10,-8,920,1768,1872,2076,2244,2032,1798,1856,1979
27440,-44804,-16480,-47012,-14244,-3800,3800,-95,-130,3,-42,142,3934,-1,2,920,1768,1872,2076,2244,2032,1798,1856,1979
28441,-44804,-16484,-47012,-14244,-3800,3800,-95,-132,3,-39,151,3924,-4,7,920,1768,1872,2076,2244,2032,1798,1856,1979
29442,-44804,-16472,-47012,-14244,-3800,3800,-93,-134,2,-59,160,3926,-9,-8,920,1768,1872,2076,2244,2032,1798,1856,1979
30443,-44800,-16484,-47012,-14244,-3800,3800,-93,-133,-1,-50,151,3920,-7,5,920,1769,1871,2077,2245,2031,1799,1855,1978
31444,-44788,-16480,-47012,-14244,-3800,3800,-93,-134,0,-54,148,3903,-9,5,920,1769,1871,2077,2245,2031,1799,1855,1978
32445,-44808,-16480,-47012,-14244,-3800,3800,-91,-134,-2,-64,173,3934,-9,-7,920,1769,1871,2077,2245,2031,1799,1855,1978
33446,-44800,-16468,-47012,-14244,-3800,3800,-91,-135,-4,-64,169,3961,-6,6,920,1769,1871,2077,2245,2031,1799,1855,1978
34447,-44796,-16472,-47012,-14244,-3800,3800,-91,-135,-3,-46,138,3946,-9,3,920,1769,1871,2077,2245,2031,1799,1855,1978
35448,-44796,-16464,-47012,-14244,-3800,3800,-90,-134,-3,-17,138,3908,-9,-8,920,1769,1871,2077,2245,2031,1799,1855,1978
36449,-44804,-16472,-47012,-14244,-3800,3800,-89,-134,-3,-25,156,3926,-7,-4,918,1770,1872,2080,2245,2032,1797,1856,1977
37450,-44796,-16472,-47012,-14244,-3800,3800,-88,-135,-5,-34,167,3944,8,3,920,1770,1872,2080,2245,2032,1797,1856,1977
38451,-44800,-16480,-47012,-14244,-3800,3800,-88,-136,-7,-33,155,3954,7,-1,920,1770,1872,2080,2245,2032,1797,1856,1977
39452,-44800,-16480,-47012,-14244,-3800,3800,-87,-138,-5,-37,158,3935,6,-7,920,1770,1872,2080,2245,2032,1797,1856,1977
40453,-44796,-16472,-47012,-14244,-3800,3800,-87,-139,-6,-39,141,3911,8,3,920,1770,1872,2080,2245,2032,1797,1856,1977
41454,-44796,-16468,-47012,-14244,-3800,3800,-84,-138,-7,-13,142,3934,10,-1,920,1770,1871,2076,2245,2030,1798,1853,1977
42455,-44804,-16476,-47012,-14244,-3800,3800,-84,-138,-8,-30,146,3942,10,-8,920,1770,1871,2076,2245,2030,1798,1853,1977
43456,-44792,-16480,-47012,-14244,-3800,3800,-85,-138,-8,-20,138,3972,9,2,920,1770,1871,2076,2245,2030,1798,1853,1977
44457,-44792,-16476,-47012,-14244,-3800,3800,-82,-138,-6,-22,136,3965,10,-2,920,1770,1871,2076,2245,2030,1798,1853,1977
45458,-44792,-16476,-47012,-14244,-3800,3800,-80,-138,-5,-4,148,3949,6,-6,920,1770,1871,2076,2245,2030,1798,1853,1977
46459,-44804,-16472,-47012,-14244,-3800,3800,-79,-137,-7,7,138,3935,10,4,920,1770,1871,2076,2245,2030,1798,1853,1977
47460,-44800,-16468,-47012,-14244,-3800,3800,-81,-136,-8,14,134,3924,9,2,920,1769,1872,2076,2245,2029,1797,1853,1977
48461,-44788,-16472,-47012,-14244,-3800,3800,-81,-140,-8,41,127,3931,7,-8,920,1769,1872,2076,2245,2029,1797,1853,1977
49462,-44796,-16468,-47012,-14244,-3800,3800,-80,-142,-9,20,148,3952,10,1,920,1769,1872,2076,2245,2029,1797,1853,1977
50463,-44800,-16488,-47012,-14244,-3800,3800,-78,-138,-9,17,144,3946,9,0,920,1769,1872,2076,2245,2029,1797,1853,1977
51464,-44800,-16472,-47012,-14244,-3800,3800,-77,-138,-7,24,142,3913,3,-7,920,1769,1872,2076,2245,2029,1797,1853,1977
52465,-44788,-16460,-47012,-14244,-3800,3800,-75,-140,-7,39,162,3918,7,6,920,1769,1871,2076,2244,2030,1798,1854,1978
53466,-44792,-16480,-47012,-14244,-3800,3800,-74,-142,-8,50,151,3907,10,0,918,1769,1871,2076,2244,2030,1798,1854,1978
54467,-44808,-16480,-47012,-14244,-3800,3800,-74,-141,-9,47,144,3920,7,-8,919,1769,1871,2076,2244,2030,1798,1854,1978
55468,-44800,-16484,-47012,-14244,-3800,3800,-77,-138,-7,53,152,3910,-2,0,920,1769,1871,2076,2244,2030,1798,1854,1978
56469,-44796,-16464,-47012,-14244,-3800,3800,-78,-138,-6,64,171,3917,0,0,920,1769,1871,2076,2244,2030,1798,1854,1978
57470,-44788,-16476,-47012,-14244,-3800,3800,-76,-139,-6,54,152,3905,3,-8,920,1769,1871,2076,2244,2030,1798,1854,1978
58471,-44800,-16480,-47012,-14244,-3800,3800,-72,-138,-4,54,146,3954,-4,2,920,1768,1870,2076,2244,2032,1798,1853,1978
59472,-44792,-16472,-47012,-14244,-3800,3800,-72,-139,-5,76,153,3963,-7,-2,920,1768,1870,2076,2244,2032,1798,1853,1978
60473,-44792,-16484,-47012,-14244,-3800,3800,-72,-137,-5,93,144,3956,-7,-7,920,1768,1870,2076,2244,2032,1798,1853,1978
61474,-44800,-16476,-47012,-14244,-3800,3800,-74,-137,-2,83,168,3914,-9,6,920,1768,1870,2076,2244,2032,1798,1853,1978
62475,-44796,-16476,-47012,-14244,-3800,3800,-73,-136,-3,90,145,3907,-8,-2,920,1768,1870,2076,2244,2032,1798,1853,1978
63476,-44796,-16476,-47012,-14244,-3800,3800,-73,-135,-2,79,152,3920,2,-8,920,1767,1869,2075,2242,2033,1799,1853,1977
64477,-44792,-16484,-47012,-14244,-3800,3800,-73,-136,1,74,176,3903,2,5,920,1767,1869,2075,2242,2033,1799,1853,1977
65478,-44796,-16476,-47012,-14244,-3800,3800,-74,-139,0,95,155,3859,5,-4,920,1767,1869,2075,2242,2033,1799,1853,1977
66479,-44796,-16480,-47012,-14244,-3800,3800,-73,-137,1,80,141,3896,10,-6,920,1767,1869,2075,2242,2033,1799,1853,1977
67480,-44788,-16480,-47012,-14244,-3800,3800,-74,-137,3,85,143,3906,10,3,920,1767,1869,2075,2242,2033,1799,1853,1977
68481,-44788,-16484,-47012,-14244,-3800,3800,-74,-136,4,92,165,3926,9,0,920,1767,1869,2075,2242,2033,1799,1853,1977
69482,-44804,-16472,-47012,-14244,-3800,3800,-74,-135,4,92,175,3897,7,-8,920,1766,1868,2075,2242,2032,1799,1854,1978
70483,-44796,-16480,-47012,-14244,-3800,3800,-76,-135,3,103,158,3883,10,-1,918,1766,1868,2075,2242,2032,1799,1854,1978
71484,-44800,-16472,-47012,-14244,-3800,3800,-78,-134,4,91,157,3906,5,6,919,1766,1868,2075,2242,2032,1799,1854,1978
72485,-44800,-16472,-47012,-14244,-3800,3800,-77,-133,7,71,171,3892,6,-3,920,1766,1868,2075,2242,2032,1799,1854,1978
73486,-44796,-16468,-47012,-14244,-3800,3800,-79,-135,7,54,172,3906,-1,-7,920,1766,1868,2075,2242,2032,1799,1854,1978
74487,-44800,-16472,-47012,-14244,-3800,3800,-80,-133,5,66,190,3924,5,7,920,1765,1868,2074,2241,2033,1800,1854,1979
75488,-44804,-16476,-47012,-14244,-3800,3800,-81,-130,6,79,167,3901,9,-2,920,1765,1868,2074,2241,2033,1800,1854,1979
76489,-44796,-16472,-47012,-14244,-3800,3800,-81,-132,6,84,170,3887,9,-7,920,1765,1868,2074,2241,2033,1800,1854,1979
77490,-44800,-16468,-47012,-14244,-3800,3800,-82,-132,9,37,184,3886,10,7,920,1765,1868,2074,2241,2033,1800,1854,1979
78491,-44804,-16480,-47012,-14244,-3800,3800,-84,-129,10,40,150,3903,5,-7,920,1765,1868,2074,2241,2033,1800,1854,1979
79492,-44792,-16480,-47012,-14244,-3800,3800,-86,-131,12,49,161,3946,6,-4,920,1765,1868,2074,2241,2033,1800,1854,1979
80493,-44792,-16472,-47012,-14244,-3800,3800,-86,-131,13,71,165,3906,2,6,920,1768,1868,2076,2242,2034,1800,1856,1979
81494,-44792,-16488,-47012,-14244,-3800,3800,-87,-133,9,51,143,3941,-8,-5,920,1768,1868,2076,2242,2034,1800,1856,1979
82495,-44804,-16476,-47012,-14244,-3800,3800,-87,-131,10,30,157,3962,-7,-4,920,1768,1868,2076,2242,2034,1800,1856,1979
83496,-44796,-16472,-47012,-14244,-3800,3800,-87,-130,11,38,176,3931,-8,1,920,1768,1868,2076,2242,2034,1800,1856,1979
84497,-44800,-16468,-47012,-14244,-3800,3800,-88,-129,11,29,185,3930,-9,-8,920,1768,1868,2076,2242,2034,1800,1856,1979
85498,-44800,-16468,-47012,-14244,-3800,3800,-90,-130,9,23,175,3940,-9,6,920,1765,1868,2074,2242,2033,1800,1855,1979
86499,-44796,-16468,-47012,-14244,-3800,3800,-89,-130,9,38,176,3921,-9,-6,920,1765,1868,2074,2242,2033,1800,1855,1979
87500,-44788,-16472,-47012,-14244,-3800,3800,-90,-129,9,10,155,3926,-9,-6,918,1765,1868,2074,2242,2033,1800,1855,1979
88501,-44800,-16468,-47012,-14244,-3800,3800,-91,-130,12,-5,148,3937,-1,5,919,1765,1868,2074,2242,2033,1800,1855,1979
89502,-44792,-16480,-47012,-14244,-3800,3800,-92,-130,14,18,141,3917,2,-7,920,1765,1868,2074,2242,2033,1800,1855,1979
90503,-44796,-16460,-47012,-14244,-3800,3800,-91,-128,15,33,164,3895,1,5,920,1765,1868,2074,2242,2033,1800,1855,1979
91504,-44796,-16472,-47012,-14244,-3800,3800,-92,-128,13,5,201,3906,-1,0,920,1768,1870,2076,2244,2033,1800,1854,1979
92505,-44788,-16468,-47012,-14244,-3800,3800,-94,-130,11,-29,187,3921,-9,0,920,1768,1870,2076,2244,2033,1800,1854,1979
93506,-44792,-16484,-47012,-14244,-3800,3800,-94,-131,9,-12,179,3920,-5,5,920,1768,1870,2076,2244,2033,1800,1854,1979
94507,-44800,-16476,-47012,-14244,-3800,3800,-94,-134,9,-20,158,3914,-1,-7,920,1768,1870,2076,2244,2033,1800,1854,1979
95508,-44788,-16488,-47012,-14244,-3800,3800,-93,-134,11,-29,171,3936,8,1,920,1768,1870,2076,2244,2033,1800,1854,1979
96509,-44804,-16476,-47012,-14244,-3800,3800,-94,-133,11,-32,176,3918,10,-4,920,1767,1869,2075,2243,2031,1798,1854,1978
97510,-44796,-16476,-47012,-14244,-3800,3800,-94,-130,11,-23,164,3912,7,6,920,1767,1869,2075,2243,2031,1798,1854,1978
98511,-44792,-16480,-47012,-14244,-3800,3800,-96,-130,10,-46,165,3938,-8,-3,920,1767,1869,2075,2243,2031,1798,1854,1978
99512,-44788,-16456,-47012,-14244,-3800,3800,-96,-133,5,-56,159,3933,-9,7,920,1767,1869,2075,2243,2031,1798,1854,1978
100515,-44808,-16472,-47012,-14244,-3800,3800,-96,-132,4,-53,179,3945,-7,-8,920,1767,1869,2075,2243,2031,1798,1854,1978
101514,-44788,-16480,-47012,-14244,-3800,3800,-96,-131,7,-29,179,3984,3,6,920,1767,1869,2075,2243,2031,1798,1854,1978
102515,-44800,-16476,-47012,-14244,-3800,3800,-96,-131,9,-35,181,3954,9,-7,920,1770,1871,2078,2246,2032,1800,1855,1980
103516,-44800,-16476,-47012,-14244,-3800,3800,-94,-132,5,-47,171,3933,10,3,920,1770,1871,2078,2246,2032,1800,1855,1980
104517,-44792,-16484,-47012,-14244,-3800,3800,-92,-131,3,-32,145,3949,9,5,919,1770,1871,2078,2246,2032,1800,1855,1980
105518,-44800,-16468,-47012,-14244,-3800,3800,-95,-132,2,-42,158,3949,10,-5,919,1770,1871,2078,2246,2032,1800,1855,1980
106519,-44800,-16468,-47012,-14244,-3800,3800,-94,-132,1,-47,160,3928,10,-1,920,1770,1871,2078,2246,2032,1800,1855,1980
107520,-44796,-16472,-47012,-14244,-3800,3800,-90,-134,1,-42,146,3926,10,-1,920,1768,1870,2077,2245,2031,1798,1854,1977
108521,-44800,-16476,-47012,-14244,-3800,3800,-90,-136,-1,-44,162,3915,10,-6,920,1768,1870,2077,2245,2031,1798,1854,1977
109522,-44800,-16480,-47012,-14244,-3800,3800,-90,-135,-3,-64,166,3930,10,7,920,1768,1870,2077,2245,2031,1798,1854,1977
110523,-44796,-16472,-47012,-14244,-3800,3800,-89,-134,-3,-61,146,3937,6,-7,920,1768,1870,2077,2245,2031,1798,1854,1977
111524,-44808,-16480,-47012,-14244,-3800,3800,-88,-137,-1,-36,173,3918,-3,1,920,1768,1870,2077,2245,2031,1798,1854,1977
112525,-44792,-16468,-47012,-14244,-3800,3800,-88,-136,-2,-56,166,3918,3,3,920,1768,1870,2077,2245,2031,1798,1854,1977
113526,-44800,-16472,-47012,-14244,-3800,3800,-89,-136,-2,-36,168,3925,-2,-3,920,1767,1869,2075,2247,2031,1800,1855,1980
114527,-44808,-16480,-47012,-14244,-3800,3800,-86,-134,-4,-25,162,3914,-6,7,920,1767,1869,2075,2247,2031,1800,1855,1980
115528,-44792,-16472,-47012,-14244,-3800,3800,-85,-135,-5,-25,166,3939,-6,-7,920,1767,1869,2075,2247,2031,1800,1855,1980
116529,-44792,-16476,-47012,-14244,-3800,3800,-87,-135,-6,-49,182,3932,-9,6,920,1767,1869,2075,2247,2031,1800,1855,1980
117530,-44800,-16480,-47012,-14244,-3800,3800,-86,-137,-5,-28,192,3948,-5,-3,920,1767,1869,2075,2247,2031,1800,1855,1980
118531,-44792,-16480,-47012,-14244,-3800,3800,-84,-136,-6,-10,143,3923,0,-1,920,1769,1871,2077,2246,2030,1798,1853,1977
119532,-44792,-16476,-47012,-14244,-3800,3800,-84,-136,-7,-38,147,3934,7,0,920,1769,1871,2077,2246,2030,1798,1853,1977
120533,-44796,-16476,-47012,-14244,-3800,3800,-82,-137,-7,-14,150,3913,10,-8,920,1769,1871,2077,2246,2030,1798,1853,1977
121534,-44804,-16472,-47012,-14244,-3800,3800,-79,-138,-8,-5,155,3955,6,-2,918,1769,1871,2077,2246,2030,1798,1853,1977
122535,-44804,-16476,-47012,-14244,-3800,3800,-82,-139,-8,-10,146,3944,-1,6,919,1769,1871,2077,2246,2030,1798,1853,1977
123536,-44788,-16460,-47012,-14244,-3800,3800,-80,-139,-7,9,152,3935,-9,-5,920,1769,1871,2077,2246,2030,1798,1853,1977
124537,-44796,-16484,-47012,-14244,-3800,3800,-78,-139,-8,0,152,3915,-4,-2,920,1769,1871,2074,2243,2030,1798,1853,1978
125538,-44792,-16480,-47012,-14244,-3800,3800,-77,-140,-9,40,142,3920,3,0,920,1769,1871,2074,2243,2030,1798,1853,1978
126539,-44784,-16480,-47012,-14244,-3800,3800,-78,-137,-9,42,146,3928,9,-6,920,1769,1871,2074,2243,2030,1798,1853,1978
127540,-44800,-16476,-47012,-14244,-3800,3800,-77,-138,-5,48,166,3942,9,7,920,1769,1871,2074,2243,2030,1798,1853,1978
128541,-44796,-16476,-47012,-14244,-3800,3800,-77,-138,-7,31,148,3910,10,-8,920,1769,1871,2074,2243,2030,1798,1853,1978
129542,-44792,-16476,-47012,-14244,-3800,3800,-78,-141,-9,8,162,3921,2,5,921,1768,1871,2076,2244,2031,1798,1853,1977
130543,-44808,-16480,-47012,-14244,-3800,3800,-77,-142,-8,41,160,3910,-4,-3,920,1768,1871,2076,2244,2031,1798,1853,1977
131544,-44796,-16476,-47012,-14244,-3800,3800,-77,-140,-6,39,167,3899,-9,5,920,1768,1871,2076,2244,2031,1798,1853,1977
132545,-44804,-16472,-47012,-14244,-3800,3800,-75,-140,-7,28,166,3881,-5,-4,920,1768,1871,2076,2244,2031,1798,1853,1977
133546,-44812,-16476,-47012,-14244,-3800,3800,-74,-139,-5,49,195,3905,0,0,920,1768,1871,2076,2244,2031,1798,1853,1977
134547,-44792,-16476,-47012,-14244,-3800,3800,-75,-139,-6,51,174,3951,7,-4,921,1768,1871,2076,2244,2031,1798,1853,1977
135548,-44796,-16468,-47012,-14244,-3800,3800,-75,-136,-6,36,145,3960,10,-2,920,1769,1869,2075,2243,2031,1799,1855,1979
136549,-44800,-16468,-47012,-14244,-3800,3800,-76,-137,-6,53,160,3942,10,6,920,1769,1869,2075,2243,2031,1799,1855,1979
137550,-44792,-16472,-47012,-14244,-3800,3800,-75,-137,-3,56,146,3907,-3,-7,920,1769,1869,2075,2243,2031,1799,1855,1979
138551,-44796,-16464,-47012,-14244,-3800,3800,-76,-137,-2,62,158,3915,-7,-1,918,1769,1869,2075,2243,2031,1799,1855,1979
139552,-44804,-16480,-47012,-14244,-3800,3800,-75,-139,-1,63,158,3906,-5,7,919,1769,1869,2075,2243,2031,1799,1855,1979
140553,-44796,-16476,-47012,-14244,-3800,3800,-76,-137,1,93,145,3926,-9,-6,920,1767,1870,2076,2243,2033,1799,1854,1978
141554,-44796,-16464,-47012,-14244,-3800,3800,-75,-136,1,53,129,3958,1,-4,920,1767,1870,2076,2243,2033,1799,1854,1978
142555,-44800,-16476,-47012,-14244,-3800,3800,-75,-138,3,68,154,3966,2,7,920,1767,1870,2076,2243,2033,1799,1854,1978
143556,-44800,-16488,-47012,-14244,-3800,3800,-74,-138,3,67,188,3934,9,-8,920,1767,1870,2076,2243,2033,1799,1854,1978
144557,-44792,-16480,-47012,-14244,-3800,3800,-75,-136,2,84,167,3891,4,2,920,1767,1870,2076,2243,2033,1799,1854,1978
145558,-44808,-16468,-47012,-14244,-3800,3800,-78,-134,2,78,152,3897,2,4,920,1767,1870,2076,2243,2033,1799,1854,1978
146559,-44800,-16476,-47012,-14244,-3800,3800,-79,-133,2,81,155,3911,-7,-4,920,1767,1869,2077,2243,2033,1799,1851,1975
147560,-44804,-16480,-47012,-14244,-3800,3800,-79,-133,3,61,175,3891,-9,7,920,1767,1869,2077,2243,2033,1799,1851,1975
148561,-44792,-16484,-47012,-14244,-3800,3800,-80,-133,6,60,170,3920,-9,0,920,1767,1869,2077,2243,2033,1799,1851,1975
149562,-44788,-16472,-47012,-14244,-3800,3800,-81,-134,8,48,150,3925,-7,-3,919,1767,1869,2077,2243,2033,1799,1851,1975
150564,-44792,-16480,-47012,-14244,-3800,3800,-81,-131,6,45,176,3894,3,5,919,1767,1869,2077,2243,2033,1799,1851,1975
151564,-44792,-16460,-47012,-14244,-3800,3800,-80,-132,6,68,187,3898,5,-8,920,1766,1868,2075,2242,2033,1800,1855,1978
152565,-44808,-16476,-47012,-14244,-3800,3800,-84,-131,7,46,157,3907,10,6,920,1766,1868,2075,2242,2033,1800,1855,1978
153566,-44792,-16468,-47012,-14244,-3800,3800,-85,-130,5,17,154,3896,5,-7,920,1766,1868,2075,2242,2033,1800,1855,1978
154567,-44784,-16472,-47012,-14244,-3800,3800,-84,-132,6,10,160,3932,8,0,920,1766,1868,2075,2242,2033,1800,1855,1978
155568,-44812,-16480,-47012,-14244,-3800,3800,-84,-133,9,18,179,3942,6,5,919,1766,1868,2075,2242,2033,1800,1855,1978
156569,-44792,-16468,-47012,-14244,-3800,3800,-86,-134,10,16,176,3943,10,-4,919,1766,1868,2075,2242,2033,1800,1855,1978
157570,-44796,-16472,-47012,-14244,-3800,3800,-85,-132,10,34,152,3903,7,-3,920,1765,1868,2074,2242,2033,1799,1854,1979
158571,-44796,-16472,-47012,-14244,-3800,3800,-85,-130,9,40,165,3914,3,2,920,1765,1868,2074,2242,2033,1799,1854,1979
159572,-44800,-16472,-47012,-14244,-3800,3800,-86,-129,7,26,143,3951,1,-8,920,1765,1868,2074,2242,2033,1799,1854,1979
160573,-44800,-16476,-47012,-14244,-3800,3800,-88,-129,8,36,158,3971,2,2,920,1765,1868,2074,2242,2033,1799,1854,1979
161574,-44792,-16484,-47012,-14244,-3800,3800,-88,-129,11,38,165,3945,-3,2,920,1765,1868,2074,2242,2033,1799,1854,1979
162575,-44796,-16468,-47012,-14244,-3800,3800,-90,-130,12,21,171,3921,-6,-7,920,1765,1868,2074,2242,2032,1799,1854,1978
163576,-44796,-16472,-47012,-14244,-3800,3800,-90,-130,11,23,177,3908,-6,0,919,1765,1868,2074,2242,2032,1799,1854,1978
164577,-44800,-16464,-47012,-14244,-3800,3800,-88,-130,8,23,164,3906,-9,3,919,1765,1868,2074,2242,2032,1799,1854,1978
165578,-44788,-16468,-47012,-14244,-3800,3800,-89,-130,8,25,152,3912,-6,-7,920,1765,1868,2074,2242,2032,1799,1854,1978
166579,-44796,-16476,-47012,-14244,-3800,3800,-91,-131,9,-8,162,3912,-3,3,920,1765,1868,2074,2242,2032,1799,1854,1978
167580,-44808,-16484,-47012,-14244,-3800,3800,-92,-129,9,-29,142,3924,8,-3,919,1765,1868,2074,2242,2032,1799,1854,1978
168581,-44796,-16472,-47012,-14244,-3800,3800,-91,-129,7,-5,143,3911,7,-6,919,1766,1868,2075,2242,2031,1799,1854,1978
169582,-44812,-16472,-47012,-14244,-3800,3800,-90,-131,8,-4,151,3940,1,6,920,1766,1868,2075,2242,2031,1799,1854,1978
170583,-44788,-16468,-47012,-14244,-3800,3800,-90,-131,8,-6,174,3921,-9,-4,920,1766,1868,2075,2242,2031,1799,1854,1978
171584,-44804,-16476,-47012,-14244,-3800,3800,-90,-131,6,-3,170,3934,-2,-5,920,1766,1868,2075,2242,2031,1799,1854,1978
172585,-44788,-16468,-47012,-14244,-3800,3800,-90,-130,5,14,162,3920,4,1,918,1766,1868,2075,2242,2031,1799,1854,1978
173586,-44792,-16476,-47012,-14244,-3800,3800,-92,-130,4,3,183,3930,2,7,918,1768,1869,2076,2243,2032,1799,1856,1978
174587,-44796,-16468,-47012,-14244,-3800,3800,-93,-131,4,-5,184,3923,5,-5,920,1768,1869,2076,2243,2032,1799,1856,1978
175588,-44784,-16468,-47012,-14244,-3800,3800,-92,-130,4,-33,135,3954,4,-8,920,1768,1869,2076,2243,2032,1799,1856,1978
176589,-44800,-16472,-47012,-14244,-3800,3800,-90,-132,3,-42,142,3973,8,6,920,1768,1869,2076,2243,2032,1799,1856,1978
177590,-44796,-16484,-47012,-14244,-3800,3800,-90,-132,5,-35,187,3961,10,0,920,1768,1869,2076,2243,2032,1799,1856,1978
178591,-44792,-16484,-47012,-14244,-3800,3800,-92,-132,4,-39,176,3954,9,-7,920,1768,1869,2076,2243,2032,1799,1856,1978
179592,-44792,-16480,-47012,-14244,-3800,3800,-92,-132,2,-45,165,3943,8,7,920,1767,1870,2075,2243,2031,1798,1854,1977
180593,-44804,-16480,-47012,-14244,-3800,3800,-92,-134,1,-3,167,3954,2,-5,920,1767,1870,2075,2243,2031,1798,1854,1977
181594,-44796,-16468,-47012,-14244,-3800,3800,-89,-133,0,2,168,3935,2,-5,920,1767,1870,2075,2243,2031,1798,1854,1977
182595,-44784,-16480,-47012,-14244,-3800,3800,-89,-134,-3,-24,157,3946,1,4,920,1767,1870,2075,2243,2031,1798,1854,1977
183596,-44796,-16464,-47012,-14244,-3800,3800,-91,-132,-1,-21,140,3952,-5,-7,920,1767,1870,2075,2243,2031,1798,1854,1977
184597,-44792,-16476,-47012,-14244,-3800,3800,-91,-135,1,-32,142,3944,3,1,920,1768,1872,2076,2244,2032,1798,1854,1977
185598,-44804,-16480,-47012,-14244,-3800,3800,-87,-136,-1,-20,147,3941,-9,-3,920,1768,1872,2076,2244,2032,1798,1854,1977
186599,-44800,-16476,-47012,-14244,-3800,3800,-88,-136,0,-41,174,3935,-9,-5,920,1768,1872,2076,2244,2032,1798,1854,1977
187600,-44804,-16480,-47012,-14244,-3800,3800,-87,-136,-1,-26,187,3933,-9,7,920,1768,1872,2076,2244,2032,1798,1854,1977
188601,-44808,-16480,-47012,-14244,-3800,3800,-88,-136,-2,-22,145,3962,-9,-8,920,1768,1872,2076,2244,2032,1798,1854,1977
189602,-44808,-16464,-47012,-14244,-3800,3800,-89,-135,-5,-25,154,3957,-6,0,918,1768,1872,2076,2244,2032,1798,1854,1977
190603,-44800,-16476,-47012,-14244,-3800,3800,-87,-137,-5,-25,162,3899,-9,7,918,1768,1870,2075,2244,2030,1797,1853,1977
191604,-44800,-16468,-47012,-14244,-3800,3800,-85,-136,-3,-11,171,3939,-9,-6,920,1768,1870,2075,2244,2030,1797,1853,1977
192605,-44792,-16468,-47012,-14244,-3800,3800,-84,-134,-3,-11,189,3922,-9,0,920,1768,1870,2075,2244,2030,1797,1853,1977
193606,-44800,-16476,-47012,-14244,-3800,3800,-85,-135,-3,-31,170,3954,-1,5,920,1768,1870,2075,2244,2030,1797,1853,1977
194607,-44796,-16476,-47012,-14244,-3800,3800,-83,-133,-3,-39,161,3953,-1,-6,920,1768,1870,2075,2244,2030,1797,1853,1977
195608,-44804,-16480,-47012,-14244,-3800,3800,-83,-135,-6,-4,141,3929,-2,6,920,1770,1871,2078,2246,2033,1800,1855,1978
196609,-44792,-16468,-47012,-14244,-3800,3800,-84,-136,-4,10,152,3934,-1,-7,920,1770,1871,2078,2246,2033,1800,1855,1978
197610,-44796,-16484,-47012,-14244,-3800,3800,-83,-135,-3,-22,131,3939,-8,7,920,1770,1871,2078,2246,2033,1800,1855,1978
198611,-44784,-16480,-47012,-14244,-3800,3800,-81,-133,-5,-25,133,3946,-9,-6,920,1770,1871,2078,2246,2033,1800,1855,1978
199612,-44796,-16476,-47012,-14244,-3800,3800,-82,-135,-2,4,140,3958,-9,0,920,1770,1871,2078,2246,2033,1800,1855,1978
200615,-44800,-16464,-47012,-14244,-3800,3800,-80,-139,1,7,146,3963,-9,2,920,1770,1871,2078,2246,2033,1800,1855,1978
201614,-44800,-16468,-47012,-14244,-3800,3800,-78,-140,-5,9,176,3911,-9,-7,920,1769,1870,2076,2244,2031,1797,1853,1977
202615,-44788,-16476,-30628,2140,3800,3800,-80,-138,-9,-3,172,3899,-9,7,920,1769,1870,2076,2244,2031,1797,1853,1977
203616,-44796,-16468,-30563,2205,3800,3800,-81,-135,-6,-3,155,3891,302,271,920,1769,1870,2076,2244,2031,1797,1853,1977
204617,-44736,-16448,-30498,2270,3800,3800,-81,-124,-6,-20,150,3869,313,312,800,1769,1870,2076,2244,2031,1797,1853,1977
205618,-44636,-16368,-30433,2335,3800,3800,-91,-163,10,-230,-183,3806,333,296,808,1769,1870,2076,2244,2031,1797,1853,1977
206619,-44476,-16188,-30368,2400,3800,3800,-104,-219,20,-269,52,3969,348,295,814,1767,1869,2075,2243,2031,1798,1853,1979
207620,-44276,-15992,-30303,2465,3800,3800,-113,-289,34,-561,20,4170,342,323,821,1767,1869,2075,2243,2031,1798,1853,1979
208621,-44052,-15776,-30238,2530,3800,3800,-114,-417,75,-730,-222,3973,352,341,831,1767,1869,2075,2243,2031,1798,1853,1979
209622,-43824,-15504,-30173,2595,3800,3800,-113,-511,84,-361,-280,3982,347,325,832,1767,1869,2075,2243,2031,1798,1853,1979
210623,-43504,-15240,-30108,2660,3800,3800,-104,-500,103,-319,-598,4335,358,350,840,1767,1869,2075,2243,2031,1798,1853,1979
211624,-43184,-14860,-30043,2725,3800,3800,-102,-550,90,229,-866,3102,345,315,844,1768,1872,2076,2240,2031,1798,1853,1979
212625,-42864,-14512,-29978,2790,3800,3800,-148,-632,98,-541,-476,3594,378,333,850,1768,1872,2076,2240,2044,1803,1869,2006
213626,-42480,-14132,-29913,2855,3800,3800,-167,-545,90,-780,-531,5043,377,346,854,1768,1872,2076,2240,2044,1803,1869,2006
214627,-42108,-13748,-29848,2920,3800,3800,-187,-565,81,532,-568,3097,389,359,856,1768,1872,2076,2240,2044,1803,1869,2006
215628,-41672,-13328,-29783,2985,3800,3800,-209,-597,76,257,-188,4883,396,337,858,1768,1872,2076,2240,2044,1803,1869,2006
216629,-41268,-12868,-29718,3050,3800,3800,-225,-588,56,-1045,-1006,4966,375,362,864,1768,1872,2076,2240,2044,1803,1869,2006
217630,-40796,-12400,-29653,3115,3800,3800,-214,-725,37,-80,-25,4166,365,380,868,1777,1885,2071,2225,2061,1811,1891,2034
218631,-40320,-11948,-29588,3180,3800,3800,-198,-681,22,169,-709,6300,380,382,871,1777,1885,2071,2225,2061,1811,1891,2034
219632,-39876,-11456,-29523,3245,3800,3800,-228,-755,-26,-690,-449,3692,404,375,872,1777,1885,2071,2225,2061,1811,1891,2034
220633,-39384,-10968,-29458,3310,3800,3800,-186,-594,-37,-488,418,7428,387,380,874,1777,1885,2071,2225,2061,1811,1891,2034
221634,-38864,-10440,-29393,3375,3800,3800,-187,-612,-25,-1138,-693,4065,393,369,877,1777,1885,2071,2225,2061,1811,1891,2034
222635,-38372,-9924,-29328,3440,3800,3800,-161,-663,-42,-407,-239,7347,419,386,879,1780,1898,2084,2256,2101,1853,1931,2072
223636,-37748,-9364,-29263,3505,3768,3800,-101,-590,-104,-1746,-177,6143,377,383,878,1780,1898,2084,2256,2101,1853,1931,2072
224637,-37268,-8816,-29198,3570,3800,3800,-27,-643,-105,-943,-493,6859,362,362,878,1780,1898,2084,2256,2101,1853,1931,2072
225638,-36712,-8292,-29133,3635,3518,3800,52,-681,-214,-1001,164,6933,383,364,881,1780,1898,2084,2256,2101,1853,1931,2072
226639,-36144,-7772,-29068,3700,2757,3800,214,-498,-191,398,-473,9242,264,365,881,1780,1898,2084,2256,2101,1853,1931,2072
227640,-35556,-7264,-29003,3765,1872,3800,333,-607,-138,-645,-617,5237,337,367,883,1780,1898,2084,2256,2101,1853,1931,2072
228641,-34996,-6676,-28938,3830,1620,3800,381,-531,-186,-955,-1029,9638,335,377,889,1856,1978,2204,2437,2133,1909,1979,2089
229642,-34440,-6160,-28873,3895,1073,3800,512,-516,-112,-2298,-370,4868,333,395,892,1856,1978,2204,2437,2133,1909,1979,2089
230643,-33904,-5616,-28808,3960,750,3800,536,-404,-282,650,442,9123,319,389,895,1856,1978,2204,2437,2133,1909,1979,2089
231644,-33340,-5124,-28743,4025,-207,3800,641,-393,-381,-1225,314,6169,310,365,895,1856,1978,2204,2437,2133,1909,1979,2089
232645,-32840,-4596,-28678,4090,63,3800,685,-444,-413,418,658,8650,296,362,896,1856,1978,2204,2437,2133,1909,1979,2089
233646,-32360,-4124,-28613,4155,-192,3800,778,-675,-489,187,1524,6417,309,347,882,2100,2200,2444,2768,2092,1904,1968,2031
234647,-31796,-3592,-28548,4220,-1850,3800,776,-893,-575,-1459,475,6084,299,341,896,2100,2200,2444,2768,2092,1904,1968,2031
235648,-31352,-3140,-28483,4285,-810,3800,901,-951,-641,-490,1117,7351,282,358,882,2100,2200,2444,2768,2092,1904,1968,2031
236649,-30900,-2668,-28418,4350,-1382,3800,864,-1105,-682,-435,-674,5590,272,368,893,2100,2200,2444,2768,2092,1904,1968,2031
237650,-30444,-2196,-28353,4415,-1908,3469,1118,-1037,-673,-1266,492,7286,272,357,891,2100,2200,2444,2768,2092,1904,1968,2031
238651,-30024,-1756,-28288,4480,-1890,3414,1322,-1260,-686,370,41,5604,268,143,892,2100,2200,2444,2768,2092,1904,1968,2031
239652,-29608,-1264,-28223,4545,-2269,2245,1574,-1390,-735,-149,-131,7936,263,149,892,2229,2297,2526,2799,2015,1805,1903,2005
240653,-29168,-880,-28158,4610,-3026,3207,1847,-1418,-722,722,-147,7417,253,225,891,2229,2297,2526,2799,2015,1805,1903,2005
241654,-28768,-504,-28093,4675,-2935,2930,2148,-1338,-830,2207,1289,7929,225,163,902,2229,2297,2526,2799,2015,1805,1903,2005
242655,-28356,-148,-28028,4740,-3508,2826,2339,-1393,-913,548,316,7480,217,191,892,2229,2297,2526,2799,2015,1805,1903,2005
243656,-28012,200,-27963,4805,-2999,2583,2516,-1431,-947,252,1402,9107,226,165,894,2229,2297,2526,2799,2015,1805,1903,2005
244657,-27668,488,-27898,4870,-3339,3063,2750,-1408,-931,272,3176,8115,209,164,895,2143,2247,2364,2574,1835,1619,1768,1855
245658,-27300,840,-27833,4935,-3800,1913,2924,-1484,-981,1815,1978,7244,204,128,896,2143,2247,2364,2574,1835,1619,1768,1855
246659,-26968,1124,-27768,5000,-3800,2498,3037,-1709,-1011,-146,2835,8308,197,164,890,2143,2247,2364,2574,1835,1619,1768,1855
247660,-26668,1388,-27703,5065,-3772,2507,3091,-1780,-1100,-1594,3452,7565,179,144,903,2143,2247,2364,2574,1835,1619,1768,1855
248661,-26368,1648,-27638,5130,-3800,2320,3264,-1734,-1157,254,3612,6816,166,139,895,2143,2247,2364,2574,1835,1619,1768,1855
249662,-26092,1884,-27573,5195,-3800,2412,3344,-1714,-1154,1756,3719,6872,176,127,895,2143,2247,2364,2574,1835,1619,1768,1855
250663,-25788,2096,-27508,5260,-3800,2534,3398,-1770,-1169,230,3510,4703,159,117,896,2138,2248,2352,2606,1818,1607,1767,1878
251664,-25524,2296,-27443,5325,-3800,2521,3485,-1778,-1239,-1168,2868,5291,170,109,894,2138,2248,2352,2606,1818,1607,1767,1878
252665,-25304,2512,-27378,5390,-3800,2138,3602,-1907,-1278,-1053,2586,4271,155,113,893,2138,2248,2352,2606,1818,1607,1767,1878
253666,-25068,2716,-27313,5455,-3800,2119,3717,-1958,-1309,-459,3017,4257,146,102,891,2138,2248,2352,2606,1818,1607,1767,1878
254667,-24840,2900,-27248,5520,-3800,2225,3945,-1890,-1234,-428,2865,4728,125,99,897,2138,2248,2352,2606,1818,1607,1767,1878
255668,-24624,3076,-27183,5585,-3800,2190,4095,-1917,-1194,425,2136,3275,140,90,897,2125,2191,2388,2612,1979,1781,1817,1952
256669,-24412,3244,-27118,5650,-3800,2166,4181,-2004,-1227,123,2186,3709,130,87,895,2125,2191,2388,2612,1979,1781,1817,1952
257670,-24224,3372,-27053,5715,-3800,2590,4249,-2004,-1232,-1037,2334,3611,105,89,895,2125,2191,2388,2612,1979,1781,1817,1952
258671,-24052,3496,-26988,5780,-3800,2569,4318,-1923,-1207,-2064,1959,4470,115,77,894,2125,2191,2388,2612,1979,1781,1817,1952
259672,-23900,3676,-26923,5845,-3800,1729,4552,-2019,-1195,-777,1992,4471,93,78,887,2125,2191,2388,2612,1979,1781,1817,1952
260673,-23748,3904,-26858,5910,-3800,930,4945,-2487,-1230,1420,1763,5466,90,89,889,2125,2191,2388,2612,1979,1781,1817,1952
261674,-23584,4092,-26793,5975,-3800,1281,5141,-2979,-1206,2283,2421,3929,99,96,902,1846,1894,2161,2269,2011,1785,1765,1893
262675,-23448,4264,-26728,6040,-3800,1351,5073,-3215,-1375,-979,1415,4515,87,90,911,1846,1894,2161,2269,2011,1785,1765,1893
263676,-23316,4396,-26663,6105,-3800,1771,4843,-3280,-1869,-3048,2034,4090,71,88,908,1846,1894,2161,2269,2011,1785,1765,1893
264677,-23180,4540,-26598,6170,-3800,1524,4484,-2852,-2184,-71,2929,4006,80,81,890,1846,1894,2161,2269,2011,1785,1765,1893
265678,-23072,4672,-26533,6235,-3800,1593,4177,-2410,-2047,2972,2657,2500,79,82,902,1846,1894,2161,2269,2011,1785,1765,1893
266679,-22956,4784,-26468,6300,-3800,1786,4047,-2585,-1822,1683,3121,3231,65,96,905,1704,1778,1984,2104,1943,1723,1809,1989
267680,-22852,4908,-26403,6365,-3800,1565,4142,-2853,-1742,-1106,3467,4692,51,87,904,1704,1778,1984,2104,1943,1723,1809,1989
268681,-22772,5064,-26338,6430,-3800,1055,4416,-2976,-1751,505,3570,3766,61,78,891,1704,1778,1984,2104,1943,1723,1809,1989
269682,-22680,5208,-26273,6495,-3800,1109,4680,-2901,-1674,1468,2539,4694,41,87,904,1704,1778,1984,2104,1943,1723,1809,1989
270683,-22616,5368,-26208,6560,-3800,794,4922,-2831,-1504,701,2435,3433,43,71,911,1704,1778,1984,2104,1943,1723,1809,1989
271684,-22536,5492,-26143,6625,-3800,1172,5005,-2871,-1338,-1082,2685,3060,52,71,910,1704,1778,1984,2104,1943,1723,1809,1989
272685,-22484,5632,-26078,6690,-3800,880,4957,-2866,-1267,-1423,2847,3137,38,75,905,1581,1734,1908,2004,2091,1807,1882,2063
273686,-22420,5740,-26013,6755,-3800,1229,4866,-2906,-1253,-1334,2678,1198,38,58,908,1581,1734,1908,2004,2091,1807,1882,2063
274687,-22360,5856,-25948,6820,-3800,1066,4778,-3014,-1260,-1041,2679,1540,24,57,910,1581,1734,1908,2004,2091,1807,1882,2063
275691,-22312,5936,-25883,6885,-3749,1499,4693,-3266,-1365,-1404,2431,867,24,55,906,1581,1734,1908,2004,2091,1807,1882,2063
276689,-22248,6032,-25818,6950,-3800,1261,4652,-3507,-1502,-2970,1898,833,22,63,905,1581,1734,1908,2004,2091,1807,1882,2063
277690,-22220,6128,-25753,7015,-3455,1223,4619,-3632,-1564,-2841,644,2360,26,58,904,1723,1865,2083,2206,2025,1746,1778,1940
278691,-22180,6224,-25688,7080,-3576,1186,4455,-3789,-1554,-1794,434,1534,18,65,908,1723,1865,2083,2206,2025,1746,1778,1940
279692,-22124,6312,-25623,7145,-3766,1258,4385,-4039,-1701,-576,2029,1967,14,69,908,1723,1865,2083,2206,2025,1746,1778,1940
280693,-22080,6404,-25558,7210,-3592,1175,4300,-4179,-1807,-688,202,1973,31,58,905,1723,1865,2083,2206,2025,1746,1778,1940
281694,-22072,6528,-25493,7275,-3074,704,4283,-4033,-1867,561,986,2947,15,65,907,1723,1865,2083,2206,2025,1746,1778,1940
282695,-22044,6636,-25428,7340,-3279,852,4255,-3951,-1846,1210,1430,2371,10,58,907,1723,1865,2083,2206,2025,1746,1778,1940
283696,-22020,6728,-25363,7405,-3181,1019,4168,-3905,-1815,1174,661,2041,19,54,913,1757,1849,2092,2193,1897,1671,1695,1834
284697,-22016,6824,-25298,7470,-2858,931,4093,-3826,-1807,942,1013,2702,25,53,910,1757,1849,2092,2193,1897,1671,1695,1834
285698,-22004,6916,-25233,7535,-2894,949,4041,-3782,-1779,167,1267,2133,20,51,910,1757,1849,2092,2193,1897,1671,1695,1834
286699,-21980,6996,-25168,7600,-2995,1081,3983,-3792,-1680,-362,1400,1817,3,42,911,1757,1849,2092,2193,1897,1671,1695,1834
287700,-21976,7048,-25103,7665,-2672,1447,3952,-3837,-1553,409,1601,1702,1,35,911,1757,1849,2092,2193,1897,1671,1695,1834
288701,-21956,7124,-25038,7730,-2819,1133,3926,-3967,-1431,119,1531,1350,4,50,908,1672,1734,1938,2056,1929,1715,1761,1881
289702,-21940,7228,-24973,7795,-2710,737,3936,-4080,-1286,-1186,1647,1668,4,54,905,1672,1734,1938,2056,1929,1715,1761,1881
290703,-21920,7300,-24908,7860,-2706,1128,3950,-4143,-1124,-1094,1829,1252,9,46,908,1672,1734,1938,2056,1929,1715,1761,1881
291704,-21904,7364,-24843,7925,-2597,1229,3993,-4239,-984,-691,2003,1224,12,43,911,1672,1734,1938,2056,1929,1715,1761,1881
292705,-21904,7428,-24778,7990,-2319,1231,4031,-4407,-860,-1211,2168,1253,7,40,906,1672,1734,1938,2056,1929,1715,1761,1881
293706,-21896,7504,-24713,8055,-2350,1067,4019,-4507,-778,-925,2386,1508,-1,52,908,1672,1734,1938,2056,1929,1715,1761,1881
294707,-21888,7592,-24648,8120,-2282,890,4007,-4517,-718,-387,2376,1627,-3,49,907,1557,1646,1843,1989,2013,1760,1803,1934
295708,-21900,7676,-24583,8185,-1940,917,4040,-4522,-641,-191,2063,1444,13,46,909,1557,1646,1843,1989,2013,1760,1803,1934
296709,-21884,7772,-24518,8250,-2231,729,4080,-4535,-588,-598,1331,1130,13,49,911,1557,1646,1843,1989,2013,1760,1803,1934
297710,-21896,7848,-24453,8315,-1788,966,4138,-4490,-578,-986,892,1616,12,37,911,1557,1646,1843,1989,2013,1760,1803,1934
298711,-21900,7920,-24388,8380,-1805,1007,4163,-4442,-572,-822,861,1429,12,31,913,1557,1646,1843,1989,2013,1760,1803,1934
299712,-21880,8008,-24323,8445,-2050,780,4155,-4380,-573,-341,635,1486,-7,40,910,1577,1696,1896,2003,1990,1704,1743,1890
300713,-21884,8064,-24258,8510,-1666,1191,4106,-4291,-560,-13,515,1441,-7,32,909,1577,1696,1896,2003,1990,1704,1743,1890
301714,-21860,8132,-24193,8575,-1967,1037,4052,-4194,-558,303,390,1344,-6,39,913,1577,1696,1896,2003,1990,1704,1743,1890
302715,-21860,8212,-24128,8640,-1589,869,4000,-4106,-572,336,378,1414,1,39,908,1577,1696,1896,2003,1990,1704,1743,1890
303716,-21852,8292,-24063,8705,-1620,851,3952,-4037,-587,287,540,1285,-6,43,910,1577,1696,1896,2003,1990,1704,1743,1890
304717,-21864,8352,-23998,8770,-1277,1107,3866,-3925,-589,870,804,1535,-5,39,911,1577,1696,1896,2003,1990,1704,1743,1890
305718,-21872,8424,-23933,8835,-1239,948,3753,-3833,-555,928,525,1225,-5,33,912,1705,1805,2024,2152,1857,1628,1673,1796
306719,-21868,8496,-23868,8900,-1316,941,3647,-3786,-473,-92,228,1320,-3,46,908,1705,1805,2024,2152,1857,1628,1673,1796
307720,-21868,8568,-23803,8965,-1187,932,3541,-3730,-338,-404,334,1190,-5,35,911,1705,1805,2024,2152,1857,1628,1673,1796
308721,-21880,8648,-23738,9030,-944,814,3438,-3677,-184,120,489,1278,-2,47,909,1705,1805,2024,2152,1857,1628,1673,1796
309722,-21872,8700,-23673,9095,-1125,1180,3324,-3660,-6,202,503,1356,-2,44,909,1705,1805,2024,2152,1857,1628,1673,1796
310723,-21884,8784,-23608,9160,-781,756,3205,-3668,167,-142,652,1093,1,50,912,1723,1782,2001,2159,1883,1700,1710,1823
311724,-21880,8860,-23543,9225,-908,843,3095,-3684,338,-454,872,1372,-3,54,908,1723,1782,2001,2159,1883,1700,1710,1823
312725,-21872,8944,-23478,9290,-889,721,2977,-3630,532,-210,888,1938,-6,40,912,1723,1782,2001,2159,1883,1700,1710,1823
313726,-21872,9036,-23413,9355,-710,588,2831,-3567,733,1232,1093,1913,-3,54,912,1723,1782,2001,2159,1883,1700,1710,1823
314727,-21864,9128,-23348,9420,-741,555,2726,-3464,858,1341,1348,2021,3,54,913,1723,1782,2001,2159,1883,1700,1710,1823
315728,-21880,9208,-23283,9485,-343,687,2596,-3388,917,441,1462,2429,10,46,915,1723,1782,2001,2159,1883,1700,1710,1823
316729,-21868,9288,-23218,9550,-628,668,2414,-3325,987,-291,786,2049,13,43,915,1610,1665,1888,2048,1855,1640,1652,1709
317730,-21880,9384,-23153,9615,-235,430,2214,-3147,1077,802,637,2664,13,38,914,1610,1665,1888,2048,1855,1640,1652,1709
318731,-21876,9452,-23088,9680,-361,777,1965,-2939,1182,1216,438,2582,5,43,914,1610,1665,1888,2048,1855,1640,1652,1709
319732,-21880,9536,-23023,9745,-178,554,1679,-2751,1275,960,174,2916,12,40,916,1610,1665,1888,2048,1855,1640,1652,1709
320733,-21888,9608,-22958,9810,-39,695,1365,-2537,1348,868,-15,2991,4,49,912,1610,1665,1888,2048,1855,1640,1652,1709
321734,-21876,9676,-22893,9875,-224,741,1057,-2325,1413,666,-266,3104,10,39,908,1643,1709,1946,2112,1584,1414,1458,1522
322735,-21880,9756,-22828,9940,59,573,747,-2094,1489,805,-599,3429,11,39,913,1643,1709,1946,2112,1584,1414,1458,1522
323736,-21868,9816,-22763,10005,-76,830,440,-1858,1569,1186,-840,3334,13,35,904,1643,1709,1946,2112,1584,1414,1458,1522
324737,-21872,9920,-22698,10070,208,233,148,-1609,1649,1008,-945,3268,-2,46,914,1643,1709,1946,2112,1584,1414,1458,1522
325739,-21872,9968,-22633,10135,237,953,-122,-1349,1736,675,-1044,2918,14,35,907,1643,1709,1946,2112,1584,1414,1458,1522
326739,-21868,10044,-22568,10200,261,590,-397,-1140,1816,557,-1162,2546,9,35,914,1643,1709,1946,2112,1584,1414,1458,1522
327740,-21868,10164,-22503,10265,390,-27,-720,-976,1896,64,-956,2496,15,48,909,1710,1783,2020,2193,1553,1393,1449,1537
328741,-21880,10288,-22438,10330,633,-149,-1077,-781,2007,-942,-554,2137,5,38,913,1710,1783,2020,2193,1553,1393,1449,1537
329742,-21864,10448,-22373,10395,343,-715,-1375,-437,2139,150,-608,1409,20,50,916,1710,1783,2020,2193,1553,1393,1449,1537
330743,-21856,10616,-22308,10460,513,-941,-1727,-222,2176,2134,-1014,867,24,45,913,1710,1783,2020,2193,1553,1393,1449,1537
331744,-21824,10828,-22243,10525,253,-1670,-2155,-304,2122,1403,-1170,612,11,30,910,1710,1783,2020,2193,1553,1393,1449,1537
332745,-21820,10904,-22178,10590,677,16,-2532,-318,2126,-15,-1094,1831,20,19,905,1847,1897,2150,2365,1636,1485,1559,1664
333746,-21804,10940,-22113,10655,587,551,-2811,-61,2140,101,-883,2228,15,21,896,1847,1897,2150,2365,1636,1485,1559,1664
334747,-21772,10968,-22048,10720,427,696,-3081,205,2011,712,-1156,549,30,25,913,1847,1897,2150,2365,1636,1485,1559,1664
335748,-21740,10984,-21983,10785,467,906,-3250,415,1869,1021,-1162,1789,13,16,910,1847,1897,2150,2365,1636,1485,1559,1664
336749,-21712,11000,-21918,10850,562,965,-3293,635,1830,1341,-407,1778,20,28,910,1847,1897,2150,2365,1636,1485,1559,1664
337750,-21684,11020,-21853,10915,607,970,-3258,937,1813,1393,71,1392,16,23,907,1847,1897,2150,2365,1636,1485,1559,1664
338751,-21644,11020,-21788,10980,488,1300,-3193,1244,1794,1503,180,1692,34,31,906,1730,1784,1986,2105,2024,1824,1860,2009
339752,-21604,10976,-21723,11045,518,1983,-3081,1430,1779,1555,151,1718,25,47,905,1730,1784,1986,2105,2024,1824,1860,2009
340753,-21564,11004,-21658,11110,549,1128,-2951,1426,1791,999,167,1649,32,52,903,1730,1784,1986,2105,2024,1824,1860,2009
341754,-21512,11072,-21593,11175,415,624,-2788,1419,1900,-156,718,2223,42,55,893,1730,1784,1986,2105,2024,1824,1860,2009
342755,-21472,11176,-21528,11240,595,127,-2566,1462,2102,227,1685,1534,35,63,902,1730,1784,1986,2105,2024,1824,1860,2009
343756,-21412,11268,-21463,11305,351,244,-2406,1507,2260,885,1790,1414,34,66,909,1424,1517,1725,1864,2261,1970,1947,2036
344757,-21360,11372,-21398,11370,467,46,-2324,1571,2312,1243,1727,1455,47,70,913,1424,1517,1725,1864,2261,1970,1947,2036
345758,-21296,11464,-21333,11435,318,163,-2281,1678,2383,1339,1596,1292,44,69,915,1424,1517,1725,1864,2261,1970,1947,2036
346759,-21240,11584,-21268,11500,429,-254,-2286,1821,2441,958,2017,1727,32,67,915,1424,1517,1725,1864,2261,1970,1947,2036
347760,-21192,11696,-21203,11565,550,-211,-2332,1931,2464,-331,1546,1292,30,67,916,1424,1517,1725,1864,2261,1970,1947,2036
348761,-21116,11840,-21138,11630,187,-708,-2436,1975,2420,655,1246,1335,35,67,914,1424,1517,1725,1864,2261,1970,1947,2036
349762,-21056,11932,-21073,11695,393,-91,-2551,2028,2302,1508,695,1217,30,54,913,1472,1576,1808,2019,1922,1700,1701,1749
350763,-20980,12040,-21008,11760,179,-343,-2660,2098,2221,1545,244,1279,39,46,911,1472,1576,1808,2019,1922,1700,1701,1749
351764,-20912,12104,-20943,11825,276,208,-2816,2223,2146,1644,-130,1437,42,51,915,1472,1576,1808,2019,1922,1700,1701,1749
352765,-20848,12164,-20878,11890,327,264,-2973,2394,2034,1357,-749,1306,30,48,915,1472,1576,1808,2019,1922,1700,1701,1749
353766,-20776,12228,-20813,11955,218,215,-3158,2612,1880,1518,-692,1856,41,46,916,1472,1576,1808,2019,1922,1700,1701,1749
354767,-20728,12300,-20748,12020,539,106,-3294,2887,1769,1928,-821,1562,47,43,915,1740,1817,2067,2271,1741,1562,1597,1694
355768,-20668,12384,-20683,12085,395,-67,-3410,3151,1703,2344,-775,1894,34,44,917,1740,1817,2067,2271,1741,1562,1597,1694
356769,-20608,12452,-20618,12150,401,129,-3506,3349,1670,1808,-1016,1736,48,44,914,1740,1817,2067,2271,1741,1562,1597,1694
357770,-20536,12488,-20553,12215,243,564,-3594,3472,1648,1064,-786,1506,41,42,916,1740,1817,2067,2271,1741,1562,1597,1694
358771,-20484,12556,-20488,12280,509,161,-3646,3594,1678,608,-536,1626,35,53,916,1740,1817,2067,2271,1741,1562,1597,1694
359772,-20400,12616,-20423,12345,85,267,-3675,3668,1753,636,25,1270,49,55,912,1740,1817,2067,2271,1741,1562,1597,1694
360773,-20348,12704,-20358,12410,501,-111,-3662,3719,1831,505,442,1625,35,57,913,1824,1883,2133,2304,1835,1667,1713,1829
361774,-20272,12780,-20293,12475,188,25,-3632,3788,1890,399,806,1589,42,47,917,1824,1883,2133,2304,1835,1667,1713,1829
362775,-20192,12884,-20228,12540,120,-372,-3575,3893,1945,723,1192,1907,37,51,914,1824,1883,2133,2304,1835,1667,1713,1829
363776,-20132,12988,-20163,12605,376,-421,-3494,4004,2023,838,1698,1954,39,50,918,1824,1883,2133,2304,1835,1667,1713,1829
364777,-20056,13076,-20098,12670,162,-249,-3421,4072,2072,1005,2142,2065,47,48,915,1824,1883,2133,2304,1835,1667,1713,1829
365778,-19984,13156,-20033,12735,204,-167,-3349,4151,2064,1078,2339,2200,39,35,914,1581,1681,1864,2012,2072,1842,1863,1947
366779,-19920,13232,-19968,12800,305,-131,-3296,4240,2031,1373,2311,2360,45,41,916,1581,1681,1864,2012,2072,1842,1863,1947
367780,-19860,13316,-19903,12865,361,-254,-3235,4344,1974,1920,2491,2317,44,33,917,1581,1681,1864,2012,2072,1842,1863,1947
368781,-19776,13376,-19838,12930,37,52,-3185,4457,1914,2027,2198,2450,32,32,916,1581,1681,1864,2012,2072,1842,1863,1947
369782,-19696,13416,-19773,12995,69,332,-3122,4597,1829,2336,1842,2579,30,40,915,1581,1681,1864,2012,2072,1842,1863,1947
370783,-19648,13460,-19708,13060,489,307,-3076,4720,1718,2407,1525,2581,27,42,919,1581,1681,1864,2012,2072,1842,1863,1947
371784,-19568,13504,-19643,13125,71,333,-3039,4863,1614,2364,1349,2589,31,45,917,1504,1591,1805,1997,2061,1815,1822,1913
372785,-19480,13568,-19578,13190,-57,84,-2991,5022,1486,2419,1382,2220,34,41,914,1504,1591,1805,1997,2061,1815,1822,1913
373786,-19420,13612,-19513,13255,299,360,-2950,5150,1364,2414,886,2303,27,39,916,1504,1591,1805,1997,2061,1815,1822,1913
374787,-19364,13656,-19448,13320,360,385,-2918,5320,1287,2540,246,2734,38,37,918,1504,1591,1805,1997,2061,1815,1822,1913
375788,-19304,13720,-19383,13385,316,137,-2904,5447,1257,2176,-62,2354,36,33,915,1504,1591,1805,1997,2061,1815,1822,1913
376789,-19236,13780,-19318,13450,212,192,-2932,5526,1229,1710,372,1951,32,47,913,1606,1697,1963,2158,1901,1687,1685,1767
377790,-19164,13844,-19253,13515,154,143,-3009,5583,1220,1336,304,1728,30,46,914,1606,1697,1963,2158,1901,1687,1685,1767
378791,-19096,13904,-19188,13580,200,199,-3158,5611,1257,1608,-132,1963,31,32,917,1606,1697,1963,2158,1901,1687,1685,1767
379792,-19052,13972,-19123,13645,526,95,-3352,5559,1306,1502,192,2072,41,33,917,1606,1697,1963,2158,1901,1687,1685,1767
380793,-18980,14068,-19058,13710,167,-293,-3576,5543,1362,868,663,2444,30,32,917,1606,1697,1963,2158,1901,1687,1685,1767
381794,-18916,14172,-18993,13775,269,-440,-3795,5545,1426,1157,1025,2666,47,32,914,1606,1697,1963,2158,1901,1687,1685,1767
382795,-18848,14276,-18928,13840,215,-488,-3990,5553,1484,1549,1007,2916,27,33,916,1832,1924,2178,2369,1776,1608,1661,1784
383796,-18788,14392,-18863,13905,321,-701,-4143,5603,1513,1993,1182,3268,26,41,914,1832,1924,2178,2369,1776,1608,1661,1784
384797,-18748,14440,-18798,13970,601,170,-4251,5673,1503,2179,1504,3521,35,27,914,1832,1924,2178,2369,1776,1608,1661,1784
385798,-18672,14492,-18733,14035,138,136,-4300,5745,1478,2002,1522,3869,37,34,911,1832,1924,2178,2369,1776,1608,1661,1784
386799,-18632,14528,-18668,14100,619,371,-4304,5877,1441,2627,1630,4476,31,36,913,1832,1924,2178,2369,1776,1608,1661,1784
387800,-18572,14572,-18603,14165,375,297,-4263,5996,1393,3517,1827,4055,42,37,918,1727,1822,2033,2149,2070,1831,1884,2084
388801,-18496,14616,-18538,14230,161,322,-4192,5969,1324,3173,2179,3583,45,38,912,1727,1822,2033,2149,2070,1831,1884,2084
389802,-18452,14664,-18473,14295,587,292,-4118,5924,1241,2390,2309,3932,45,37,914,1727,1822,2033,2149,2070,1831,1884,2084
390803,-18396,14712,-18408,14360,448,313,-4009,5927,1138,2454,2595,3738,26,31,916,1727,1822,2033,2149,2070,1831,1884,2084
391804,-18324,14768,-18343,14425,239,224,-3908,5952,1033,2808,2755,3681,47,41,913,1727,1822,2033,2149,2070,1831,1884,2084
392805,-18276,14828,-18278,14490,560,180,-3840,5895,949,2734,2971,3254,45,37,914,1727,1822,2033,2149,2070,1831,1884,2084
393806,-18212,14900,-18213,14555,361,21,-3755,5837,853,2316,2872,3526,38,43,914,1576,1707,1923,2023,2404,2071,2072,2273
394807,-18164,14932,-18148,14620,582,562,-3719,5740,772,1863,2849,3280,38,37,912,1576,1707,1923,2023,2404,2071,2072,2273
395808,-18104,14992,-18083,14685,438,218,-3743,5596,711,1958,3163,3563,39,36,916,1576,1707,1923,2023,2404,2071,2072,2273
396809,-18052,15052,-18018,14750,554,224,-3814,5460,665,1778,2882,3621,43,32,910,1576,1707,1923,2023,2404,2071,2072,2273
397810,-17988,15116,-17953,14815,405,174,-3924,5377,623,1666,2809,3855,37,44,915,1576,1707,1923,2023,2404,2071,2072,2273
398811,-17928,15184,-17888,14880,461,120,-4090,5260,612,1618,2541,3728,37,46,913,1586,1729,1982,2130,2217,1905,1900,2051
399812,-17868,15248,-17823,14945,467,172,-4255,5053,604,1401,2158,3858,28,37,915,1586,1729,1982,2130,2217,1905,1900,2051
400813,-17792,15308,-17758,15010,254,228,-4394,4726,624,806,1540,4405,30,46,915,1586,1729,1982,2130,2217,1905,1900,2051
401814,-17744,15364,-17693,15075,625,289,-4451,4263,762,-206,1026,4753,49,46,915,1586,1729,1982,2130,2217,1905,1900,2051
402815,-17692,15444,-17628,15140,591,-30,-4410,3631,924,-1763,-18,5461,34,42,916,1586,1729,1982,2130,2217,1905,1900,2051
403816,-17636,15500,-17563,15205,552,281,-4253,2906,1003,-2966,-169,7342,50,52,913,1586,1729,1982,2130,2217,1905,1900,2051
404817,-17540,15588,-17498,15270,14,-147,-3956,2190,993,-2349,152,8848,40,50,914,1730,1880,2136,2221,1985,1729,1768,1985
405818,-17460,15672,-17433,15335,195,-121,-3614,1783,1018,330,42,10517,40,43,913,1730,1880,2136,2221,1985,1729,1768,1985
406819,-17420,15756,-17368,15400,726,-144,-3334,1397,1070,2560,676,9583,36,36,918,1730,1880,2136,2221,1985,1729,1768,1985
407820,-17344,15848,-17303,15465,263,-277,-3167,1040,1078,2078,1321,9553,39,52,917,1730,1880,2136,2221,1985,1729,1768,1985
408821,-17264,15932,-17238,15530,194,-200,-3120,789,1063,1942,2055,8802,41,48,913,1730,1880,2136,2221,1985,1729,1768,1985
409822,-17188,16012,-17173,15595,231,-169,-3131,645,1044,3028,2795,8788,34,52,916,2023,2266,2439,2551,1946,1675,1909,2169
410824,-17132,16096,-17108,15660,492,-242,-3160,505,1032,3843,3348,8081,50,40,915,2023,2266,2439,2551,1946,1675,1909,2169
411824,-17056,16164,-17043,15725,228,-45,-3201,356,986,3205,3671,7836,46,36,914,2023,2266,2439,2551,1946,1675,1909,2169
412825,-17004,16248,-16978,15790,544,-270,-3219,145,904,1842,3907,7292,38,41,917,2023,2266,2439,2551,1946,1675,1909,2169
413826,-16936,16336,-16913,15855,341,-348,-3232,-186,854,1097,3719,6364,50,49,913,2023,2266,2439,2551,1946,1675,1909,2169
414827,-16868,16404,-16848,15920,337,-101,-3182,-671,819,636,3405,5975,41,44,914,2023,2266,2439,2551,1946,1675,1909,2169
415828,-16796,16480,-16783,15985,278,-215,-3051,-1244,812,-797,3085,6038,40,38,916,2904,3138,3003,3224,2187,1897,2224,2457
416829,-16752,16544,-16718,16050,654,-64,-2836,-1769,836,-1972,2247,6881,37,51,916,2904,3138,3003,3224,2187,1897,2224,2457
417830,-16672,16624,-16653,16115,186,-283,-2549,-2248,852,-2553,1650,7230,53,35,913,2904,3138,3003,3224,2187,1897,2224,2457
418831,-16608,16684,-16588,16180,387,-27,-2210,-2716,878,-2485,692,8024,44,34,916,2904,3138,3003,3224,2187,1897,2224,2457
419832,-16548,16768,-16523,16245,443,-350,-1849,-3105,928,-2217,-114,8736,43,42,916,2904,3138,3003,3224,2187,1897,2224,2457
420833,-16488,16848,-16458,16310,449,-318,-1474,-3434,976,-1873,-550,8808,54,48,913,2699,2859,2831,2967,2283,1961,2083,2229
421834,-16424,16924,-16393,16375,400,-282,-1125,-3678,1006,-1972,-923,9103,55,34,913,2699,2859,2831,2967,2283,1961,2083,2229
422835,-16352,16968,-16328,16440,292,143,-837,-3831,1033,-1614,-1347,9239,57,40,914,2699,2859,2831,2967,2283,1961,2083,2229
423836,-16276,17028,-16263,16505,228,-51,-620,-3960,1036,-781,-1163,8343,53,33,916,2699,2859,2831,2967,2283,1961,2083,2229
424837,-16196,17072,-16198,16570,160,175,-488,-4122,1026,-605,-714,7650,58,34,918,2699,2859,2831,2967,2283,1961,2083,2229
425840,-16104,17084,-16133,16635,-23,639,-453,-4252,1000,-839,-371,7235,45,42,917,2699,2859,2831,2967,2283,1961,2083,2229
426839,-16004,17100,-16068,16700,-166,649,-476,-4314,964,-393,-84,6316,41,43,913,2127,2200,2360,2544,1904,1698,1750,1804
427840,-15928,17148,-16003,16765,121,270,-562,-4316,970,917,-162,5638,50,46,899,2127,2200,2360,2544,1904,1698,1750,1804
428841,-15840,17224,-15938,16830,-57,-94,-631,-4247,974,1657,-134,5015,39,47,916,2127,2200,2360,2544,1904,1698,1750,1804
429842,-15744,17280,-15873,16895,-195,167,-726,-4095,995,844,124,4732,56,36,918,2127,2200,2360,2544,1904,1698,1750,1804
430843,-15684,17344,-15808,16960,261,68,-850,-3857,1015,1153,244,4695,50,37,903,2127,2200,2360,2544,1904,1698,1750,1804
431844,-15588,17396,-15743,17025,-227,234,-961,-3524,1025,2096,284,4903,57,38,916,1879,1896,2080,2333,1761,1645,1696,1729
432845,-15516,17432,-15678,17090,65,469,-1034,-3189,1067,2022,96,4756,57,41,899,1879,1896,2080,2333,1761,1645,1696,1729
433846,-15456,17476,-15613,17155,221,395,-1079,-2883,1046,1592,251,4988,56,45,915,1879,1896,2080,2333,1761,1645,1696,1729
434847,-15356,17528,-15548,17220,-322,311,-1087,-2676,976,665,10,4109,54,33,915,1879,1896,2080,2333,1761,1645,1696,1729
435848,-15300,17596,-15483,17285,239,106,-1035,-2595,912,236,-56,4183,49,44,916,1879,1896,2080,2333,1761,1645,1696,1729
436849,-15216,17696,-15418,17350,-134,-337,-924,-2728,883,-1019,-27,3292,41,37,918,1879,1896,2080,2333,1761,1645,1696,1729
437850,-15144,17772,-15353,17415,6,-50,-788,-2910,836,-2032,-144,3082,42,40,907,1653,1676,1932,2166,2090,1939,1908,2008
438851,-15068,17872,-15288,17480,-57,-393,-647,-3021,778,-2275,-326,2932,33,41,918,1653,1676,1932,2166,2090,1939,1908,2008
439852,-15000,17948,-15223,17545,39,-106,-519,-3046,705,-1986,-321,2273,35,42,915,1653,1676,1932,2166,2090,1939,1908,2008
440853,-14924,18032,-15158,17610,-74,-230,-409,-2954,617,-1417,-364,2077,32,31,918,1653,1676,1932,2166,2090,1939,1908,2008
441854,-14860,18112,-15093,17675,77,-198,-327,-2769,557,-844,-310,2321,37,39,915,1653,1676,1932,2166,2090,1939,1908,2008
442855,-14780,18132,-15028,17740,-141,606,-294,-2547,520,-394,-316,1804,39,36,917,1576,1677,1968,2160,2299,2013,1981,2098
443856,-14680,18152,-14963,17805,-434,661,-291,-2264,494,-480,-335,2487,46,40,903,1576,1677,1968,2160,2299,2013,1981,2098
444857,-14632,18172,-14898,17870,237,716,-338,-1847,474,189,227,2568,42,29,911,1576,1677,1968,2160,2299,2013,1981,2098
445858,-14560,18252,-14833,17935,-72,-52,-425,-1295,486,1150,-6,2184,51,42,911,1576,1677,1968,2160,2299,2013,1981,2098
446859,-14480,18336,-14768,18000,-190,-126,-544,-640,531,1714,-448,2147,42,38,916,1576,1677,1968,2160,2299,2013,1981,2098
447860,-14380,18412,-14703,18065,-483,-39,-683,-7,617,1993,-516,2459,33,32,903,1691,1821,2010,2170,1991,1729,1761,1837
448861,-14328,18480,-14638,18130,132,57,-822,579,693,1693,-782,2628,50,35,918,1691,1821,2010,2170,1991,1729,1761,1837
449862,-14280,18532,-14573,18195,203,272,-1001,1007,718,880,-872,2617,37,33,917,1691,1821,2010,2170,1991,1729,1761,1837
450863,-14204,18588,-14508,18260,-161,233,-1169,1278,761,285,-1043,2368,38,39,916,1691,1821,2010,2170,1991,1729,1761,1837
451864,-14140,18648,-14244,18524,234,432,-1283,1339,778,-124,-1143,2879,49,40,905,1691,1821,2010,2170,1991,1729,1761,1837
452868,-14048,18708,-14179,18589,-149,438,-1355,1287,795,-832,-1357,2689,30,44,914,1691,1821,2010,2170,1991,1729,1761,1837
453866,-13996,18788,-14114,18654,366,170,-1393,1121,803,-1054,-1652,2559,50,45,905,1683,1725,1942,2166,1769,1614,1624,1656
454867,-13944,18856,-14049,18719,382,316,-1408,954,803,-1808,-1511,2640,32,50,915,1683,1725,1942,2166,1769,1614,1624,1656
455868,-13868,18932,-13984,18784,69,203,-1405,847,813,-1633,-1251,2732,36,35,914,1683,1725,1942,2166,1769,1614,1624,1656
456869,-13800,19020,-13919,18849,165,25,-1385,837,818,-719,-1255,3103,47,42,917,1683,1725,1942,2166,1769,1614,1624,1656
457870,-13736,19068,-13854,18914,216,546,-1362,906,816,-29,-1322,2763,31,33,917,1683,1725,1942,2166,1769,1614,1624,1656
458871,-13672,19156,-13789,18979,218,17,-1313,994,787,494,-1341,3125,32,32,913,1597,1624,1880,2122,1920,1774,1782,1848
459872,-13612,19240,-13724,19044,274,44,-1241,1129,766,773,-1355,2828,40,46,917,1597,1624,1880,2122,1920,1774,1782,1848
460873,-13556,19324,-13659,19109,335,21,-1162,1302,762,1102,-1135,2888,38,45,915,1597,1624,1880,2122,1920,1774,1782,1848
461874,-13492,19396,-13594,19174,236,163,-1090,1478,767,1616,-1191,2688,27,33,914,1597,1624,1880,2122,1920,1774,1782,1848
462875,-13436,19480,-13529,19239,347,-12,-1039,1665,802,1500,-1184,2524,44,33,916,1597,1624,1880,2122,1920,1774,1782,1848
463876,-13340,19552,-13464,19304,-192,130,-999,1829,841,1744,-771,2677,40,45,916,1597,1624,1880,2122,1920,1774,1782,1848
464877,-13320,19616,-13399,19369,813,231,-972,1986,906,1466,-800,2737,47,30,903,1697,1770,2002,2251,2084,1868,1946,2040
465878,-13284,19684,-13334,19434,648,177,-955,2114,972,1020,-605,2890,30,32,910,1697,1770,2002,2251,2084,1868,1946,2040
466879,-13196,19752,-13269,19499,-30,174,-942,2195,1049,665,-536,2881,48,45,912,1697,1770,2002,2251,2084,1868,1946,2040
467880,-13148,19812,-13204,19564,491,280,-935,2182,1115,166,-655,2853,32,44,917,1697,1770,2002,2251,2084,1868,1946,2040
468881,-13080,19872,-13139,19629,237,286,-933,2122,1174,-893,-801,2852,25,28,913,1697,1770,2002,2251,2084,1868,1946,2040
469882,-13016,19952,-13074,19694,289,18,-944,2004,1238,-1457,-927,2953,34,35,915,1805,1943,2094,2291,2043,1775,1875,1980
470883,-12960,19996,-13009,19759,400,493,-948,1837,1276,-1633,-1240,3000,36,38,916,1805,1943,2094,2291,2043,1775,1875,1980
471884,-12904,20072,-12944,19824,411,80,-947,1681,1256,-1719,-1518,3286,43,36,913,1805,1943,2094,2291,2043,1775,1875,1980
472885,-12852,20136,-12879,19889,477,230,-937,1529,1220,-1289,-2019,3620,41,40,915,1805,1943,2094,2291,2043,1775,1875,1980
473886,-12772,20188,-12814,19954,108,396,-918,1384,1171,-521,-2085,3891,33,30,914,1805,1943,2094,2291,2043,1775,1875,1980
474887,-12716,20252,-12749,20019,419,247,-860,1265,1099,-203,-2310,4295,30,34,915,1805,1943,2094,2291,2043,1775,1875,1980
475888,-12664,20320,-12684,20084,485,193,-791,1188,1026,124,-2595,4844,24,26,914,1849,1988,2123,2266,1900,1647,1751,1889
476889,-12608,20372,-12619,20149,446,409,-682,1126,961,431,-2821,5172,32,29,914,1849,1988,2123,2266,1900,1647,1751,1889
477890,-12536,20424,-12554,20214,238,425,-586,1120,895,858,-2649,5556,29,29,912,1849,1988,2123,2266,1900,1647,1751,1889
478891,-12488,20484,-12489,20279,558,331,-482,1125,834,1449,-2443,5705,31,33,913,1849,1988,2123,2266,1900,1647,1751,1889
479892,-12416,20536,-12424,20344,250,447,-404,1082,817,1362,-2257,5570,32,41,912,1849,1988,2123,2266,1900,1647,1751,1889
480893,-12360,20588,-12359,20409,461,463,-356,959,821,1079,-1918,5273,34,41,914,1857,1960,2115,2310,1882,1679,1803,1895
481894,-12304,20664,-12294,20474,472,150,-337,799,825,735,-1516,4989,29,41,912,1857,1960,2115,2310,1882,1679,1803,1895
482895,-12260,20728,-12229,20539,647,301,-351,567,854,453,-1241,4622,28,42,914,1857,1960,2115,2310,1882,1679,1803,1895
483896,-12212,20788,-12164,20604,618,357,-369,314,915,325,-996,4619,29,37,911,1857,1960,2115,2310,1882,1679,1803,1895
484897,-12144,20844,-12099,20669,364,417,-381,40,965,317,-868,4442,27,38,911,1857,1960,2115,2310,1882,1679,1803,1895
485898,-12076,20896,-12034,20734,361,483,-375,-189,999,73,-927,4649,47,28,913,1857,1960,2115,2310,1882,1679,1803,1895
486899,-12036,20972,-11969,20799,741,169,-349,-401,1048,27,-1001,4484,37,40,913,1987,2075,2217,2511,2001,1834,1970,2041
487900,-11968,21020,-11904,20864,388,540,-274,-568,1086,217,-1226,4721,32,33,911,1987,2075,2217,2511,2001,1834,1970,2041
488901,-11916,21076,-11839,20929,603,451,-175,-675,1106,143,-1400,4816,43,41,912,1987,2075,2217,2511,2001,1834,1970,2041
489902,-11860,21140,-11774,20994,564,352,-56,-762,1111,24,-1732,4964,28,34,911,1987,2075,2217,2511,2001,1834,1970,2041
490903,-11812,21208,-11709,21059,685,299,92,-799,1095,48,-2079,5410,47,42,912,1987,2075,2217,2511,2001,1834,1970,2041
491904,-11744,21244,-11644,21124,432,734,242,-792,1051,77,-2317,5486,36,41,911,1974,2077,2233,2475,2169,1920,2019,2129
492905,-11692,21328,-11579,21189,647,111,389,-777,992,-48,-2566,5664,42,27,909,1974,2077,2233,2475,2169,1920,2019,2129
493906,-11632,21380,-11514,21254,554,527,527,-756,925,-188,-2682,5987,46,38,912,1974,2077,2233,2475,2169,1920,2019,2129
494907,-11560,21416,-11449,21319,395,762,632,-755,855,-337,-2671,6000,42,43,910,1974,2077,2233,2475,2169,1920,2019,2129
495908,-11508,21492,-11384,21384,661,249,730,-770,790,-530,-2598,6178,41,43,908,1974,2077,2233,2475,2169,1920,2019,2129
496909,-11436,21536,-11319,21449,403,674,802,-806,726,-587,-2582,6248,43,45,911,1974,2077,2233,2475,2169,1920,2019,2129
497910,-11392,21600,-11254,21514,779,426,848,-809,650,-517,-2512,6335,30,33,911,1922,2050,2212,2407,2040,1786,1873,1965
498911,-11332,21672,-11189,21579,585,317,864,-790,576,-508,-2406,6187,34,47,909,1922,2050,2212,2407,2040,1786,1873,1965
499912,-11260,21748,-11124,21644,427,254,847,-766,514,-393,-2168,6106,47,39,912,1922,2050,2212,2407,2040,1786,1873,1965
500915,-11196,21804,-11059,21709,528,515,809,-738,471,-210,-1878,5880,53,34,914,1922,2050,2212,2407,2040,1786,1873,1965
501914,-11136,21868,-10994,21774,584,416,752,-680,452,-191,-1675,5844,49,44,911,1922,2050,2212,2407,2040,1786,1873,1965
502915,-11056,21920,-10929,21839,316,582,684,-618,438,114,-1625,5503,32,41,911,1935,2043,2201,2454,1926,1734,1836,1896
503916,-10984,22016,-10864,21904,407,-6,612,-549,447,217,-1638,5446,47,35,912,1935,2043,2201,2454,1926,1734,1836,1896
504917,-10912,22084,-10799,21969,398,339,574,-453,452,442,-1511,5326,34,46,915,1935,2043,2201,2454,1926,1734,1836,1896
505918,-10856,22164,-10734,22034,609,171,561,-365,468,527,-1662,5083,34,43,913,1935,2043,2201,2454,1926,1734,1836,1896
506919,-10796,22216,-10669,22099,566,537,573,-349,496,462,-1660,4845,40,40,913,1935,2043,2201,2454,1926,1734,1836,1896
507920,-10708,22284,-10604,22164,187,333,612,-350,517,197,-1651,4685,35,48,911,1935,2043,2201,2454,1926,1734,1836,1896
508921,-10640,22360,-10539,22229,434,220,681,-328,522,123,-1692,4780,34,34,915,1926,1977,2170,2440,2027,1864,1925,1993
509922,-10576,22448,-10474,22294,485,42,770,-287,522,308,-1796,4570,44,34,913,1926,1977,2170,2440,2027,1864,1925,1993
510923,-10524,22532,-10409,22359,651,68,883,-290,528,346,-1718,4478,36,43,914,1926,1977,2170,2440,2027,1864,1925,1993
511924,-10460,22580,-10344,22424,502,539,985,-318,512,102,-1455,4272,40,34,912,1926,1977,2170,2440,2027,1864,1925,1993
512925,-10388,22660,-10279,22489,394,121,1076,-336,473,-173,-1474,4359,43,35,909,1926,1977,2170,2440,2027,1864,1925,1993
513926,-10312,22724,-10214,22554,330,322,1150,-336,435,-57,-1396,4275,31,33,915,1780,1847,2068,2291,2129,1911,1931,2009
514927,-10248,22796,-10149,22619,481,213,1207,-357,392,-48,-1242,3846,36,44,915,1780,1847,2068,2291,2129,1911,1931,2009
515928,-10208,22880,-10084,22684,812,40,1231,-339,339,-209,-1190,4006,45,43,914,1780,1847,2068,2291,2129,1911,1931,2009
516929,-10136,22936,-10019,22749,403,401,1241,-301,284,-167,-1075,3876,40,45,911,1780,1847,2068,2291,2129,1911,1931,2009
517930,-10080,23012,-9954,22814,614,138,1217,-237,240,-41,-922,3822,35,47,913,1780,1847,2068,2291,2129,1911,1931,2009
518931,-10012,23084,-9889,22879,461,179,1184,-159,203,-10,-770,3705,43,41,913,1780,1847,2068,2291,2129,1911,1931,2009
519932,-9936,23144,-9824,22944,347,335,1135,-71,171,-164,-728,3640,47,46,914,1753,1844,2045,2244,2019,1777,1842,1945
520933,-9864,23220,-9759,23009,390,121,1079,43,136,-194,-680,3693,36,42,914,1753,1844,2045,2244,2019,1777,1842,1945
521934,-9816,23272,-9694,23074,710,437,1015,163,110,-18,-651,3672,44,43,915,1753,1844,2045,2244,2019,1777,1842,1945
522935,-9748,23356,-9629,23139,457,14,945,266,96,-96,-771,3463,47,43,910,1753,1844,2045,2244,2019,1777,1842,1945
523936,-9692,23416,-9564,23204,618,320,881,358,86,-100,-841,3615,35,41,915,1753,1844,2045,2244,2019,1777,1842,1945
524937,-9616,23480,-9499,23269,354,271,825,423,75,-184,-895,3290,33,29,912,1748,1866,2034,2197,1938,1708,1782,1896
525938,-9560,23540,-9434,23334,615,327,780,453,80,-266,-1019,3200,50,30,915,1748,1866,2034,2197,1938,1708,1782,1896
526939,-9496,23612,-9369,23399,517,168,747,453,84,-321,-950,3104,45,38,912,1748,1866,2034,2197,1938,1708,1782,1896
527940,-9448,23668,-9304,23464,737,379,727,428,87,-341,-1040,2884,51,43,914,1748,1866,2034,2197,1938,1708,1782,1896
528941,-9376,23736,-9239,23529,429,226,733,414,89,-118,-1019,3015,44,42,910,1748,1866,2034,2197,1938,1708,1782,1896
529942,-9308,23796,-9174,23594,475,332,745,371,82,75,-937,2725,36,34,913,1748,1866,2034,2197,1938,1708,1782,1896
530943,-9236,23848,-9109,23659,417,448,772,317,69,99,-831,2685,48,37,913,1718,1819,2016,2177,1984,1771,1819,1939
531944,-9164,23928,-9044,23724,408,79,797,253,53,162,-713,2554,37,30,913,1718,1819,2016,2177,1984,1771,1819,1939
532945,-9108,23988,-8979,23789,619,335,815,205,32,345,-541,2677,44,40,915,1718,1819,2016,2177,1984,1771,1819,1939
533946,-9052,24048,-8914,23854,630,341,830,150,17,413,-280,2313,39,26,911,1718,1819,2016,2177,1984,1771,1819,1939
534947,-8988,24104,-8849,23919,531,402,850,90,-6,651,-77,2332,47,28,911,1718,1819,2016,2177,1984,1771,1819,1939
535948,-8932,24188,-8784,23984,642,28,847,45,-28,586,46,2462,46,28,912,1679,1764,1983,2171,2022,1807,1843,1939
536949,-8868,24252,-8719,24049,543,280,838,11,-42,581,212,2326,36,32,913,1679,1764,1983,2171,2022,1807,1843,1939
537950,-8804,24300,-8654,24114,545,500,830,-21,-57,602,320,2387,32,27,913,1679,1764,1983,2171,2022,1807,1843,1939
538951,-8740,24364,-8589,24179,546,302,827,-14,-72,536,382,2462,33,27,911,1679,1764,1983,2171,2022,1807,1843,1939
539952,-8684,24420,-8524,24244,657,413,816,5,-86,564,438,2624,37,29,913,1679,1764,1983,2171,2022,1807,1843,1939
540953,-8628,24472,-8459,24309,669,479,804,24,-107,551,457,2523,30,38,911,1679,1764,1983,2171,2022,1807,1843,1939
541954,-8572,24524,-8394,24374,680,494,787,12,-132,278,389,2698,42,27,910,1704,1797,1992,2176,1996,1770,1824,1928
542955,-8508,24588,-8329,24439,581,346,766,2,-149,-42,281,2705,40,28,910,1704,1797,1992,2176,1996,1770,1824,1928
543956,-8444,24656,-8264,24504,582,292,740,-23,-162,-250,163,2826,38,43,912,1704,1797,1992,2176,1996,1770,1824,1928
544957,-8376,24720,-8199,24569,529,343,705,-61,-176,-310,-14,2849,49,41,912,1704,1797,1992,2176,1996,1770,1824,1928
545958,-8324,24772,-8134,24634,744,509,676,-98,-189,-191,-79,3020,48,30,912,1704,1797,1992,2176,1996,1770,1824,1928
546959,-8268,24840,-8069,24699,705,304,640,-116,-176,-318,-195,3139,37,41,907,1721,1833,2032,2198,1952,1718,1781,1912
547960,-8196,24880,-8004,24764,497,685,626,-121,-169,-248,-260,3369,44,39,911,1721,1833,2032,2198,1952,1718,1781,1912
548961,-8128,24960,-7939,24829,543,167,607,-102,-171,-131,-370,3401,35,43,910,1721,1833,2032,2198,1952,1718,1781,1912
549962,-8080,25032,-7874,24894,814,258,611,-81,-174,-100,-380,3409,32,42,913,1721,1833,2032,2198,1952,1718,1781,1912
550964,-8024,25064,-7809,24959,725,798,611,-51,-163,-70,-386,3457,43,45,910,1721,1833,2032,2198,1952,1718,1781,1912
551964,-7976,25128,-7744,25024,846,400,618,-30,-158,96,-318,3559,37,44,906,1721,1833,2032,2198,1952,1718,1781,1912
552965,-7912,25208,-7679,25089,647,181,625,-6,-147,288,-182,3376,35,45,908,1739,1859,2059,2198,1990,1762,1818,1960
553966,-7864,25256,-7614,25154,868,602,655,-11,-146,328,31,3440,39,33,912,1739,1859,2059,2198,1990,1762,1818,1960
554967,-7788,25324,-7549,25219,505,348,663,-12,-151,304,98,3412,32,45,907,1739,1859,2059,2198,1990,1762,1818,1960
555968,-7732,25400,-7484,25284,766,235,682,-14,-168,535,310,3351,42,46,913,1739,1859,2059,2198,1990,1762,1818,1960
556969,-7680,25464,-7419,25349,832,386,688,-5,-188,679,540,3533,29,42,911,1739,1859,2059,2198,1990,1762,1818,1960
557970,-7620,25532,-7354,25414,738,332,702,1,-180,926,776,3379,47,36,909,1763,1862,2080,2268,2035,1819,1866,1970
558971,-7584,25588,-7289,25479,1074,493,718,0,-180,873,955,3545,33,31,910,1763,1862,2080,2268,2035,1819,1866,1970
559972,-7520,25676,-7224,25544,725,65,727,-21,-194,763,1159,3561,31,37,905,1763,1862,2080,2268,2035,1819,1866,1970
560973,-7460,25740,-7159,25609,781,367,748,-36,-200,649,1086,3511,44,30,911,1763,1862,2080,2268,2035,1819,1866,1970
561974,-7396,25784,-7094,25674,732,642,766,-49,-190,585,1076,3713,46,34,910,1763,1862,2080,2268,2035,1819,1866,1970
562975,-7344,25840,-7029,25739,898,503,793,-79,-171,468,1060,3701,48,33,910,1763,1862,2080,2268,2035,1819,1866,1970
563976,-7288,25904,-6964,25804,859,404,812,-103,-156,393,1008,3727,37,41,905,1794,1867,2090,2309,2051,1842,1875,1961
564977,-7240,25968,-6899,25869,981,406,831,-129,-135,295,817,3913,44,32,908,1794,1867,2090,2309,2051,1842,1875,1961
565978,-7180,26024,-6834,25934,837,517,854,-155,-116,312,722,4010,34,29,907,1794,1867,2090,2309,2051,1842,1875,1961
566979,-7128,26092,-6769,25999,953,363,873,-184,-94,120,556,4202,50,31,908,1794,1867,2090,2309,2051,1842,1875,1961
567980,-7068,26144,-6704,26064,859,579,888,-173,-66,39,306,4273,45,31,907,1794,1867,2090,2309,2051,1842,1875,1961
568981,-7000,26192,-6639,26129,755,649,902,-140,-46,419,361,4622,33,32,907,1803,1895,2124,2322,2006,1784,1823,1939
569982,-6960,26244,-6574,26194,1136,614,920,-85,-22,393,197,4703,46,31,908,1803,1895,2124,2322,2006,1784,1823,1939
570983,-6896,26300,-6509,26259,837,575,942,-26,0,463,153,4885,38,31,904,1803,1895,2124,2322,2006,1784,1823,1939
571984,-6836,26376,-6444,26324,894,312,964,56,17,578,244,5046,48,46,907,1803,1895,2124,2322,2006,1784,1823,1939
572985,-6772,26440,-6379,26389,845,463,985,117,30,514,213,4907,48,33,909,1803,1895,2124,2322,2006,1784,1823,1939
573986,-6712,26492,-6314,26454,901,629,990,198,48,351,270,5117,33,43,909,1803,1895,2124,2322,2006,1784,1823,1939
574987,-6652,26564,-6249,26519,907,371,985,258,58,537,572,4819,38,46,906,1817,1923,2151,2315,1999,1770,1823,1959
575988,-6604,26616,-6184,26584,1078,636,979,309,62,503,608,4875,30,44,908,1817,1923,2151,2315,1999,1770,1823,1959
576989,-6564,26692,-6119,26649,1209,323,963,342,75,459,709,4725,30,35,904,1817,1923,2151,2315,1999,1770,1823,1959
577990,-6492,26768,-6054,26714,800,310,952,352,82,428,983,4639,47,46,904,1817,1923,2151,2315,1999,1770,1823,1959
578991,-6448,26824,-5989,26779,1177,571,930,340,101,260,858,4384,50,46,910,1817,1923,2151,2315,1999,1770,1823,1959
579992,-6384,26876,-5924,26844,928,636,920,343,111,451,1112,4584,35,36,902,1851,1960,2182,2368,2069,1850,1901,2027
580993,-6340,26940,-5859,26909,1204,488,929,334,119,566,1217,4288,37,33,904,1851,1960,2182,2368,2069,1850,1901,2027
581994,-6288,27008,-5794,26974,1120,434,939,338,125,820,1309,4472,30,48,904,1851,1960,2182,2368,2069,1850,1901,2027
582995,-6228,27072,-5729,27039,1026,485,961,328,147,797,1306,4213,46,46,905,1851,1960,2182,2368,2069,1850,1901,2027
583996,-6176,27144,-5664,27104,1143,377,993,313,152,821,1335,4344,32,46,905,1851,1960,2182,2368,2069,1850,1901,2027
584997,-6104,27204,-5599,27169,884,533,1028,306,167,717,1142,4186,50,44,905,1851,1960,2182,2368,2069,1850,1901,2027
585998,-6052,27276,-5534,27234,1150,374,1074,317,192,917,1122,4421,49,39,907,1849,1934,2170,2370,2175,1942,1964,2078
586999,-6004,27340,-5469,27299,1221,475,1116,308,230,936,1079,4382,29,30,905,1849,1934,2170,2370,2175,1942,1964,2078
588000,-5932,27408,-5404,27364,912,422,1150,295,263,769,1085,4613,34,33,903,1849,1934,2170,2370,2175,1942,1964,2078
589001,-5892,27460,-5339,27429,1343,638,1188,269,293,441,1056,4678,49,36,908,1849,1934,2170,2370,2175,1942,1964,2078
590002,-5836,27500,-5274,27494,1155,818,1204,248,316,385,938,4739,33,32,900,1849,1934,2170,2370,2175,1942,1964,2078
591003,-5772,27548,-5209,27559,1056,739,1222,216,349,378,718,4865,35,42,900,1805,1889,2136,2315,2096,1861,1873,1987
592004,-5708,27616,-5144,27624,1057,485,1232,211,383,364,735,5127,34,40,902,1805,1889,2136,2315,2096,1861,1873,1987
593005,-5640,27676,-5079,27689,1003,591,1234,222,409,382,641,5155,40,29,905,1805,1889,2136,2315,2096,1861,1873,1987
594006,-5588,27740,-5014,27754,1220,543,1225,240,436,471,420,5291,35,32,905,1805,1889,2136,2315,2096,1861,1873,1987
595007,-5524,27792,-4949,27819,1071,708,1210,276,460,215,387,5222,33,41,902,1805,1889,2136,2315,2096,1861,1873,1987
596008,-5464,27852,-4884,27884,1128,615,1184,325,473,261,332,5394,47,42,903,1805,1889,2136,2315,2096,1861,1873,1987
597009,-5412,27908,-4819,27949,1243,676,1132,338,493,463,374,4981,47,35,903,1783,1886,2119,2283,2003,1771,1815,1947
598010,-5356,27956,-4754,28014,1204,796,1057,314,517,225,553,4603,41,41,899,1783,1886,2119,2283,2003,1771,1815,1947
599011,-5276,28016,-4689,28079,887,652,977,286,542,-380,575,4625,51,46,900,1783,1886,2119,2283,2003,1771,1815,1947
600012,-5224,28096,-4624,28144,1253,384,882,274,560,-414,479,4235,36,35,906,1783,1886,2119,2283,2003,1771,1815,1947
601013,-5176,28140,-4559,28209,1324,860,822,264,582,1,175,4134,47,45,903,1783,1886,2119,2283,2003,1771,1815,1947
602014,-5100,28212,-4494,28274,960,501,776,225,592,1147,276,4179,35,39,898,1840,1950,2176,2346,2067,1841,1905,2057
603015,-5048,28264,-4429,28339,1277,767,730,187,609,890,903,3901,50,40,906,1840,1950,2176,2346,2067,1841,1905,2057
604016,-4992,28328,-4364,28404,1238,618,717,184,606,-450,1125,3464,32,42,900,1840,1950,2176,2346,2067,1841,1905,2057
605017,-4916,28416,-4299,28469,975,290,725,220,596,-254,789,3960,51,46,901,1840,1950,2176,2346,2067,1841,1905,2057
606018,-4852,28480,-4234,28534,1126,591,760,268,604,851,779,3751,53,44,908,1840,1950,2176,2346,2067,1841,1905,2057
607019,-4800,28548,-4169,28599,1292,538,802,226,595,981,777,3222,52,48,903,1840,1950,2176,2346,2067,1841,1905,2057
608020,-4744,28616,-4104,28664,1254,534,835,147,592,-11,713,3602,36,49,901,1820,1928,2150,2306,2229,1971,1995,2135
609021,-4672,28672,-4039,28729,1045,695,861,113,576,-73,871,3956,51,36,902,1820,1928,2150,2306,2229,1971,1995,2135
610022,-4632,28732,-3974,28794,1476,651,891,97,556,409,758,3831,46,36,903,1820,1928,2150,2306,2229,1971,1995,2135
611023,-4572,28832,-3909,28859,1232,108,909,45,550,292,777,4042,48,39,897,1820,1928,2150,2306,2229,1971,1995,2135
612024,-4508,28884,-3844,28924,1184,724,927,22,552,83,799,4109,48,43,905,1820,1928,2150,2306,2229,1971,1995,2135
613025,-4436,28952,-3779,28989,1076,521,911,-25,557,179,930,4157,40,43,901,1748,1841,2073,2238,2122,1876,1888,1993
614026,-4360,29008,-3714,29054,1012,682,881,-99,582,22,915,4228,50,46,905,1748,1841,2073,2238,2122,1876,1888,1993
615027,-4300,29084,-3649,29119,1218,418,834,-139,615,-193,694,4484,39,49,902,1748,1841,2073,2238,2122,1876,1888,1993
616028,-4236,29148,-3584,29184,1170,569,796,-155,629,54,815,4650,40,41,904,1748,1841,2073,2238,2122,1876,1888,1993
617029,-4168,29208,-3519,29249,1117,626,729,-141,642,-14,734,4470,51,39,903,1748,1841,2073,2238,2122,1876,1888,1993
618030,-4104,29284,-3454,29314,1168,412,675,-109,643,-69,631,4406,33,34,903,1748,1841,2073,2238,2122,1876,1888,1993
619031,-4040,29332,-3389,29379,1169,783,597,-69,646,36,460,4418,37,46,904,1709,1807,2037,2206,1969,1759,1787,1899
620032,-3980,29392,-3324,29444,1226,639,541,-47,644,73,461,4399,44,36,901,1709,1807,2037,2206,1969,1759,1787,1899
621033,-3932,29444,-3259,29509,1397,755,486,-1,627,5,518,4237,34,42,901,1709,1807,2037,2206,1969,1759,1787,1899
622034,-3880,29528,-3194,29574,1363,333,432,28,603,-75,424,4130,48,52,898,1709,1807,2037,2206,1969,1759,1787,1899
623035,-3808,29592,-3129,29639,1104,584,384,48,580,-60,424,3856,46,51,902,1709,1807,2037,2206,1969,1759,1787,1899
624036,-3736,29656,-3064,29704,1097,585,349,61,541,-302,607,3475,53,52,903,1776,1877,2120,2297,2016,1812,1856,1993
625037,-3684,29708,-2999,29769,1363,751,327,70,507,-491,598,3531,40,39,904,1776,1877,2120,2297,2016,1812,1856,1993
626038,-3616,29772,-2934,29834,1159,602,309,94,468,-168,717,3353,45,41,898,1776,1877,2120,2297,2016,1812,1856,1993
627039,-3556,29832,-2869,29899,1265,658,301,120,437,-146,760,3195,32,49,902,1776,1877,2120,2297,2016,1812,1856,1993
628040,-3496,29908,-2804,29964,1272,445,271,127,413,-221,734,3049,30,43,900,1776,1877,2120,2297,2016,1812,1856,1993
629041,-3448,29988,-2739,30029,1443,377,262,122,383,-349,800,2921,47,37,902,1776,1877,2120,2297,2016,1812,1856,1993
630042,-3380,30048,-2674,30094,1189,633,219,111,373,-353,889,2848,47,51,901,1816,1916,2166,2349,2147,1923,1946,2069
631043,-3336,30100,-2609,30159,1516,749,195,87,361,-279,1133,2763,33,49,902,1816,1916,2166,2349,2147,1923,1946,2069
632044,-3280,30160,-2544,30224,1377,655,178,81,351,-59,1087,3176,43,45,894,1816,1916,2166,2349,2147,1923,1946,2069
633045,-3212,30240,-2479,30289,1223,386,186,82,306,-85,1370,3303,43,51,899,1816,1916,2166,2349,2147,1923,1946,2069
634046,-3148,30308,-2414,30354,1274,533,214,136,262,-283,1396,3648,44,38,903,1816,1916,2166,2349,2147,1923,1946,2069
635047,-3068,30348,-2349,30419,1057,913,233,171,235,-27,1188,3768,54,42,901,1766,1854,2080,2244,2116,1880,1892,1994
636048,-3012,30424,-2284,30484,1368,450,252,179,226,79,1118,3872,39,36,901,1766,1854,2080,2244,2116,1880,1892,1994
637049,-2960,30480,-2219,30549,1434,711,266,180,212,-51,1148,4171,39,39,901,1766,1854,2080,2244,2116,1880,1892,1994
638050,-2900,30540,-2154,30614,1340,667,269,201,183,2,1099,4413,51,51,897,1766,1854,2080,2244,2116,1880,1892,1994
639051,-2804,30596,-2089,30679,853,728,264,247,153,-56,1114,4454,58,40,900,1766,1854,2080,2244,2116,1880,1892,1994
640052,-2744,30672,-2024,30744,1309,464,262,278,115,-32,1050,4297,42,38,906,1766,1854,2080,2244,2116,1880,1892,1994
641053,-2672,30716,-1959,30809,1151,890,244,295,107,-112,786,4379,54,43,902,1667,1757,1987,2156,1968,1756,1775,1878
642054,-2624,30788,-1894,30874,1473,531,206,322,91,-131,915,4323,38,50,900,1667,1757,1987,2156,1968,1756,1775,1878
643055,-2532,30852,-1829,30939,890,633,178,350,82,-31,870,4152,33,38,899,1667,1757,1987,2156,1968,1756,1775,1878
644056,-2476,30924,-1764,31004,1351,524,132,373,51,-115,822,4028,38,38,905,1667,1757,1987,2156,1968,1756,1775,1878
645057,-2420,30992,-1699,31069,1362,570,92,398,16,-279,797,3808,31,44,901,1667,1757,1987,2156,1968,1756,1775,1878
646058,-2372,31036,-1634,31134,1483,896,53,413,-1,-276,689,3506,44,43,900,1733,1834,2086,2276,1960,1772,1808,1928
647059,-2292,31100,-1569,31199,1065,647,16,420,-26,-236,793,3322,48,40,895,1733,1834,2086,2276,1960,1772,1808,1928
648060,-2244,31156,-1504,31264,1486,758,-9,432,-50,-304,1032,3219,50,51,903,1733,1834,2086,2276,1960,1772,1808,1928
649061,-2168,31220,-1439,31329,1122,660,-34,457,-76,-72,938,3138,37,41,895,1733,1834,2086,2276,1960,1772,1808,1928
650062,-2128,31280,-1374,31394,1604,716,-51,469,-114,-137,975,2998,39,52,902,1733,1834,2086,2276,1960,1772,1808,1928
651064,-2060,31360,-1309,31459,1250,447,-67,438,-153,-435,1277,2790,33,42,894,1733,1834,2086,2276,1960,1772,1808,1928
652064,-2004,31400,-1244,31524,1411,978,-86,398,-188,-567,1259,2706,49,47,902,1858,1957,2221,2424,2069,1869,1903,2026
653065,-1948,31464,-1179,31589,1423,679,-86,390,-233,-286,1340,3089,43,41,895,1858,1957,2221,2424,2069,1869,1903,2026
654066,-1896,31520,-1114,31654,1489,790,-72,359,-262,-60,1585,2914,33,40,897,1858,1957,2221,2424,2069,1869,1903,2026
655067,-1828,31576,-1049,31719,1285,801,-30,350,-296,32,1674,3325,49,43,895,1858,1957,2221,2424,2069,1869,1903,2026
656068,-1772,31628,-984,31784,1446,867,15,381,-327,-56,1623,3550,44,39,898,1858,1957,2221,2424,2069,1869,1903,2026
657069,-1704,31696,-919,31849,1294,663,60,419,-347,150,1575,3672,52,49,895,1839,1924,2156,2324,2092,1864,1885,1996
658070,-1644,31760,-854,31914,1400,715,105,426,-336,176,1427,4022,43,38,900,1839,1924,2156,2324,2092,1864,1885,1996
659071,-1572,31816,-789,31979,1241,826,142,421,-327,210,1550,3998,42,38,898,1839,1924,2156,2324,2092,1864,1885,1996
660072,-1520,31872,-724,32044,1508,837,158,422,-325,81,1539,4318,36,40,899,1839,1924,2156,2324,2092,1864,1885,1996
661073,-1444,31936,-659,32109,1195,739,163,420,-329,213,1476,4461,35,47,895,1839,1924,2156,2324,2092,1864,1885,1996
662074,-1372,32008,-594,32174,1236,630,166,419,-336,243,1324,4504,53,39,900,1839,1924,2156,2324,2092,1864,1885,1996
663075,-1312,32072,-529,32239,1393,731,156,409,-334,64,1244,4519,40,43,901,1716,1807,2023,2185,1971,1753,1785,1891
664076,-1256,32136,-464,32304,1454,733,146,389,-333,160,1223,4439,53,45,897,1716,1807,2023,2185,1971,1753,1785,1891
665077,-1196,32196,-399,32369,1410,789,125,335,-319,6,1208,4309,36,40,897,1716,1807,2023,2185,1971,1753,1785,1891
666078,-1128,32252,-334,32434,1307,850,102,309,-321,90,1209,4236,51,45,895,1716,1807,2023,2185,1971,1753,1785,1891
667079,-1064,32320,-269,32499,1359,696,76,235,-334,-34,1315,3894,35,36,898,1716,1807,2023,2185,1971,1753,1785,1891
668080,-992,32360,-204,32564,1250,1077,39,180,-349,-314,1068,3837,40,39,899,1728,1823,2066,2248,1978,1776,1813,1944
669081,-928,32416,-139,32629,1352,888,0,146,-350,-188,1070,3603,48,34,896,1728,1823,2066,2248,1978,1776,1813,1944
670082,-892,32488,-74,32694,1738,679,-29,118,-347,25,1052,3416,37,41,896,1728,1823,2066,2248,1978,1776,1813,1944
671083,-808,32552,-9,32759,1115,780,-66,87,-347,184,1005,3197,33,51,893,1728,1823,2066,2248,1978,1776,1813,1944
672084,-740,32596,56,32824,1311,1056,-92,76,-356,217,1049,3082,37,42,901,1728,1823,2066,2248,1978,1776,1813,1944
673085,-676,32672,121,32889,1363,643,-116,70,-354,175,1142,2898,44,50,895,1837,1941,2204,2382,2102,1884,1915,2065
674086,-620,32720,186,32954,1474,1014,-125,71,-356,241,1069,2992,43,42,899,1837,1941,2204,2382,2102,1884,1915,2065
675087,-568,32808,251,33019,1540,486,-136,93,-357,335,1036,3119,37,54,894,1837,1941,2204,2382,2102,1884,1915,2065
676088,-512,32884,316,33084,1501,623,-136,104,-343,362,1097,3285,54,41,897,1837,1941,2204,2382,2102,1884,1915,2065
677089,-428,32936,381,33149,1129,939,-128,107,-321,167,1166,3289,51,41,897,1837,1941,2204,2382,2102,1884,1915,2065
678092,-348,33004,446,33214,1161,735,-104,78,-308,120,1446,3438,41,52,899,1837,1941,2204,2382,2102,1884,1915,2065
679091,-292,33068,511,33279,1472,786,-89,61,-289,-25,1486,3618,51,39,901,1842,1936,2180,2336,2144,1898,1915,2041
680092,-216,33132,576,33344,1209,787,-84,27,-258,26,1478,3767,36,43,896,1842,1936,2180,2336,2144,1898,1915,2041
681093,-156,33208,641,33409,1415,624,-94,-3,-233,237,1617,4190,55,50,900,1842,1936,2180,2336,2144,1898,1915,2041
682094,-88,33284,706,33474,1312,610,-99,7,-213,56,1653,4275,35,44,899,1842,1936,2180,2336,2144,1898,1915,2041
683095,-32,33324,771,33539,1474,1091,-113,-41,-200,50,1601,4151,44,44,898,1842,1936,2180,2336,2144,1898,1915,2041
684096,24,33384,836,33604,1485,847,-123,-46,-177,210,1596,4672,35,50,893,1734,1825,2051,2210,2036,1807,1827,1937
685097,96,33484,901,33669,1276,304,-144,-45,-167,239,1610,4472,54,54,895,1734,1825,2051,2210,2036,1807,1827,1937
686098,172,33544,966,33734,1213,811,-145,-31,-174,438,1638,4804,55,57,902,1734,1825,2051,2210,2036,1807,1827,1937
687099,236,33612,1031,33799,1365,708,-169,-2,-157,238,1421,4533,39,51,900,1734,1825,2051,2210,2036,1807,1827,1937
688100,296,33684,1096,33864,1421,649,-181,1,-139,258,1443,4481,48,41,899,1734,1825,2051,2210,2036,1807,1827,1937
689101,348,33748,1161,33929,1537,750,-190,16,-128,450,1339,4388,41,49,898,1734,1825,2051,2210,2036,1807,1827,1937
690102,424,33816,1226,33994,1225,697,-189,20,-124,250,1303,4061,54,51,895,1713,1807,2056,2234,2022,1810,1832,1956
691103,484,33880,1291,34059,1431,748,-201,21,-133,214,1236,4141,42,52,901,1713,1807,2056,2234,2022,1810,1832,1956
692104,556,33936,1356,34124,1272,859,-194,35,-118,171,1106,3626,47,42,897,1713,1807,2056,2234,2022,1810,1832,1956
693105,608,34016,1421,34189,1539,541,-217,31,-96,279,1029,3448,52,54,898,1713,1807,2056,2234,2022,1810,1832,1956
694106,664,34084,1486,34254,1500,687,-233,65,-73,423,979,3489,52,45,897,1713,1807,2056,2234,2022,1810,1832,1956
695107,708,34172,1551,34319,1676,409,-268,85,-55,474,1149,3157,34,49,897,1819,1914,2195,2391,2076,1869,1885,2012
696108,784,34248,1616,34384,1263,546,-284,131,-49,439,1299,3266,36,42,895,1819,1914,2195,2391,2076,1869,1885,2012
697109,840,34308,1681,34449,1524,752,-303,144,-28,253,1473,3199,46,50,901,1819,1914,2195,2391,2076,1869,1885,2012
698110,904,34384,1746,34514,1425,538,-306,180,-3,100,1333,3341,52,45,896,1819,1914,2195,2391,2076,1869,1885,2012
699111,988,34452,1811,34579,1152,635,-320,220,30,340,1436,3469,48,59,899,1819,1914,2195,2391,2076,1869,1885,2012
700112,1040,34512,1876,34644,1569,741,-317,262,55,434,1522,3443,56,46,900,1819,1914,2195,2391,2076,1869,1885,2012
701113,1112,34588,1941,34709,1310,527,-349,291,72,273,1645,3642,36,55,895,1866,1951,2206,2388,2088,1864,1878,1989
702114,1168,34672,2140,34908,1685,568,-353,309,68,72,1682,3865,40,45,901,1866,1951,2206,2388,2088,1864,1878,1989
703115,1228,34752,2205,34973,1642,600,-369,321,68,118,1734,3827,39,48,895,1866,1951,2206,2388,2088,1864,1878,1989
704116,1308,34828,2270,35038,1374,637,-362,361,74,179,1675,4142,45,59,895,1866,1951,2206,2388,2088,1864,1878,1989
705117,1376,34888,2335,35103,1521,843,-368,409,91,479,1788,4392,49,59,899,1866,1951,2206,2388,2088,1864,1878,1989
706118,1460,34964,2400,35168,1298,630,-357,448,87,404,1907,4465,47,51,895,1775,1854,2092,2262,2034,1813,1831,1941
707119,1536,35040,2465,35233,1385,616,-329,486,76,352,1907,4583,52,61,900,1775,1854,2092,2262,2034,1813,1831,1941
708120,1616,35108,2530,35298,1317,712,-306,516,70,134,1702,4592,49,50,899,1775,1854,2092,2262,2034,1813,1831,1941
709121,1704,35180,2595,35363,1189,654,-304,566,80,448,1606,4655,60,47,900,1775,1854,2092,2262,2034,1813,1831,1941
710122,1768,35264,2660,35428,1490,481,-293,645,68,790,1626,4560,52,60,902,1775,1854,2092,2262,2034,1813,1831,1941
711123,1852,35340,2725,35493,1218,567,-299,662,61,538,1569,4203,54,52,899,1775,1854,2092,2262,2034,1813,1831,1941
712124,1912,35404,2790,35558,1524,718,-297,726,65,213,1465,4572,44,48,902,1711,1802,2052,2230,2036,1824,1836,1954
713125,1996,35484,2855,35623,1201,500,-316,702,68,249,1598,3653,49,51,896,1711,1802,2052,2230,2036,1824,1836,1954
714126,2080,35556,2920,35688,1179,592,-319,741,65,514,1500,4076,50,58,903,1711,1802,2052,2230,2036,1824,1836,1954
715127,2148,35640,2985,35753,1375,418,-350,719,79,331,1413,3383,59,44,902,1711,1802,2052,2230,2036,1824,1836,1954
716128,2228,35700,3050,35818,1207,725,-373,758,93,231,1524,3931,42,56,902,1711,1802,2052,2230,2036,1824,1836,1954
717129,2308,35784,3115,35883,1190,401,-398,767,103,161,1456,3196,52,57,899,1784,1878,2157,2353,2075,1869,1881,2007
718130,2372,35860,3180,35948,1391,488,-427,725,125,449,1457,3414,43,59,904,1784,1878,2157,2353,2075,1869,1881,2007
719131,2448,35928,3245,36013,1227,585,-457,795,135,381,1368,3500,48,50,901,1784,1878,2157,2353,2075,1869,1881,2007
720132,2524,36008,3310,36078,1214,417,-496,716,122,331,1655,2900,59,52,902,1784,1878,2157,2353,2075,1869,1881,2007
721133,2596,36080,3375,36143,1256,508,-519,792,111,83,1470,3715,57,58,903,1784,1878,2157,2353,2075,1869,1881,2007
722134,2672,36152,3440,36208,1193,500,-555,720,95,239,1579,2738,51,60,902,1784,1878,2157,2353,2075,1869,1881,2007
723135,2764,36228,3505,36273,960,436,-591,764,93,447,1440,3932,57,52,903,1837,1927,2198,2372,2098,1876,1886,2015
724136,2820,36304,3570,36338,1422,423,-614,785,66,520,1789,3073,51,45,907,1837,1927,2198,2372,2098,1876,1886,2015
725137,2920,36372,3635,36403,829,519,-649,789,34,399,1765,3945,42,50,901,1837,1927,2198,2372,2098,1876,1886,2015
726140,2996,36452,3700,36468,1116,351,-661,864,15,192,1673,4015,54,62,908,1837,1927,2198,2372,2098,1876,1886,2015
727139,3064,36520,3765,36533,1212,497,-690,786,-13,518,1903,3563,55,52,906,1837,1927,2198,2372,2098,1876,1886,2015
728140,3132,36588,3830,36598,1210,494,-678,862,-38,264,1672,4457,53,44,903,1773,1864,2100,2246,2066,1831,1851,1984
729141,3196,36672,3895,36663,1261,271,-693,846,-64,147,1811,3690,51,45,903,1773,1864,2100,2246,2066,1831,1851,1984
730142,3284,36740,3960,36728,933,467,-669,873,-94,305,1846,4401,47,46,904,1773,1864,2100,2246,2066,1831,1851,1984
731143,3364,36824,4025,36793,1014,244,-662,839,-134,227,2003,3578,52,59,907,1773,1864,2100,2246,2066,1831,1851,1984
732144,3452,36884,4090,36858,887,550,-681,781,-154,670,2291,3968,44,56,908,1773,1864,2100,2246,2066,1831,1851,1984
733145,3512,36956,4155,36923,1243,391,-670,637,-190,1304,2039,2888,48,49,907,1773,1864,2100,2246,2066,1831,1851,1984
734146,3600,37052,4220,36988,865,53,-546,560,-214,-3839,-215,3275,56,49,902,1691,1791,2034,2191,2040,1812,1832,1958
735147,3692,37120,4285,37053,782,400,-561,820,-253,-1778,2138,5060,60,55,910,1691,1791,2034,2191,2040,1812,1832,1958
736148,3776,37204,4350,37118,860,177,-498,774,-327,2997,2552,2525,39,57,909,1691,1791,2034,2191,2040,1812,1832,1958
737149,3840,37280,4415,37183,1111,262,-550,505,-284,-380,1078,2440,55,44,910,1691,1791,2034,2191,2040,1812,1832,1958
738150,3928,37340,4480,37248,783,468,-602,606,-250,-1853,1374,4171,54,43,907,1691,1791,2034,2191,2040,1812,1832,1958
739151,4000,37428,4545,37313,975,90,-632,649,-308,488,2182,2430,45,58,909,1743,1846,2093,2275,1981,1781,1812,1923
740152,4076,37508,4610,37378,912,172,-679,592,-334,1358,1547,2895,41,57,909,1743,1846,2093,2275,1981,1781,1812,1923
741153,4164,37580,4675,37443,734,263,-748,547,-335,-261,1526,2673,56,46,910,1743,1846,2093,2275,1981,1781,1812,1923
742154,4236,37640,4740,37508,926,419,-813,520,-378,-556,1764,2730,41,56,911,1743,1846,2093,2275,1981,1781,1812,1923
743155,4304,37704,4805,37573,972,371,-825,530,-415,85,1447,3034,38,57,908,1743,1846,2093,2275,1981,1781,1812,1923
744156,4388,37792,4870,37638,749,43,-863,437,-434,257,1406,2486,40,48,908,1743,1846,2093,2275,1981,1781,1812,1923
745157,4472,37876,4935,37703,726,69,-873,419,-457,-15,1441,3159,41,44,912,1809,1893,2139,2319,1981,1785,1814,1935
746158,4548,37944,5000,37768,813,266,-879,362,-508,-106,1498,2745,39,50,912,1809,1893,2139,2319,1981,1785,1814,1935
747159,4624,38024,5065,37833,800,97,-854,366,-553,-158,1234,3116,38,50,910,1809,1893,2139,2319,1981,1785,1814,1935
748160,4700,38096,5130,37898,786,189,-828,318,-599,-117,1342,2768,55,58,911,1809,1893,2139,2319,1981,1785,1814,1935
749161,4780,38168,5195,37963,718,180,-816,259,-649,-121,1433,3360,50,42,911,1809,1893,2139,2319,1981,1785,1814,1935
750162,4852,38232,5260,38028,810,281,-796,216,-706,-258,1370,2958,55,53,912,1767,1853,2093,2244,2021,1802,1829,1962
751163,4916,38316,5325,38093,911,8,-779,228,-750,-382,1509,3544,38,46,909,1767,1853,2093,2244,2021,1802,1829,1962
752164,5004,38408,5390,38158,584,-125,-753,193,-805,-629,1489,2851,52,56,910,1767,1853,2093,2244,2021,1802,1829,1962
753165,5088,38480,5455,38223,610,116,-756,100,-853,-109,1702,3419,52,55,913,1767,1853,2093,2244,2021,1802,1829,1962
754166,5160,38564,5520,38288,752,-57,-734,171,-898,-409,1626,3216,55,41,913,1767,1853,2093,2244,2021,1802,1829,1962
755167,5236,38616,5585,38353,689,358,-743,102,-912,-427,1812,2942,53,49,912,1767,1853,2093,2244,2021,1802,1829,1962
756168,5316,38700,5650,38418,620,-65,-734,175,-919,-330,1717,3537,38,42,911,1712,1816,2041,2195,2011,1783,1823,1947
757169,5392,38780,5715,38483,657,-33,-762,114,-926,-223,1988,2639,36,45,914,1712,1816,2041,2195,2011,1783,1823,1947
758170,5464,38864,5780,38548,698,-106,-769,120,-922,-180,1743,3592,54,39,914,1712,1816,2041,2195,2011,1783,1823,1947
759171,5528,38932,5845,38613,800,90,-775,91,-919,-651,1659,2767,35,52,913,1712,1816,2041,2195,2011,1783,1823,1947
760172,5624,38996,5910,38678,363,141,-792,58,-939,-477,1685,3496,37,40,911,1712,1816,2041,2195,2011,1783,1823,1947
761173,5700,39060,5975,38743,599,143,-791,64,-949,-315,1636,3013,52,44,915,1721,1824,2052,2223,1990,1780,1815,1934
762174,5752,39116,6040,38808,915,253,-815,19,-969,27,1472,3027,33,49,913,1721,1824,2052,2223,1990,1780,1815,1934
763175,5828,39192,6105,38873,602,-11,-819,28,-997,-12,1167,3302,36,39,909,1721,1824,2052,2223,1990,1780,1815,1934
764176,5908,39256,6170,38938,533,140,-840,-40,-1033,-419,1163,2713,38,43,914,1721,1824,2052,2223,1990,1780,1815,1934
765177,5984,39328,6235,39003,570,32,-835,-62,-1076,-291,952,2991,45,41,914,1721,1824,2052,2223,1990,1780,1815,1934
766178,6040,39396,6300,39068,831,78,-837,-112,-1126,-216,1113,2805,43,54,914,1721,1824,2052,2223,1990,1780,1815,1934
767179,6124,39440,6365,39133,458,404,-847,-166,-1166,-121,947,2979,36,53,912,1761,1852,2102,2279,1997,1789,1811,1934
768180,6204,39516,6430,39198,489,-10,-840,-166,-1189,-132,982,2861,51,40,911,1761,1852,2102,2279,1997,1789,1811,1934
769181,6276,39596,6495,39263,582,-78,-853,-196,-1232,-26,1114,2944,34,41,915,1761,1852,2102,2279,1997,1789,1811,1934
770182,6348,39672,6560,39328,573,-42,-864,-226,-1294,-388,1055,2815,38,54,914,1761,1852,2102,2279,1997,1789,1811,1934
771183,6420,39736,6625,39393,565,109,-891,-283,-1330,-381,1103,2734,51,39,914,1761,1852,2102,2279,1997,1789,1811,1934
772184,6496,39792,6690,39458,501,220,-892,-277,-1342,-218,1277,3142,44,51,914,1784,1865,2112,2283,2003,1793,1826,1948
773185,6576,39864,6755,39523,433,11,-917,-294,-1362,-320,1408,2719,40,50,914,1784,1865,2112,2283,2003,1793,1826,1948
774186,6656,39948,6820,39588,415,-162,-948,-333,-1385,-338,1303,3071,39,43,916,1784,1865,2112,2283,2003,1793,1826,1948
775187,6732,40024,6885,39653,451,-75,-972,-345,-1403,-410,1354,2915,53,41,915,1784,1865,2112,2283,2003,1793,1826,1948
776188,6812,40092,6950,39718,383,21,-994,-354,-1411,-374,1308,3119,48,42,915,1784,1865,2112,2283,2003,1793,1826,1948
777189,6896,40172,7015,39783,310,-148,-991,-358,-1397,-467,1262,3356,37,39,916,1784,1865,2112,2283,2003,1793,1826,1948
778190,6972,40244,7080,39848,396,-57,-996,-387,-1395,-800,1231,3169,49,38,916,1746,1840,2056,2216,2007,1783,1829,1955
779191,7052,40320,7145,39913,328,-120,-988,-364,-1411,-531,1271,3458,32,34,916,1746,1840,2056,2216,2007,1783,1829,1955
780192,7136,40388,7210,39978,255,-24,-991,-364,-1419,-348,1168,3174,40,46,916,1746,1840,2056,2216,2007,1783,1829,1955
781193,7204,40448,7275,40043,451,82,-996,-355,-1426,-474,1000,3431,41,40,917,1746,1840,2056,2216,2007,1783,1829,1955
782194,7288,40512,7340,40108,228,33,-1004,-361,-1426,-571,942,3450,39,45,915,1746,1840,2056,2216,2007,1783,1829,1955
783195,7360,40592,7405,40173,369,-185,-992,-380,-1417,-435,880,3112,38,40,917,1696,1799,2015,2171,2021,1792,1831,1962
784196,7436,40660,7470,40238,306,-40,-988,-396,-1425,-444,754,3146,40,49,915,1696,1799,2015,2171,2021,1792,1831,1962
785197,7504,40720,7535,40303,402,66,-1000,-396,-1439,-470,563,3266,32,48,915,1696,1799,2015,2171,2021,1792,1831,1962
786198,7580,40772,7600,40368,289,182,-1008,-382,-1452,-175,738,3084,31,36,916,1696,1799,2015,2171,2021,1792,1831,1962
787199,7672,40840,7665,40433,56,-21,-1018,-415,-1473,-358,588,2821,38,46,917,1696,1799,2015,2171,2021,1792,1831,1962
788200,7756,40908,7730,40498,133,-25,-1049,-423,-1509,-382,454,2986,35,46,918,1696,1799,2015,2171,2021,1792,1831,1962
789201,7832,40968,7795,40563,219,81,-1092,-436,-1538,-233,479,2729,32,37,918,1719,1815,2053,2226,2026,1805,1833,1958
790202,7904,41044,7860,40628,261,-133,-1126,-468,-1551,-141,558,2907,41,49,918,1719,1815,2053,2226,2026,1805,1833,1958
791203,7996,41112,7925,40693,-22,-37,-1161,-511,-1567,-152,491,2593,44,43,917,1719,1815,2053,2226,2026,1805,1833,1958
792204,8080,41196,7990,40758,55,-260,-1214,-529,-1588,-311,477,2953,49,52,919,1719,1815,2053,2226,2026,1805,1833,1958
793205,8164,41264,8055,40823,31,-64,-1259,-539,-1608,-166,419,2627,30,39,917,1719,1815,2053,2226,2026,1805,1833,1958
794206,8276,41332,8120,40888,-376,-67,-1312,-552,-1621,-185,264,2512,38,36,918,1762,1842,2081,2259,2031,1813,1844,1964
795207,8388,41388,8185,40953,-433,93,-1356,-559,-1620,-296,289,2440,31,50,918,1762,1842,2081,2259,2031,1813,1844,1964
796208,8464,41456,8250,41018,3,-61,-1380,-590,-1600,89,623,2232,35,51,918,1762,1842,2081,2259,2031,1813,1844,1964
797209,8548,41540,8315,41083,-120,-284,-1411,-604,-1576,-149,707,3256,38,47,919,1762,1842,2081,2259,2031,1813,1844,1964
798210,8612,41608,8380,41148,131,-88,-1435,-590,-1562,-252,548,3118,47,37,910,1762,1842,2081,2259,2031,1813,1844,1964
799211,8684,41668,8445,41213,23,18,-1465,-556,-1531,218,445,3231,30,50,918,1762,1842,2081,2259,2031,1813,1844,1964
800212,8760,41732,8510,41278,-41,-31,-1472,-528,-1471,22,316,3788,28,38,919,1729,1812,2030,2171,2021,1792,1831,1959
801213,8852,41796,8575,41343,-275,-29,-1465,-512,-1412,-319,179,3423,35,47,919,1729,1812,2030,2171,2021,1792,1831,1959
802214,8932,41860,8640,41408,-143,-29,-1438,-530,-1397,-460,170,3189,31,42,917,1729,1812,2030,2171,2021,1792,1831,1959
803215,9004,41924,8705,41473,-51,-28,-1409,-556,-1403,-555,275,3214,35,49,919,1729,1812,2030,2171,2021,1792,1831,1959
804216,9076,41984,8770,41538,-60,28,-1388,-591,-1403,-719,13,2873,34,44,919,1729,1812,2030,2171,2021,1792,1831,1959
805217,9132,42064,8835,41603,151,-240,-1384,-575,-1391,-517,-28,3292,35,52,919,1671,1774,1988,2140,2028,1782,1825,1952
806218,9228,42132,8900,41668,-387,-94,-1384,-514,-1389,-279,24,3281,30,43,917,1671,1774,1988,2140,2028,1782,1825,1952
807219,9300,42212,8965,41733,-95,-263,-1389,-475,-1401,65,-9,2872,32,37,918,1671,1774,1988,2140,2028,1782,1825,1952
808220,9396,42284,9030,41798,-433,-172,-1390,-407,-1419,-152,117,3270,32,38,917,1671,1774,1988,2140,2028,1782,1825,1952
809221,9488,42360,9095,41863,-416,-235,-1425,-362,-1416,-296,58,2872,48,48,917,1671,1774,1988,2140,2028,1782,1825,1952
810222,9572,42432,9160,41928,-340,-194,-1459,-344,-1422,74,145,2642,33,42,917,1671,1774,1988,2140,2028,1782,1825,1952
811223,9656,42488,9225,41993,-364,17,-1509,-329,-1427,-45,-34,2870,47,34,906,1715,1815,2029,2216,1997,1766,1818,1926
812224,9732,42556,9290,42058,-277,-137,-1552,-317,-1433,41,-89,2358,37,42,919,1715,1815,2029,2216,1997,1766,1818,1926
813225,9816,42616,9355,42123,-400,-31,-1581,-315,-1439,-52,-76,2363,46,46,918,1715,1815,2029,2216,1997,1766,1818,1926
814226,9908,42668,9420,42188,-533,85,-1612,-339,-1438,-293,-307,2622,40,45,919,1715,1815,2029,2216,1997,1766,1818,1926
815227,9980,42732,9485,42253,-292,-64,-1624,-349,-1421,5,-483,2744,50,52,906,1715,1815,2029,2216,1997,1766,1818,1926
816228,10064,42796,9550,42318,-466,-63,-1613,-361,-1378,-55,-687,2862,40,38,919,1768,1844,2060,2264,1988,1774,1817,1917
817229,10156,42856,9615,42383,-599,-7,-1594,-376,-1328,-79,-895,3188,50,41,919,1768,1844,2060,2264,1988,1774,1817,1917
818230,10236,42928,9680,42448,-467,-166,-1527,-411,-1273,-202,-1123,3642,50,45,919,1768,1844,2060,2264,1988,1774,1817,1917
819231,10348,43012,9745,42513,-925,-340,-1440,-426,-1231,-125,-1358,3839,54,38,911,1768,1844,2060,2264,1988,1774,1817,1917
820232,10428,43072,9810,42578,-544,-34,-1325,-357,-1183,61,-1447,4536,57,48,916,1768,1844,2060,2264,1988,1774,1817,1917
821233,10520,43128,9875,42643,-727,27,-1222,-248,-1116,45,-1869,4831,55,52,919,1768,1844,2060,2264,1988,1774,1817,1917
822234,10640,43188,9940,42708,-1144,-16,-1129,-171,-1074,530,-1760,4551,49,41,919,1747,1825,2037,2236,1943,1750,1811,1902
823235,10712,43248,10005,42773,-553,-11,-1049,-129,-1068,672,-1445,4669,55,39,913,1747,1825,2037,2236,1943,1750,1811,1902
824236,10820,43324,10070,42838,-1056,-225,-1004,-120,-1070,229,-1320,4295,51,53,919,1747,1825,2037,2236,1943,1750,1811,1902
825237,10944,43368,10135,42903,-1328,201,-1018,-135,-1060,27,-1279,4377,53,47,918,1747,1825,2037,2236,1943,1750,1811,1902
826238,11060,43424,10200,42968,-1290,62,-1073,-134,-1055,-30,-1077,4326,65,51,918,1747,1825,2037,2236,1943,1750,1811,1902
827239,11160,43472,10265,43033,-1133,183,-1141,-148,-1062,-226,-1180,4209,57,38,916,1815,1983,2087,2339,1939,1730,1838,1914
828240,11284,43540,10330,43098,-1506,-71,-1222,-161,-1056,-391,-1487,4449,58,41,918,1815,1983,2087,2339,1939,1730,1838,1914
829241,11392,43596,10395,43163,-1359,89,-1307,-178,-1068,-177,-1572,4655,60,44,919,1815,1983,2087,2339,1939,1730,1838,1914
830242,11516,43672,10460,43228,-1632,-174,-1375,-188,-1083,221,-1681,4782,71,39,918,1815,1983,2087,2339,1939,1730,1838,1914
831243,11636,43732,10525,43293,-1649,32,-1436,-221,-1102,535,-1945,4743,64,44,917,1815,1983,2087,2339,1939,1730,1838,1914
832244,11748,43820,10590,43358,-1606,-346,-1463,-275,-1145,996,-2422,5040,65,45,919,1815,1983,2087,2339,1939,1730,1838,1914
833245,11872,43864,10655,43423,-1829,229,-1417,-308,-1154,209,-3454,5675,60,55,916,1903,1997,2159,2396,2070,1846,1950,2083
834246,11992,43952,10720,43488,-1846,-349,-1341,-308,-1127,40,-3821,5542,65,51,918,1903,1997,2159,2396,2070,1846,1950,2083
835247,12116,44004,10785,43553,-1969,116,-1221,-341,-1044,256,-3819,5450,75,37,915,1903,1997,2159,2396,2070,1846,1950,2083
836248,12248,44068,10850,43618,-2151,-33,-1117,-403,-977,479,-4081,5947,76,49,916,1903,1997,2159,2396,2070,1846,1950,2083
837249,12360,44144,10915,43683,-1959,-196,-1007,-399,-943,320,-4131,6049,83,41,919,1903,1997,2159,2396,2070,1846,1950,2083
838250,12520,44200,10980,43748,-2675,65,-919,-441,-905,459,-3941,6026,72,37,918,1847,1969,2159,2341,2239,1965,2049,2185
839251,12648,44252,11045,43813,-2353,131,-826,-538,-855,246,-3799,6185,72,49,918,1847,1969,2159,2341,2239,1965,2049,2185
840252,12768,44308,11110,43878,-2321,91,-747,-601,-806,24,-3701,6740,78,40,918,1847,1969,2159,2341,2239,1965,2049,2185
841253,12912,44368,11175,43943,-2718,47,-701,-615,-733,442,-3573,6736,72,39,918,1847,1969,2159,2341,2239,1965,2049,2185
842254,13036,44436,11240,44008,-2541,-57,-684,-639,-678,621,-2847,6166,77,38,919,1847,1969,2159,2341,2239,1965,2049,2185
843255,13148,44512,11305,44073,-2449,-170,-669,-675,-687,712,-2446,6289,82,49,918,1847,1969,2159,2341,2239,1965,2049,2185
844256,13288,44556,11370,44138,-2891,255,-628,-692,-780,1650,-2077,6306,79,45,918,1876,2006,2172,2413,2168,1900,2018,2092
845257,13416,44624,11435,44203,-2819,-48,-638,-592,-813,1334,-1055,6170,70,49,917,1876,2006,2172,2413,2168,1900,2018,2092
846258,13564,44672,11500,44268,-3171,221,-718,-442,-901,1216,-753,5495,85,47,919,1876,2006,2172,2413,2168,1900,2018,2092
847259,13668,44744,11565,44333,-2670,-87,-802,-458,-928,1436,-2304,5416,68,37,918,1876,2006,2172,2413,2168,1900,2018,2092
848260,13816,44788,11630,44398,-3321,288,-847,-583,-925,506,-2080,5651,83,39,919,1876,2006,2172,2413,2168,1900,2018,2092
849261,13976,44844,11695,44463,-3588,149,-892,-746,-945,-762,-2019,5000,81,36,917,1976,2071,2212,2491,2046,1815,1921,1986
850262,14096,44920,11760,44528,-3156,-114,-910,-780,-971,-1179,-2543,6485,69,35,918,1976,2071,2212,2491,2046,1815,1921,1986
851263,14272,44992,11825,44593,-3800,-73,-920,-799,-938,138,-3887,5924,68,49,918,1976,2071,2212,2491,2046,1815,1921,1986
852264,14440,45036,11890,44658,-3800,303,-872,-927,-860,433,-3514,5870,74,44,919,1976,2071,2212,2491,2046,1815,1921,1986
853265,14576,45112,11955,44723,-3707,-111,-794,-1048,-801,-850,-3554,5614,81,38,916,1976,2071,2212,2491,2046,1815,1921,1986
854266,14700,45152,12020,44788,-3630,369,-690,-1104,-738,-1298,-4163,5867,64,38,918,1976,2071,2212,2491,2046,1815,1921,1986
855267,14856,45212,12085,44853,-3800,125,-572,-1218,-684,-651,-4043,5152,73,32,917,1915,1999,2189,2407,2045,1825,1896,1997
856268,14972,45272,12150,44918,-3705,131,-433,-1228,-640,-270,-3935,5172,87,34,905,1915,1999,2189,2407,2045,1825,1896,1997
857269,15076,45316,12215,44983,-3604,357,-305,-1119,-561,-425,-4188,5310,69,33,918,1915,1999,2189,2407,2045,1825,1896,1997
858270,15124,45380,12280,45048,-2884,108,-202,-1005,-454,-435,-3862,4870,66,46,917,1915,1999,2189,2407,2045,1825,1896,1997
859271,15212,45444,12345,45113,-3413,109,-126,-795,-345,448,-3156,5562,79,45,918,1915,1999,2189,2407,2045,1825,1896,1997
860272,15340,45496,12410,45178,-3800,274,-76,-572,-299,663,-2752,5206,74,31,906,1872,1973,2150,2359,2002,1785,1884,1957
861273,15460,45548,12475,45243,-3800,290,-47,-463,-309,545,-2039,5173,64,31,918,1872,1973,2150,2359,2002,1785,1884,1957
862274,15576,45608,12540,45308,-3800,196,-42,-400,-322,46,-1600,4780,64,45,917,1872,1973,2150,2359,2002,1785,1884,1957
863275,15720,45640,12605,45373,-3800,587,-71,-379,-305,41,-1542,4733,61,42,918,1872,1973,2150,2359,2002,1785,1884,1957
864276,15836,45700,12670,45438,-3800,243,-109,-382,-308,-30,-1328,4458,74,46,908,1872,1973,2150,2359,2002,1785,1884,1957
865277,15972,45760,12735,45503,-3800,249,-147,-429,-317,-623,-1379,3860,65,38,918,1872,1973,2150,2359,2002,1785,1884,1957
866278,16052,45800,12800,45568,-3791,529,-176,-502,-327,-1179,-1336,4097,63,37,917,1898,1951,2095,2381,1955,1748,1857,1890
867279,16160,45864,12865,45633,-3800,231,-169,-586,-335,-1370,-1493,4010,57,43,915,1898,1951,2095,2381,1955,1748,1857,1890
868280,16288,45936,12930,45698,-3800,122,-140,-638,-335,-1064,-1731,4312,76,36,913,1898,1951,2095,2381,1955,1748,1857,1890
869281,16404,46020,12995,45763,-3800,-52,-46,-626,-341,-511,-1976,4735,65,34,918,1898,1951,2095,2381,1955,1748,1857,1890
870282,16496,46076,13060,45828,-3800,309,68,-609,-311,-484,-2530,4662,53,42,917,1898,1951,2095,2381,1955,1748,1857,1890
871283,16624,46128,13125,45893,-3800,375,212,-561,-268,-426,-2779,4730,56,31,917,1829,1883,2051,2299,1986,1774,1843,1923
872284,16736,46184,13190,45958,-3800,336,341,-497,-191,-456,-3196,4568,62,35,914,1829,1883,2051,2299,1986,1774,1843,1923
873285,16844,46252,13255,46023,-3800,182,448,-423,-109,-373,-3359,4160,51,38,917,1829,1883,2051,2299,1986,1774,1843,1923
874286,16932,46296,13320,46088,-3800,508,556,-301,-17,-310,-3374,4242,44,44,918,1829,1883,2051,2299,1986,1774,1843,1923
875287,17028,46364,13385,46153,-3800,204,639,-190,81,-57,-3339,4065,60,32,915,1829,1883,2051,2299,1986,1774,1843,1923
876289,17132,46420,13450,46218,-3800,365,716,-61,158,121,-3017,3955,63,34,916,1829,1883,2051,2299,1986,1774,1843,1923
877289,17204,46488,13515,46283,-3800,211,770,44,241,-69,-2999,3674,59,31,917,1802,1892,2095,2308,1971,1754,1821,1905
878290,17280,46540,13580,46348,-3800,427,799,59,322,-305,-2566,3438,60,29,918,1802,1892,2095,2308,1971,1754,1821,1905
879291,17372,46588,13645,46413,-3800,498,787,25,385,-705,-2175,3329,55,37,916,1802,1892,2095,2308,1971,1754,1821,1905
880292,17456,46632,13710,46478,-3800,574,757,-2,416,-624,-1882,3090,38,41,914,1802,1892,2095,2308,1971,1754,1821,1905
881293,17524,46704,13775,46543,-3800,214,704,-42,433,-415,-1546,3059,53,33,915,1802,1892,2095,2308,1971,1754,1821,1905
882294,17604,46760,13840,46608,-3800,425,642,-91,437,-350,-1287,3003,54,37,917,1863,1942,2118,2358,1908,1691,1799,1863
883295,17672,46816,13905,46673,-3800,436,587,-144,437,-358,-1100,3033,40,30,916,1863,1942,2118,2358,1908,1691,1799,1863
884296,17768,46892,13970,46738,-3800,173,558,-172,413,-71,-883,3328,46,42,915,1863,1942,2118,2358,1908,1691,1799,1863
885297,17836,46940,14035,46803,-3800,543,546,-216,393,-5,-834,2921,41,37,918,1863,1942,2118,2358,1908,1691,1799,1863
886298,17908,47012,14100,46868,-3800,235,575,-244,383,141,-813,3596,47,41,915,1863,1942,2118,2358,1908,1691,1799,1863
887299,17972,47068,14165,46933,-3800,446,625,-238,366,407,-881,3483,30,44,915,1863,1942,2118,2358,1908,1691,1799,1863
888300,18028,47136,14230,46998,-3800,292,708,-231,344,478,-1059,3512,42,31,916,1811,1878,2014,2231,1962,1738,1832,1932
889301,18096,47176,14295,47063,-3800,673,811,-223,337,448,-1165,3780,36,29,917,1811,1878,2014,2231,1962,1738,1832,1932
890302,18140,47264,14360,47128,-3800,44,925,-206,353,532,-1244,3748,24,41,914,1811,1878,2014,2231,1962,1738,1832,1932
891303,18204,47304,14425,47193,-3800,675,1032,-187,378,463,-1289,3859,41,38,918,1811,1878,2014,2231,1962,1738,1832,1932
892304,18252,47372,14490,47258,-3800,321,1149,-215,430,236,-1272,3736,32,28,913,1811,1878,2014,2231,1962,1738,1832,1932
893305,18304,47440,14555,47323,-3800,318,1229,-255,473,113,-1286,3513,22,26,917,1699,1800,1976,2144,2007,1765,1836,1948
894306,18344,47488,14620,47388,-3800,588,1309,-305,513,-320,-1203,3407,22,30,917,1699,1800,1976,2144,2007,1765,1836,1948
895307,18396,47548,14685,47453,-3800,445,1347,-381,560,-178,-1026,3153,27,27,915,1699,1800,1976,2144,2007,1765,1836,1948
896308,18428,47596,14750,47518,-3753,615,1374,-434,613,-168,-897,3180,17,40,915,1699,1800,1976,2144,2007,1765,1836,1948
897309,18492,47668,14815,47583,-3800,307,1346,-506,656,-260,-735,2853,28,32,914,1699,1800,1976,2144,2007,1765,1836,1948
898310,18516,47728,14880,47648,-3605,463,1306,-559,690,-415,-535,2758,27,32,917,1749,1869,2063,2254,1957,1738,1811,1914
899311,18548,47772,14945,47713,-3667,688,1230,-620,710,-235,-397,2746,33,32,916,1749,1869,2063,2254,1957,1738,1811,1914
900312,18592,47820,15010,47778,-3792,659,1147,-690,703,-177,-305,2798,13,40,913,1749,1869,2063,2254,1957,1738,1811,1914
901313,18632,47876,15075,47843,-3713,570,1064,-720,696,70,-183,2963,18,29,914,1749,1869,2063,2254,1957,1738,1811,1914
902314,18648,47920,15140,47908,-3355,746,1000,-745,682,175,-125,3009,27,33,915,1749,1869,2063,2254,1957,1738,1811,1914
903317,18688,47992,15205,47973,-3625,387,937,-758,650,268,-91,3074,26,37,913,1749,1869,2063,2254,1957,1738,1811,1914
904316,18716,48060,15270,48038,-3431,434,899,-760,622,551,-134,3051,28,45,914,1836,1924,2120,2306,1969,1755,1821,1945
905317,18752,48144,15335,48103,-3498,210,872,-757,576,377,-316,3170,28,31,903,1836,1924,2120,2306,1969,1755,1821,1945
906318,18764,48192,15400,48168,-3134,680,873,-739,519,340,-269,3446,8,36,917,1836,1924,2120,2306,1969,1755,1821,1945
907319,18784,48244,15465,48233,-3180,646,891,-668,473,725,-214,3833,11,33,914,1836,1924,2120,2306,1969,1755,1821,1945
908320,18812,48316,15530,48298,-3237,388,935,-595,431,959,-219,3797,16,30,914,1836,1924,2120,2306,1969,1755,1821,1945
909321,18828,48368,15595,48363,-3028,653,981,-521,408,925,-103,4095,8,38,906,1749,1834,2041,2207,2064,1829,1864,1997
910322,18856,48444,15660,48428,-3134,340,1027,-484,393,602,41,3902,20,37,914,1749,1834,2041,2207,2064,1829,1864,1997
911323,18876,48520,15725,48493,-2980,327,1052,-462,376,279,149,3868,5,31,917,1749,1834,2041,2207,2064,1829,1864,1997
912324,18892,48568,15790,48558,-2871,697,1092,-506,381,-31,343,3936,12,45,917,1749,1834,2041,2207,2064,1829,1864,1997
913325,18912,48628,15855,48623,-2868,553,1124,-603,408,-617,368,3888,9,32,907,1749,1834,2041,2207,2064,1829,1864,1997
914326,18936,48704,15920,48688,-2869,340,1140,-664,444,-625,563,4222,21,34,915,1749,1834,2041,2207,2064,1829,1864,1997
915327,18944,48784,15985,48753,-2601,272,1126,-664,450,-150,862,4132,5,48,917,1653,1770,1995,2169,2082,1847,1877,1991
916328,18952,48860,16050,48818,-2532,308,1105,-667,473,-306,744,4015,0,47,917,1653,1770,1995,2169,2082,1847,1877,1991
917329,18964,48920,16115,48883,-2518,514,1068,-644,488,-111,945,4205,-1,46,913,1653,1770,1995,2169,2082,1847,1877,1991
918330,18980,49008,16180,48948,-2509,136,1019,-602,506,-26,1094,4017,14,45,915,1653,1770,1995,2169,2082,1847,1877,1991
919331,18992,49076,16245,49013,-2396,383,942,-510,512,329,1051,3926,17,45,918,1653,1770,1995,2169,2082,1847,1877,1991
920332,18984,49148,16310,49078,-2058,324,831,-402,491,494,994,3790,14,42,917,1728,1839,2073,2269,2072,1839,1881,2008
921333,18996,49204,16375,49143,-2244,535,727,-294,449,679,1082,3874,3,34,912,1728,1839,2073,2269,2072,1839,1881,2008
922334,19008,49272,16440,49208,-2180,381,656,-187,404,541,819,4056,0,44,915,1728,1839,2073,2269,2072,1839,1881,2008
923335,19012,49352,16505,49273,-2007,213,614,-87,348,502,681,4019,4,32,916,1728,1839,2073,2269,2072,1839,1881,2008
924336,19008,49420,16570,49338,-1824,359,592,-62,300,365,610,3840,13,33,918,1728,1839,2073,2269,2072,1839,1881,2008
925337,19016,49480,16635,49403,-1905,466,586,-83,255,125,516,4141,2,29,914,1728,1839,2073,2269,2072,1839,1881,2008
926338,19040,49564,16700,49468,-2056,142,574,-101,167,126,440,4213,13,31,916,1793,1890,2133,2303,2110,1875,1883,2034
927339,19072,49620,16765,49533,-2117,503,571,-52,86,326,487,4310,-6,43,918,1793,1890,2133,2303,2110,1875,1883,2034
928340,19100,49700,16830,49598,-2022,185,554,-12,27,858,651,4104,6,44,916,1793,1890,2133,2303,2110,1875,1883,2034
929341,19104,49760,16895,49663,-1649,441,550,6,-6,582,673,4184,11,45,917,1793,1890,2133,2303,2110,1875,1883,2034
930342,19128,49816,16960,49728,-1850,502,539,-27,-29,64,833,4377,-4,36,916,1793,1890,2133,2303,2110,1875,1883,2034
931343,19140,49884,17025,49793,-1636,348,521,-60,-31,-206,991,4426,6,39,916,1761,1860,2116,2260,2108,1868,1882,2024
932344,19128,49964,17090,49858,-1242,180,505,-86,-37,63,1262,4372,6,36,917,1761,1860,2116,2260,2108,1868,1882,2024
933345,19128,50016,17155,49923,-1314,546,496,-120,-15,77,1413,4612,13,45,917,1761,1860,2116,2260,2108,1868,1882,2024
934346,19136,50088,17220,49988,-1345,287,459,-113,-11,159,1528,4716,4,43,915,1761,1860,2116,2260,2108,1868,1882,2024
935347,19148,50164,17285,50053,-1332,224,424,-64,4,252,1597,4497,12,46,917,1761,1860,2116,2260,2108,1868,1882,2024
936348,19136,50244,17350,50118,-938,156,386,-45,17,679,1860,4578,14,39,918,1761,1860,2116,2260,2108,1868,1882,2024
937349,19136,50288,17415,50183,-1009,631,360,-72,41,551,1813,4887,12,38,918,1736,1850,2072,2230,2086,1848,1892,2032
938350,19152,50356,17480,50248,-1151,328,340,-119,59,71,1822,4704,9,41,912,1736,1850,2072,2230,2086,1848,1892,2032
939351,19152,50424,17545,50313,-871,324,308,-91,55,49,1929,4620,14,43,916,1736,1850,2072,2230,2086,1848,1892,2032
940352,19152,50504,17610,50378,-793,156,251,14,31,670,1969,4237,-2,36,917,1736,1850,2072,2230,2086,1848,1892,2032
941353,19152,50568,17675,50443,-714,357,183,98,-7,826,1796,4000,-5,42,917,1736,1850,2072,2230,2086,1848,1892,2032
942354,19152,50636,17740,50508,-635,302,137,107,-69,556,1665,3911,2,33,917,1759,1878,2103,2261,2121,1872,1897,2063
943355,19140,50704,17805,50573,-392,299,128,27,-121,24,1312,4079,14,31,917,1759,1878,2103,2261,2121,1872,1897,2063
944356,19140,50788,17870,50638,-463,75,154,-67,-156,-344,1163,4244,10,42,917,1759,1878,2103,2261,2121,1872,1897,2063
945357,19148,50856,17935,50703,-494,272,168,-93,-208,-384,1051,4081,1,33,918,1759,1878,2103,2261,2121,1872,1897,2063
946358,19148,50912,18000,50768,-315,433,154,-59,-255,210,1045,4029,13,27,918,1759,1878,2103,2261,2121,1872,1897,2063
947359,19156,50956,18065,50833,-346,608,132,-81,-288,481,886,3683,-4,34,916,1759,1878,2103,2261,2121,1872,1897,2063
948360,19160,51032,18130,50898,-222,195,108,-116,-334,191,736,3866,12,33,915,1776,1884,2136,2496,2124,1869,1880,2040
949361,19160,51088,18195,50963,-92,456,79,-122,-378,-133,787,3950,6,25,917,1776,1884,2136,2496,2124,1869,1880,2040
950362,19148,51148,18260,51028,151,412,55,-224,-373,2,836,3595,-2,29,916,1776,1884,2136,2496,2124,1869,1880,2040
951364,19160,51232,18325,51093,-85,89,21,-347,-359,-120,808,3811,-1,31,915,1776,1884,2136,2496,2124,1869,1880,2040
952364,19148,51296,18524,51292,473,504,-42,-346,-368,-14,1013,4181,12,27,915,1776,1884,2136,2496,2124,1869,1880,2040
953365,19160,51356,18589,51357,236,560,-108,-308,-345,285,1025,4004,14,31,912,1748,1864,2104,2241,2060,1819,1849,1995
954366,19160,51424,18654,51422,466,456,-173,-280,-311,473,1124,3993,8,43,913,1748,1864,2104,2241,2060,1819,1849,1995
955367,19172,51500,18719,51487,381,343,-230,-263,-287,452,1309,4079,18,39,911,1748,1864,2104,2241,2060,1819,1849,1995
956368,19176,51564,18784,51552,555,494,-280,-276,-263,220,1533,4135,21,43,914,1748,1864,2104,2241,2060,1819,1849,1995
957369,19196,51628,18849,51617,410,495,-330,-271,-237,118,1504,3937,5,41,911,1748,1864,2104,2241,2060,1819,1849,1995
958370,19220,51692,18914,51682,409,496,-383,-228,-231,399,1602,3915,8,39,912,1748,1864,2104,2241,2060,1819,1849,1995
959371,19244,51764,18979,51747,459,388,-428,-182,-236,532,1531,3636,28,38,913,1720,1825,2036,2183,2067,1827,1871,2015
960372,19284,51840,19044,51812,290,324,-440,-158,-235,346,1370,3761,17,34,913,1720,1825,2036,2183,2067,1827,1871,2015
961373,19300,51908,19109,51877,649,421,-435,-144,-254,-95,1235,3607,33,46,915,1720,1825,2036,2183,2067,1827,1871,2015
962374,19348,51968,19174,51942,270,527,-411,-178,-288,-134,1364,3459,23,48,911,1720,1825,2036,2183,2067,1827,1871,2015
963375,19392,52060,19239,52007,346,94,-389,-255,-325,-287,1146,3519,18,41,913,1720,1825,2036,2183,2067,1827,1871,2015
964376,19404,52124,19304,52072,810,445,-360,-324,-353,-312,1057,3484,34,38,916,1687,1794,2019,2169,2112,1854,1878,2022
965377,19444,52200,19369,52137,491,282,-346,-370,-379,-254,956,3548,40,39,910,1687,1794,2019,2169,2112,1854,1878,2022
966378,19484,52260,19434,52202,521,488,-337,-394,-405,-121,843,3481,33,52,913,1687,1794,2019,2169,2112,1854,1878,2022
967379,19516,52336,19499,52267,662,274,-329,-421,-416,-266,800,3301,28,42,912,1687,1794,2019,2169,2112,1854,1878,2022
968380,19576,52408,19564,52332,318,316,-335,-402,-433,-104,664,3534,29,39,912,1687,1794,2019,2169,2112,1854,1878,2022
969381,19640,52476,19629,52397,269,362,-353,-354,-443,9,551,3604,32,37,915,1687,1794,2019,2169,2112,1854,1878,2022
970382,19712,52548,19694,52462,161,304,-391,-319,-444,185,494,3092,33,37,915,1722,1829,2065,2223,2042,1798,1830,1960
971383,19780,52620,19759,52527,207,295,-440,-264,-423,208,417,3349,32,35,916,1722,1829,2065,2223,2042,1798,1830,1960
972384,19844,52680,19824,52592,258,451,-484,-229,-396,200,585,3500,39,46,914,1722,1829,2065,2223,2042,1798,1830,1960
973385,19912,52740,19889,52657,204,457,-536,-213,-366,-6,407,3476,53,44,915,1722,1829,2065,2223,2042,1798,1830,1960
974386,19984,52800,19954,52722,146,463,-591,-163,-345,94,530,3831,51,46,915,1722,1829,2065,2223,2042,1798,1830,1960
975387,20056,52880,20019,52787,137,194,-644,-122,-307,43,449,3515,51,45,915,1778,1872,2092,2264,1971,1755,1802,1921
976388,20120,52936,20084,52852,239,505,-675,-98,-263,44,510,3653,40,45,917,1778,1872,2092,2264,1971,1755,1802,1921
977389,20176,53004,20149,52917,350,351,-689,-130,-232,-88,641,3635,35,36,914,1778,1872,2092,2264,1971,1755,1802,1921
978390,20248,53068,20214,52982,141,403,-689,-183,-212,-434,550,3680,50,47,914,1778,1872,2092,2264,1971,1755,1802,1921
979391,20312,53136,20279,53047,242,349,-670,-220,-218,-417,691,3838,33,32,916,1778,1872,2092,2264,1971,1755,1802,1921
980392,20380,53192,20344,53112,189,510,-639,-245,-219,-368,551,3829,34,32,916,1778,1872,2092,2264,1971,1755,1802,1921
981393,20460,53264,20409,53177,20,301,-602,-256,-218,-83,537,3920,46,42,915,1763,1848,2063,2239,2013,1790,1839,1964
982394,20532,53324,20474,53242,112,457,-552,-251,-235,45,555,3922,48,46,917,1763,1848,2063,2239,2013,1790,1839,1964
983395,20612,53396,20539,53307,-7,299,-512,-208,-269,38,370,3902,46,42,916,1763,1848,2063,2239,2013,1790,1839,1964
984396,20660,53464,20604,53372,414,345,-459,-208,-290,163,466,3947,35,39,917,1763,1848,2063,2239,2013,1790,1839,1964
985397,20732,53512,20669,53437,106,616,-415,-224,-294,-75,316,3796,46,43,914,1763,1848,2063,2239,2013,1790,1839,1964
986398,20784,53580,20734,53502,371,362,-368,-224,-306,-163,396,4006,48,37,914,1754,1849,2064,2241,2046,1808,1864,1984
987399,20852,53628,20799,53567,167,633,-336,-207,-313,-211,313,3968,42,41,914,1754,1849,2064,2241,2046,1808,1864,1984
988400,20904,53692,20864,53632,383,434,-312,-184,-299,-208,255,3866,39,45,914,1754,1849,2064,2241,2046,1808,1864,1984
989401,20976,53744,20929,53697,124,600,-301,-165,-266,-252,263,3922,48,27,912,1754,1849,2064,2241,2046,1808,1864,1984
990402,21036,53824,20994,53762,280,232,-290,-148,-238,-317,154,3911,46,46,914,1754,1849,2064,2241,2046,1808,1864,1984
991403,21084,53868,21059,53827,451,707,-303,-162,-204,-456,35,3841,45,40,916,1754,1849,2064,2241,2046,1808,1864,1984
992404,21160,53924,21124,53892,88,568,-300,-169,-166,-481,90,4128,34,41,911,1799,1903,2105,2295,2010,1779,1844,1958
993405,21216,53992,21189,53957,349,415,-303,-179,-126,-409,-93,4028,33,29,914,1799,1903,2105,2295,2010,1779,1844,1958
994406,21264,54040,21254,54022,469,686,-298,-167,-98,-250,-175,4266,28,37,914,1799,1903,2105,2295,2010,1779,1844,1958
995407,21312,54100,21319,54087,490,542,-297,-165,-68,-165,-308,4315,40,30,911,1799,1903,2105,2295,2010,1779,1844,1958
996408,21372,54164,21384,54152,346,493,-278,-157,-44,-173,-348,4394,32,38,912,1799,1903,2105,2295,2010,1779,1844,1958
997409,21436,54224,21449,54217,297,549,-271,-173,-38,-234,-481,4202,31,38,913,1836,1932,2132,2320,1992,1770,1834,1952
998410,21484,54300,21514,54282,518,336,-248,-183,-40,-147,-459,4456,38,41,913,1836,1932,2132,2320,1992,1770,1834,1952
999411,21536,54340,21579,54347,484,816,-228,-201,-42,-86,-462,4482,27,38,913,1836,1932,2132,2320,1992,1770,1834,1952
1000412,21592,54404,21644,54412,445,517,-188,-219,-53,-27,-391,4397,37,42,909,1836,1932,2132,2320,1992,1770,1834,1952
1001413,21652,54452,21709,54477,401,738,-160,-234,-69,-139,-442,4514,40,30,912,1836,1932,2132,2320,1992,1770,1834,1952
1002414,21716,54524,21774,54542,352,429,-127,-252,-78,-88,-403,4486,32,43,911,1836,1932,2132,2320,1992,1770,1834,1952
1003415,21780,54576,21839,54607,354,695,-96,-266,-85,-41,-324,4424,33,35,913,1831,1917,2123,2312,2023,1798,1863,1979
1004416,21844,54648,21904,54672,355,437,-60,-289,-94,-97,-228,4342,48,43,911,1831,1917,2123,2312,2023,1798,1863,1979
1005417,21888,54708,21969,54737,630,593,-30,-308,-96,-179,-146,4451,31,30,913,1831,1917,2123,2312,2023,1798,1863,1979
1006418,21968,54752,22034,54802,162,819,-5,-327,-86,-192,-136,4346,35,43,909,1831,1917,2123,2312,2023,1798,1863,1979
1007419,22028,54820,22099,54867,419,515,15,-327,-76,-187,-115,4391,46,44,911,1831,1917,2123,2312,2023,1798,1863,1979
