%  Data file recorded 2016/7/17  22:3:29
%  Stride Frequency         = [1, 1]
%  Lead In /Lead Out        = 
%  Deltas (Fractional)      = [0.25, 0.25, 0.25],[0.25, 0.25, 0.25]
%  Phase                    = 32768
%  Experiment.py 
%  Motor Gains    = [5000, 400, 200, 0, 300, 5000, 400, 200, 0, 300]
% Columns: 
% time | Right Leg Pos | Left Leg Pos | Commanded Right Leg Pos | Commanded Left Leg Pos | DCR | DCL | GyroX | GyroY | GyroZ | AX | AY | AZ | RBEMF | LBEMF | VBatt | S1 | S2 | S3 | S4 | S5 | S6 | S7 | S8
468,-43276,-13960,-45000,-12232,-3800,-3800,-2,-5,2,55,92,3950,-1,-4,864,1507,1637,1785,1871,1852,1636,1733,1825
1469,-43268,-13972,-45000,-12232,-3800,-3800,0,-2,3,19,108,3983,8,3,864,1507,1637,1785,1871,1852,1636,1733,1825
2470,-43276,-13968,-45000,-12232,-3800,-3800,-3,1,5,38,111,3992,0,5,864,1507,1637,1785,1871,1852,1636,1733,1825
3471,-43284,-13968,-45000,-12232,-3800,-3800,-3,2,2,59,114,3991,-9,6,864,1507,1637,1785,1871,1852,1636,1733,1825
4472,-43272,-13976,-45000,-12232,-3800,-3800,-1,0,0,89,100,3940,2,6,864,1507,1638,1787,1871,1853,1636,1734,1826
5473,-43284,-13952,-45000,-12232,-3800,-3800,-1,-3,1,110,96,3933,9,-3,864,1507,1638,1787,1871,1853,1636,1734,1826
6474,-43272,-13968,-45000,-12232,-3800,-3800,-1,-2,1,95,103,3950,0,-5,864,1507,1638,1787,1871,1853,1636,1734,1826
7475,-43280,-13960,-45000,-12232,-3800,-3800,-5,0,1,87,104,3943,-8,-6,864,1507,1638,1787,1871,1853,1636,1734,1826
8476,-43272,-13968,-45000,-12232,-3800,-3800,-7,1,1,54,111,3934,-10,0,864,1507,1638,1787,1871,1853,1636,1734,1826
9477,-43272,-13960,-45000,-12232,-3800,-3800,-6,0,2,62,78,3957,-1,1,864,1508,1637,1785,1871,1851,1633,1733,1827
10478,-43272,-13972,-45000,-12232,-3800,-3800,-4,1,1,39,84,3969,8,4,864,1508,1637,1785,1871,1851,1633,1733,1827
11479,-43276,-13968,-45000,-12232,-3800,-3800,-5,2,1,58,101,3966,-5,7,864,1508,1637,1785,1871,1851,1633,1733,1827
12480,-43288,-13960,-45000,-12232,-3800,-3800,-3,3,1,67,106,3960,-6,3,864,1508,1637,1785,1871,1851,1633,1733,1827
13481,-43280,-13972,-45000,-12232,-3800,-3800,-3,1,1,78,93,3956,8,4,864,1508,1637,1785,1871,1851,1633,1733,1827
14482,-43284,-13968,-45000,-12232,-3800,-3800,-3,3,3,56,75,3937,7,7,864,1508,1637,1785,1871,1851,1633,1733,1827
15483,-43284,-13968,-45000,-12232,-3800,-3800,-4,3,0,58,77,3983,-10,5,864,1508,1639,1786,1871,1852,1634,1732,1825
16484,-43284,-13968,-45000,-12232,-3800,-3800,-5,0,0,50,84,3958,6,7,864,1508,1639,1786,1871,1852,1634,1732,1825
17485,-43272,-13976,-45000,-12232,-3800,-3800,-3,-4,-1,57,101,3927,0,-5,864,1508,1639,1786,1871,1852,1634,1732,1825
18486,-43292,-13960,-45000,-12232,-3800,-3800,-2,-4,-1,56,102,3935,-5,-3,865,1508,1639,1786,1871,1852,1634,1732,1825
19487,-43276,-13960,-45000,-12232,-3800,-3800,-3,0,0,60,115,3967,7,-6,863,1508,1639,1786,1871,1852,1634,1732,1825
20488,-43276,-13964,-45000,-12232,-3800,-3800,-3,1,0,48,112,3969,-10,-4,864,1507,1639,1788,1874,1854,1636,1734,1825
21489,-43284,-13980,-45000,-12232,-3800,-3800,-4,2,0,49,118,3963,-1,-5,864,1507,1639,1788,1874,1854,1636,1734,1825
22490,-43280,-13964,-45000,-12232,-3800,-3800,-4,1,0,61,114,3922,9,0,864,1507,1639,1788,1874,1854,1636,1734,1825
23491,-43284,-13968,-45000,-12232,-3800,-3800,-2,1,1,65,102,3941,-4,5,864,1507,1639,1788,1874,1854,1636,1734,1825
24492,-43280,-13964,-45000,-12232,-3800,-3800,-1,-1,2,59,84,3940,-3,2,864,1507,1639,1788,1874,1854,1636,1734,1825
25493,-43280,-13968,-45000,-12232,-3800,-3800,-3,-1,0,43,109,3955,8,6,864,1507,1639,1788,1874,1854,1636,1734,1825
26494,-43280,-13968,-45000,-12232,-3800,-3800,-4,-1,0,23,95,3924,-7,8,864,1507,1637,1784,1870,1852,1634,1733,1826
27495,-43280,-13964,-45000,-12232,-3800,-3800,-4,-1,0,51,98,3903,-5,6,864,1507,1637,1784,1870,1852,1634,1733,1826
28496,-43272,-13964,-45000,-12232,-3800,-3800,-3,-2,-1,45,101,3914,8,7,864,1507,1637,1784,1870,1852,1634,1733,1826
29497,-43272,-13960,-45000,-12232,-3800,-3800,-2,-1,-3,41,97,3922,3,8,864,1507,1637,1784,1870,1852,1634,1733,1826
30498,-43276,-13964,-45000,-12232,-3800,-3800,-3,0,0,56,111,3940,-10,5,864,1507,1637,1784,1870,1852,1634,1733,1826
31499,-43268,-13964,-45000,-12232,-3800,-3800,-3,-1,-1,36,116,3967,1,5,864,1508,1638,1784,1870,1853,1635,1733,1826
32500,-43276,-13968,-45000,-12232,-3800,-3800,-5,-1,-1,39,106,3935,9,6,864,1508,1638,1784,1870,1853,1635,1733,1826
33501,-43272,-13956,-45000,-12232,-3800,-3800,-5,-1,2,29,110,3907,-5,2,864,1508,1638,1784,1870,1853,1635,1733,1826
34502,-43276,-13960,-45000,-12232,-3800,-3800,-4,-3,-1,42,117,3902,-8,6,864,1508,1638,1784,1870,1853,1635,1733,1826
35503,-43268,-13956,-45000,-12232,-3800,-3800,0,-2,-1,61,97,3906,3,8,864,1508,1638,1784,1870,1853,1635,1733,1826
36504,-43276,-13972,-45000,-12232,-3800,-3800,2,-5,1,32,99,3924,1,7,863,1508,1638,1784,1870,1853,1635,1733,1826
37505,-43276,-13968,-45000,-12232,-3800,-3800,-1,-6,4,60,97,3924,-7,-4,864,1506,1638,1786,1871,1853,1635,1734,1825
38506,-43280,-13952,-45000,-12232,-3800,-3800,-1,-4,5,73,104,3954,-3,-6,864,1506,1638,1786,1871,1853,1635,1734,1825
39507,-43284,-13964,-45000,-12232,-3800,-3800,-2,-4,5,64,84,3931,9,-7,864,1506,1638,1786,1871,1853,1635,1734,1825
40508,-43268,-13972,-45000,-12232,-3800,-3800,-1,-4,1,82,98,3927,-7,-5,864,1506,1638,1786,1871,1853,1635,1734,1825
41509,-43284,-13964,-45000,-12232,-3800,-3800,-2,-5,0,56,115,3914,-7,0,864,1506,1638,1786,1871,1853,1635,1734,1825
42510,-43284,-13948,-45000,-12232,-3800,-3800,-2,-6,3,61,112,3957,8,0,864,1507,1637,1784,1870,1852,1635,1734,1826
43511,-43276,-13972,-45000,-12232,-3800,-3787,-1,-5,2,63,84,3951,-4,3,864,1507,1637,1784,1870,1852,1635,1734,1826
44512,-43268,-13960,-45000,-12232,-3800,-3800,-2,-3,3,67,88,3914,-7,8,864,1507,1637,1784,1870,1852,1635,1734,1826
45513,-43276,-13964,-45000,-12232,-3800,-3800,-4,-4,3,56,100,3952,-10,8,864,1507,1637,1784,1870,1852,1635,1734,1826
46514,-43276,-13964,-45000,-12232,-3800,-3800,-6,-6,3,55,117,3937,-7,6,864,1507,1637,1784,1870,1852,1635,1734,1826
47515,-43280,-13972,-45000,-12232,-3800,-3800,-4,-5,4,59,110,3954,-4,-2,864,1507,1637,1784,1870,1852,1635,1734,1826
48516,-43280,-13968,-45000,-12232,-3800,-3800,-4,-4,4,80,125,3950,5,-2,864,1507,1638,1785,1871,1851,1633,1733,1826
49517,-43264,-13964,-45000,-12232,-3800,-3800,-3,-4,3,63,125,3966,9,-7,864,1507,1638,1785,1871,1851,1633,1733,1826
50518,-43276,-13964,-45000,-12232,-3800,-3800,-1,-3,4,78,112,3932,8,-5,864,1507,1638,1785,1871,1851,1633,1733,1826
51519,-43284,-13964,-45000,-12232,-3800,-3800,-3,-3,1,96,111,3940,-4,-3,864,1507,1638,1785,1871,1851,1633,1733,1826
52520,-43276,-13964,-45000,-12232,-3800,-3800,-4,-2,-1,108,96,3918,-10,6,864,1507,1638,1785,1871,1851,1633,1733,1826
53521,-43284,-13964,-45000,-12232,-3800,-3800,-4,-2,0,52,80,3927,2,6,862,1507,1638,1786,1873,1854,1636,1734,1825
54522,-43272,-13972,-45000,-12232,-3800,-3800,-5,-2,1,67,90,3959,5,0,864,1507,1638,1786,1873,1854,1636,1734,1825
55523,-43280,-13968,-45000,-12232,-3800,-3800,-5,-2,-1,94,86,3989,-8,-5,864,1507,1638,1786,1873,1854,1636,1734,1825
56524,-43272,-13972,-45000,-12232,-3800,-3800,-4,-4,1,63,102,3956,-10,-7,864,1507,1638,1786,1873,1854,1636,1734,1825
57525,-43268,-13952,-45000,-12232,-3800,-3800,-5,-4,2,56,121,3932,-4,-7,864,1507,1638,1786,1873,1854,1636,1734,1825
58526,-43268,-13952,-45000,-12232,-3800,-3800,-4,-2,2,84,67,3961,6,-5,864,1507,1638,1786,1873,1854,1636,1734,1825
59527,-43280,-13976,-45000,-12232,-3800,-3773,-3,-1,0,96,80,3943,9,5,864,1507,1637,1786,1871,1854,1636,1736,1828
60528,-43284,-13956,-45000,-12232,-3800,-3800,-2,-1,-1,87,96,3932,3,6,864,1507,1637,1786,1871,1854,1636,1736,1828
61529,-43280,-13960,-45000,-12232,-3800,-3800,-3,-2,-1,69,101,3950,-10,6,864,1507,1637,1786,1871,1854,1636,1736,1828
62530,-43272,-13960,-45000,-12232,-3800,-3800,-2,-1,2,88,106,3981,-10,-2,864,1507,1637,1786,1871,1854,1636,1736,1828
63531,-43276,-13960,-45000,-12232,-3800,-3800,-2,-2,3,72,108,3990,2,-3,864,1507,1637,1786,1871,1854,1636,1736,1828
64532,-43276,-13956,-45000,-12232,-3800,-3800,-4,1,3,86,103,3945,8,-7,864,1508,1638,1786,1872,1852,1635,1733,1826
65533,-43276,-13956,-45000,-12232,-3800,-3800,-3,2,2,76,104,3929,5,-2,864,1508,1638,1786,1872,1852,1635,1733,1826
66534,-43288,-13956,-45000,-12232,-3800,-3800,-4,-1,0,58,98,3941,-7,1,864,1508,1638,1786,1872,1852,1635,1733,1826
67535,-43276,-13964,-45000,-12232,-3800,-3800,-4,0,0,68,107,3976,-9,7,864,1508,1638,1786,1872,1852,1635,1733,1826
68536,-43276,-13976,-45000,-12232,-3800,-3800,-2,2,0,65,111,3931,-3,6,864,1508,1638,1786,1872,1852,1635,1733,1826
69537,-43268,-13984,-45000,-12232,-3800,-3800,-2,4,0,68,97,3914,7,4,864,1508,1638,1786,1872,1852,1635,1733,1826
70538,-43272,-13964,-45000,-12232,-3800,-3800,-1,1,1,54,101,3920,-9,-6,863,1509,1640,1788,1872,1854,1636,1734,1825
71539,-43272,-13964,-45000,-12232,-3800,-3800,-2,-1,-2,63,92,3951,9,5,864,1509,1640,1788,1872,1854,1636,1734,1825
72540,-43272,-13960,-45000,-12232,-3800,-3800,0,-1,-1,66,100,3965,-9,7,864,1509,1640,1788,1872,1854,1636,1734,1825
73541,-43280,-13964,-45000,-12232,-3800,-3800,-1,0,1,82,130,3923,1,1,864,1509,1640,1788,1872,1854,1636,1734,1825
74542,-43284,-13964,-45000,-12232,-3800,-3800,-3,0,-1,47,97,3938,9,-7,864,1509,1640,1788,1872,1854,1636,1734,1825
75543,-43288,-13964,-45000,-12232,-3800,-3800,-4,1,-2,43,110,3955,-8,-6,864,1507,1637,1784,1870,1852,1635,1733,1825
76544,-43288,-13956,-45000,-12232,-3800,-3800,-1,3,-2,60,116,3965,-3,4,864,1507,1637,1784,1870,1852,1635,1733,1825
77545,-43268,-13972,-45000,-12232,-3800,-3800,-2,-1,0,35,110,3934,8,7,864,1507,1637,1784,1870,1852,1635,1733,1825
78546,-43280,-13968,-45000,-12232,-3800,-3800,-4,-2,0,54,133,3939,-1,5,864,1507,1637,1784,1870,1852,1635,1733,1825
79547,-43280,-13968,-45000,-12232,-3800,-3800,-3,1,0,64,131,3952,-10,-5,864,1507,1637,1784,1870,1852,1635,1733,1825
80548,-43276,-13972,-45000,-12232,-3800,-3800,-3,1,-2,54,116,3945,-2,-5,864,1507,1637,1784,1870,1852,1635,1733,1825
81549,-43284,-13948,-45000,-12232,-3800,-3800,-2,1,-2,57,96,3931,5,-2,864,1508,1639,1785,1870,1852,1635,1733,1825
82550,-43280,-13948,-45000,-12232,-3800,-3800,-2,1,0,70,98,3942,-10,7,864,1508,1639,1785,1870,1852,1635,1733,1825
83551,-43256,-13956,-45000,-12232,-3800,-3800,-2,0,1,58,88,3954,-2,4,864,1508,1639,1785,1870,1852,1635,1733,1825
84552,-43280,-13960,-45000,-12232,-3800,-3800,-4,0,0,49,84,3945,8,1,864,1508,1639,1785,1870,1852,1635,1733,1825
85556,-43280,-13956,-45000,-12232,-3800,-3800,-4,-1,-1,27,103,3950,-9,-7,864,1508,1639,1785,1870,1852,1635,1733,1825
86554,-43268,-13960,-45000,-12232,-3800,-3800,-3,-1,0,61,123,3969,-7,2,864,1506,1638,1786,1870,1853,1636,1735,1825
87555,-43280,-13968,-45000,-12232,-3800,-3800,-2,0,1,71,107,3960,8,7,864,1506,1638,1786,1870,1853,1636,1735,1825
88556,-43276,-13968,-45000,-12232,-3800,-3800,-1,0,1,49,101,3947,-9,-6,864,1506,1638,1786,1870,1853,1636,1735,1825
89557,-43268,-13968,-45000,-12232,-3800,-3800,-2,-2,1,51,107,3937,2,-5,864,1506,1638,1786,1870,1853,1636,1735,1825
90558,-43280,-13976,-45000,-12232,-3800,-3800,-3,-2,2,57,110,3913,6,1,864,1506,1638,1786,1870,1853,1636,1735,1825
91559,-43288,-13972,-45000,-12232,-3800,-3800,0,-1,3,52,109,3928,-10,7,864,1506,1638,1786,1870,1853,1636,1735,1825
92560,-43272,-13956,-45000,-12232,-3800,-3800,-3,-2,2,36,102,3924,-3,-5,864,1507,1638,1784,1870,1851,1634,1733,1826
93561,-43272,-13972,-45000,-12232,-3800,-3800,-2,-5,3,48,102,3919,3,-6,864,1507,1638,1784,1870,1851,1634,1733,1826
94562,-43272,-13952,-45000,-12232,-3800,-3800,-2,-6,2,38,111,3952,-8,-1,864,1507,1638,1784,1870,1851,1634,1733,1826
95563,-43276,-13956,-45000,-12232,-3800,-3800,-3,-3,2,54,91,3971,7,8,864,1507,1638,1784,1870,1851,1634,1733,1826
96564,-43280,-13972,-45000,-12232,-3800,-3800,-3,-2,2,47,124,3965,-5,5,864,1507,1638,1784,1870,1851,1634,1733,1826
97565,-43284,-13968,-45000,-12232,-3800,-3800,-4,-1,2,82,122,3950,-1,-6,864,1508,1639,1785,1870,1852,1635,1733,1825
98566,-43280,-13968,-45000,-12232,-3800,-3800,-4,-2,1,59,126,3923,9,-5,864,1508,1639,1785,1870,1852,1635,1733,1825
99567,-43276,-13960,-45000,-12232,-3800,-3800,-5,-3,3,59,113,3957,-5,-3,864,1508,1639,1785,1870,1852,1635,1733,1825
100568,-43284,-13948,-45000,-12232,-3800,-3800,-5,-4,1,41,111,3961,-9,7,864,1508,1639,1785,1870,1852,1635,1733,1825
101569,-43284,-13956,-45000,-12232,-3800,-3800,-5,-7,2,78,111,3949,-4,4,864,1508,1639,1785,1870,1852,1635,1733,1825
102570,-43272,-13960,-45000,-12232,-3800,-3800,-2,-5,1,52,109,3935,9,0,864,1508,1639,1785,1870,1852,1635,1733,1825
103571,-43272,-13980,-45000,-12232,-3800,-3789,-2,-4,1,52,114,3913,3,-7,864,1506,1638,1786,1871,1853,1637,1734,1826
104572,-43264,-13968,-45000,-12232,-3800,-3800,-3,-5,0,70,120,3938,-5,2,863,1506,1638,1786,1871,1853,1637,1734,1826
105573,-43280,-13968,-45000,-12232,-3800,-3800,-3,-6,2,54,109,3943,-3,7,864,1506,1638,1786,1871,1853,1637,1734,1826
106574,-43276,-13972,-45000,-12232,-3800,-3800,-3,-5,3,54,93,3925,5,-1,864,1506,1638,1786,1871,1853,1637,1734,1826
107575,-43280,-13972,-45000,-12232,-3800,-3800,-4,-5,1,59,98,3939,9,-6,864,1506,1638,1786,1871,1853,1637,1734,1826
108576,-43272,-13964,-45000,-12232,-3800,-3800,-3,-5,1,63,106,3941,0,-5,864,1507,1637,1783,1869,1851,1635,1734,1828
109577,-43260,-13956,-45000,-12232,-3800,-3800,-1,-5,0,70,99,3965,-8,4,864,1507,1637,1783,1869,1851,1635,1734,1828
110578,-43284,-13972,-45000,-12232,-3800,-3800,-2,-5,0,89,85,3972,-7,7,864,1507,1637,1783,1869,1851,1635,1734,1828
111579,-43292,-13972,-45000,-12232,-3800,-3800,-3,-5,1,76,95,3990,-10,4,864,1507,1637,1783,1869,1851,1635,1734,1828
112580,-43292,-13964,-45000,-12232,-3800,-3800,-2,-4,1,70,108,3919,-1,-5,864,1507,1637,1783,1869,1851,1635,1734,1828
113581,-43284,-13964,-45000,-12232,-3800,-3800,-2,-4,2,73,108,3931,4,-3,864,1507,1637,1783,1869,1851,1635,1734,1828
114582,-43280,-13956,-45000,-12232,-3800,-3800,-1,-4,1,67,89,3960,5,-1,864,1508,1639,1786,1872,1852,1635,1734,1825
115583,-43268,-13964,-45000,-12232,-3800,-3800,-3,-3,-2,75,105,3967,-9,7,864,1508,1639,1786,1872,1852,1635,1734,1825
116584,-43272,-13960,-45000,-12232,-3800,-3800,-4,-1,1,75,103,3950,-8,6,864,1508,1639,1786,1872,1852,1635,1734,1825
117585,-43276,-13976,-45000,-12232,-3800,-3800,-5,-2,3,80,85,3962,8,4,864,1508,1639,1786,1872,1852,1635,1734,1825
118586,-43280,-13964,-45000,-12232,-3800,-3800,-4,-2,2,73,108,3941,2,-7,864,1508,1639,1786,1872,1852,1635,1734,1825
119587,-43272,-13976,-45000,-12232,-3800,-3800,-2,-1,1,85,96,3968,-8,-3,864,1508,1639,1788,1872,1853,1636,1734,1826
120588,-43276,-13956,-45000,-12232,-3800,-3800,-2,-1,1,83,97,3936,-5,1,864,1508,1639,1788,1872,1853,1636,1734,1826
121589,-43276,-13964,-45000,-12232,-3800,-3800,-2,-3,0,74,143,3892,9,7,863,1508,1639,1788,1872,1853,1636,1734,1826
122590,-43264,-13964,-45000,-12232,-3800,-3800,0,-1,-2,72,118,3904,-2,-7,864,1508,1639,1788,1872,1853,1636,1734,1826
123591,-43272,-13956,-45000,-12232,-3800,-3800,-1,1,-3,72,85,3934,-10,-6,864,1508,1639,1788,1872,1853,1636,1734,1826
124592,-43272,-13948,-45000,-12232,-3800,-3800,-2,0,0,65,119,3945,7,0,864,1508,1639,1788,1872,1853,1636,1734,1826
125593,-43284,-13968,-45000,-12232,-3800,-3788,-2,-1,0,77,100,3965,1,7,864,1506,1637,1785,1870,1852,1634,1732,1825
126594,-43280,-13956,-45000,-12232,-3800,-3800,-2,1,-2,54,93,3956,-5,8,864,1506,1637,1785,1870,1852,1634,1732,1825
127595,-43280,-13960,-45000,-12232,-3800,-3800,-2,2,0,63,99,3965,6,1,864,1506,1637,1785,1870,1852,1634,1732,1825
128596,-43272,-13964,-45000,-12232,-3800,-3800,-1,0,1,49,92,3946,-8,-6,864,1506,1637,1785,1870,1852,1634,1732,1825
129597,-43276,-13976,-45000,-12232,-3800,-3800,-2,0,-2,72,103,3943,-1,-7,864,1506,1637,1785,1870,1852,1634,1732,1825
130598,-43280,-13968,-45000,-12232,-3800,-3800,0,2,-1,58,118,3945,3,-2,864,1508,1639,1786,1872,1852,1635,1733,1825
131599,-43284,-13964,-45000,-12232,-3800,-3800,-2,2,2,62,94,3954,-9,7,864,1508,1639,1786,1872,1852,1635,1733,1825
132600,-43272,-13960,-45000,-12232,-3800,-3800,-5,1,1,50,101,3954,4,7,864,1508,1639,1786,1872,1852,1635,1733,1825
133601,-43280,-13968,-45000,-12232,-3800,-3800,-6,2,-1,53,106,3952,3,5,864,1508,1639,1786,1872,1852,1635,1733,1825
134602,-43268,-13956,-45000,-12232,-3800,-3800,-4,3,0,44,115,3922,-9,-1,864,1508,1639,1786,1872,1852,1635,1733,1825
135608,-43276,-13964,-45000,-12232,-3800,-3800,-2,1,2,72,94,3943,-2,1,864,1508,1639,1786,1872,1852,1635,1733,1825
136604,-43280,-13956,-45000,-12232,-3800,-3800,-1,2,1,73,94,3935,9,-5,864,1506,1637,1784,1870,1853,1636,1734,1827
137605,-43280,-13968,-45000,-12232,-3800,-3800,-5,2,-2,77,100,3923,5,-6,864,1506,1637,1784,1870,1853,1636,1734,1827
138606,-43276,-13968,-45000,-12232,-3800,-3800,-5,2,-3,43,127,3926,-10,-2,863,1506,1637,1784,1870,1853,1636,1734,1827
139607,-43268,-13956,-45000,-12232,-3800,-3800,-2,0,-1,43,113,3907,8,6,864,1506,1637,1784,1870,1853,1636,1734,1827
140608,-43284,-13964,-45000,-12232,-3800,-3800,-1,-1,1,62,68,3908,-6,-6,864,1506,1637,1784,1870,1853,1636,1734,1827
141609,-43280,-13960,-45000,-12232,-3800,-3800,-1,0,4,73,100,3905,1,-6,864,1506,1637,1784,1870,1852,1634,1733,1825
142610,-43272,-13968,-45000,-12232,-3800,-3800,-4,-1,1,44,112,3927,1,3,864,1506,1637,1784,1870,1852,1634,1733,1825
143611,-43272,-13952,-45000,-12232,-3800,-3800,-5,0,0,56,128,3923,-10,7,864,1506,1637,1784,1870,1852,1634,1733,1825
144612,-43268,-13972,-45000,-12232,-3800,-3771,-3,2,0,32,115,3908,8,7,864,1506,1637,1784,1870,1852,1634,1733,1825
145613,-43268,-13968,-45000,-12232,-3800,-3800,-3,2,1,25,98,3896,-6,-2,864,1506,1637,1784,1870,1852,1634,1733,1825
146614,-43288,-13960,-45000,-12232,-3800,-3800,-2,-1,2,70,117,3954,-6,-6,864,1508,1638,1786,1870,1852,1634,1733,1825
147615,-43280,-13964,-45000,-12232,-3800,-3800,-2,-2,3,77,103,3958,7,2,864,1508,1638,1786,1871,1853,1633,1731,1828
148616,-43280,-13952,-45000,-12232,-3800,-3800,-2,-3,3,77,100,3984,-10,8,864,1508,1638,1786,1871,1853,1633,1731,1828
149617,-43280,-13964,-45000,-12232,-3800,-3800,-3,-2,1,70,99,3963,0,-2,864,1508,1638,1786,1871,1853,1633,1731,1828
150618,-43272,-13964,-45000,-12232,-3800,-3800,-2,-2,2,64,90,3957,1,-5,864,1508,1638,1786,1871,1853,1633,1731,1828
151619,-43276,-13956,-45000,-12232,-3800,-3800,-2,0,1,53,112,3950,-8,-4,864,1508,1638,1786,1871,1853,1633,1731,1828
152620,-43276,-13968,-45000,-12232,-3800,-3800,-4,0,1,69,108,3971,5,5,864,1506,1638,1785,1871,1853,1636,1734,1826
153621,-43288,-13948,-45000,-12232,-3800,-3800,-2,-2,0,48,100,3919,-3,8,864,1506,1638,1785,1871,1853,1636,1734,1826
154622,-43292,-13964,-45000,-12232,-3800,-3800,-2,-1,0,52,101,3925,-7,-3,864,1506,1638,1785,1871,1853,1636,1734,1826
155623,-43280,-13956,-45000,-12232,-3800,-3800,-3,-3,1,24,121,3935,8,-1,863,1506,1638,1785,1871,1853,1636,1734,1826
156624,-43276,-13968,-45000,-12232,-3800,-3800,-3,-4,2,31,106,3955,-10,6,864,1506,1638,1785,1871,1853,1636,1734,1826
157625,-43276,-13960,-45000,-12232,-3800,-3800,-5,-4,0,31,92,3938,-3,-6,864,1505,1637,1786,1871,1854,1636,1736,1826
158626,-43264,-13960,-45000,-12232,-3800,-3800,-3,-3,0,59,86,3950,9,-2,864,1505,1637,1786,1871,1854,1636,1736,1826
159627,-43268,-13964,-45000,-12232,-3800,-3800,0,-4,1,89,103,3976,-9,6,864,1505,1637,1786,1871,1854,1636,1736,1826
160628,-43280,-13972,-45000,-12232,-3800,-3800,-1,-5,3,60,113,3930,1,4,864,1505,1637,1786,1871,1854,1636,1736,1826
161629,-43276,-13972,-45000,-12232,-3800,-3800,-1,-3,2,50,121,3930,9,-7,864,1505,1637,1786,1871,1854,1636,1736,1826
162630,-43272,-13968,-45000,-12232,-3800,-3800,-2,-3,1,47,105,3963,-7,-5,864,1505,1637,1786,1871,1854,1636,1736,1826
163631,-43288,-13960,-45000,-12232,-3800,-3800,0,-4,1,53,79,3955,-7,8,864,1507,1639,1787,1871,1852,1635,1733,1825
164632,-43272,-13964,-45000,-12232,-3800,-3800,0,-4,1,54,101,3964,3,-4,864,1507,1639,1787,1871,1852,1635,1733,1825
165633,-43284,-13972,-45000,-12232,-3800,-3800,-2,-5,0,65,99,3978,6,-7,864,1507,1639,1787,1871,1852,1635,1733,1825
166634,-43268,-13968,-45000,-12232,-3800,-3800,-3,-3,-1,62,97,3931,-8,3,864,1507,1639,1787,1871,1852,1635,1733,1825
167635,-43276,-13960,-45000,-12232,-3800,-3800,-3,-1,0,33,97,3897,-10,8,864,1507,1639,1787,1871,1852,1635,1733,1825
168636,-43280,-13968,-45000,-12232,-3800,-3800,-5,-4,2,34,111,3955,-2,5,864,1508,1640,1788,1872,1854,1636,1736,1827
169637,-43276,-13964,-45000,-12232,-3800,-3800,-4,-5,1,87,115,3964,9,-4,864,1508,1640,1788,1872,1854,1636,1736,1827
170638,-43276,-13960,-45000,-12232,-3800,-3800,-3,-3,0,73,99,3981,4,-6,864,1508,1640,1788,1872,1854,1636,1736,1827
171639,-43268,-13972,-45000,-12232,-3800,-3800,-3,-3,-4,50,103,3952,-10,1,864,1508,1640,1788,1872,1854,1636,1736,1827
172640,-43276,-13952,-45000,-12232,-3800,-3800,-5,-4,-1,51,110,3956,7,5,863,1508,1640,1788,1872,1854,1636,1736,1827
173641,-43276,-13964,-45000,-12232,-3800,-3800,-3,-3,0,73,77,3934,6,-5,864,1508,1640,1788,1872,1854,1636,1736,1827
174642,-43284,-13976,-45000,-12232,-3800,-3800,-2,-1,-1,47,95,3963,-4,0,864,1506,1637,1785,1871,1851,1634,1733,1825
175643,-43276,-13964,-45000,-12232,-3800,-3800,-1,1,-1,59,89,3945,-9,8,864,1506,1637,1785,1871,1851,1634,1733,1825
176644,-43280,-13968,-45000,-12232,-3800,-3800,-2,1,-1,94,114,3943,-4,4,864,1506,1637,1785,1871,1851,1634,1733,1825
177645,-43280,-13960,-45000,-12232,-3800,-3800,-2,-1,0,102,111,3938,8,1,864,1506,1637,1785,1871,1851,1634,1733,1825
178646,-43276,-13964,-45000,-12232,-3800,-3800,-1,-3,1,96,100,3944,0,-7,864,1506,1637,1785,1871,1851,1634,1733,1825
179647,-43284,-13968,-45000,-12232,-3800,-3800,0,-2,2,68,99,3931,-7,0,864,1507,1639,1786,1872,1853,1635,1733,1825
180648,-43272,-13960,-45000,-12232,-3800,-3800,-2,-1,2,70,89,3935,-4,4,864,1507,1639,1786,1872,1853,1635,1733,1825
181649,-43276,-13968,-45000,-12232,-3800,-3800,-2,-1,2,64,90,3944,9,5,864,1507,1639,1786,1872,1853,1635,1733,1825
182650,-43284,-13956,-45000,-12232,-3800,-3800,-1,-3,-1,75,88,3938,-1,-6,864,1507,1639,1786,1872,1853,1635,1733,1825
183652,-43280,-13972,-45000,-12232,-3800,-3795,0,-2,0,70,116,3940,-6,-6,864,1507,1639,1786,1872,1853,1635,1733,1825
184652,-43280,-13976,-45000,-12232,-3800,-3800,0,0,-2,84,119,3973,8,4,864,1507,1639,1786,1872,1853,1635,1733,1825
185653,-43268,-13956,-45000,-12232,-3800,-3800,-1,0,-1,80,130,3962,-6,3,864,1506,1637,1784,1870,1852,1635,1735,1827
186654,-43280,-13964,-45000,-12232,-3800,-3800,-2,-1,0,65,121,3978,-7,-5,864,1506,1637,1784,1870,1852,1635,1735,1827
187655,-43272,-13968,-45000,-12232,-3800,-3800,-3,0,0,40,120,3960,9,0,864,1506,1637,1784,1870,1852,1635,1735,1827
188656,-43280,-13968,-45000,-12232,-3800,-3800,-3,1,0,58,138,3922,3,5,864,1506,1637,1784,1870,1852,1635,1735,1827
189657,-43284,-13968,-45000,-12232,-3800,-3800,-5,-1,0,73,121,3910,-10,-6,863,1506,1637,1784,1870,1852,1635,1735,1827
190658,-43280,-13968,-45000,-12232,-3800,-3800,-5,-1,2,75,99,3971,2,7,864,1506,1637,1784,1870,1852,1634,1733,1825
191659,-43284,-13964,-45000,-12232,-3800,-3800,-2,0,1,52,118,3953,7,-6,864,1506,1637,1784,1870,1852,1634,1733,1825
192660,-43272,-13968,-45000,-12232,-3800,-3800,-2,1,1,67,103,3934,-2,-1,864,1506,1637,1784,1870,1852,1634,1733,1825
193661,-43268,-13964,-45000,-12232,-3800,-3800,-3,-1,0,56,100,3977,-10,3,864,1506,1637,1784,1870,1852,1634,1733,1825
194662,-43288,-13980,-45000,-12232,-3800,-3779,-2,-2,0,70,117,3957,-7,-7,864,1506,1637,1784,1870,1852,1634,1733,1825
195663,-43280,-13952,-45000,-12232,-3800,-3800,-4,-3,-2,55,102,3939,0,-1,864,1506,1637,1784,1870,1852,1634,1733,1825
196664,-43280,-13972,-45000,-12232,-3800,-3736,-4,-2,0,73,117,3965,9,5,864,1506,1638,1787,1869,1851,1633,1731,1825
197665,-43276,-13956,-45000,-12232,-3800,-3800,-2,1,1,63,132,3953,4,-6,864,1506,1638,1787,1869,1851,1633,1731,1825
198666,-43276,-13968,-45000,-12232,-3800,-3800,-5,2,3,75,138,3946,-9,3,864,1506,1638,1787,1869,1851,1633,1731,1825
199667,-43276,-13964,-45000,-12232,-3800,-3800,-8,0,1,71,114,3949,-8,6,864,1506,1638,1787,1869,1851,1633,1731,1825
200668,-43276,-13960,-45000,-12232,-3800,-3800,-6,-2,0,76,117,3928,0,-4,864,1506,1638,1787,1869,1851,1633,1731,1825
201669,-43268,-13956,-45000,-12232,-3800,-3800,-4,-2,0,61,108,3909,8,-6,864,1507,1638,1785,1870,1852,1635,1734,1827
202670,-43280,-13960,-28616,4152,3800,3800,-3,1,1,47,110,3930,-8,3,864,1507,1638,1785,1870,1852,1635,1734,1827
203671,-43268,-13960,-28551,4217,3800,3800,-4,1,2,42,110,3924,-10,7,799,1507,1638,1785,1870,1852,1635,1734,1827
204672,-43228,-13912,-28486,4282,3800,3800,-8,1,0,28,136,3923,295,291,803,1507,1638,1785,1870,1852,1635,1734,1827
205673,-43140,-13804,-28421,4347,3800,3800,-13,-22,14,-99,-69,3909,322,295,808,1507,1638,1785,1870,1852,1635,1734,1827
206674,-42972,-13644,-28356,4412,3800,3800,-22,-48,40,-187,-213,4109,328,311,809,1507,1638,1785,1870,1852,1635,1734,1827
207675,-42808,-13468,-28291,4477,3800,3800,-30,-145,54,-702,0,3896,336,315,815,1503,1635,1787,1872,1854,1636,1734,1829
208676,-42600,-13244,-28226,4542,3800,3800,-1,-227,62,-901,-318,4457,332,318,819,1503,1635,1787,1872,1854,1636,1734,1829
209677,-42320,-12972,-28161,4607,3800,3800,-2,-334,86,-163,-422,4134,348,339,821,1503,1635,1787,1872,1854,1636,1734,1829
210678,-42024,-12692,-28096,4672,3800,3800,31,-401,117,-62,-119,3489,322,305,824,1503,1635,1787,1872,1854,1636,1734,1829
211679,-41680,-12392,-28031,4737,3800,3800,24,-396,125,25,-101,4459,359,317,826,1503,1635,1787,1872,1854,1636,1734,1829
212680,-41380,-12056,-27966,4802,3800,3800,36,-298,122,-262,-725,4268,344,342,828,1511,1647,1791,1872,1862,1636,1748,1852
213681,-41020,-11696,-27901,4867,3800,3800,39,-247,74,775,-496,4018,363,323,831,1511,1647,1791,1872,1862,1636,1748,1852
214682,-40612,-11324,-27836,4932,3800,3800,64,-181,47,933,59,4815,346,352,832,1511,1647,1791,1872,1862,1636,1748,1852
215683,-40216,-10936,-27771,4997,3800,3800,79,-118,35,-284,-503,5496,354,353,834,1511,1647,1791,1872,1862,1636,1748,1852
216684,-39816,-10500,-27706,5062,3800,3800,102,-257,44,-97,-241,3138,364,337,834,1511,1647,1791,1872,1862,1636,1748,1852
217685,-39344,-9988,-27641,5127,3800,3800,159,-253,28,245,716,6816,377,364,835,1511,1647,1791,1872,1862,1636,1748,1852
218686,-38932,-9548,-27576,5192,3800,3800,163,-260,-51,-1242,-625,5493,364,331,836,1535,1672,1806,1896,1877,1647,1771,1871
219687,-38448,-9116,-27511,5257,3800,3800,228,-329,-30,292,487,4911,353,336,837,1535,1672,1806,1896,1877,1647,1771,1871
220688,-37924,-8632,-27446,5322,3800,3800,245,-252,-120,587,96,7272,361,331,836,1535,1672,1806,1896,1877,1647,1771,1871
221689,-37448,-8192,-27381,5387,3800,3800,300,-205,-136,-1223,-57,6135,370,369,838,1535,1672,1806,1896,1877,1647,1771,1871
222690,-36932,-7688,-27316,5452,3800,3800,361,-346,-114,-1204,258,5348,380,358,839,1535,1672,1806,1896,1877,1647,1771,1871
223691,-36404,-7200,-27251,5517,3800,3800,428,-277,-192,-976,964,7644,391,343,839,1572,1718,1858,1975,1907,1685,1820,1908
224692,-35888,-6716,-27186,5582,3800,3800,483,-428,-234,-1300,170,6251,365,361,840,1572,1718,1858,1975,1907,1685,1820,1908
225693,-35300,-6256,-27121,5647,3800,3800,558,-523,-202,-1232,448,6594,384,331,841,1572,1718,1858,1975,1907,1685,1820,1908
226694,-34756,-5824,-27056,5712,3800,3800,685,-546,-148,436,658,7629,370,351,839,1572,1718,1858,1975,1907,1685,1820,1908
227695,-34288,-5328,-26991,5777,3800,3800,729,-584,-141,-666,-331,5935,382,333,840,1572,1718,1858,1975,1907,1685,1820,1908
228696,-33736,-4840,-26926,5842,2643,3800,848,-519,-162,-1120,814,8675,376,342,840,1572,1718,1858,1975,1907,1685,1820,1908
229697,-33244,-4412,-26861,5907,2874,3800,1067,-221,-52,778,220,9532,387,349,843,1677,1837,1981,2128,1941,1728,1881,1963
230698,-32676,-3964,-26796,5972,1313,3800,1200,-315,-25,-229,-361,6132,314,334,843,1677,1837,1981,2128,1941,1728,1881,1963
231699,-32164,-3544,-26731,6037,1470,3800,1381,-225,-17,181,967,10585,293,354,847,1677,1837,1981,2128,1941,1728,1881,1963
232700,-31604,-3164,-26666,6102,267,3800,1555,-249,-37,-773,687,6730,302,328,846,1677,1837,1981,2128,1941,1728,1881,1963
233701,-31120,-2700,-26601,6167,708,3800,1765,-62,-102,1681,1230,9595,293,324,847,1677,1837,1981,2128,1941,1728,1881,1963
234702,-30668,-2308,-26536,6232,637,3800,1786,-182,-225,-40,515,6985,286,344,845,1871,2037,2189,2391,1928,1730,1894,1953
235703,-30160,-1952,-26471,6297,-602,3800,2007,-181,-192,-953,2289,9255,277,347,845,1871,2037,2189,2391,1928,1730,1894,1953
236704,-29700,-1568,-26406,6362,-483,3800,2095,-514,-255,917,1592,5223,277,346,847,1871,2037,2189,2391,1928,1730,1894,1953
237705,-29284,-1176,-26341,6427,-360,3800,2191,-761,-321,-2069,1083,8931,271,342,845,1871,2037,2189,2391,1928,1730,1894,1953
238706,-28784,-792,-26276,6492,-1940,3800,2243,-1082,-382,-1869,1800,6259,260,328,844,1871,2037,2189,2391,1928,1730,1894,1953
239707,-28376,-460,-26211,6557,-1208,3800,2440,-1211,-342,-315,1973,7287,260,330,846,1871,2037,2189,2391,1928,1730,1894,1953
240708,-27960,-128,-26146,6622,-1735,3800,2469,-1397,-394,-739,483,5950,237,329,844,2164,2314,2472,2709,1873,1692,1847,1929
241709,-27572,232,-26081,6687,-1778,3800,2573,-1587,-440,-111,1873,6851,229,323,843,2164,2314,2472,2709,1873,1692,1847,1929
242710,-27188,564,-26016,6752,-2118,3800,2620,-1611,-446,-475,1694,6155,228,342,844,2164,2314,2472,2709,1873,1692,1847,1929
243711,-26824,836,-25951,6817,-2232,3800,2780,-1518,-391,1400,850,6710,224,305,844,2164,2314,2472,2709,1873,1692,1847,1929
244712,-26504,1148,-25886,6882,-1993,3800,2826,-1515,-426,2280,1275,7030,203,330,844,2164,2314,2472,2709,1873,1692,1847,1929
245713,-26172,1488,-25821,6947,-2469,3731,2871,-1517,-580,577,1296,8131,200,320,844,2405,2547,2712,2853,1842,1660,1792,1938
246714,-25856,1776,-25756,7012,-2575,3800,2886,-1427,-589,163,1499,6855,198,297,843,2405,2547,2712,2853,1842,1660,1792,1938
247715,-25544,2068,-25691,7077,-2827,3786,3035,-1200,-487,2621,2010,4727,185,218,843,2405,2547,2712,2853,1842,1660,1792,1938
248716,-25264,2352,-25626,7142,-2689,3621,3079,-1259,-529,1234,1193,5043,175,322,844,2405,2547,2712,2853,1842,1660,1792,1938
249717,-25000,2692,-25561,7207,-2732,2586,3130,-1441,-655,-1919,2382,5272,168,287,844,2405,2547,2712,2853,1842,1660,1792,1938
250718,-24736,2980,-25496,7272,-2975,2966,3174,-1694,-774,-1136,2837,3329,166,41,851,2405,2547,2712,2853,1842,1660,1792,1938
251719,-24480,3224,-25431,7337,-3108,3299,3249,-1918,-682,137,2797,4622,148,141,849,2371,2463,2671,2751,1923,1732,1822,1978
252720,-24272,3448,-25366,7402,-2684,3356,3363,-2159,-679,-648,2498,3078,136,119,846,2371,2463,2671,2751,1923,1732,1822,1978
253721,-24048,3688,-25301,7467,-3078,2945,3425,-2491,-787,-3107,2979,2582,127,64,845,2371,2463,2671,2751,1923,1732,1822,1978
254722,-23868,3964,-25236,7532,-2669,2238,3540,-2790,-872,-2260,3344,3297,139,59,848,2371,2463,2671,2751,1923,1732,1822,1978
255723,-23664,4240,-25171,7597,-3139,1982,3627,-3028,-862,-780,3723,4014,115,109,852,2371,2463,2671,2751,1923,1732,1822,1978
256724,-23468,4460,-25106,7662,-3200,2494,3862,-3073,-750,-370,3749,3009,113,138,854,2036,2132,2360,2418,2058,1983,1890,2064
257725,-23308,4648,-25041,7727,-2866,2745,3949,-3130,-728,227,3596,1701,102,133,849,2036,2132,2360,2418,2058,1983,1890,2064
258726,-23148,4828,-24976,7792,-2983,2706,4101,-3067,-749,-363,3918,4459,91,118,843,2036,2132,2360,2418,2058,1983,1890,2064
259727,-22980,5088,-24911,7857,-3210,1469,4219,-3179,-743,-655,3654,2512,100,104,848,2036,2132,2360,2418,2058,1983,1890,2064
260728,-22864,5388,-24846,7922,-2622,683,4432,-3485,-729,1308,3881,3865,85,118,857,2036,2132,2360,2418,2058,1983,1890,2064
261729,-22716,5608,-24781,7987,-3124,1495,4489,-3649,-631,2695,3815,2651,79,126,860,2036,2132,2360,2418,2058,1983,1890,2064
262730,-22600,5788,-24716,8052,-2788,1855,4421,-3546,-898,-350,3034,4447,68,128,852,1807,1923,2105,2164,2058,1791,1866,2033
263731,-22504,5948,-24651,8117,-2576,1990,4140,-3509,-1448,-2181,2703,4611,82,117,854,1807,1923,2105,2164,2058,1791,1866,2033
264732,-22392,6132,-24586,8182,-2835,1546,3806,-3280,-1794,1233,3722,3118,76,121,853,1807,1923,2105,2164,2058,1791,1866,2033
265733,-22312,6296,-24521,8247,-2453,1676,3691,-3204,-1661,1787,3394,3171,55,121,856,1807,1923,2105,2164,2058,1791,1866,2033
266734,-22236,6464,-24456,8312,-2417,1501,3774,-3456,-1470,660,3143,2772,63,113,853,1807,1923,2105,2164,2058,1791,1866,2033
267735,-22168,6660,-24391,8377,-2322,991,4058,-3818,-1438,-1134,2250,3802,41,98,856,1663,1778,1958,1972,2080,1826,1858,2046
268736,-22084,6856,-24326,8442,-2546,833,4493,-4118,-1388,-1004,2252,3291,38,97,859,1663,1778,1958,1972,2080,1826,1858,2046
269737,-22012,7004,-24261,8507,-2406,1331,4838,-4308,-1212,-1077,1468,3599,32,100,859,1663,1778,1958,1972,2080,1826,1858,2046
270738,-21956,7156,-24196,8572,-2196,1176,4976,-4313,-1066,-782,1055,3422,26,89,856,1663,1778,1958,1972,2080,1826,1858,2046
271739,-21912,7292,-24131,8637,-2021,1290,4943,-4354,-941,-1454,1607,3047,35,93,857,1663,1778,1958,1972,2080,1826,1858,2046
272740,-21880,7420,-24066,8702,-1831,1313,4816,-4392,-854,-1779,2019,2692,37,82,857,1663,1778,1958,1972,2080,1826,1858,2046
273741,-21852,7556,-24001,8767,-1737,1128,4727,-4371,-811,-1013,2211,2312,33,87,857,1539,1691,1920,1955,1939,1700,1736,1884
274742,-21808,7676,-23936,8832,-1912,1261,4659,-4497,-842,-1093,2346,2045,30,77,856,1539,1691,1920,1955,1939,1700,1736,1884
275743,-21796,7796,-23871,8897,-1448,1194,4660,-4689,-914,-2136,2727,1827,27,78,857,1539,1691,1920,1955,1939,1700,1736,1884
276744,-21764,7932,-23806,8962,-1659,908,4728,-4905,-980,-1944,2696,1589,21,62,857,1539,1691,1920,1955,1939,1700,1736,1884
277745,-21748,8044,-23741,9027,-1400,1150,4731,-5102,-1072,-1388,2478,1441,14,64,859,1539,1691,1920,1955,1939,1700,1736,1884
278746,-21736,8136,-23676,9092,-1286,1368,4684,-5182,-1112,-1081,2453,1842,16,53,857,1655,1787,2006,2079,1867,1647,1719,1850
279747,-21732,8232,-23611,9157,-1112,1281,4585,-5138,-1182,130,2733,1619,17,66,856,1655,1787,2006,2079,1867,1647,1719,1850
280748,-21712,8336,-23546,9222,-1258,1133,4449,-4969,-1253,425,2502,1511,5,65,857,1655,1787,2006,2079,1867,1647,1719,1850
281749,-21712,8448,-23481,9287,-929,977,4316,-4745,-1328,851,2533,1513,3,62,857,1655,1787,2006,2079,1867,1647,1719,1850
282750,-21720,8536,-23416,9352,-741,1249,4182,-4522,-1399,833,2438,940,-1,57,858,1655,1787,2006,2079,1867,1647,1719,1850
283751,-21712,8628,-23351,9417,-872,1166,4099,-4354,-1478,497,2385,564,6,57,857,1655,1787,2006,2079,1867,1647,1719,1850
284752,-21716,8692,-23286,9482,-638,1518,4055,-4307,-1547,197,2136,366,11,50,858,1855,1959,2177,2256,1920,1724,1792,1929
285753,-21716,8800,-23221,9547,-610,915,4070,-4404,-1573,-340,1674,106,2,62,855,1855,1959,2177,2256,1920,1724,1792,1929
286754,-21724,8920,-23156,9612,-422,698,4097,-4540,-1575,-528,1216,-193,-7,64,858,1855,1959,2177,2256,1920,1724,1792,1929
287755,-21724,9028,-23091,9677,-442,796,4191,-4675,-1503,-1709,801,-244,-8,50,860,1855,1959,2177,2256,1920,1724,1792,1929
288756,-21728,9136,-23026,9742,-309,744,4294,-4732,-1392,-1057,673,215,-2,50,859,1855,1959,2177,2256,1920,1724,1792,1929
289757,-21732,9224,-22961,9807,-225,966,4363,-4777,-1280,-656,276,-28,-2,46,860,1775,1869,2110,2176,2025,1817,1816,1921
290758,-21736,9308,-22896,9872,-142,993,4410,-4801,-1141,-1274,447,880,-2,40,851,1775,1869,2110,2176,2025,1817,1816,1921
291759,-21736,9396,-22831,9937,-112,915,4417,-4755,-988,-800,1075,1430,-8,43,857,1775,1869,2110,2176,2025,1817,1816,1921
292760,-21744,9472,-22766,10002,77,1052,4365,-4640,-834,474,1240,2007,-11,51,856,1775,1869,2110,2176,2025,1817,1816,1921
293761,-21732,9548,-22701,10067,-109,1039,4339,-4556,-691,619,884,1876,-10,49,857,1775,1869,2110,2176,2025,1817,1816,1921
294762,-21740,9632,-22636,10132,230,916,4374,-4508,-601,-337,1013,2212,-11,44,855,1775,1869,2110,2176,2025,1817,1816,1921
295763,-21724,9708,-22571,10197,-11,1002,4404,-4462,-553,-375,1589,2727,-10,38,858,1503,1583,1874,1920,1911,1703,1710,1797
296764,-21724,9780,-22506,10262,268,1044,4456,-4499,-611,-242,1759,2074,-1,49,858,1503,1583,1874,1920,1911,1703,1710,1797
297765,-21732,9852,-22441,10327,457,1036,4503,-4591,-619,-504,1955,1851,-2,38,857,1503,1583,1874,1920,1911,1703,1710,1797
298766,-21732,9936,-22376,10392,436,863,4497,-4653,-648,928,1636,2039,9,37,857,1503,1583,1874,1920,1911,1703,1710,1797
299767,-21740,9996,-22311,10457,624,1169,4571,-4539,-662,-468,1101,1870,-1,45,857,1503,1583,1874,1920,1911,1703,1710,1797
300768,-21748,10064,-22246,10522,714,1066,4569,-4327,-671,905,1538,2563,-1,54,855,1476,1557,1757,1850,1888,1667,1712,1816
301769,-21736,10160,-22181,10587,528,678,4516,-4109,-681,1719,1509,1820,21,44,855,1476,1557,1757,1850,1888,1667,1712,1816
302770,-21732,10244,-22116,10652,703,805,4436,-3846,-690,1351,1460,2845,23,57,858,1476,1557,1757,1850,1888,1667,1712,1816
303771,-21704,10348,-22051,10717,448,508,4318,-3520,-660,1133,1233,2293,8,57,857,1476,1557,1757,1850,1888,1667,1712,1816
304772,-21672,10436,-21986,10782,437,680,4205,-3240,-604,1611,1069,1920,28,48,859,1476,1557,1757,1850,1888,1667,1712,1816
305773,-21644,10532,-21921,10847,532,542,4101,-3026,-560,1549,864,2189,29,42,859,1476,1557,1757,1850,1888,1667,1712,1816
306774,-21596,10616,-21856,10912,303,669,4043,-2854,-535,454,616,1623,29,39,859,1566,1672,1887,1993,1977,1766,1807,1938
307775,-21572,10696,-21791,10977,653,701,4014,-2732,-528,-805,548,1340,20,45,859,1566,1672,1887,1993,1977,1766,1807,1938
308776,-21524,10780,-21726,11042,374,627,3963,-2713,-497,-303,581,1014,18,52,856,1566,1672,1887,1993,1977,1766,1807,1938
309777,-21496,10860,-21661,11107,669,659,3892,-2740,-439,-856,45,234,20,49,859,1566,1672,1887,1993,1977,1766,1807,1938
310780,-21444,10944,-21596,11172,385,586,3813,-2697,-310,-1645,-56,1052,28,41,858,1566,1672,1887,1993,1977,1766,1807,1938
311779,-21388,11008,-21531,11237,346,837,3641,-2625,-128,-770,174,512,32,47,859,1660,1772,2049,2162,2036,1800,1777,1813
312780,-21348,11072,-21466,11302,576,839,3373,-2517,85,-339,330,1081,37,41,858,1660,1772,2049,2162,2036,1800,1777,1813
313781,-21296,11152,-21401,11367,442,621,2979,-2364,314,-163,848,1794,35,47,857,1660,1772,2049,2162,2036,1800,1777,1813
314782,-21244,11220,-21336,11432,458,767,2470,-2174,548,497,1452,2094,37,51,859,1660,1772,2049,2162,2036,1800,1777,1813
315783,-21188,11292,-21271,11497,419,709,1887,-1891,798,1498,1576,3550,25,55,858,1660,1772,2049,2162,2036,1800,1777,1813
316784,-21144,11344,-21206,11562,595,975,1252,-1588,1031,2370,1729,3914,38,44,859,1660,1772,2049,2162,2036,1800,1777,1813
317785,-21092,11428,-21141,11627,511,551,646,-1266,1227,2392,1660,4526,33,49,856,1747,1795,1986,2175,1455,1336,1384,1366
318786,-21048,11524,-21076,11692,635,364,112,-926,1386,2697,1269,5178,40,48,858,1747,1795,1986,2175,1455,1336,1384,1366
319787,-20976,11640,-21011,11757,277,51,-317,-608,1477,3639,1344,5333,33,48,859,1747,1795,1986,2175,1455,1336,1384,1366
320788,-20916,11720,-20946,11822,433,483,-603,-342,1434,1950,361,5421,47,48,861,1747,1795,1986,2175,1455,1336,1384,1366
321789,-20852,11828,-20881,11887,384,81,-832,-186,1412,1347,82,5367,43,41,860,1747,1795,1986,2175,1455,1336,1384,1366
322790,-20780,11908,-20816,11952,276,412,-962,-209,1313,2483,-259,4554,32,54,861,1567,1555,1730,1845,1469,1376,1405,1477
323791,-20728,12008,-20751,12017,541,119,-956,-235,1308,156,-1887,3800,38,49,861,1567,1555,1730,1845,1469,1376,1405,1477
324792,-20656,12080,-20686,12082,283,461,-918,-146,1340,684,-1601,4676,30,45,860,1567,1555,1730,1845,1469,1376,1405,1477
325793,-20596,12148,-20621,12147,439,507,-877,-78,1362,972,-1455,2926,33,54,860,1567,1555,1730,1845,1469,1376,1405,1477
326794,-20528,12240,-20556,12212,335,174,-876,-22,1381,382,-1372,3514,31,51,860,1567,1555,1730,1845,1469,1376,1405,1477
327795,-20472,12356,-20491,12277,496,-188,-944,19,1446,29,-791,2567,30,52,861,1567,1555,1730,1845,1469,1376,1405,1477
328796,-20416,12476,-20426,12342,507,-305,-1048,106,1542,159,181,2085,44,39,860,1378,1430,1700,1816,1836,1685,1692,1790
329797,-20340,12584,-20361,12407,244,-208,-1183,249,1656,913,553,1718,30,45,860,1378,1430,1700,1816,1836,1685,1692,1790
330798,-20268,12708,-20296,12472,285,-480,-1337,348,1736,1478,545,568,44,42,861,1378,1430,1700,1816,1836,1685,1692,1790
331799,-20212,12860,-20231,12537,496,-936,-1515,370,1775,1129,777,407,37,46,860,1378,1430,1700,1816,1836,1685,1692,1790
332800,-20144,13000,-20166,12602,343,-877,-1691,466,1840,579,1134,-148,29,34,857,1378,1430,1700,1816,1836,1685,1692,1790
333801,-20092,13076,-20101,12667,559,-91,-1847,720,1929,939,1735,-490,28,39,857,1552,1667,1905,2076,2142,1954,2022,2111
334802,-20008,13092,-20036,12732,135,718,-1978,990,2018,1350,1766,-301,30,32,860,1552,1667,1905,2076,2142,1954,2022,2111
335803,-19944,13104,-19971,12797,387,833,-2085,1186,2060,1348,1450,-751,43,32,860,1552,1667,1905,2076,2142,1954,2022,2111
336804,-19888,13096,-19906,12862,498,1172,-2163,1339,2051,1744,1631,-948,29,28,858,1552,1667,1905,2076,2142,1954,2022,2111
337805,-19824,13080,-19841,12927,399,1371,-2130,1518,1968,-1103,1125,-937,40,38,856,1552,1667,1905,2076,2142,1954,2022,2111
338806,-19752,13064,-19776,12992,290,1470,-2101,1548,2026,-1511,1062,-989,39,38,855,1552,1667,1905,2076,2142,1954,2022,2111
339807,-19680,13080,-19711,13057,282,1129,-2078,1382,2057,1875,529,-1161,46,36,854,1694,1836,2036,2156,2293,2016,2044,2176
340808,-19612,13148,-19646,13122,328,476,-1905,1218,2066,-498,-861,-1529,34,54,857,1694,1836,2036,2156,2293,2016,2044,2176
341809,-19556,13248,-19581,13187,489,33,-1742,1166,2130,-1245,-1260,-116,42,57,860,1694,1836,2036,2156,2293,2016,2044,2176
342810,-19472,13356,-19516,13252,116,-119,-1536,1298,2176,651,-548,-50,36,55,860,1694,1836,2036,2156,2293,2016,2044,2176
343811,-19400,13436,-19451,13317,257,212,-1411,1524,2166,1256,-408,986,29,54,862,1694,1836,2036,2156,2293,2016,2044,2176
344812,-19340,13524,-19386,13382,413,84,-1378,1805,2147,1011,-917,1900,28,59,862,1586,1727,1929,1953,2021,1732,1735,1843
345813,-19272,13644,-19321,13447,310,-383,-1419,2118,2152,1342,-1018,2606,42,47,861,1586,1727,1929,1953,2021,1732,1735,1843
346814,-19212,13732,-19256,13512,416,-11,-1515,2418,2153,1897,-386,3200,42,59,860,1586,1727,1929,1953,2021,1732,1735,1843
347815,-19152,13812,-19191,13577,422,71,-1692,2625,2124,1681,34,2833,35,53,861,1586,1727,1929,1953,2021,1732,1735,1843
348816,-19100,13896,-19126,13642,538,-3,-1894,2742,2054,1132,23,3101,32,44,861,1586,1727,1929,1953,2021,1732,1735,1843
349817,-19024,13948,-19061,13707,224,412,-2105,2716,1991,929,67,2647,28,56,861,1586,1727,1929,1953,2021,1732,1735,1843
350818,-18968,14008,-18996,13772,485,318,-2308,2609,1928,728,132,2169,28,51,861,1540,1642,1840,1933,1687,1507,1550,1621
351819,-18892,14076,-18931,13837,222,215,-2483,2504,1860,675,480,2218,28,39,860,1540,1642,1840,1933,1687,1507,1550,1621
352820,-18852,14148,-18866,13902,702,156,-2612,2460,1791,625,548,2292,31,42,862,1540,1642,1840,1933,1687,1507,1550,1621
353821,-18772,14228,-18801,13967,184,38,-2704,2466,1753,1117,388,2157,46,43,860,1540,1642,1840,1933,1687,1507,1550,1621
354822,-18724,14296,-18736,14032,605,184,-2757,2491,1751,1678,497,2214,31,58,862,1540,1642,1840,1933,1687,1507,1550,1621
355823,-18652,14388,-18671,14097,296,-149,-2778,2545,1781,1664,724,2127,43,49,860,1579,1662,1882,2003,1834,1684,1732,1838
356824,-18584,14460,-18606,14162,343,93,-2773,2646,1831,1691,567,2268,47,41,861,1579,1662,1882,2003,1834,1684,1732,1838
357825,-18540,14564,-18541,14227,668,-355,-2757,2800,1891,2119,588,2425,42,42,862,1579,1662,1882,2003,1834,1684,1732,1838
358826,-18480,14624,-18476,14292,474,200,-2724,2931,1972,2465,609,1998,29,49,859,1579,1662,1882,2003,1834,1684,1732,1838
359827,-18404,14716,-18411,14357,261,-233,-2690,3040,2076,2220,572,1727,32,46,860,1579,1662,1882,2003,1834,1684,1732,1838
360831,-18348,14768,-18346,14422,522,283,-2647,3153,2162,2111,761,1889,27,34,861,1579,1662,1882,2003,1834,1684,1732,1838
361829,-18300,14860,-18281,14487,643,-250,-2607,3244,2225,2209,881,1497,27,32,860,1579,1693,1939,2059,2162,1964,1973,2097
362830,-18232,14916,-18216,14552,389,211,-2554,3268,2262,2272,959,1034,35,44,860,1579,1693,1939,2059,2162,1964,1973,2097
363831,-18164,14972,-18151,14617,385,222,-2499,3298,2270,2174,1127,1309,27,32,861,1579,1693,1939,2059,2162,1964,1973,2097
364832,-18108,15016,-18086,14682,546,398,-2451,3333,2274,1939,993,1137,24,30,861,1579,1693,1939,2059,2162,1964,1973,2097
365833,-18060,15068,-18021,14747,667,314,-2401,3366,2243,2245,1273,1410,27,29,860,1579,1693,1939,2059,2162,1964,1973,2097
366834,-18000,15104,-17956,14812,523,548,-2366,3395,2194,2171,1506,1397,42,32,859,1610,1727,1988,2106,2279,2024,2005,2109
367835,-17952,15156,-17891,14877,694,364,-2324,3480,2121,2244,1569,1956,43,42,859,1610,1727,1988,2106,2279,2024,2005,2109
368836,-17896,15196,-17826,14942,605,544,-2317,3613,2054,2375,1558,2287,25,45,859,1610,1727,1988,2106,2279,2024,2005,2109
369837,-17836,15252,-17761,15007,561,355,-2308,3737,1976,2582,1783,2356,27,34,859,1610,1727,1988,2106,2279,2024,2005,2109
370838,-17780,15308,-17696,15072,622,366,-2325,3921,1911,2478,1492,2761,40,47,860,1610,1727,1988,2106,2279,2024,2005,2109
371839,-17736,15396,-17631,15137,798,-62,-2362,4095,1838,2568,1623,2717,42,34,860,1657,1792,2039,2154,2118,1858,1869,1973
372840,-17652,15464,-17566,15202,274,185,-2418,4284,1777,2319,1638,3107,28,40,859,1657,1792,2039,2154,2118,1858,1869,1973
373841,-17592,15552,-17501,15267,581,-93,-2497,4494,1734,2172,1403,3230,37,39,861,1657,1792,2039,2154,2118,1858,1869,1973
374842,-17544,15644,-17436,15332,751,-176,-2611,4640,1681,2330,1494,3128,24,31,860,1657,1792,2039,2154,2118,1858,1869,1973
375843,-17476,15712,-17371,15397,498,119,-2782,4681,1633,1848,1434,3479,27,44,859,1657,1792,2039,2154,2118,1858,1869,1973
376844,-17428,15812,-17306,15462,768,-324,-2979,4715,1650,1380,1281,3789,37,41,860,1657,1792,2039,2154,2118,1858,1869,1973
377845,-17356,15932,-17241,15527,460,-641,-3162,4825,1667,1966,1217,4239,42,42,859,1746,1890,2141,2232,1989,1773,1799,1931
378846,-17312,16020,-17176,15592,836,-269,-3310,4968,1672,2482,1033,4173,41,34,859,1746,1890,2141,2232,1989,1773,1799,1931
379847,-17244,16072,-17111,15657,532,197,-3450,5139,1702,2574,838,4432,26,33,858,1746,1890,2141,2232,1989,1773,1799,1931
380848,-17196,16120,-17046,15722,803,268,-3552,5260,1722,2220,835,4597,41,33,860,1746,1890,2141,2232,1989,1773,1799,1931
381849,-17136,16168,-16981,15787,660,288,-3633,5361,1724,1792,908,4790,34,23,858,1746,1890,2141,2232,1989,1773,1799,1931
382850,-17080,16208,-16916,15852,721,418,-3682,5495,1741,2459,713,5032,26,39,859,1699,1841,2107,2150,2110,1889,1880,2056
383851,-17036,16260,-16851,15917,896,284,-3710,5613,1774,3105,843,4916,25,30,859,1699,1841,2107,2150,2110,1889,1880,2056
384852,-16976,16324,-16786,15982,702,135,-3728,5639,1782,2666,1157,4698,31,36,858,1699,1841,2107,2150,2110,1889,1880,2056
385853,-16924,16372,-16721,16047,818,356,-3748,5654,1770,2351,1293,4635,30,42,859,1699,1841,2107,2150,2110,1889,1880,2056
386854,-16864,16436,-16656,16112,724,157,-3769,5651,1751,2788,1539,4485,39,27,858,1699,1841,2107,2150,2110,1889,1880,2056
387855,-16784,16480,-16591,16177,456,433,-3778,5587,1738,3125,1881,4329,38,43,859,1699,1841,2107,2150,2110,1889,1880,2056
388856,-16760,16532,-16526,16242,1206,348,-3783,5490,1715,2828,2108,4000,41,31,860,1600,1734,2011,2058,2283,2031,2007,2185
389857,-16680,16584,-16461,16307,488,364,-3798,5408,1683,2886,2365,4080,24,27,856,1600,1734,2011,2058,2283,2031,2007,2185
390858,-16624,16652,-16396,16372,799,160,-3816,5332,1636,3336,2760,3946,36,39,860,1600,1734,2011,2058,2283,2031,2007,2185
391859,-16584,16716,-16331,16437,1029,211,-3837,5269,1565,3673,3138,3878,25,27,859,1600,1734,2011,2058,2283,2031,2007,2185
392860,-16516,16756,-16266,16502,676,541,-3889,5211,1494,3512,3070,3781,29,35,857,1600,1734,2011,2058,2283,2031,2007,2185
393861,-16460,16820,-16201,16567,837,243,-3973,5155,1405,3706,3397,3523,36,32,857,1583,1725,1981,2072,2334,2048,2054,2204
394862,-16404,16900,-16136,16632,849,24,-4049,5091,1289,3768,3495,3519,29,43,858,1583,1725,1981,2072,2334,2048,2054,2204
395863,-16336,16964,-16071,16697,695,226,-4151,4997,1192,3181,3371,3303,35,47,859,1583,1725,1981,2072,2334,2048,2054,2204
396864,-16272,17036,-16006,16762,746,117,-4270,4859,1129,3742,3057,3080,33,36,860,1583,1725,1981,2072,2334,2048,2054,2204
397865,-16220,17100,-15941,16827,912,218,-4344,4697,1072,3556,2471,2970,29,33,859,1583,1725,1981,2072,2334,2048,2054,2204
398866,-16152,17176,-15876,16892,708,55,-4413,4547,1047,2749,1933,3128,42,44,858,1583,1725,1981,2072,2334,2048,2054,2204
399867,-16088,17244,-15811,16957,760,150,-4467,4470,1020,2974,1687,3496,32,36,860,1691,1853,2087,2137,2207,1911,1946,2143
400868,-16020,17324,-15746,17022,706,-18,-4518,4434,1001,2928,1272,3737,36,34,859,1691,1853,2087,2137,2207,1911,1946,2143
401869,-15972,17376,-15681,17087,977,348,-4584,4382,1012,2929,1037,3903,47,41,860,1691,1853,2087,2137,2207,1911,1946,2143
402870,-15900,17452,-15616,17152,668,34,-4619,4231,1004,2418,877,4459,45,44,858,1691,1853,2087,2137,2207,1911,1946,2143
403871,-15832,17484,-15551,17217,715,625,-4667,3997,982,1630,597,4826,37,36,860,1691,1853,2087,2137,2207,1911,1946,2143
404872,-15780,17516,-15486,17282,931,665,-4698,3793,944,1546,541,5167,45,38,858,1661,1879,2079,2044,2081,1770,1835,2073
405873,-15724,17508,-15421,17347,892,1254,-4742,3600,928,1527,603,5426,30,39,857,1661,1879,2079,2044,2081,1770,1835,2073
406874,-15660,17524,-15356,17412,794,1014,-4807,3470,902,1471,581,5445,49,41,854,1661,1879,2079,2044,2081,1770,1835,2073
407875,-15604,17616,-15291,17477,905,31,-4883,3383,838,1536,763,5275,51,44,855,1661,1879,2079,2044,2081,1770,1835,2073
408876,-15524,17724,-15226,17542,586,-222,-4908,3241,821,1071,1007,5303,46,63,858,1661,1879,2079,2044,2081,1770,1835,2073
409877,-15460,17828,-15161,17607,787,-219,-4884,2894,855,495,1134,4983,38,65,860,1661,1879,2079,2044,2081,1770,1835,2073
410878,-15404,17932,-15096,17672,898,-268,-4802,2399,815,-419,678,5355,38,44,858,1694,1947,2142,2127,2100,1812,1925,2168
411879,-15320,18020,-15031,17737,525,-96,-4664,2043,764,-796,497,6701,51,48,858,1694,1947,2142,2127,2100,1812,1925,2168
412880,-15264,18080,-14966,17802,886,260,-4472,1778,707,981,971,6727,34,47,860,1694,1947,2142,2127,2100,1812,1925,2168
413881,-15196,18156,-14901,17867,734,47,-4300,1476,666,1434,1368,6486,44,48,859,1694,1947,2142,2127,2100,1812,1925,2168
414882,-15132,18244,-14836,17932,785,-131,-4180,1245,595,1135,1836,6647,35,60,860,1694,1947,2142,2127,2100,1812,1925,2168
415883,-15068,18332,-14771,17997,786,-159,-4150,1102,508,1519,2182,6320,41,45,859,1942,2208,2350,2415,2159,1872,2070,2255
416884,-14996,18424,-14706,18062,678,-242,-4157,1062,445,1844,2379,6186,38,54,859,1942,2208,2350,2415,2159,1872,2070,2255
417885,-14948,18508,-14641,18127,998,-166,-4192,1070,402,1871,2406,5957,46,54,859,1942,2208,2350,2415,2159,1872,2070,2255
418886,-14880,18588,-14576,18192,745,-134,-4219,969,374,1018,2263,5858,34,39,858,1942,2208,2350,2415,2159,1872,2070,2255
419887,-14812,18664,-14511,18257,741,-98,-4215,730,352,167,1906,5893,42,50,859,1942,2208,2350,2415,2159,1872,2070,2255
420888,-14748,18732,-14446,18322,792,-2,-4201,306,342,-317,1527,5464,45,47,860,1942,2208,2350,2415,2159,1872,2070,2255
421889,-14656,18780,-14381,18387,409,269,-4171,-223,305,-944,1016,5343,50,32,859,2336,2556,2584,2686,2044,1801,1981,2106
422890,-14596,18816,-14316,18452,816,454,-4126,-722,280,-1379,227,5864,46,37,861,2336,2556,2584,2686,2044,1801,1981,2106
423891,-14520,18872,-14251,18517,603,215,-4052,-1134,237,-617,-131,5846,40,28,858,2336,2556,2584,2686,2044,1801,1981,2106
424892,-14428,18908,-14186,18582,370,501,-3973,-1496,211,-501,-791,6137,51,38,860,2336,2556,2584,2686,2044,1801,1981,2106
425893,-14364,18960,-14121,18647,721,315,-3905,-1802,171,-807,-972,6293,39,42,860,2336,2556,2584,2686,2044,1801,1981,2106
426894,-14296,19012,-14056,18712,667,331,-3855,-2072,130,-861,-1520,6241,38,42,859,2153,2289,2371,2409,1914,1691,1806,1948
427895,-14216,19076,-13991,18777,499,183,-3829,-2245,107,-338,-2196,6291,54,40,859,2153,2289,2371,2409,1914,1691,1806,1948
428896,-14144,19128,-13926,18842,591,348,-3760,-2439,109,12,-2516,6028,53,42,860,2153,2289,2371,2409,1914,1691,1806,1948
429897,-14052,19188,-13861,18907,308,254,-3643,-2859,144,-1022,-3022,5270,53,43,860,2153,2289,2371,2409,1914,1691,1806,1948
430898,-13996,19236,-13796,18972,769,425,-3469,-3234,179,-1660,-2902,6154,39,29,861,2153,2289,2371,2409,1914,1691,1806,1948
431899,-13920,19288,-13731,19037,505,391,-3231,-3385,197,-1573,-2604,6619,52,41,859,2153,2289,2371,2409,1914,1691,1806,1948
432900,-13832,19368,-13666,19102,327,23,-3047,-3121,329,-660,-3918,9216,48,31,860,1837,1994,2112,2115,1846,1614,1748,1908
433901,-13760,19416,-13601,19167,519,444,-2850,-2973,501,551,-2659,6913,42,35,861,1837,1994,2112,2115,1846,1614,1748,1908
434902,-13688,19476,-13536,19232,511,299,-2634,-3011,631,-1219,-2869,7978,36,30,860,1837,1994,2112,2115,1846,1614,1748,1908
435903,-13624,19536,-13471,19297,612,305,-2460,-2854,694,-1888,-2456,8693,36,29,860,1837,1994,2112,2115,1846,1614,1748,1908
436904,-13548,19596,-13406,19362,449,311,-2316,-2746,740,-914,-1773,7896,41,37,860,1837,1994,2112,2115,1846,1614,1748,1908
437905,-13504,19632,-13341,19427,874,646,-2220,-2632,797,-273,-980,7366,47,43,860,1755,1947,2017,2115,1885,1663,1851,1926
438906,-13432,19704,-13276,19492,516,188,-2205,-2613,867,-1246,-477,6278,34,32,857,1755,1947,2017,2115,1885,1663,1851,1926
439907,-13356,19732,-13211,19557,453,783,-2226,-2662,903,-1527,-15,5216,49,33,860,1755,1947,2017,2115,1885,1663,1851,1926
440908,-13312,19764,-13146,19622,878,773,-2237,-2803,883,-991,279,4201,32,32,859,1755,1947,2017,2115,1885,1663,1851,1926
441909,-13248,19824,-13081,19687,629,429,-2186,-2877,840,-712,308,4659,36,33,856,1755,1947,2017,2115,1885,1663,1851,1926
442910,-13180,19884,-13016,19752,576,435,-2103,-2788,758,538,456,4708,47,33,859,1755,1947,2017,2115,1885,1663,1851,1926
443911,-13128,19952,-12951,19817,792,332,-1946,-2652,699,557,-412,5163,28,37,859,1868,1988,2081,2292,1990,1784,1912,1939
444912,-13072,20012,-12886,19882,753,438,-1714,-2537,665,85,-790,6011,37,37,858,1868,1988,2081,2292,1990,1784,1912,1939
445913,-13008,20080,-12821,19947,654,334,-1424,-2343,613,-63,-1421,6406,39,38,859,1868,1988,2081,2292,1990,1784,1912,1939
446914,-12944,20156,-12756,20012,655,221,-1110,-2067,518,204,-2420,6672,36,48,859,1868,1988,2081,2292,1990,1784,1912,1939
447915,-12892,20228,-12691,20077,821,262,-805,-1751,442,1058,-2884,6627,38,49,859,1868,1988,2081,2292,1990,1784,1912,1939
448916,-12824,20280,-12626,20142,617,528,-501,-1492,427,715,-3188,6190,41,38,859,1743,1815,2003,2154,1930,1730,1752,1785
449917,-12760,20360,-12561,20207,668,159,-240,-1257,458,-41,-3659,6302,34,37,859,1743,1815,2003,2154,1930,1730,1752,1785
450918,-12680,20404,-12496,20272,451,634,-39,-1053,541,-522,-3732,6202,38,37,859,1743,1815,2003,2154,1930,1730,1752,1785
451919,-12624,20472,-12232,20536,1005,574,101,-837,642,-256,-3470,6166,32,51,859,1743,1815,2003,2154,1930,1730,1752,1785
452920,-12552,20556,-12167,20601,796,350,182,-637,756,-330,-3416,5944,26,36,857,1743,1815,2003,2154,1930,1730,1752,1785
453921,-12496,20624,-12102,20666,1007,547,212,-470,896,-337,-3239,5873,45,45,858,1743,1815,2003,2154,1930,1730,1752,1785
454922,-12432,20688,-12037,20731,909,598,225,-362,1039,-396,-2727,5489,38,40,856,1687,1773,1991,2181,1662,1529,1581,1588
455923,-12364,20752,-11972,20796,855,599,210,-245,1172,-651,-2223,5381,48,42,857,1687,1773,1991,2181,1662,1529,1581,1588
456924,-12300,20800,-11907,20861,906,820,164,-112,1284,-519,-1700,4977,42,43,857,1687,1773,1991,2181,1662,1529,1581,1588
457925,-12228,20896,-11842,20926,798,182,115,13,1375,-63,-1103,4531,48,47,856,1687,1773,1991,2181,1662,1529,1581,1588
458926,-12172,20976,-11777,20991,1010,364,70,105,1441,193,-489,3831,52,61,859,1687,1773,1991,2181,1662,1529,1581,1588
459927,-12116,21076,-11712,21056,1021,71,49,147,1480,-317,147,3086,57,50,858,1802,1864,2052,2312,1686,1589,1688,1704
460928,-12032,21160,-11647,21121,647,248,80,86,1487,-204,279,2255,52,56,858,1802,1864,2052,2312,1686,1589,1688,1704
461929,-11952,21264,-11582,21186,679,-50,57,-52,1468,-292,917,176,48,56,858,1802,1864,2052,2312,1686,1589,1688,1704
462930,-11876,21360,-11517,21251,716,12,-9,-17,1408,27,1353,-162,54,50,860,1802,1864,2052,2312,1686,1589,1688,1704
463931,-11760,21440,-11452,21316,153,194,-53,97,1382,1322,-133,36,59,54,860,1802,1864,2052,2312,1686,1589,1688,1704
464932,-11660,21548,-11387,21381,311,-208,-6,347,1319,1872,-112,238,63,55,861,1802,1864,2052,2312,1686,1589,1688,1704
465933,-11580,21632,-11322,21446,543,68,155,784,1218,2283,-831,1754,60,46,862,1872,1917,2105,2283,1939,1767,1840,1939
466934,-11488,21716,-11257,21511,360,45,405,1278,1133,2730,-1269,2613,36,55,861,1872,1917,2105,2283,1939,1767,1840,1939
467935,-11412,21808,-11192,21576,547,-88,698,1678,1055,2804,-1234,3145,39,39,862,1872,1917,2105,2283,1939,1767,1840,1939
468936,-11300,21884,-11127,21641,40,99,979,1897,998,1688,-1568,2879,39,48,861,1872,1917,2105,2283,1939,1767,1840,1939
469937,-11228,21952,-11062,21706,531,195,1196,1910,937,237,-1477,2394,35,34,862,1872,1917,2105,2283,1939,1767,1840,1939
470938,-11152,22028,-10997,21771,468,82,1356,1843,908,-888,-1447,2262,36,37,861,1666,1744,1945,2042,1985,1757,1788,1856
471939,-11088,22088,-10932,21836,619,288,1448,1687,934,-1685,-1348,1700,48,49,861,1666,1744,1945,2042,1985,1757,1788,1856
472940,-11000,22164,-10867,21901,291,74,1500,1456,993,-2288,-1027,1080,51,51,860,1666,1744,1945,2042,1985,1757,1788,1856
473941,-10920,22252,-10802,21966,373,-104,1486,1164,1078,-3005,-476,791,33,48,861,1666,1744,1945,2042,1985,1757,1788,1856
474942,-10848,22296,-10737,22031,464,471,1426,981,1162,-2671,-319,1395,49,32,861,1666,1744,1945,2042,1985,1757,1788,1856
475943,-10776,22388,-10672,22096,455,-162,1339,943,1243,-1713,-355,1616,46,40,860,1666,1744,1945,2042,1985,1757,1788,1856
476944,-10712,22440,-10607,22161,557,354,1248,1016,1321,-549,-179,1946,52,42,860,1612,1728,1915,2081,1815,1633,1715,1762
477945,-10628,22536,-10542,22226,283,-234,1172,1102,1400,-33,-83,1639,40,32,860,1612,1728,1915,2081,1815,1633,1715,1762
478946,-10564,22596,-10477,22291,535,222,1119,1174,1476,136,-58,1732,50,32,861,1612,1728,1915,2081,1815,1633,1715,1762
479947,-10480,22664,-10412,22356,262,119,1067,1282,1538,278,-485,1738,46,29,860,1612,1728,1915,2081,1815,1633,1715,1762
480948,-10412,22744,-10347,22421,458,-50,1054,1448,1566,1133,-687,1690,32,28,862,1612,1728,1915,2081,1815,1633,1715,1762
481949,-10340,22780,-10282,22486,399,536,1065,1595,1606,1322,-900,1810,38,35,861,1708,1812,1978,2121,1832,1660,1756,1844
482950,-10244,22852,-10217,22551,61,76,1125,1734,1654,1165,-953,1931,36,41,860,1708,1812,1978,2121,1832,1660,1756,1844
483951,-10184,22924,-10152,22616,518,68,1198,1797,1673,839,-1127,2041,38,40,862,1708,1812,1978,2121,1832,1660,1756,1844
484952,-10112,22996,-10087,22681,359,59,1274,1801,1641,811,-1548,2069,50,41,861,1708,1812,1978,2121,1832,1660,1756,1844
485955,-10032,23036,-10022,22746,241,489,1361,1805,1591,886,-1684,2222,38,35,862,1708,1812,1978,2121,1832,1660,1756,1844
486954,-9968,23096,-9957,22811,442,246,1434,1752,1540,643,-1504,2356,45,36,861,1708,1812,1978,2121,1832,1660,1756,1844
487955,-9884,23160,-9892,22876,169,197,1491,1617,1469,-42,-1524,2212,29,37,861,1706,1805,1991,2102,1913,1712,1778,1873
488956,-9832,23216,-9827,22941,585,308,1535,1427,1393,-578,-1367,2229,32,24,862,1706,1805,1991,2102,1913,1712,1778,1873
489957,-9768,23264,-9762,23006,436,429,1548,1226,1328,-670,-1390,2221,30,29,860,1706,1805,1991,2102,1913,1712,1778,1873
490958,-9708,23316,-9697,23071,492,394,1535,1019,1273,-653,-1126,2165,40,25,860,1706,1805,1991,2102,1913,1712,1778,1873
491959,-9632,23368,-9632,23136,279,409,1533,852,1234,-788,-974,2346,34,26,860,1706,1805,1991,2102,1913,1712,1778,1873
492960,-9572,23412,-9567,23201,485,535,1530,695,1227,-802,-927,2338,32,27,861,1708,1804,1996,2132,1936,1736,1825,1918
493961,-9504,23476,-9502,23266,381,286,1545,573,1244,-759,-914,2483,36,34,860,1708,1804,1996,2132,1936,1736,1825,1918
494962,-9448,23496,-9437,23331,542,891,1560,469,1281,-613,-941,2469,48,36,860,1708,1804,1996,2132,1936,1736,1825,1918
495963,-9380,23560,-9372,23396,388,342,1575,425,1343,-284,-1054,2838,33,28,857,1708,1804,1996,2132,1936,1736,1825,1918
496964,-9312,23608,-9307,23461,385,563,1587,425,1423,-27,-1042,2932,43,32,860,1708,1804,1996,2132,1936,1736,1825,1918
497965,-9248,23660,-9242,23526,436,529,1596,484,1501,186,-1148,3223,47,34,860,1708,1804,1996,2132,1936,1736,1825,1918
498966,-9184,23740,-9177,23591,437,161,1603,555,1570,468,-1094,3333,34,43,860,1736,1869,2031,2165,2002,1792,1914,2027
499967,-9116,23792,-9112,23656,383,526,1607,614,1645,221,-1234,3359,31,39,861,1736,1869,2031,2165,2002,1792,1914,2027
500968,-9056,23848,-9047,23721,489,487,1615,655,1729,169,-1354,3534,47,43,860,1736,1869,2031,2165,2002,1792,1914,2027
501969,-9012,23900,-8982,23786,715,553,1644,683,1783,80,-1444,3717,28,43,860,1736,1869,2031,2165,2002,1792,1914,2027
502970,-8936,23948,-8917,23851,302,624,1673,699,1829,-435,-1672,4021,42,35,859,1736,1869,2031,2165,2002,1792,1914,2027
503971,-8876,24020,-8852,23916,508,316,1700,681,1838,-555,-1743,4003,29,44,859,1795,1943,2106,2222,2102,1868,1966,2085
504972,-8828,24108,-8787,23981,679,87,1734,644,1827,-676,-1919,4485,44,33,860,1795,1943,2106,2222,2102,1868,1966,2085
505973,-8752,24172,-8722,24046,315,389,1753,561,1794,-951,-2094,4343,44,47,860,1795,1943,2106,2222,2102,1868,1966,2085
506974,-8700,24256,-8657,24111,631,115,1771,426,1731,-1215,-2075,4759,30,39,861,1795,1943,2106,2222,2102,1868,1966,2085
507975,-8652,24336,-8592,24176,702,146,1777,285,1659,-1438,-2051,4979,28,46,860,1795,1943,2106,2222,2102,1868,1966,2085
508976,-8588,24396,-8527,24241,503,402,1786,135,1575,-1257,-2135,5305,30,42,860,1795,1943,2106,2222,2102,1868,1966,2085
509977,-8524,24460,-8462,24306,504,354,1774,34,1496,-1157,-2157,5797,42,34,860,1782,1916,2098,2202,2107,1858,1935,2050
510978,-8472,24532,-8397,24371,670,245,1760,-20,1407,-965,-2079,6113,31,43,860,1782,1916,2098,2202,2107,1858,1935,2050
511979,-8420,24596,-8332,24436,687,346,1722,-35,1348,-650,-2163,6413,29,37,860,1782,1916,2098,2202,2107,1858,1935,2050
512980,-8332,24652,-8267,24501,209,457,1684,-15,1307,-376,-2112,6512,35,42,858,1782,1916,2098,2202,2107,1858,1935,2050
513981,-8276,24728,-8202,24566,620,194,1625,6,1276,-179,-2042,6682,33,33,860,1782,1916,2098,2202,2107,1858,1935,2050
514982,-8216,24788,-8137,24631,576,400,1560,54,1264,-242,-1939,7134,33,31,860,1762,1895,2066,2170,2074,1845,1952,2080
515983,-8160,24856,-8072,24696,637,296,1479,137,1277,-142,-1906,7240,33,31,860,1762,1895,2066,2170,2074,1845,1952,2080
516984,-8084,24916,-8007,24761,373,402,1380,196,1294,-6,-1981,7049,46,47,860,1762,1895,2066,2170,2074,1845,1952,2080
517985,-8040,24968,-7942,24826,799,518,1283,207,1320,-68,-1858,7121,45,44,860,1762,1895,2066,2170,2074,1845,1952,2080
518986,-7960,25048,-7877,24891,331,150,1184,207,1351,-421,-1926,6969,44,46,859,1762,1895,2066,2170,2074,1845,1952,2080
519987,-7916,25116,-7812,24956,806,296,1103,219,1386,-541,-2075,7033,30,46,860,1762,1895,2066,2170,2074,1845,1952,2080
520988,-7856,25192,-7747,25021,613,183,1034,210,1419,-541,-2091,6761,31,37,860,1745,1899,2066,2161,2195,1969,2067,2231
521989,-7784,25248,-7682,25086,454,444,983,173,1451,-808,-2047,6625,37,48,859,1745,1899,2066,2161,2195,1969,2067,2231
522990,-7744,25316,-7617,25151,885,290,948,118,1461,-1117,-2183,6511,30,42,860,1745,1899,2066,2161,2195,1969,2067,2231
523991,-7688,25416,-7552,25216,696,-154,920,34,1457,-1259,-2244,6209,43,49,859,1745,1899,2066,2161,2195,1969,2067,2231
524992,-7616,25484,-7487,25281,487,243,906,-58,1427,-1292,-2158,6256,43,46,859,1745,1899,2066,2161,2195,1969,2067,2231
525993,-7564,25568,-7422,25346,753,20,902,-153,1380,-1291,-2202,6029,29,47,860,1711,1876,2076,2144,2372,2091,2144,2322
526994,-7484,25636,-7357,25411,385,216,912,-228,1317,-1156,-1932,6172,46,36,860,1711,1876,2076,2144,2372,2091,2144,2322
527995,-7432,25712,-7292,25476,750,102,926,-293,1246,-1049,-1786,5932,28,37,860,1711,1876,2076,2144,2372,2091,2144,2322
528996,-7376,25760,-7227,25541,711,473,948,-338,1161,-887,-1582,5827,39,42,860,1711,1876,2076,2144,2372,2091,2144,2322
529997,-7316,25840,-7162,25606,667,55,949,-381,1067,-828,-1436,5860,30,44,859,1711,1876,2076,2144,2372,2091,2144,2322
530998,-7264,25912,-7097,25671,783,146,907,-403,980,-692,-1121,5861,30,38,859,1711,1876,2076,2144,2372,2091,2144,2322
531999,-7192,25976,-7032,25736,525,248,853,-396,893,-482,-823,5561,46,31,860,1664,1828,2015,2078,2273,1978,2035,2172
533000,-7136,26048,-6967,25801,736,139,778,-401,826,-658,-799,5468,32,40,860,1664,1828,2015,2078,2273,1978,2035,2172
534001,-7076,26108,-6902,25866,692,295,695,-337,764,-453,-591,5744,45,36,860,1664,1828,2015,2078,2273,1978,2035,2172
535002,-7024,26176,-6837,25931,808,190,608,-262,713,23,-345,5366,35,44,859,1664,1828,2015,2078,2273,1978,2035,2172
536004,-6968,26224,-6772,25996,770,461,525,-218,700,-205,-570,5211,43,38,859,1664,1828,2015,2078,2273,1978,2035,2172
537004,-6900,26316,-6707,26061,616,-122,467,-159,694,58,-821,5064,31,43,859,1654,1804,1970,2060,2072,1832,1909,2020
538005,-6828,26404,-6642,26126,558,-100,436,-160,712,-182,-898,4244,43,40,859,1654,1804,1970,2060,2072,1832,1909,2020
539006,-6764,26516,-6577,26191,659,-457,409,-156,762,-116,-756,4297,47,40,860,1654,1804,1970,2060,2072,1832,1909,2020
540007,-6700,26568,-6512,26256,660,309,395,-130,822,-451,-637,4101,43,39,860,1654,1804,1970,2060,2072,1832,1909,2020
541008,-6624,26648,-6447,26321,497,-60,352,-145,883,-841,-604,3747,35,35,859,1654,1804,1970,2060,2072,1832,1909,2020
542009,-6572,26724,-6382,26386,812,-23,334,-200,905,-954,-491,3750,29,27,860,1654,1804,1970,2060,2072,1832,1909,2020
543010,-6512,26796,-6317,26451,719,18,307,-378,907,-1253,-435,2884,31,29,860,1660,1797,1990,2104,2033,1828,1879,1981
544011,-6448,26864,-6252,26516,670,64,283,-602,878,-1410,-584,3040,32,41,860,1660,1797,1990,2104,2033,1828,1879,1981
545012,-6416,26932,-6187,26581,1110,60,247,-791,827,-1244,-681,2844,26,42,860,1660,1797,1990,2104,2033,1828,1879,1981
546013,-6336,26992,-6122,26646,492,166,224,-896,744,-539,-467,2744,44,35,859,1660,1797,1990,2104,2033,1828,1879,1981
547014,-6292,27064,-6057,26711,967,8,212,-973,668,-191,-603,2635,40,31,858,1660,1797,1990,2104,2033,1828,1879,1981
548015,-6228,27140,-5992,26776,719,-56,207,-981,580,130,-527,2505,46,27,859,1727,1840,2078,2204,2076,1872,1908,2027
549016,-6168,27200,-5927,26841,776,150,200,-916,489,691,-371,2538,29,40,859,1727,1840,2078,2204,2076,1872,1908,2027
550017,-6112,27272,-5862,26906,837,-8,202,-822,418,920,-369,2284,46,35,859,1727,1840,2078,2204,2076,1872,1908,2027
551018,-6060,27336,-5797,26971,903,92,225,-733,366,1077,-197,2277,29,40,859,1727,1840,2078,2204,2076,1872,1908,2027
552019,-6008,27368,-5732,27036,918,532,253,-634,337,939,-103,2282,34,35,859,1727,1840,2078,2204,2076,1872,1908,2027
553020,-5948,27420,-5667,27101,825,298,285,-512,310,742,187,2620,32,38,858,1727,1840,2078,2204,2076,1872,1908,2027
554021,-5880,27440,-5602,27166,721,753,285,-426,300,414,226,2474,32,34,858,1774,1878,2104,2218,2063,1860,1898,1987
555022,-5840,27456,-5537,27231,1101,863,288,-435,298,45,514,2195,28,44,857,1774,1878,2104,2218,2063,1860,1898,1987
556023,-5776,27452,-5472,27296,803,1197,291,-478,314,-454,620,2291,30,41,856,1774,1878,2104,2218,2063,1860,1898,1987
557024,-5724,27448,-5407,27361,968,1281,288,-522,338,-595,641,2517,32,53,855,1774,1878,2104,2218,2063,1860,1898,1987
558025,-5672,27564,-5342,27426,984,-281,279,-579,372,-693,566,2511,43,54,854,1774,1878,2104,2218,2063,1860,1898,1987
559026,-5608,27668,-5277,27491,837,-179,279,-599,372,-682,535,2691,44,55,853,1732,1840,2048,2182,1965,1779,1820,1888
560027,-5552,27760,-5212,27556,948,-62,274,-593,343,-437,156,2603,31,47,857,1732,1840,2048,2182,1965,1779,1820,1888
561028,-5500,27840,-5147,27621,1013,70,282,-577,319,-421,239,2786,43,44,858,1732,1840,2048,2182,1965,1779,1820,1888
562029,-5440,27936,-5082,27686,920,-169,293,-555,305,-630,368,2898,34,48,858,1732,1840,2048,2182,1965,1779,1820,1888
563030,-5396,28020,-5017,27751,1145,-42,320,-505,289,-471,540,3241,37,53,858,1732,1840,2048,2182,1965,1779,1820,1888
564031,-5340,28080,-4952,27816,1006,264,356,-402,254,-173,479,3328,43,53,857,1732,1840,2048,2182,1965,1779,1820,1888
565032,-5296,28156,-4887,27881,1182,51,405,-306,219,35,539,3402,47,52,857,1683,1794,2001,2126,1917,1738,1782,1860
566033,-5228,28244,-4822,27946,879,-127,473,-199,211,21,502,3474,42,54,857,1683,1794,2001,2126,1917,1738,1782,1860
567034,-5176,28308,-4757,28011,1095,174,539,-111,210,361,599,3300,36,50,857,1683,1794,2001,2126,1917,1738,1782,1860
568035,-5132,28376,-4692,28076,1221,120,604,-8,192,138,602,3544,29,52,858,1683,1794,2001,2126,1917,1738,1782,1860
569036,-5064,28448,-4627,28141,917,62,651,64,148,416,775,3311,36,44,857,1683,1794,2001,2126,1917,1738,1782,1860
570037,-5004,28516,-4562,28206,1023,108,683,117,96,410,635,3185,43,41,856,1689,1800,2029,2164,1920,1747,1787,1864
571038,-4940,28588,-4497,28271,974,49,699,154,29,382,706,3361,28,48,858,1689,1800,2029,2164,1920,1747,1787,1864
572039,-4888,28660,-4432,28336,1140,40,712,158,-35,500,734,2896,38,32,857,1689,1800,2029,2164,1920,1747,1787,1864
573040,-4856,28720,-4367,28401,1431,196,713,140,-92,492,768,2953,42,42,858,1689,1800,2029,2164,1920,1747,1787,1864
574041,-4796,28784,-4302,28466,1088,147,713,138,-146,498,913,2910,35,34,857,1689,1800,2029,2164,1920,1747,1787,1864
575042,-4744,28852,-4237,28531,1203,94,707,139,-189,422,1057,2825,31,37,855,1689,1800,2029,2164,1920,1747,1787,1864
576043,-4692,28896,-4172,28596,1219,419,703,148,-209,509,920,2811,31,43,857,1774,1871,2112,2267,1943,1782,1826,1906
577044,-4624,28960,-4107,28661,1016,171,711,190,-218,722,995,3027,45,41,857,1774,1871,2112,2267,1943,1782,1826,1906
578045,-4584,29012,-4042,28726,1397,336,721,226,-199,666,952,2712,44,41,855,1774,1871,2112,2267,1943,1782,1826,1906
579046,-4536,29072,-3977,28791,1318,242,735,275,-183,721,838,2862,43,34,857,1774,1871,2112,2267,1943,1782,1826,1906
580047,-4480,29112,-3912,28856,1229,522,752,330,-170,670,827,2951,46,44,854,1774,1871,2112,2267,1943,1782,1826,1906
581048,-4428,29172,-3847,28921,1295,278,769,362,-162,740,842,2853,44,39,855,1822,1923,2165,2310,2007,1835,1875,1967
582049,-4368,29208,-3782,28986,1201,614,801,396,-159,582,789,3113,29,32,854,1822,1923,2165,2310,2007,1835,1875,1967
583050,-4308,29284,-3717,29051,1208,100,839,398,-160,466,730,2946,47,31,855,1822,1923,2165,2310,2007,1835,1875,1967
584051,-4268,29312,-3652,29116,1488,745,886,401,-167,305,724,3219,39,41,854,1822,1923,2165,2310,2007,1835,1875,1967
585052,-4200,29384,-3587,29181,1135,187,941,398,-169,408,760,3242,30,35,856,1822,1923,2165,2310,2007,1835,1875,1967
586056,-4144,29424,-3522,29246,1296,617,991,390,-176,417,851,3435,48,29,852,1822,1923,2165,2310,2007,1835,1875,1967
587054,-4084,29460,-3457,29311,1253,703,1038,378,-190,364,946,3604,30,39,856,1805,1918,2158,2282,2052,1858,1890,1987
588055,-4040,29540,-3392,29376,1479,134,1083,382,-215,385,1015,3823,31,38,854,1805,1918,2158,2282,2052,1858,1890,1987
589056,-3992,29596,-3327,29441,1449,445,1110,376,-223,402,964,3824,30,48,854,1805,1918,2158,2282,2052,1858,1890,1987
590057,-3928,29644,-3262,29506,1250,566,1127,392,-242,725,1090,4032,34,45,854,1805,1918,2158,2282,2052,1858,1890,1987
591058,-3876,29696,-3197,29571,1417,532,1134,415,-261,694,1101,4191,30,32,853,1805,1918,2158,2282,2052,1858,1890,1987
592059,-3824,29764,-3132,29636,1433,328,1135,437,-286,799,1210,4340,37,33,854,1784,1907,2132,2246,2015,1809,1856,1954
593060,-3764,29816,-3067,29701,1339,543,1124,470,-312,793,1162,4503,36,46,853,1784,1907,2132,2246,2015,1809,1856,1954
594061,-3720,29872,-3002,29766,1565,504,1106,487,-335,966,1266,4610,29,47,854,1784,1907,2132,2246,2015,1809,1856,1954
595062,-3672,29920,-2937,29831,1537,625,1087,510,-350,887,1236,4829,43,46,854,1784,1907,2132,2246,2015,1809,1856,1954
596063,-3620,29964,-2872,29896,1503,700,1057,517,-348,824,1055,4807,42,50,852,1784,1907,2132,2246,2015,1809,1856,1954
597064,-3568,30024,-2807,29961,1518,507,1031,510,-342,883,988,4853,39,48,852,1777,1901,2113,2215,2002,1802,1854,1967
598065,-3520,30092,-2742,30026,1589,403,1003,489,-318,838,962,4916,42,42,851,1777,1901,2113,2215,2002,1802,1854,1967
599066,-3472,30172,-2677,30091,1611,235,972,436,-293,725,825,4807,40,50,851,1777,1901,2113,2215,2002,1802,1854,1967
600067,-3432,30236,-2612,30156,1741,436,934,393,-288,747,809,5001,26,42,852,1777,1901,2113,2215,2002,1802,1854,1967
601068,-3392,30316,-2547,30221,1772,218,890,337,-265,710,614,4867,40,51,853,1777,1901,2113,2215,2002,1802,1854,1967
602069,-3328,30368,-2482,30286,1474,583,871,304,-234,949,755,4735,41,38,851,1777,1901,2113,2215,2002,1802,1854,1967
603070,-3284,30416,-2417,30351,1750,654,842,272,-202,901,767,4714,33,47,851,1761,1888,2124,2221,2076,1873,1911,2043
604071,-3232,30480,-2352,30416,1666,455,812,255,-164,881,724,4770,26,49,852,1761,1888,2124,2221,2076,1873,1911,2043
605072,-3192,30552,-2287,30481,1847,347,798,249,-117,1103,684,4673,31,51,850,1761,1888,2124,2221,2076,1873,1911,2043
606073,-3136,30580,-2222,30546,1658,942,784,241,-83,1064,713,4714,33,41,851,1761,1888,2124,2221,2076,1873,1911,2043
607074,-3068,30652,-2157,30611,1505,383,782,233,-75,1002,809,4750,47,48,850,1761,1888,2124,2221,2076,1873,1911,2043
608075,-3016,30704,-2092,30676,1721,649,761,202,-40,655,685,4592,34,38,849,1775,1903,2149,2232,2136,1910,1938,2069
609076,-2960,30776,-2027,30741,1682,391,736,180,-37,829,858,4772,34,39,853,1775,1903,2149,2232,2136,1910,1938,2069
610077,-2884,30840,-1962,30806,1419,492,703,163,-44,707,783,4902,36,37,851,1775,1903,2149,2232,2136,1910,1938,2069
611078,-2816,30896,-1897,30871,1516,603,656,139,-45,792,811,4814,49,39,851,1775,1903,2149,2232,2136,1910,1938,2069
612079,-2756,30956,-1832,30936,1622,559,616,117,-35,514,974,4867,40,45,853,1775,1903,2149,2232,2136,1910,1938,2069
613080,-2692,31028,-1767,31001,1574,401,565,101,-52,264,1146,5202,47,39,852,1775,1903,2149,2232,2136,1910,1938,2069
614081,-2640,31092,-1702,31066,1741,502,498,127,-56,283,996,5374,51,51,851,1752,1880,2104,2180,2085,1848,1887,2008
615082,-2572,31152,-1637,31131,1537,558,442,173,-56,699,1192,5468,33,51,851,1752,1880,2104,2180,2085,1848,1887,2008
616083,-2512,31208,-1572,31196,1643,619,385,204,-46,462,997,5380,32,40,850,1752,1880,2104,2180,2085,1848,1887,2008
617084,-2460,31268,-1507,31261,1760,575,332,219,-39,308,965,5405,44,47,852,1752,1880,2104,2180,2085,1848,1887,2008
618085,-2404,31328,-1442,31326,1721,581,277,262,-33,299,1045,5291,37,55,851,1752,1880,2104,2180,2085,1848,1887,2008
619086,-2348,31380,-1377,31391,1733,697,227,302,-30,307,880,5363,29,53,850,1718,1847,2071,2158,2050,1832,1871,1996
620087,-2288,31456,-1312,31456,1689,384,185,370,-11,383,884,5401,43,39,851,1718,1847,2071,2158,2050,1832,1871,1996
621088,-2220,31536,-1247,31521,1585,315,149,415,15,511,872,5029,35,41,849,1718,1847,2071,2158,2050,1832,1871,1996
622089,-2184,31600,-1182,31586,2022,516,119,439,37,264,725,5048,45,46,851,1718,1847,2071,2158,2050,1832,1871,1996
623090,-2140,31660,-1117,31651,1947,573,100,475,61,312,835,4695,37,42,852,1718,1847,2071,2158,2050,1832,1871,1996
624091,-2068,31724,-1052,31716,1589,524,79,499,88,326,955,4529,27,46,847,1718,1847,2071,2158,2050,1832,1871,1996
625092,-2000,31796,-987,31781,1636,415,59,506,124,74,952,4421,44,41,848,1732,1866,2112,2208,2089,1880,1910,2034
626093,-1968,31852,-922,31846,2126,626,47,545,151,146,1095,4376,43,52,852,1732,1866,2112,2208,2089,1880,1910,2034
627094,-1904,31920,-857,31911,1729,473,28,582,172,358,1134,3982,23,55,852,1732,1866,2112,2208,2089,1880,1910,2034
628095,-1848,31964,-792,31976,1840,798,10,605,193,297,1082,4018,46,44,846,1732,1866,2112,2208,2089,1880,1910,2034
629096,-1796,32048,-727,32041,1905,275,0,621,198,311,1227,3853,46,53,850,1732,1866,2112,2208,2089,1880,1910,2034
630097,-1724,32104,-662,32106,1648,636,-7,640,181,430,1225,3779,48,48,849,1783,1913,2166,2271,2106,1895,1918,2028
631098,-1668,32176,-597,32171,1859,427,-10,658,161,459,1226,3866,45,38,850,1783,1913,2166,2271,2106,1895,1918,2028
632099,-1592,32248,-532,32236,1596,419,-9,703,138,493,1185,3876,36,46,850,1783,1913,2166,2271,2106,1895,1918,2028
633100,-1528,32296,-467,32301,1748,740,-6,732,123,444,1346,3876,50,44,849,1783,1913,2166,2271,2106,1895,1918,2028
634101,-1452,32356,-402,32366,1584,596,-10,735,112,287,1283,3865,45,46,852,1783,1913,2166,2271,2106,1895,1918,2028
635102,-1384,32424,-337,32431,1682,492,-16,719,100,343,1514,3957,36,49,849,1783,1913,2166,2271,2106,1895,1918,2028
636103,-1316,32492,-272,32496,1678,488,-26,701,85,318,1604,3733,33,53,851,1790,1900,2142,2257,2040,1842,1867,1959
637104,-1248,32564,-207,32561,1675,430,-46,691,74,194,1423,3784,52,49,851,1790,1900,2142,2257,2040,1842,1867,1959
638105,-1188,32628,-142,32626,1781,531,-52,698,77,347,1269,3806,35,47,851,1790,1900,2142,2257,2040,1842,1867,1959
639106,-1116,32684,-77,32691,1623,642,-58,710,90,604,1368,3727,48,41,851,1790,1900,2142,2257,2040,1842,1867,1959
640107,-1052,32720,-12,32756,1725,927,-65,710,100,435,1436,3764,42,44,850,1790,1900,2142,2257,2040,1842,1867,1959
641108,-992,32796,53,32821,1781,414,-62,702,98,198,1530,3660,37,47,851,1772,1876,2120,2240,2001,1819,1848,1946
642109,-936,32872,118,32886,1843,401,-52,724,111,180,1230,3754,47,54,848,1772,1876,2120,2240,2001,1819,1848,1946
643110,-876,32932,183,32951,1799,607,-28,760,119,563,1155,3603,34,56,850,1772,1876,2120,2240,2001,1819,1848,1946
644111,-820,33012,248,33016,1860,338,2,801,116,473,1207,3528,52,44,850,1772,1876,2120,2240,2001,1819,1848,1946
645112,-748,33076,313,33081,1653,540,38,823,108,302,1250,3542,35,44,849,1772,1876,2120,2240,2001,1819,1848,1946
646113,-692,33132,378,33146,1864,651,75,794,112,63,1226,3087,53,40,850,1772,1876,2120,2240,2001,1819,1848,1946
647114,-616,33204,443,33211,1601,442,104,754,101,91,1392,3054,39,43,851,1777,1888,2146,2271,2031,1852,1874,1971
648115,-540,33284,508,33276,1588,324,127,735,98,31,1339,3138,52,56,849,1777,1888,2146,2271,2031,1852,1874,1971
649116,-476,33348,573,33341,1739,525,141,728,96,173,1479,3086,41,54,851,1777,1888,2146,2271,2031,1852,1874,1971
650117,-416,33404,638,33406,1796,636,170,732,89,126,1397,3181,43,42,851,1777,1888,2146,2271,2031,1852,1874,1971
651118,-352,33468,703,33471,1747,537,231,741,61,361,1483,3604,47,53,850,1777,1888,2146,2271,2031,1852,1874,1971
652119,-268,33532,768,33536,1475,538,244,737,38,327,1514,3213,44,42,849,1812,1920,2176,2307,2021,1840,1866,1955
653120,-180,33596,833,33601,1397,540,264,763,2,-166,1764,3228,49,41,850,1812,1920,2176,2307,2021,1840,1866,1955
654121,-104,33676,898,33666,1534,321,249,834,-3,162,1264,3610,45,52,852,1812,1920,2176,2307,2021,1840,1866,1955
655122,4,33720,963,33731,1082,797,230,903,34,65,1071,3886,36,42,853,1812,1920,2176,2307,2021,1840,1866,1955
656123,84,33772,1028,33796,1414,713,180,909,5,-668,1616,2759,53,50,853,1812,1920,2176,2307,2021,1840,1866,1955
657124,160,33844,1093,33861,1450,454,55,886,73,243,175,3714,51,55,854,1812,1920,2176,2307,2021,1840,1866,1955
658125,220,33908,1158,33926,1658,555,-153,772,174,1993,754,3344,54,51,852,1811,1915,2155,2281,1980,1801,1836,1927
659126,312,33988,1223,33991,1225,337,-335,545,203,773,1511,1913,55,46,853,1811,1915,2155,2281,1980,1801,1836,1927
660127,364,34060,1288,34056,1741,429,-496,284,195,-1413,988,2234,57,51,851,1811,1915,2155,2281,1980,1801,1836,1927
661128,440,34120,1353,34121,1428,585,-589,135,164,-1155,1042,2827,42,57,855,1811,1915,2155,2281,1980,1801,1836,1927
662129,524,34160,1418,34186,1305,865,-560,183,96,695,966,3098,55,55,851,1811,1915,2155,2281,1980,1801,1836,1927
663130,596,34244,1483,34251,1447,292,-422,344,34,1408,453,4008,53,54,853,1736,1835,2069,2136,2103,1891,1913,2086
664131,688,34332,1548,34316,1164,214,-282,465,26,700,-170,4386,55,44,852,1736,1835,2069,2136,2103,1891,1913,2086
665132,764,34396,1613,34381,1351,515,-143,573,9,700,68,4024,55,48,853,1736,1835,2069,2136,2103,1891,1913,2086
666133,832,34464,1678,34446,1448,462,-25,595,-8,1048,520,3604,44,41,855,1736,1835,2069,2136,2103,1891,1913,2086
667134,904,34560,1743,34511,1390,74,73,579,-45,601,907,3536,56,55,852,1736,1835,2069,2136,2103,1891,1913,2086
668135,964,34608,1808,34576,1546,694,125,563,-78,-57,974,3181,58,42,853,1736,1835,2069,2136,2103,1891,1913,2086
669136,1040,34676,1873,34641,1332,441,147,599,-84,50,1330,3374,38,42,854,1611,1749,1995,2045,2216,1955,1973,2124
670137,1108,34732,1938,34706,1430,602,139,637,-38,278,1709,2980,49,50,851,1611,1749,1995,2045,2216,1955,1973,2124
671138,1192,34800,2003,34771,1206,448,117,589,-12,-255,1916,2924,44,55,854,1611,1749,1995,2045,2216,1955,1973,2124
672139,1256,34864,2068,34836,1458,499,68,532,7,-771,1878,2878,42,57,853,1611,1749,1995,2045,2216,1955,1973,2124
673140,1332,34932,2133,34901,1295,446,-7,447,15,-525,2059,2733,58,57,855,1611,1749,1995,2045,2216,1955,1973,2124
674141,1400,35016,2198,34966,1392,222,-109,407,37,-493,1783,2900,50,59,853,1676,1822,2054,2172,2118,1893,1927,2012
675142,1488,35096,2263,35031,1114,254,-220,370,53,-122,1746,2982,51,55,854,1676,1822,2054,2172,2118,1893,1927,2012
676143,1568,35164,2328,35096,1196,400,-317,332,26,-239,1957,3054,45,51,854,1676,1822,2054,2172,2118,1893,1927,2012
677144,1636,35228,2393,35161,1343,452,-416,266,20,-468,1555,3009,40,42,856,1676,1822,2054,2172,2118,1893,1927,2012
678145,1716,35308,2458,35226,1174,233,-498,240,15,-203,1226,3431,37,54,855,1676,1822,2054,2172,2118,1893,1927,2012
679146,1776,35368,2523,35291,1430,490,-568,278,36,636,796,3799,56,55,854,1676,1822,2054,2172,2118,1893,1927,2012
680147,1848,35428,2588,35356,1273,496,-602,340,42,946,777,3905,41,52,856,1763,1880,2126,2249,2041,1852,1869,1980
681148,1908,35504,2653,35421,1429,281,-606,400,36,462,514,3979,44,61,853,1763,1880,2126,2249,2041,1852,1869,1980
682149,1988,35584,2718,35486,1161,213,-588,440,27,469,314,4036,50,53,854,1763,1880,2126,2249,2041,1852,1869,1980
683150,2060,35636,2783,35551,1253,579,-561,492,27,594,35,4054,39,46,854,1763,1880,2126,2249,2041,1852,1869,1980
684151,2140,35712,2848,35616,1135,265,-539,588,15,1058,-5,4199,52,51,855,1763,1880,2126,2249,2041,1852,1869,1980
685152,2208,35784,2913,35681,1281,307,-523,656,-11,1031,196,4075,39,59,854,1752,1856,2141,2231,2082,1895,1883,2012
686153,2272,35856,2978,35746,1332,298,-504,654,-42,469,400,3732,39,58,856,1752,1856,2141,2231,2082,1895,1883,2012
687154,2368,35944,3043,35811,895,70,-507,590,-72,79,637,3587,40,58,855,1752,1856,2141,2231,2082,1895,1883,2012
688155,2416,36028,3108,35876,1516,97,-527,583,-93,49,747,3985,42,54,855,1752,1856,2141,2231,2082,1895,1883,2012
689156,2492,36104,3173,35941,1153,184,-558,594,-103,579,1265,3587,38,53,858,1752,1856,2141,2231,2082,1895,1883,2012
690157,2568,36184,3238,36006,1139,115,-590,550,-102,-140,1612,3314,41,46,853,1752,1856,2141,2231,2082,1895,1883,2012
691158,2644,36264,3303,36071,1127,97,-627,487,-103,-644,1864,3611,46,54,856,1771,1874,2163,2288,2102,1919,1929,2023
692159,2692,36300,3368,36136,1498,682,-679,477,-110,-485,2045,3681,44,44,857,1771,1874,2163,2288,2102,1919,1929,2023
693160,2784,36376,3433,36201,915,169,-733,490,-104,-40,2036,3577,47,46,856,1771,1874,2163,2288,2102,1919,1929,2023
694161,2856,36444,3498,36266,1156,265,-788,508,-104,27,2161,3658,42,48,851,1771,1874,2163,2288,2102,1919,1929,2023
695162,2924,36516,3563,36331,1204,207,-834,505,-114,-273,2153,3636,39,51,857,1771,1874,2163,2288,2102,1919,1929,2023
696163,3008,36588,3628,36396,980,198,-876,540,-117,-65,1908,3914,41,48,856,1792,1901,2147,2288,2121,1926,1959,2055
697164,3064,36656,3693,36461,1341,244,-888,606,-130,376,1855,4068,43,40,856,1792,1901,2147,2288,2121,1926,1959,2055
698165,3156,36708,3758,36526,858,459,-884,700,-143,382,1418,4407,44,52,857,1792,1901,2147,2288,2121,1926,1959,2055
699166,3220,36776,3823,36591,1211,256,-839,800,-168,241,1416,4501,55,49,854,1792,1901,2147,2288,2121,1926,1959,2055
700167,3288,36836,3888,36656,1157,362,-769,872,-190,252,1268,4319,47,55,856,1792,1901,2147,2288,2121,1926,1959,2055
701168,3372,36904,3953,36721,934,258,-701,916,-197,-36,929,4550,39,47,855,1792,1901,2147,2288,2121,1926,1959,2055
702169,3428,36968,4152,36920,1458,473,-628,967,-209,25,764,4545,45,43,856,1743,1863,2108,2207,2146,1929,1941,2067
703170,3512,37032,4217,36985,1086,474,-565,1015,-218,198,817,4518,52,54,857,1743,1863,2108,2207,2146,1929,1941,2067
704171,3572,37112,4282,37050,1392,256,-520,1029,-237,-44,880,4304,53,43,853,1743,1863,2108,2207,2146,1929,1941,2067
705172,3652,37192,4347,37115,1124,238,-480,1025,-273,-277,848,4402,42,61,856,1743,1863,2108,2207,2146,1929,1941,2067
706173,3744,37280,4412,37180,941,109,-474,1006,-310,-504,875,4238,52,55,854,1743,1863,2108,2207,2146,1929,1941,2067
707174,3824,37376,4477,37245,1074,-28,-481,986,-339,-129,844,4027,44,58,856,1740,1867,2141,2247,2086,1883,1891,1998
708175,3912,37480,4542,37310,946,-176,-523,963,-361,92,1164,3960,51,56,858,1740,1867,2141,2247,2086,1883,1891,1998
709176,3992,37612,4607,37375,1027,-608,-585,949,-394,-288,1166,3794,60,49,857,1740,1867,2141,2247,2086,1883,1891,1998
710177,4068,37704,4672,37440,1064,-141,-669,917,-433,-32,1316,3757,43,52,857,1740,1867,2141,2247,2086,1883,1891,1998
711180,4152,37768,4737,37505,942,210,-745,887,-437,-20,1583,3561,44,51,855,1740,1867,2141,2247,2086,1883,1891,1998
712179,4232,37824,4802,37570,973,321,-812,887,-423,435,2054,3501,40,46,857,1740,1867,2141,2247,2086,1883,1891,1998
713180,4320,37900,4867,37635,845,58,-870,821,-433,689,1886,3088,41,49,858,1839,1952,2219,2359,2018,1845,1877,1967
714181,4416,37976,4932,37700,707,44,-847,805,-465,-1639,594,3461,57,52,857,1839,1952,2219,2359,2018,1845,1877,1967
715182,4480,38040,4997,37765,1109,195,-869,1019,-490,-917,1496,4508,58,48,859,1839,1952,2219,2359,2018,1845,1877,1967
716183,4576,38092,5062,37830,672,361,-851,1036,-523,2006,1713,3458,52,54,860,1839,1952,2219,2359,2018,1845,1877,1967
717184,4652,38144,5127,37895,908,377,-850,826,-522,-401,983,2417,58,42,856,1839,1952,2219,2359,2018,1845,1877,1967
718185,4732,38236,5192,37960,840,-156,-855,852,-568,-1050,1083,4362,53,41,858,1858,1955,2202,2330,2024,1851,1883,1983
719186,4812,38308,5257,38025,822,85,-845,919,-651,471,1154,3634,57,53,857,1858,1955,2202,2330,2024,1851,1883,1983
720187,4892,38376,5322,38090,803,131,-821,866,-688,716,898,3168,55,52,858,1858,1955,2202,2330,2024,1851,1883,1983
721188,4968,38452,5387,38155,840,18,-783,789,-710,-302,960,3881,54,53,859,1858,1955,2202,2330,2024,1851,1883,1983
722189,5064,38520,5452,38220,553,114,-742,713,-738,-1086,1105,3585,54,41,859,1858,1955,2202,2330,2024,1851,1883,1983
723190,5156,38608,5517,38285,570,-165,-696,633,-764,-332,1200,3614,46,57,859,1858,1955,2202,2330,2024,1851,1883,1983
724191,5236,38684,5582,38350,702,-28,-660,554,-765,-125,1175,3529,42,55,860,1773,1873,2116,2222,2040,1852,1878,1988
725192,5332,38752,5647,38415,464,68,-623,515,-751,-612,1224,3506,54,46,860,1773,1873,2116,2222,2040,1852,1878,1988
726193,5404,38816,5712,38480,755,119,-588,495,-735,-695,1266,3493,39,38,860,1773,1873,2116,2222,2040,1852,1878,1988
727194,5492,38868,5777,38545,527,285,-558,476,-736,-252,1351,3381,45,55,861,1773,1873,2116,2222,2040,1852,1878,1988
728195,5576,38948,5842,38610,554,-83,-546,456,-753,-198,1221,3311,55,51,859,1773,1873,2116,2222,2040,1852,1878,1988
729196,5664,39012,5907,38675,476,118,-554,452,-779,-567,1180,3201,38,42,860,1728,1849,2082,2184,2029,1827,1870,1984
730197,5720,39080,5972,38740,888,64,-563,453,-827,-69,1262,3135,49,54,860,1728,1849,2082,2184,2029,1827,1870,1984
731198,5812,39136,6037,38805,405,224,-579,440,-874,66,1270,3062,40,52,861,1728,1849,2082,2184,2029,1827,1870,1984
732199,5892,39208,6102,38870,537,16,-602,401,-924,-459,1134,2856,52,43,858,1728,1849,2082,2184,2029,1827,1870,1984
733200,5956,39284,6167,38935,738,-48,-617,351,-971,-590,1156,2809,33,43,860,1728,1849,2082,2184,2029,1827,1870,1984
734201,6032,39348,6232,39000,575,104,-628,281,-1010,-594,1083,2876,48,57,860,1728,1849,2082,2184,2029,1827,1870,1984
735202,6112,39432,6297,39065,506,-169,-628,236,-1047,-387,959,2959,50,48,859,1748,1871,2094,2198,2008,1805,1855,1968
736203,6196,39500,6362,39130,433,27,-625,191,-1080,-386,891,2781,40,58,860,1748,1871,2094,2198,2008,1805,1855,1968
737204,6272,39572,6427,39195,520,-32,-622,172,-1115,-219,890,3168,52,59,860,1748,1871,2094,2198,2008,1805,1855,1968
738205,6360,39636,6492,39260,342,69,-615,115,-1145,-175,821,2685,43,50,861,1748,1871,2094,2198,2008,1805,1855,1968
739206,6420,39736,6557,39325,698,-424,-606,69,-1182,-500,741,2907,41,43,861,1748,1871,2094,2198,2008,1805,1855,1968
740207,6504,39812,6622,39390,375,-138,-603,56,-1218,-227,667,3115,48,46,861,1749,1865,2090,2188,1989,1792,1837,1950
741208,6568,39888,6687,39455,626,-151,-601,57,-1233,-98,704,3051,41,55,858,1749,1865,2090,2188,1989,1792,1837,1950
742209,6644,39968,6752,39520,462,-219,-583,57,-1239,173,775,2896,40,58,861,1749,1865,2090,2188,1989,1792,1837,1950
743210,6740,40040,6817,39585,174,-128,-574,34,-1242,-218,716,2941,45,51,860,1749,1865,2090,2188,1989,1792,1837,1950
744211,6832,40120,6882,39650,192,-247,-558,22,-1257,-368,737,2934,37,53,860,1749,1865,2090,2188,1989,1792,1837,1950
745212,6900,40192,6947,39715,488,-156,-542,-3,-1268,113,792,2654,38,49,862,1749,1865,2090,2188,1989,1792,1837,1950
746213,6976,40252,7012,39780,374,0,-526,-33,-1264,-254,798,2801,32,55,861,1731,1844,2070,2179,1976,1790,1834,1932
747214,7040,40328,7077,39845,526,-213,-522,-70,-1274,-273,964,2753,49,46,860,1731,1844,2070,2179,1976,1790,1834,1932
748215,7136,40400,7142,39910,88,-172,-527,-127,-1296,-443,890,2541,31,53,861,1731,1844,2070,2179,1976,1790,1834,1932
749216,7212,40460,7207,39975,324,-16,-520,-198,-1323,-248,963,2422,47,44,860,1731,1844,2070,2179,1976,1790,1834,1932
750217,7328,40544,7272,40040,-238,-340,-533,-323,-1349,625,1160,2238,48,53,862,1731,1844,2070,2179,1976,1790,1834,1932
751218,7424,40600,7337,40105,-26,21,-520,-542,-1403,-29,1223,1561,35,41,861,1736,1840,2073,2208,1974,1795,1836,1925
752219,7520,40692,7402,40170,-64,-462,-490,-724,-1446,-2281,-108,1556,40,44,861,1736,1840,2073,2208,1974,1795,1836,1925
753220,7648,40752,7467,40235,-540,-56,-469,-704,-1461,-1596,-614,2373,31,49,863,1736,1840,2073,2208,1974,1795,1836,1925
754221,7712,40816,7532,40300,261,-104,-463,-623,-1462,204,-146,2602,44,48,860,1736,1840,2073,2208,1974,1795,1836,1925
755222,7772,40872,7597,40365,317,6,-472,-554,-1450,154,100,2415,39,51,863,1736,1840,2073,2208,1974,1795,1836,1925
756223,7856,40940,7662,40430,-6,-148,-501,-520,-1464,195,608,2615,35,48,862,1736,1840,2073,2208,1974,1795,1836,1925
757224,7924,41008,7727,40495,190,-152,-540,-566,-1500,-266,649,2263,34,38,862,1745,1849,2063,2182,1946,1755,1815,1910
758225,8000,41088,7792,40560,77,-320,-587,-570,-1518,-361,309,2429,41,49,862,1745,1849,2063,2182,1946,1755,1815,1910
759226,8072,41164,7857,40625,118,-283,-617,-505,-1511,275,229,2782,49,43,862,1745,1849,2063,2182,1946,1755,1815,1910
760227,8156,41244,7922,40690,-55,-353,-637,-430,-1530,410,452,2574,29,50,861,1745,1849,2063,2182,1946,1755,1815,1910
761229,8228,41304,7987,40755,86,-97,-656,-397,-1550,-105,231,2565,31,44,862,1745,1849,2063,2182,1946,1755,1815,1910
762229,8324,41368,8052,40820,-252,-145,-660,-394,-1577,-304,128,2889,30,43,861,1708,1810,2008,2113,1949,1753,1810,1920
763230,8416,41424,8117,40885,-235,-34,-644,-386,-1591,-448,-96,2860,39,46,862,1708,1810,2008,2113,1949,1753,1810,1920
764231,8488,41508,8182,40950,6,-409,-612,-391,-1606,-204,-259,2939,37,44,862,1708,1810,2008,2113,1949,1753,1810,1920
765232,8564,41560,8247,41015,-57,7,-577,-376,-1603,-151,-494,3123,52,48,863,1708,1810,2008,2113,1949,1753,1810,1920
766233,8636,41628,8312,41080,-16,-196,-552,-408,-1614,-499,-320,2749,45,44,861,1708,1810,2008,2113,1949,1753,1810,1920
767234,8708,41684,8377,41145,-25,-35,-539,-475,-1632,-1061,-226,2896,33,42,862,1708,1810,2008,2113,1949,1753,1810,1920
768235,8792,41736,8442,41210,-198,30,-544,-558,-1659,-945,-60,2794,40,49,861,1646,1753,1971,2081,2008,1802,1844,1952
769236,8892,41812,8507,41275,-440,-284,-559,-614,-1669,-678,-92,3022,44,38,862,1646,1753,1971,2081,2008,1802,1844,1952
770237,8976,41868,8572,41340,-264,-23,-598,-671,-1663,-518,45,2796,53,44,856,1646,1753,1971,2081,2008,1802,1844,1952
771238,9064,41920,8637,41405,-343,43,-649,-657,-1646,-199,255,3262,48,39,862,1646,1753,1971,2081,2008,1802,1844,1952
772239,9148,41992,8702,41470,-316,-216,-737,-594,-1603,188,87,3324,42,49,862,1646,1753,1971,2081,2008,1802,1844,1952
773240,9236,42052,8767,41535,-394,-60,-828,-506,-1562,501,24,3132,35,40,863,1664,1763,1990,2131,2064,1856,1904,2022
774241,9344,42132,8832,41600,-696,-329,-908,-347,-1525,609,-1,3481,35,48,862,1664,1763,1990,2131,2064,1856,1904,2022
775242,9424,42192,8897,41665,-365,-73,-959,-195,-1496,592,-152,3593,42,54,863,1664,1763,1990,2131,2064,1856,1904,2022
776243,9512,42264,8962,41730,-493,-231,-990,-41,-1457,692,-531,3891,53,49,861,1664,1763,1990,2131,2064,1856,1904,2022
777244,9612,42360,9027,41795,-687,-569,-1000,92,-1430,915,-583,3671,41,42,862,1664,1763,1990,2131,2064,1856,1904,2022
778245,9724,42408,9092,41860,-894,52,-996,142,-1411,575,-744,3754,58,49,862,1664,1763,1990,2131,2064,1856,1904,2022
779246,9812,42476,9157,41925,-622,-203,-998,108,-1407,79,-668,3712,37,38,860,1706,1817,2056,2174,2161,1945,1964,2071
780247,9904,42536,9222,41990,-705,-97,-1012,99,-1403,-169,-667,4080,45,47,863,1706,1817,2056,2174,2161,1945,1964,2071
781248,10000,42600,9287,42055,-794,-146,-1074,119,-1382,-108,-1027,4463,41,37,862,1706,1817,2056,2174,2161,1945,1964,2071
782249,10088,42668,9352,42120,-722,-199,-1161,194,-1380,136,-886,4548,42,49,862,1706,1817,2056,2174,2161,1945,1964,2071
783250,10184,42712,9417,42185,-860,126,-1243,205,-1375,353,-1056,4737,49,39,863,1706,1817,2056,2174,2161,1945,1964,2071
784251,10264,42768,9482,42250,-679,-14,-1309,205,-1366,159,-1312,5654,47,44,862,1697,1783,2045,2175,2133,1921,1907,1997
785252,10388,42836,9547,42315,-1301,-167,-1342,183,-1365,70,-1374,6074,64,39,862,1697,1783,2045,2175,2133,1921,1907,1997
786253,10472,42880,9612,42380,-824,158,-1333,140,-1363,160,-1740,6652,48,52,861,1697,1783,2045,2175,2133,1921,1907,1997
787254,10592,42948,9677,42445,-1341,-146,-1284,111,-1361,280,-2160,7211,48,46,862,1697,1783,2045,2175,2133,1921,1907,1997
788255,10696,43016,9742,42510,-1190,-149,-1230,128,-1347,342,-2246,7477,59,51,862,1697,1783,2045,2175,2133,1921,1907,1997
789256,10816,43072,9807,42575,-1457,11,-1190,236,-1344,437,-2280,7595,66,44,862,1697,1783,2045,2175,2133,1921,1907,1997
790257,10924,43144,9872,42640,-1361,-198,-1166,394,-1342,824,-2100,7504,54,52,862,1619,1698,1941,2063,2057,1841,1856,1957
791258,11036,43192,9937,42705,-1468,123,-1151,544,-1321,1315,-2069,7345,65,50,858,1619,1698,1941,2063,2057,1841,1856,1957
792259,11160,43268,10002,42770,-1690,-240,-1166,619,-1309,1080,-1892,6690,53,51,862,1619,1698,1941,2063,2057,1841,1856,1957
793260,11276,43348,10067,42835,-1653,-309,-1165,627,-1308,163,-1594,6611,70,51,863,1619,1698,1941,2063,2057,1841,1856,1957
794261,11404,43396,10132,42900,-1880,111,-1165,521,-1304,-353,-1589,6031,72,35,862,1619,1698,1941,2063,2057,1841,1856,1957
795262,11524,43456,10197,42965,-1848,-33,-1160,341,-1301,-160,-1196,5303,70,47,859,1644,1761,1961,2094,2007,1797,1881,1954
796263,11648,43496,10262,43030,-1970,248,-1171,269,-1215,-714,-1952,5818,60,36,863,1644,1761,1961,2094,2007,1797,1881,1954
797264,11772,43552,10327,43095,-2043,59,-1190,157,-1134,-685,-2201,4912,65,48,863,1644,1761,1961,2094,2007,1797,1881,1954
798265,11896,43616,10392,43160,-2115,-40,-1201,119,-1043,-584,-2312,5593,77,46,862,1644,1761,1961,2094,2007,1797,1881,1954
799266,12008,43664,10457,43225,-2024,180,-1210,79,-975,-431,-2249,5315,74,49,860,1644,1761,1961,2094,2007,1797,1881,1954
800267,12132,43712,10522,43290,-2247,200,-1199,86,-936,270,-2494,6048,68,35,863,1644,1761,1961,2094,2007,1797,1881,1954
801268,12256,43772,10587,43355,-2319,56,-1148,176,-897,1154,-2571,6566,73,40,862,1729,1856,2006,2129,1949,1731,1845,1937
802269,12368,43836,10652,43420,-2227,8,-1070,218,-861,983,-2708,6540,66,44,862,1729,1856,2006,2129,1949,1731,1845,1937
803270,12520,43892,10717,43485,-2834,119,-985,238,-848,449,-2941,6980,79,35,861,1729,1856,2006,2129,1949,1731,1845,1937
804271,12628,43956,10782,43550,-2337,20,-898,193,-859,330,-3195,6556,79,47,863,1729,1856,2006,2129,1949,1731,1845,1937
805272,12764,44008,10847,43615,-2775,185,-787,109,-860,-163,-3134,6632,79,46,863,1729,1856,2006,2129,1949,1731,1845,1937
806273,12880,44076,10912,43680,-2588,-19,-668,71,-850,-153,-3004,6640,66,42,863,1663,1784,1918,1999,1874,1644,1744,1844
807274,12988,44148,10977,43745,-2540,-77,-585,13,-851,-593,-2879,6173,63,49,862,1663,1784,1918,1999,1874,1644,1744,1844
808275,13120,44196,11042,43810,-2923,243,-517,-1,-897,-113,-2441,6113,79,48,863,1663,1784,1918,1999,1874,1644,1744,1844
809276,13224,44284,11107,43875,-2622,-285,-442,38,-962,283,-1751,5417,64,48,862,1663,1784,1918,1999,1874,1644,1744,1844
810277,13340,44316,11172,43940,-2835,456,-378,104,-1049,956,-1946,5162,83,35,862,1663,1784,1918,1999,1874,1644,1744,1844
811281,13460,44388,11237,44005,-2953,-53,-275,-70,-1089,1352,-1667,4337,63,34,862,1663,1784,1918,1999,1874,1644,1744,1844
812279,13572,44452,11302,44070,-2910,47,-199,-91,-1097,-1360,-1819,5617,66,51,861,1612,1730,1875,1974,1821,1609,1711,1773
813280,13676,44508,11367,44135,-2859,158,-235,-72,-1160,-633,-1407,4067,60,46,863,1612,1730,1875,1974,1821,1609,1711,1773
814281,13792,44572,11432,44200,-3072,59,-243,-216,-1116,-205,-1458,4658,64,38,863,1612,1730,1875,1974,1821,1609,1711,1773
815282,13924,44640,11497,44265,-3355,6,-242,-463,-1090,-625,-1126,3156,74,33,862,1612,1730,1875,1974,1821,1609,1711,1773
816283,14068,44688,11562,44330,-3603,276,-233,-770,-1104,-1539,-960,3102,76,47,863,1612,1730,1875,1974,1821,1609,1711,1773
817284,14204,44744,11627,44395,-3590,187,-185,-1124,-1094,-1803,-733,2885,62,46,863,1608,1734,1880,1999,1792,1610,1712,1798
818285,14352,44780,11692,44460,-3800,473,-99,-1376,-1030,-1097,-1395,2208,75,35,862,1608,1734,1880,1999,1792,1610,1712,1798
819286,14476,44800,11757,44525,-3616,727,-32,-1424,-926,-749,-1651,2655,62,41,861,1608,1734,1880,1999,1792,1610,1712,1798
820287,14584,44840,11822,44590,-3469,507,57,-1296,-789,-199,-1902,2904,62,38,861,1608,1734,1880,1999,1792,1610,1712,1798
821288,14696,44916,11887,44655,-3577,44,171,-1055,-670,599,-1987,3447,59,42,860,1608,1734,1880,1999,1792,1610,1712,1798
822289,14820,44984,11952,44720,-3800,140,288,-753,-579,835,-2205,4209,59,51,861,1608,1734,1880,1999,1792,1610,1712,1798
823290,14912,45060,12017,44785,-3434,27,404,-389,-523,1301,-2053,4307,63,37,863,1586,1726,1868,1922,1812,1594,1700,1829
824291,15004,45132,12082,44850,-3468,68,503,-134,-474,1957,-1822,4208,62,42,862,1586,1726,1868,1922,1812,1594,1700,1829
825292,15088,45204,12147,44915,-3393,60,566,-64,-460,1451,-1510,3716,56,51,863,1586,1726,1868,1922,1812,1594,1700,1829
826293,15176,45280,12212,44980,-3473,-4,611,-78,-497,251,-1462,3513,59,40,863,1586,1726,1868,1922,1812,1594,1700,1829
827294,15284,45356,12277,45045,-3776,-17,625,-244,-559,-1007,-1029,2396,59,50,862,1586,1726,1868,1922,1812,1594,1700,1829
828295,15392,45396,12342,45110,-3800,462,626,-455,-606,-1442,-858,2687,60,44,863,1540,1677,1816,1884,1779,1567,1655,1749
829296,15524,45468,12407,45175,-3800,54,620,-590,-660,-1232,-775,2466,65,33,863,1540,1677,1816,1884,1779,1567,1655,1749
830297,15640,45524,12472,45240,-3800,265,603,-714,-726,-1207,-744,2198,68,37,862,1540,1677,1816,1884,1779,1567,1655,1749
831298,15760,45580,12537,45305,-3800,276,596,-832,-813,-1401,-454,2444,66,39,863,1540,1677,1816,1884,1779,1567,1655,1749
832299,15860,45632,12602,45370,-3800,342,576,-936,-897,-1042,-366,2162,56,39,855,1540,1677,1816,1884,1779,1567,1655,1749
833300,15956,45680,12667,45435,-3800,412,567,-959,-972,-173,-266,2519,68,41,862,1555,1668,1830,1939,1795,1591,1687,1775
834301,16072,45744,12732,45500,-3800,214,555,-995,-1016,-28,-319,2223,64,50,862,1555,1668,1830,1939,1795,1591,1687,1775
835302,16160,45796,12797,45565,-3800,380,567,-981,-1045,-277,-321,2259,58,38,862,1555,1668,1830,1939,1795,1591,1687,1775
836303,16248,45864,12862,45630,-3800,176,577,-883,-1048,20,-568,2803,65,37,857,1555,1668,1830,1939,1795,1591,1687,1775
837304,16368,45920,12927,45695,-3800,336,584,-759,-1016,371,-719,2267,55,38,861,1555,1668,1830,1939,1795,1591,1687,1775
838305,16464,45988,12992,45760,-3800,182,609,-645,-959,559,-924,2467,67,41,862,1555,1668,1830,1939,1795,1591,1687,1775
839306,16560,46060,13057,45825,-3800,124,658,-493,-876,453,-1221,2452,49,36,862,1565,1687,1849,1932,1866,1648,1742,1860
840307,16672,46136,13122,45890,-3800,60,712,-361,-784,480,-1325,2721,48,46,860,1565,1687,1849,1932,1866,1648,1742,1860
841308,16760,46188,13187,45955,-3800,376,762,-244,-706,469,-1439,2577,46,38,863,1565,1687,1849,1932,1866,1648,1742,1860
842309,16872,46248,13252,46020,-3800,282,818,-159,-623,367,-1497,2715,55,35,863,1565,1687,1849,1932,1866,1648,1742,1860
843310,16960,46304,13317,46085,-3800,343,898,-134,-543,87,-1513,2550,55,50,862,1565,1687,1849,1932,1866,1648,1742,1860
844311,17040,46392,13382,46150,-3800,-85,984,-212,-488,-303,-1378,2411,55,41,860,1528,1658,1822,1898,1873,1661,1718,1819
845312,17152,46444,13447,46215,-3800,381,1029,-341,-435,-778,-1263,2577,58,38,862,1528,1658,1822,1898,1873,1661,1718,1819
846313,17236,46516,13512,46280,-3800,122,1047,-426,-421,-722,-888,2547,39,33,863,1528,1658,1822,1898,1873,1661,1718,1819
847314,17316,46572,13577,46345,-3800,333,1032,-512,-436,-685,-705,2826,43,44,862,1528,1658,1822,1898,1873,1661,1718,1819
848315,17412,46632,13642,46410,-3800,289,1004,-572,-479,-480,-421,3134,51,37,862,1528,1658,1822,1898,1873,1661,1718,1819
849316,17492,46708,13707,46475,-3800,75,948,-670,-513,-331,-398,3112,44,37,862,1528,1658,1822,1898,1873,1661,1718,1819
850317,17580,46760,13772,46540,-3800,391,885,-755,-591,-214,-55,2965,40,46,862,1507,1625,1796,1879,1792,1582,1658,1746
851318,17656,46816,13837,46605,-3800,352,799,-834,-664,-378,127,3368,44,35,863,1507,1625,1796,1879,1792,1582,1658,1746
852319,17748,46884,13902,46670,-3800,198,712,-781,-707,447,-80,3931,36,37,861,1507,1625,1796,1879,1792,1582,1658,1746
853320,17832,46948,13967,46735,-3800,249,652,-609,-720,1103,-399,4255,39,45,861,1507,1625,1796,1879,1792,1582,1658,1746
854321,17904,46992,14032,46800,-3800,525,626,-394,-736,1109,-490,4404,39,50,862,1507,1625,1796,1879,1792,1582,1658,1746
855322,17972,47060,14097,46865,-3800,221,616,-144,-752,1216,-472,4730,42,35,863,1531,1650,1802,1874,1798,1589,1686,1813
856323,18052,47132,14162,46930,-3800,163,593,107,-739,1553,-642,4589,34,36,861,1531,1650,1802,1874,1798,1589,1686,1813
857324,18136,47196,14227,46995,-3800,264,560,245,-704,958,-925,4245,41,50,863,1531,1650,1802,1874,1798,1589,1686,1813
858325,18200,47256,14292,47060,-3800,320,535,321,-662,-64,-1123,4203,40,48,862,1531,1650,1802,1874,1798,1589,1686,1813
859326,18264,47324,14357,47125,-3800,217,530,317,-613,-374,-1251,4439,31,48,862,1531,1650,1802,1874,1798,1589,1686,1813
860327,18340,47392,14422,47190,-3800,212,537,208,-550,-948,-1322,4430,48,43,862,1531,1650,1802,1874,1798,1589,1686,1813
861328,18424,47448,14487,47255,-3800,373,553,8,-478,-1286,-1374,4576,43,37,862,1530,1657,1842,1902,1924,1707,1775,1891
862329,18492,47532,14552,47320,-3800,0,570,-177,-408,-1294,-1285,4970,30,37,862,1530,1657,1842,1902,1924,1707,1775,1891
863330,18560,47604,14617,47385,-3800,141,587,-340,-347,-1032,-1318,5013,30,40,862,1530,1657,1842,1902,1924,1707,1775,1891
864331,18608,47684,14682,47450,-3800,23,607,-434,-296,-617,-1309,5267,35,51,863,1530,1657,1842,1902,1924,1707,1775,1891
865332,18668,47740,14747,47515,-3800,334,617,-450,-253,-460,-1299,5458,41,51,863,1530,1657,1842,1902,1924,1707,1775,1891
866334,18736,47812,14812,47580,-3800,125,597,-390,-221,283,-1073,5584,42,46,862,1520,1652,1861,1907,1973,1735,1784,1914
867334,18788,47864,14877,47645,-3800,391,560,-277,-194,835,-874,5925,42,48,862,1520,1652,1861,1907,1973,1735,1784,1914
868335,18840,47928,14942,47710,-3800,242,510,-117,-179,1235,-678,5728,37,36,862,1520,1652,1861,1907,1973,1735,1784,1914
869336,18896,48008,15007,47775,-3800,24,453,18,-172,1008,-541,6061,41,39,861,1520,1652,1861,1907,1973,1735,1784,1914
870337,18936,48068,15072,47840,-3800,280,381,149,-172,928,-375,6166,24,50,862,1520,1652,1861,1907,1973,1735,1784,1914
871338,19004,48136,15137,47905,-3800,177,298,249,-170,1049,-281,5979,35,49,862,1520,1652,1861,1907,1973,1735,1784,1914
872339,19044,48196,15202,47970,-3800,282,203,304,-175,903,-153,6050,37,46,862,1545,1685,1857,1918,1910,1674,1749,1864
873340,19104,48252,15267,48035,-3800,343,99,317,-174,508,-165,5851,35,46,862,1545,1685,1857,1918,1910,1674,1749,1864
874341,19156,48324,15332,48100,-3800,134,21,295,-181,217,-159,5758,23,35,862,1545,1685,1857,1918,1910,1674,1749,1864
875342,19212,48388,15397,48165,-3800,235,-52,226,-172,35,-273,5449,21,35,862,1545,1685,1857,1918,1910,1674,1749,1864
876343,19224,48468,15462,48230,-3567,17,-101,136,-157,-76,-272,5617,16,32,857,1545,1685,1857,1918,1910,1674,1749,1864
877344,19268,48544,15527,48295,-3800,54,-122,31,-139,-255,-413,5375,24,32,863,1531,1645,1813,1881,1905,1678,1748,1872
878345,19304,48600,15592,48360,-3800,315,-105,-70,-113,-226,-496,5482,23,34,863,1531,1645,1813,1881,1905,1678,1748,1872
879346,19348,48684,15657,48425,-3800,-59,-69,-141,-89,-94,-538,5197,20,36,862,1531,1645,1813,1881,1905,1678,1748,1872
880347,19376,48744,15722,48490,-3640,247,-26,-176,-58,-206,-537,5228,20,34,859,1531,1645,1813,1881,1905,1678,1748,1872
881348,19412,48804,15787,48555,-3707,254,28,-166,-24,290,-463,4921,15,42,862,1531,1645,1813,1881,1905,1678,1748,1872
882349,19448,48868,15852,48620,-3672,205,76,-159,18,311,-432,4948,14,43,862,1531,1645,1813,1881,1905,1678,1748,1872
883350,19472,48924,15917,48685,-3474,315,133,-151,61,39,-295,4626,13,30,862,1459,1583,1757,1811,1959,1715,1781,1911
884351,19504,48992,15982,48750,-3535,161,176,-136,107,233,-68,4513,26,27,860,1459,1583,1757,1811,1959,1715,1781,1911
885352,19544,49052,16047,48815,-3605,267,198,-100,152,237,172,4474,10,42,863,1459,1583,1757,1811,1959,1715,1781,1911
886353,19548,49116,16112,48880,-3083,218,208,-54,183,355,423,4178,7,43,862,1459,1583,1757,1811,1959,1715,1781,1911
887354,19596,49172,16177,48945,-3613,329,199,-25,207,344,557,4030,13,28,861,1459,1583,1757,1811,1959,1715,1781,1911
888355,19596,49224,16242,49010,-2935,395,189,13,222,98,572,3875,4,42,861,1444,1580,1735,1802,1935,1676,1761,1866
889356,19624,49280,16307,49075,-3241,356,163,18,235,11,716,3575,14,26,862,1444,1580,1735,1802,1935,1676,1761,1866
890357,19640,49360,16372,49140,-3033,38,132,18,231,21,639,3411,3,33,862,1444,1580,1735,1802,1935,1676,1761,1866
891358,19648,49412,16437,49205,-2864,404,88,2,218,-184,581,3358,17,28,863,1444,1580,1735,1802,1935,1676,1761,1866
892359,19684,49476,16502,49270,-3180,255,63,-26,197,-304,556,3193,1,24,860,1444,1580,1735,1802,1935,1676,1761,1866
893360,19696,49544,16567,49335,-2816,201,31,-59,175,-329,460,3248,7,39,862,1444,1580,1735,1802,1935,1676,1761,1866
894361,19708,49604,16632,49400,-2753,306,15,-76,153,-123,305,3073,17,25,862,1458,1569,1732,1808,1858,1625,1705,1809
895362,19720,49668,16697,49465,-2690,258,1,-98,131,-112,14,3167,-1,35,862,1458,1569,1732,1808,1858,1625,1705,1809
896363,19728,49736,16762,49530,-2571,204,-2,-119,110,-149,-73,3007,3,38,861,1458,1569,1732,1808,1858,1625,1705,1809
897364,19740,49796,16827,49595,-2557,310,5,-126,98,-134,-336,3165,1,27,862,1458,1569,1732,1808,1858,1625,1705,1809
898365,19744,49852,16892,49660,-2384,371,17,-132,99,-23,-458,2947,15,41,862,1458,1569,1732,1808,1858,1625,1705,1809
899366,19728,49900,16957,49725,-2036,492,38,-120,109,13,-489,3187,-4,26,862,1453,1576,1745,1806,1831,1608,1668,1797
900367,19752,49960,17022,49790,-2487,348,54,-105,123,141,-493,3038,10,40,861,1453,1576,1745,1806,1831,1608,1668,1797
901368,19752,50032,17087,49855,-2109,189,81,-97,146,173,-441,2955,-5,34,862,1453,1576,1745,1806,1831,1608,1668,1797
902369,19760,50092,17152,49920,-2140,346,88,-75,169,222,-322,2990,-5,27,863,1453,1576,1745,1806,1831,1608,1668,1797
903370,19756,50128,17217,49985,-1907,681,88,-59,200,130,-144,2690,8,41,862,1453,1576,1745,1806,1831,1608,1668,1797
904371,19756,50200,17282,50050,-1879,222,71,-38,222,126,38,2729,-8,40,860,1453,1576,1745,1806,1831,1608,1668,1797
905372,19748,50264,17347,50115,-1690,324,55,-24,234,89,198,2595,-5,33,862,1476,1609,1784,1844,1828,1614,1692,1806
906373,19744,50328,17412,50180,-1657,325,32,-6,252,53,403,2535,2,43,862,1476,1609,1784,1844,1828,1614,1692,1806
907374,19756,50412,17477,50245,-1793,52,-2,-22,270,-96,555,2695,6,39,862,1476,1609,1784,1844,1828,1614,1692,1806
908375,19744,50452,17542,50310,-1400,631,-30,-29,267,-85,709,2653,10,37,863,1476,1609,1784,1844,1828,1614,1692,1806
909376,19764,50520,17607,50375,-1747,277,-60,-62,249,-70,788,2679,-6,30,860,1476,1609,1784,1844,1828,1614,1692,1806
910377,19748,50576,17672,50440,-1199,438,-80,-80,234,-109,841,2910,8,43,862,1504,1635,1792,1870,1840,1627,1715,1818
911378,19752,50664,17737,50505,-1374,10,-91,-104,214,-140,909,2915,5,39,862,1504,1635,1792,1870,1840,1627,1715,1818
912379,19740,50736,17802,50570,-1081,202,-92,-122,183,-218,786,3199,-8,44,863,1504,1635,1792,1870,1840,1627,1715,1818
913380,19760,50816,17867,50635,-1427,84,-70,-113,141,36,764,3372,-7,29,862,1504,1635,1792,1870,1840,1627,1715,1818
914381,19748,50892,17932,50700,-934,120,-40,-92,105,172,611,3527,-5,42,862,1504,1635,1792,1870,1840,1627,1715,1818
915382,19752,50956,17997,50765,-1060,271,2,-88,77,224,501,3652,3,44,863,1504,1635,1792,1870,1840,1627,1715,1818
916383,19760,51004,18062,50830,-1041,492,54,-56,42,228,421,3817,10,36,862,1483,1607,1763,1829,1867,1644,1724,1840
917384,19752,51064,18127,50895,-753,348,100,-31,9,185,264,3837,11,41,861,1483,1607,1763,1829,1867,1644,1724,1840
918385,19756,51148,18192,50960,-829,25,148,15,-15,233,216,4064,-6,37,862,1483,1607,1763,1829,1867,1644,1724,1840
919386,19744,51200,18257,51025,-536,441,193,49,-27,147,200,4078,-6,28,863,1483,1607,1763,1829,1867,1644,1724,1840
920387,19748,51252,18322,51090,-662,457,232,64,-34,45,250,4287,-8,28,861,1483,1607,1763,1829,1867,1644,1724,1840
921388,19736,51304,18387,51155,-368,473,262,55,-44,-79,251,4158,3,30,861,1455,1587,1753,1820,1865,1641,1714,1814
922389,19752,51376,18452,51220,-659,214,283,36,-44,-114,226,4293,7,29,861,1455,1587,1753,1820,1865,1641,1714,1814
923390,19744,51424,18517,51285,-270,534,284,22,-39,-68,325,4275,-2,32,863,1455,1587,1753,1820,1865,1641,1714,1814
924391,19752,51484,18582,51350,-402,390,275,5,-27,-88,391,4190,-6,34,861,1455,1587,1753,1820,1865,1641,1714,1814
925392,19752,51524,18647,51415,-222,670,244,-7,-22,-49,429,4199,6,26,857,1455,1587,1753,1820,1865,1641,1714,1814
926393,19744,51592,18712,51480,-33,317,212,-10,-22,-71,468,4245,-7,37,860,1455,1587,1753,1820,1865,1641,1714,1814
927394,19752,51652,18777,51545,-165,423,170,6,-27,107,558,4221,-8,39,862,1492,1627,1795,1877,1831,1638,1721,1825
928395,19756,51712,18842,51610,-40,429,126,9,-28,153,531,4269,8,38,856,1492,1627,1795,1877,1831,1638,1721,1825
929396,19744,51768,18907,51675,253,490,87,9,-47,151,523,4315,-7,31,861,1492,1627,1795,1877,1831,1638,1721,1825
930397,19760,51816,18972,51740,-37,611,65,-3,-74,191,510,4399,5,30,860,1492,1627,1795,1877,1831,1638,1721,1825
931398,19760,51872,19037,51805,242,522,48,-7,-91,205,459,4527,5,35,861,1492,1627,1795,1877,1831,1638,1721,1825
932399,19752,51952,19102,51870,431,203,43,-3,-114,241,476,4541,11,29,860,1528,1650,1814,1898,1880,1664,1746,1861
933400,19756,51988,19167,51935,355,789,49,9,-146,289,391,4638,10,40,861,1528,1650,1814,1898,1880,1664,1746,1861
934401,19764,52056,19232,52000,374,385,65,24,-177,266,352,4759,-3,38,859,1528,1650,1814,1898,1880,1664,1746,1861
935402,19784,52132,19297,52065,279,272,87,30,-205,124,185,4750,16,33,860,1528,1650,1814,1898,1880,1664,1746,1861
936405,19792,52216,19362,52130,499,149,113,30,-231,141,219,4749,-1,37,861,1528,1650,1814,1898,1880,1664,1746,1861
937404,19792,52268,19427,52195,677,564,142,19,-248,87,203,4790,4,31,860,1528,1650,1814,1898,1880,1664,1746,1861
938405,19816,52316,19492,52260,427,635,163,-13,-264,117,86,4723,13,38,857,1499,1628,1796,1856,1909,1677,1746,1865
939406,19828,52400,19557,52325,642,162,171,-28,-281,-17,84,4853,25,33,859,1499,1628,1796,1856,1909,1677,1746,1865
940407,19856,52464,19622,52390,487,413,169,-53,-278,-170,133,4737,8,36,860,1499,1628,1796,1856,1909,1677,1746,1865
941408,19876,52540,19687,52455,642,250,157,-76,-262,-203,153,4655,22,44,859,1499,1628,1796,1856,1909,1677,1746,1865
942409,19924,52604,19752,52520,313,401,135,-106,-245,-317,127,4693,25,43,859,1499,1628,1796,1856,1909,1677,1746,1865
943410,19956,52664,19817,52585,553,457,104,-120,-233,-215,260,4558,30,40,861,1478,1610,1778,1845,1871,1646,1720,1833
944411,20000,52724,19882,52650,428,463,68,-126,-215,-148,171,4383,32,28,859,1478,1610,1778,1845,1871,1646,1720,1833
945412,20036,52776,19947,52715,564,579,36,-138,-187,-137,218,4368,22,41,860,1478,1610,1778,1845,1871,1646,1720,1833
946413,20084,52840,20012,52780,435,430,-4,-139,-173,-85,267,4271,21,35,859,1478,1610,1778,1845,1871,1646,1720,1833
947414,20124,52884,20077,52845,565,706,-38,-137,-163,-191,303,4308,38,31,860,1478,1610,1778,1845,1871,1646,1720,1833
948415,20188,52952,20142,52910,266,402,-71,-141,-151,-70,293,4207,25,44,858,1478,1610,1778,1845,1871,1646,1720,1833
949416,20220,53012,20207,52975,707,508,-88,-151,-148,-3,248,4119,40,44,860,1483,1613,1773,1843,1858,1638,1719,1835
950417,20276,53076,20272,53040,418,460,-98,-150,-155,-46,259,4004,36,44,858,1483,1613,1773,1843,1858,1638,1719,1835
951418,20340,53132,20337,53105,319,571,-101,-171,-150,-41,157,4047,40,46,860,1483,1613,1773,1843,1858,1638,1719,1835
952419,20408,53200,20536,53304,429,580,-96,-176,-155,-77,146,3726,41,43,860,1483,1613,1773,1843,1858,1638,1719,1835
953420,20472,53268,20601,53369,480,577,-85,-186,-173,-131,54,3822,30,34,859,1483,1613,1773,1843,1858,1638,1719,1835
954421,20540,53328,20666,53434,426,683,-70,-193,-190,-46,48,3760,37,44,859,1484,1611,1773,1839,1884,1653,1732,1851
955422,20616,53372,20731,53499,313,909,-52,-199,-199,-58,-35,3633,35,40,858,1484,1611,1773,1839,1884,1653,1732,1851
956423,20680,53432,20796,53564,464,715,-33,-211,-214,-131,11,3724,48,34,858,1484,1611,1773,1839,1884,1653,1732,1851
957424,20732,53504,20861,53629,630,556,-18,-223,-226,-84,-4,3710,36,45,858,1484,1611,1773,1839,1884,1653,1732,1851
958425,20816,53600,20926,53694,207,218,-5,-248,-218,-162,38,3664,49,52,858,1484,1611,1773,1839,1884,1653,1732,1851
959426,20880,53664,20991,53759,458,619,3,-249,-216,-201,77,3640,38,38,861,1484,1611,1773,1839,1884,1653,1732,1851
960427,20944,53752,21056,53824,459,291,11,-264,-208,-87,66,3729,50,35,859,1478,1605,1766,1834,1866,1637,1717,1828
961428,21036,53816,21121,53889,76,593,13,-255,-203,-103,120,3659,38,48,860,1478,1605,1766,1834,1866,1637,1717,1828
962429,21080,53896,21186,53954,702,374,12,-236,-189,19,111,3684,36,49,860,1478,1605,1766,1834,1866,1637,1717,1828
963430,21156,53952,21251,54019,288,685,5,-204,-172,-36,135,3639,48,36,859,1478,1605,1766,1834,1866,1637,1717,1828
964431,21240,54008,21316,54084,165,696,0,-200,-153,-34,181,3598,48,38,860,1478,1605,1766,1834,1866,1637,1717,1828
965432,21300,54080,21381,54149,471,488,-7,-183,-135,-113,212,3721,51,36,859,1481,1607,1763,1841,1838,1619,1705,1807
966433,21380,54152,21446,54214,203,479,-23,-181,-111,-187,143,3665,50,39,859,1481,1607,1763,1841,1838,1619,1705,1807
967434,21460,54228,21511,54279,185,416,-26,-178,-94,-140,166,3672,51,49,860,1481,1607,1763,1841,1838,1619,1705,1807
968435,21532,54300,21576,54344,276,457,-20,-193,-76,-153,94,3649,43,37,861,1481,1607,1763,1841,1838,1619,1705,1807
969436,21600,54364,21641,54409,323,558,-12,-203,-57,-211,-28,3684,40,34,860,1481,1607,1763,1841,1838,1619,1705,1807
970437,21656,54440,21706,54474,484,395,4,-218,-47,-129,-28,3587,46,34,860,1481,1607,1763,1841,1838,1619,1705,1807
971438,21728,54504,21771,54539,275,546,17,-210,-41,13,-122,3726,40,35,860,1491,1611,1771,1853,1847,1635,1718,1826
972439,21792,54576,21836,54604,376,438,34,-181,-39,113,-103,3718,34,34,860,1491,1611,1771,1853,1847,1635,1718,1826
973440,21860,54628,21901,54669,323,704,49,-197,-32,70,-166,3627,33,36,860,1491,1611,1771,1853,1847,1635,1718,1826
974441,21940,54680,21966,54734,154,719,77,-180,-43,59,-134,3802,46,44,859,1491,1611,1771,1853,1847,1635,1718,1826
975442,22008,54756,22031,54799,301,406,103,-165,-53,373,-193,3561,38,46,860,1491,1611,1771,1853,1847,1635,1718,1826
976443,22068,54824,22096,54864,407,502,124,-140,-52,224,-281,3557,41,34,861,1500,1619,1787,1867,1880,1656,1736,1847
977444,22136,54884,22161,54929,303,608,153,-90,-68,102,-85,3763,38,42,860,1500,1619,1787,1867,1880,1656,1736,1847
978445,22196,54964,22226,54994,409,340,150,-49,-77,-19,-120,3674,44,41,860,1500,1619,1787,1867,1880,1656,1736,1847
979446,22256,55028,22291,55059,415,541,167,-37,-68,82,123,3848,40,31,860,1500,1619,1787,1867,1880,1656,1736,1847
980447,22336,55080,22356,55124,147,707,176,-63,-57,261,100,3765,45,34,860,1500,1619,1787,1867,1880,1656,1736,1847
981448,22372,55156,22421,55189,732,394,184,-90,-62,-92,31,3829,47,38,859,1500,1619,1787,1867,1880,1656,1736,1847
982449,22448,55192,22486,55254,219,929,172,-107,-55,-152,-25,3991,39,27,859,1507,1625,1791,1879,1869,1652,1730,1828
983450,22504,55248,22551,55319,480,690,176,-94,-41,61,66,3949,33,28,858,1507,1625,1791,1879,1869,1652,1730,1828
984451,22572,55324,22616,55384,326,427,164,-94,-17,51,12,3789,45,35,859,1507,1625,1791,1879,1869,1652,1730,1828
985452,22636,55372,22681,55449,377,797,171,-101,-5,-119,55,4045,35,34,860,1507,1625,1791,1879,1869,1652,1730,1828
986453,22692,55432,22746,55514,488,654,164,-123,15,-152,2,4137,29,23,858,1507,1625,1791,1879,1869,1652,1730,1828
987454,22752,55468,22811,55579,445,989,171,-129,18,142,-102,3989,42,28,859,1510,1624,1791,1880,1854,1645,1721,1818
988455,22816,55528,22876,55644,396,695,175,-140,33,181,-195,4201,30,30,857,1510,1624,1791,1880,1854,1645,1721,1818
989456,22876,55576,22941,55709,452,866,188,-128,52,203,-97,4217,31,38,858,1510,1624,1791,1880,1854,1645,1721,1818
990457,22928,55628,23006,55774,569,832,200,-102,58,368,-159,4231,33,32,858,1510,1624,1791,1880,1854,1645,1721,1818
991458,23000,55664,23071,55839,310,1068,207,-79,57,368,-118,4152,28,31,857,1510,1624,1791,1880,1854,1645,1721,1818
992459,23080,55712,23136,55904,192,939,214,-88,65,169,-249,4068,41,35,857,1510,1624,1791,1880,1854,1645,1721,1818
993460,23132,55768,23201,55969,558,850,223,-80,65,229,-107,4141,30,30,858,1508,1620,1792,1880,1872,1662,1735,1840
994461,23188,55812,23266,56034,519,1025,242,-55,61,417,-102,4200,37,37,857,1508,1620,1792,1880,1872,1662,1735,1840
995462,23252,55860,23331,56099,420,996,245,-68,52,316,-29,4015,42,34,856,1508,1620,1792,1880,1872,1662,1735,1840
996463,23316,55908,23396,56164,421,1017,249,-95,50,9,-87,4070,43,38,857,1508,1620,1792,1880,1872,1662,1735,1840
997464,23384,55976,23461,56229,367,763,241,-120,45,-32,19,3955,44,39,857,1508,1620,1792,1880,1872,1662,1735,1840
998465,23432,56028,23526,56294,638,979,237,-138,41,107,-17,3953,47,37,858,1515,1625,1803,1894,1888,1675,1746,1845
999466,23496,56084,23591,56359,439,940,236,-166,38,122,52,3939,43,24,856,1515,1625,1803,1894,1888,1675,1746,1845
1000467,23592,56144,23656,56424,2,896,234,-182,40,65,0,4024,34,38,857,1515,1625,1803,1894,1888,1675,1746,1845
1001468,23632,56172,23721,56489,732,1341,233,-190,41,108,34,4053,30,41,859,1515,1625,1803,1894,1888,1675,1746,1845
1002469,23704,56244,23786,56554,324,784,225,-198,52,100,13,4057,26,30,853,1515,1625,1803,1894,1888,1675,1746,1845
1003470,23768,56312,23851,56619,425,830,218,-200,62,193,68,4217,34,38,859,1515,1625,1803,1894,1888,1675,1746,1845
1004471,23828,56376,23916,56684,481,881,215,-195,70,153,-3,4174,28,42,858,1518,1629,1804,1896,1883,1669,1739,1838
1005472,23888,56448,23981,56749,487,773,212,-187,73,213,24,4488,40,42,858,1518,1629,1804,1896,1883,1669,1739,1838
1006473,23932,56504,24046,56814,713,984,218,-159,82,338,54,4364,34,38,857,1518,1629,1804,1896,1883,1669,1739,1838
1007474,23996,56556,24111,56879,464,1050,217,-145,94,347,-9,4291,27,36,856,1518,1629,1804,1896,1883,1669,1739,1838
1008475,24056,56612,24176,56944,520,1011,213,-114,102,201,-39,4225,34,42,856,1518,1629,1804,1896,1883,1669,1739,1838
1009476,24124,56664,24241,57009,416,1077,203,-95,110,186,-9,4309,48,41,856,1509,1619,1794,1883,1873,1661,1732,1834
1010477,24180,56724,24306,57074,577,983,206,-94,112,70,-57,4122,36,25,856,1509,1619,1794,1883,1873,1661,1732,1834
1011478,24228,56788,24371,57139,698,935,208,-102,100,19,-5,4250,47,32,856,1509,1619,1794,1883,1873,1661,1732,1834
1012479,24288,56864,24436,57204,554,772,210,-129,103,-167,0,4150,33,38,856,1509,1619,1794,1883,1873,1661,1732,1834
1013480,24372,56900,24501,57269,231,1307,213,-131,90,25,83,4289,48,41,858,1509,1619,1794,1883,1873,1661,1732,1834
1014481,24428,56964,24566,57334,592,958,202,-157,97,-25,2,3892,42,32,856,1509,1619,1794,1883,1873,1661,1732,1834
1015482,24496,57020,24631,57399,438,1069,194,-176,90,-102,53,3909,47,44,857,1512,1625,1803,1895,1881,1667,1740,1842
1016483,24572,57080,24696,57464,325,1025,184,-185,91,-110,178,4074,33,31,856,1512,1625,1803,1895,1881,1667,1740,1842
