%  Data file recorded 2016/7/16  19:33:37
%  Stride Frequency         = [1, 1]
%  Lead In /Lead Out        = 
%  Deltas (Fractional)      = [0.25, 0.25, 0.25],[0.25, 0.25, 0.25]
%  Phase                    = 32768
%  Experiment.py 
%  Motor Gains    = [5000, 400, 200, 0, 300, 5000, 400, 200, 0, 300]
% Columns: 
% time | Right Leg Pos | Left Leg Pos | Commanded Right Leg Pos | Commanded Left Leg Pos | DCR | DCL | GyroX | GyroY | GyroZ | AX | AY | AZ | RBEMF | LBEMF | VBatt | S1 | S2 | S3 | S4 | S5 | S6 | S7 | S8
320,18244,-20408,15300,-17468,3800,-1245,83,22,13,61,79,3931,1,-7,911,1740,1851,2087,2225,2022,1799,1866,1986
1321,18256,-20420,15300,-17468,3800,-979,80,24,13,39,84,3927,9,-2,911,1740,1851,2087,2225,2022,1799,1866,1986
2322,18248,-20416,15300,-17468,3800,-1183,81,23,13,67,87,3945,10,4,911,1740,1853,2089,2225,2023,1799,1863,1985
3323,18256,-20412,15300,-17468,3800,-1187,81,21,13,79,76,3946,6,4,911,1740,1853,2089,2225,2023,1799,1863,1985
4324,18248,-20412,15300,-17468,3800,-1136,84,21,12,70,106,3959,-2,-4,911,1740,1853,2089,2225,2023,1799,1863,1985
5325,18256,-20416,15300,-17468,3800,-1080,82,24,12,50,97,3943,-1,-6,911,1740,1853,2089,2225,2023,1799,1863,1985
6326,18264,-20420,15300,-17468,3800,-1073,81,23,12,55,96,3915,-7,7,911,1740,1853,2089,2225,2023,1799,1863,1985
7327,18252,-20416,15300,-17468,3800,-1177,80,23,11,60,108,3936,-10,5,911,1739,1851,2086,2223,2023,1800,1867,1988
8328,18240,-20412,15300,-17468,3800,-1181,81,25,10,69,103,3963,-10,-5,911,1739,1851,2086,2223,2023,1800,1867,1988
9329,18260,-20412,15300,-17468,3800,-1130,81,22,12,65,107,3948,-7,-5,911,1739,1851,2086,2223,2023,1800,1867,1988
10330,18256,-20420,15300,-17468,3800,-1019,79,24,13,72,102,3944,-6,0,911,1739,1851,2086,2223,2023,1800,1867,1988
11331,18244,-20416,15300,-17468,3800,-1173,79,26,13,51,81,3911,-9,7,911,1739,1851,2086,2223,2023,1800,1867,1988
12333,18256,-20404,15300,-17468,3800,-1287,77,22,12,60,84,3914,-8,-2,911,1739,1851,2086,2223,2023,1800,1867,1988
13333,18256,-20412,15300,-17468,3800,-1026,79,21,14,69,77,3930,-3,-7,911,1739,1850,2087,2223,2023,1797,1863,1987
14334,18248,-20416,15300,-17468,3800,-1069,81,21,14,59,103,3935,-3,5,911,1739,1850,2087,2223,2023,1797,1863,1987
15335,18252,-20420,15300,-17468,3800,-1063,82,20,14,60,87,3965,2,-4,911,1739,1850,2087,2223,2023,1797,1863,1987
16336,18260,-20416,15300,-17468,3800,-1167,78,23,13,71,101,3958,9,-4,911,1739,1850,2087,2223,2023,1797,1863,1987
17337,18252,-20400,15300,-17468,3800,-1335,78,20,15,70,67,3956,9,6,911,1739,1850,2087,2223,2023,1797,1863,1987
18338,18252,-20424,15300,-17468,3800,-805,80,18,15,67,99,3956,9,-1,911,1739,1851,2087,2225,2024,1799,1865,1987
19339,18256,-20396,15300,-17468,3800,-1488,80,21,14,81,96,3968,6,-1,910,1739,1851,2087,2225,2024,1799,1865,1987
20340,18256,-20412,15300,-17468,3800,-918,81,24,12,57,96,3945,1,-3,911,1739,1851,2087,2225,2024,1799,1865,1987
21341,18256,-20412,15300,-17468,3800,-1117,76,26,13,77,83,3931,-7,-4,911,1739,1851,2087,2225,2024,1799,1865,1987
22342,18248,-20404,15300,-17468,3800,-1226,75,25,14,80,105,3921,-10,5,911,1739,1851,2087,2225,2024,1799,1865,1987
23343,18268,-20412,15300,-17468,3800,-1014,79,20,14,73,75,3908,-9,4,911,1739,1851,2087,2225,2024,1799,1865,1987
24344,18252,-20416,15300,-17468,3800,-1058,80,21,15,53,84,3904,-5,-7,911,1739,1851,2087,2223,2019,1795,1863,1990
25345,18252,-20400,15300,-17468,3800,-1326,80,22,13,53,95,3904,1,1,911,1739,1851,2087,2223,2019,1795,1863,1990
26346,18256,-20416,15300,-17468,3800,-906,79,23,12,63,95,3905,-1,7,911,1739,1851,2087,2223,2019,1795,1863,1990
27347,18252,-20416,15300,-17468,3800,-1105,80,20,12,75,95,3950,5,0,911,1739,1851,2087,2223,2019,1795,1863,1990
28348,18248,-20408,15300,-17468,3800,-1214,81,20,14,69,102,3925,9,-7,911,1739,1851,2087,2223,2019,1795,1863,1990
29349,18260,-20416,15300,-17468,3800,-1003,81,21,14,70,72,3927,9,-1,911,1741,1852,2087,2224,2021,1798,1865,1986
30350,18244,-20412,15300,-17468,3800,-1157,79,21,13,59,92,3960,6,6,911,1741,1852,2087,2224,2021,1798,1865,1986
31351,18264,-20412,15300,-17468,3800,-1105,79,20,13,54,115,3964,0,-4,911,1741,1852,2087,2224,2021,1798,1865,1986
32352,18256,-20404,15300,-17468,3800,-1214,76,19,11,64,84,3950,-1,-5,911,1741,1852,2087,2224,2021,1798,1865,1986
33353,18252,-20408,15300,-17468,3800,-1058,76,19,11,36,118,3958,-9,7,911,1741,1852,2087,2224,2021,1798,1865,1986
34354,18248,-20412,15300,-17468,3800,-1052,77,20,10,47,132,3937,-6,-3,911,1741,1852,2087,2224,2021,1798,1865,1986
35355,18240,-20408,15300,-17468,3800,-1156,80,21,10,56,109,3906,-5,-7,911,1742,1854,2088,2226,2024,1800,1865,1987
36356,18256,-20416,15300,-17468,3800,-995,81,19,11,63,63,3916,6,1,910,1742,1854,2088,2226,2024,1800,1865,1987
37357,18256,-20408,15300,-17468,3800,-1204,79,20,12,72,81,3911,8,7,911,1742,1854,2088,2226,2024,1800,1865,1987
38358,18244,-20416,15300,-17468,3800,-993,78,20,11,60,95,3935,3,4,911,1742,1854,2088,2226,2024,1800,1865,1987
39359,18256,-20416,15300,-17468,3800,-1091,79,19,8,40,85,3930,9,-7,911,1742,1854,2088,2226,2024,1800,1865,1987
40360,18248,-20412,15300,-17468,3800,-1145,79,19,8,72,68,3938,9,-4,911,1739,1851,2087,2225,2023,1799,1866,1988
41361,18248,-20420,15300,-17468,3800,-984,79,17,8,72,79,3972,10,3,911,1739,1851,2087,2225,2023,1799,1866,1988
42362,18248,-20408,15300,-17468,3800,-1248,81,18,10,71,83,3966,9,7,911,1739,1851,2087,2225,2023,1799,1866,1988
43363,18252,-20412,15300,-17468,3800,-1042,80,20,10,60,89,3962,9,4,911,1739,1851,2087,2225,2023,1799,1866,1988
44364,18260,-20408,15300,-17468,3800,-1146,79,21,8,68,99,3935,8,-3,911,1739,1851,2087,2225,2023,1799,1866,1988
45365,18236,-20420,15300,-17468,3800,-930,79,23,9,73,100,3927,2,-5,911,1739,1851,2087,2225,2023,1799,1866,1988
46366,18256,-20424,15300,-17468,3800,-1024,78,19,12,48,92,3974,-5,4,911,1740,1851,2087,2224,2022,1798,1866,1987
47367,18248,-20408,15300,-17468,3800,-1293,78,18,12,46,93,3962,-1,6,911,1740,1851,2087,2224,2022,1798,1866,1987
48368,18240,-20412,15300,-17468,3800,-1036,80,22,10,70,92,3943,-8,-5,911,1740,1851,2087,2224,2022,1798,1866,1987
49369,18248,-20408,15300,-17468,3800,-1140,81,23,9,80,88,3941,-8,-7,911,1740,1851,2087,2224,2022,1798,1866,1987
50370,18252,-20408,15300,-17468,3800,-1089,82,19,9,74,70,3937,-7,0,911,1740,1851,2087,2224,2022,1798,1866,1987
51371,18252,-20408,15300,-17468,3800,-1088,80,16,9,58,81,3908,5,7,911,1740,1852,2088,2226,2023,1800,1867,1987
52372,18252,-20404,15300,-17468,3800,-1142,78,19,10,95,77,3957,3,4,911,1740,1852,2088,2226,2023,1800,1867,1987
53373,18252,-20404,15300,-17468,3800,-1091,77,19,11,97,76,3955,-6,5,910,1740,1852,2088,2226,2023,1800,1867,1987
54374,18260,-20416,15300,-17468,3800,-925,78,20,11,82,67,3939,-3,-3,911,1740,1852,2088,2226,2023,1800,1867,1987
55375,18248,-20412,15300,-17468,3800,-1129,79,19,11,42,78,3943,8,-6,911,1740,1852,2088,2226,2023,1800,1867,1987
56376,18252,-20408,15300,-17468,3800,-1132,81,18,12,66,74,3922,9,-7,911,1740,1852,2088,2226,2023,1800,1867,1987
57377,18248,-20412,15300,-17468,3800,-1026,83,18,12,60,82,3959,-8,1,911,1741,1851,2087,2225,2022,1800,1866,1989
58378,18256,-20420,15300,-17468,3800,-965,81,19,13,71,91,3947,-6,3,911,1741,1851,2087,2225,2022,1800,1866,1989
59379,18256,-20408,15300,-17468,3800,-1229,80,21,10,98,85,3974,-4,7,911,1741,1851,2087,2225,2022,1800,1866,1989
60381,18248,-20412,15300,-17468,3800,-1023,80,23,10,83,84,3963,2,4,911,1741,1851,2087,2225,2022,1800,1866,1989
61381,18264,-20408,15300,-17468,3800,-1127,81,22,11,84,82,3960,8,-1,911,1741,1851,2087,2225,2022,1800,1866,1989
62382,18252,-20416,15300,-17468,3800,-966,83,23,11,89,89,3973,8,-6,911,1740,1852,2087,2225,2023,1799,1863,1985
63383,18252,-20412,15300,-17468,3800,-1120,82,20,11,68,96,3937,9,-3,911,1740,1852,2087,2225,2023,1799,1863,1985
64384,18252,-20416,15300,-17468,3800,-1013,83,17,11,62,90,3951,8,7,911,1740,1852,2087,2225,2023,1799,1863,1985
65385,18248,-20416,15300,-17468,3800,-1062,82,19,14,75,88,3951,7,5,911,1740,1852,2087,2225,2023,1799,1863,1985
66386,18256,-20408,15300,-17468,3800,-1171,80,21,16,66,91,3984,4,-6,911,1740,1852,2087,2225,2023,1799,1863,1985
67387,18252,-20412,15300,-17468,3800,-1015,82,23,16,60,102,3962,1,-7,911,1740,1852,2087,2225,2023,1799,1863,1985
68388,18248,-20404,15300,-17468,3800,-1174,82,22,14,62,107,3932,6,-6,911,1740,1853,2087,2224,2023,1799,1866,1987
69389,18252,-20408,15300,-17468,3800,-1018,82,21,11,103,109,3942,0,2,911,1740,1853,2087,2224,2023,1799,1866,1987
70390,18252,-20412,15300,-17468,3800,-1012,80,21,12,85,98,3939,-9,5,910,1740,1853,2087,2224,2023,1799,1866,1987
71391,18244,-20412,15300,-17468,3800,-1061,80,17,15,85,124,3936,-8,8,911,1740,1853,2087,2224,2023,1799,1866,1987
72392,18256,-20412,15300,-17468,3800,-1060,79,18,13,49,114,3944,-10,1,911,1740,1853,2087,2224,2023,1799,1866,1987
73393,18256,-20412,15300,-17468,3800,-1058,80,21,11,41,107,3914,-7,-5,911,1740,1851,2086,2224,2021,1795,1863,1987
74394,18244,-20416,15300,-17468,3800,-1002,81,24,13,57,101,3926,1,-7,911,1740,1851,2086,2224,2021,1795,1863,1987
75395,18256,-20412,15300,-17468,3800,-1106,80,24,16,50,110,3963,10,-3,911,1740,1851,2086,2224,2021,1795,1863,1987
76396,18260,-20420,15300,-17468,3800,-945,81,22,17,45,121,3947,3,1,911,1740,1851,2086,2224,2021,1795,1863,1987
77397,18260,-20404,15300,-17468,3800,-1264,83,20,15,71,113,3945,-4,3,911,1740,1851,2086,2224,2021,1795,1863,1987
78398,18256,-20412,15300,-17468,3800,-953,83,20,16,94,106,3930,-8,7,911,1740,1851,2086,2224,2021,1795,1863,1987
79399,18244,-20416,15300,-17468,3800,-997,78,21,14,80,98,3929,-9,4,911,1740,1852,2086,2223,2022,1798,1864,1987
80400,18252,-20408,15300,-17468,3800,-1156,77,22,15,47,104,3936,-9,-2,911,1740,1852,2086,2223,2022,1798,1864,1987
81401,18252,-20404,15300,-17468,3800,-1109,81,21,15,47,93,3932,2,-7,911,1740,1852,2086,2223,2022,1798,1864,1987
82402,18248,-20412,15300,-17468,3800,-948,82,21,18,62,101,3915,10,-4,911,1740,1852,2086,2223,2022,1798,1864,1987
83403,18256,-20420,15300,-17468,3800,-937,82,24,16,44,100,3918,9,0,911,1740,1852,2086,2223,2022,1798,1864,1987
84404,18244,-20408,15300,-17468,3800,-1201,83,23,16,57,101,3965,8,6,911,1740,1851,2085,2223,2023,1801,1868,1988
85405,18260,-20416,15300,-17468,3800,-940,83,23,16,70,125,3972,-5,6,911,1740,1851,2085,2223,2023,1801,1868,1988
86406,18256,-20412,15300,-17468,3800,-1094,80,22,16,56,99,3932,-10,0,911,1740,1851,2085,2223,2023,1801,1868,1988
87407,18260,-20408,15300,-17468,3800,-1098,78,23,13,60,100,3954,3,-6,910,1740,1851,2085,2223,2023,1801,1868,1988
88408,18260,-20408,15300,-17468,3800,-1047,80,23,11,86,109,3955,8,-3,910,1740,1851,2085,2223,2023,1801,1868,1988
89409,18252,-20420,15300,-17468,3800,-880,80,21,11,68,114,3944,10,-6,911,1740,1851,2085,2223,2023,1801,1868,1988
90410,18244,-20412,15300,-17468,3800,-1139,80,20,13,69,117,3941,8,-4,911,1740,1851,2086,2223,2021,1798,1864,1987
91411,18244,-20420,15300,-17468,3800,-928,80,21,13,64,102,3942,0,-1,911,1740,1851,2086,2223,2021,1798,1864,1987
92412,18260,-20412,15300,-17468,3800,-1137,79,20,12,41,72,3930,-2,1,911,1740,1851,2086,2223,2021,1798,1864,1987
93413,18256,-20400,15300,-17468,3800,-1200,80,17,11,41,72,3927,-8,6,911,1740,1851,2086,2223,2021,1798,1864,1987
94414,18248,-20408,15300,-17468,3800,-940,79,18,10,55,93,3895,-7,2,911,1740,1851,2086,2223,2021,1798,1864,1987
95415,18256,-20412,15300,-17468,3800,-984,79,21,10,85,103,3938,-5,-4,911,1739,1852,2087,2224,2024,1800,1866,1988
96416,18256,-20408,15300,-17468,3800,-1088,79,23,9,72,90,3930,-2,-6,911,1739,1852,2087,2224,2024,1800,1866,1988
97417,18252,-20412,15300,-17468,3800,-981,79,22,10,41,71,3939,3,6,911,1739,1852,2087,2224,2024,1800,1866,1988
98418,18252,-20408,15300,-17468,3800,-1085,78,21,9,55,89,3957,1,5,911,1739,1852,2087,2224,2024,1800,1866,1988
99419,18248,-20404,15300,-17468,3800,-1089,76,21,7,67,89,3932,5,-5,911,1739,1852,2087,2224,2024,1800,1866,1988
100420,18264,-20408,15300,-17468,3800,-983,78,22,9,87,78,3937,9,-7,911,1739,1852,2087,2224,2024,1800,1866,1988
101421,18248,-20420,15300,-17468,3800,-867,79,25,7,75,92,3926,7,-2,911,1740,1852,2087,2224,2023,1800,1866,1988
102422,18252,-20424,15300,-17468,3800,-961,79,24,9,71,108,3925,10,6,911,1740,1852,2087,2224,2023,1800,1866,1988
103423,18256,-20416,15300,-17468,3800,-1120,78,22,10,60,121,3939,8,-2,911,1740,1852,2087,2224,2023,1800,1866,1988
104424,18260,-20416,15300,-17468,3800,-1019,79,20,10,65,92,3984,7,-6,911,1740,1852,2087,2224,2023,1800,1866,1988
105425,18256,-20408,15300,-17468,3800,-1128,78,19,12,59,81,3959,2,-2,910,1740,1852,2087,2224,2023,1800,1866,1988
106426,18252,-20416,15300,-17468,3800,-916,78,22,9,51,104,3927,-8,7,911,1742,1853,2088,2224,2022,1800,1866,1988
107427,18256,-20404,15300,-17468,3800,-1180,77,22,6,34,104,3929,-8,2,911,1742,1853,2088,2224,2022,1800,1866,1988
108428,18256,-20412,15300,-17468,3800,-919,75,21,7,63,79,3973,-9,-6,911,1742,1853,2088,2224,2022,1800,1866,1988
109429,18248,-20416,15300,-17468,3800,-963,75,21,10,70,81,3938,1,3,911,1742,1853,2088,2224,2022,1800,1866,1988
110430,18256,-20412,15300,-17468,3800,-1067,77,21,9,38,75,3932,9,7,911,1742,1853,2088,2224,2022,1800,1866,1988
111431,18248,-20408,15300,-17468,3800,-1071,78,20,8,60,76,3945,6,-4,911,1742,1853,2088,2224,2022,1800,1866,1988
112432,18256,-20424,15300,-17468,3800,-800,78,18,8,53,84,3946,1,-7,911,1741,1851,2087,2223,2023,1799,1866,1987
113433,18256,-20412,15300,-17468,3800,-1164,78,17,8,71,76,3944,-4,0,911,1741,1851,2087,2223,2023,1799,1866,1987
114434,18248,-20416,15300,-17468,3800,-957,81,16,10,75,51,3959,-10,7,911,1741,1851,2087,2223,2023,1799,1866,1987
115435,18256,-20412,15300,-17468,3800,-1061,80,17,11,73,64,3948,-3,3,911,1741,1851,2087,2223,2023,1799,1866,1987
116436,18252,-20408,15300,-17468,3800,-1065,78,20,12,63,70,3973,-7,-6,911,1741,1851,2087,2223,2023,1799,1866,1987
117437,18248,-20416,15300,-17468,3800,-904,79,20,14,71,79,3965,1,1,911,1740,1851,2087,2224,2023,1799,1867,1987
118438,18248,-20416,15300,-17468,3800,-1003,79,22,10,71,76,3949,9,7,911,1740,1851,2087,2224,2023,1799,1867,1987
119439,18256,-20400,15300,-17468,3800,-1221,80,22,8,45,77,3957,7,2,911,1740,1851,2087,2224,2023,1799,1867,1987
120440,18252,-20408,15300,-17468,3800,-911,78,20,9,61,82,3969,-7,-2,911,1740,1851,2087,2224,2023,1799,1867,1987
121441,18256,-20412,15300,-17468,3800,-955,79,20,12,72,80,3950,-8,5,911,1740,1851,2087,2224,2023,1799,1867,1987
122442,18272,-20404,15300,-17468,3800,-1113,81,23,12,81,78,3963,-8,7,910,1740,1851,2087,2224,2023,1799,1867,1987
123443,18252,-20412,15300,-17468,3800,-902,81,22,13,68,77,3955,-5,-6,911,1741,1852,2086,2224,2021,1798,1865,1987
124444,18252,-20416,15300,-17468,3800,-946,80,22,13,62,68,3899,6,-3,911,1741,1852,2086,2224,2021,1798,1865,1987
125445,18256,-20408,15300,-17468,3800,-1105,81,21,13,75,71,3928,7,6,911,1741,1852,2086,2224,2021,1798,1865,1987
126446,18248,-20408,15300,-17468,3800,-1004,81,20,12,45,76,3961,7,1,911,1741,1852,2086,2224,2021,1798,1865,1987
127447,18252,-20420,15300,-17468,3800,-838,82,18,15,39,100,3931,-4,-6,911,1741,1852,2086,2224,2021,1798,1865,1987
128448,18256,-20408,15300,-17468,3800,-1152,81,18,14,73,86,3964,-1,-6,911,1741,1852,2087,2223,2021,1798,1865,1987
129449,18252,-20428,15300,-17468,3800,-726,81,19,12,61,105,3977,-9,7,911,1741,1852,2087,2223,2021,1798,1865,1987
130450,18256,-20404,15300,-17468,3800,-1304,80,21,13,77,75,3962,-9,4,911,1741,1852,2087,2223,2021,1798,1865,1987
131451,18260,-20412,15300,-17468,3800,-893,80,22,14,81,100,3930,-8,-5,911,1741,1852,2087,2223,2021,1798,1865,1987
132452,18260,-20420,15300,-17468,3800,-882,83,21,14,94,111,3937,5,2,911,1741,1852,2087,2223,2021,1798,1865,1987
133453,18252,-20416,15300,-17468,3800,-1036,83,21,15,99,101,3937,5,7,911,1741,1852,2087,2223,2021,1798,1865,1987
134454,18248,-20408,15300,-17468,3800,-1095,83,22,15,71,99,3937,-3,3,911,1740,1851,2086,2225,2022,1798,1866,1987
135455,18256,-20404,15300,-17468,3800,-1049,83,24,14,55,106,3964,-9,-7,911,1740,1851,2086,2225,2022,1798,1866,1987
136456,18244,-20420,15300,-17468,3800,-778,82,24,14,46,101,3986,-6,-3,911,1740,1851,2086,2225,2022,1798,1866,1987
137457,18256,-20412,15300,-17468,3800,-1087,81,19,15,51,89,3927,1,3,911,1740,1851,2086,2225,2022,1798,1866,1987
138458,18252,-20424,15300,-17468,3800,-821,82,19,13,62,98,3908,8,7,910,1740,1851,2086,2225,2022,1798,1866,1987
139459,18256,-20420,15300,-17468,3800,-1024,84,23,13,53,103,3915,-2,8,910,1741,1851,2087,2223,2022,1798,1865,1987
140460,18240,-20404,15300,-17468,3800,-1193,82,25,11,38,111,3949,-2,4,911,1741,1851,2087,2223,2022,1798,1865,1987
141461,18244,-20416,15300,-17468,3800,-827,81,21,14,75,108,3943,-8,-7,911,1741,1851,2087,2223,2022,1798,1865,1987
142462,18252,-20420,15300,-17468,3800,-921,82,21,15,74,106,3867,-8,-3,911,1741,1851,2087,2223,2022,1798,1865,1987
143463,18256,-20408,15300,-17468,3800,-1135,83,22,13,64,122,3902,-7,4,911,1741,1851,2087,2223,2022,1798,1865,1987
144464,18248,-20416,15300,-17468,3800,-874,85,25,12,37,100,3905,-4,4,911,1742,1852,2087,2223,2022,1798,1865,1987
145465,18252,-20412,15300,-17468,3800,-1028,85,25,11,61,93,3888,2,-3,911,1742,1852,2086,2224,2022,1799,1865,1987
146466,18248,-20416,15300,-17468,3800,-922,83,24,11,57,113,3883,1,-7,911,1742,1852,2086,2224,2022,1799,1865,1987
147467,18252,-20416,15300,-17468,3800,-970,81,20,13,58,118,3920,10,5,911,1742,1852,2086,2224,2022,1799,1865,1987
148468,18244,-20416,15300,-17468,3800,-969,82,20,13,58,127,3932,4,5,911,1742,1852,2086,2224,2022,1799,1865,1987
149469,18240,-20412,15300,-17468,3800,-1023,82,21,16,77,138,3952,-3,-6,911,1742,1852,2086,2224,2022,1799,1865,1987
150470,18252,-20404,15300,-17468,3800,-1082,80,24,13,64,110,3996,-10,-1,911,1741,1851,2086,2223,2024,1800,1867,1989
151471,18252,-20416,15300,-17468,3800,-816,81,21,13,44,95,3984,0,7,911,1741,1851,2086,2223,2024,1800,1867,1989
152472,18256,-20408,15300,-17468,3800,-1075,80,22,13,44,100,3943,8,5,911,1741,1851,2086,2223,2024,1800,1867,1989
153473,18252,-20408,15300,-17468,3800,-974,81,22,13,20,125,3953,-7,-7,911,1741,1851,2086,2223,2024,1800,1867,1989
154474,18252,-20412,15300,-17468,3800,-918,83,21,12,50,91,3936,-9,-1,911,1741,1851,2086,2223,2024,1800,1867,1989
155475,18256,-20408,15300,-17468,3800,-1021,83,20,10,62,110,3968,-4,6,911,1740,1851,2087,2224,2023,1799,1863,1988
156476,18252,-20408,15300,-17468,3800,-970,80,20,11,54,101,3940,5,1,910,1740,1851,2087,2224,2023,1799,1863,1988
157477,18252,-20416,15300,-17468,3800,-859,79,19,11,28,95,3901,10,-7,911,1740,1851,2087,2224,2023,1799,1863,1988
158478,18252,-20420,15300,-17468,3800,-903,78,20,12,43,93,3939,10,-4,911,1740,1851,2087,2224,2023,1799,1863,1988
159479,18256,-20408,15300,-17468,3800,-1117,76,22,11,56,77,3921,2,6,911,1740,1851,2087,2224,2023,1799,1863,1988
160480,18248,-20408,15300,-17468,3800,-966,76,22,11,36,81,3913,-7,8,911,1740,1851,2087,2224,2023,1799,1863,1988
161481,18260,-20420,15300,-17468,3800,-800,78,23,10,24,89,3928,-6,5,911,1741,1852,2087,2223,2023,1799,1866,1988
162482,18248,-20408,15300,-17468,3800,-1114,76,22,10,31,88,3970,-8,-6,911,1741,1852,2087,2223,2023,1799,1866,1988
163483,18252,-20408,15300,-17468,3800,-963,76,18,12,54,95,3968,-9,-7,911,1741,1852,2087,2223,2023,1799,1866,1988
164484,18256,-20412,15300,-17468,3800,-906,79,18,11,53,81,3933,-4,-2,911,1741,1852,2087,2223,2023,1799,1866,1988
165485,18256,-20412,15300,-17468,3800,-955,79,21,9,68,90,3926,-9,-4,911,1741,1852,2087,2223,2023,1799,1866,1988
166486,18244,-20412,15300,-17468,3800,-954,75,21,7,61,113,3964,-7,6,911,1740,1851,2086,2223,2024,1801,1867,1989
167487,18252,-20412,15300,-17468,3800,-953,76,21,8,50,116,3973,-6,7,911,1740,1851,2086,2223,2024,1801,1867,1989
168488,18256,-20408,15300,-17468,3800,-1007,76,23,10,75,107,3976,-1,1,911,1740,1851,2086,2223,2024,1801,1867,1989
169489,18244,-20404,15300,-17468,3800,-1011,78,22,12,76,111,3987,10,-6,911,1740,1851,2086,2223,2024,1801,1867,1989
170490,18260,-20404,15300,-17468,3800,-960,78,19,11,75,86,3945,7,-7,911,1740,1851,2086,2223,2024,1801,1867,1989
171491,18252,-20416,15300,-17468,3800,-794,78,18,9,74,85,3915,-3,5,911,1740,1851,2086,2223,2024,1801,1867,1989
172492,18260,-20416,15300,-17468,3800,-942,78,20,11,57,100,3948,-9,7,910,1742,1852,2087,2223,2022,1798,1865,1987
173493,18252,-20408,15300,-17468,3800,-1051,75,18,13,55,94,3930,-8,7,911,1742,1852,2087,2223,2022,1798,1865,1987
174494,18256,-20404,15300,-17468,3800,-1005,76,19,13,63,98,3947,-7,-6,911,1742,1852,2087,2223,2022,1798,1865,1987
175495,18248,-20408,15300,-17468,3800,-899,78,20,10,57,75,3951,-2,-7,911,1742,1852,2087,2223,2022,1798,1865,1987
176496,18256,-20408,15300,-17468,3800,-948,78,20,9,48,82,3947,-3,0,911,1742,1852,2087,2223,2022,1798,1865,1987
177497,18252,-20412,15300,-17468,3800,-892,78,21,10,55,74,3929,1,7,911,1743,1853,2088,2225,2022,1799,1865,1985
178498,18248,-20408,15300,-17468,3800,-996,79,22,10,43,77,3939,8,3,911,1743,1853,2088,2225,2022,1799,1865,1985
179499,18260,-20408,15300,-17468,3800,-945,79,23,11,25,74,3953,10,-3,911,1743,1853,2088,2225,2022,1799,1865,1985
180500,18252,-20412,15300,-17468,3800,-888,79,21,10,92,82,3933,6,-7,911,1743,1853,2088,2225,2022,1799,1865,1985
181501,18256,-20416,15300,-17468,3800,-882,79,20,9,88,78,3912,-8,-1,911,1743,1853,2088,2225,2022,1799,1865,1985
182502,18256,-20416,15300,-17468,3800,-931,79,21,9,82,90,3940,-9,4,911,1743,1853,2088,2225,2022,1799,1865,1985
183503,18252,-20416,15300,-17468,3800,-930,80,22,11,62,82,3949,-8,6,911,1742,1852,2087,2225,2023,1800,1867,1988
184504,18256,-20408,15300,-17468,3800,-1039,79,20,11,71,117,3957,3,3,911,1742,1852,2087,2225,2023,1800,1867,1988
185505,18244,-20404,15300,-17468,3800,-993,77,18,13,76,95,3920,5,2,911,1742,1852,2087,2225,2023,1800,1867,1988
186506,18248,-20412,15300,-17468,3800,-832,79,20,12,60,96,3914,10,-5,911,1742,1852,2087,2225,2023,1800,1867,1988
187509,18248,-20408,15300,-17468,3800,-986,80,20,12,64,107,3906,8,-7,911,1742,1852,2087,2225,2023,1800,1867,1988
188508,18252,-20416,15300,-17468,3800,-825,81,20,10,63,96,3935,2,-7,911,1743,1851,2083,2221,2019,1797,1866,1988
189509,18248,-20420,15300,-17468,3800,-868,81,22,11,75,106,3948,-10,-6,910,1743,1851,2083,2221,2019,1797,1866,1988
190510,18248,-20408,15300,-17468,3800,-1082,81,21,11,87,102,3946,-4,-6,911,1743,1851,2083,2221,2019,1797,1866,1988
191511,18264,-20408,15300,-17468,3800,-931,81,21,12,71,90,3975,-8,-4,911,1743,1851,2083,2221,2019,1797,1866,1988
192512,18256,-20416,15300,-17468,3800,-820,79,19,12,75,89,3984,-1,6,911,1743,1851,2083,2221,2019,1797,1866,1988
193513,18248,-20412,15300,-17468,3800,-974,79,21,12,91,76,3965,8,7,911,1743,1851,2083,2221,2019,1797,1866,1988
194514,18252,-20416,15300,-17468,3800,-868,81,24,11,71,90,3929,10,6,911,1742,1852,2086,2222,2020,1797,1865,1985
195515,18256,-20420,15300,-17468,3800,-862,81,26,11,75,93,3893,2,-6,911,1742,1852,2086,2222,2020,1797,1865,1985
196516,18252,-20416,15300,-17468,3800,-966,82,25,10,80,108,3909,-7,-5,911,1742,1852,2086,2222,2020,1797,1865,1985
197517,18248,-20404,15300,-17468,3800,-1079,83,23,12,52,79,3923,-7,6,911,1742,1852,2086,2222,2020,1797,1865,1985
198518,18248,-20412,15300,-17468,3800,-818,82,18,14,50,84,3893,-6,-1,911,1742,1852,2086,2222,2020,1797,1865,1985
199519,18256,-20416,15300,-17468,3800,-862,81,20,12,68,68,3896,-8,-6,911,1742,1852,2088,2224,2024,1800,1865,1988
200520,18252,-20416,15300,-17468,3800,-911,81,25,11,79,85,3914,0,-6,911,1742,1852,2088,2224,2024,1800,1865,1988
201521,18256,-20404,15300,-17468,3800,-1075,82,24,12,62,92,3976,-6,2,911,1742,1852,2088,2224,2024,1800,1865,1988
202522,18260,-20412,15300,-17468,3800,-814,79,21,13,41,85,3976,-10,7,911,1742,1852,2088,2224,2024,1800,1865,1988
203523,18256,-20412,15300,-17468,3800,-913,80,20,16,60,78,3954,-9,7,911,1742,1852,2088,2224,2024,1800,1865,1988
204524,18240,-20408,15300,-17468,3800,-967,82,21,16,73,85,3923,-6,-3,911,1742,1852,2088,2224,2024,1800,1865,1988
205525,18256,-20412,15365,-17403,-3305,3800,81,20,15,65,98,3911,4,-6,911,1741,1850,2086,2223,2022,1798,1865,1987
206526,18256,-20420,15430,-17338,-3027,3800,82,21,12,35,96,3925,-4,309,911,1741,1850,2086,2223,2022,1798,1865,1987
207527,18240,-20384,15495,-17273,-2729,3774,80,28,16,50,106,3915,12,282,874,1741,1850,2086,2223,2022,1798,1865,1987
208528,18248,-20308,15560,-17208,-2961,3262,81,31,14,53,118,3880,13,244,878,1741,1850,2086,2223,2022,1798,1865,1987
209529,18256,-20196,15625,-17143,-2892,2755,73,4,6,25,21,3973,6,6,881,1741,1850,2086,2223,2022,1798,1865,1987
210530,18260,-19988,15690,-17078,-2769,1382,55,-12,-5,-248,43,4232,7,96,889,1744,1854,2088,2224,2023,1799,1867,1989
211531,18252,-19760,15755,-17013,-2531,934,62,-58,-11,-213,39,4152,13,125,894,1744,1854,2088,2224,2023,1799,1867,1989
212532,18256,-19544,15820,-16948,-2607,900,63,-108,-26,-250,-65,4405,0,132,905,1744,1854,2088,2224,2023,1799,1867,1989
213533,18256,-19316,15885,-16883,-2479,552,46,-114,-27,63,-58,4428,8,117,907,1744,1854,2088,2224,2023,1799,1867,1989
214534,18256,-19072,15950,-16818,-2400,135,55,-63,-51,652,-230,3774,19,141,908,1744,1854,2088,2224,2023,1799,1867,1989
215535,18252,-18832,16015,-16753,-2266,-28,46,-35,-72,810,9,3586,12,122,909,1744,1854,2088,2224,2023,1799,1867,1989
216536,18256,-18596,16080,-16688,-2293,-185,51,65,-78,838,-68,3656,8,139,910,1745,1859,2093,2229,2035,1811,1882,2008
217537,18248,-18340,16145,-16623,-2055,-668,43,184,-91,922,-37,3281,5,121,911,1745,1859,2093,2229,2035,1811,1882,2008
218538,18236,-18128,16210,-16558,-1912,-297,48,292,-106,359,-174,3525,13,117,910,1745,1859,2093,2229,2035,1811,1882,2008
219539,18248,-17908,16275,-16493,-2148,-585,57,311,-97,-11,-197,3236,-4,118,907,1745,1859,2093,2229,2035,1811,1882,2008
220540,18244,-17700,16340,-16428,-1864,-609,87,233,-70,133,54,3185,15,111,909,1745,1859,2093,2229,2035,1811,1882,2008
221541,18252,-17496,16405,-16363,-1945,-728,72,115,-30,-501,73,3569,2,112,907,1738,1846,2077,2217,2013,1791,1842,1953
222542,18264,-17328,16470,-16298,-1931,-404,22,33,-47,-920,112,3379,14,113,907,1738,1846,2077,2217,2013,1791,1842,1953
223543,18256,-17156,16535,-16233,-1593,-584,-35,-36,-56,-49,40,3183,-5,91,906,1738,1846,2077,2217,2013,1791,1842,1953
224544,18256,-16976,16600,-16168,-1614,-824,-45,-92,-52,209,29,3710,14,86,909,1738,1846,2077,2217,2013,1791,1842,1953
225545,18244,-16824,16665,-16103,-1371,-579,-32,-110,-58,-100,38,4030,9,92,908,1738,1846,2077,2217,2013,1791,1842,1953
226546,18244,-16684,16730,-16038,-1442,-521,0,-70,-81,-63,66,4383,3,82,906,1738,1846,2077,2217,2013,1791,1842,1953
227547,18256,-16564,16795,-15973,-1528,-338,27,-47,-120,654,-74,4416,-5,63,908,1695,1803,2030,2152,1986,1765,1829,1949
228548,18252,-16444,16860,-15908,-1245,-405,64,42,-167,735,-244,4598,-6,57,903,1695,1803,2030,2152,1986,1765,1829,1949
229549,18248,-16328,16925,-15843,-1160,-417,81,133,-204,977,-184,4341,9,61,910,1695,1803,2030,2152,1986,1765,1829,1949
230550,18244,-16228,16990,-15778,-1077,-259,86,231,-239,676,-223,4302,6,52,909,1695,1803,2030,2152,1986,1765,1829,1949
231551,18248,-16096,17055,-15713,-1103,-741,79,251,-264,548,-166,4011,11,61,909,1695,1803,2030,2152,1986,1765,1829,1949
232552,18248,-15992,17120,-15648,-974,-439,50,224,-306,341,-185,3810,12,58,903,1703,1821,2057,2202,2003,1788,1863,1985
233553,18248,-15916,17185,-15583,-895,-102,21,198,-330,140,-180,3899,-3,45,907,1703,1821,2057,2202,2003,1788,1863,1985
234554,18256,-15832,17250,-15518,-926,-225,-18,167,-315,234,-245,3521,-8,44,909,1703,1821,2057,2202,2003,1788,1863,1985
235555,18256,-15772,17315,-15453,-747,81,-42,149,-296,256,-233,3387,6,33,910,1703,1821,2057,2202,2003,1788,1863,1985
236556,18240,-15700,17380,-15388,-448,-78,-69,105,-281,-22,-250,3337,-1,31,907,1703,1821,2057,2202,2003,1788,1863,1985
237558,18240,-15632,17445,-15323,-570,-30,-85,106,-271,-249,-226,3321,-1,41,911,1703,1821,2057,2202,2003,1788,1863,1985
238558,18244,-15584,17510,-15258,-545,240,-98,110,-260,50,-253,3350,9,29,911,1768,1885,2122,2272,2056,1834,1907,2030
239559,18256,-15520,17575,-15193,-581,42,-93,111,-248,125,-272,3424,-7,28,911,1768,1885,2122,2272,2056,1834,1907,2030
240560,18252,-15468,17640,-15128,-297,208,-92,75,-248,25,-283,3780,9,28,907,1768,1885,2122,2272,2056,1834,1907,2030
241561,18248,-15428,17705,-15063,-213,388,-69,45,-265,78,-275,3960,12,23,910,1768,1885,2122,2272,2056,1834,1907,2030
242562,18260,-15360,17770,-14998,-349,34,-37,-3,-274,28,-237,4196,-1,36,910,1768,1885,2122,2272,2056,1834,1907,2030
243563,18252,-15324,17835,-14933,-10,470,-2,-10,-294,164,-250,4435,11,30,901,1752,1864,2091,2223,2052,1816,1883,2005
244564,18256,-15276,17900,-14868,-85,341,21,21,-324,386,-154,4446,0,19,910,1752,1864,2091,2223,2052,1816,1883,2005
245565,18240,-15228,17965,-14803,264,362,43,54,-356,395,-160,4482,12,24,909,1752,1864,2091,2223,2052,1816,1883,2005
246566,18240,-15192,18030,-14738,143,548,58,67,-395,141,-111,4398,4,31,908,1752,1864,2091,2223,2052,1816,1883,2005
247567,18240,-15156,18095,-14673,222,583,66,93,-429,137,-86,4595,-4,30,909,1752,1864,2091,2223,2052,1816,1883,2005
248568,18248,-15096,18160,-14608,191,289,66,110,-440,163,-55,4397,-5,22,908,1752,1864,2091,2223,2052,1816,1883,2005
249569,18256,-15040,18225,-14543,261,350,56,97,-441,-40,-11,4456,7,26,908,1728,1840,2062,2203,1998,1771,1848,1963
250570,18252,-15004,18290,-14478,495,636,39,68,-443,-233,20,4357,10,26,909,1728,1840,2062,2203,1998,1771,1848,1963
251571,18256,-14956,18355,-14413,469,507,13,22,-431,-333,7,4276,15,36,909,1728,1840,2062,2203,1998,1771,1848,1963
252572,18268,-14900,18420,-14348,434,418,-7,-10,-419,-154,-112,4125,5,31,906,1728,1840,2062,2203,1998,1771,1848,1963
253573,18264,-14836,18485,-14283,718,320,-32,-21,-416,-218,-145,4063,24,29,907,1728,1840,2062,2203,1998,1771,1848,1963
254574,18280,-14780,18550,-14218,529,431,-47,2,-392,-169,-199,4089,6,40,908,1759,1868,2099,2248,2000,1786,1863,1987
255575,18296,-14720,18615,-14153,589,388,-53,1,-360,-26,-255,3796,26,30,906,1759,1868,2099,2248,2000,1786,1863,1987
256576,18316,-14668,18680,-14088,594,504,-50,16,-344,-72,-319,3957,28,38,907,1759,1868,2099,2248,2000,1786,1863,1987
257577,18344,-14620,18745,-14023,539,574,-42,25,-328,-94,-447,3667,32,26,907,1759,1868,2099,2248,2000,1786,1863,1987
258578,18384,-14580,18810,-13958,420,705,-14,52,-309,-92,-450,3633,38,26,905,1759,1868,2099,2248,2000,1786,1863,1987
259579,18440,-14528,18875,-13893,231,571,15,64,-299,-10,-448,3658,37,25,907,1759,1868,2099,2248,2000,1786,1863,1987
260580,18500,-14480,18940,-13828,187,642,37,63,-299,-112,-466,3541,35,38,906,1779,1885,2126,2267,2048,1823,1887,2009
261581,18536,-14416,19005,-13763,523,444,93,-25,-271,-311,-162,3847,41,40,908,1779,1885,2126,2267,2048,1823,1887,2009
262582,18576,-14356,19070,-13698,504,500,112,-54,-256,-188,-52,4017,34,41,907,1779,1885,2126,2267,2048,1823,1887,2009
263583,18648,-14296,19135,-13633,95,506,122,-72,-245,-283,87,4111,32,37,907,1779,1885,2126,2267,2048,1823,1887,2009
264584,18696,-14252,19200,-13568,416,732,129,-72,-239,-223,66,3982,28,26,907,1779,1885,2126,2267,2048,1823,1887,2009
265585,18748,-14204,19265,-13503,382,703,131,-55,-240,-185,7,4015,34,30,909,1756,1855,2084,2225,2018,1789,1859,1971
266586,18804,-14144,19330,-13438,343,559,138,-31,-244,-128,51,3963,41,29,906,1756,1855,2084,2225,2018,1789,1859,1971
267587,18880,-14080,19395,-13373,80,511,140,-22,-240,-166,114,3967,36,42,906,1756,1855,2084,2225,2018,1789,1859,1971
268588,18944,-14020,19460,-13308,231,568,136,7,-241,-185,110,4098,35,42,907,1756,1855,2084,2225,2018,1789,1859,1971
269589,19008,-13972,19525,-13243,233,738,130,13,-225,-241,52,4164,34,41,909,1756,1855,2084,2225,2018,1789,1859,1971
270590,19064,-13916,19590,-13178,344,649,133,3,-199,-61,172,4212,36,32,908,1756,1855,2084,2225,2018,1789,1859,1971
271591,19112,-13856,19655,-13113,464,606,132,0,-164,-235,75,4189,28,41,907,1734,1836,2055,2198,1978,1754,1833,1948
272592,19188,-13788,19720,-13048,102,503,127,-7,-129,-413,-61,3971,42,41,907,1734,1836,2055,2198,1978,1754,1833,1948
273593,19236,-13720,19785,-12983,473,499,140,-17,-92,-301,-69,4240,45,46,907,1734,1836,2055,2198,1978,1754,1833,1948
274594,19300,-13660,19850,-12918,274,605,166,-31,-57,-244,-121,4028,40,33,908,1734,1836,2055,2198,1978,1754,1833,1948
275595,19384,-13596,19915,-12853,1,557,182,-19,-44,-205,-223,3825,48,42,907,1734,1836,2055,2198,1978,1754,1833,1948
276596,19436,-13544,19980,-12788,417,723,205,-11,-24,-268,-258,3833,49,42,908,1739,1843,2075,2219,2003,1782,1856,1986
277597,19496,-13464,20045,-12723,324,355,231,-44,-14,-149,-261,3688,40,43,908,1739,1843,2075,2219,2003,1782,1856,1986
278598,19568,-13388,20110,-12658,165,392,261,-85,1,-323,-229,3879,31,48,906,1739,1843,2075,2219,2003,1782,1856,1986
279599,19600,-13324,20175,-12593,705,544,290,-105,14,-380,-51,3853,31,42,909,1739,1843,2075,2219,2003,1782,1856,1986
280600,19692,-13248,20240,-12528,-78,380,305,-105,14,-28,22,3816,47,46,909,1739,1843,2075,2219,2003,1782,1856,1986
281601,19764,-13200,20305,-12463,165,751,302,-86,11,184,-19,3688,46,39,906,1739,1843,2075,2219,2003,1782,1856,1986
282602,19840,-13136,20370,-12398,101,553,281,-58,4,65,13,3631,46,33,908,1774,1880,2122,2264,2027,1802,1874,1999
283603,19896,-13056,20435,-12333,362,335,273,-54,-8,-13,81,3605,48,33,907,1774,1880,2122,2264,2027,1802,1874,1999
284604,19944,-12980,20500,-12268,483,372,269,-96,-4,-149,167,3698,45,46,908,1774,1880,2122,2264,2027,1802,1874,1999
285605,20024,-12912,20565,-12203,65,468,274,-133,1,-239,350,3956,44,34,909,1774,1880,2122,2264,2027,1802,1874,1999
286606,20080,-12852,20630,-12138,377,575,266,-140,6,-248,320,4069,48,29,908,1774,1880,2122,2264,2027,1802,1874,1999
287607,20152,-12784,20695,-12073,168,471,266,-121,18,24,277,4180,45,35,909,1786,1884,2114,2256,2016,1792,1864,1984
288608,20208,-12736,20760,-12008,379,742,256,-114,40,27,275,4113,31,32,907,1786,1884,2114,2256,2016,1792,1864,1984
289609,20280,-12668,20825,-11943,171,489,259,-99,61,-153,340,4402,32,30,909,1786,1884,2114,2256,2016,1792,1864,1984
290610,20344,-12612,20890,-11878,272,650,269,-158,80,-159,327,4291,39,33,906,1786,1884,2114,2256,2016,1792,1864,1984
291611,20396,-12556,20955,-11813,439,661,290,-194,106,-356,222,4375,39,42,908,1786,1884,2114,2256,2016,1792,1864,1984
292612,20468,-12496,21020,-11748,180,618,306,-160,98,-145,172,4488,34,40,907,1786,1884,2114,2256,2016,1792,1864,1984
293613,20536,-12432,21085,-11683,227,570,311,-112,98,212,42,4384,38,42,906,1739,1844,2068,2202,2017,1791,1859,1987
294614,20596,-12376,21150,-11618,333,681,326,-94,110,292,72,4162,32,31,908,1739,1844,2068,2202,2017,1791,1859,1987
295615,20660,-12308,21215,-11553,284,527,343,-130,118,40,49,4216,40,40,908,1739,1844,2068,2202,2017,1791,1859,1987
296616,20724,-12256,21280,-11488,286,743,344,-148,105,-285,23,4245,30,38,907,1739,1844,2068,2202,2017,1791,1859,1987
297617,20768,-12184,21345,-11423,562,485,359,-148,90,-111,70,4079,40,40,908,1739,1844,2068,2202,2017,1791,1859,1987
298618,20828,-12124,21410,-11358,368,642,350,-161,102,-17,37,4087,39,46,907,1722,1834,2076,2208,2036,1808,1872,2008
299619,20888,-12076,21475,-11293,374,812,345,-151,103,-95,159,3977,31,44,907,1722,1834,2076,2208,2036,1808,1872,2008
300620,20960,-12004,21540,-11228,216,505,318,-175,91,-126,215,3932,32,38,907,1722,1834,2076,2208,2036,1808,1872,2008
301621,21020,-11932,21605,-11163,373,496,296,-183,83,-89,331,3905,36,45,906,1722,1834,2076,2208,2036,1808,1872,2008
302622,21072,-11852,21670,-11098,488,378,267,-224,93,0,274,3717,30,35,908,1722,1834,2076,2208,2036,1808,1872,2008
303623,21140,-11792,21735,-11033,285,634,245,-259,76,7,278,3720,39,34,908,1722,1834,2076,2208,2036,1808,1872,2008
304624,21196,-11744,21800,-10968,446,806,206,-231,73,42,162,4102,47,32,908,1756,1868,2112,2248,2052,1822,1889,2021
305625,21232,-11660,21865,-10903,732,333,195,-198,73,228,166,3733,40,40,907,1756,1868,2112,2248,2052,1822,1889,2021
306626,21296,-11616,21930,-10838,383,858,174,-179,73,461,233,3974,45,37,905,1756,1868,2112,2248,2052,1822,1889,2021
307627,21364,-11544,21995,-10773,330,501,169,-174,77,32,149,3917,39,36,906,1756,1868,2112,2248,2052,1822,1889,2021
308628,21432,-11480,22060,-10708,326,602,161,-187,83,60,226,3877,38,43,905,1756,1868,2112,2248,2052,1822,1889,2021
309629,21492,-11424,22125,-10643,433,713,161,-189,92,93,261,4231,37,35,907,1753,1862,2099,2225,2058,1822,1885,2018
310630,21532,-11360,22190,-10578,714,615,156,-180,95,210,243,4151,34,38,907,1753,1862,2099,2225,2058,1822,1885,2018
311631,21608,-11280,22255,-10513,250,397,166,-167,107,249,171,4247,35,34,906,1753,1862,2099,2225,2058,1822,1885,2018
312632,21656,-11228,22320,-10448,621,763,173,-179,111,49,137,4230,35,37,905,1753,1862,2099,2225,2058,1822,1885,2018
313633,21732,-11172,22385,-10383,259,724,182,-200,107,-74,134,4172,46,31,908,1753,1862,2099,2225,2058,1822,1885,2018
314634,21792,-11104,22450,-10318,465,571,176,-217,107,-192,214,3970,36,45,905,1753,1862,2099,2225,2058,1822,1885,2018
315635,21856,-11060,22515,-10253,416,897,170,-253,117,-156,257,4060,46,35,907,1713,1822,2058,2183,2041,1804,1867,1996
316636,21928,-10988,22580,-10188,307,538,164,-262,118,-138,337,4216,35,30,907,1713,1822,2058,2183,2041,1804,1867,1996
317637,21972,-10920,22645,-10123,684,585,156,-277,115,-88,268,4007,44,33,905,1713,1822,2058,2183,2041,1804,1867,1996
318638,22040,-10860,22710,-10058,380,692,149,-273,111,87,310,4097,43,33,908,1713,1822,2058,2183,2041,1804,1867,1996
319639,22104,-10792,22775,-9993,432,588,123,-265,129,90,262,3888,49,41,906,1713,1822,2058,2183,2041,1804,1867,1996
320640,22156,-10732,22840,-9928,597,695,117,-259,129,56,221,3916,33,35,907,1712,1825,2063,2197,2026,1794,1862,1992
321641,22228,-10688,22905,-9863,340,921,102,-228,116,156,214,4074,41,43,907,1712,1825,2063,2197,2026,1794,1862,1992
322642,22276,-10588,22970,-9798,661,178,94,-183,115,148,86,3820,33,40,905,1712,1825,2063,2197,2026,1794,1862,1992
323643,22348,-10544,23035,-9733,352,903,82,-145,120,379,160,3837,46,41,905,1712,1825,2063,2197,2026,1794,1862,1992
324644,22420,-10484,23100,-9668,344,711,90,-108,129,359,147,3797,41,30,907,1712,1825,2063,2197,2026,1794,1862,1992
325645,22472,-10432,23165,-9603,610,826,84,-113,126,114,165,3486,46,29,904,1712,1825,2063,2197,2026,1794,1862,1992
326646,22516,-10368,23230,-9538,736,678,88,-122,121,-147,95,3800,32,26,906,1746,1857,2098,2234,2031,1801,1868,1995
327647,22576,-10312,23295,-9473,542,790,95,-94,113,-9,136,3857,42,29,904,1746,1857,2098,2234,2031,1801,1868,1995
328648,22636,-10276,23360,-9408,548,1075,91,-90,127,173,125,3538,32,35,905,1746,1857,2098,2234,2031,1801,1868,1995
329649,22696,-10216,23425,-9343,555,781,78,-109,141,-27,193,3588,35,35,905,1746,1857,2098,2234,2031,1801,1868,1995
330650,22784,-10152,23490,-9278,177,733,63,-144,153,-303,284,3781,41,40,903,1746,1857,2098,2234,2031,1801,1868,1995
331651,22808,-10116,23555,-9213,1027,1119,62,-156,156,-121,295,3766,42,24,905,1755,1861,2099,2238,2019,1793,1856,1977
332652,22880,-10056,23620,-9148,419,825,72,-168,173,57,275,3920,32,26,907,1755,1861,2099,2238,2019,1793,1856,1977
333653,22932,-9992,23685,-9083,686,777,72,-152,193,55,249,4030,36,32,900,1755,1861,2099,2238,2019,1793,1856,1977
334654,23024,-9944,23750,-9018,153,998,80,-115,211,45,174,3956,32,39,905,1755,1861,2099,2238,2019,1793,1856,1977
335655,23080,-9908,23815,-8953,614,1183,81,-81,222,253,249,4038,44,36,904,1755,1861,2099,2238,2019,1793,1856,1977
336656,23140,-9844,23880,-8888,571,835,91,-43,225,166,289,4127,30,38,905,1755,1861,2099,2238,2019,1793,1856,1977
337657,23200,-9812,23945,-8823,577,1276,103,-28,229,128,403,4165,32,37,901,1730,1832,2064,2200,2002,1773,1842,1965
338658,23272,-9764,24010,-8758,418,1097,113,-5,237,-59,412,3987,50,40,904,1730,1832,2064,2200,2002,1773,1842,1965
339659,23336,-9696,24075,-8693,520,844,116,-22,243,-49,450,3954,34,29,902,1730,1832,2064,2200,2002,1773,1842,1965
340660,23400,-9632,24140,-8628,522,895,128,-27,246,-180,575,4140,30,41,904,1730,1832,2064,2200,2002,1773,1842,1965
341661,23468,-9576,24205,-8563,468,1007,130,-36,240,-119,605,3977,49,31,905,1730,1832,2064,2200,2002,1773,1842,1965
342662,23528,-9532,24270,-8498,574,1183,142,-42,232,-23,633,3983,31,40,904,1717,1821,2047,2187,2009,1779,1858,1982
343663,23596,-9480,24335,-8433,472,1099,138,-43,233,-46,613,3930,46,25,903,1717,1821,2047,2187,2009,1779,1858,1982
344664,23660,-9420,24400,-8368,523,1006,134,-37,227,-12,747,3848,41,29,902,1717,1821,2047,2187,2009,1779,1858,1982
345665,23724,-9356,24465,-8303,524,957,136,-19,209,106,622,3851,48,36,903,1717,1821,2047,2187,2009,1779,1858,1982
346666,23760,-9300,24530,-8238,909,1069,145,7,198,40,713,4061,31,45,904,1717,1821,2047,2187,2009,1779,1858,1982
347667,23824,-9240,24595,-8173,562,1025,155,38,182,212,694,3943,32,46,904,1717,1821,2047,2187,2009,1779,1858,1982
348668,23900,-9164,24660,-8108,398,812,155,29,179,118,704,3950,37,48,901,1728,1839,2061,2203,2027,1795,1877,2005
349669,23968,-9112,24725,-8043,495,1128,158,25,175,-188,618,3778,46,41,903,1728,1839,2061,2203,2027,1795,1877,2005
350670,24024,-9056,24790,-7978,657,1089,158,9,166,55,717,3952,32,27,905,1728,1839,2061,2203,2027,1795,1877,2005
351671,24076,-9004,24855,-7913,722,1156,164,-6,158,46,705,3719,48,36,903,1728,1839,2061,2203,2027,1795,1877,2005
352672,24148,-8944,24920,-7848,464,1062,169,-30,160,-86,784,3954,50,35,902,1728,1839,2061,2203,2027,1795,1877,2005
353673,24188,-8884,24985,-7783,894,1068,176,-37,160,-76,713,3958,48,37,903,1743,1854,2074,2216,2033,1795,1879,2003
354674,24272,-8828,25050,-7718,322,1130,180,-29,143,-85,690,4027,51,28,901,1743,1854,2074,2216,2033,1795,1879,2003
355675,24328,-8760,25115,-7653,683,977,194,-26,132,7,637,4106,56,42,903,1743,1854,2074,2216,2033,1795,1879,2003
356676,24400,-8704,25180,-7588,475,1139,206,-50,128,87,553,4136,38,29,903,1743,1854,2074,2216,2033,1795,1879,2003
357677,24460,-8668,25245,-7523,632,1424,224,-52,120,110,550,4249,46,39,903,1743,1854,2074,2216,2033,1795,1879,2003
358678,24536,-8612,25310,-7458,418,1186,237,-77,113,97,574,4123,33,33,900,1743,1854,2074,2216,2033,1795,1879,2003
359679,24592,-8548,25375,-7393,679,1087,255,-101,112,62,491,4327,51,29,901,1719,1834,2048,2184,2026,1790,1872,1994
360680,24660,-8496,25440,-7328,526,1253,264,-105,126,58,373,4169,32,39,902,1719,1834,2048,2184,2026,1790,1872,1994
361681,24736,-8436,25505,-7263,413,1160,282,-80,116,301,438,4386,40,31,901,1719,1834,2048,2184,2026,1790,1872,1994
362682,24796,-8372,25570,-7198,619,1112,307,-69,101,422,299,4344,41,34,903,1719,1834,2048,2184,2026,1790,1872,1994
363683,24860,-8324,25635,-7133,571,1333,335,-82,101,387,279,4245,27,31,902,1719,1834,2048,2184,2026,1790,1872,1994
364684,24912,-8252,25700,-7068,737,1025,347,-93,99,310,226,4086,38,28,901,1721,1831,2057,2201,2027,1798,1876,1998
365685,24964,-8192,25765,-7003,753,1182,370,-107,92,303,317,4283,31,31,902,1721,1831,2057,2201,2027,1798,1876,1998
366686,25048,-8140,25830,-6938,330,1298,384,-124,92,281,301,4101,47,43,901,1721,1831,2057,2201,2027,1798,1876,1998
367687,25108,-8092,25895,-6873,637,1370,389,-143,94,229,261,4116,38,40,902,1721,1831,2057,2201,2027,1798,1876,1998
368688,25172,-8012,25960,-6808,588,951,393,-153,94,209,291,4150,36,33,900,1721,1831,2057,2201,2027,1798,1876,1998
369689,25236,-7944,26025,-6743,590,1098,398,-174,101,270,329,4127,39,41,903,1721,1831,2057,2201,2027,1798,1876,1998
370690,25296,-7884,26090,-6678,646,1205,402,-196,95,242,311,4091,32,38,902,1750,1861,2093,2247,2026,1805,1879,1993
371691,25340,-7812,26155,-6613,872,1046,404,-206,89,359,245,4155,30,48,901,1750,1861,2093,2247,2026,1805,1879,1993
372692,25416,-7756,26220,-6548,459,1258,409,-220,75,389,228,4182,48,37,901,1750,1861,2093,2247,2026,1805,1879,1993
373693,25468,-7680,26285,-6483,775,995,418,-220,67,151,133,4218,52,41,901,1750,1861,2093,2247,2026,1805,1879,1993
374694,25516,-7612,26350,-6418,847,1092,420,-209,44,387,103,4433,48,41,902,1750,1861,2093,2247,2026,1805,1879,1993
375695,25572,-7548,26415,-6353,758,1143,426,-185,33,322,-54,4384,40,47,901,1776,1888,2122,2272,2017,1796,1866,1987
376696,25644,-7472,26480,-6288,549,981,434,-190,29,324,-49,4045,51,44,901,1776,1888,2122,2272,2017,1796,1866,1987
377697,25708,-7404,26545,-6223,651,1077,446,-214,22,62,-106,3975,45,37,903,1776,1888,2122,2272,2017,1796,1866,1987
378698,25776,-7352,26610,-6158,598,1294,473,-211,-2,160,23,4226,54,42,902,1776,1888,2122,2272,2017,1796,1866,1987
379699,25848,-7272,26675,-6093,539,926,498,-226,-16,211,-138,4010,51,38,901,1776,1888,2122,2272,2017,1796,1866,1987
380700,25920,-7240,26740,-6028,531,1566,524,-222,-34,313,-41,4278,37,42,904,1774,1882,2118,2253,2013,1782,1856,1984
381701,25984,-7152,26805,-5963,633,839,524,-207,-38,174,-13,4215,34,35,899,1774,1882,2118,2253,2013,1782,1856,1984
382702,26052,-7088,26870,-5898,579,1140,540,-171,-59,295,209,4338,37,40,904,1774,1882,2118,2253,2013,1782,1856,1984
383703,26104,-7036,26935,-5833,796,1307,546,-153,-61,377,200,4314,39,35,902,1774,1882,2118,2253,2013,1782,1856,1984
384704,26188,-6992,27000,-5768,373,1433,558,-155,-68,463,280,4105,33,32,900,1774,1882,2118,2253,2013,1782,1856,1984
385705,26244,-6936,27065,-5703,734,1295,556,-143,-78,205,279,4434,37,39,901,1774,1882,2118,2253,2013,1782,1856,1984
386706,26304,-6904,27130,-5638,690,1635,574,-109,-88,340,380,4242,39,40,900,1751,1862,2085,2218,2001,1771,1852,1976
387707,26368,-6828,27195,-5573,642,1072,582,-84,-90,439,432,4245,46,38,897,1751,1862,2085,2218,2001,1771,1852,1976
388708,26428,-6780,27260,-5508,698,1443,596,-83,-94,299,511,4217,50,44,902,1751,1862,2085,2218,2001,1771,1852,1976
389709,26488,-6708,27325,-5443,704,1136,604,-116,-90,203,434,4053,47,33,898,1751,1862,2085,2218,2001,1771,1852,1976
390710,26556,-6640,27390,-5378,602,1182,620,-154,-87,305,354,4019,51,29,901,1751,1862,2085,2218,2001,1771,1852,1976
391711,26612,-6612,27455,-5313,763,1728,638,-183,-92,-98,275,3979,46,27,901,1735,1843,2072,2217,2021,1791,1863,1989
392712,26668,-6532,27520,-5248,774,1060,642,-193,-106,103,272,3976,42,38,895,1735,1843,2072,2217,2021,1791,1863,1989
393713,26720,-6476,27585,-5183,840,1372,663,-198,-111,475,217,3983,38,35,901,1735,1843,2072,2217,2021,1791,1863,1989
394714,26800,-6420,27650,-5118,472,1383,667,-223,-101,252,146,3844,38,32,899,1735,1843,2072,2217,2021,1791,1863,1989
395715,26872,-6368,27715,-5053,564,1450,672,-251,-100,125,60,3712,36,43,900,1735,1843,2072,2217,2021,1791,1863,1989
396716,26932,-6316,27780,-4988,721,1466,676,-271,-103,202,83,3789,46,41,900,1735,1843,2072,2217,2021,1791,1863,1989
397717,27016,-6252,27845,-4923,397,1318,684,-261,-101,297,162,3919,33,32,898,1747,1854,2095,2236,2028,1800,1866,1997
398718,27072,-6208,27910,-4858,758,1593,688,-244,-99,495,165,3984,47,42,901,1747,1854,2095,2236,2028,1800,1866,1997
399719,27132,-6144,27975,-4793,716,1346,688,-237,-99,413,47,3754,41,38,898,1747,1854,2095,2236,2028,1800,1866,1997
400720,27204,-6096,28040,-4728,557,1566,685,-228,-98,246,257,4055,35,33,900,1747,1854,2095,2236,2028,1800,1866,1997
401721,27264,-6020,28105,-4663,713,1204,673,-209,-91,152,138,3938,45,41,899,1747,1854,2095,2236,2028,1800,1866,1997
402722,27336,-5972,28170,-4598,556,1575,660,-195,-99,296,215,4000,46,43,901,1752,1860,2094,2224,2020,1782,1852,1987
403723,27392,-5888,28235,-4533,767,1103,633,-193,-94,225,238,4072,44,42,898,1752,1860,2094,2224,2020,1782,1852,1987
404724,27452,-5808,28300,-4468,723,1134,616,-204,-74,44,319,4079,36,37,901,1752,1860,2094,2224,2020,1782,1852,1987
405725,27524,-5748,28365,-4403,564,1391,593,-214,-61,-35,245,3911,30,37,901,1752,1860,2094,2224,2020,1782,1852,1987
406726,27576,-5696,28430,-4338,831,1507,576,-230,-68,-92,258,3857,35,41,900,1752,1860,2094,2224,2020,1782,1852,1987
407727,27644,-5624,28495,-4273,627,1250,547,-261,-67,-131,282,3918,31,27,898,1752,1860,2094,2224,2020,1782,1852,1987
408728,27708,-5588,28560,-4208,679,1735,545,-276,-68,139,417,4012,35,27,900,1728,1837,2069,2194,2026,1789,1861,2002
409729,27748,-5528,28625,-4143,1010,1442,539,-287,-55,-32,234,3946,32,34,896,1728,1837,2069,2194,2026,1789,1861,2002
410730,27820,-5464,28690,-4078,602,1393,534,-309,-53,-158,406,4063,40,28,895,1728,1837,2069,2194,2026,1789,1861,2002
411731,27896,-5404,28755,-4013,538,1450,526,-307,-39,-50,348,4052,46,42,900,1728,1837,2069,2194,2026,1789,1861,2002
412734,27952,-5352,28820,-3948,800,1566,535,-311,-33,183,277,3842,42,26,900,1728,1837,2069,2194,2026,1789,1861,2002
413733,27988,-5304,28885,-3883,1085,1638,538,-308,-36,161,397,4062,31,29,897,1703,1818,2047,2166,2062,1817,1887,2032
414734,28060,-5236,28950,-3818,627,1384,542,-301,-30,273,373,3939,32,40,895,1703,1818,2047,2166,2062,1817,1887,2032
415735,28124,-5204,29015,-3753,729,1876,539,-292,-9,216,256,3952,56,31,899,1703,1818,2047,2166,2062,1817,1887,2032
416736,28180,-5140,29080,-3688,840,1477,531,-287,10,189,287,3809,47,34,895,1703,1818,2047,2166,2062,1817,1887,2032
417737,28248,-5088,29145,-3623,686,1644,515,-298,29,7,248,3664,54,34,898,1703,1818,2047,2166,2062,1817,1887,2032
418738,28316,-5008,29210,-3558,684,1277,514,-307,38,71,305,3755,44,33,897,1703,1818,2047,2166,2062,1817,1887,2032
419739,28372,-4956,29275,-3493,845,1642,502,-328,38,152,352,3699,34,32,900,1713,1826,2067,2193,2062,1818,1883,2023
420740,28444,-4888,29340,-3428,636,1440,487,-356,41,85,327,3686,40,45,896,1713,1826,2067,2193,2062,1818,1883,2023
421741,28504,-4844,29405,-3363,793,1765,453,-385,61,-51,324,3721,36,44,899,1713,1826,2067,2193,2062,1818,1883,2023
422742,28564,-4784,29470,-3298,799,1572,431,-399,81,-140,278,3910,34,45,895,1713,1826,2067,2193,2062,1818,1883,2023
423743,28628,-4708,29535,-3233,751,1359,392,-412,82,-63,371,3868,53,45,897,1713,1826,2067,2193,2062,1818,1883,2023
424744,28708,-4672,29600,-3168,533,1895,367,-416,88,43,352,3908,40,47,899,1730,1836,2079,2204,2030,1792,1855,1990
425745,28780,-4584,29665,-3103,625,1217,341,-424,90,-20,359,4038,49,43,895,1730,1836,2079,2204,2030,1792,1855,1990
426746,28860,-4540,29730,-3038,507,1794,327,-426,93,-83,279,3914,42,38,900,1730,1836,2079,2204,2030,1792,1855,1990
427747,28916,-4448,29795,-2973,818,1162,310,-427,89,-40,456,4161,37,28,896,1730,1836,2079,2204,2030,1792,1855,1990
428748,28960,-4388,29860,-2908,994,1568,308,-419,101,-128,441,4072,46,33,900,1730,1836,2079,2204,2030,1792,1855,1990
429749,29032,-4336,29925,-2843,636,1685,323,-407,92,307,448,4169,35,29,895,1730,1836,2079,2204,2030,1792,1855,1990
430750,29100,-4268,29990,-2778,683,1481,334,-400,81,-87,420,4092,34,29,897,1724,1832,2068,2186,2021,1783,1853,1995
431751,29148,-4212,30055,-2713,954,1643,335,-404,81,-199,454,4164,41,30,898,1724,1832,2068,2186,2021,1783,1853,1995
432752,29204,-4160,30120,-2648,866,1709,334,-395,91,-61,518,3980,47,41,895,1724,1832,2068,2186,2021,1783,1853,1995
433753,29260,-4100,30185,-2583,877,1616,339,-418,101,42,641,3980,33,37,895,1724,1832,2068,2186,2021,1783,1853,1995
434754,29296,-4044,30250,-2518,1162,1678,353,-429,118,-1,465,4072,42,28,896,1724,1832,2068,2186,2021,1783,1853,1995
435755,29352,-3976,30315,-2453,924,1525,360,-449,148,-259,432,3879,46,36,893,1723,1837,2074,2201,2033,1796,1868,2006
436756,29412,-3936,30380,-2388,880,1906,362,-472,163,-259,577,3815,50,46,896,1723,1837,2074,2201,2033,1796,1868,2006
437757,29492,-3880,30445,-2323,612,1717,364,-491,192,-178,454,3792,47,31,893,1723,1837,2074,2201,2033,1796,1868,2006
438758,29564,-3820,30510,-2258,704,1674,361,-507,212,-32,485,3665,36,43,897,1723,1837,2074,2201,2033,1796,1868,2006
439759,29632,-3748,30575,-2193,751,1517,364,-516,229,-128,584,3802,41,31,895,1723,1837,2074,2201,2033,1796,1868,2006
440760,29700,-3672,30640,-2128,747,1453,358,-521,228,43,737,3978,48,47,898,1723,1837,2074,2201,2033,1796,1868,2006
441761,29756,-3616,30705,-2063,909,1715,348,-524,235,259,735,4105,35,30,898,1747,1859,2095,2227,2030,1795,1868,2000
442762,29828,-3568,30770,-1998,700,1836,328,-540,248,280,655,3898,42,38,895,1747,1859,2095,2227,2030,1795,1868,2000
443763,29888,-3500,30835,-1933,857,1583,306,-540,241,142,715,4239,45,46,895,1747,1859,2095,2227,2030,1795,1868,2000
444764,29936,-3452,30900,-1868,1028,1854,305,-534,234,173,621,4124,46,33,895,1747,1859,2095,2227,2030,1795,1868,2000
445765,30008,-3368,30965,-1803,720,1382,301,-539,227,244,625,4241,48,36,893,1747,1859,2095,2227,2030,1795,1868,2000
446766,30056,-3324,31030,-1738,1041,1909,302,-546,220,233,504,4263,34,48,899,1752,1854,2091,2215,2017,1783,1854,1996
447767,30116,-3248,31095,-1673,898,1495,312,-584,219,-33,418,4175,28,46,891,1752,1854,2091,2215,2017,1783,1854,1996
448768,30172,-3168,31160,-1608,959,1428,319,-616,224,-124,454,4218,51,40,897,1752,1854,2091,2215,2017,1783,1854,1996
449769,30256,-3112,31225,-1543,586,1739,330,-637,245,-129,301,4259,50,51,897,1752,1854,2091,2215,2017,1783,1854,1996
450770,30312,-3024,31290,-1478,947,1312,356,-645,255,94,396,4215,53,36,896,1752,1854,2091,2215,2017,1783,1854,1996
451771,30372,-2956,31355,-1413,903,1559,381,-651,273,22,422,4268,31,46,898,1752,1854,2091,2215,2017,1783,1854,1996
452772,30428,-2884,31420,-1348,965,1501,405,-647,292,-22,621,4306,32,40,895,1734,1845,2087,2204,2039,1799,1866,2011
453773,30488,-2836,31485,-1283,922,1822,408,-651,309,48,519,4177,49,47,895,1734,1845,2087,2204,2039,1799,1866,2011
454774,30548,-2772,31684,-1084,1778,2474,412,-646,327,168,625,4340,32,35,894,1734,1845,2087,2204,2039,1799,1866,2011
455775,30600,-2704,31749,-1019,1895,2421,399,-630,362,54,714,4161,48,34,882,1734,1845,2087,2204,2039,1799,1866,2011
456776,30680,-2612,31814,-954,1527,2089,383,-627,394,175,839,4256,60,52,881,1734,1845,2087,2204,2039,1799,1866,2011
457777,30764,-2536,31879,-889,1455,2276,378,-619,431,83,688,4307,56,50,888,1750,1865,2104,2232,2042,1804,1878,2017
458778,30856,-2440,31944,-824,1322,1989,375,-635,467,155,676,4013,56,54,887,1750,1865,2104,2232,2042,1804,1878,2017
459779,30940,-2332,32009,-759,1399,1788,377,-648,487,-191,885,4352,61,56,890,1750,1865,2104,2232,2042,1804,1878,2017
460780,31032,-2232,32074,-694,1266,1845,385,-649,496,35,902,4391,78,67,892,1750,1865,2104,2232,2042,1804,1878,2017
461781,31124,-2136,32139,-629,1234,1858,397,-657,500,362,806,4661,73,65,892,1750,1865,2104,2232,2042,1804,1878,2017
462782,31268,-2028,32204,-564,488,1656,395,-696,511,234,629,4340,88,71,892,1750,1865,2104,2232,2042,1804,1878,2017
463783,31388,-1940,32269,-499,721,1879,411,-714,515,24,752,4764,89,67,899,1762,1872,2110,2242,2052,1812,1880,2017
464784,31492,-1836,32334,-434,874,1631,447,-713,496,195,782,4798,72,55,895,1762,1872,2110,2242,2052,1812,1880,2017
465785,31620,-1728,32399,-369,497,1529,462,-724,493,370,730,4939,77,70,897,1762,1872,2110,2242,2052,1812,1880,2017
466786,31720,-1608,32464,-304,805,1312,498,-697,477,607,952,5163,79,61,900,1762,1872,2110,2242,2052,1812,1880,2017
467787,31824,-1492,32529,-239,707,1301,550,-681,487,470,862,5034,68,51,899,1762,1872,2110,2242,2052,1812,1880,2017
468788,31908,-1400,32594,-174,935,1568,596,-700,474,640,983,4865,68,61,900,1768,1875,2123,2253,2051,1811,1878,2019
469789,31992,-1316,32659,-109,912,1646,628,-702,450,342,862,5162,62,57,897,1768,1875,2123,2253,2051,1811,1878,2019
470790,32072,-1224,32724,-44,943,1513,650,-685,416,295,926,5302,58,58,896,1768,1875,2123,2253,2051,1811,1878,2019
471791,32184,-1132,32789,21,486,1481,656,-662,432,381,806,4858,59,59,897,1768,1875,2123,2253,2051,1811,1878,2019
472792,32272,-1052,32854,86,759,1613,657,-636,457,328,929,4831,60,46,900,1768,1875,2123,2253,2051,1811,1878,2019
473793,32336,-980,32919,151,1060,1705,650,-628,478,-43,1136,4796,43,44,897,1768,1875,2123,2253,2051,1811,1878,2019
474794,32428,-900,32984,216,677,1587,651,-623,479,83,1254,4601,60,53,894,1806,1919,2171,2315,2039,1814,1887,2022
475795,32516,-840,33049,281,699,1844,641,-638,489,260,1241,4540,44,46,898,1806,1919,2171,2315,2039,1814,1887,2022
476796,32592,-764,33114,346,836,1630,637,-626,497,176,1304,4631,45,37,895,1806,1919,2171,2315,2039,1814,1887,2022
477797,32656,-688,33179,411,988,1617,620,-611,497,-5,1294,4390,59,45,896,1806,1919,2171,2315,2039,1814,1887,2022
478798,32752,-628,33244,476,550,1824,618,-589,509,150,1272,4529,59,51,895,1806,1919,2171,2315,2039,1814,1887,2022
479799,32796,-540,33309,541,1226,1446,619,-586,516,364,1263,4308,53,51,896,1834,1948,2194,2328,2050,1822,1887,2024
480800,32864,-492,33374,606,922,1968,632,-589,513,31,1233,4442,49,39,895,1834,1948,2194,2328,2050,1822,1887,2024
481801,32940,-412,33439,671,809,1550,648,-581,496,85,1180,4551,40,45,893,1834,1948,2194,2328,2050,1822,1887,2024
482802,33012,-300,33504,736,851,1092,691,-589,465,474,1110,4845,56,43,897,1834,1948,2194,2328,2050,1822,1887,2024
483803,33080,-216,33569,801,897,1420,795,-682,485,1474,651,4695,38,45,901,1834,1948,2194,2328,2050,1822,1887,2024
484804,33136,-140,33634,866,1058,1507,855,-723,509,-1754,171,5391,46,54,898,1834,1948,2194,2328,2050,1822,1887,2024
485805,33200,-56,33699,931,960,1384,812,-562,351,-2088,1159,6365,54,44,895,1767,1874,2122,2236,2052,1810,1862,2004
486806,33284,16,33764,996,686,1526,830,-421,396,2240,986,4475,52,54,897,1767,1874,2122,2236,2052,1810,1862,2004
487807,33344,92,33829,1061,994,1462,865,-463,444,2321,1036,4459,37,52,898,1767,1874,2122,2236,2052,1810,1862,2004
488808,33424,184,33894,1126,725,1230,835,-440,360,-614,1350,4731,46,37,896,1767,1874,2122,2236,2052,1810,1862,2004
489809,33492,260,33959,1191,872,1417,818,-351,285,-728,1769,4941,34,53,900,1767,1874,2122,2236,2052,1810,1862,2004
490810,33552,328,34024,1256,978,1513,788,-397,254,1062,1468,3296,33,38,898,1730,1836,2082,2206,2038,1809,1873,2009
491811,33624,392,34089,1321,819,1566,754,-368,255,613,1523,4485,50,39,897,1730,1836,2082,2206,2038,1809,1873,2009
492812,33684,464,34154,1386,975,1457,714,-315,276,-73,1553,4243,50,43,898,1730,1836,2082,2206,2038,1809,1873,2009
493813,33728,532,34219,1451,1202,1503,688,-313,259,300,1403,3530,44,53,897,1730,1836,2082,2206,2038,1809,1873,2009
494814,33804,616,34284,1516,788,1281,701,-338,244,20,1404,3869,43,53,895,1730,1836,2082,2206,2038,1809,1873,2009
495815,33884,676,34349,1581,720,1587,710,-377,226,28,1205,3716,44,55,899,1730,1836,2082,2206,2038,1809,1873,2009
496816,33956,760,34414,1646,812,1264,740,-433,245,-192,1028,3736,38,46,897,1732,1842,2091,2217,2061,1827,1880,2023
497817,34028,836,34479,1711,803,1352,736,-442,255,-96,1145,3768,53,56,899,1732,1842,2091,2217,2061,1827,1880,2023
498818,34100,904,34544,1776,795,1448,733,-392,267,210,1082,3745,36,56,900,1732,1842,2091,2217,2061,1827,1880,2023
499819,34156,988,34609,1841,1006,1225,720,-370,275,231,1061,3504,46,45,899,1732,1842,2091,2217,2061,1827,1880,2023
500820,34208,1076,34674,1906,1072,1148,709,-388,257,11,1077,3723,38,61,899,1732,1842,2091,2217,2061,1827,1880,2023
501821,34296,1184,34739,1971,594,845,707,-362,247,129,1012,4144,40,63,898,1714,1833,2086,2187,2044,1800,1850,1999
502822,34372,1252,34804,2036,731,1342,726,-340,251,814,898,3535,45,62,904,1714,1833,2086,2187,2044,1800,1850,1999
503823,34444,1352,34869,2101,772,900,722,-326,236,302,994,3888,50,54,900,1714,1833,2086,2187,2044,1800,1850,1999
504824,34508,1428,34934,2166,875,1186,628,-211,162,-163,1176,3541,53,57,903,1714,1833,2086,2187,2044,1800,1850,1999
505825,34572,1500,34999,2231,876,1228,486,-72,105,234,1339,3467,36,46,900,1714,1833,2086,2187,2044,1800,1850,1999
506826,34636,1588,35064,2296,877,1001,366,-21,110,576,1236,3111,53,56,900,1714,1833,2086,2187,2044,1800,1850,1999
507827,34724,1664,35129,2361,549,1137,322,-52,114,188,1244,3411,42,59,901,1698,1814,2056,2155,2004,1767,1826,1975
508828,34792,1744,35194,2426,795,1069,346,-126,88,-59,1194,3330,50,43,902,1698,1814,2056,2155,2004,1767,1826,1975
509829,34872,1832,35259,2491,627,941,389,-225,41,-155,1328,3168,55,39,902,1698,1814,2056,2155,2004,1767,1826,1975
510830,34952,1912,35324,2556,609,1024,431,-298,9,-39,1309,2955,49,50,903,1698,1814,2056,2155,2004,1767,1826,1975
511831,35016,1992,35389,2621,811,1005,447,-340,-4,123,1306,3273,39,54,902,1698,1814,2056,2155,2004,1767,1826,1975
512832,35076,2064,35454,2686,867,1097,444,-338,-7,369,1270,3223,41,42,901,1644,1753,1997,2099,2034,1792,1842,1989
513833,35148,2156,35519,2751,708,814,424,-327,7,506,1335,3127,39,47,901,1644,1753,1997,2099,2034,1792,1842,1989
514834,35232,2232,35584,2816,535,1001,419,-292,12,445,1330,3125,42,58,904,1644,1753,1997,2099,2034,1792,1842,1989
515835,35296,2292,35649,2881,786,1207,420,-269,16,514,1373,2997,55,56,903,1644,1753,1997,2099,2034,1792,1842,1989
516836,35376,2368,35714,2946,568,994,433,-254,0,700,1408,2926,50,45,901,1644,1753,1997,2099,2034,1792,1842,1989
517837,35448,2460,35779,3011,660,761,428,-290,-1,442,1429,2897,38,55,904,1644,1753,1997,2099,2034,1792,1842,1989
518838,35520,2540,35844,3076,652,893,425,-293,10,220,1453,2992,47,43,904,1644,1763,2003,2112,2013,1775,1831,1971
519839,35596,2636,35909,3141,589,656,414,-289,41,546,1361,2613,49,45,904,1644,1763,2003,2112,2013,1775,1831,1971
520840,35664,2700,35974,3206,685,1057,408,-295,46,621,1436,2712,54,52,905,1644,1763,2003,2112,2013,1775,1831,1971
521841,35724,2776,36039,3271,791,894,375,-335,33,55,1340,2379,35,46,902,1644,1763,2003,2112,2013,1775,1831,1971
522842,35804,2832,36104,3336,523,1155,349,-353,26,15,1429,2858,46,34,903,1644,1763,2003,2112,2013,1775,1831,1971
523843,35880,2912,36169,3401,559,836,295,-377,25,422,1242,2366,36,33,902,1686,1804,2042,2155,1963,1729,1794,1931
524844,35960,2976,36234,3466,491,1039,271,-388,22,300,1191,2573,43,46,905,1686,1804,2042,2155,1963,1729,1794,1931
525845,36016,3044,36299,3531,802,985,247,-408,18,283,1250,2552,31,40,903,1686,1804,2042,2155,1963,1729,1794,1931
526846,36080,3092,36364,3596,703,1256,230,-436,-14,340,1112,2549,44,45,902,1686,1804,2042,2155,1963,1729,1794,1931
527847,36148,3152,36429,3661,651,1112,228,-454,-21,254,1074,2709,42,46,901,1686,1804,2042,2155,1963,1729,1794,1931
528848,36224,3224,36494,3726,537,953,230,-473,-28,384,979,2590,53,51,902,1686,1804,2042,2155,1963,1729,1794,1931
529849,36296,3304,36559,3791,579,835,235,-454,-45,468,1081,2972,41,38,903,1699,1812,2045,2141,1946,1714,1779,1924
530850,36376,3360,36624,3856,460,1147,243,-431,-39,553,1036,2636,39,39,904,1699,1812,2045,2141,1946,1714,1779,1924
531851,36436,3436,36689,3921,716,884,259,-418,-36,733,1161,2781,33,41,903,1699,1812,2045,2141,1946,1714,1779,1924
532852,36516,3504,36754,3986,448,980,261,-419,-36,458,1206,2645,49,43,904,1699,1812,2045,2141,1946,1714,1779,1924
533853,36580,3600,36819,4051,649,592,273,-423,-36,465,1336,2654,42,50,904,1699,1812,2045,2141,1946,1714,1779,1924
534854,36644,3664,36884,4116,650,993,281,-412,-20,548,1382,2741,46,59,905,1667,1781,2011,2108,1962,1734,1799,1933
535855,36724,3748,36949,4181,432,721,294,-404,-9,785,1451,2601,52,47,903,1667,1781,2011,2108,1962,1734,1799,1933
536856,36776,3828,37014,4246,798,753,290,-414,0,473,1503,2814,49,46,906,1667,1781,2011,2108,1962,1734,1799,1933
537857,36856,3932,37079,4311,430,405,280,-429,25,321,1587,2480,32,45,904,1667,1781,2011,2108,1962,1734,1799,1933
538858,36936,4004,37144,4376,412,797,293,-425,60,607,1597,2704,38,43,907,1667,1781,2011,2108,1962,1734,1799,1933
539859,36992,4076,37209,4441,723,788,301,-448,80,648,1519,2435,32,41,906,1667,1781,2011,2108,1962,1734,1799,1933
540860,37068,4160,37274,4506,460,615,298,-473,83,360,1447,2585,35,45,904,1651,1760,1991,2107,1982,1755,1815,1945
541861,37124,4248,37339,4571,721,537,274,-488,104,270,1452,2707,35,53,906,1651,1760,1991,2107,1982,1755,1815,1945
542862,37200,4308,37404,4636,458,894,260,-478,121,602,1362,2707,48,54,905,1651,1760,1991,2107,1982,1755,1815,1945
543863,37264,4392,37469,4701,609,571,238,-451,142,787,1218,2805,36,43,905,1651,1760,1991,2107,1982,1755,1815,1945
544864,37340,4468,37534,4766,445,657,249,-436,149,622,1073,2628,43,53,906,1651,1760,1991,2107,1982,1755,1815,1945
545865,37404,4548,37599,4831,597,589,233,-445,158,392,1067,2736,38,44,906,1659,1770,2013,2123,1993,1759,1807,1951
546866,37480,4624,37664,4896,433,626,239,-427,151,469,1027,2852,49,54,905,1659,1770,2013,2123,1993,1759,1807,1951
547867,37524,4700,37729,4961,859,612,236,-395,157,498,958,2731,48,44,907,1659,1770,2013,2123,1993,1759,1807,1951
548868,37604,4764,37794,5026,390,763,237,-347,176,691,1043,2880,34,39,904,1659,1770,2013,2123,1993,1759,1807,1951
549869,37680,4856,37859,5091,427,380,214,-259,203,500,1136,2912,51,54,906,1659,1770,2013,2123,1993,1759,1807,1951
550870,37740,4944,37924,5156,633,402,232,-109,217,1039,382,2759,36,47,908,1659,1770,2013,2123,1993,1759,1807,1951
551871,37808,5020,37989,5221,529,539,276,-44,111,2424,129,1866,34,43,907,1673,1786,2036,2136,1991,1753,1803,1939
552872,37872,5108,38054,5286,582,362,214,-225,117,-577,1081,2708,46,49,906,1673,1786,2036,2136,1991,1753,1803,1939
553873,37944,5188,38119,5351,473,443,126,-79,152,-277,1230,3364,33,55,907,1673,1786,2036,2136,1991,1753,1803,1939
554874,38024,5268,38184,5416,355,425,42,-10,196,1414,967,1773,36,54,907,1673,1786,2036,2136,1991,1753,1803,1939
555875,38088,5344,38249,5481,556,462,-80,-90,202,477,1162,3325,44,48,908,1673,1786,2036,2136,1991,1753,1803,1939
556876,38172,5428,38314,5546,283,339,-153,-29,209,-244,966,2837,35,46,907,1675,1787,2023,2138,1974,1748,1809,1940
557877,38248,5508,38379,5611,369,370,-210,33,248,533,1465,3027,51,45,909,1675,1787,2023,2138,1974,1748,1809,1940
558878,38320,5588,38444,5676,411,352,-263,35,289,967,1110,2837,48,51,908,1675,1787,2023,2138,1974,1748,1809,1940
559879,38392,5656,38509,5741,402,498,-295,95,309,896,1007,3255,34,46,908,1675,1787,2023,2138,1974,1748,1809,1940
560880,38472,5740,38574,5806,284,275,-324,172,335,701,1059,3407,32,56,908,1675,1787,2023,2138,1974,1748,1809,1940
561881,38532,5824,38639,5871,540,252,-345,269,368,946,1102,3249,49,56,909,1675,1787,2023,2138,1974,1748,1809,1940
562882,38580,5908,38704,5936,711,229,-345,339,394,1008,859,3192,48,49,907,1626,1736,1973,2074,2058,1821,1865,2016
563883,38660,5964,38769,6001,293,590,-356,368,398,818,707,3282,37,46,905,1626,1736,1973,2074,2058,1821,1865,2016
564884,38740,6040,38834,6066,274,326,-368,395,392,787,813,3222,39,58,907,1626,1736,1973,2074,2058,1821,1865,2016
565885,38800,6124,38899,6131,530,203,-377,405,397,788,727,2977,42,47,909,1626,1736,1973,2074,2058,1821,1865,2016
566886,38872,6204,38964,6196,372,235,-396,420,399,491,574,2999,49,55,908,1626,1736,1973,2074,2058,1821,1865,2016
567887,38932,6280,39029,6261,528,271,-411,422,391,615,646,2795,52,58,908,1591,1711,1975,2075,2130,1874,1896,2048
568888,39012,6368,39094,6326,260,93,-451,439,399,680,618,2887,35,54,908,1591,1711,1975,2075,2130,1874,1896,2048
569889,39088,6460,39159,6391,296,10,-513,437,424,728,655,2550,33,46,909,1591,1711,1975,2075,2130,1874,1896,2048
570890,39152,6528,39224,6456,447,307,-577,439,439,977,835,2681,51,46,910,1591,1711,1975,2075,2130,1874,1896,2048
571891,39236,6616,39289,6521,174,29,-646,480,444,821,691,2811,51,46,908,1591,1711,1975,2075,2130,1874,1896,2048
572892,39296,6700,39354,6586,480,55,-744,543,458,775,893,3058,41,42,910,1591,1711,1975,2075,2130,1874,1896,2048
573893,39372,6796,39419,6651,267,-133,-873,621,476,1161,847,3063,44,50,909,1635,1757,2018,2119,2074,1819,1858,2002
574894,39452,6860,39484,6716,199,269,-1000,720,501,1218,917,3240,44,44,909,1635,1757,2018,2119,2074,1819,1858,2002
575895,39516,6956,39549,6781,400,-169,-1140,812,519,1212,878,3313,50,40,909,1635,1757,2018,2119,2074,1819,1858,2002
576896,39580,7028,39614,6846,401,122,-1256,919,531,1109,756,3553,34,40,909,1635,1757,2018,2119,2074,1819,1858,2002
577897,39656,7112,39679,6911,238,-51,-1365,982,537,872,699,3388,47,45,909,1635,1757,2018,2119,2074,1819,1858,2002
578898,39756,7220,39744,6976,-105,-404,-1452,1020,568,779,588,3604,42,39,910,1658,1775,2018,2110,2046,1802,1852,2008
579899,39820,7348,39809,7041,346,-731,-1505,1057,606,830,643,3650,34,50,906,1658,1775,2018,2110,2046,1802,1852,2008
580900,39884,7444,39874,7106,347,-369,-1516,1027,635,619,598,3525,42,31,905,1658,1775,2018,2110,2046,1802,1852,2008
581901,39956,7508,39939,7171,239,32,-1503,979,638,288,397,3562,39,41,908,1658,1775,2018,2110,2046,1802,1852,2008
582902,40032,7556,40004,7236,175,253,-1488,869,623,5,212,3720,36,26,910,1658,1775,2018,2110,2046,1802,1852,2008
583903,40080,7612,40069,7301,546,164,-1477,762,637,107,84,3696,30,26,909,1658,1775,2018,2110,2046,1802,1852,2008
584904,40168,7660,40134,7366,18,285,-1445,708,665,696,524,3797,39,29,908,1601,1721,1986,2073,2118,1860,1896,2058
585905,40220,7724,40199,7431,484,86,-1414,691,714,1076,481,3572,32,33,910,1601,1721,1986,2073,2118,1860,1896,2058
586906,40300,7776,40264,7496,116,251,-1374,693,731,1284,680,3666,45,36,909,1601,1721,1986,2073,2118,1860,1896,2058
587910,40384,7844,40329,7561,42,47,-1359,698,722,1167,791,3713,51,33,909,1601,1721,1986,2073,2118,1860,1896,2058
588908,40452,7932,40394,7626,239,-231,-1385,730,717,1180,807,3639,48,37,910,1601,1721,1986,2073,2118,1860,1896,2058
589909,40520,7972,40459,7691,235,399,-1420,809,741,1644,983,3956,45,33,909,1652,1788,2037,2148,2096,1840,1902,2035
590910,40604,8048,40524,7756,12,-64,-1466,875,772,1763,1000,3756,35,32,908,1652,1788,2037,2148,2096,1840,1902,2035
591911,40664,8084,40589,7821,318,471,-1528,884,784,1279,982,3819,45,43,910,1652,1788,2037,2148,2096,1840,1902,2035
592912,40736,8148,40654,7886,159,123,-1582,868,786,1090,925,3916,30,40,908,1652,1788,2037,2148,2096,1840,1902,2035
593913,40812,8224,40719,7951,96,-41,-1631,826,806,1033,920,3924,48,37,910,1652,1788,2037,2148,2096,1840,1902,2035
594914,40880,8280,40784,8016,192,220,-1641,780,813,997,710,3906,44,36,911,1769,1895,2120,2257,2007,1776,1855,2035
595915,40952,8352,40849,8081,134,11,-1642,705,819,785,502,3984,46,43,910,1769,1895,2120,2257,2007,1776,1855,1973
596916,41024,8420,40914,8146,125,57,-1658,623,824,403,276,4117,39,45,910,1769,1895,2120,2257,2007,1776,1855,1973
597917,41096,8480,40979,8211,117,163,-1652,535,839,260,99,4307,36,46,910,1769,1895,2120,2257,2007,1776,1855,1973
598918,41168,8548,41044,8276,108,59,-1603,478,862,406,-19,4416,46,40,910,1769,1895,2120,2257,2007,1776,1855,1973
599919,41232,8628,41109,8341,209,-109,-1551,413,883,457,-121,4564,49,36,910,1769,1895,2120,2257,2007,1776,1855,1973
600920,41316,8696,41174,8406,-64,37,-1480,365,899,432,-276,4806,46,50,910,1804,1927,2155,2275,1993,1767,1842,1973
601921,41384,8764,41239,8471,132,34,-1397,341,910,533,-280,4892,51,45,911,1804,1927,2155,2275,1993,1767,1842,1973
602922,41440,8832,41304,8536,293,30,-1307,315,919,647,-209,4949,51,38,910,1804,1927,2155,2275,1993,1767,1842,1973
603923,41524,8920,41369,8601,-80,-248,-1225,315,929,683,-73,5015,45,50,910,1804,1927,2155,2275,1993,1767,1842,1973
604924,41612,8992,41434,8666,-158,-57,-1156,333,948,875,-9,4881,51,53,908,1804,1927,2155,2275,1993,1767,1842,1973
605925,41724,9072,41499,8731,-515,-176,-1101,350,967,922,81,4778,40,40,904,1813,1939,2163,2295,1992,1773,1864,1977
606926,41808,9148,41564,8796,-189,-139,-1058,362,980,802,316,4739,45,51,910,1813,1939,2163,2295,1992,1773,1864,1977
607927,41872,9216,41629,8861,62,-43,-1023,366,996,737,524,4474,47,41,903,1813,1939,2163,2295,1992,1773,1864,1977
608928,41944,9296,41694,8926,-47,-211,-1001,344,987,617,632,4243,48,54,910,1813,1939,2163,2295,1992,1773,1864,1977
609929,42012,9388,41759,8991,0,-394,-986,329,980,669,701,4384,49,45,910,1813,1939,2163,2295,1992,1773,1864,1977
610930,42096,9480,41824,9056,-224,-427,-972,291,987,640,717,4131,41,38,909,1813,1939,2163,2295,1992,1773,1864,1977
611931,42156,9556,41889,9121,83,-242,-950,262,978,636,717,4226,30,47,900,1865,1974,2173,2352,1992,1785,1880,1965
612932,42212,9624,41954,9186,144,-145,-925,219,956,501,515,4179,42,37,910,1865,1974,2173,2352,1992,1785,1880,1965
613933,42288,9704,42019,9251,-120,-313,-878,191,952,362,193,4280,48,46,910,1865,1974,2173,2352,1992,1785,1880,1965
614934,42360,9776,42084,9316,-78,-222,-825,163,960,487,-19,4283,29,38,905,1865,1974,2173,2352,1992,1785,1880,1965
615935,42432,9852,42149,9381,-87,-285,-761,155,966,464,-241,4410,46,39,909,1865,1974,2173,2352,1992,1785,1880,1965
616936,42500,9920,42214,9446,-42,-189,-696,163,977,273,-435,4467,38,36,907,1841,1935,2153,2314,1993,1789,1854,1952
617937,42568,10000,42279,9511,-45,-358,-623,193,993,292,-574,4595,35,49,910,1841,1935,2153,2314,1993,1789,1854,1952
618938,42640,10080,42344,9576,-104,-377,-554,220,1003,340,-849,4546,39,43,909,1841,1935,2153,2314,1993,1789,1854,1952
619939,42704,10156,42409,9641,-3,-340,-478,246,1006,311,-925,4727,31,39,906,1841,1935,2153,2314,1993,1789,1854,1952
620940,42780,10244,42474,9706,-166,-518,-425,269,1016,177,-760,4471,31,42,909,1841,1935,2153,2314,1993,1789,1854,1952
621941,42856,10308,42539,9771,-179,-217,-383,292,1006,45,-697,4589,32,37,902,1841,1935,2153,2314,1993,1789,1854,1952
622942,42928,10380,42604,9836,-138,-327,-358,328,984,38,-604,4475,47,37,903,1782,1881,2116,2261,1972,1764,1825,1895
623943,42992,10448,42669,9901,-37,-280,-353,355,981,34,-577,4079,39,35,904,1782,1881,2116,2261,1972,1764,1825,1895
624944,43060,10512,42734,9966,-91,-229,-370,355,977,21,-363,4123,41,36,909,1782,1881,2116,2261,1972,1764,1825,1895
625945,43132,10592,42799,10031,-150,-447,-402,336,940,-405,-31,3710,34,46,907,1782,1881,2116,2261,1972,1764,1825,1895
626946,43212,10644,42864,10096,-268,-81,-417,373,897,-173,-90,4073,31,42,903,1782,1881,2116,2261,1972,1764,1825,1895
627947,43268,10728,42929,10161,43,-506,-448,407,895,110,-317,3880,48,43,910,1773,1880,2101,2260,1971,1771,1850,1947
628948,43340,10788,42994,10226,-166,-200,-469,397,899,46,-70,3612,42,36,909,1773,1880,2101,2260,1971,1771,1850,1947
629949,43420,10876,43059,10291,-284,-578,-506,391,899,-220,-178,3103,45,34,903,1773,1880,2101,2260,1971,1771,1850,1947
630950,43496,10956,43124,10356,-248,-496,-513,423,898,-64,-259,3564,45,46,908,1773,1880,2101,2260,1971,1771,1850,1947
631951,43568,11008,43189,10421,-206,-131,-501,443,895,243,-435,3503,44,44,907,1773,1880,2101,2260,1971,1771,1850,1947
632952,43636,11064,43254,10486,-161,-170,-461,450,880,105,-442,3399,43,29,905,1773,1880,2101,2260,1971,1771,1850,1947
633953,43724,11120,43319,10551,-439,-159,-419,468,872,200,-567,3552,45,43,904,1754,1855,2067,2210,2031,1823,1889,1999
634954,43776,11180,43384,10616,27,-203,-385,467,871,460,-682,3551,49,42,910,1754,1855,2067,2210,2031,1823,1889,1999
635955,43868,11248,43449,10681,-506,-307,-346,434,854,201,-667,3155,48,27,910,1754,1855,2067,2210,2031,1823,1889,1999
636956,43944,11312,43514,10746,-319,-256,-320,425,819,-281,-853,3389,43,31,903,1754,1855,2067,2210,2031,1823,1889,1999
637958,44020,11348,43579,10811,-333,129,-304,435,786,-3,-795,3435,50,32,910,1754,1855,2067,2210,2031,1823,1889,1999
638958,44096,11428,43644,10876,-347,-439,-303,407,772,-169,-918,3213,36,37,910,1700,1807,2031,2162,2027,1798,1860,1967
639959,44180,11492,43709,10941,-470,-238,-314,316,764,-570,-819,3233,50,32,909,1700,1807,2031,2162,2027,1798,1860,1967
640960,44244,11564,43774,11006,-219,-348,-315,237,752,-726,-750,3333,36,41,907,1700,1807,2031,2162,2027,1798,1860,1967
641961,44324,11640,43839,11071,-438,-411,-323,170,734,-366,-815,3247,45,42,909,1700,1807,2031,2162,2027,1798,1860,1967
642962,44396,11696,43904,11136,-346,-150,-329,109,709,-255,-759,3270,44,34,909,1700,1807,2031,2162,2027,1798,1860,1967
643963,44484,11752,43969,11201,-575,-139,-344,131,693,-299,-647,3601,46,38,910,1700,1807,2031,2162,2027,1798,1860,1967
644964,44560,11808,44034,11266,-439,-128,-387,152,704,-220,-661,3173,41,34,907,1698,1807,2023,2160,1956,1733,1818,1923
645965,44624,11872,44099,11331,-287,-228,-434,175,720,135,-660,3242,49,33,910,1698,1807,2023,2160,1956,1733,1818,1923
646966,44704,11952,44164,11396,-506,-446,-460,194,721,161,-608,3155,48,44,910,1698,1807,2023,2160,1956,1733,1818,1923
647967,44788,11996,44229,11461,-579,29,-487,176,708,-41,-721,2991,34,30,909,1698,1807,2023,2160,1956,1733,1818,1923
648968,44868,12056,44294,11526,-548,-164,-531,129,680,-32,-953,3028,34,37,909,1698,1807,2023,2160,1956,1733,1818,1923
649969,44944,12112,44359,11591,-512,-103,-577,51,637,-386,-1016,2838,41,40,910,1729,1840,2047,2188,1952,1747,1830,1940
650970,45008,12152,44424,11656,-360,126,-629,-26,603,-618,-1052,2907,50,28,910,1729,1840,2047,2188,1952,1747,1830,1940
651971,45080,12224,44489,11721,-469,-283,-666,-96,603,-525,-1086,2879,54,29,910,1729,1840,2047,2188,1952,1747,1830,1940
652972,45164,12284,44554,11786,-642,-126,-685,-200,614,-530,-1089,2801,46,34,909,1729,1840,2047,2188,1952,1747,1830,1940
653973,45244,12336,44619,11851,-611,-11,-665,-303,598,-924,-1232,3066,44,35,910,1729,1840,2047,2188,1952,1747,1830,1940
654974,45312,12392,44684,11916,-465,-50,-629,-394,564,-709,-1092,3223,45,39,911,1729,1840,2047,2188,1952,1747,1830,1940
655975,45384,12432,44749,11981,-524,180,-586,-439,538,-250,-1182,3307,42,42,911,1723,1818,2044,2174,2017,1802,1879,1999
656976,45464,12508,44814,12046,-642,-283,-549,-455,513,188,-1015,3451,34,30,910,1723,1818,2044,2174,2017,1802,1879,1999
657977,45556,12568,44879,12111,-826,-77,-519,-455,493,-64,-832,3488,50,38,910,1723,1818,2044,2174,2017,1802,1879,1999
658978,45628,12636,44944,12176,-584,-181,-512,-482,463,-180,-746,3392,44,46,911,1723,1818,2044,2174,2017,1802,1879,1999
659979,45708,12692,45009,12241,-703,-20,-506,-506,432,-317,-653,3670,45,45,910,1723,1818,2044,2174,2017,1802,1879,1999
660980,45788,12760,45074,12306,-721,-174,-517,-558,419,-288,-677,3727,50,36,910,1709,1824,2036,2176,2031,1810,1881,1994
661981,45860,12820,45139,12371,-631,-69,-539,-582,410,-159,-693,3743,43,40,910,1709,1824,2036,2176,2031,1810,1881,1994
662982,45972,12884,45204,12436,-1188,-117,-570,-629,414,-220,-812,3476,40,32,910,1709,1824,2036,2176,2031,1810,1881,1994
663983,46040,12948,45269,12501,-642,-116,-596,-672,417,-142,-829,3574,50,42,910,1709,1824,2036,2176,2031,1810,1881,1994
664984,46136,13012,45334,12566,-1031,-115,-625,-730,408,-385,-903,3495,50,46,910,1709,1824,2036,2176,2031,1810,1881,1994
665985,46220,13064,45399,12631,-904,51,-665,-772,390,-719,-975,3612,48,43,909,1709,1824,2036,2176,2031,1810,1881,1994
666986,46296,13128,45464,12696,-817,-98,-714,-781,377,-519,-1247,3850,52,46,911,1736,1850,2064,2216,2000,1793,1867,1967
667987,46384,13184,45529,12761,-996,12,-762,-766,364,-37,-1216,3937,34,34,910,1736,1850,2064,2216,2000,1793,1867,1967
668988,46444,13256,45594,12826,-640,-196,-803,-777,352,-203,-1353,3787,52,45,910,1736,1850,2064,2216,2000,1793,1867,1967
669989,46520,13316,45659,12891,-854,-40,-817,-779,317,-433,-1458,4155,33,34,910,1736,1850,2064,2216,2000,1793,1867,1967
670990,46608,13376,45724,12956,-1033,-34,-836,-806,269,-462,-1417,4203,48,45,911,1736,1850,2064,2216,2000,1793,1867,1967
671991,46672,13452,45789,13021,-731,-248,-861,-775,232,-500,-1921,4329,51,32,910,1754,1859,2088,2235,2023,1818,1882,1994
672992,46744,13500,45854,13086,-840,123,-863,-682,193,218,-1774,4942,53,44,910,1754,1859,2088,2235,2023,1818,1882,1994
673993,46808,13576,45919,13151,-740,-241,-842,-625,181,-55,-1905,4918,37,44,910,1754,1859,2088,2235,2023,1818,1882,1994
674994,46872,13620,45984,13216,-738,184,-793,-546,140,-187,-1703,5679,32,33,910,1754,1859,2088,2235,2023,1818,1882,1994
675995,46932,13672,46049,13281,-682,100,-732,-456,112,-257,-1999,5600,33,43,910,1754,1859,2088,2235,2023,1818,1882,1994
676996,47020,13724,46114,13346,-1061,116,-663,-345,72,461,-1642,6078,44,43,911,1754,1859,2088,2235,2023,1818,1882,1994
677997,47092,13796,46179,13411,-870,-142,-619,-274,38,163,-1414,5727,31,34,905,1746,1854,2095,2263,2081,1875,1940,2029
678998,47140,13848,46244,13476,-549,123,-572,-227,15,-233,-1483,5656,37,34,910,1746,1854,2095,2263,2081,1875,1940,2029
679999,47216,13924,46309,13541,-914,-191,-544,-212,-8,-293,-1068,5321,29,44,910,1746,1854,2095,2263,2081,1875,1940,2029
681000,47284,13976,46374,13606,-817,125,-546,-255,-29,-712,-1219,4719,27,32,910,1746,1854,2095,2263,2081,1875,1940,2029
682001,47332,14048,46439,13671,-547,-134,-548,-260,-50,-674,-1215,5046,43,29,904,1746,1854,2095,2263,2081,1875,1940,2029
683002,47380,14100,46504,13736,-527,132,-575,-246,-66,-581,-947,4561,25,30,909,1832,1940,2188,2432,2092,1908,1983,2016
684003,47436,14164,46569,13801,-616,-17,-605,-212,-72,-177,-1028,4619,24,30,910,1832,1940,2188,2432,2092,1908,1983,2016
685004,47488,14244,46634,13866,-550,-235,-641,-175,-78,-55,-1185,4689,28,30,911,1832,1940,2188,2432,2092,1908,1983,2016
686005,47528,14300,46699,13931,-370,76,-663,-131,-108,-180,-1018,5068,21,43,907,1832,1940,2188,2432,2092,1908,1983,2016
687006,47572,14368,46764,13996,-395,-79,-679,-132,-110,-265,-1368,4641,24,42,910,1832,1940,2188,2432,2092,1908,1983,2016
688007,47628,14416,46829,14061,-534,192,-689,-110,-119,67,-1680,4977,32,40,910,1832,1940,2188,2432,2092,1908,1983,2016
689008,47664,14484,46894,14126,-249,-62,-669,-69,-116,396,-2017,5184,31,41,910,1922,2009,2240,2469,2045,1863,1931,2001
690009,47712,14556,46959,14191,-379,-120,-632,-1,-109,457,-2310,5383,34,39,908,1922,2009,2240,2469,2045,1863,1931,2001
691010,47740,14620,47024,14256,-84,-19,-564,92,-133,614,-2514,5804,21,42,910,1922,2009,2240,2469,2045,1863,1931,2001
692011,47796,14680,47089,14321,-423,37,-487,199,-153,808,-2769,6180,17,32,911,1922,2009,2240,2469,2045,1863,1931,2001
693012,47828,14728,47154,14386,-83,208,-385,274,-172,938,-2667,6185,29,26,911,1922,2009,2240,2469,2045,1863,1931,2001
694013,47856,14768,47219,14451,12,338,-294,287,-192,740,-2704,6110,13,31,908,1845,1928,2160,2316,2006,1799,1870,1964
695014,47884,14808,47284,14516,57,368,-223,264,-227,418,-2481,5882,27,33,910,1845,1928,2160,2316,2006,1799,1870,1964
696015,47908,14856,47349,14581,157,289,-184,202,-245,202,-2342,5394,10,27,909,1845,1928,2160,2316,2006,1799,1870,1964
697016,47928,14876,47414,14646,261,694,-163,110,-264,-38,-2090,5042,23,40,909,1845,1928,2160,2316,2006,1799,1870,1964
698017,47948,14876,47479,14711,316,1023,-171,21,-283,-184,-1773,4910,5,29,907,1845,1928,2160,2316,2006,1799,1870,1964
699018,47972,14932,47544,14776,316,334,-200,-48,-303,-116,-1546,4591,22,45,905,1845,1928,2160,2316,2006,1799,1870,1964
700019,47996,15012,47609,14841,366,16,-222,-68,-299,275,-1333,4421,23,41,908,1814,1924,2131,2319,1991,1784,1899,1981
701020,47996,15072,47674,14906,745,272,-223,-93,-285,621,-1204,4347,16,41,909,1814,1924,2131,2319,1991,1784,1899,1981
702021,48024,15140,47739,14971,440,168,-217,-122,-295,439,-1187,4190,9,50,906,1814,1924,2131,2319,1991,1784,1899,1981
703022,48052,15208,47804,15036,485,165,-193,-95,-306,278,-1240,4284,27,53,909,1814,1924,2131,2319,1991,1784,1899,1981
704023,48080,15272,47869,15101,530,216,-178,-65,-303,713,-1314,3867,10,36,908,1814,1924,2131,2319,1991,1784,1899,1981
705024,48108,15328,48068,15300,739,490,-165,-64,-304,1120,-1279,3897,12,36,908,1851,1970,2150,2343,2043,1828,1944,2028
706025,48136,15400,48133,15365,784,282,-152,-73,-294,804,-1408,3926,29,49,906,1851,1970,2150,2343,2043,1828,1944,2028
707026,48176,15468,48198,15430,664,328,-128,-113,-285,766,-1615,3841,24,53,906,1851,1970,2150,2343,2043,1828,1944,2028
708027,48216,15552,48263,15495,695,104,-73,-184,-263,615,-1880,3973,37,51,907,1851,1970,2150,2343,2043,1828,1944,2028
709028,48268,15616,48328,15560,561,355,2,-278,-237,591,-2129,3896,28,41,907,1851,1970,2150,2343,2043,1828,1944,2028
710029,48324,15688,48393,15625,522,247,89,-324,-221,779,-2147,4260,23,53,907,1851,1970,2150,2343,2043,1828,1944,2028
711030,48368,15780,48458,15690,697,-36,177,-367,-210,946,-2250,4185,23,51,908,1812,1918,2124,2286,2045,1825,1892,1979
712031,48436,15848,48523,15755,394,260,246,-400,-198,888,-2263,4443,25,42,907,1812,1918,2124,2286,2045,1825,1892,1979
713032,48484,15916,48588,15820,664,256,296,-460,-189,894,-2245,4074,26,52,908,1812,1918,2124,2286,2045,1825,1892,1979
714033,48548,15984,48653,15885,466,253,330,-481,-184,1029,-2028,4486,42,38,907,1812,1918,2124,2286,2045,1825,1892,1979
715034,48616,16040,48718,15950,412,414,340,-490,-204,1247,-1874,4144,30,37,908,1812,1918,2124,2286,2045,1825,1892,1979
716035,48676,16104,48783,16015,518,315,343,-510,-199,1084,-1837,4044,29,45,908,1760,1857,2085,2251,1953,1748,1817,1896
717036,48728,16176,48848,16080,634,206,344,-516,-180,1093,-1517,4243,33,34,906,1760,1857,2085,2251,1953,1748,1817,1896
718037,48792,16236,48913,16145,485,362,332,-507,-186,934,-1344,4121,28,39,907,1760,1857,2085,2251,1953,1748,1817,1896
719038,48856,16288,48978,16210,487,478,309,-445,-191,1332,-1137,4041,46,48,908,1760,1857,2085,2251,1953,1748,1817,1896
720039,48896,16344,49043,16275,818,439,277,-394,-170,1146,-998,3962,44,46,907,1760,1857,2085,2251,1953,1748,1817,1896
721040,48960,16408,49108,16340,519,340,244,-370,-154,1021,-697,3885,39,46,905,1760,1857,2085,2251,1953,1748,1817,1896
722041,49048,16456,49173,16405,191,561,211,-358,-137,676,-789,3577,46,37,907,1787,1881,2094,2287,1937,1745,1837,1911
723042,49108,16516,49238,16470,547,417,194,-332,-131,903,-657,3719,32,36,908,1787,1881,2094,2287,1937,1745,1837,1911
724043,49172,16564,49303,16535,498,588,189,-282,-111,899,-716,3511,35,46,907,1787,1881,2094,2287,1937,1745,1837,1911
725044,49220,16632,49368,16600,719,334,214,-258,-94,716,-804,3430,29,33,906,1787,1881,2094,2287,1937,1745,1837,1911
726045,49284,16684,49433,16665,520,550,256,-241,-76,547,-884,3497,46,33,906,1787,1881,2094,2287,1937,1745,1837,1911
727046,49356,16752,49498,16730,412,347,321,-241,-50,620,-1029,3394,30,36,906,1786,1884,2104,2286,2041,1832,1903,1998
728047,49420,16824,49563,16795,513,288,379,-205,-39,912,-1103,3602,30,34,908,1786,1884,2104,2286,2041,1832,1903,1998
729048,49468,16860,49628,16860,734,774,446,-152,-26,836,-1199,3506,29,41,908,1786,1884,2104,2286,2041,1832,1903,1998
730049,49532,16932,49693,16925,535,315,511,-85,-18,1053,-1124,3751,28,35,904,1786,1884,2104,2286,2041,1832,1903,1998
731050,49600,16996,49758,16990,481,416,580,-38,5,906,-1161,3607,30,36,908,1786,1884,2104,2286,2041,1832,1903,1998
732051,49664,17068,49823,17055,533,308,646,3,20,1124,-1091,3768,32,52,908,1786,1884,2104,2286,2041,1832,1903,1998
733052,49720,17140,49888,17120,644,299,705,31,51,996,-1179,3700,48,45,908,1739,1839,2081,2243,2055,1835,1878,1966
734053,49784,17204,49953,17185,545,400,745,78,55,1107,-864,3752,41,38,906,1739,1839,2081,2243,2055,1835,1878,1966
735054,49844,17260,50018,17250,601,511,765,125,67,1071,-862,3601,49,36,907,1739,1839,2081,2243,2055,1835,1878,1966
736055,49924,17336,50083,17315,333,248,762,149,75,1179,-628,3542,31,50,906,1739,1839,2081,2243,2055,1835,1878,1966
737056,49984,17396,50148,17380,589,454,745,179,96,1052,-467,3672,30,43,908,1739,1839,2081,2243,2055,1835,1878,1966
738057,50044,17464,50213,17445,596,350,704,224,112,1132,-415,3499,29,36,907,1740,1832,2072,2252,1942,1743,1800,1870
739058,50108,17524,50278,17510,547,456,656,301,117,1407,-350,3894,38,41,907,1740,1832,2072,2252,1942,1743,1800,1870
740059,50172,17596,50343,17575,548,298,610,369,132,1387,-172,3614,31,48,907,1740,1832,2072,2252,1942,1743,1800,1870
741060,50212,17672,50408,17640,879,234,573,400,158,1094,-264,3654,37,39,907,1740,1832,2072,2252,1942,1743,1800,1870
742061,50284,17720,50473,17705,470,605,545,444,166,1008,-210,3721,31,44,906,1740,1832,2072,2252,1942,1743,1800,1870
743062,50344,17792,50538,17770,626,297,534,454,174,1060,-359,3609,47,50,907,1740,1832,2072,2252,1942,1743,1800,1870
744063,50408,17860,50603,17835,578,343,528,486,203,847,-438,3649,47,46,907,1759,1846,2076,2257,1933,1744,1812,1904
745064,50464,17928,50668,17900,689,339,547,478,230,822,-443,3303,48,36,907,1759,1846,2076,2257,1933,1744,1812,1904
746065,50524,17988,50733,17965,645,445,588,469,241,619,-411,3439,36,35,906,1759,1846,2076,2257,1933,1744,1812,1904
747066,50600,18032,50798,18030,431,671,637,467,264,617,-519,3415,48,46,906,1759,1846,2076,2257,1933,1744,1812,1904
748067,50664,18096,50863,18095,582,422,704,477,288,844,-475,3443,52,35,906,1759,1846,2076,2257,1933,1744,1812,1904
749068,50732,18176,50928,18160,529,204,763,473,317,641,-618,3285,44,32,907,1739,1838,2082,2234,2034,1819,1878,1997
750069,50800,18232,50993,18225,525,515,828,481,336,736,-409,3351,37,36,908,1739,1838,2082,2234,2034,1819,1878,1997
751070,50872,18300,51058,18290,467,361,886,476,345,638,-289,3344,34,46,906,1739,1838,2082,2234,2034,1819,1878,1997
752071,50960,18352,51123,18355,239,577,936,498,348,791,-262,3409,33,34,907,1739,1838,2082,2234,2034,1819,1878,1997
753072,51012,18428,51188,18420,705,264,965,521,359,1124,-1,3209,49,38,908,1739,1838,2082,2234,2034,1819,1878,1997
754073,51080,18500,51253,18485,502,305,957,501,392,831,-61,3004,33,43,906,1739,1838,2082,2234,2034,1819,1878,1997
755074,51172,18552,51318,18550,169,571,944,514,408,701,200,3198,34,31,908,1746,1860,2096,2242,2040,1809,1874,1978
756075,51228,18612,51383,18615,630,477,929,502,408,687,239,3101,50,31,908,1746,1860,2096,2242,2040,1809,1874,1978
757076,51304,18672,51448,18680,366,483,903,514,409,920,300,3424,46,39,907,1746,1860,2096,2242,2040,1809,1874,1978
758077,51364,18700,51513,18745,572,928,887,533,426,1100,184,3438,52,28,908,1746,1860,2096,2242,2040,1809,1874,1978
759078,51444,18752,51578,18810,304,644,871,526,445,1055,127,3617,39,39,903,1746,1860,2096,2242,2040,1809,1874,1978
760079,51500,18808,51643,18875,615,605,858,521,449,876,203,3778,42,40,907,1763,1864,2085,2237,1967,1753,1821,1919
761080,51572,18868,51708,18940,407,561,858,513,472,525,56,3758,38,40,906,1763,1864,2085,2237,1967,1753,1821,1919
762081,51644,18912,51773,19005,398,787,861,528,479,740,-16,4043,31,26,907,1763,1864,2085,2237,1967,1753,1821,1919
763082,51684,18968,51838,19070,828,648,876,505,496,643,-118,3938,44,31,906,1763,1864,2085,2237,1967,1753,1821,1919
764083,51740,19036,51903,19135,639,494,901,464,527,306,-225,3881,46,40,904,1763,1864,2085,2237,1967,1753,1821,1919
765084,51816,19092,51968,19200,376,655,934,424,556,334,-237,4120,44,45,906,1763,1864,2085,2237,1967,1753,1821,1919
766085,51864,19152,52033,19265,747,611,964,374,573,485,-235,3754,48,30,906,1737,1829,2067,2217,1967,1765,1822,1933
767086,51928,19220,52098,19330,548,508,989,311,599,407,-223,3714,31,40,905,1737,1829,2067,2217,1967,1765,1822,1933
768087,52012,19280,52163,19395,275,614,1008,297,619,274,-121,3836,36,35,905,1737,1829,2067,2217,1967,1765,1822,1933
769088,52068,19336,52228,19460,636,675,1014,264,647,229,-110,3624,37,37,907,1737,1829,2067,2217,1967,1765,1822,1933
770089,52116,19408,52293,19525,758,466,1025,269,660,514,39,3736,47,33,905,1737,1829,2067,2217,1967,1765,1822,1933
771090,52180,19464,52358,19590,559,677,1023,259,679,574,130,3656,47,39,905,1754,1856,2109,2263,2023,1814,1876,1994
772091,52244,19536,52423,19655,560,469,1024,255,693,540,286,3695,50,37,906,1754,1856,2109,2263,2023,1814,1876,1994
773092,52304,19596,52488,19720,616,625,1008,276,697,515,460,3868,39,47,906,1754,1856,2109,2263,2023,1814,1876,1994
774093,52368,19676,52553,19785,567,357,1000,263,708,490,574,3610,47,34,906,1754,1856,2109,2263,2023,1814,1876,1994
775094,52428,19756,52618,19850,623,338,976,249,718,368,679,3680,38,37,907,1754,1856,2109,2263,2023,1814,1876,1994
776095,52484,19824,52683,19915,684,485,945,235,706,269,768,3599,33,48,907,1754,1856,2109,2263,2023,1814,1876,1994
777096,52548,19892,52748,19980,586,481,916,236,693,220,689,3755,32,43,906,1795,1901,2144,2296,2070,1847,1912,2031
778097,52624,19940,52813,20045,422,752,885,193,691,263,669,3712,50,45,907,1795,1901,2144,2296,2070,1847,1912,2031
779098,52688,20020,52878,20110,573,333,874,154,692,194,460,3923,44,42,906,1795,1901,2144,2296,2070,1847,1912,2031
780099,52752,20084,52943,20175,575,535,875,148,688,180,362,4322,35,37,907,1795,1901,2144,2296,2070,1847,1912,2031
781100,52828,20136,53008,20240,411,700,898,118,687,243,248,4223,40,45,906,1795,1901,2144,2296,2070,1847,1912,2031
782101,52884,20192,53073,20305,672,662,939,105,702,117,188,4740,34,44,906,1771,1874,2117,2241,2083,1852,1899,2030
783102,52956,20256,53138,20370,464,564,948,86,720,69,249,4832,47,41,905,1771,1874,2117,2241,2083,1852,1899,2030
784103,53024,20324,53203,20435,511,510,970,59,719,240,192,4676,43,32,906,1771,1874,2117,2241,2083,1852,1899,2030
785104,53072,20368,53268,20500,782,836,983,24,735,229,184,4755,36,45,906,1771,1874,2117,2241,2083,1852,1899,2030
786105,53140,20448,53333,20565,528,367,977,-11,743,193,373,4645,36,46,903,1771,1874,2117,2241,2083,1852,1899,2030
787106,53192,20512,53398,20630,744,569,961,-30,747,-23,456,4687,31,49,907,1771,1874,2117,2241,2083,1852,1899,2030
788107,53244,20580,53463,20695,760,515,928,-53,750,75,571,4595,36,46,905,1726,1838,2094,2220,2055,1832,1878,2008
789108,53316,20636,53528,20760,501,676,902,-94,750,298,776,4423,37,48,905,1726,1838,2094,2220,2055,1832,1878,2008
790109,53380,20728,53593,20825,603,193,857,-116,743,137,680,4385,49,42,906,1726,1838,2094,2220,2055,1832,1878,2008
791110,53436,20784,53658,20890,713,654,810,-118,745,293,869,4318,39,49,907,1726,1838,2094,2220,2055,1832,1878,2008
792111,53504,20852,53723,20955,560,500,747,-135,736,258,965,4217,35,49,905,1726,1838,2094,2220,2055,1832,1878,2008
793112,53556,20908,53788,21020,776,661,687,-140,720,114,959,4211,48,43,906,1775,1883,2143,2287,2074,1860,1913,2044
794113,53640,20968,53853,21085,353,617,626,-147,695,152,1005,4123,31,47,904,1775,1883,2143,2287,2074,1860,1913,2044
795114,53688,21040,53918,21150,823,459,588,-144,676,143,913,4220,36,38,907,1775,1883,2143,2287,2074,1860,1913,2044
796115,53760,21132,53983,21215,515,176,567,-104,650,-7,738,4221,32,36,905,1775,1883,2143,2287,2074,1860,1913,2044
797116,53824,21208,54048,21280,617,362,573,-86,637,331,559,4054,49,39,907,1775,1883,2143,2287,2074,1860,1913,2044
798117,53876,21264,54113,21345,783,623,591,-106,632,296,540,4095,37,36,907,1775,1883,2143,2287,2074,1860,1913,2044
799118,53932,21324,54178,21410,744,579,592,-155,624,-70,685,4071,28,43,905,1793,1897,2161,2292,2124,1902,1937,2070
800119,53984,21392,54243,21475,810,476,582,-180,600,-411,772,4275,42,35,905,1793,1897,2161,2292,2124,1902,1937,2070
801120,54056,21440,54308,21540,551,747,560,-198,586,-271,692,4204,31,43,905,1793,1897,2161,2292,2124,1902,1937,2070
802121,54128,21520,54373,21605,543,328,552,-227,574,33,765,4295,35,43,905,1793,1897,2161,2292,2124,1902,1937,2070
803122,54192,21584,54438,21670,644,529,541,-230,567,-276,566,4264,41,33,907,1793,1897,2161,2292,2124,1902,1937,2070
804123,54264,21636,54503,21735,535,695,540,-221,550,-287,806,4402,36,39,906,1746,1852,2116,2242,2100,1872,1901,2024
805124,54316,21700,54568,21800,801,547,545,-200,537,-139,810,4397,48,39,906,1746,1852,2116,2242,2100,1872,1901,2024
806125,54388,21752,54633,21865,543,712,532,-184,535,51,854,4441,31,39,904,1746,1852,2116,2242,2100,1872,1901,2024
807126,54464,21824,54698,21930,479,454,517,-159,534,-8,842,4540,38,36,905,1746,1852,2116,2242,2100,1872,1901,2024
808127,54528,21872,54763,21995,631,776,481,-152,527,52,914,4412,39,29,907,1746,1852,2116,2242,2100,1872,1901,2024
809128,54608,21932,54828,22060,413,632,458,-145,513,188,966,4437,46,39,905,1746,1852,2116,2242,2100,1872,1901,2024
810129,54676,21980,54893,22125,559,803,426,-114,504,328,953,4492,33,26,906,1718,1825,2081,2217,2031,1817,1860,1974
811130,54744,22040,54958,22190,556,659,421,-89,497,335,879,4285,44,28,904,1718,1825,2081,2217,2031,1817,1860,1974
812131,54788,22096,55023,22255,881,720,409,-58,498,294,711,4397,29,35,905,1718,1825,2081,2217,2031,1817,1860,1974
813132,54860,22176,55088,22320,523,401,427,-30,506,252,656,4264,27,45,903,1718,1825,2081,2217,2031,1817,1860,1974
814133,54896,22228,55153,22385,1008,767,456,-5,505,573,616,3959,32,36,907,1718,1825,2081,2217,2031,1817,1860,1974
815134,54960,22280,55218,22450,659,783,477,-12,516,514,560,3952,26,46,902,1745,1848,2108,2258,2023,1817,1864,1976
816135,55028,22348,55283,22515,606,579,467,-21,522,231,859,3693,30,40,904,1745,1848,2108,2258,2023,1817,1864,1976
817136,55112,22412,55348,22580,383,631,466,-22,508,-134,966,3807,47,34,905,1745,1848,2108,2258,2023,1817,1864,1976
818137,55160,22492,55413,22645,853,412,458,-30,484,-52,774,3597,30,34,906,1745,1848,2108,2258,2023,1817,1864,1976
819138,55208,22556,55478,22710,874,613,453,-92,469,147,653,3231,29,35,904,1745,1848,2108,2258,2023,1817,1864,1976
820139,55268,22632,55543,22775,731,450,440,-161,486,164,841,3370,35,35,904,1799,1897,2160,2258,2023,1817,1864,1976
821140,55328,22696,55608,22840,737,601,441,-131,488,6,1013,3559,46,47,906,1799,1897,2160,2320,2025,1818,1869,1977
822141,55376,22784,55673,22905,908,273,441,-92,469,275,941,3478,29,33,905,1799,1897,2160,2320,2025,1818,1869,1977
823142,55440,22848,55738,22970,709,574,439,-40,443,375,839,3659,29,33,905,1799,1897,2160,2320,2025,1818,1869,1977
824143,55508,22908,55803,23035,656,631,442,-9,432,388,769,3543,35,30,905,1799,1897,2160,2320,2025,1818,1869,1977
825144,55564,22960,55868,23100,817,746,451,57,422,249,810,3953,39,42,905,1799,1897,2160,2320,2025,1818,1869,1977
826145,55620,23036,55933,23165,828,433,475,114,396,624,739,3705,47,26,903,1792,1883,2131,2276,2007,1794,1843,1952
827146,55680,23088,55998,23230,784,749,504,151,385,558,620,3744,37,30,905,1792,1883,2131,2276,2007,1794,1843,1952
828147,55744,23128,56063,23295,735,930,530,170,383,239,758,3896,50,28,904,1792,1883,2131,2276,2007,1794,1843,1952
829148,55804,23188,56128,23360,792,686,555,181,405,-157,713,4106,37,28,903,1792,1883,2131,2276,2007,1794,1843,1952
830149,55872,23272,56193,23425,688,363,574,193,428,29,757,4101,33,42,904,1792,1883,2131,2276,2007,1794,1843,1952
831150,55916,23340,56258,23490,1014,560,593,183,446,92,700,4056,35,43,906,1728,1824,2068,2208,1978,1776,1825,1928
832151,55992,23384,56323,23555,601,885,603,145,460,-25,712,3866,45,44,903,1728,1824,2068,2208,1978,1776,1825,1928
833152,56064,23448,56388,23620,642,636,611,106,478,-74,651,3809,50,33,904,1728,1824,2068,2208,1978,1776,1825,1928
834153,56112,23504,56453,23685,963,747,616,74,490,183,770,3866,33,27,905,1728,1824,2068,2208,1978,1776,1825,1928
835154,56164,23588,56518,23750,929,374,615,54,503,202,675,3737,47,31,902,1728,1824,2068,2208,1978,1776,1825,1928
836155,56240,23608,56583,23815,615,1229,598,65,510,238,680,3823,50,33,903,1728,1824,2068,2208,1978,1776,1825,1928
837156,56292,23668,56648,23880,932,735,586,87,499,459,760,3739,36,41,901,1719,1819,2074,2227,1995,1796,1848,1960
838157,56352,23732,56713,23945,838,687,586,113,498,465,665,3618,31,43,903,1719,1819,2074,2227,1995,1796,1848,1960
839158,56408,23808,56778,24010,899,523,603,125,504,619,496,3250,35,35,904,1719,1819,2074,2227,1995,1796,1848,1960
840159,56468,23892,56843,24075,855,400,619,131,513,641,519,3394,48,47,904,1719,1819,2074,2227,1995,1796,1848,1960
841160,56536,23936,56908,24140,752,926,630,147,512,537,563,3391,38,46,905,1719,1819,2074,2227,1995,1796,1848,1960
842161,56584,23996,56973,24205,1022,732,641,176,504,464,603,3411,41,49,903,1767,1866,2126,2276,2039,1827,1879,1995
843162,56644,24068,57038,24270,878,574,647,166,491,345,572,3404,31,42,902,1767,1866,2126,2276,2039,1827,1879,1995
844163,56700,24144,57103,24335,940,511,646,139,488,232,463,3334,45,45,904,1767,1866,2126,2276,2039,1827,1879,1995
845164,56760,24228,57168,24400,897,387,647,113,490,320,556,3467,37,41,904,1767,1866,2126,2276,2039,1827,1879,1995
846165,56808,24296,57233,24465,1067,584,646,112,497,345,624,3570,32,43,904,1767,1866,2126,2276,2039,1827,1879,1995
847166,56888,24364,57298,24530,649,580,644,116,495,241,521,3718,41,32,903,1767,1866,2126,2276,2039,1827,1879,1995
848167,56936,24428,57363,24595,1070,631,636,113,502,204,513,3720,32,27,905,1777,1877,2127,2268,2029,1809,1861,1973
849168,56996,24484,57428,24660,926,742,633,115,514,127,533,4002,48,42,902,1777,1877,2127,2268,2029,1809,1861,1973
850169,57072,24528,57493,24725,712,918,621,130,530,103,479,4026,41,36,903,1777,1877,2127,2268,2029,1809,1861,1973
851170,57132,24580,57558,24790,920,834,605,139,532,375,485,4001,31,33,903,1777,1877,2127,2268,2029,1809,1861,1973
852171,57176,24660,57623,24855,1145,466,590,141,539,389,360,4041,32,43,902,1777,1877,2127,2268,2029,1809,1861,1973
853172,57228,24712,57688,24920,1061,831,577,151,558,361,346,4166,38,40,902,1743,1845,2087,2227,2007,1796,1850,1964
854173,57296,24768,57753,24985,857,792,567,174,575,321,317,4144,38,34,901,1743,1845,2087,2227,2007,1796,1850,1964
855174,57360,24840,57818,25050,909,584,566,181,593,347,405,4185,47,45,903,1743,1845,2087,2227,2007,1796,1850,1964
856175,57412,24900,57883,25115,1074,740,562,184,615,276,325,4158,45,39,903,1743,1845,2087,2227,2007,1796,1850,1964
857176,57464,24956,57948,25180,1091,802,549,181,630,304,326,4191,47,39,902,1743,1845,2087,2227,2007,1796,1850,1964
858177,57508,25032,58013,25245,1217,539,538,186,644,326,330,4140,47,37,901,1743,1845,2087,2227,2007,1796,1850,1964
859178,57580,25104,58078,25310,858,580,526,170,647,395,367,4069,39,41,901,1730,1833,2086,2231,2044,1838,1885,2003
860179,57612,25164,58143,25375,1399,736,520,161,646,377,258,3968,48,39,904,1730,1833,2086,2231,2044,1838,1885,2003
861180,57692,25212,58208,25440,780,907,514,137,651,456,326,3971,47,38,899,1730,1833,2086,2231,2044,1838,1885,2003
862181,57752,25296,58273,25505,1037,434,510,135,649,502,360,3923,49,39,902,1730,1833,2086,2231,2044,1838,1885,2003
863183,57812,25360,58338,25570,1044,685,511,160,648,497,488,4119,33,35,903,1730,1833,2086,2231,2044,1838,1885,2003
864183,57860,25432,58403,25635,1214,576,492,194,630,607,464,4161,48,42,902,1753,1854,2120,2272,2094,1881,1921,2040
865184,57912,25516,58468,25700,1180,403,474,240,608,568,452,4168,46,50,901,1753,1854,2120,2272,2094,1881,1921,2040
866185,57964,25624,58533,25765,1196,51,470,258,599,620,481,4040,42,53,902,1753,1854,2120,2272,2094,1881,1921,2040
867186,58032,25692,58598,25830,993,547,469,256,577,456,474,4136,48,39,903,1753,1854,2120,2272,2094,1881,1921,2040
868187,58092,25760,58663,25895,1100,543,450,251,574,67,408,4121,42,42,903,1753,1854,2120,2272,2094,1881,1921,2040
869188,58152,25836,58728,25960,1106,430,412,230,555,65,553,4192,38,37,902,1753,1854,2120,2272,2094,1881,1921,2040
870189,58204,25912,58793,26025,1221,416,377,228,544,-60,424,4297,37,33,902,1774,1876,2143,2293,2089,1872,1909,2023
871190,58256,25976,58858,26090,1238,568,347,222,535,145,439,4288,33,34,902,1774,1876,2143,2293,2089,1872,1909,2023
872191,58320,26032,58923,26155,1090,680,342,227,517,167,482,4521,51,38,901,1774,1876,2143,2293,2089,1872,1909,2023
873192,58388,26072,58988,26220,1036,910,327,240,518,103,272,4471,52,41,901,1774,1876,2143,2293,2089,1872,1909,2023
874193,58448,26144,59053,26285,1142,502,325,268,518,294,391,4619,48,35,901,1774,1876,2143,2293,2089,1872,1909,2023
875194,58508,26212,59118,26350,1148,548,323,288,526,352,236,4629,35,37,902,1764,1872,2131,2269,2061,1846,1889,2005
876195,58580,26280,59183,26415,991,544,318,309,536,258,212,4560,39,50,902,1764,1872,2131,2269,2061,1846,1889,2005
877196,58636,26344,59248,26480,1202,596,328,354,540,420,365,4716,37,45,903,1764,1872,2131,2269,2061,1846,1889,2005
878197,58692,26400,59313,26545,1213,707,347,365,557,420,238,4429,39,41,902,1764,1872,2131,2269,2061,1846,1889,2005
879198,58760,26460,59378,26610,1059,663,370,383,572,417,234,4564,50,47,901,1764,1872,2131,2269,2061,1846,1889,2005
880199,58816,26528,59443,26675,1221,559,377,374,585,509,487,4419,40,50,902,1764,1872,2131,2269,2061,1846,1889,2005
881200,58872,26600,59508,26740,1232,500,399,399,595,505,516,4456,41,36,901,1757,1866,2123,2270,2040,1832,1879,1987
882201,58924,26672,59573,26805,1298,492,399,426,606,612,688,4302,44,50,901,1757,1866,2123,2270,2040,1832,1879,1987
883202,58988,26740,59638,26870,1149,538,414,455,589,624,971,4421,40,52,901,1757,1866,2123,2270,2040,1832,1879,1987
884203,59036,26800,59703,26935,1371,644,400,452,585,209,829,4171,29,48,902,1757,1866,2123,2270,2040,1832,1879,1987
885204,59092,26856,59768,27000,1282,705,390,436,539,440,950,4112,34,48,900,1757,1866,2123,2270,2040,1832,1879,1987
886205,59148,26936,59833,27065,1293,387,367,408,480,367,749,4004,48,52,900,1792,1891,2149,2320,2030,1828,1878,1974
887206,59188,27008,59898,27130,1523,478,352,350,418,480,786,3833,43,50,900,1792,1891,2149,2320,2030,1828,1878,1974
888207,59268,27072,59963,27195,1006,580,343,327,367,343,705,4018,32,38,899,1792,1891,2149,2320,2030,1828,1878,1974
889208,59316,27140,60028,27260,1427,526,345,319,305,355,800,4104,47,43,902,1792,1891,2149,2320,2030,1828,1878,1974
890209,59380,27188,60093,27325,1228,797,344,329,266,292,572,4098,49,40,899,1792,1891,2149,2320,2030,1828,1878,1974
891210,59420,27276,60158,27390,1558,269,357,356,257,520,469,4234,46,49,900,1792,1891,2149,2320,2030,1828,1878,1974
892211,59476,27356,60223,27455,1370,350,383,356,250,520,442,4175,51,51,899,1807,1900,2162,2319,2033,1832,1878,1986
893212,59552,27412,60288,27520,1107,662,406,334,245,311,416,4302,51,39,901,1807,1900,2162,2319,2033,1832,1878,1986
894213,59596,27468,60353,27585,1533,673,441,331,252,255,385,4462,50,48,902,1807,1900,2162,2319,2033,1832,1878,1986
895214,59680,27548,60418,27650,1009,355,469,336,270,383,442,4452,45,46,898,1807,1900,2162,2319,2033,1832,1878,1986
896215,59740,27616,60483,27715,1316,501,505,349,293,249,276,4484,33,48,904,1807,1900,2162,2319,2033,1832,1878,1986
897216,59780,27672,60548,27780,1597,662,532,374,303,416,446,4454,50,47,901,1771,1882,2139,2279,2022,1818,1869,1982
898217,59856,27732,60613,27845,1134,618,536,392,323,330,507,4356,35,46,898,1771,1882,2139,2279,2022,1818,1869,1982
899218,59920,27800,60678,27910,1286,515,545,408,331,208,737,4505,51,38,901,1771,1882,2139,2279,2022,1818,1869,1982
900219,59976,27868,60743,27975,1397,511,543,430,311,380,848,4317,33,37,901,1771,1882,2139,2279,2022,1818,1869,1982
901220,60044,27928,60808,28040,1243,617,539,420,293,289,843,4224,40,37,900,1771,1882,2139,2279,2022,1818,1869,1982
902221,60100,28000,60873,28105,1404,459,527,397,265,191,898,4002,34,42,901,1771,1882,2139,2279,2022,1818,1869,1982
903222,60160,28048,60938,28170,1361,779,510,371,220,220,1108,3963,42,46,900,1776,1884,2136,2288,2021,1819,1875,1981
904223,60228,28120,61003,28235,1258,471,491,357,161,186,999,3997,33,35,899,1776,1884,2136,2288,2021,1819,1875,1981
905224,60280,28180,61068,28300,1473,627,482,347,96,380,1021,4007,36,47,901,1776,1884,2136,2288,2021,1819,1875,1981
906225,60356,28244,61133,28365,1161,578,477,327,26,464,1032,3837,34,39,899,1776,1884,2136,2288,2021,1819,1875,1981
907226,60408,28284,61198,28430,1477,909,471,307,-26,263,849,3878,33,41,901,1776,1884,2136,2288,2021,1819,1875,1981
908227,60480,28356,61263,28495,1218,500,473,315,-79,449,914,3965,33,37,897,1781,1878,2135,2289,2042,1839,1883,1993
909228,60532,28420,61328,28560,1485,601,497,303,-121,491,682,3797,39,41,901,1781,1878,2135,2289,2042,1839,1883,1993
910229,60576,28512,61393,28625,1611,218,516,281,-155,584,630,3937,35,49,899,1781,1878,2135,2289,2042,1839,1883,1993
911230,60648,28588,61458,28690,1252,405,516,284,-170,450,647,3995,31,46,899,1781,1878,2135,2289,2042,1839,1883,1993
912231,60704,28648,61523,28755,1463,611,542,324,-173,453,699,4028,51,52,901,1781,1878,2135,2289,2042,1839,1883,1993
913232,60780,28712,61588,28820,1201,562,556,335,-169,460,537,4000,52,49,899,1781,1878,2135,2289,2042,1839,1883,1993
914233,60836,28796,61653,28885,1462,289,564,340,-161,446,670,4101,38,38,901,1757,1856,2119,2259,2039,1834,1871,1983
915234,60896,28868,61718,28950,1418,431,570,371,-142,333,715,4218,52,34,901,1757,1856,2119,2259,2039,1834,1871,1983
916235,60944,28928,61783,29015,1590,587,557,368,-115,345,670,3980,36,38,900,1757,1856,2119,2259,2039,1834,1871,1983
917236,61004,28988,61848,29080,1446,593,544,369,-107,354,806,4019,34,45,898,1757,1856,2119,2259,2039,1834,1871,1983
918237,61080,29060,61913,29145,1232,435,522,372,-111,249,885,4092,42,40,899,1757,1856,2119,2259,2039,1834,1871,1983
919238,61152,29136,61978,29210,1275,372,508,375,-111,214,868,3897,50,37,901,1741,1848,2111,2253,2015,1811,1860,1968
920239,61216,29216,62043,29275,1376,304,480,371,-125,324,913,3821,42,44,902,1741,1848,2111,2253,2015,1811,1860,1968
921240,61288,29260,62108,29340,1267,779,454,370,-146,250,960,3945,33,46,900,1741,1848,2111,2253,2015,1811,1860,1968
922241,61356,29332,62173,29405,1315,421,428,375,-163,223,971,3806,52,37,899,1741,1848,2111,2253,2015,1811,1860,1968
923242,61408,29380,62238,29470,1531,741,410,372,-200,372,1138,3937,32,44,901,1741,1848,2111,2253,2015,1811,1860,1968
924243,61480,29444,62303,29535,1272,543,389,365,-241,234,978,3839,37,35,898,1741,1848,2111,2253,2015,1811,1860,1968
925244,61532,29500,62368,29600,1539,654,378,377,-281,365,1081,4040,51,39,900,1747,1849,2111,2256,2041,1835,1877,1995
926245,61600,29584,62433,29665,1335,280,366,398,-316,557,945,3691,34,48,899,1747,1849,2111,2256,2041,1835,1877,1995
927246,61660,29636,62498,29730,1441,696,363,415,-356,579,951,3873,39,51,901,1747,1849,2111,2256,2041,1835,1877,1995
928247,61712,29692,62563,29795,1557,657,356,456,-394,549,966,3906,50,46,899,1747,1849,2111,2256,2041,1835,1877,1995
929248,61780,29780,62628,29860,1355,229,350,492,-420,628,1008,3788,35,48,898,1747,1849,2111,2256,2041,1835,1877,1995
930249,61844,29860,62693,29925,1406,311,353,529,-437,648,921,3927,43,54,901,1746,1848,2116,2252,2072,1857,1892,2012
931250,61900,29908,62758,29990,1517,732,353,571,-442,503,897,3869,44,53,901,1746,1848,2116,2252,2072,1857,1892,2012
932251,61960,29976,62823,30055,1474,478,360,609,-430,471,820,3809,31,50,898,1746,1848,2116,2252,2072,1857,1892,2012
933252,62008,30048,62888,30120,1645,419,353,621,-411,496,860,3700,42,44,899,1746,1848,2116,2252,2072,1857,1892,2012
934253,62076,30104,62953,30185,1391,630,334,631,-402,352,892,3782,33,48,898,1746,1848,2116,2252,2072,1857,1892,2012
935254,62128,30188,63018,30250,1608,257,302,637,-385,229,868,3769,36,47,899,1746,1848,2116,2252,2072,1857,1892,2012
936255,62188,30268,63083,30315,1514,289,276,628,-371,337,885,3796,47,47,899,1735,1840,2113,2253,2058,1849,1878,1988
937256,62232,30340,63148,30380,1740,380,245,623,-355,369,800,3713,38,40,900,1735,1840,2113,2253,2058,1849,1878,1988
938257,62300,30416,63213,30445,1437,317,214,610,-355,413,908,3679,51,41,897,1735,1840,2113,2253,2058,1849,1878,1988
939258,62372,30488,63278,30510,1378,358,187,602,-347,268,1029,3838,48,40,900,1735,1840,2113,2253,2058,1849,1878,1988
940259,62436,30540,63343,30575,1480,624,162,608,-354,392,1075,3881,38,42,901,1735,1840,2113,2253,2058,1849,1878,1988
941260,62508,30596,63408,30640,1372,585,135,622,-353,420,1042,3925,54,52,899,1728,1825,2096,2240,2035,1830,1862,1976
942261,62580,30664,63473,30705,1364,432,116,647,-356,497,1127,3868,43,39,900,1728,1825,2096,2240,2035,1830,1862,1976
943262,62644,30744,63538,30770,1465,263,110,685,-369,549,1156,3995,37,44,901,1728,1825,2096,2240,2035,1830,1862,1976
944263,62712,30792,63603,30835,1412,684,100,721,-402,740,1094,3905,48,44,900,1728,1825,2096,2240,2035,1830,1862,1976
945264,62796,30864,63668,30900,1189,375,100,768,-443,704,1099,3986,40,41,900,1728,1825,2096,2240,2035,1830,1862,1976
946265,62868,30924,63733,30965,1330,532,100,815,-465,636,999,3940,55,41,902,1728,1825,2096,2240,2035,1830,1862,1976
947266,62944,30992,63798,31030,1268,428,83,870,-503,667,1098,4080,53,36,901,1723,1823,2092,2229,2046,1831,1869,1989
948267,63016,31064,63863,31095,1309,369,74,915,-541,635,1068,3797,50,40,901,1723,1823,2092,2229,2046,1831,1869,1989
949268,63100,31140,63928,31160,1136,306,72,931,-563,687,1060,3871,47,41,901,1723,1823,2092,2229,2046,1831,1869,1989
950269,63160,31196,63993,31225,1443,567,69,954,-572,447,1168,3804,35,42,902,1723,1823,2092,2229,2046,1831,1869,1989
951270,63232,31260,64058,31290,1285,468,57,956,-564,269,986,3668,41,36,900,1723,1823,2092,2229,2046,1831,1869,1989
952271,63284,31312,64123,31355,1551,634,48,962,-556,326,1058,3741,36,43,901,1736,1840,2113,2255,2052,1842,1876,1992
953272,63356,31384,64188,31420,1293,375,36,944,-544,157,1070,3458,50,46,899,1736,1840,2113,2255,2052,1842,1876,1992
954273,63424,31428,64253,31485,1339,751,20,908,-533,140,1111,3459,35,41,901,1736,1840,2113,2255,2052,1842,1876,1992
955274,63488,31508,64452,31684,1554,446,3,885,-528,103,1121,3403,49,39,899,1736,1840,2113,2255,2052,1842,1876,1992
956275,63548,31600,64517,31749,1611,263,-19,881,-513,148,1007,3473,43,42,899,1736,1840,2113,2255,2052,1842,1876,1992
957276,63604,31656,64582,31814,1672,724,-30,902,-492,437,975,3550,52,42,899,1736,1840,2113,2255,2052,1842,1876,1992
958277,63696,31736,64647,31879,1189,406,-50,912,-480,386,1093,3545,48,55,897,1749,1855,2127,2271,2040,1832,1869,1982
959278,63732,31808,64712,31944,1926,498,-58,921,-476,409,1065,3710,49,47,901,1749,1855,2127,2271,2040,1832,1869,1982
960279,63824,31892,64777,32009,1193,324,-67,930,-469,592,1076,3850,38,47,897,1749,1855,2127,2271,2040,1832,1869,1982
961280,63904,31952,64842,32074,1326,631,-75,928,-479,628,1213,3840,56,52,901,1749,1855,2127,2271,2040,1832,1869,1982
962281,63964,32032,64907,32139,1582,363,-91,933,-495,622,1146,3961,42,56,900,1749,1855,2127,2271,2040,1832,1869,1982
963282,64060,32108,64972,32204,1094,400,-89,939,-504,539,1104,4045,59,58,899,1739,1836,2098,2231,2017,1806,1847,1967
964283,64136,32192,65037,32269,1331,276,-77,966,-522,533,958,4141,41,41,902,1739,1836,2098,2231,2017,1806,1847,1967
965284,64216,32264,65102,32334,1263,418,-67,971,-557,870,993,3973,41,56,902,1739,1836,2098,2231,2017,1806,1847,1967
966285,64292,32312,65167,32399,1300,739,-73,958,-595,549,1059,4072,38,49,901,1739,1836,2098,2231,2017,1806,1847,1967
967286,64356,32392,65232,32464,1452,320,-95,949,-626,309,1038,4014,41,42,900,1739,1836,2098,2231,2017,1806,1847,1967
968287,64432,32480,65297,32529,1288,192,-120,931,-656,491,1179,3924,52,52,900,1739,1836,2098,2231,2017,1806,1847,1967
969288,64500,32552,65362,32594,1385,384,-127,911,-682,584,1124,4050,41,55,902,1726,1828,2089,2224,2026,1812,1860,1987
970289,64572,32616,65427,32659,1327,485,-131,892,-686,240,1159,3816,55,53,901,1726,1828,2089,2224,2026,1812,1860,1987
971290,64652,32680,65492,32724,1209,486,-139,890,-687,-31,1259,3697,44,55,901,1726,1828,2089,2224,2026,1812,1860,1987
972291,64712,32772,65557,32789,1465,103,-143,870,-685,143,1171,3670,48,54,901,1726,1828,2089,2224,2026,1812,1860,1987
973292,64784,32824,65622,32854,1307,619,-160,847,-665,217,1085,3448,38,46,901,1726,1828,2089,2224,2026,1812,1860,1987
974293,64860,32900,65687,32919,1244,306,-170,842,-638,136,918,3601,46,43,900,1746,1857,2123,2261,2061,1845,1893,2022
975294,64912,32964,65752,32984,1560,457,-180,854,-623,264,1090,3399,44,53,902,1746,1857,2123,2261,2061,1845,1893,2022
976295,65000,33020,65817,33049,1082,568,-192,833,-609,104,993,3405,52,46,900,1746,1857,2123,2261,2061,1845,1893,2022
977296,65076,33124,65882,33114,1219,-80,-199,849,-587,59,781,3679,57,53,901,1746,1857,2123,2261,2061,1845,1893,2022
978297,65120,33204,65947,33179,1645,202,-195,865,-588,447,988,3653,37,53,903,1746,1857,2123,2261,2061,1845,1893,2022
979298,65208,33288,66012,33244,1067,129,-195,845,-588,343,865,3537,39,46,900,1746,1857,2123,2261,2061,1845,1893,2022
980299,65288,33340,66077,33309,1150,545,-186,840,-580,139,924,3812,53,40,903,1760,1869,2129,2261,2059,1839,1879,2001
981300,65360,33416,66142,33374,1241,231,-188,829,-586,219,955,3851,42,40,902,1760,1869,2129,2261,2059,1839,1879,2001
982301,65428,33496,66207,33439,1287,163,-189,802,-592,275,898,3885,46,50,902,1760,1869,2129,2261,2059,1839,1879,2001
983302,65496,33560,66272,33504,1285,364,-199,772,-610,251,1078,3853,41,46,902,1760,1869,2129,2261,2059,1839,1879,2001
984303,65592,33608,66337,33569,897,585,-213,736,-639,69,1156,3793,48,54,902,1760,1869,2129,2261,2059,1839,1879,2001
985304,65656,33688,66402,33634,1298,167,-219,728,-659,132,978,3860,34,35,903,1737,1835,2094,2228,2012,1797,1841,1955
986305,65736,33748,66467,33699,1080,423,-228,734,-661,488,792,3957,36,45,902,1737,1835,2094,2228,2012,1797,1841,1955
987306,65812,33816,66532,33764,1117,319,-238,768,-693,660,1189,4021,37,43,903,1737,1835,2094,2228,2012,1797,1841,1955
988307,65876,33868,66597,33829,1269,535,-248,749,-729,221,1199,3610,34,40,903,1737,1835,2094,2228,2012,1797,1841,1955
989308,65940,33944,66662,33894,1270,221,-269,763,-757,11,859,3864,41,48,901,1737,1835,2094,2228,2012,1797,1841,1955
990312,66004,34012,66727,33959,1272,318,-301,806,-758,486,829,4058,37,54,902,1737,1835,2094,2228,2012,1797,1841,1955
991310,66072,34068,66792,34024,1218,479,-322,827,-754,626,998,3505,53,41,902,1728,1823,2076,2215,1999,1790,1844,1964
992311,66156,34128,66857,34089,995,435,-334,785,-760,-160,1047,3495,51,53,902,1728,1823,2076,2215,1999,1790,1844,1964
993312,66232,34200,66922,34154,1082,276,-338,756,-760,-592,934,3470,48,43,903,1728,1823,2076,2215,1999,1790,1844,1964
994313,66300,34288,66987,34219,1179,48,-336,734,-738,-366,760,3404,38,49,904,1728,1823,2076,2215,1999,1790,1844,1964
995314,66380,34372,67052,34284,1011,74,-338,726,-706,88,579,3508,51,44,903,1728,1823,2076,2215,1999,1790,1844,1964
996315,66444,34488,67117,34349,1212,-388,-347,716,-679,45,583,3408,51,49,905,1731,1835,2093,2230,2035,1822,1874,1999
997316,66516,34592,67182,34414,1103,-286,-339,693,-681,-362,734,3164,48,50,903,1731,1835,2093,2230,2035,1822,1874,1999
998317,66592,34712,67247,34479,1041,-553,-328,659,-682,-465,574,2989,41,40,903,1731,1835,2093,2230,2035,1822,1874,1999
999318,66652,34788,67312,34544,1247,-16,-321,655,-688,-212,462,3387,41,43,903,1731,1835,2093,2230,2035,1822,1874,1999
1000319,66728,34856,67377,34609,1034,80,-332,694,-672,282,683,3476,47,41,903,1731,1835,2093,2230,2035,1822,1874,1999
1001320,66808,34892,67442,34674,965,515,-320,706,-646,229,860,3181,44,41,904,1731,1835,2093,2230,2035,1822,1874,1999
1002321,66892,34924,67507,34739,893,606,-295,721,-641,-351,1068,3479,44,34,904,1733,1840,2094,2225,2035,1813,1863,1984
1003322,66956,34980,67572,34804,1144,317,-281,690,-647,-373,985,3366,57,38,903,1733,1840,2094,2225,2035,1813,1863,1984
1004323,67036,35048,67637,34869,926,163,-275,685,-650,-52,867,3458,48,47,903,1733,1840,2094,2225,2035,1813,1863,1984
1005324,67116,35116,67702,34934,908,159,-273,691,-662,223,855,3455,42,38,904,1733,1840,2094,2225,2035,1813,1863,1984
1006325,67192,35152,67767,34999,945,595,-292,705,-700,244,893,3660,47,39,905,1733,1840,2094,2225,2035,1813,1863,1984
1007326,67280,35216,67832,35064,767,246,-305,698,-765,102,907,3251,54,41,904,1726,1820,2068,2204,1984,1765,1820,1932
1008327,67372,35284,67897,35129,684,192,-339,689,-823,-172,713,3531,39,43,905,1726,1820,2068,2204,1984,1765,1820,1932
1009328,67452,35372,67962,35194,816,-87,-362,712,-884,300,643,3489,56,51,906,1726,1820,2068,2204,1984,1765,1820,1932
1010329,67532,35444,68027,35259,798,105,-404,690,-899,364,423,3329,41,50,906,1726,1820,2068,2204,1984,1765,1820,1932
1011330,67600,35504,68092,35324,945,261,-420,656,-924,-223,875,3288,50,51,906,1726,1820,2068,2204,1984,1765,1820,1932
1012331,67688,35568,68157,35389,667,212,-413,595,-931,-803,625,3005,38,43,905,1726,1820,2068,2204,1984,1765,1820,1932
1013332,67776,35640,68222,35454,639,103,-411,565,-910,-407,479,3617,56,51,906,1720,1811,2056,2196,1964,1759,1818,1936
1014333,67840,35716,68287,35519,940,40,-401,572,-854,-115,350,3485,48,43,907,1720,1811,2056,2196,1964,1759,1818,1936
1015334,67924,35796,68352,35584,667,-28,-392,581,-814,-66,515,3421,47,52,906,1720,1811,2056,2196,1964,1759,1818,1936
1016335,68004,35864,68417,35649,699,118,-377,542,-770,-599,423,3242,59,48,906,1720,1811,2056,2196,1964,1759,1818,1936
1017336,68084,35948,68482,35714,681,-105,-368,509,-745,-504,548,3286,59,43,907,1720,1811,2056,2196,1964,1759,1818,1936
1018337,68176,36032,68547,35779,498,-128,-356,467,-732,-165,391,3037,44,50,907,1710,1817,2065,2199,1997,1788,1850,1976
1019338,68256,36100,68612,35844,630,68,-366,446,-706,30,113,3000,42,46,907,1710,1817,2065,2199,1997,1788,1850,1976
1020339,68336,36144,68677,35909,612,394,-376,413,-696,88,432,2987,56,48,908,1710,1817,2065,2199,1997,1788,1850,1976
1021340,68412,36208,68742,35974,648,144,-370,401,-691,-578,488,2964,40,51,907,1710,1817,2065,2199,1997,1788,1850,1976
1022341,68496,36276,68807,36039,525,90,-380,393,-705,-184,510,3226,47,50,907,1710,1817,2065,2199,1997,1788,1850,1976
1023342,68588,36344,68872,36104,392,87,-386,366,-712,-38,437,3130,55,39,907,1710,1817,2065,2199,1997,1788,1850,1976
1024343,68652,36424,68937,36169,743,-82,-387,329,-729,-133,514,3109,44,49,908,1727,1835,2075,2207,2017,1793,1861,1989
1025344,68744,36512,69002,36234,361,-210,-399,295,-759,-266,447,3364,40,48,908,1727,1835,2075,2207,2017,1793,1861,1989
1026345,68848,36572,69067,36299,164,146,-408,281,-814,-81,727,3478,55,39,908,1727,1835,2075,2207,2017,1793,1861,1989
1027346,68920,36652,69132,36364,555,-122,-417,242,-857,-249,461,3069,54,47,909,1727,1835,2075,2207,2017,1793,1861,1989
1028347,69004,36728,69197,36429,382,-85,-432,204,-898,-74,354,3521,51,41,908,1727,1835,2075,2207,2017,1793,1861,1989
1029348,69076,36784,69262,36494,524,175,-443,195,-940,-115,283,3343,43,51,908,1726,1825,2057,2186,2003,1773,1843,1967
1030349,69156,36864,69327,36559,405,-143,-452,184,-970,32,309,3485,38,46,908,1726,1825,2057,2186,2003,1773,1843,1967
1031350,69232,36952,69392,36624,442,-272,-461,153,-981,-218,244,3409,53,42,908,1726,1825,2057,2186,2003,1773,1843,1967
1032351,69320,37032,69457,36689,264,-190,-474,131,-978,-406,102,3642,43,48,908,1726,1825,2057,2186,2003,1773,1843,1967
1033352,69400,37104,69522,36754,345,-99,-482,125,-966,-312,86,3581,47,51,908,1726,1825,2057,2186,2003,1773,1843,1967
1034353,69480,37184,69587,36819,327,-217,-477,99,-952,-272,181,3567,38,43,909,1726,1825,2057,2186,2003,1773,1843,1967
1035354,69560,37260,69652,36884,309,-180,-493,41,-909,-591,70,3342,35,45,909,1708,1812,2045,2176,1991,1771,1840,1964
1036355,69652,37348,69717,36949,126,-359,-511,7,-869,-666,-80,3534,52,38,909,1708,1812,2045,2176,1991,1771,1840,1964
1037356,69748,37404,69782,37014,38,52,-528,-15,-832,-411,24,3452,51,38,909,1708,1812,2045,2176,1991,1771,1840,1964
1038359,69800,37464,69847,37079,604,8,-541,-43,-792,-317,93,3310,36,36,909,1708,1812,2045,2176,1991,1771,1840,1964
