%  Data file recorded 2016/7/16  22:2:29
%  Stride Frequency         = [1, 1]
%  Lead In /Lead Out        = 
%  Deltas (Fractional)      = [0.25, 0.25, 0.25],[0.25, 0.25, 0.25]
%  Phase                    = 32768
%  Experiment.py 
%  Motor Gains    = [5000, 400, 200, 0, 300, 5000, 400, 200, 0, 300]
% Columns: 
% time | Right Leg Pos | Left Leg Pos | Commanded Right Leg Pos | Commanded Left Leg Pos | DCR | DCL | GyroX | GyroY | GyroZ | AX | AY | AZ | RBEMF | LBEMF | VBatt | S1 | S2 | S3 | S4 | S5 | S6 | S7 | S8
233,17612,-16376,16998,-15770,-3800,-3800,-57,-202,82,36,64,3941,5,-3,859,1531,1665,1859,1931,1803,1615,1685,1778
1234,17604,-16376,16998,-15770,-3800,-3800,-61,-202,82,36,66,3940,-8,0,859,1531,1665,1859,1931,1803,1615,1685,1778
2235,17600,-16376,16998,-15770,-3800,-3800,-60,-203,84,20,85,3941,1,-4,859,1531,1665,1859,1931,1803,1615,1685,1778
3236,17608,-16380,16998,-15770,-3800,-3800,-58,-202,83,16,66,3956,7,8,859,1531,1665,1859,1931,1803,1615,1685,1778
4237,17604,-16376,16998,-15770,-3800,-3800,-59,-201,81,-3,74,3940,10,-6,859,1532,1666,1860,1932,1804,1615,1684,1777
5238,17604,-16376,16998,-15770,-3800,-3800,-58,-202,79,2,77,3920,-3,0,858,1532,1666,1860,1932,1804,1615,1684,1777
6239,17596,-16380,16998,-15770,-3800,-3800,-58,-202,82,5,85,3973,-5,7,859,1532,1666,1860,1932,1804,1615,1684,1777
7240,17616,-16368,16998,-15770,-3800,-3800,-60,-203,83,31,97,3971,-7,-5,858,1532,1666,1860,1932,1804,1615,1684,1777
8241,17600,-16388,16998,-15770,-3800,-3800,-59,-205,82,12,85,3945,-7,8,859,1532,1666,1860,1932,1804,1615,1684,1777
9242,17604,-16364,16998,-15770,-3800,-3800,-60,-203,82,20,102,3961,-4,-4,859,1531,1666,1861,1932,1805,1617,1686,1779
10243,17596,-16376,16998,-15770,-3800,-3800,-59,-202,82,1,86,3906,11,6,859,1531,1666,1861,1932,1805,1617,1686,1779
11244,17616,-16384,16998,-15770,-3800,-3800,-59,-203,83,29,69,3941,4,2,858,1531,1666,1861,1932,1805,1617,1686,1779
12245,17604,-16392,16998,-15770,-3800,-3800,-58,-202,85,7,106,3970,3,-7,859,1531,1666,1861,1932,1805,1617,1686,1779
13246,17604,-16380,16998,-15770,-3800,-3800,-58,-204,85,5,107,3943,-7,6,859,1531,1666,1861,1932,1805,1617,1686,1779
14247,17604,-16368,16998,-15770,-3800,-3800,-58,-203,84,0,95,3943,1,-7,859,1531,1666,1861,1932,1805,1617,1686,1779
15248,17596,-16376,16998,-15770,-3800,-3800,-55,-203,83,28,70,3995,10,7,859,1532,1665,1860,1931,1804,1615,1685,1778
16249,17608,-16388,16998,-15770,-3800,-3800,-56,-204,84,29,96,3977,5,-6,859,1532,1665,1860,1931,1804,1615,1685,1778
17250,17596,-16380,16998,-15770,-3800,-3800,-58,-203,85,33,75,3970,-8,2,859,1532,1665,1860,1931,1804,1615,1685,1778
18251,17612,-16388,16998,-15770,-3800,-3800,-56,-202,85,17,104,3924,-2,3,859,1532,1665,1860,1931,1804,1615,1685,1778
19252,17600,-16376,16998,-15770,-3800,-3800,-58,-202,85,31,105,3905,11,-1,857,1532,1665,1860,1931,1804,1615,1685,1778
20253,17608,-16376,16998,-15770,-3800,-3800,-58,-202,84,-12,86,3928,-5,7,859,1532,1666,1859,1931,1805,1615,1685,1779
21254,17608,-16384,16998,-15770,-3800,-3800,-58,-203,84,17,105,3916,-8,1,859,1532,1666,1859,1931,1805,1615,1685,1779
22255,17612,-16368,16998,-15770,-3800,-3800,-56,-203,86,15,111,3932,-7,0,859,1532,1666,1859,1931,1805,1615,1685,1779
23256,17604,-16368,16998,-15770,-3800,-3800,-54,-204,84,7,97,3932,6,6,859,1532,1666,1859,1931,1805,1615,1685,1779
24257,17608,-16376,16998,-15770,-3800,-3800,-57,-205,84,1,102,3951,11,-6,859,1532,1666,1859,1931,1805,1615,1685,1779
25258,17608,-16376,16998,-15770,-3800,-3800,-58,-206,82,-21,104,3938,0,6,859,1532,1666,1859,1931,1805,1615,1685,1779
26259,17612,-16376,16998,-15770,-3800,-3800,-58,-205,82,2,104,3908,-8,2,858,1532,1666,1860,1933,1806,1617,1686,1778
27260,17600,-16384,16998,-15770,-3800,-3800,-58,-205,85,8,96,3937,-6,-4,859,1532,1666,1860,1933,1806,1617,1686,1778
28261,17608,-16384,16998,-15770,-3800,-3800,-59,-208,84,3,108,3930,4,4,858,1532,1666,1860,1933,1806,1617,1686,1778
29262,17600,-16396,16998,-15770,-3800,-3800,-60,-206,82,24,111,3909,11,-7,859,1532,1666,1860,1933,1806,1617,1686,1778
30263,17608,-16380,16998,-15770,-3800,-3800,-58,-204,81,38,79,3963,9,3,859,1532,1666,1860,1933,1806,1617,1686,1778
31264,17600,-16380,16998,-15770,-3800,-3800,-57,-204,83,29,93,3944,-1,-3,859,1532,1666,1860,1931,1803,1613,1683,1775
32265,17600,-16380,16998,-15770,-3800,-3800,-55,-207,82,2,126,3928,-8,-4,858,1532,1666,1860,1931,1803,1613,1683,1775
33266,17608,-16380,16998,-15770,-3800,-3800,-55,-206,82,21,107,3929,-7,7,859,1532,1666,1860,1931,1803,1613,1683,1775
34267,17608,-16372,16998,-15770,-3800,-3800,-58,-207,83,7,93,3936,0,-7,859,1532,1666,1860,1931,1803,1613,1683,1775
35268,17604,-16372,16998,-15770,-3800,-3800,-60,-204,81,22,111,3948,9,4,859,1532,1666,1860,1931,1803,1613,1683,1775
36272,17604,-16368,16998,-15770,-3800,-3800,-60,-203,83,41,82,3963,11,5,858,1532,1666,1860,1931,1803,1613,1683,1775
37270,17604,-16376,16998,-15770,-3800,-3800,-59,-203,81,35,85,3942,-2,-6,858,1533,1666,1860,1931,1806,1616,1685,1778
38271,17608,-16380,16998,-15770,-3800,-3800,-60,-204,82,29,106,3948,-8,-4,859,1533,1666,1860,1931,1806,1616,1685,1778
39272,17604,-16384,16998,-15770,-3800,-3800,-60,-205,81,35,108,3971,-8,7,859,1533,1666,1860,1931,1806,1616,1685,1778
40273,17604,-16376,16998,-15770,-3800,-3800,-61,-204,81,37,105,3974,5,-3,859,1533,1666,1860,1931,1806,1616,1685,1778
41274,17604,-16372,16998,-15770,-3800,-3800,-61,-204,84,34,107,3955,10,-5,859,1533,1666,1860,1931,1806,1616,1685,1778
42275,17616,-16376,16998,-15770,-3800,-3800,-59,-203,82,26,89,3953,6,7,859,1532,1666,1861,1933,1803,1615,1686,1779
43276,17620,-16384,16998,-15770,-3800,-3800,-60,-205,82,14,96,3932,-3,-6,859,1532,1666,1861,1933,1803,1615,1686,1779
44277,17608,-16376,16998,-15770,-3800,-3800,-59,-207,82,12,90,3942,-7,7,858,1532,1666,1861,1933,1803,1615,1686,1779
45278,17600,-16376,16998,-15770,-3800,-3800,-60,-206,80,42,107,3984,-5,-2,858,1532,1666,1861,1933,1803,1615,1686,1779
46279,17600,-16380,16998,-15770,-3800,-3800,-63,-203,79,39,98,3995,6,3,858,1532,1666,1861,1933,1803,1615,1686,1779
47280,17608,-16376,16998,-15770,-3800,-3800,-62,-203,80,71,107,3921,11,4,859,1532,1666,1861,1933,1803,1615,1686,1779
48281,17616,-16388,16998,-15770,-3800,-3800,-61,-205,81,52,113,3943,10,-7,859,1533,1666,1860,1932,1805,1615,1685,1778
49282,17604,-16384,16998,-15770,-3800,-3800,-61,-205,82,29,97,3930,-2,8,858,1533,1666,1860,1932,1805,1615,1685,1778
50283,17596,-16384,16998,-15770,-3800,-3800,-62,-204,83,24,74,3925,-8,-6,859,1533,1666,1860,1932,1805,1615,1685,1778
51284,17600,-16376,16998,-15770,-3800,-3800,-62,-206,80,42,82,3924,-7,2,858,1533,1666,1860,1932,1805,1615,1685,1778
52285,17604,-16380,16998,-15770,-3800,-3800,-61,-206,83,18,111,3950,3,-2,858,1533,1666,1860,1932,1805,1615,1685,1778
53286,17612,-16372,16998,-15770,-3800,-3800,-58,-204,82,24,99,3970,10,-4,858,1533,1663,1857,1930,1803,1615,1686,1778
54287,17612,-16372,16998,-15770,-3800,-3800,-59,-203,82,37,86,3949,-3,3,858,1533,1663,1857,1930,1803,1615,1686,1778
55288,17604,-16376,16998,-15770,-3800,-3800,-61,-203,81,48,120,3934,-8,5,859,1533,1663,1857,1930,1803,1615,1686,1778
56289,17600,-16380,16998,-15770,-3800,-3800,-61,-204,81,58,95,3922,-1,-6,859,1533,1663,1857,1930,1803,1615,1686,1778
57290,17608,-16380,16998,-15770,-3800,-3800,-60,-203,83,27,75,3930,8,-4,859,1533,1663,1857,1930,1803,1615,1686,1778
58291,17604,-16368,16998,-15770,-3800,-3800,-60,-202,84,37,96,3944,6,8,859,1533,1663,1857,1930,1803,1615,1686,1778
59292,17612,-16372,16998,-15770,-3800,-3800,-58,-203,83,2,74,3927,-8,-1,859,1532,1666,1860,1932,1806,1617,1685,1777
60293,17604,-16376,16998,-15770,-3800,-3800,-59,-202,83,12,104,3949,11,8,859,1532,1666,1860,1932,1806,1617,1685,1777
61294,17600,-16380,16998,-15770,-3800,-3800,-60,-204,83,19,84,3960,-4,1,859,1532,1666,1860,1932,1806,1617,1685,1777
62295,17604,-16368,16998,-15770,-3800,-3800,-58,-203,82,28,72,3935,-8,-6,859,1532,1666,1860,1932,1806,1617,1685,1777
63296,17600,-16376,16998,-15770,-3800,-3800,-57,-202,81,40,91,3970,10,8,859,1532,1666,1860,1932,1806,1617,1685,1777
64297,17612,-16388,16998,-15770,-3800,-3800,-58,-201,85,43,94,3935,-6,0,859,1531,1666,1861,1932,1806,1616,1686,1778
65298,17616,-16380,16998,-15770,-3800,-3800,-59,-202,84,11,84,3944,-8,-6,859,1531,1666,1861,1932,1806,1616,1686,1778
66299,17612,-16384,16998,-15770,-3800,-3800,-59,-204,83,6,98,3930,8,6,859,1531,1666,1861,1932,1806,1616,1686,1778
67300,17604,-16368,16998,-15770,-3800,-3800,-60,-205,83,6,106,3950,10,-7,859,1531,1666,1861,1932,1806,1616,1686,1778
68301,17612,-16368,16998,-15770,-3800,-3800,-57,-207,83,12,97,3952,1,5,859,1531,1666,1861,1932,1806,1616,1686,1778
69302,17612,-16376,16998,-15770,-3800,-3800,-56,-205,84,27,98,3912,-6,-5,858,1531,1666,1861,1932,1806,1616,1686,1778
70303,17604,-16376,16998,-15770,-3800,-3800,-56,-203,85,0,96,3930,9,-5,858,1533,1666,1861,1932,1804,1615,1684,1777
71304,17620,-16368,16998,-15770,-3800,-3800,-58,-202,84,-5,74,3925,11,8,859,1533,1666,1861,1932,1804,1615,1684,1777
72305,17608,-16384,16998,-15770,-3800,-3800,-59,-201,84,14,73,3948,8,-6,859,1533,1666,1861,1932,1804,1615,1684,1777
73306,17608,-16380,16998,-15770,-3800,-3800,-57,-204,84,20,86,3963,-8,7,859,1533,1666,1861,1932,1804,1615,1684,1777
74307,17604,-16392,16998,-15770,-3800,-3800,-56,-203,84,5,105,3976,-5,-7,859,1533,1666,1861,1932,1804,1615,1684,1777
75308,17604,-16368,16998,-15770,-3800,-3800,-56,-204,81,24,107,3968,7,6,859,1534,1668,1862,1933,1806,1618,1688,1778
76309,17608,-16372,16998,-15770,-3800,-3800,-58,-204,84,11,95,3951,7,-5,858,1534,1668,1862,1933,1806,1618,1688,1778
77310,17604,-16372,16998,-15770,-3800,-3800,-57,-203,84,-19,97,3957,-1,6,858,1534,1668,1862,1933,1806,1618,1688,1778
78311,17608,-16376,16998,-15770,-3800,-3800,-57,-203,83,2,104,3933,-7,-3,858,1534,1668,1862,1933,1806,1618,1688,1778
79312,17608,-16368,16998,-15770,-3800,-3800,-57,-202,82,11,110,3946,4,6,859,1534,1668,1862,1933,1806,1618,1688,1778
80313,17604,-16376,16998,-15770,-3800,-3800,-58,-202,85,26,105,3923,11,-4,859,1534,1668,1862,1933,1806,1618,1688,1778
81314,17604,-16380,16998,-15770,-3800,-3800,-54,-203,85,19,97,3903,4,0,859,1532,1665,1859,1930,1803,1615,1685,1777
82315,17608,-16372,16998,-15770,-3800,-3800,-54,-205,82,32,96,3933,-8,-4,858,1532,1665,1859,1930,1803,1615,1685,1777
83316,17616,-16376,16998,-15770,-3800,-3800,-56,-206,79,11,96,3950,-8,6,859,1532,1665,1859,1930,1803,1615,1685,1777
84320,17616,-16380,16998,-15770,-3800,-3800,-59,-204,80,21,93,3907,-4,-1,859,1532,1665,1859,1930,1803,1615,1685,1777
85318,17600,-16380,16998,-15770,-3800,-3800,-58,-203,83,29,98,3923,2,5,859,1532,1665,1859,1930,1803,1615,1685,1777
86319,17596,-16384,16998,-15770,-3800,-3800,-55,-204,83,-11,100,3962,0,-7,859,1535,1668,1864,1932,1805,1616,1685,1778
87320,17608,-16388,16998,-15770,-3800,-3800,-55,-204,84,-17,89,3956,8,7,858,1535,1668,1864,1932,1805,1616,1685,1778
88321,17608,-16392,16998,-15770,-3800,-3800,-57,-204,84,28,81,3953,-6,0,859,1535,1668,1864,1932,1805,1616,1685,1778
89322,17600,-16380,16998,-15770,-3800,-3800,-61,-203,83,35,84,3900,-8,1,859,1535,1668,1864,1932,1805,1616,1685,1778
90323,17604,-16380,16998,-15770,-3800,-3800,-62,-204,84,31,103,3879,1,-5,859,1535,1668,1864,1932,1805,1616,1685,1778
91324,17604,-16376,16998,-15770,-3800,-3800,-59,-206,83,8,100,3928,11,3,858,1535,1668,1864,1932,1805,1616,1685,1778
92325,17600,-16384,16998,-15770,-3800,-3800,-58,-205,82,28,95,3923,1,0,859,1532,1665,1859,1931,1805,1617,1686,1779
93326,17608,-16380,16998,-15770,-3800,-3800,-59,-204,81,18,105,3920,-8,2,859,1532,1665,1859,1931,1805,1617,1686,1779
94327,17612,-16380,16998,-15770,-3800,-3800,-58,-203,79,27,96,3951,3,4,859,1532,1665,1859,1931,1805,1617,1686,1779
95328,17608,-16384,16998,-15770,-3800,-3800,-58,-204,80,33,100,3981,10,-7,859,1532,1665,1859,1931,1805,1617,1686,1779
96329,17608,-16376,16998,-15770,-3800,-3800,-58,-204,81,19,119,3959,-1,8,859,1532,1665,1859,1931,1805,1617,1686,1779
97330,17608,-16376,16998,-15770,-3800,-3800,-60,-206,82,24,114,3956,-5,-2,859,1532,1666,1860,1932,1805,1616,1685,1777
98331,17596,-16372,16998,-15770,-3800,-3800,-59,-207,80,24,85,3967,3,-3,859,1532,1666,1860,1932,1805,1616,1685,1777
99332,17596,-16372,16998,-15770,-3800,-3800,-58,-207,81,38,104,3970,11,4,859,1532,1666,1860,1932,1805,1616,1685,1777
100333,17604,-16388,16998,-15770,-3800,-3800,-61,-203,82,47,99,3945,0,-6,859,1532,1666,1860,1932,1805,1616,1685,1777
101334,17600,-16372,16998,-15770,-3800,-3800,-61,-205,82,30,102,3932,-6,7,859,1532,1666,1860,1932,1805,1616,1685,1777
102335,17604,-16372,16998,-15770,-3800,-3800,-59,-205,83,9,109,3951,-3,-6,859,1532,1666,1860,1932,1805,1616,1685,1777
103336,17600,-16372,16998,-15770,-3800,-3800,-56,-203,82,19,102,3970,10,6,859,1533,1667,1861,1932,1805,1616,1685,1777
104337,17612,-16396,16998,-15770,-3800,-3800,-57,-201,81,28,85,3960,6,6,858,1533,1667,1861,1932,1805,1616,1685,1777
105338,17612,-16372,16998,-15770,-3800,-3800,-56,-204,80,37,96,3943,-4,-6,858,1533,1667,1861,1932,1805,1616,1685,1777
106339,17600,-16376,16998,-15770,-3800,-3800,-56,-206,82,42,102,3949,-5,8,859,1533,1667,1861,1932,1805,1616,1685,1777
107340,17604,-16380,16998,-15770,-3800,-3800,-60,-204,81,48,98,3959,-2,-5,859,1533,1667,1861,1932,1805,1616,1685,1777
108341,17600,-16368,16998,-15770,-3800,-3800,-61,-204,82,37,115,3948,11,7,859,1533,1665,1859,1931,1805,1617,1686,1779
109342,17612,-16372,16998,-15770,-3800,-3800,-59,-205,83,38,91,3942,2,-3,859,1533,1665,1859,1931,1805,1617,1686,1779
110343,17604,-16380,16998,-15770,-3800,-3800,-57,-206,83,50,77,3943,0,2,858,1533,1665,1859,1931,1805,1617,1686,1779
111344,17604,-16376,16998,-15770,-3800,-3800,-59,-204,81,22,77,3946,-6,-6,859,1533,1665,1859,1931,1805,1617,1686,1779
112345,17600,-16384,16998,-15770,-3800,-3800,-59,-203,80,15,97,3927,-8,6,859,1533,1665,1859,1931,1805,1617,1686,1779
113346,17604,-16384,16998,-15770,-3800,-3800,-60,-205,81,34,109,3977,-6,-5,859,1533,1665,1859,1931,1805,1617,1686,1779
114347,17616,-16372,16998,-15770,-3800,-3800,-60,-204,84,53,96,3949,-7,7,858,1533,1666,1860,1931,1804,1615,1684,1777
115348,17608,-16380,16998,-15770,-3800,-3800,-58,-202,84,50,99,3979,-4,-5,859,1533,1666,1860,1931,1804,1615,1684,1777
116349,17596,-16376,16998,-15770,-3800,-3800,-57,-202,82,31,122,3950,-4,4,859,1533,1666,1860,1931,1804,1615,1684,1777
117350,17600,-16376,16998,-15770,-3800,-3800,-57,-205,81,26,121,3933,-3,-5,859,1533,1666,1860,1931,1804,1615,1684,1777
118351,17608,-16368,16998,-15770,-3800,-3800,-58,-207,82,23,122,3935,0,4,859,1533,1666,1860,1931,1804,1615,1684,1777
119352,17604,-16372,16998,-15770,-3800,-3800,-59,-207,82,30,96,3933,0,2,859,1533,1667,1861,1931,1805,1615,1685,1777
120353,17604,-16396,16998,-15770,-3800,-3800,-59,-206,84,16,98,3998,7,0,859,1533,1667,1861,1931,1805,1615,1685,1777
121354,17616,-16380,16998,-15770,-3800,-3800,-59,-205,83,8,71,3967,4,8,857,1533,1667,1861,1931,1805,1615,1685,1777
122355,17612,-16384,16998,-15770,-3800,-3800,-58,-205,83,12,78,3954,2,-2,858,1533,1667,1861,1931,1805,1615,1685,1777
123356,17612,-16380,16998,-15770,-3800,-3800,-58,-204,84,19,95,3964,-5,4,859,1533,1667,1861,1931,1805,1615,1685,1777
124357,17604,-16380,16998,-15770,-3800,-3800,-58,-204,83,15,92,3967,-8,1,859,1533,1667,1861,1931,1805,1615,1685,1777
125358,17620,-16372,16998,-15770,-3800,-3800,-58,-203,80,9,102,3938,-6,-6,859,1533,1665,1860,1931,1805,1616,1686,1779
126359,17604,-16388,16998,-15770,-3800,-3800,-57,-204,86,28,90,3957,7,6,859,1533,1665,1860,1931,1805,1616,1686,1779
127360,17608,-16372,16998,-15770,-3800,-3800,-56,-203,87,18,96,3934,10,-7,859,1533,1665,1860,1931,1805,1616,1686,1779
128361,17612,-16384,16998,-15770,-3800,-3800,-58,-205,86,18,84,3923,8,5,858,1533,1665,1860,1931,1805,1616,1686,1779
129362,17596,-16384,16998,-15770,-3800,-3800,-60,-206,84,31,87,3937,-2,-6,859,1533,1665,1860,1931,1805,1616,1686,1779
130363,17620,-16388,16998,-15770,-3800,-3800,-59,-202,83,14,104,3943,-7,5,858,1533,1665,1860,1931,1805,1615,1684,1778
131364,17604,-16380,16998,-15770,-3800,-3800,-58,-201,83,6,87,3919,-4,-3,859,1533,1665,1860,1931,1805,1615,1684,1778
132365,17604,-16372,16998,-15770,-3800,-3800,-58,-204,84,8,100,3945,8,7,858,1533,1665,1860,1931,1805,1615,1684,1778
133366,17608,-16376,16998,-15770,-3800,-3800,-59,-204,85,30,72,3968,9,-5,859,1533,1665,1860,1931,1805,1615,1684,1778
134368,17612,-16372,16998,-15770,-3800,-3800,-59,-206,84,14,82,3938,8,7,859,1533,1665,1860,1931,1805,1615,1684,1778
135368,17604,-16380,16998,-15770,-3800,-3800,-59,-206,86,18,108,3924,-1,-6,859,1533,1665,1860,1931,1805,1615,1684,1778
136369,17608,-16372,16998,-15770,-3800,-3800,-59,-204,84,35,97,3964,-8,7,858,1534,1667,1862,1932,1806,1617,1685,1777
137370,17612,-16384,16998,-15770,-3800,-3800,-61,-202,82,39,78,3987,-4,-5,859,1534,1667,1862,1932,1806,1617,1685,1777
138371,17608,-16372,16998,-15770,-3800,-3800,-60,-201,82,49,97,3938,11,7,858,1534,1667,1862,1932,1806,1617,1685,1777
139372,17604,-16376,16998,-15770,-3800,-3800,-59,-204,82,33,94,3921,-3,-5,858,1534,1667,1862,1932,1806,1617,1685,1777
140373,17612,-16372,16998,-15770,-3800,-3800,-58,-203,82,13,87,3943,-7,-1,858,1534,1667,1862,1932,1806,1617,1685,1777
141374,17608,-16372,16998,-15770,-3800,-3800,-60,-203,83,13,69,3952,-6,2,859,1534,1666,1860,1931,1806,1617,1686,1780
142375,17604,-16384,16998,-15770,-3800,-3800,-62,-204,81,3,84,3935,-1,-6,859,1534,1666,1860,1931,1806,1617,1686,1780
143376,17616,-16384,16998,-15770,-3800,-3800,-61,-204,81,29,88,3947,-1,8,859,1534,1666,1860,1931,1806,1617,1686,1780
144377,17596,-16376,16998,-15770,-3800,-3800,-60,-203,84,15,102,3954,8,-7,859,1534,1666,1860,1931,1806,1617,1686,1780
145378,17608,-16368,16998,-15770,-3800,-3800,-61,-202,83,-18,109,3947,9,7,859,1534,1666,1860,1931,1806,1617,1686,1780
146379,17604,-16384,16998,-15770,-3800,-3800,-59,-205,82,-3,99,3895,7,-6,859,1534,1666,1860,1931,1806,1617,1686,1780
147380,17608,-16376,16998,-15770,-3800,-3800,-59,-205,83,0,105,3929,-1,8,859,1533,1665,1859,1929,1803,1611,1686,1779
148381,17612,-16388,16998,-15770,-3800,-3800,-58,-204,83,20,99,3979,-8,-7,859,1533,1665,1859,1929,1803,1611,1686,1779
149382,17608,-16384,16998,-15770,-3800,-3800,-58,-204,82,25,100,3966,-6,8,859,1533,1665,1859,1929,1803,1611,1686,1779
150383,17608,-16384,16998,-15770,-3800,-3800,-59,-204,83,7,76,3958,7,-6,859,1533,1665,1859,1929,1803,1611,1686,1779
151384,17608,-16384,16998,-15770,-3800,-3800,-59,-204,82,20,78,3941,10,7,859,1533,1665,1859,1929,1803,1611,1686,1779
152385,17612,-16376,16998,-15770,-3800,-3800,-59,-203,83,31,104,3946,8,-6,859,1533,1667,1861,1932,1805,1615,1684,1777
153386,17612,-16388,16998,-15770,-3800,-3800,-58,-202,81,25,101,3958,0,6,859,1533,1667,1861,1932,1805,1615,1684,1777
154387,17612,-16384,16998,-15770,-3800,-3800,-57,-204,81,11,80,3968,-8,-7,859,1533,1667,1861,1932,1805,1615,1684,1777
155388,17596,-16368,16998,-15770,-3800,-3800,-58,-204,78,28,84,3936,-4,2,858,1533,1667,1861,1932,1805,1615,1684,1777
156389,17608,-16372,16998,-15770,-3800,-3800,-59,-202,81,27,92,3936,9,-1,858,1533,1667,1861,1932,1805,1615,1684,1777
157390,17608,-16372,16998,-15770,-3800,-3800,-58,-203,82,19,82,3935,11,2,858,1533,1667,1861,1932,1805,1615,1684,1777
158391,17604,-16380,16998,-15770,-3800,-3800,-60,-203,82,19,96,3948,11,2,859,1530,1663,1858,1932,1806,1618,1686,1780
159392,17612,-16368,16998,-15770,-3800,-3800,-59,-204,80,8,98,3924,11,1,859,1530,1663,1858,1932,1806,1618,1686,1780
160393,17608,-16368,16998,-15770,-3800,-3800,-58,-204,81,2,97,3974,3,4,859,1530,1663,1858,1932,1806,1618,1686,1780
161394,17608,-16376,16998,-15770,-3800,-3800,-58,-205,81,-1,111,3969,-5,-3,859,1530,1663,1858,1932,1806,1618,1686,1780
162395,17600,-16384,16998,-15770,-3800,-3800,-59,-205,80,26,85,3952,-6,1,859,1530,1663,1858,1932,1806,1618,1686,1780
163396,17612,-16372,16998,-15770,-3800,-3800,-60,-204,81,41,107,3949,7,-3,858,1532,1665,1860,1931,1804,1615,1684,1776
164397,17604,-16376,16998,-15770,-3800,-3800,-63,-204,83,47,111,3945,10,3,859,1532,1665,1860,1931,1804,1615,1684,1776
165398,17608,-16380,16998,-15770,-3800,-3800,-59,-205,84,47,101,3943,6,4,858,1532,1665,1860,1931,1804,1615,1684,1776
166399,17600,-16376,16998,-15770,-3800,-3800,-57,-205,83,20,79,3941,-7,-3,858,1532,1665,1860,1931,1804,1615,1684,1776
167400,17608,-16368,16998,-15770,-3800,-3800,-56,-205,82,26,92,3946,-8,1,859,1532,1665,1860,1931,1804,1615,1684,1776
168401,17600,-16376,16998,-15770,-3800,-3800,-56,-205,80,38,101,3949,3,-6,859,1532,1665,1860,1931,1804,1615,1684,1776
169402,17608,-16372,16998,-15770,-3800,-3800,-57,-205,82,34,89,3918,11,4,859,1535,1668,1864,1932,1805,1616,1685,1778
170403,17596,-16376,16998,-15770,-3800,-3800,-55,-204,85,17,111,3922,9,-1,859,1535,1668,1864,1932,1805,1616,1685,1778
171404,17608,-16364,16998,-15770,-3800,-3800,-57,-205,84,3,86,3922,-6,5,858,1535,1668,1864,1932,1805,1616,1685,1778
172405,17612,-16380,16998,-15770,-3800,-3800,-58,-206,84,18,87,3944,-1,1,857,1535,1668,1864,1932,1805,1616,1685,1778
173406,17612,-16376,16998,-15770,-3800,-3800,-57,-205,83,38,103,3922,4,-4,858,1535,1668,1864,1932,1805,1616,1685,1778
174407,17612,-16380,16998,-15770,-3800,-3800,-57,-203,85,31,86,3939,9,-1,859,1533,1664,1859,1931,1804,1615,1685,1779
175408,17604,-16380,16998,-15770,-3800,-3800,-56,-201,83,28,79,3948,-5,4,859,1533,1664,1859,1931,1804,1615,1685,1779
176409,17612,-16372,16998,-15770,-3800,-3800,-59,-203,81,23,100,3920,-7,-4,859,1533,1664,1859,1931,1804,1615,1685,1779
177410,17604,-16376,16998,-15770,-3800,-3800,-58,-204,82,34,86,3901,8,8,858,1533,1664,1859,1931,1804,1615,1685,1779
178411,17600,-16376,16998,-15770,-3800,-3800,-56,-203,84,42,76,3947,5,-7,858,1533,1664,1859,1931,1804,1615,1685,1779
179412,17608,-16380,16998,-15770,-3800,-3800,-57,-202,86,31,101,3950,-2,6,859,1533,1664,1859,1931,1804,1615,1685,1779
180413,17600,-16372,16998,-15770,-3800,-3800,-58,-204,84,21,105,3947,-6,3,859,1533,1666,1860,1931,1805,1616,1684,1778
181414,17616,-16380,16998,-15770,-3800,-3800,-57,-204,84,12,113,3939,3,-3,859,1533,1666,1860,1931,1805,1616,1684,1778
182415,17612,-16388,16998,-15770,-3800,-3800,-58,-203,86,6,108,3927,7,3,858,1533,1666,1860,1931,1805,1616,1684,1778
183416,17608,-16376,16998,-15770,-3800,-3800,-59,-202,85,21,92,3928,10,-7,859,1533,1666,1860,1931,1805,1616,1684,1778
184417,17608,-16368,16998,-15770,-3800,-3800,-58,-203,85,26,78,3939,-5,8,859,1533,1666,1860,1931,1805,1616,1684,1778
185418,17608,-16380,16998,-15770,-3800,-3800,-57,-204,86,23,99,3937,-7,-7,859,1533,1667,1861,1932,1805,1616,1684,1779
186419,17616,-16376,16998,-15770,-3800,-3800,-58,-204,85,14,89,3945,7,5,859,1533,1667,1861,1932,1805,1616,1684,1779
187420,17608,-16372,16998,-15770,-3800,-3800,-60,-201,84,13,76,3972,2,-4,859,1533,1667,1861,1932,1805,1616,1684,1779
188421,17604,-16368,16998,-15770,-3800,-3800,-60,-199,84,25,85,3983,-7,7,859,1533,1667,1861,1932,1805,1616,1684,1779
189422,17624,-16380,16998,-15770,-3800,-3800,-58,-200,86,62,85,3946,8,-6,858,1533,1667,1861,1932,1805,1616,1684,1779
190423,17616,-16384,16998,-15770,-3800,-3800,-59,-200,84,42,84,3903,4,1,858,1533,1667,1861,1932,1805,1616,1684,1779
191424,17604,-16376,16998,-15770,-3800,-3800,-60,-203,83,24,100,3898,-5,1,859,1533,1666,1859,1931,1804,1615,1686,1779
192425,17604,-16380,16998,-15770,-3800,-3800,-58,-204,82,40,99,3931,0,4,859,1533,1666,1859,1931,1804,1615,1686,1779
193426,17604,-16384,16998,-15770,-3800,-3800,-61,-201,82,31,110,3909,8,-6,859,1533,1666,1859,1931,1804,1615,1686,1779
194427,17608,-16372,16998,-15770,-3800,-3800,-61,-200,83,15,108,3918,-2,8,859,1533,1666,1859,1931,1804,1615,1686,1779
195428,17600,-16376,16998,-15770,-3800,-3800,-59,-201,82,14,102,3922,-8,-1,858,1533,1666,1859,1931,1804,1615,1686,1779
196429,17608,-16376,16998,-15770,-3800,-3800,-59,-201,80,34,92,3937,1,-1,859,1534,1665,1859,1929,1802,1614,1684,1778
197430,17612,-16388,16998,-15770,-3800,-3800,-58,-202,81,15,87,3927,3,5,859,1534,1665,1859,1929,1802,1614,1684,1778
198431,17592,-16380,16998,-15770,-3800,-3800,-59,-204,84,36,100,3915,11,-6,859,1534,1665,1859,1929,1802,1614,1684,1778
199432,17620,-16380,16998,-15770,-3800,-3800,-61,-204,84,26,120,3948,5,5,858,1534,1665,1859,1929,1802,1614,1684,1778
200433,17612,-16384,17063,-15705,-146,1303,-61,-205,84,21,105,3929,-3,-2,858,1534,1665,1859,1929,1802,1614,1684,1778
201434,17600,-16384,17128,-15640,-3,1333,-59,-204,83,14,96,3938,-4,10,858,1534,1665,1859,1929,1802,1614,1684,1778
202435,17612,-16384,17193,-15575,-238,1412,-60,-204,82,21,77,3919,-5,10,847,1533,1667,1860,1932,1805,1615,1684,1777
203436,17600,-16372,17258,-15510,156,1327,-61,-203,83,23,95,3930,-2,16,852,1533,1667,1860,1932,1805,1615,1684,1777
204437,17604,-16360,17323,-15445,30,1392,-63,-200,84,26,86,3891,13,34,851,1533,1667,1860,1932,1805,1615,1684,1777
205438,17616,-16308,17388,-15380,-5,908,-64,-199,73,86,99,3942,5,38,851,1533,1667,1860,1932,1805,1615,1684,1777
206439,17608,-16220,17453,-15315,334,430,-62,-212,75,-96,88,4045,1,41,851,1533,1667,1860,1932,1805,1615,1684,1777
207440,17604,-16116,17518,-15250,369,184,-62,-239,86,-224,203,4133,12,47,854,1531,1651,1849,1931,1803,1614,1686,1782
208441,17604,-16036,17583,-15185,398,465,-63,-284,84,-202,141,4111,1,46,856,1531,1651,1849,1931,1803,1614,1686,1782
209442,17612,-15956,17648,-15120,366,447,-62,-309,80,-202,123,4289,17,44,857,1531,1651,1849,1931,1803,1614,1686,1782
210443,17608,-15860,17713,-15055,602,210,-61,-311,80,167,51,4054,16,47,856,1531,1651,1849,1931,1803,1614,1686,1782
211444,17628,-15772,17778,-14990,357,282,-75,-291,69,258,-12,3977,22,47,856,1531,1651,1849,1931,1803,1614,1686,1782
212445,17624,-15696,17843,-14925,741,419,-90,-253,48,201,32,4018,19,54,856,1538,1672,1867,1936,1812,1622,1695,1793
213446,17648,-15624,17908,-14860,441,461,-103,-213,43,37,14,3934,9,53,857,1538,1672,1867,1936,1812,1622,1695,1793
214447,17664,-15544,17973,-14795,601,343,-105,-186,31,-25,-17,3906,23,42,854,1538,1672,1867,1936,1812,1622,1695,1793
215448,17696,-15460,18038,-14730,441,270,-115,-199,19,-90,14,3817,22,44,856,1538,1672,1867,1936,1812,1622,1695,1793
216449,17736,-15376,18103,-14665,371,246,-112,-245,23,-175,-55,3949,35,43,855,1538,1672,1867,1936,1812,1622,1695,1793
217450,17772,-15312,18168,-14600,457,499,-110,-319,36,-457,-49,3850,29,53,856,1538,1672,1867,1936,1812,1622,1695,1793
218451,17812,-15228,18233,-14535,437,225,-100,-368,36,-418,32,4072,24,48,857,1538,1672,1868,1934,1828,1634,1702,1801
219452,17860,-15160,18298,-14470,358,422,-97,-421,33,-269,-84,3763,31,54,856,1538,1672,1868,1934,1828,1634,1702,1801
220453,17900,-15076,18363,-14405,490,199,-86,-445,40,-141,-93,4133,37,43,857,1538,1672,1868,1934,1828,1634,1702,1801
221454,17964,-14972,18428,-14340,191,-98,-90,-427,38,-29,-119,3885,41,43,856,1538,1672,1868,1934,1828,1634,1702,1801
222455,17988,-14900,18493,-14275,741,293,-87,-411,21,-34,-125,4000,34,48,856,1538,1672,1868,1934,1828,1634,1702,1801
223456,18044,-14824,18558,-14210,352,230,-75,-396,11,48,-132,4123,45,44,857,1530,1665,1857,1921,1827,1631,1704,1805
224457,18112,-14728,18623,-14145,198,-58,-72,-387,8,-109,-145,4070,37,54,854,1530,1665,1857,1921,1827,1631,1704,1805
225458,18180,-14648,18688,-14080,196,125,-66,-388,2,27,-99,4116,34,37,856,1530,1665,1857,1921,1827,1631,1704,1805
226459,18232,-14584,18753,-14015,411,326,-60,-394,-10,-13,5,3922,42,36,857,1530,1665,1857,1921,1827,1631,1704,1805
227460,18304,-14512,18818,-13950,153,218,-59,-397,-2,-20,14,3981,48,51,857,1530,1665,1857,1921,1827,1631,1704,1805
228461,18388,-14444,18883,-13885,-20,264,-64,-404,-1,-70,37,3740,42,35,856,1530,1665,1857,1921,1827,1631,1704,1805
229462,18432,-14364,18948,-13820,505,97,-67,-407,1,-201,164,3915,33,46,858,1528,1662,1849,1920,1824,1628,1704,1798
230463,18492,-14300,19013,-13755,312,298,-72,-429,11,-366,114,3738,33,49,858,1528,1662,1849,1920,1824,1628,1704,1798
231464,18564,-14232,19078,-13690,154,244,-74,-443,22,-176,191,4054,33,44,856,1528,1662,1849,1920,1824,1628,1704,1798
232465,18628,-14164,19143,-13625,255,240,-73,-474,33,-267,157,3905,34,40,857,1528,1662,1849,1920,1824,1628,1704,1798
233466,18692,-14112,19208,-13560,256,456,-63,-530,35,-381,90,3865,34,38,857,1528,1662,1849,1920,1824,1628,1704,1798
234467,18772,-14052,19273,-13495,38,363,-54,-547,38,-258,96,4104,39,41,857,1521,1654,1841,1914,1834,1638,1714,1811
235468,18856,-14000,19338,-13430,-35,479,-40,-563,35,-138,39,3797,41,35,856,1521,1654,1841,1914,1834,1638,1714,1811
236469,18904,-13944,19403,-13365,437,440,-27,-546,24,-98,2,3935,34,38,857,1521,1654,1841,1914,1834,1638,1714,1811
237470,18984,-13896,19468,-13300,18,561,-7,-535,16,-22,-2,3812,38,43,857,1521,1654,1841,1914,1834,1638,1714,1811
238471,19052,-13836,19533,-13235,165,417,11,-503,3,73,24,3908,46,32,856,1521,1654,1841,1914,1834,1638,1714,1811
239472,19116,-13784,19598,-13170,216,534,29,-502,-6,24,18,3759,42,30,856,1521,1654,1841,1914,1834,1638,1714,1811
240473,19168,-13720,19663,-13105,382,385,49,-486,-12,13,18,3805,46,37,856,1518,1651,1839,1911,1851,1649,1722,1822
241474,19236,-13672,19728,-13040,179,606,61,-488,-13,-63,8,3721,36,32,855,1518,1651,1839,1911,1851,1649,1722,1822
242475,19304,-13612,19793,-12975,175,462,71,-483,-18,-8,18,3890,36,44,856,1518,1651,1839,1911,1851,1649,1722,1822
243476,19368,-13560,19858,-12910,227,579,75,-488,-18,-23,67,3719,32,43,856,1518,1651,1839,1911,1851,1649,1722,1822
244477,19436,-13508,19923,-12845,173,595,73,-484,-13,-121,54,3735,38,42,856,1518,1651,1839,1911,1851,1649,1722,1822
245478,19504,-13436,19988,-12780,169,336,70,-474,-1,-129,132,3877,45,47,856,1518,1648,1836,1913,1841,1643,1715,1805
246479,19560,-13364,20053,-12715,330,328,66,-480,-1,-106,94,3753,40,35,856,1518,1648,1836,1913,1841,1643,1715,1805
247480,19624,-13304,20118,-12650,233,485,61,-503,2,-51,82,3966,31,44,857,1518,1648,1836,1913,1841,1643,1715,1805
248481,19692,-13252,20183,-12585,179,601,60,-519,16,-153,78,3952,48,42,857,1518,1648,1836,1913,1841,1643,1715,1805
249482,19760,-13180,20248,-12520,175,342,54,-521,18,-46,61,3893,36,35,856,1518,1648,1836,1913,1841,1643,1715,1805
250483,19816,-13112,20313,-12455,336,389,44,-514,22,130,58,3939,45,31,856,1518,1648,1836,1913,1841,1643,1715,1805
251484,19868,-13068,20378,-12390,402,715,32,-512,32,138,84,4007,34,31,857,1514,1642,1832,1911,1846,1650,1722,1814
252485,19936,-12996,20443,-12325,199,357,30,-487,36,21,31,3863,32,31,856,1514,1642,1832,1911,1846,1650,1722,1814
253486,19988,-12924,20508,-12260,415,348,25,-480,32,107,-24,3993,42,29,854,1514,1642,1832,1911,1846,1650,1722,1814
254487,20048,-12852,20573,-12195,321,340,31,-482,31,153,-20,3963,43,32,857,1514,1642,1832,1911,1846,1650,1722,1814
255488,20140,-12796,20638,-12130,-112,551,41,-469,32,146,-9,4025,42,42,856,1514,1642,1832,1911,1846,1650,1722,1814
256489,20180,-12744,20703,-12065,569,617,51,-473,16,83,-36,4004,31,29,857,1512,1635,1831,1910,1862,1666,1735,1831
257490,20236,-12680,20768,-12000,381,469,68,-450,10,249,2,4013,32,35,853,1512,1635,1831,1910,1862,1666,1735,1831
258491,20308,-12624,20833,-11935,172,580,75,-432,10,202,29,4074,46,42,853,1512,1635,1831,1910,1862,1666,1735,1831
259492,20368,-12556,20898,-11870,328,427,74,-415,9,227,95,4051,42,32,856,1512,1635,1831,1910,1862,1666,1735,1831
260493,20428,-12508,20963,-11805,335,698,79,-415,8,150,68,3997,45,45,856,1512,1635,1831,1910,1862,1666,1735,1831
261497,20492,-12440,21028,-11740,286,444,75,-433,9,-3,52,4005,32,45,856,1512,1635,1831,1910,1862,1666,1735,1831
262495,20564,-12388,21093,-11675,178,660,81,-440,12,45,177,4082,32,48,855,1517,1643,1838,1920,1870,1674,1741,1830
263496,20636,-12320,21158,-11610,170,457,73,-451,12,-30,279,3888,34,38,856,1517,1643,1838,1920,1870,1674,1741,1830
264497,20692,-12264,21223,-11545,381,618,64,-453,13,98,246,4129,30,46,856,1517,1643,1838,1920,1870,1674,1741,1830
265498,20752,-12200,21288,-11480,337,519,55,-468,21,62,206,3876,39,47,856,1517,1643,1838,1920,1870,1674,1741,1830
266499,20824,-12132,21353,-11415,178,466,55,-480,24,70,193,4005,34,37,855,1517,1643,1838,1920,1870,1674,1741,1830
267500,20876,-12072,21418,-11350,445,573,50,-473,12,118,210,4036,41,40,856,1521,1645,1837,1923,1871,1674,1743,1835
268501,20924,-11996,21483,-11285,516,359,34,-452,10,213,98,4061,33,33,857,1521,1645,1837,1923,1871,1674,1743,1835
269502,20996,-11928,21548,-11220,207,456,38,-416,8,412,214,4114,47,32,855,1521,1645,1837,1923,1871,1674,1743,1835
270503,21048,-11868,21613,-11155,473,563,46,-392,7,395,166,4226,41,40,856,1521,1645,1837,1923,1871,1674,1743,1835
271504,21120,-11816,21678,-11090,215,679,58,-372,1,179,138,3985,43,34,856,1521,1645,1837,1923,1871,1674,1743,1835
272505,21160,-11740,21743,-11025,646,365,61,-368,-9,231,62,4182,39,32,855,1521,1645,1837,1923,1871,1674,1743,1835
273506,21232,-11676,21808,-10960,238,517,67,-362,-17,178,89,4267,45,41,856,1516,1640,1833,1914,1873,1674,1740,1834
274507,21292,-11620,21873,-10895,394,629,77,-328,-24,128,44,4088,49,31,854,1516,1640,1833,1914,1873,1674,1740,1834
275508,21336,-11560,21938,-10830,619,585,81,-339,-28,285,137,4223,40,40,855,1516,1640,1833,1914,1873,1674,1740,1834
276509,21424,-11496,22003,-10765,41,536,98,-327,-29,90,55,4110,44,37,855,1516,1640,1833,1914,1873,1674,1740,1834
277510,21480,-11440,22068,-10700,453,647,92,-347,-36,-131,115,4066,44,30,854,1516,1640,1833,1914,1873,1674,1740,1834
278511,21536,-11368,22133,-10635,464,439,107,-348,-41,-8,250,4172,33,43,856,1516,1639,1838,1924,1876,1678,1746,1833
279512,21592,-11300,22198,-10570,475,486,98,-362,-32,-25,180,4134,46,47,855,1516,1639,1838,1924,1876,1678,1746,1833
280513,21664,-11228,22263,-10505,267,427,105,-358,-35,103,281,4171,39,46,856,1516,1639,1838,1924,1876,1678,1746,1833
281514,21724,-11180,22328,-10440,424,749,100,-360,-27,115,311,4145,44,32,855,1516,1639,1838,1924,1876,1678,1746,1833
282515,21780,-11124,22393,-10375,485,660,88,-361,-12,24,162,3988,52,29,856,1516,1639,1838,1924,1876,1678,1746,1833
283516,21844,-11068,22458,-10310,386,671,75,-357,4,65,218,4016,44,31,854,1516,1639,1838,1924,1876,1678,1746,1833
284517,21920,-11008,22523,-10245,223,627,56,-355,11,43,220,3870,50,41,854,1526,1649,1846,1937,1869,1675,1746,1833
285518,21988,-10948,22588,-10180,320,634,49,-341,21,183,306,3893,48,35,855,1526,1649,1846,1937,1869,1675,1746,1833
286519,22040,-10888,22653,-10115,536,640,43,-358,37,110,165,3870,37,37,855,1526,1649,1846,1937,1869,1675,1746,1833
287520,22124,-10824,22718,-10050,113,591,48,-372,36,99,271,3867,33,36,855,1526,1649,1846,1937,1869,1675,1746,1833
288521,22176,-10764,22783,-9985,528,648,36,-377,37,109,157,3867,45,43,854,1526,1649,1846,1937,1869,1675,1746,1833
289522,22240,-10708,22848,-9920,380,709,43,-358,42,298,207,4070,35,32,856,1534,1654,1850,1936,1874,1676,1745,1836
290523,22312,-10652,22913,-9855,272,720,40,-389,47,302,24,3781,51,37,854,1534,1654,1850,1936,1874,1676,1745,1836
291524,22368,-10588,22978,-9790,483,622,45,-389,36,198,146,4247,44,26,854,1534,1654,1850,1936,1874,1676,1745,1836
292525,22448,-10524,23043,-9725,165,624,57,-393,48,426,181,4067,32,41,854,1534,1654,1850,1936,1874,1676,1745,1836
293526,22496,-10460,23108,-9660,586,625,60,-391,31,251,67,4015,30,25,854,1534,1654,1850,1936,1874,1676,1745,1836
294527,22556,-10412,23173,-9595,443,846,63,-393,14,22,86,4153,33,28,856,1534,1654,1850,1936,1874,1676,1745,1836
295528,22628,-10376,23238,-9530,284,1032,66,-398,17,133,110,3983,36,39,854,1524,1643,1841,1922,1873,1673,1741,1836
296529,22692,-10296,23303,-9465,385,464,61,-414,10,171,68,3911,50,27,853,1524,1643,1841,1922,1873,1673,1741,1836
297530,22756,-10224,23368,-9400,387,555,63,-404,6,43,79,4103,42,39,853,1524,1643,1841,1922,1873,1673,1741,1836
298531,22816,-10184,23433,-9335,444,987,54,-388,9,-40,102,3976,48,27,856,1524,1643,1841,1922,1873,1673,1741,1836
299532,22872,-10132,23498,-9270,505,853,47,-374,14,63,184,3999,33,30,855,1524,1643,1841,1922,1873,1673,1741,1836
300533,22936,-10084,23563,-9205,406,923,37,-402,28,-49,66,3646,34,39,852,1532,1656,1853,1938,1876,1677,1749,1841
301534,23008,-10016,23628,-9140,297,671,25,-408,46,-132,178,3993,51,26,853,1532,1656,1853,1938,1876,1677,1749,1841
302535,23068,-9964,23693,-9075,453,887,23,-412,65,-2,206,3782,36,28,853,1532,1656,1853,1938,1876,1677,1749,1841
303536,23148,-9924,23758,-9010,186,1067,21,-385,65,72,140,3934,48,33,854,1532,1656,1853,1938,1876,1677,1749,1841
304537,23204,-9864,23823,-8945,497,824,27,-370,75,166,167,3897,39,23,853,1532,1656,1853,1938,1876,1677,1749,1841
305538,23264,-9820,23888,-8880,453,1050,28,-367,93,42,196,3786,34,35,853,1532,1656,1853,1938,1876,1677,1749,1841
306539,23336,-9752,23953,-8815,295,746,25,-344,102,-111,204,3900,50,26,853,1547,1672,1869,1957,1883,1684,1757,1847
307540,23380,-9700,24018,-8750,671,963,27,-328,96,121,127,3736,35,40,852,1547,1672,1869,1957,1883,1684,1757,1847
308541,23460,-9648,24083,-8685,203,979,35,-312,94,78,172,4011,43,27,854,1547,1672,1869,1957,1883,1684,1757,1847
309545,23512,-9584,24148,-8620,569,830,45,-313,99,100,185,3853,46,38,851,1547,1672,1869,1957,1883,1684,1757,1847
310543,23576,-9556,24213,-8555,420,1326,52,-321,101,75,148,3918,32,36,853,1547,1672,1869,1957,1883,1684,1757,1847
311544,23652,-9488,24278,-8490,258,823,58,-337,102,62,219,3928,43,39,853,1552,1672,1868,1958,1880,1681,1751,1834
312545,23716,-9440,24343,-8425,409,1094,54,-349,105,19,225,3964,46,40,850,1552,1672,1868,1958,1880,1681,1751,1834
313546,23772,-9400,24408,-8360,520,1225,61,-342,99,233,271,4166,45,29,854,1552,1672,1868,1958,1880,1681,1751,1834
314547,23836,-9324,24473,-8295,421,762,58,-346,99,205,304,4064,46,33,852,1552,1672,1868,1958,1880,1681,1751,1834
315548,23896,-9256,24538,-8230,478,859,61,-347,104,130,196,4122,50,34,851,1552,1672,1868,1958,1880,1681,1751,1834
316549,23944,-9184,24603,-8165,649,800,58,-341,103,86,223,4094,30,47,854,1552,1672,1868,1958,1880,1681,1751,1834
317550,24012,-9112,24668,-8100,395,792,63,-324,96,96,166,4238,50,32,853,1547,1664,1861,1957,1866,1674,1746,1831
318551,24084,-9060,24733,-8035,337,1059,74,-318,101,286,188,3987,35,29,853,1547,1664,1861,1957,1866,1674,1746,1831
319552,24140,-8992,24798,-7970,549,855,82,-302,107,329,205,4168,31,28,854,1547,1664,1861,1957,1866,1674,1746,1831
320553,24180,-8940,24863,-7905,779,1072,82,-303,113,292,252,4084,36,38,852,1547,1664,1861,1957,1866,1674,1746,1831
321554,24264,-8856,24928,-7840,206,649,83,-298,118,43,136,3975,44,35,853,1547,1664,1861,1957,1866,1674,1746,1831
322555,24328,-8820,24993,-7775,457,1284,83,-313,125,-50,19,3877,38,41,850,1554,1678,1877,1974,1876,1683,1754,1843
323556,24376,-8756,25058,-7710,679,936,93,-323,132,-105,-43,3941,38,39,855,1554,1678,1877,1974,1876,1683,1754,1843
324557,24452,-8692,25123,-7645,316,938,101,-342,136,-33,127,3879,49,35,850,1554,1678,1877,1974,1876,1683,1754,1843
325558,24540,-8640,25188,-7580,138,1104,115,-349,148,-85,98,3998,34,30,851,1554,1678,1877,1974,1876,1683,1754,1843
326559,24604,-8580,25253,-7515,439,1011,121,-389,158,78,88,3864,37,43,853,1554,1678,1877,1974,1876,1683,1754,1843
327560,24660,-8520,25318,-7450,551,1017,112,-423,176,-28,104,3730,32,39,853,1554,1678,1877,1974,1876,1683,1754,1843
328561,24716,-8468,25383,-7385,562,1134,112,-428,185,122,217,4031,44,36,852,1576,1699,1902,1998,1885,1690,1762,1848
329562,24788,-8412,25448,-7320,353,1095,112,-422,197,310,103,4051,53,41,851,1576,1699,1902,1998,1885,1690,1762,1848
330563,24852,-8328,25513,-7255,454,722,117,-400,200,302,101,3903,33,44,851,1576,1699,1902,1998,1885,1690,1762,1848
331564,24920,-8276,25578,-7190,402,1138,113,-383,201,317,116,4056,36,30,852,1576,1699,1902,1998,1885,1690,1762,1848
332565,24980,-8212,25643,-7125,508,989,122,-365,195,267,186,4176,33,43,854,1576,1699,1902,1998,1885,1690,1762,1848
333566,25036,-8140,25708,-7060,569,882,123,-356,189,218,122,4044,45,44,851,1587,1707,1908,2003,1879,1685,1756,1843
334567,25104,-8084,25773,-6995,415,1093,126,-341,180,307,145,4131,35,35,852,1587,1707,1908,2003,1879,1685,1756,1843
335568,25176,-8020,25838,-6930,358,995,122,-323,176,311,151,4302,38,46,853,1587,1707,1908,2003,1879,1685,1756,1843
336569,25224,-7956,25903,-6865,678,996,134,-321,168,143,129,3948,36,44,852,1587,1707,1908,2003,1879,1685,1756,1843
337570,25288,-7888,25968,-6800,480,943,137,-334,161,132,82,4190,31,35,853,1587,1707,1908,2003,1879,1685,1756,1843
338571,25356,-7848,26033,-6735,426,1324,143,-352,158,44,124,4036,46,34,851,1587,1707,1908,2003,1879,1685,1756,1843
339572,25412,-7772,26098,-6670,588,861,147,-385,157,-1,130,4025,49,43,853,1588,1706,1908,2005,1870,1678,1749,1835
340573,25464,-7692,26163,-6605,654,793,149,-400,155,-59,104,4067,32,43,850,1588,1706,1908,2005,1870,1678,1749,1835
341574,25512,-7628,26228,-6540,725,995,158,-415,149,-192,58,4014,49,31,852,1588,1706,1908,2005,1870,1678,1749,1835
342575,25564,-7580,26293,-6475,690,1216,164,-417,151,-35,41,3976,38,44,852,1588,1706,1908,2005,1870,1678,1749,1835
343576,25640,-7500,26358,-6410,378,798,174,-433,167,48,4,3872,54,39,850,1588,1706,1908,2005,1870,1678,1749,1835
344577,25696,-7448,26423,-6345,639,1164,183,-446,188,125,82,3799,43,44,850,1597,1721,1925,2023,1870,1678,1753,1839
345578,25784,-7376,26488,-6280,211,906,190,-460,191,118,162,3810,37,31,854,1597,1721,1925,2023,1870,1678,1753,1839
346579,25852,-7304,26553,-6215,457,898,193,-457,204,67,85,3918,49,35,850,1597,1721,1925,2023,1870,1678,1753,1839
347580,25924,-7236,26618,-6150,400,945,197,-436,215,181,133,3859,32,41,854,1597,1721,1925,2023,1870,1678,1753,1839
348581,25984,-7200,26683,-6085,556,1381,185,-404,231,298,122,3841,36,39,853,1597,1721,1925,2023,1870,1678,1753,1839
349582,26044,-7156,26748,-6020,562,1306,191,-373,234,309,207,3953,50,33,853,1597,1721,1925,2023,1870,1678,1753,1839
350583,26108,-7104,26813,-5955,513,1223,193,-371,239,150,195,3844,39,41,849,1615,1741,1941,2040,1864,1675,1753,1839
351584,26168,-7032,26878,-5890,570,965,200,-376,238,84,199,3888,39,41,850,1615,1741,1941,2040,1864,1675,1753,1839
352585,26248,-6964,26943,-5825,302,1012,204,-388,228,192,236,3863,35,43,850,1615,1741,1941,2040,1864,1675,1753,1839
353586,26312,-6908,27008,-5760,503,1173,211,-398,228,68,221,4000,35,33,852,1615,1741,1941,2040,1864,1675,1753,1839
354587,26372,-6872,27073,-5695,560,1459,216,-400,221,273,185,3942,31,41,852,1615,1741,1941,2040,1864,1675,1753,1839
355588,26424,-6812,27138,-5630,676,1165,223,-402,206,169,188,4020,40,35,851,1625,1747,1946,2045,1857,1668,1745,1831
356589,26480,-6732,27203,-5565,637,898,219,-413,207,80,154,3943,49,41,848,1625,1747,1946,2045,1857,1668,1745,1831
357590,26548,-6668,27268,-5500,483,1099,227,-421,212,36,97,3969,45,29,850,1625,1747,1946,2045,1857,1668,1745,1831
358591,26616,-6612,27333,-5435,481,1210,232,-424,202,36,101,3942,36,27,852,1625,1747,1946,2045,1857,1668,1745,1831
359593,26684,-6572,27398,-5370,477,1442,242,-425,190,4,53,4018,50,36,851,1625,1747,1946,2045,1857,1668,1745,1831
360593,26736,-6520,27463,-5305,693,1308,254,-423,190,226,142,4036,47,28,850,1625,1747,1946,2045,1857,1668,1745,1831
361594,26796,-6460,27528,-5240,599,1215,258,-427,201,170,66,3973,48,29,849,1627,1751,1952,2051,1861,1671,1747,1837
362595,26880,-6408,27593,-5175,277,1331,258,-425,205,-2,111,3850,44,37,849,1627,1751,1952,2051,1861,1671,1747,1837
363596,26936,-6340,27658,-5110,638,1128,256,-424,213,-27,133,3896,37,39,850,1627,1751,1952,2051,1861,1671,1747,1837
364597,27000,-6284,27723,-5045,539,1289,254,-409,212,136,150,3805,42,31,851,1627,1751,1952,2051,1861,1671,1747,1837
365598,27064,-6228,27788,-4980,541,1301,267,-392,209,147,168,3997,36,37,850,1627,1751,1952,2051,1861,1671,1747,1837
366599,27124,-6176,27853,-4915,597,1367,266,-386,215,203,177,3747,35,33,850,1636,1763,1966,2062,1869,1678,1758,1849
367600,27180,-6132,27918,-4850,658,1493,270,-384,225,138,212,3837,38,37,850,1636,1763,1966,2062,1869,1678,1758,1849
368601,27252,-6056,27983,-4785,450,1080,268,-374,237,25,220,3905,48,44,849,1636,1763,1966,2062,1869,1678,1758,1849
369602,27312,-6004,28048,-4720,607,1397,262,-364,230,95,281,3798,49,32,847,1636,1763,1966,2062,1869,1678,1758,1849
370603,27380,-5940,28113,-4655,503,1248,263,-352,238,108,259,3932,45,32,852,1636,1763,1966,2062,1869,1678,1758,1849
371604,27444,-5880,28178,-4590,554,1305,270,-348,242,91,317,3890,40,42,848,1636,1763,1966,2062,1869,1678,1758,1849
372605,27496,-5812,28243,-4525,720,1202,273,-349,245,-8,303,4009,32,41,850,1641,1770,1967,2066,1878,1682,1764,1855
373606,27568,-5744,28308,-4460,463,1199,285,-355,236,182,264,3777,47,41,849,1641,1770,1967,2066,1878,1682,1764,1855
374607,27628,-5680,28373,-4395,619,1250,287,-381,235,47,251,3938,34,27,849,1641,1770,1967,2066,1878,1682,1764,1855
375608,27684,-5616,28438,-4330,680,1251,295,-390,226,86,279,4011,45,29,851,1641,1770,1967,2066,1878,1682,1764,1855
376609,27752,-5576,28503,-4265,527,1583,292,-380,210,190,306,4013,50,40,849,1641,1770,1967,2066,1878,1682,1764,1855
377610,27816,-5508,28568,-4200,578,1229,307,-364,208,152,73,4042,37,25,848,1637,1766,1966,2056,1875,1677,1756,1853
378611,27872,-5448,28633,-4135,689,1336,313,-379,203,159,272,4029,36,33,847,1637,1766,1966,2056,1875,1677,1756,1853
379612,27924,-5400,28698,-4070,755,1507,327,-383,194,20,201,4097,42,40,850,1637,1766,1966,2056,1875,1677,1756,1853
380613,27976,-5336,28763,-4005,772,1309,345,-387,183,249,298,3936,45,39,849,1637,1766,1966,2056,1875,1677,1756,1853
381614,28032,-5296,28828,-3940,733,1640,342,-386,172,165,265,4111,44,33,847,1637,1766,1966,2056,1875,1677,1756,1853
382615,28100,-5272,28893,-3875,580,1891,353,-385,175,224,224,3970,37,30,848,1637,1766,1966,2056,1875,1677,1756,1853
383616,28152,-5204,28958,-3810,796,1338,352,-390,170,219,268,3998,44,39,847,1638,1771,1974,2066,1877,1678,1760,1859
384617,28224,-5140,29023,-3745,538,1389,358,-395,177,45,222,3969,51,32,845,1638,1771,1974,2066,1877,1678,1760,1859
385618,28288,-5072,29088,-3680,639,1337,351,-408,179,32,290,3844,43,33,848,1638,1771,1974,2066,1877,1678,1760,1859
386619,28360,-5004,29153,-3615,532,1333,353,-408,171,147,311,3924,34,44,849,1638,1771,1974,2066,1877,1678,1760,1859
387620,28428,-4960,29218,-3550,578,1660,343,-425,172,193,338,3781,35,42,849,1638,1771,1974,2066,1877,1678,1760,1859
388621,28492,-4880,29283,-3485,629,1191,347,-446,181,152,332,3799,31,46,849,1663,1795,1998,2092,1874,1678,1763,1860
389622,28552,-4832,29348,-3420,685,1613,332,-460,176,147,416,3849,33,35,847,1663,1795,1998,2092,1874,1678,1763,1860
390623,28608,-4748,29413,-3355,747,1140,336,-462,177,4,356,3901,38,46,850,1663,1795,1998,2092,1874,1678,1763,1860
391624,28680,-4700,29478,-3290,539,1612,326,-465,179,254,363,3899,42,41,847,1663,1795,1998,2092,1874,1678,1763,1860
392625,28744,-4640,29543,-3225,640,1468,329,-472,178,268,292,3941,38,47,850,1663,1795,1998,2092,1874,1678,1763,1860
393626,28804,-4568,29608,-3160,697,1310,324,-481,171,153,320,3921,32,34,846,1663,1795,1998,2092,1874,1678,1763,1860
394627,28876,-4516,29673,-3095,538,1576,332,-478,160,96,377,4050,40,32,847,1675,1808,2005,2096,1877,1678,1763,1863
395628,28944,-4436,29738,-3030,585,1209,332,-469,149,184,385,4085,50,31,849,1675,1808,2005,2096,1877,1678,1763,1863
396629,29000,-4372,29803,-2965,747,1410,354,-459,135,227,419,4267,30,39,847,1675,1808,2005,2096,1877,1678,1763,1863
397630,29056,-4320,29868,-2900,758,1577,372,-460,118,246,341,4053,39,35,850,1675,1808,2005,2096,1877,1678,1763,1863
398631,29128,-4264,29933,-2835,549,1539,381,-465,96,130,422,4218,33,36,847,1675,1808,2005,2096,1877,1678,1763,1863
399632,29180,-4208,29998,-2770,815,1550,394,-477,82,80,351,4169,34,29,847,1664,1796,1994,2081,1881,1679,1765,1869
400633,29240,-4156,30063,-2705,722,1617,404,-496,68,167,355,4090,41,40,847,1664,1796,1994,2081,1881,1679,1765,1869
401634,29272,-4096,30128,-2640,1112,1523,412,-496,62,68,475,4266,40,40,846,1664,1796,1994,2081,1881,1679,1765,1869
402635,29340,-4048,30193,-2575,659,1695,420,-505,57,26,421,4112,43,38,846,1664,1796,1994,2081,1881,1679,1765,1869
403636,29404,-3988,30258,-2510,711,1551,431,-520,46,91,464,4083,45,29,845,1664,1796,1994,2081,1881,1679,1765,1869
404637,29472,-3932,30323,-2445,657,1613,431,-547,54,34,274,4025,47,30,846,1664,1796,1994,2081,1881,1679,1765,1869
405638,29532,-3876,30388,-2380,763,1624,442,-569,72,-138,308,3964,49,42,847,1661,1800,1999,2087,1883,1679,1769,1873
406639,29596,-3820,30453,-2315,716,1636,438,-596,79,-129,361,3759,45,44,847,1661,1800,1999,2087,1883,1679,1769,1873
407640,29656,-3744,30518,-2250,772,1373,444,-578,74,120,496,4105,40,30,846,1661,1800,1999,2087,1883,1679,1769,1873
408641,29736,-3692,30583,-2185,503,1689,441,-566,79,239,494,3972,49,38,846,1661,1800,1999,2087,1883,1679,1769,1873
409642,29788,-3644,30648,-2120,870,1761,447,-564,88,145,487,4022,36,38,847,1661,1800,1999,2087,1883,1679,1769,1873
410643,29852,-3580,30713,-2055,722,1562,440,-551,81,236,547,3990,39,43,847,1682,1824,2020,2106,1890,1685,1775,1879
411644,29904,-3524,30778,-1990,887,1674,442,-526,73,291,646,4167,32,43,844,1682,1824,2020,2106,1890,1685,1775,1879
412645,29964,-3464,30843,-1925,794,1630,442,-500,72,301,573,4118,30,31,847,1682,1824,2020,2106,1890,1685,1775,1879
413646,30032,-3404,30908,-1860,691,1637,448,-490,59,338,533,4086,48,39,844,1682,1824,2020,2106,1890,1685,1775,1879
414647,30068,-3352,30973,-1795,1126,1754,457,-498,50,154,510,4257,44,31,845,1682,1824,2020,2106,1890,1685,1775,1879
415648,30132,-3300,31038,-1730,778,1770,464,-519,47,27,484,4166,42,33,846,1682,1824,2020,2106,1890,1685,1775,1879
416649,30200,-3228,31103,-1665,725,1512,473,-539,32,26,474,4213,53,49,844,1687,1824,2020,2107,1891,1686,1772,1879
417650,30248,-3156,31168,-1600,996,1504,476,-558,19,-82,405,4174,42,38,845,1687,1824,2020,2107,1891,1686,1772,1879
418651,30308,-3084,31233,-1535,853,1496,488,-577,15,-41,370,4340,36,40,847,1687,1824,2020,2107,1891,1686,1772,1879
419652,30384,-3024,31298,-1470,639,1653,498,-601,-3,7,439,4200,50,48,846,1687,1824,2020,2107,1891,1686,1772,1879
420653,30440,-2944,31363,-1405,900,1385,508,-614,-17,39,449,4292,40,48,846,1687,1824,2020,2107,1891,1686,1772,1879
421654,30504,-2876,31428,-1340,802,1533,509,-610,-23,268,449,4279,39,41,846,1681,1817,2021,2107,1895,1690,1774,1884
422655,30572,-2820,31493,-1275,749,1693,510,-599,-34,176,451,4204,50,46,847,1681,1817,2021,2107,1895,1690,1774,1884
423656,30624,-2748,31558,-1210,965,1486,501,-583,-41,95,451,4276,40,33,846,1681,1817,2021,2107,1895,1690,1774,1884
424657,30676,-2688,31623,-1145,982,1642,487,-563,-42,206,534,4289,50,44,846,1681,1817,2021,2107,1895,1690,1774,1884
425658,30736,-2620,31688,-1080,888,1539,471,-545,-32,240,609,4294,42,48,846,1681,1817,2021,2107,1895,1690,1774,1884
426659,30792,-2576,31753,-1015,949,1866,456,-531,-7,151,595,4231,41,49,845,1681,1817,2021,2107,1895,1690,1774,1884
427660,30860,-2496,31818,-950,796,1398,444,-509,5,355,602,4174,46,46,845,1694,1836,2038,2126,1910,1705,1794,1905
428661,30920,-2436,31883,-885,902,1655,422,-489,14,114,711,4217,39,38,843,1694,1836,2038,2126,1910,1705,1794,1905
429662,30964,-2368,31948,-820,1129,1551,418,-456,33,137,695,4215,47,42,847,1694,1836,2038,2126,1910,1705,1794,1905
430663,31028,-2304,32013,-755,880,1603,407,-454,41,365,637,4122,55,35,845,1694,1836,2038,2126,1910,1705,1794,1905
431664,31096,-2256,32078,-690,826,1825,409,-467,52,-67,622,4319,48,48,844,1694,1836,2038,2126,1910,1705,1794,1905
432665,31168,-2192,32143,-625,769,1626,405,-479,71,65,527,4137,48,48,845,1696,1837,2041,2128,1945,1736,1818,1935
433666,31248,-2120,32208,-560,650,1519,418,-499,70,111,572,4342,50,49,844,1696,1837,2041,2128,1945,1736,1818,1935
434667,31312,-2060,32273,-495,852,1675,435,-525,65,41,572,4345,55,35,846,1696,1837,2041,2128,1945,1736,1818,1935
435668,31372,-2012,32338,-430,909,1847,457,-547,53,214,615,4328,40,46,847,1696,1837,2041,2128,1945,1736,1818,1935
436669,31448,-1948,32403,-365,695,1649,481,-568,38,156,576,4455,48,42,845,1696,1837,2041,2128,1945,1736,1818,1935
437670,31520,-1872,32468,-300,738,1485,499,-585,25,158,568,4296,48,49,844,1680,1819,2031,2113,1970,1748,1825,1943
438671,31584,-1816,32533,-235,839,1747,509,-581,5,326,730,4454,35,39,846,1680,1819,2031,2113,1970,1748,1825,1943
439672,31656,-1752,32598,-170,730,1649,505,-558,-15,327,757,4423,41,35,847,1680,1819,2031,2113,1970,1748,1825,1943
440673,31716,-1672,32663,-105,888,1431,503,-538,-38,479,811,4339,51,43,845,1680,1819,2031,2113,1970,1748,1825,1943
441674,31780,-1608,32728,-40,839,1634,499,-513,-48,477,855,4481,36,35,846,1680,1819,2031,2113,1970,1748,1825,1943
442675,31840,-1540,32793,25,895,1580,493,-494,-40,372,953,4262,51,34,847,1680,1819,2031,2113,1970,1748,1825,1943
443676,31900,-1468,32858,90,902,1522,480,-482,-59,412,866,4118,47,33,846,1690,1832,2048,2130,1966,1746,1826,1944
444677,31964,-1408,32923,155,853,1678,461,-484,-81,69,878,4262,45,40,845,1690,1832,2048,2130,1966,1746,1826,1944
445678,32016,-1332,32988,220,1019,1466,459,-465,-78,140,909,4368,51,35,845,1690,1832,2048,2130,1966,1746,1826,1944
446679,32080,-1276,33053,285,871,1728,449,-467,-69,336,847,4054,44,38,845,1690,1832,2048,2130,1966,1746,1826,1944
447680,32156,-1216,33118,350,708,1684,441,-496,-63,-32,761,4102,41,31,846,1690,1832,2048,2130,1966,1746,1826,1944
448681,32220,-1164,33183,415,859,1801,430,-524,-58,-164,780,3986,37,37,844,1709,1857,2071,2159,1974,1759,1839,1962
449682,32288,-1116,33382,614,1657,2722,429,-545,-50,-17,850,4068,48,41,846,1709,1857,2071,2159,1974,1759,1839,1962
450683,32344,-1040,33447,679,1818,2360,432,-570,-42,159,842,3954,44,17,844,1709,1857,2071,2159,1974,1759,1839,1962
451684,32424,-964,33512,744,1501,2347,440,-594,-22,46,716,4077,50,42,831,1709,1857,2071,2159,1974,1759,1839,1962
452685,32496,-880,33577,809,1592,2224,457,-619,4,15,668,4019,70,52,833,1709,1857,2071,2159,1974,1759,1839,1962
453686,32596,-804,33642,874,1200,2312,471,-632,20,2,561,3981,68,64,835,1709,1857,2071,2159,1974,1759,1839,1962
454687,32684,-716,33707,939,1322,2135,493,-652,17,73,631,3968,74,51,837,1722,1868,2090,2172,1995,1777,1849,1975
455688,32812,-624,33772,1004,745,2052,505,-682,16,30,729,4123,80,60,839,1722,1868,2090,2172,1995,1777,1849,1975
456689,32912,-508,33837,1069,1054,1691,516,-707,23,183,836,4116,85,72,839,1722,1868,2090,2172,1995,1777,1849,1975
457690,33012,-432,33902,1134,1011,2177,554,-718,3,382,1098,4117,73,74,844,1722,1868,2090,2172,1995,1777,1849,1975
458691,33108,-328,33967,1199,1023,1781,561,-730,-30,285,1178,4347,67,61,844,1722,1868,2090,2172,1995,1777,1849,1975
459692,33220,-220,34032,1264,767,1679,563,-741,-63,264,1441,4395,71,73,841,1728,1872,2092,2176,2004,1780,1858,1981
460694,33324,-108,34097,1329,819,1572,561,-739,-88,708,1455,4505,67,67,846,1728,1872,2092,2176,2004,1780,1858,1981
461694,33448,8,34162,1394,497,1460,611,-725,-91,922,1241,4441,74,65,846,1728,1872,2092,2176,2004,1780,1858,1981
462695,33544,116,34227,1459,810,1508,609,-754,-107,466,1154,4050,65,54,849,1728,1872,2092,2176,2004,1780,1858,1981
463696,33636,228,34292,1524,827,1402,635,-821,-155,334,1272,4399,51,58,847,1728,1872,2092,2176,2004,1780,1858,1981
464697,33736,288,34357,1589,685,2058,610,-956,-147,1133,1260,3239,55,57,847,1728,1872,2092,2176,2004,1780,1858,1981
465698,33840,360,34422,1654,587,1900,500,-952,-235,-1481,222,4813,69,41,843,1747,1889,2112,2208,2019,1801,1879,2006
466699,33908,464,34487,1719,1033,1452,400,-754,-367,-2324,905,6024,53,44,845,1747,1889,2112,2208,2019,1801,1879,2006
467700,33988,552,34552,1784,866,1625,460,-695,-261,1532,1292,3873,48,50,846,1747,1889,2112,2208,2019,1801,1879,2006
468701,34068,628,34617,1849,848,1762,515,-794,-169,2375,1008,3219,56,46,846,1747,1889,2112,2208,2019,1801,1879,2006
469702,34144,684,34682,1914,884,2024,482,-856,-239,-191,874,3766,48,55,845,1747,1889,2112,2208,2019,1801,1879,2006
470703,34232,776,34747,1979,706,1541,453,-890,-289,-2282,1071,4340,51,42,842,1763,1915,2151,2240,2091,1872,1935,2076
471704,34324,844,34812,2044,624,1837,465,-915,-272,-275,923,3530,68,52,847,1763,1915,2151,2240,2091,1872,1935,2076
472705,34392,928,34877,2109,921,1615,493,-820,-210,1412,643,4350,46,55,846,1763,1915,2151,2240,2091,1872,1935,2076
473706,34468,1016,34942,2174,807,1537,496,-761,-163,487,837,4205,54,51,846,1763,1915,2151,2240,2091,1872,1935,2076
474707,34552,1100,35007,2239,684,1565,508,-795,-156,-739,876,3735,60,49,847,1763,1915,2151,2240,2091,1872,1935,2076
475708,34624,1184,35072,2304,825,1542,539,-796,-172,-546,1027,3942,44,47,847,1763,1915,2151,2240,2091,1872,1935,2076
476709,34692,1268,35137,2369,872,1519,558,-821,-179,277,1139,3714,44,54,847,1741,1887,2138,2216,2140,1907,1945,2079
477710,34764,1360,35202,2434,814,1387,595,-832,-185,435,1305,3940,48,61,845,1741,1887,2138,2216,2140,1907,1945,2079
478711,34828,1448,35267,2499,915,1409,597,-879,-202,152,1240,3759,53,57,847,1741,1887,2138,2216,2140,1907,1945,2079
479712,34908,1540,35332,2564,697,1327,606,-884,-234,-227,1251,4189,56,49,847,1741,1887,2138,2216,2140,1907,1945,2079
480713,34992,1608,35397,2629,624,1623,589,-922,-257,-201,1350,3689,51,54,848,1741,1887,2138,2216,2140,1907,1945,2079
481714,35056,1684,35462,2694,875,1510,575,-945,-283,277,1388,4096,41,51,847,1711,1847,2095,2182,2102,1867,1908,2034
482715,35120,1744,35527,2759,876,1717,563,-973,-303,255,1485,4079,42,41,846,1711,1847,2095,2182,2102,1867,1908,2034
483716,35188,1836,35592,2824,824,1284,556,-994,-325,254,1616,4123,47,51,845,1711,1847,2095,2182,2102,1867,1908,2034
484717,35260,1920,35657,2889,765,1361,552,-1053,-347,852,1613,3883,44,44,847,1711,1847,2095,2182,2102,1867,1908,2034
485718,35328,1980,35722,2954,811,1667,517,-1097,-376,866,1511,3992,39,43,847,1711,1847,2095,2182,2102,1867,1908,2034
486721,35396,2056,35787,3019,808,1455,410,-1026,-459,182,1340,4201,50,53,846,1711,1847,2095,2182,2102,1867,1908,2034
487720,35468,2124,35852,3084,749,1551,258,-839,-537,318,1517,4117,41,52,847,1716,1847,2092,2184,2065,1840,1896,2033
488721,35544,2212,35917,3149,686,1273,99,-671,-551,1169,1408,3646,53,53,847,1716,1847,2092,2184,2065,1840,1896,2033
489722,35608,2260,35982,3214,837,1795,1,-592,-517,1039,1023,3688,54,52,849,1716,1847,2092,2184,2065,1840,1896,2033
490723,35668,2312,36047,3279,894,1761,-9,-617,-484,317,816,3592,50,44,844,1716,1847,2092,2184,2065,1840,1896,2033
491724,35736,2408,36112,3344,790,1173,73,-708,-481,-465,760,3619,42,56,845,1716,1847,2092,2184,2065,1840,1896,2033
492725,35808,2480,36177,3409,732,1466,189,-802,-479,-523,619,3723,54,46,849,1711,1847,2105,2166,2165,1928,1951,2119
493726,35876,2568,36242,3474,778,1237,302,-820,-466,-144,389,3705,37,46,847,1711,1847,2105,2166,2165,1928,1951,2119
494727,35948,2636,36307,3539,720,1484,371,-847,-420,-68,621,3429,36,44,848,1711,1847,2105,2166,2165,1928,1951,2119
495728,36012,2696,36372,3604,821,1591,396,-880,-405,-246,720,3333,37,43,846,1711,1847,2105,2166,2165,1928,1951,2119
496729,36084,2764,36437,3669,712,1487,384,-885,-407,-501,815,3667,43,37,846,1711,1847,2105,2166,2165,1928,1951,2119
497730,36148,2824,36502,3734,814,1593,363,-880,-401,-224,1148,3604,35,36,847,1711,1847,2105,2166,2165,1928,1951,2119
498731,36220,2876,36567,3799,706,1710,320,-878,-408,-42,1366,3492,52,32,846,1674,1833,2099,2152,2151,1888,1924,2078
499732,36288,2944,36632,3864,752,1507,291,-843,-428,204,1651,3776,40,33,845,1674,1833,2099,2152,2151,1888,1924,2078
500733,36364,2988,36697,3929,639,1832,260,-842,-447,454,1826,3633,37,33,847,1674,1833,2099,2152,2151,1888,1924,2078
501734,36416,3048,36762,3994,955,1639,224,-836,-476,287,1810,3717,47,44,845,1674,1833,2099,2152,2151,1888,1924,2078
502735,36492,3108,36827,4059,641,1645,186,-803,-498,227,1842,3612,37,35,845,1674,1833,2099,2152,2151,1888,1924,2078
503736,36572,3172,36892,4124,573,1598,128,-753,-506,638,1833,3589,50,41,846,1706,1863,2089,2155,2067,1815,1884,2026
504737,36636,3236,36957,4189,774,1599,61,-688,-518,885,1832,3757,37,35,847,1706,1863,2089,2155,2067,1815,1884,2026
505738,36708,3300,37022,4254,667,1600,1,-612,-531,816,1750,3480,41,51,846,1706,1863,2089,2155,2067,1815,1884,2026
506739,36780,3368,37087,4319,658,1547,-44,-574,-550,809,1678,3516,46,54,847,1706,1863,2089,2155,2067,1815,1884,2026
507740,36844,3440,37152,4384,759,1489,-84,-567,-567,740,1557,3501,54,54,847,1706,1863,2089,2155,2067,1815,1884,2026
508741,36908,3520,37217,4449,761,1371,-106,-564,-567,602,1332,3497,49,59,847,1706,1863,2089,2155,2067,1815,1884,2026
509742,36980,3584,37282,4514,652,1573,-120,-577,-580,442,1247,3361,38,51,848,1740,1882,2117,2185,2068,1833,1884,2042
510743,37036,3668,37347,4579,863,1300,-101,-589,-583,402,1001,3531,35,59,847,1740,1882,2117,2185,2068,1833,1884,2042
511744,37112,3736,37412,4644,600,1496,-79,-640,-579,326,979,3193,46,46,848,1740,1882,2117,2185,2068,1833,1884,2042
512745,37168,3820,37477,4709,861,1274,-77,-701,-577,-46,943,3480,37,44,847,1740,1882,2117,2185,2068,1833,1884,2042
513746,37236,3904,37542,4774,707,1251,-43,-742,-567,101,884,3250,36,52,848,1740,1882,2117,2185,2068,1833,1884,2042
514747,37304,3992,37607,4839,704,1172,-1,-758,-530,287,1058,3489,53,54,849,1722,1864,2132,2180,2128,1877,1904,2072
515748,37372,4072,37672,4904,701,1255,48,-792,-507,457,930,2971,52,52,849,1722,1864,2132,2180,2128,1877,1904,2072
516749,37444,4148,37737,4969,642,1292,76,-849,-505,-71,1037,3201,52,40,849,1722,1864,2132,2180,2128,1877,1904,2072
517750,37520,4216,37802,5034,579,1388,90,-906,-505,-83,1256,3205,54,40,849,1722,1864,2132,2180,2128,1877,1904,2072
518751,37596,4292,37867,5099,565,1276,84,-927,-486,194,1380,3208,52,39,849,1722,1864,2132,2180,2128,1877,1904,2072
519752,37652,4364,37932,5164,826,1317,82,-935,-477,483,1411,3035,46,51,850,1722,1864,2132,2180,2128,1877,1904,2072
520753,37720,4428,37997,5229,673,1418,56,-945,-473,320,1533,3160,35,46,848,1723,1879,2135,2181,2084,1826,1876,2031
521754,37792,4516,38062,5294,614,1091,34,-947,-480,302,1734,3053,50,58,848,1723,1879,2135,2181,2084,1826,1876,2031
522755,37856,4584,38127,5359,715,1338,-3,-934,-483,365,1843,3086,57,52,851,1723,1879,2135,2181,2084,1826,1876,2031
523756,37928,4632,38192,5424,607,1608,-37,-909,-484,702,1920,3204,50,56,848,1723,1879,2135,2181,2084,1826,1876,2031
524757,38008,4712,38257,5489,489,1190,-72,-909,-470,860,1932,3145,56,57,847,1723,1879,2135,2181,2084,1826,1876,2031
525758,38064,4796,38322,5554,800,1118,-111,-889,-457,636,1946,3287,40,52,851,1746,1901,2117,2171,2015,1765,1843,1995
526759,38152,4872,38387,5619,372,1204,-141,-835,-438,418,1917,3386,36,52,849,1746,1901,2117,2171,2015,1765,1843,1995
527760,38228,4948,38452,5684,509,1191,-177,-770,-428,601,1902,3532,44,49,851,1746,1901,2117,2171,2015,1765,1843,1995
528761,38300,5028,38517,5749,550,1124,-222,-726,-411,779,1611,3499,55,60,850,1746,1901,2117,2171,2015,1765,1843,1995
529762,38376,5104,38582,5814,487,1160,-257,-711,-399,619,1609,3702,38,57,850,1746,1901,2117,2171,2015,1765,1843,1995
530763,38452,5192,38647,5879,474,982,-267,-694,-369,470,1468,3509,38,46,851,1746,1901,2117,2171,2015,1765,1843,1995
531764,38524,5280,38712,5944,515,954,-228,-709,-352,537,1473,3295,42,55,852,1732,1884,2104,2150,2041,1795,1857,2027
532765,38584,5352,38777,6009,671,1147,-189,-750,-366,204,1244,3306,46,49,851,1732,1884,2104,2150,2041,1795,1857,2027
533766,38648,5428,38842,6074,622,1083,-146,-830,-386,-183,1266,3162,50,55,850,1732,1884,2104,2150,2041,1795,1857,2027
534769,38736,5504,38907,6139,294,1070,-110,-932,-385,-141,1064,3022,45,53,850,1732,1884,2104,2150,2041,1795,1857,2027
535768,38792,5568,38972,6204,705,1221,-76,-1011,-363,137,1011,2983,50,52,852,1732,1884,2104,2150,2041,1795,1857,2027
536769,38852,5644,39037,6269,661,1058,-51,-1083,-330,-40,880,2920,44,50,849,1710,1859,2127,2170,2120,1863,1892,2064
537770,38924,5704,39102,6334,504,1265,-43,-1122,-310,-173,1052,2955,50,41,850,1710,1859,2127,2170,2120,1863,1892,2064
538771,38992,5760,39167,6399,550,1326,-41,-1143,-278,211,1149,2993,54,52,850,1710,1859,2127,2170,2120,1863,1892,2064
539772,39068,5836,39232,6464,437,1062,-38,-1159,-233,814,1116,2911,43,52,849,1710,1859,2127,2170,2120,1863,1892,2064
540773,39136,5896,39297,6529,533,1269,-50,-1147,-211,627,1278,3067,39,42,851,1710,1859,2127,2170,2120,1863,1892,2064
541774,39204,5976,39362,6594,529,1001,-65,-1118,-198,478,1573,3027,47,42,850,1710,1859,2127,2170,2120,1863,1892,2064
542775,39272,6048,39427,6659,526,1092,-92,-1071,-191,988,1785,3255,51,41,852,1739,1889,2147,2191,2087,1834,1882,2040
543776,39348,6120,39492,6724,412,1084,-140,-992,-166,1289,1667,3283,55,47,851,1739,1889,2147,2191,2087,1834,1882,2040
544777,39420,6196,39557,6789,454,1021,-190,-894,-132,1165,1673,3379,55,52,851,1739,1889,2147,2191,2087,1834,1882,2040
545778,39492,6248,39622,6854,445,1337,-263,-821,-114,854,1752,3221,38,41,851,1739,1889,2147,2191,2087,1834,1882,2040
546779,39568,6316,39687,6919,382,1134,-342,-762,-85,718,1813,3373,52,52,849,1739,1889,2147,2191,2087,1834,1882,2040
547780,39644,6396,39752,6984,368,965,-417,-708,-53,767,1743,3370,45,57,851,1755,1899,2128,2179,2040,1795,1857,2008
548781,39720,6468,39817,7049,355,1057,-477,-695,-41,451,1637,3314,51,48,853,1755,1899,2128,2179,2040,1795,1857,2008
549782,39804,6532,39882,7114,232,1159,-511,-671,-26,18,1492,3419,35,45,852,1755,1899,2128,2179,2040,1795,1857,2008
550783,39864,6616,39947,7179,538,886,-515,-690,-1,162,1688,3170,36,37,851,1755,1899,2128,2179,2040,1795,1857,2008
551784,39932,6672,40012,7244,434,1247,-509,-746,10,355,1542,3114,36,36,852,1755,1899,2128,2179,2040,1795,1857,2008
552785,40008,6740,40077,7309,321,1093,-491,-800,21,-88,1086,3162,47,33,850,1755,1899,2128,2179,2040,1795,1857,2008
553786,40084,6816,40142,7374,307,980,-477,-845,38,-451,855,3230,51,35,852,1707,1847,2095,2142,2116,1862,1894,2064
554787,40136,6876,40207,7439,623,1187,-450,-860,72,-105,734,3086,34,47,852,1707,1847,2095,2142,2116,1862,1894,2064
555788,40204,6936,40272,7504,420,1193,-428,-860,124,87,798,3230,43,46,850,1707,1847,2095,2142,2116,1862,1894,2064
556789,40288,6996,40337,7569,196,1199,-417,-839,182,240,782,3100,53,49,851,1707,1847,2095,2142,2116,1862,1894,2064
557790,40360,7048,40402,7634,338,1315,-418,-801,250,502,708,3392,43,36,851,1707,1847,2095,2142,2116,1862,1894,2064
558791,40436,7108,40467,7699,274,1222,-415,-719,296,902,936,3408,39,35,850,1677,1826,2098,2136,2153,1888,1910,2080
559792,40516,7172,40532,7764,206,1173,-423,-638,344,919,923,3418,56,52,851,1677,1826,2098,2136,2153,1888,1910,2080
560793,40584,7232,40597,7829,352,1229,-444,-516,379,982,1139,3534,53,39,851,1677,1826,2098,2136,2153,1888,1910,2080
561794,40652,7316,40662,7894,349,906,-483,-405,417,1275,1386,3595,36,44,851,1677,1826,2098,2136,2153,1888,1910,2080
562795,40740,7392,40727,7959,71,993,-527,-298,446,1343,1390,3380,48,57,853,1677,1826,2098,2136,2153,1888,1910,2080
563796,40804,7448,40792,8024,372,1255,-586,-237,479,964,1356,3353,45,57,853,1677,1826,2098,2136,2153,1888,1910,2080
564797,40888,7524,40857,8089,99,991,-662,-201,487,822,1448,3132,43,44,851,1702,1846,2098,2152,2104,1849,1888,2028
565798,40964,7608,40922,8154,185,868,-760,-180,496,296,1385,3078,41,47,853,1702,1846,2098,2152,2104,1849,1888,2028
566799,41032,7688,40987,8219,282,900,-842,-152,525,295,1495,3066,44,52,854,1702,1846,2098,2152,2104,1849,1888,2028
567800,41116,7776,41052,8284,58,773,-897,-149,571,672,1433,2930,38,39,853,1702,1846,2098,2152,2104,1849,1888,2028
568801,41184,7848,41117,8349,255,964,-941,-176,584,467,1118,2828,37,53,855,1702,1846,2098,2152,2104,1849,1888,2028
569802,41256,7920,41182,8414,196,956,-975,-200,571,-62,975,3047,47,51,853,1707,1841,2090,2154,2095,1850,1881,2029
570803,41332,8008,41247,8479,133,727,-1004,-189,567,107,1189,3214,49,50,853,1707,1841,2090,2154,2095,1850,1881,2029
571804,41416,8076,41312,8544,10,974,-1029,-152,609,708,932,3065,57,52,855,1707,1841,2090,2154,2095,1850,1881,2029
572805,41488,8152,41377,8609,151,860,-1048,-80,678,1130,624,3234,51,45,854,1707,1841,2090,2154,2095,1850,1881,2029
573806,41564,8224,41442,8674,88,903,-1060,-38,732,749,519,3033,53,53,854,1707,1841,2090,2154,2095,1850,1881,2029
574807,41632,8292,41507,8739,184,949,-1059,55,783,480,355,3441,44,42,854,1707,1841,2090,2154,2095,1850,1881,2029
575808,41704,8376,41572,8804,125,726,-1067,149,853,658,375,3085,46,55,854,1677,1815,2080,2128,2139,1889,1909,2067
576809,41784,8436,41637,8869,7,1032,-1092,256,933,1076,530,3345,35,56,855,1677,1815,2080,2128,2139,1889,1909,2067
577810,41860,8536,41702,8934,44,489,-1121,320,1012,1409,763,3244,49,43,854,1677,1815,2080,2128,2139,1889,1909,2067
578811,41944,8612,41767,8999,-80,776,-1158,341,1073,1005,799,2916,50,56,856,1677,1815,2080,2128,2139,1889,1909,2067
579812,42072,8696,41832,9064,-706,654,-1182,395,1113,450,744,3045,51,58,854,1677,1815,2080,2128,2139,1889,1909,2067
580813,42184,8768,41897,9129,-564,795,-1213,483,1143,694,863,3072,52,56,855,1669,1811,2075,2131,2140,1890,1909,2051
581814,42280,8860,41962,9194,-402,512,-1255,531,1154,1060,1047,2738,44,49,855,1669,1811,2075,2131,2140,1890,1909,2051
582815,42352,8948,42027,9259,-111,534,-1308,541,1143,912,1400,2719,47,52,857,1669,1811,2075,2131,2140,1890,1909,2051
583816,42408,9048,42092,9324,100,341,-1352,532,1178,278,1156,2479,41,46,856,1669,1811,2075,2131,2140,1890,1909,2051
584817,42488,9116,42157,9389,-219,738,-1400,549,1193,426,1150,2807,46,60,857,1669,1811,2075,2131,2140,1890,1909,2051
585818,42544,9212,42222,9454,92,350,-1430,594,1183,885,1142,2551,54,44,847,1669,1811,2075,2131,2140,1890,1909,2051
586819,42628,9296,42287,9519,-281,477,-1473,624,1162,965,1111,2739,50,55,857,1669,1800,2054,2115,2100,1848,1874,2008
587820,42700,9384,42352,9584,-139,399,-1513,706,1170,620,976,3164,47,55,857,1669,1800,2054,2115,2100,1848,1874,2008
588821,42760,9468,42417,9649,17,426,-1570,798,1217,755,770,2925,36,41,853,1669,1800,2054,2115,2100,1848,1874,2008
589822,42836,9540,42482,9714,-197,568,-1613,922,1261,1198,703,3328,40,47,857,1669,1800,2054,2115,2100,1848,1874,2008
590823,42900,9620,42547,9779,-46,450,-1660,1055,1286,1224,637,3181,36,51,849,1669,1800,2054,2115,2100,1848,1874,2008
591824,42960,9700,42612,9844,10,431,-1699,1177,1318,887,526,3387,40,57,857,1641,1780,2022,2074,2054,1816,1847,1972
592825,43016,9776,42677,9909,71,468,-1740,1289,1351,732,469,3411,33,50,856,1641,1780,2022,2074,2054,1816,1847,1972
593826,43076,9852,42742,9974,27,454,-1759,1334,1377,903,548,3249,49,50,856,1641,1780,2022,2074,2054,1816,1847,1972
594827,43152,9912,42807,10039,-187,661,-1760,1300,1406,797,565,2778,53,45,857,1641,1780,2022,2074,2054,1816,1847,1972
595828,43200,9996,42872,10104,184,337,-1751,1237,1421,370,456,2931,46,48,849,1641,1780,2022,2074,2054,1816,1847,1972
596829,43264,10080,42937,10169,-15,314,-1726,1192,1434,-62,330,2860,43,53,857,1641,1780,2022,2074,2054,1816,1847,1972
597830,43332,10164,43002,10234,-69,291,-1708,1161,1468,451,257,2872,45,46,856,1641,1782,2044,2111,2087,1855,1862,1996
598831,43400,10248,43067,10299,-73,268,-1699,1123,1522,807,402,2663,33,42,857,1641,1782,2044,2111,2087,1855,1862,1996
599832,43476,10356,43132,10364,-186,-85,-1701,1081,1572,714,551,2643,41,51,856,1641,1782,2044,2111,2087,1855,1862,1996
600833,43540,10444,43197,10429,-35,137,-1714,1078,1602,703,513,2834,43,45,851,1641,1782,2044,2111,2087,1855,1862,1996
601834,43604,10528,43262,10494,-34,164,-1723,1097,1643,1045,641,2891,36,48,858,1641,1782,2044,2111,2087,1855,1862,1996
602835,43676,10660,43327,10559,-143,-518,-1740,1123,1675,1149,595,2904,35,42,858,1713,1863,2117,2198,2078,1832,1880,2016
603836,43748,10808,43392,10624,-151,-819,-1766,1201,1697,997,898,3107,33,37,851,1713,1863,2117,2198,2078,1832,1880,2016
604837,43816,10996,43457,10689,-105,-1469,-1763,1362,1714,1607,609,3183,31,40,849,1713,1863,2117,2198,2078,1832,1880,2016
605838,43900,11072,43522,10754,-329,-83,-1726,1479,1686,2352,396,2790,27,40,847,1713,1863,2117,2198,2078,1832,1880,2016
606839,43948,11116,43587,10819,142,343,-1706,1444,1625,985,239,3458,42,16,857,1713,1863,2117,2198,2078,1832,1880,2016
607840,44032,11148,43652,10884,-331,532,-1706,1356,1536,-1,104,3018,46,32,857,1713,1863,2117,2198,2078,1832,1880,2016
608841,44104,11188,43717,10949,-190,463,-1719,1277,1497,283,337,3195,39,20,856,1773,1919,2127,2211,2016,1789,1851,1955
609842,44164,11244,43782,11014,-34,274,-1739,1200,1515,602,380,2931,50,35,850,1773,1919,2127,2211,2016,1789,1851,1955
610843,44248,11312,43847,11079,-357,120,-1747,1130,1549,516,372,2752,37,30,857,1773,1919,2127,2211,2016,1789,1851,1955
611844,44312,11380,43912,11144,-106,116,-1747,1036,1564,-17,209,2876,49,37,858,1773,1919,2127,2211,2016,1789,1851,1955
612845,44392,11428,43977,11209,-325,387,-1748,924,1569,-254,-70,3061,49,32,855,1773,1919,2127,2211,2016,1789,1851,1955
613846,44468,11488,44042,11274,-289,243,-1727,859,1599,1,-193,3523,44,42,857,1785,1925,2143,2220,1958,1743,1820,1951
614847,44516,11548,44107,11339,82,249,-1699,797,1646,316,-321,3567,43,31,857,1785,1925,2143,2220,1958,1743,1820,1951
615848,44592,11612,44172,11404,-281,201,-1675,750,1689,397,-437,3897,48,32,857,1785,1925,2143,2220,1958,1743,1820,1951
616849,44664,11672,44237,11469,-240,257,-1634,718,1731,465,-380,3887,34,46,858,1785,1925,2143,2220,1958,1743,1820,1951
617850,44720,11744,44302,11534,-29,98,-1584,651,1751,395,-532,3912,48,47,856,1785,1925,2143,2220,1958,1743,1820,1951
618851,44788,11828,44367,11599,-183,-75,-1548,560,1771,319,-611,3571,33,47,858,1785,1925,2143,2220,1958,1743,1820,1951
619852,44864,11908,44432,11664,-297,-44,-1520,516,1782,449,-616,3764,39,37,852,1776,1933,2132,2204,1988,1770,1861,2000
620853,44928,11976,44497,11729,-146,102,-1500,486,1765,236,-554,3564,49,47,858,1776,1933,2132,2204,1988,1770,1861,2000
621854,44996,12036,44562,11794,-199,208,-1472,458,1758,754,-655,3714,31,35,854,1776,1933,2132,2204,1988,1770,1861,2000
622855,45064,12128,44627,11859,-203,-225,-1466,346,1753,411,-555,3222,43,40,851,1776,1933,2132,2204,1988,1770,1861,2000
623856,45128,12196,44692,11924,-152,71,-1459,199,1740,-242,-369,3148,52,51,850,1776,1933,2132,2204,1988,1770,1861,2000
624857,45196,12284,44757,11989,-206,-207,-1456,138,1727,-25,-226,3367,34,40,853,1816,1994,2186,2262,2051,1812,1914,2043
625858,45276,12368,44822,12054,-375,-180,-1445,116,1739,77,-170,3290,38,52,850,1816,1994,2186,2262,2051,1812,1914,2043
626859,45332,12448,44887,12119,-64,-148,-1408,69,1742,479,-164,3477,45,51,857,1816,1994,2186,2262,2051,1812,1914,2043
627860,45404,12544,44952,12184,-272,-386,-1372,-50,1697,446,-314,3597,32,38,858,1816,1994,2186,2262,2051,1812,1914,2043
628861,45492,12620,45017,12249,-500,-150,-1348,-250,1602,248,-368,3583,33,43,857,1816,1994,2186,2262,2051,1812,1914,2043
629862,45556,12676,45082,12314,-199,111,-1338,-438,1528,-168,-384,4054,49,43,858,1816,1994,2186,2262,2051,1812,1914,2043
630863,45620,12764,45147,12379,-199,-317,-1348,-588,1502,-246,-529,3896,50,49,858,1823,1974,2171,2258,2075,1851,1935,2046
631864,45688,12840,45212,12444,-253,-181,-1374,-710,1509,-8,-903,4246,53,49,850,1823,1974,2171,2258,2075,1851,1935,2046
632865,45752,12920,45277,12509,-201,-249,-1395,-787,1540,180,-957,4708,46,46,858,1823,1974,2171,2258,2075,1851,1935,2046
633866,45832,12988,45342,12574,-420,-103,-1408,-874,1579,127,-855,5034,35,38,850,1823,1974,2171,2258,2075,1851,1935,2046
634867,45908,13052,45407,12639,-383,-52,-1430,-1002,1617,-192,-1249,5014,36,43,852,1823,1974,2171,2258,2075,1851,1935,2046
635868,46000,13148,45472,12704,-617,-490,-1448,-1072,1662,313,-1517,5413,31,44,858,1768,1906,2095,2199,2085,1870,1915,2066
636869,46080,13240,45537,12769,-485,-473,-1454,-1099,1710,687,-1507,5348,48,40,856,1768,1906,2095,2199,2085,1870,1915,2066
637870,46140,13292,45602,12834,-229,42,-1444,-1126,1741,308,-1650,5139,32,52,856,1768,1906,2095,2199,2085,1870,1915,2066
638871,46208,13376,45667,12899,-333,-381,-1424,-1071,1766,5,-1833,5796,50,36,852,1768,1906,2095,2199,2085,1870,1915,2066
639872,46284,13440,45732,12964,-446,-130,-1379,-980,1783,-64,-2240,5371,47,36,857,1768,1906,2095,2199,2085,1870,1915,2066
640873,46352,13496,45797,13029,-351,-20,-1306,-943,1744,133,-1980,5776,46,39,858,1768,1906,2095,2199,2085,1870,1915,2066
641874,46428,13564,45862,13094,-464,-173,-1206,-966,1696,-301,-2190,5653,36,44,858,1705,1864,2068,2103,2144,1882,1951,2117
642875,46488,13612,45927,13159,-258,98,-1116,-958,1634,-219,-2145,5982,31,41,855,1705,1864,2068,2103,2144,1882,1951,2117
643876,46560,13668,45992,13224,-417,9,-1035,-918,1586,-164,-2047,6389,35,36,858,1705,1864,2068,2103,2144,1882,1951,2117
644877,46644,13732,46057,13289,-591,-90,-952,-883,1574,-615,-2096,6362,51,38,858,1705,1864,2068,2103,2144,1882,1951,2117
645878,46700,13804,46122,13354,-230,-199,-834,-882,1408,406,-520,6592,40,37,858,1705,1864,2068,2103,2144,1882,1951,2117
646879,46776,13876,46187,13419,-493,-208,-719,-795,1308,-342,-1821,7918,35,48,857,1634,1808,1990,2027,2112,1834,1909,2018
647880,46812,13948,46252,13484,42,-217,-647,-898,1286,19,-1350,6225,34,33,858,1634,1808,1990,2027,2112,1834,1909,2018
648881,46884,13964,46317,13549,-417,543,-621,-1124,1272,-842,-1333,5987,28,32,857,1634,1808,1990,2027,2112,1834,1909,2018
649882,46960,14056,46382,13614,-481,-440,-685,-1027,1252,-747,-1679,6254,43,31,856,1634,1808,1990,2027,2112,1834,1909,2018
650883,47016,14132,46447,13679,-220,-253,-748,-909,1275,192,-1317,6221,44,35,856,1634,1808,1990,2027,2112,1834,1909,2018
651884,47052,14188,46512,13744,65,8,-778,-858,1291,562,-1667,6502,25,37,857,1634,1808,1990,2027,2112,1834,1909,2018
652885,47128,14252,46577,13809,-448,-92,-762,-809,1332,384,-2245,6630,45,44,858,1655,1821,1989,2076,1959,1744,1848,1951
653886,47176,14316,46642,13874,-77,-91,-736,-702,1344,930,-2135,7019,28,44,858,1655,1821,1989,2076,1959,1744,1848,1951
654887,47240,14376,46707,13939,-277,-35,-679,-576,1381,1260,-2393,6665,36,41,857,1655,1821,1989,2076,1959,1744,1848,1951
655888,47288,14448,46772,14004,-56,-193,-589,-442,1436,1290,-2698,6399,29,30,858,1655,1821,1989,2076,1959,1744,1848,1951
656889,47332,14516,46837,14069,19,-147,-477,-299,1461,1177,-2742,6840,27,39,857,1655,1821,1989,2076,1959,1744,1848,1951
657890,47384,14568,46902,14134,-65,69,-363,-133,1457,883,-2956,6380,25,27,858,1644,1796,1967,2026,2011,1764,1859,1988
658891,47412,14620,46967,14199,280,84,-246,32,1447,649,-2972,6477,35,40,858,1644,1796,1967,2026,2011,1764,1859,1988
659892,47456,14668,47032,14264,105,154,-156,111,1428,672,-3070,5794,30,42,857,1644,1796,1967,2026,2011,1764,1859,1988
660893,47508,14716,47097,14329,21,175,-75,187,1386,583,-2929,6063,36,41,857,1644,1796,1967,2026,2011,1764,1859,1988
661896,47556,14760,47162,14394,92,251,-15,226,1310,111,-2662,5769,20,41,858,1644,1796,1967,2026,2011,1764,1859,1988
662895,47592,14816,47227,14459,277,112,49,228,1245,-68,-2678,5662,29,27,857,1616,1772,1968,2022,2008,1762,1828,1939
663896,47636,14872,47292,14524,203,123,121,171,1187,-573,-2408,5678,22,41,857,1616,1772,1968,2022,2008,1762,1828,1939
664897,47664,14888,47357,14589,448,682,181,82,1133,-513,-2100,5070,26,42,857,1616,1772,1968,2022,2008,1762,1828,1939
665898,47700,14924,47422,14654,382,467,209,30,1070,-441,-2085,5097,33,40,853,1616,1772,1968,2022,2008,1762,1828,1939
666899,47740,14936,47487,14719,363,832,211,33,1020,-245,-1788,4978,22,32,856,1616,1772,1968,2022,2008,1762,1828,1939
667900,47788,14952,47552,14784,283,841,202,8,1011,-238,-1771,4761,17,42,854,1616,1772,1968,2022,2008,1762,1828,1939
668901,47836,15012,47617,14849,304,298,216,-65,1019,82,-1609,4703,23,37,854,1580,1729,1908,1985,1965,1731,1812,1906
669902,47872,15096,47682,14914,490,-26,231,-79,1041,465,-1789,4612,35,44,856,1580,1729,1908,1985,1965,1731,1812,1906
670903,47924,15160,47747,14979,305,226,260,-4,1045,1366,-1520,4980,26,43,856,1580,1729,1908,1985,1965,1731,1812,1906
671904,47976,15212,47812,15044,321,391,305,131,1055,1546,-1857,4510,37,42,857,1580,1729,1908,1985,1965,1731,1812,1906
672905,48016,15296,47877,15109,502,-32,349,314,1053,1793,-1799,4837,23,43,856,1580,1729,1908,1985,1965,1731,1812,1906
673906,48064,15356,47942,15174,423,274,405,436,1060,1414,-1760,4403,21,40,856,1575,1723,1891,1967,1938,1721,1813,1929
674907,48112,15432,48007,15239,443,61,468,505,1053,1455,-1849,4141,40,42,856,1575,1723,1891,1967,1938,1721,1813,1929
675908,48168,15504,48072,15304,354,102,527,552,1055,937,-1834,4203,24,55,857,1575,1723,1891,1967,1938,1721,1813,1929
676909,48212,15568,48137,15369,530,203,585,513,1050,607,-1433,3614,36,42,857,1575,1723,1891,1967,1938,1721,1813,1929
677910,48260,15640,48202,15434,501,94,639,409,1059,252,-1465,3182,40,52,856,1575,1723,1891,1967,1938,1721,1813,1929
678911,48332,15720,48267,15499,192,-24,676,257,1065,-483,-1529,2938,31,37,856,1575,1723,1891,1967,1938,1721,1813,1929
679912,48384,15784,48332,15564,458,177,702,99,1068,-686,-1507,2628,45,45,858,1587,1738,1925,2003,1955,1739,1811,1914
680913,48448,15848,48397,15629,309,178,712,-68,1061,-138,-1398,2288,24,36,856,1587,1738,1925,2003,1955,1739,1811,1914
681914,48512,15924,48462,15694,310,15,708,-205,1047,-189,-1353,2223,40,39,857,1587,1738,1925,2003,1955,1739,1811,1914
682915,48568,15976,48527,15759,421,331,703,-313,1055,-363,-1349,2100,44,38,857,1587,1738,1925,2003,1955,1739,1811,1914
683916,48632,16040,48592,15824,323,182,702,-389,1059,-230,-1181,2165,44,47,856,1587,1738,1925,2003,1955,1739,1811,1914
684917,48696,16116,48657,15889,323,18,686,-437,1056,-44,-1106,2079,44,46,857,1643,1790,1986,2076,1903,1696,1771,1858
685918,48760,16180,48722,15954,324,170,677,-372,1044,624,-934,2364,47,34,857,1643,1790,1986,2076,1903,1696,1771,1858
686919,48820,16240,48787,16019,380,226,666,-320,1032,512,-945,2317,48,46,857,1643,1790,1986,2076,1903,1696,1771,1858
687920,48868,16292,48852,16084,551,342,636,-263,1017,837,-706,2283,46,32,856,1643,1790,1986,2076,1903,1696,1771,1858
688921,48956,16336,48917,16149,23,466,601,-197,1007,924,-689,2071,39,38,855,1643,1790,1986,2076,1903,1696,1771,1858
689922,49004,16404,48982,16214,544,163,577,-169,977,818,-769,2479,44,40,857,1643,1790,1986,2076,1903,1696,1771,1858
690923,49064,16452,49047,16279,400,433,545,-198,966,321,-996,2046,31,34,856,1650,1775,1956,2047,1850,1660,1736,1808
691924,49128,16500,49112,16344,351,454,539,-305,951,227,-845,2203,33,36,856,1650,1775,1956,2047,1850,1660,1736,1808
692925,49204,16548,49177,16409,188,475,541,-418,951,-12,-1044,2453,50,44,856,1650,1775,1956,2047,1850,1660,1736,1808
693926,49272,16596,49242,16474,284,496,553,-528,968,-363,-1263,2360,38,45,856,1650,1775,1956,2047,1850,1660,1736,1808
694927,49348,16656,49307,16539,170,352,539,-590,977,-32,-885,2274,46,28,856,1650,1775,1956,2047,1850,1660,1736,1808
695928,49408,16724,49372,16604,377,248,523,-551,988,164,-1045,2448,47,42,857,1603,1717,1913,2025,1863,1687,1753,1833
696929,49488,16788,49437,16669,108,299,505,-478,1005,152,-1298,2696,34,29,856,1603,1717,1913,2025,1863,1687,1753,1833
697930,49536,16856,49502,16734,529,246,502,-447,1025,321,-1349,2577,46,44,857,1603,1717,1913,2025,1863,1687,1753,1833
698931,49596,16916,49567,16799,385,352,511,-418,1036,325,-1276,2380,28,35,856,1603,1717,1913,2025,1863,1687,1753,1833
699932,49660,16980,49766,16998,500,466,532,-357,1028,355,-1194,2620,32,46,856,1603,1717,1913,2025,1863,1687,1753,1833
700933,49708,17040,49831,17063,721,523,555,-317,1024,257,-1206,2721,34,31,855,1603,1717,1913,2025,1863,1687,1753,1833
701934,49788,17104,49896,17128,302,474,589,-289,1037,274,-1371,2685,34,33,854,1593,1714,1924,2038,1959,1775,1831,1911
702935,49868,17152,49961,17193,284,695,608,-283,1023,346,-1067,2621,51,34,856,1593,1714,1924,2038,1959,1775,1831,1911
703936,49932,17212,50026,17258,485,551,628,-272,1006,82,-1198,2674,37,47,855,1593,1714,1924,2038,1959,1775,1831,1911
704937,50016,17292,50091,17323,212,282,644,-258,988,183,-1025,2625,45,36,855,1593,1714,1924,2038,1959,1775,1831,1911
705938,50084,17352,50156,17388,408,538,670,-223,976,152,-1111,2921,48,39,857,1593,1714,1924,2038,1959,1775,1831,1911
706939,50132,17440,50221,17453,679,160,675,-152,962,317,-1006,3272,50,44,855,1608,1730,1945,2074,1989,1796,1847,1908
707940,50216,17500,50286,17518,207,516,683,-95,957,391,-866,3422,38,47,856,1608,1730,1945,2074,1989,1796,1847,1908
708941,50272,17568,50351,17583,568,413,677,-20,960,317,-931,3607,48,40,856,1608,1730,1945,2074,1989,1796,1847,1908
709942,50328,17648,50416,17648,579,245,667,80,938,580,-849,4134,52,37,855,1608,1730,1945,2074,1989,1796,1847,1908
710943,50400,17708,50481,17713,370,501,648,151,920,570,-1010,3941,36,52,856,1608,1730,1945,2074,1989,1796,1847,1908
711945,50464,17788,50546,17778,472,232,636,211,909,517,-991,4289,45,52,855,1608,1730,1945,2074,1989,1796,1847,1908
712945,50548,17868,50611,17843,198,214,627,236,905,485,-1055,4137,47,49,856,1628,1743,1950,2086,1938,1753,1808,1865
713946,50616,17924,50676,17908,395,525,615,262,872,497,-1151,4350,46,52,857,1628,1743,1950,2086,1938,1753,1808,1865
714947,50680,17996,50741,17973,446,316,597,308,846,648,-1256,4446,52,42,855,1628,1743,1950,2086,1938,1753,1808,1865
715948,50764,18072,50806,18038,173,253,585,353,841,499,-1468,4440,42,40,856,1628,1743,1950,2086,1938,1753,1808,1865
716949,50828,18124,50871,18103,424,569,584,396,830,473,-1463,4763,56,44,856,1628,1743,1950,2086,1938,1753,1808,1865
717950,50912,18212,50936,18168,151,91,600,370,814,416,-1496,4637,36,47,855,1630,1750,1964,2092,1927,1748,1801,1871
718951,50984,18272,51001,18233,292,447,593,361,788,481,-1546,4871,52,37,858,1630,1750,1964,2092,1927,1748,1801,1871
719952,51052,18344,51066,18298,339,288,583,372,757,881,-1557,4817,39,44,856,1630,1750,1964,2092,1927,1748,1801,1871
720953,51120,18436,51131,18363,335,5,584,393,750,723,-1509,4913,40,47,856,1630,1750,1964,2092,1927,1748,1801,1871
721954,51188,18504,51196,18428,331,302,586,372,741,846,-1215,4706,38,46,857,1630,1750,1964,2092,1927,1748,1801,1871
722955,51256,18568,51261,18493,328,353,580,388,715,781,-1098,4961,35,40,856,1630,1750,1964,2092,1927,1748,1801,1871
723956,51324,18644,51326,18558,324,190,557,377,672,708,-1002,4863,45,39,856,1655,1778,1999,2124,1956,1780,1839,1919
724957,51400,18684,51391,18623,211,670,529,374,651,970,-933,4712,40,27,856,1655,1778,1999,2124,1956,1780,1839,1919
725958,51472,18724,51456,18688,252,701,494,346,634,968,-690,4888,40,34,855,1655,1778,1999,2124,1956,1780,1839,1919
726959,51532,18804,51521,18753,408,182,470,317,604,965,-629,4648,42,27,855,1655,1778,1999,2124,1956,1780,1839,1919
727960,51584,18856,51586,18818,524,548,439,295,564,940,-584,4913,38,27,856,1655,1778,1999,2124,1956,1780,1839,1919
728961,51652,18908,51651,18883,320,564,416,266,537,1105,-524,4745,45,28,855,1669,1795,2001,2115,2004,1816,1876,1962
729962,51712,18968,51716,18948,426,470,396,212,507,934,-484,4941,32,30,855,1669,1795,2001,2115,2004,1816,1876,1962
730963,51768,19012,51781,19013,487,696,382,182,470,592,-559,4983,36,37,856,1669,1795,2001,2115,2004,1816,1876,1962
731964,51828,19076,51846,19078,443,447,381,149,432,831,-570,5079,35,30,854,1669,1795,2001,2115,2004,1816,1876,1962
732965,51880,19124,51911,19143,559,668,395,104,403,939,-701,5019,40,43,856,1669,1795,2001,2115,2004,1816,1876,1962
733966,51952,19184,51976,19208,301,524,416,44,367,783,-604,5031,39,42,853,1669,1795,2001,2115,2004,1816,1876,1962
734967,51988,19244,52041,19273,786,530,434,-11,332,474,-500,5238,29,32,855,1628,1757,1963,2059,2017,1814,1868,1965
735968,52048,19292,52106,19338,492,701,452,-46,311,286,-525,5237,28,31,853,1628,1757,1963,2059,2017,1814,1868,1965
736969,52120,19340,52171,19403,334,721,477,-85,289,373,-370,5318,32,37,854,1628,1757,1963,2059,2017,1814,1868,1965
737970,52188,19408,52236,19468,380,468,493,-133,261,400,-376,5137,38,34,855,1628,1757,1963,2059,2017,1814,1868,1965
738971,52240,19480,52301,19533,596,409,508,-158,235,404,-359,5294,38,39,856,1628,1757,1963,2059,2017,1814,1868,1965
739972,52300,19564,52366,19598,502,236,506,-157,208,373,-200,5251,48,36,855,1584,1725,1924,2012,2008,1793,1860,1960
740973,52352,19624,52431,19663,618,542,516,-156,183,405,43,4904,46,48,856,1584,1725,1924,2012,2008,1793,1860,1960
741974,52424,19688,52496,19728,359,493,501,-184,161,195,-94,4702,48,34,854,1584,1725,1924,2012,2008,1793,1860,1960
742975,52484,19744,52561,19793,515,604,479,-175,136,173,27,4679,50,41,856,1584,1725,1924,2012,2008,1793,1860,1960
743976,52548,19812,52626,19858,467,451,444,-163,108,137,69,4390,35,38,854,1584,1725,1924,2012,2008,1793,1860,1960
744977,52616,19864,52691,19923,413,667,416,-151,78,162,-6,4067,44,31,855,1584,1725,1924,2012,2008,1793,1860,1960
745978,52672,19936,52756,19988,574,408,386,-177,54,238,29,3987,47,41,855,1609,1763,1956,2053,1995,1779,1860,1963
746979,52744,20004,52821,20053,365,454,351,-199,31,61,17,3806,48,45,855,1609,1763,1956,2053,1995,1779,1860,1963
747980,52812,20064,52886,20118,412,560,310,-191,-7,-38,-55,4010,38,45,856,1609,1763,1956,2053,1995,1779,1860,1963
748981,52876,20120,52951,20183,463,621,298,-163,-45,81,-64,3843,48,40,855,1609,1763,1956,2053,1995,1779,1860,1963
749982,52948,20184,53016,20248,355,523,292,-166,-70,40,-201,3875,45,32,854,1609,1763,1956,2053,1995,1779,1860,1963
750983,53016,20240,53081,20313,401,634,294,-155,-88,16,-291,3867,45,43,855,1645,1799,1989,2072,1997,1775,1848,1958
751984,53084,20288,53146,20378,397,754,301,-166,-107,54,-192,3762,38,46,855,1645,1799,1989,2072,1997,1775,1848,1958
752985,53144,20360,53211,20443,503,446,295,-181,-121,-212,-297,3739,44,38,854,1645,1799,1989,2072,1997,1775,1848,1958
753986,53188,20424,53276,20508,729,547,288,-190,-145,-49,-298,3612,35,35,855,1645,1799,1989,2072,1997,1775,1848,1958
754987,53276,20480,53341,20573,151,658,272,-193,-166,-95,-277,3668,32,52,854,1645,1799,1989,2072,1997,1775,1848,1958
755988,53340,20556,53406,20638,452,395,260,-191,-180,113,-240,3500,36,41,856,1645,1799,1989,2072,1997,1775,1848,1958
756989,53380,20624,53471,20703,783,491,249,-193,-191,139,-182,3677,31,46,856,1635,1783,1978,2055,1962,1745,1813,1919
757990,53468,20676,53536,20768,155,707,241,-195,-204,-124,-139,3440,37,39,853,1635,1783,1978,2055,1962,1745,1813,1919
758991,53524,20764,53601,20833,565,229,233,-222,-209,-144,-90,3374,37,43,855,1635,1783,1978,2055,1962,1745,1813,1919
759992,53588,20832,53666,20898,467,475,232,-270,-202,-92,40,3428,41,37,856,1635,1783,1978,2055,1962,1745,1813,1919
760993,53644,20896,53731,20963,578,526,223,-304,-196,31,76,3492,49,50,855,1635,1783,1978,2055,1962,1745,1813,1919
761994,53712,20984,53796,21028,424,198,207,-339,-200,43,220,3431,50,45,854,1619,1757,1952,2039,1937,1733,1803,1898
762995,53776,21052,53861,21093,475,445,195,-344,-194,-13,180,3494,36,45,856,1619,1757,1952,2039,1937,1733,1803,1898
763996,53844,21128,53926,21158,422,331,202,-349,-200,371,228,3424,41,37,855,1619,1757,1952,2039,1937,1733,1803,1898
764997,53904,21192,53991,21223,528,482,193,-332,-210,405,309,3392,43,38,856,1619,1757,1952,2039,1937,1733,1803,1898
765998,53972,21268,54056,21288,425,319,198,-336,-228,368,382,3220,41,44,855,1619,1757,1952,2039,1937,1733,1803,1898
766999,54020,21336,54121,21353,696,415,197,-333,-216,78,218,3078,44,45,856,1619,1757,1952,2039,1937,1733,1803,1898
768000,54088,21392,54186,21418,442,576,214,-373,-210,184,146,3051,46,40,853,1625,1761,1963,2063,1947,1747,1818,1911
769001,54148,21460,54251,21483,548,423,218,-425,-207,34,135,3135,35,33,855,1625,1761,1963,2063,1947,1747,1818,1911
770002,54200,21520,54316,21548,664,529,233,-463,-217,40,305,3022,30,31,855,1625,1761,1963,2063,1947,1747,1818,1911
771003,54268,21580,54381,21613,460,535,241,-490,-218,90,222,3043,35,31,854,1625,1761,1963,2063,1947,1747,1818,1911
772004,54308,21640,54446,21678,841,541,248,-504,-240,224,210,3244,48,35,855,1625,1761,1963,2063,1947,1747,1818,1911
773005,54396,21712,54511,21743,213,382,276,-503,-259,244,296,3390,48,41,853,1651,1783,1991,2093,1960,1758,1820,1913
774006,54460,21756,54576,21808,514,758,295,-483,-275,287,334,3311,40,38,856,1651,1783,1991,2093,1960,1758,1820,1913
775007,54552,21812,54641,21873,131,619,301,-467,-282,128,259,3293,46,32,853,1651,1783,1991,2093,1960,1758,1820,1913
776008,54604,21880,54706,21938,647,465,299,-452,-288,56,315,3322,42,29,856,1651,1783,1991,2093,1960,1758,1820,1913
777009,54672,21936,54771,22003,443,626,289,-453,-294,152,400,3332,35,36,854,1651,1783,1991,2093,1960,1758,1820,1913
778010,54736,21992,54836,22068,495,637,282,-436,-296,14,334,3407,50,37,854,1651,1783,1991,2093,1960,1758,1820,1913
779011,54816,22048,54901,22133,276,648,285,-416,-286,42,276,3653,42,43,854,1669,1801,2010,2114,1942,1742,1804,1892
780012,54868,22104,54966,22198,642,659,279,-403,-265,25,292,3617,32,30,855,1669,1801,2010,2114,1942,1742,1804,1892
781013,54924,22160,55031,22263,603,670,280,-394,-249,51,350,3749,32,42,853,1669,1801,2010,2114,1942,1742,1804,1892
782014,54988,22208,55096,22328,504,791,284,-393,-255,142,412,3830,47,43,854,1669,1801,2010,2114,1942,1742,1804,1892
783015,55048,22304,55161,22393,560,153,293,-362,-255,119,415,3924,47,42,853,1669,1801,2010,2114,1942,1742,1804,1892
784016,55108,22344,55226,22458,567,884,298,-325,-248,254,438,4077,44,29,856,1670,1800,2009,2112,1931,1736,1800,1890
785017,55168,22416,55291,22523,573,476,302,-331,-252,223,523,4039,36,28,852,1670,1800,2009,2112,1931,1736,1800,1890
786018,55236,22488,55356,22588,469,468,297,-334,-253,170,596,3790,35,36,854,1670,1800,2009,2112,1931,1736,1800,1890
787019,55288,22540,55421,22653,685,733,298,-334,-240,413,655,3857,46,33,855,1670,1800,2009,2112,1931,1736,1800,1890
788020,55344,22616,55486,22718,646,420,299,-306,-235,450,595,4023,35,39,853,1670,1800,2009,2112,1931,1736,1800,1890
789021,55400,22668,55551,22783,657,736,313,-264,-233,397,652,4111,47,38,855,1670,1800,2009,2112,1931,1736,1800,1890
790022,55444,22732,55616,22848,832,587,321,-241,-229,419,634,4081,40,27,853,1674,1804,2017,2122,1958,1763,1825,1921
791023,55516,22792,55681,22913,475,643,337,-224,-221,484,623,4009,31,40,852,1674,1804,2017,2122,1958,1763,1825,1921
792024,55564,22832,55746,22978,796,924,336,-235,-211,427,642,4030,40,29,854,1674,1804,2017,2122,1958,1763,1825,1921
793025,55632,22896,55811,23043,542,625,342,-228,-219,414,724,4024,26,26,851,1674,1804,2017,2122,1958,1763,1825,1921
794026,55676,22988,55876,23108,868,242,352,-208,-229,529,636,4163,31,36,854,1674,1804,2017,2122,1958,1763,1825,1921
795027,55740,23028,55941,23173,619,923,369,-182,-223,672,606,4097,34,42,854,1684,1815,2035,2135,1991,1789,1845,1943
796028,55804,23100,56006,23238,620,514,382,-176,-225,593,750,4133,38,43,852,1684,1815,2035,2135,1991,1789,1845,1943
797029,55872,23148,56071,23303,566,835,384,-168,-225,339,740,4204,32,28,854,1684,1815,2035,2135,1991,1789,1845,1943
798030,55912,23204,56136,23368,947,746,381,-178,-217,358,738,4064,48,41,853,1684,1815,2035,2135,1991,1789,1845,1943
799031,55972,23280,56201,23433,703,482,376,-168,-212,383,709,4296,33,33,851,1684,1815,2035,2135,1991,1789,1845,1943
800032,56036,23336,56266,23498,654,743,355,-175,-208,491,687,4135,32,32,854,1684,1815,2035,2135,1991,1789,1845,1943
801033,56100,23388,56331,23563,655,809,351,-156,-201,566,707,4356,41,40,852,1678,1811,2031,2125,1992,1783,1838,1937
802034,56168,23452,56396,23628,602,660,333,-147,-189,470,786,4437,48,38,852,1678,1811,2031,2125,1992,1783,1838,1937
803035,56212,23492,56461,23693,927,991,327,-140,-183,300,744,4281,43,30,853,1678,1811,2031,2125,1992,1783,1838,1937
804036,56268,23548,56526,23758,789,803,303,-125,-166,358,632,4436,47,40,850,1678,1811,2031,2125,1992,1783,1838,1937
805037,56340,23620,56591,23823,581,594,295,-122,-154,483,690,4393,50,38,852,1678,1811,2031,2125,1992,1783,1838,1937
806038,56388,23664,56656,23888,902,970,278,-120,-141,459,738,4474,35,36,853,1664,1800,2016,2103,1984,1778,1831,1935
807039,56448,23744,56721,23953,758,502,273,-98,-129,432,662,4325,35,32,850,1664,1800,2016,2103,1984,1778,1831,1935
808040,56496,23800,56786,24018,929,813,261,-89,-114,521,664,4350,42,37,853,1664,1800,2016,2103,1984,1778,1831,1935
809041,56548,23868,56851,24083,894,659,256,-65,-105,570,711,4392,31,44,851,1664,1800,2016,2103,1984,1778,1831,1935
810042,56596,23916,56916,24148,965,930,251,-49,-84,310,530,4302,35,48,852,1664,1800,2016,2103,1984,1778,1831,1935
811043,56660,23996,56981,24213,766,511,269,-59,-90,535,661,4415,38,47,850,1664,1800,2016,2103,1984,1778,1831,1935
812044,56724,24060,57046,24278,768,713,263,-42,-101,534,682,4348,42,34,853,1651,1790,2006,2094,2003,1791,1845,1952
813045,56776,24124,57111,24343,934,714,256,-36,-112,711,802,3964,40,35,852,1651,1790,2006,2094,2003,1791,1845,1952
814046,56848,24192,57176,24408,676,660,227,-39,-93,535,642,3995,32,34,851,1651,1790,2006,2094,2003,1791,1845,1952
815047,56900,24240,57241,24473,942,931,207,-38,-87,440,684,3976,43,32,853,1651,1790,2006,2094,2003,1791,1845,1952
816048,56964,24332,57306,24538,793,348,194,-25,-78,397,486,3930,32,38,850,1651,1790,2006,2094,2003,1791,1845,1952
817049,57008,24380,57371,24603,1069,920,194,-8,-65,465,478,4003,34,33,854,1664,1801,2019,2111,2014,1800,1856,1960
818050,57076,24432,57436,24668,765,886,196,-13,-43,424,531,3905,48,27,850,1664,1801,2019,2111,2014,1800,1856,1960
819051,57140,24484,57501,24733,816,901,180,-13,-26,365,516,3933,33,31,850,1664,1801,2019,2111,2014,1800,1856,1960
820052,57204,24548,57566,24798,817,753,161,-18,-9,413,529,3859,31,32,851,1664,1801,2019,2111,2014,1800,1856,1960
821053,57256,24612,57631,24863,984,754,140,0,4,510,508,3972,47,40,852,1664,1801,2019,2111,2014,1800,1856,1960
822054,57308,24652,57696,24928,1000,1084,119,26,15,491,514,4155,32,33,851,1664,1801,2019,2111,2014,1800,1856,1960
823055,57380,24720,57761,24993,742,731,102,47,25,312,464,3911,33,32,849,1665,1805,2019,2107,1991,1776,1836,1938
824056,57424,24776,57826,25058,1117,892,95,45,43,308,491,3953,34,45,852,1665,1805,2019,2107,1991,1776,1836,1938
825057,57492,24832,57891,25123,814,903,95,36,62,215,322,3876,28,37,849,1665,1805,2019,2107,1991,1776,1836,1938
826058,57564,24904,57956,25188,755,694,86,38,80,285,375,3882,47,33,851,1665,1805,2019,2107,1991,1776,1836,1938
827059,57604,24964,58021,25253,1186,851,78,52,94,261,368,3950,30,44,852,1665,1805,2019,2107,1991,1776,1836,1938
828060,57648,25016,58086,25318,1162,967,61,54,101,275,429,3921,32,42,849,1662,1802,2013,2099,1972,1761,1824,1927
829061,57712,25092,58151,25383,913,654,47,65,104,274,354,4038,45,45,849,1662,1802,2013,2099,1972,1761,1824,1927
830062,57780,25172,58216,25448,860,585,34,82,96,495,516,3866,35,42,851,1662,1802,2013,2099,1972,1761,1824,1927
831063,57836,25240,58281,25513,1021,732,32,111,88,431,440,4074,33,48,852,1662,1802,2013,2099,1972,1761,1824,1927
832064,57892,25292,58346,25578,1032,948,25,131,86,344,396,3889,36,38,850,1662,1802,2013,2099,1972,1761,1824,1927
833065,57944,25368,58411,25643,1098,634,33,151,87,347,344,3939,38,35,849,1662,1802,2013,2099,1972,1761,1824,1927
834066,57992,25444,58476,25708,1169,621,27,163,84,278,369,3902,30,38,850,1667,1809,2021,2112,1978,1768,1833,1939
835067,58068,25508,58541,25773,806,772,35,190,87,270,346,3767,37,51,850,1667,1809,2021,2112,1978,1768,1833,1939
836068,58140,25588,58606,25838,847,554,29,198,97,404,386,3714,43,44,851,1667,1809,2021,2112,1978,1768,1833,1939
837069,58196,25656,58671,25903,1058,701,43,207,109,229,439,3778,42,36,852,1667,1809,2021,2112,1978,1768,1833,1939
838070,58244,25744,58736,25968,1179,423,41,208,124,89,304,3729,44,33,851,1667,1809,2021,2112,1978,1768,1833,1939
839071,58288,25788,58801,26033,1255,999,63,238,138,284,322,3783,51,43,851,1694,1836,2052,2152,1985,1779,1843,1939
840072,58356,25876,58866,26098,952,420,83,258,151,467,413,3677,40,42,847,1694,1836,2052,2152,1985,1779,1843,1939
841073,58412,25924,58931,26163,1113,941,103,232,163,90,399,3760,52,46,852,1694,1836,2052,2152,1985,1779,1843,1939
842074,58488,25980,58996,26228,850,852,118,203,162,-201,500,3811,35,35,849,1694,1836,2052,2152,1985,1779,1843,1939
843075,58540,26052,59061,26293,1165,644,121,180,166,45,557,3887,54,41,851,1694,1836,2052,2152,1985,1779,1843,1939
844076,58608,26100,59126,26358,962,964,153,164,170,207,423,3805,38,38,850,1694,1836,2052,2152,1985,1779,1843,1939
845077,58668,26164,59191,26423,1069,766,175,121,177,375,572,3870,36,46,850,1723,1865,2078,2185,1961,1763,1824,1910
846078,58724,26212,59256,26488,1130,986,200,122,178,315,559,4288,46,41,850,1723,1865,2078,2185,1961,1763,1824,1910
847079,58808,26276,59321,26553,757,788,222,93,213,-104,13,3710,43,38,849,1723,1865,2078,2185,1961,1763,1824,1910
848080,58860,26356,59386,26618,1173,570,266,97,234,331,213,3705,56,47,851,1723,1865,2078,2185,1961,1763,1824,1910
849081,58924,26416,59451,26683,1024,826,267,74,296,697,76,3782,37,38,850,1723,1865,2078,2185,1961,1763,1824,1910
850082,58984,26492,59516,26748,1081,613,267,59,339,780,271,3895,47,42,850,1744,1881,2094,2208,1909,1723,1795,1874
851083,59048,26564,59581,26813,1032,654,258,86,348,377,456,3864,35,46,850,1744,1881,2094,2208,1909,1723,1795,1874
852084,59100,26632,59646,26878,1198,701,243,70,367,407,273,3755,40,43,851,1744,1881,2094,2208,1909,1723,1795,1874
853085,59148,26688,59711,26943,1269,862,249,80,376,733,459,4252,45,49,849,1744,1881,2094,2208,1909,1723,1795,1874
854086,59200,26760,59776,27008,1235,653,262,105,383,595,360,4039,37,42,848,1744,1881,2094,2208,1909,1723,1795,1874
855087,59256,26840,59841,27073,1197,535,277,101,387,882,379,3998,50,42,849,1744,1881,2094,2208,1909,1723,1795,1874
856088,59308,26912,59906,27138,1262,626,296,103,403,625,473,3965,51,51,850,1774,1899,2105,2222,1888,1706,1784,1865
857089,59368,26972,59971,27203,1169,782,317,91,408,359,646,3936,51,50,849,1774,1899,2105,2222,1888,1706,1784,1865
858090,59436,27032,60036,27268,1065,789,321,86,413,78,384,4041,49,42,849,1774,1899,2105,2222,1888,1706,1784,1865
859091,59500,27084,60101,27333,1117,905,328,72,406,227,453,3947,36,34,850,1774,1899,2105,2222,1888,1706,1784,1865
860092,59552,27168,60166,27398,1283,482,340,18,392,193,321,3674,47,35,849,1774,1899,2105,2222,1888,1706,1784,1865
861093,59604,27224,60231,27463,1299,843,357,-24,365,133,378,3802,49,50,850,1779,1902,2118,2238,1922,1738,1807,1892
862094,59656,27312,60296,27528,1315,415,394,-67,346,92,416,3801,48,47,848,1779,1902,2118,2238,1922,1738,1807,1892
863095,59712,27380,60361,27593,1277,662,441,-66,336,168,448,4093,41,37,849,1779,1902,2118,2238,1922,1738,1807,1892
864096,59780,27444,60426,27658,1123,713,478,-12,346,412,438,4153,35,49,849,1779,1902,2118,2238,1922,1738,1807,1892
865097,59840,27504,60491,27723,1229,769,526,26,367,487,504,4188,42,45,850,1779,1902,2118,2238,1922,1738,1807,1892
866098,59896,27584,60556,27788,1290,501,552,35,397,179,360,4229,35,41,849,1779,1902,2118,2238,1922,1738,1807,1892
867099,59968,27656,60621,27853,1083,592,586,33,421,190,380,4122,37,40,850,1772,1897,2118,2237,1945,1761,1823,1907
868100,60008,27724,60686,27918,1513,638,614,11,449,304,376,4041,35,43,851,1772,1897,2118,2237,1945,1761,1823,1907
869101,60056,27780,60751,27983,1434,799,638,-5,491,158,410,4259,46,31,847,1772,1897,2118,2237,1945,1761,1823,1907
870102,60140,27844,60816,28048,961,701,642,-4,532,75,573,4282,49,45,846,1772,1897,2118,2237,1945,1761,1823,1907
871103,60184,27892,60881,28113,1487,922,640,9,569,278,611,4447,36,35,851,1772,1897,2118,2237,1945,1761,1823,1907
872104,60240,27944,60946,28178,1348,888,640,15,599,380,551,4194,45,42,846,1767,1894,2118,2244,1934,1758,1818,1892
873105,60300,28016,61011,28243,1304,630,637,13,623,427,543,4391,40,40,847,1767,1894,2118,2244,1934,1758,1818,1892
874106,60352,28076,61076,28308,1420,786,641,20,638,409,540,4310,46,36,849,1767,1894,2118,2244,1934,1758,1818,1892
875107,60408,28132,61141,28373,1382,847,658,29,639,431,302,4144,39,43,847,1767,1894,2118,2244,1934,1758,1818,1892
876108,60476,28204,61206,28438,1229,638,685,49,634,719,345,4302,34,46,847,1767,1894,2118,2244,1934,1758,1818,1892
877109,60536,28256,61271,28503,1335,904,687,46,648,581,557,4112,34,35,849,1767,1894,2118,2244,1934,1758,1818,1892
878110,60584,28336,61336,28568,1505,536,655,62,653,339,816,4344,43,36,847,1773,1891,2119,2247,1939,1764,1822,1900
879111,60652,28392,61401,28633,1253,847,621,99,628,336,774,4385,46,40,848,1773,1891,2119,2247,1939,1764,1822,1900
880112,60700,28468,61466,28698,1524,583,598,90,578,485,612,4079,34,39,848,1773,1891,2119,2247,1939,1764,1822,1900
881113,60776,28552,61531,28763,1160,460,592,67,530,111,414,4100,52,51,847,1773,1891,2119,2247,1939,1764,1822,1900
882114,60836,28608,61596,28828,1367,821,593,62,472,180,621,4252,35,52,851,1773,1891,2119,2247,1939,1764,1822,1900
883115,60872,28660,61661,28893,1703,888,593,95,427,350,505,4147,35,48,847,1769,1884,2123,2242,1974,1795,1841,1928
884116,60940,28728,61726,28958,1299,684,596,142,396,479,448,4387,34,47,845,1769,1884,2123,2242,1974,1795,1841,1928
885117,61012,28788,61791,29023,1240,790,584,195,369,383,417,4217,50,41,848,1769,1884,2123,2242,1974,1795,1841,1928
886118,61052,28864,61856,29088,1672,577,595,266,342,332,392,4470,50,40,849,1769,1884,2123,2242,1974,1795,1841,1928
887121,61104,28912,61921,29153,1538,948,612,287,342,333,250,4303,51,47,845,1769,1884,2123,2242,1974,1795,1841,1928
888120,61180,28992,61986,29218,1224,529,629,259,359,15,325,4245,52,49,846,1739,1859,2106,2222,2004,1826,1864,1948
889121,61248,29044,62051,29283,1322,895,645,248,379,-265,475,4401,38,50,850,1739,1859,2106,2222,2004,1826,1864,1948
890122,61308,29100,62116,29348,1428,856,651,244,400,-90,592,4357,54,33,847,1739,1859,2106,2222,2004,1826,1864,1948
891123,61384,29156,62181,29413,1214,867,628,224,444,-111,667,4166,54,41,847,1739,1859,2106,2222,2004,1826,1864,1948
892124,61456,29212,62246,29478,1257,878,598,218,479,38,759,4345,36,45,848,1739,1859,2106,2222,2004,1826,1864,1948
893125,61500,29308,62311,29543,1632,340,572,197,505,24,714,3963,34,46,847,1739,1859,2106,2222,2004,1826,1864,1948
894126,61580,29360,62376,29608,1164,907,553,214,527,3,676,4247,41,48,847,1727,1860,2104,2226,2005,1830,1872,1956
895127,61620,29400,62441,29673,1695,1088,562,226,563,288,632,4008,51,37,848,1727,1860,2104,2226,2005,1830,1872,1956
896128,61696,29472,62506,29738,1232,679,549,221,603,845,800,3982,39,49,844,1727,1860,2104,2226,2005,1830,1872,1956
897129,61752,29532,62571,29803,1493,835,548,241,651,627,671,4214,51,47,849,1727,1860,2104,2226,2005,1830,1872,1956
898130,61812,29624,62636,29868,1449,402,524,276,668,239,1041,3999,53,44,847,1727,1860,2104,2226,2005,1830,1872,1956
899131,61880,29688,62701,29933,1347,754,534,333,671,505,851,3913,47,51,849,1739,1870,2116,2230,2020,1832,1873,1968
900132,61940,29756,62766,29998,1453,700,558,370,673,513,1106,3929,44,56,848,1739,1870,2116,2230,2020,1832,1873,1968
901133,61992,29824,62831,30063,1569,696,564,431,657,470,1100,3993,35,43,847,1739,1870,2116,2230,2020,1832,1873,1968
902134,62064,29884,62896,30128,1311,802,577,480,605,629,821,3783,48,44,846,1739,1870,2116,2230,2020,1832,1873,1968
903135,62112,29944,62961,30193,1632,808,594,481,511,561,768,3486,31,45,847,1739,1870,2116,2230,2020,1832,1873,1968
904136,62180,30020,63026,30258,1378,595,590,395,426,-20,810,3417,44,40,845,1739,1870,2116,2230,2020,1832,1873,1968
905137,62240,30100,63091,30323,1485,528,573,308,338,-368,906,3644,36,55,849,1757,1875,2126,2237,2005,1808,1843,1932
906138,62288,30172,63156,30388,1656,619,533,211,238,-184,844,3476,47,55,848,1757,1875,2126,2237,2005,1808,1843,1932
907139,62356,30256,63221,30453,1402,446,486,101,152,126,874,3212,34,46,846,1757,1875,2126,2237,2005,1808,1843,1932
908140,62412,30328,63286,30518,1564,587,442,26,128,-322,931,3360,49,55,848,1757,1875,2126,2237,2005,1808,1843,1932
909141,62476,30412,63351,30583,1466,414,402,4,111,-237,1126,3775,41,51,847,1757,1875,2126,2237,2005,1808,1843,1932
910142,62544,30480,63416,30648,1412,611,393,34,125,-59,786,3800,46,54,849,1761,1882,2128,2228,1979,1793,1842,1944
911143,62616,30536,63481,30713,1354,772,381,61,181,445,909,3645,56,43,847,1761,1882,2128,2228,1979,1793,1842,1944
912144,62688,30616,63546,30778,1346,453,368,68,271,351,989,3680,40,52,847,1761,1882,2128,2228,1979,1793,1842,1944
913145,62756,30672,63611,30843,1392,764,351,112,346,136,991,3898,55,41,850,1761,1882,2128,2228,1979,1793,1842,1944
914146,62812,30756,63676,30908,1554,391,356,196,404,168,809,3892,49,50,847,1761,1882,2128,2228,1979,1793,1842,1944
915147,62900,30816,63741,30973,1126,697,370,280,480,432,676,3814,52,52,849,1761,1882,2128,2228,1979,1793,1842,1944
916148,62964,30868,63806,31038,1427,813,388,342,534,561,902,3930,42,54,850,1737,1882,2115,2204,2005,1822,1873,1981
917149,63032,30952,63871,31103,1375,390,415,374,572,114,855,3758,55,50,847,1737,1882,2115,2204,2005,1822,1873,1981
918150,63108,31020,63936,31168,1261,586,427,373,590,-27,992,3730,37,38,849,1737,1882,2115,2204,2005,1822,1873,1981
919151,63164,31088,64001,31233,1522,583,434,344,576,-121,1111,3592,51,48,849,1737,1882,2115,2204,2005,1822,1873,1981
920152,63240,31148,64066,31298,1259,689,432,265,547,-282,1159,3504,53,51,847,1737,1882,2115,2204,2005,1822,1873,1981
921153,63300,31236,64131,31363,1466,312,424,183,497,-518,1348,3574,36,38,848,1734,1872,2122,2232,2044,1856,1886,1976
922154,63360,31272,64196,31428,1472,997,417,109,433,-496,1368,3606,50,46,849,1734,1872,2122,2232,2044,1856,1886,1976
923155,63428,31340,64261,31493,1368,593,406,36,352,-10,1340,3453,37,40,846,1734,1872,2122,2232,2044,1856,1886,1976
924156,63484,31408,64326,31558,1530,590,389,-24,266,-107,1366,3382,35,47,848,1734,1872,2122,2232,2044,1856,1886,1976
925157,63540,31488,64391,31623,1541,421,375,-47,190,-110,1289,3540,40,51,847,1734,1872,2122,2232,2044,1856,1886,1976
926158,63596,31568,64456,31688,1552,403,340,-36,122,292,1351,3550,45,41,848,1734,1872,2122,2232,2044,1856,1886,1976
927159,63652,31636,64521,31753,1564,549,308,20,68,614,1165,3780,35,55,847,1754,1872,2136,2256,2037,1851,1875,1963
928160,63700,31700,64586,31818,1685,601,286,73,41,829,1202,3678,38,53,847,1754,1872,2136,2256,2037,1851,1875,1963
929161,63768,31768,64651,31883,1431,547,270,118,19,573,1277,3829,48,40,846,1754,1872,2136,2256,2037,1851,1875,1963
930162,63832,31828,64716,31948,1484,653,254,185,1,431,1069,3955,37,42,849,1754,1872,2136,2256,2037,1851,1875,1963
931163,63908,31888,64781,32013,1320,659,245,252,4,668,884,4070,54,39,847,1754,1872,2136,2256,2037,1851,1875,1963
932164,63976,31972,64846,32078,1417,336,246,305,34,567,848,4070,39,46,849,1750,1864,2128,2240,2014,1842,1862,1952
933165,64052,32040,64911,32143,1304,532,230,343,74,40,737,4155,48,48,849,1750,1864,2128,2240,2014,1842,1862,1952
934166,64140,32088,64976,32208,1126,803,180,385,106,-917,876,4005,54,44,849,1750,1864,2128,2240,2014,1842,1862,1952
935167,64208,32172,65041,32273,1372,330,95,367,127,-595,550,3261,41,37,849,1750,1864,2128,2240,2014,1842,1862,1952
936168,64260,32228,65106,32338,1589,691,-18,274,218,1562,-396,4125,53,46,850,1750,1864,2128,2240,2014,1842,1862,1952
937170,64332,32288,65171,32403,1331,647,-158,99,323,1879,627,3425,41,48,847,1750,1864,2128,2240,2014,1842,1862,1952
938170,64404,32364,65236,32468,1322,433,-238,-80,299,-1498,1556,2779,41,40,848,1728,1847,2119,2236,2029,1870,1888,1987
939171,64456,32412,65301,32533,1589,804,-267,-80,207,-1905,1048,4442,44,44,850,1728,1847,2119,2236,2029,1870,1888,1987
940172,64536,32480,65366,32598,1221,551,-273,38,208,657,236,4745,42,36,846,1728,1847,2119,2236,2029,1870,1888,1987
941173,64604,32552,65431,32663,1367,492,-241,44,233,1717,620,3374,43,46,849,1728,1847,2119,2236,2029,1870,1888,1987
942174,64680,32616,65496,32728,1255,593,-221,53,202,-10,931,4006,38,37,850,1728,1847,2119,2236,2029,1870,1888,1987
943175,64736,32672,65561,32793,1516,704,-231,123,113,-581,1035,4026,43,44,849,1693,1825,2094,2184,2163,1953,1971,2096
944176,64800,32716,65626,32858,1417,881,-237,172,13,625,1140,3866,39,47,847,1693,1825,2094,2184,2163,1953,1971,2096
945177,64872,32788,65691,32923,1308,522,-212,205,-70,795,1207,3862,49,37,847,1693,1825,2094,2184,2163,1953,1971,2096
946178,64944,32836,65756,32988,1301,843,-192,285,-130,183,1022,4188,41,44,849,1693,1825,2094,2184,2163,1953,1971,2096
947179,65004,32904,65821,33053,1457,589,-177,397,-186,459,1210,4279,40,44,848,1693,1825,2094,2184,2163,1953,1971,2096
948180,65072,32976,65886,33118,1353,531,-186,439,-244,401,1394,3828,56,51,848,1693,1825,2094,2184,2163,1953,1971,2096
949181,65144,33044,65951,33183,1296,577,-215,455,-297,34,1276,3950,57,43,849,1692,1834,2095,2192,2176,1957,1975,2078
950182,65212,33120,66150,33382,1506,627,-263,451,-334,-138,1340,3989,45,43,849,1692,1834,2095,2192,2176,1957,1975,2078
951183,65260,33176,66215,33447,1776,888,-304,416,-359,-159,1428,3752,55,52,847,1692,1834,2095,2192,2176,1957,1975,2078
952184,65344,33256,66280,33512,1304,570,-358,382,-352,-224,1157,3893,53,43,844,1692,1834,2095,2192,2176,1957,1975,2078
953185,65420,33332,66345,33577,1391,607,-412,367,-333,-201,1247,3881,50,50,849,1692,1834,2095,2192,2176,1957,1975,2078
954186,65500,33404,66410,33642,1322,648,-463,327,-318,-306,1163,3752,61,40,848,1716,1854,2120,2240,2103,1914,1927,2016
955187,65588,33448,66475,33707,1195,1024,-513,309,-286,-365,952,3948,45,51,849,1716,1854,2120,2240,2103,1914,1927,2016
956188,65648,33528,66540,33772,1551,555,-565,302,-235,-117,810,4154,61,42,847,1716,1854,2120,2240,2103,1914,1927,2016
957189,65728,33588,66605,33837,1283,811,-618,332,-223,598,778,4276,57,48,847,1716,1854,2120,2240,2103,1914,1927,2016
958190,65808,33664,66670,33902,1266,599,-637,342,-236,417,931,3960,41,51,848,1716,1854,2120,2240,2103,1914,1927,2016
959191,65876,33744,66735,33967,1412,531,-656,341,-237,172,700,4079,55,42,849,1716,1854,2120,2240,2103,1914,1927,2016
960192,65936,33808,66800,34032,1518,732,-676,396,-234,421,469,4426,48,55,849,1747,1876,2164,2281,2078,1908,1912,2013
961193,66008,33880,66865,34097,1361,623,-674,454,-251,852,597,4222,59,47,847,1747,1876,2164,2281,2078,1908,1912,2013
962194,66096,33940,66930,34162,1133,779,-669,456,-294,737,782,4060,50,54,848,1747,1876,2164,2281,2078,1908,1912,2013
963195,66164,34028,66995,34227,1379,401,-655,439,-349,170,944,4081,54,48,849,1747,1876,2164,2281,2078,1908,1912,2013
964196,66244,34100,67060,34292,1212,593,-659,399,-401,9,952,3870,52,52,849,1747,1876,2164,2281,2078,1908,1912,2013
965197,66308,34152,67125,34357,1413,859,-671,401,-444,460,1011,3978,47,59,850,1781,1894,2193,2320,2094,1918,1924,2015
966198,66368,34224,67190,34422,1469,600,-687,419,-492,730,1390,4180,46,42,847,1781,1894,2193,2320,2094,1918,1924,2015
967199,66436,34328,67255,34487,1366,153,-705,376,-546,213,1561,3647,53,49,848,1781,1894,2193,2320,2094,1918,1924,2015
968200,66504,34416,67320,34552,1363,325,-721,311,-621,-200,1490,3784,50,58,850,1781,1894,2193,2320,2094,1918,1924,2015
969201,66568,34480,67385,34617,1414,626,-752,299,-659,-22,1331,3922,57,48,850,1781,1894,2193,2320,2094,1918,1924,2015
970202,66640,34548,67450,34682,1306,572,-769,299,-669,556,1644,3664,40,57,849,1781,1894,2193,2320,2094,1918,1924,2015
971203,66704,34636,67515,34747,1407,294,-795,294,-681,259,1606,3901,45,42,849,1810,1919,2195,2331,2067,1888,1913,1991
972204,66780,34700,67580,34812,1244,596,-814,320,-717,-339,1493,4063,54,58,849,1810,1919,2195,2331,2067,1888,1913,1991
973205,66868,34768,67645,34877,1066,543,-821,355,-726,-9,1522,4119,44,58,850,1810,1919,2195,2331,2067,1888,1913,1991
974206,66928,34844,67710,34942,1423,429,-800,360,-690,163,1545,3684,60,43,851,1810,1919,2195,2331,2067,1888,1913,1991
975207,67020,34916,67775,35007,990,471,-775,406,-667,2,1145,4435,61,42,850,1810,1919,2195,2331,2067,1888,1913,1991
976208,67092,34976,67840,35072,1232,627,-757,453,-642,100,1037,4190,58,57,851,1771,1898,2150,2264,2042,1856,1888,1982
977209,67172,35056,67905,35137,1114,358,-714,490,-645,98,1379,4197,59,44,850,1771,1898,2150,2264,2042,1856,1888,1982
978210,67244,35140,67970,35202,1206,285,-677,492,-631,-221,932,4130,40,53,851,1771,1898,2150,2264,2042,1856,1888,1982
979211,67312,35212,68035,35267,1252,427,-633,512,-622,-70,882,4200,42,52,851,1771,1898,2150,2264,2042,1856,1888,1982
980212,67400,35280,68100,35332,974,473,-597,531,-605,156,935,4068,47,53,850,1771,1898,2150,2264,2042,1856,1888,1982
981213,67468,35356,68165,35397,1221,360,-564,509,-607,-85,1155,3791,58,48,852,1771,1898,2150,2264,2042,1856,1888,1982
982214,67552,35416,68230,35462,998,566,-545,496,-625,-492,971,3799,42,52,851,1752,1884,2143,2260,2022,1838,1870,1962
983215,67632,35484,68295,35527,1030,462,-551,456,-654,-38,1144,3708,61,47,851,1752,1884,2143,2260,2022,1838,1870,1962
984216,67700,35560,68360,35592,1176,349,-556,430,-670,-9,1022,3389,44,57,852,1752,1884,2143,2260,2022,1838,1870,1962
985217,67768,35628,68425,35657,1174,445,-576,402,-701,205,1116,3487,56,45,851,1752,1884,2143,2260,2022,1838,1870,1962
986218,67852,35700,68490,35722,950,386,-606,383,-745,175,1340,3315,50,52,851,1752,1884,2143,2260,2022,1838,1870,1962
987219,67932,35776,68555,35787,982,323,-634,345,-793,99,1334,3075,46,59,852,1800,1918,2186,2318,2005,1829,1868,1952
988220,68000,35856,68620,35852,1128,255,-652,334,-824,227,1209,3303,57,53,853,1800,1918,2186,2318,2005,1829,1868,1952
989221,68096,35912,68685,35917,741,566,-666,355,-841,481,1163,3407,56,47,851,1800,1918,2186,2318,2005,1829,1868,1952
990222,68176,35992,68750,35982,923,247,-680,337,-861,546,1293,3187,54,45,853,1800,1918,2186,2318,2005,1829,1868,1952
991223,68244,36076,68815,36047,1070,174,-674,314,-883,126,1082,3277,50,49,853,1800,1918,2186,2318,2005,1829,1868,1952
992224,68332,36148,68880,36112,791,316,-676,292,-898,199,1121,3333,43,53,853,1800,1918,2186,2318,2005,1829,1868,1952
993225,68412,36212,68945,36177,874,417,-673,284,-899,381,968,3296,59,41,853,1811,1915,2174,2298,2008,1836,1868,1956
994226,68496,36300,69010,36242,801,89,-655,250,-892,387,1094,3353,42,46,853,1811,1915,2174,2298,2008,1836,1868,1956
995227,68572,36356,69075,36307,888,500,-631,195,-886,-165,927,3297,56,50,854,1811,1915,2174,2298,2008,1836,1868,1956
996228,68644,36432,69140,36372,929,236,-606,158,-863,-140,875,3619,45,51,853,1811,1915,2174,2298,2008,1836,1868,1956
997229,68736,36488,69205,36437,646,497,-575,127,-836,77,1033,3456,57,50,853,1811,1915,2174,2298,2008,1836,1868,1956
998230,68808,36560,69270,36502,888,289,-548,70,-804,-191,871,3335,46,44,854,1746,1856,2110,2221,2008,1827,1858,1951
999231,68888,36632,69335,36567,770,280,-525,38,-781,-299,914,3602,42,51,853,1746,1856,2110,2221,2008,1827,1858,1951
1000232,68964,36712,69400,36632,807,162,-503,16,-771,-211,968,3341,59,52,854,1746,1856,2110,2221,2008,1827,1858,1951
1001233,69048,36768,69465,36697,684,473,-494,-23,-763,-223,1032,3284,48,50,854,1746,1856,2110,2221,2008,1827,1858,1951
1002234,69136,36840,69530,36762,605,264,-479,-39,-766,-291,979,3401,53,42,854,1746,1856,2110,2221,2008,1827,1858,1951
1003235,69220,36904,69595,36827,632,366,-472,-47,-771,-250,975,3095,54,43,855,1746,1856,2110,2221,2008,1827,1858,1951
1004236,69304,36968,69660,36892,609,367,-456,-54,-785,-11,1167,3187,41,39,855,1715,1839,2090,2200,2008,1817,1860,1954
1005237,69384,37040,69725,36957,642,257,-453,-55,-804,-140,1044,3270,42,40,855,1715,1839,2090,2200,2008,1817,1860,1954
1006238,69460,37116,69790,37022,678,194,-458,-41,-822,-88,1008,3137,45,40,854,1715,1839,2090,2200,2008,1817,1860,1954
1007239,69552,37184,69855,37087,445,290,-471,-37,-842,-158,1009,2913,51,48,855,1715,1839,2090,2200,2008,1817,1860,1954
1008240,69612,37268,69920,37152,851,67,-489,-51,-864,-85,993,2863,51,42,856,1715,1839,2090,2200,2008,1817,1860,1954
1009241,69692,37328,69985,37217,583,373,-504,-72,-893,-15,879,2829,56,42,854,1739,1863,2110,2226,2004,1814,1859,1952
1010242,69780,37412,70050,37282,455,50,-522,-83,-916,-284,852,2914,57,51,855,1739,1863,2110,2226,2004,1814,1859,1952
1011243,69856,37480,70115,37347,592,246,-531,-94,-932,28,882,2794,39,41,856,1739,1863,2110,2226,2004,1814,1859,1952
1012244,69936,37584,70180,37412,523,-251,-549,-146,-945,-128,725,2762,55,49,855,1739,1863,2110,2226,2004,1814,1859,1952
1013245,70008,37668,70245,37477,615,-25,-559,-193,-959,-397,661,2853,37,51,855,1739,1863,2110,2226,2004,1814,1859,1952
1014246,70080,37760,70310,37542,607,-158,-572,-207,-970,-343,595,2990,39,52,856,1739,1863,2110,2226,2004,1814,1859,1952
1015247,70164,37808,70375,37607,434,413,-570,-217,-960,244,686,3065,57,43,856,1751,1866,2114,2226,1998,1814,1852,1944
1016248,70252,37896,70440,37672,356,-115,-549,-251,-929,-44,552,2838,52,49,856,1751,1866,2114,2226,1998,1814,1852,1944
1017249,70340,38004,70505,37737,328,-417,-538,-285,-896,-440,471,3106,53,38,856,1751,1866,2114,2226,1998,1814,1852,1944
1018250,70416,38068,70570,37802,464,134,-539,-291,-882,-133,394,3099,52,51,856,1751,1866,2114,2226,1998,1814,1852,1944
1019251,70480,38152,70635,37867,616,-139,-535,-324,-869,58,443,2882,36,48,856,1751,1866,2114,2226,1998,1814,1852,1944
1020252,70584,38208,70700,37932,68,221,-529,-315,-837,135,681,3289,51,37,856,1714,1826,2075,2187,1987,1806,1842,1934
1021253,70648,38260,70765,37997,569,286,-531,-319,-814,-40,780,2981,53,49,857,1714,1826,2075,2187,1987,1806,1842,1934
1022254,70740,38332,70830,38062,186,28,-541,-351,-799,-416,521,2836,54,40,855,1714,1826,2075,2187,1987,1806,1842,1934
1023255,70824,38408,70895,38127,263,-36,-543,-344,-795,-213,459,3049,40,39,856,1714,1826,2075,2187,1987,1806,1842,1934
1024256,70900,38484,70960,38192,350,-49,-562,-337,-788,273,705,2988,39,48,857,1714,1826,2075,2187,1987,1806,1842,1934
1025257,70992,38548,71025,38257,117,102,-573,-365,-784,-24,802,2720,46,50,857,1714,1826,2075,2187,1987,1806,1842,1934
1026258,71060,38632,71090,38322,413,-171,-599,-392,-783,-622,718,2869,37,34,857,1705,1816,2064,2184,2005,1822,1861,1950
1027259,71156,38704,71155,38387,25,-29,-617,-391,-801,-184,721,2928,50,47,857,1705,1816,2064,2184,2005,1822,1861,1950
1028260,71252,38772,71220,38452,-13,17,-617,-398,-831,-12,713,2946,49,43,858,1705,1816,2064,2184,2005,1822,1861,1950
1029261,71324,38828,71285,38517,279,177,-610,-411,-846,-232,542,2972,56,47,858,1705,1816,2064,2184,2005,1822,1861,1950
1030262,71428,38880,71350,38582,-169,243,-587,-416,-860,-56,555,3164,54,32,857,1705,1816,2064,2184,2005,1822,1861,1950
