%  Data file recorded 2016/7/16  19:48:44
%  Stride Frequency         = [1, 1]
%  Lead In /Lead Out        = 
%  Deltas (Fractional)      = [0.25, 0.25, 0.25],[0.25, 0.25, 0.25]
%  Phase                    = 32768
%  Experiment.py 
%  Motor Gains    = [5000, 400, 200, 0, 300, 5000, 400, 200, 0, 300]
% Columns: 
% time | Right Leg Pos | Left Leg Pos | Commanded Right Leg Pos | Commanded Left Leg Pos | DCR | DCL | GyroX | GyroY | GyroZ | AX | AY | AZ | RBEMF | LBEMF | VBatt | S1 | S2 | S3 | S4 | S5 | S6 | S7 | S8
785,-43892,-18780,-47718,-14950,-3800,3800,80,22,11,61,108,3970,12,-2,879,1433,1558,1746,1820,1780,1600,1654,1740
1786,-43896,-18776,-47718,-14950,-3800,3800,79,21,10,63,80,3950,6,7,879,1431,1557,1744,1818,1779,1597,1651,1739
2787,-43908,-18772,-47718,-14950,-3800,3800,78,21,10,60,65,3926,-7,0,879,1431,1557,1744,1818,1779,1597,1651,1739
3788,-43892,-18788,-47718,-14950,-3800,3800,79,21,11,79,67,3965,-7,1,879,1431,1557,1744,1818,1779,1597,1651,1739
4789,-43892,-18784,-47718,-14950,-3800,3800,80,21,14,60,86,3929,2,0,879,1431,1557,1744,1818,1779,1597,1651,1739
5790,-43912,-18780,-47718,-14950,-3800,3800,84,18,15,33,105,3911,12,-5,879,1431,1557,1744,1818,1779,1597,1651,1739
6791,-43900,-18792,-47718,-14950,-3800,3800,82,20,15,44,111,3957,4,8,879,1434,1560,1746,1820,1780,1600,1652,1738
7792,-43896,-18780,-47718,-14950,-3800,3800,80,22,11,77,91,3949,-7,-3,879,1434,1560,1746,1820,1780,1600,1652,1738
8793,-43892,-18776,-47718,-14950,-3800,3800,78,22,11,70,98,3929,-1,-3,879,1434,1560,1746,1820,1780,1600,1652,1738
9794,-43892,-18784,-47718,-14950,-3800,3800,81,22,11,57,84,3965,2,9,879,1434,1560,1746,1820,1780,1600,1652,1738
10795,-43896,-18780,-47718,-14950,-3800,3800,84,23,13,59,78,3962,12,-6,879,1434,1560,1746,1820,1780,1600,1652,1738
11796,-43892,-18772,-47718,-14950,-3800,3800,81,23,13,53,82,3931,0,6,879,1434,1560,1746,1820,1780,1600,1652,1738
12797,-43888,-18792,-47718,-14950,-3800,3800,78,20,11,74,73,3936,-6,4,879,1431,1557,1744,1818,1779,1599,1653,1740
13798,-43888,-18788,-47718,-14950,-3800,3800,79,21,11,50,67,3940,-4,-3,879,1431,1557,1744,1818,1779,1599,1653,1740
14799,-43888,-18780,-47718,-14950,-3800,3800,81,21,13,55,68,3953,4,6,879,1431,1557,1744,1818,1779,1599,1653,1740
15800,-43900,-18784,-47718,-14950,-3800,3800,80,21,15,58,79,3954,4,-5,879,1431,1557,1744,1818,1779,1599,1653,1740
16801,-43892,-18780,-47718,-14950,-3800,3800,80,21,13,53,93,3906,10,5,879,1431,1557,1744,1818,1779,1599,1653,1740
17802,-43908,-18780,-47718,-14950,-3800,3800,79,19,15,84,85,3908,11,-5,879,1432,1557,1744,1819,1780,1600,1651,1738
18803,-43900,-18768,-47718,-14950,-3800,3800,79,18,16,67,92,3949,9,8,879,1432,1557,1744,1819,1780,1600,1651,1738
19804,-43896,-18788,-47718,-14950,-3800,3800,81,19,15,75,90,3988,0,-5,878,1432,1557,1744,1819,1780,1600,1651,1738
20805,-43896,-18784,-47718,-14950,-3800,3800,84,19,13,100,86,3948,-6,-3,879,1432,1557,1744,1819,1780,1600,1651,1738
21806,-43892,-18792,-47718,-14950,-3800,3800,82,21,11,87,89,3963,-7,9,879,1432,1557,1744,1819,1780,1600,1651,1738
22807,-43892,-18780,-47718,-14950,-3800,3800,81,21,12,76,70,3972,-6,-6,879,1432,1557,1744,1819,1780,1600,1651,1738
23808,-43908,-18792,-47718,-14950,-3800,3800,78,22,15,60,67,3941,4,7,879,1433,1558,1746,1819,1780,1599,1652,1739
24809,-43912,-18788,-47718,-14950,-3800,3800,75,24,17,71,73,3922,2,1,879,1433,1558,1746,1819,1780,1599,1652,1739
25810,-43908,-18776,-47718,-14950,-3800,3800,79,22,11,85,84,3944,9,5,879,1433,1558,1746,1819,1780,1599,1652,1739
26811,-43892,-18784,-47718,-14950,-3800,3800,80,22,9,58,75,3938,12,4,879,1433,1558,1746,1819,1780,1599,1652,1739
27812,-43888,-18776,-47718,-14950,-3800,3800,78,22,11,53,92,3946,11,-6,879,1433,1558,1746,1819,1780,1599,1652,1739
28813,-43892,-18772,-47718,-14950,-3800,3800,78,21,11,68,75,3938,11,8,879,1432,1557,1744,1818,1780,1599,1653,1740
29814,-43892,-18792,-47718,-14950,-3800,3800,78,21,11,83,87,3940,3,-6,879,1432,1557,1744,1818,1780,1599,1653,1740
30815,-43892,-18796,-47718,-14950,-3800,3800,76,22,11,60,95,3910,4,9,879,1432,1557,1744,1818,1780,1599,1653,1740
31816,-43896,-18780,-47718,-14950,-3800,3800,78,20,12,34,95,3949,-2,-5,879,1432,1557,1744,1818,1780,1599,1653,1740
32817,-43892,-18792,-47718,-14950,-3800,3800,79,19,11,22,76,3969,-7,6,879,1432,1557,1744,1818,1780,1599,1653,1740
33818,-43908,-18776,-47718,-14950,-3800,3800,78,20,12,50,86,3970,-7,2,879,1432,1556,1744,1818,1780,1599,1653,1740
34819,-43896,-18784,-47718,-14950,-3800,3800,79,21,10,62,91,3951,-5,3,879,1432,1556,1744,1819,1779,1597,1651,1737
35820,-43904,-18776,-47718,-14950,-3800,3800,80,23,12,60,75,3908,9,3,879,1432,1556,1744,1819,1779,1597,1651,1737
36821,-43888,-18780,-47718,-14950,-3800,3800,78,24,14,79,79,3919,11,-6,878,1432,1556,1744,1819,1779,1597,1651,1737
37822,-43892,-18784,-47718,-14950,-3800,3800,77,25,15,54,84,3968,5,5,879,1432,1556,1744,1819,1779,1597,1651,1737
38823,-43896,-18780,-47718,-14950,-3800,3800,81,24,16,61,96,3927,-3,4,879,1432,1556,1744,1819,1779,1597,1651,1737
39824,-43904,-18776,-47718,-14950,-3800,3800,80,23,14,54,94,3930,-5,-4,879,1433,1558,1746,1819,1780,1598,1652,1739
40825,-43888,-18772,-47718,-14950,-3800,3800,79,22,11,39,57,3978,-6,8,879,1433,1558,1746,1819,1780,1598,1652,1739
41826,-43892,-18784,-47718,-14950,-3800,3800,79,22,12,38,81,3948,-3,-5,879,1433,1558,1746,1819,1780,1598,1652,1739
42827,-43904,-18788,-47718,-14950,-3800,3800,79,20,13,66,62,3927,-4,7,879,1433,1558,1746,1819,1780,1598,1652,1739
43828,-43896,-18784,-47718,-14950,-3800,3800,80,20,13,62,97,3954,-4,-4,879,1433,1558,1746,1819,1780,1598,1652,1739
44829,-43908,-18784,-47718,-14950,-3800,3800,79,21,13,48,73,3944,1,-1,879,1432,1557,1744,1819,1781,1599,1653,1739
45830,-43896,-18784,-47718,-14950,-3800,3800,80,21,10,68,89,3950,6,9,879,1432,1557,1744,1819,1781,1599,1653,1739
46831,-43888,-18780,-47718,-14950,-3800,3800,80,22,9,56,79,3963,12,-6,879,1432,1557,1744,1819,1781,1599,1653,1739
47832,-43908,-18780,-47718,-14950,-3800,3800,79,22,8,54,97,3949,11,5,879,1432,1557,1744,1819,1781,1599,1653,1739
48833,-43884,-18788,-47718,-14950,-3800,3800,78,22,12,53,71,3938,3,2,879,1432,1557,1744,1819,1781,1599,1653,1739
49834,-43888,-18788,-47718,-14950,-3800,3800,79,21,11,50,67,3934,-7,2,879,1432,1557,1744,1819,1781,1599,1653,1739
50835,-43896,-18784,-47718,-14950,-3800,3800,78,24,12,69,89,3962,-3,3,879,1433,1558,1743,1819,1779,1598,1652,1738
51836,-43916,-18788,-47718,-14950,-3800,3800,79,21,13,70,79,3967,0,-3,879,1433,1558,1743,1819,1779,1598,1652,1738
52837,-43892,-18780,-47718,-14950,-3800,3800,81,21,12,80,86,3923,7,0,879,1433,1558,1743,1819,1779,1598,1652,1738
53838,-43896,-18780,-47718,-14950,-3800,3800,82,20,12,55,96,3926,11,-3,878,1433,1558,1743,1819,1779,1598,1652,1738
54839,-43896,-18792,-47718,-14950,-3800,3800,81,20,12,47,103,3955,5,7,879,1433,1558,1743,1819,1779,1598,1652,1738
55840,-43900,-18784,-47718,-14950,-3800,3800,82,20,13,57,97,3954,5,-6,879,1433,1558,1745,1819,1780,1598,1652,1735
56841,-43916,-18776,-47718,-14950,-3800,3800,82,19,14,67,101,3928,1,9,879,1433,1558,1745,1819,1780,1598,1652,1735
57842,-43904,-18784,-47718,-14950,-3800,3800,79,20,15,63,99,3930,3,-5,879,1433,1558,1745,1819,1780,1598,1652,1735
58843,-43888,-18796,-47718,-14950,-3800,3800,79,22,13,65,98,3942,2,8,879,1433,1558,1745,1819,1780,1598,1652,1735
59844,-43892,-18784,-47718,-14950,-3800,3800,80,23,12,45,102,3976,-1,-5,879,1433,1558,1745,1819,1780,1598,1652,1735
60845,-43884,-18784,-47718,-14950,-3800,3800,80,22,14,71,95,3958,1,7,879,1433,1558,1745,1819,1780,1598,1652,1735
61846,-43900,-18768,-47718,-14950,-3800,3800,80,20,13,80,106,3931,-7,2,879,1432,1557,1743,1819,1780,1598,1653,1740
62847,-43900,-18776,-47718,-14950,-3800,3800,79,18,9,74,98,3953,-4,0,879,1432,1557,1743,1819,1780,1598,1653,1740
63848,-43900,-18780,-47718,-14950,-3800,3800,78,19,12,67,93,3961,-5,4,879,1432,1557,1743,1819,1780,1598,1653,1740
64849,-43896,-18784,-47718,-14950,-3800,3800,78,22,12,50,90,3966,2,-6,879,1432,1557,1743,1819,1780,1598,1653,1740
65850,-43904,-18780,-47718,-14950,-3800,3800,78,21,13,43,85,3976,7,8,879,1432,1557,1743,1819,1780,1598,1653,1740
66851,-43904,-18784,-47718,-14950,-3800,3800,80,20,12,65,93,3949,11,-4,879,1433,1558,1744,1819,1780,1598,1652,1739
67852,-43892,-18784,-47718,-14950,-3800,3800,79,18,13,61,75,3929,12,9,879,1433,1558,1744,1819,1780,1598,1652,1739
68853,-43896,-18796,-47718,-14950,-3800,3800,78,19,15,93,84,3943,9,-6,879,1433,1558,1744,1819,1780,1598,1652,1739
69854,-43888,-18784,-47718,-14950,-3800,3800,80,20,15,101,88,3941,12,9,879,1433,1558,1744,1819,1780,1598,1652,1739
70855,-43900,-18784,-47718,-14950,-3800,3800,83,21,13,40,64,3971,7,-5,878,1433,1558,1744,1819,1780,1598,1652,1739
71856,-43888,-18780,-47718,-14950,-3800,3800,82,21,14,71,84,3981,-3,5,879,1433,1558,1744,1819,1780,1598,1652,1739
72857,-43900,-18768,-47718,-14950,-3800,3800,81,21,13,81,117,3988,-1,2,879,1433,1558,1746,1820,1780,1599,1652,1739
73858,-43900,-18792,-47718,-14950,-3800,3800,81,21,13,94,122,3946,3,6,879,1433,1558,1746,1820,1780,1599,1652,1739
74859,-43900,-18788,-47718,-14950,-3800,3800,80,20,16,112,110,3957,-3,-3,879,1433,1558,1746,1820,1780,1599,1652,1739
75860,-43900,-18780,-47718,-14950,-3800,3800,80,21,14,113,95,3950,3,3,879,1433,1558,1746,1820,1780,1599,1652,1739
76861,-43900,-18780,-47718,-14950,-3800,3800,81,20,13,88,96,3930,-3,-4,879,1433,1558,1746,1820,1780,1599,1652,1739
77862,-43900,-18788,-47718,-14950,-3800,3800,81,20,11,59,68,3934,-3,6,879,1433,1557,1744,1819,1780,1598,1652,1739
78863,-43896,-18772,-47718,-14950,-3800,3800,80,19,12,90,86,3980,-2,2,879,1433,1557,1744,1819,1780,1598,1652,1739
79864,-43892,-18788,-47718,-14950,-3800,3800,80,19,12,87,84,3963,-7,5,879,1433,1557,1744,1819,1780,1598,1652,1739
80865,-43896,-18784,-47718,-14950,-3800,3800,77,17,12,86,80,3907,-5,-1,879,1433,1557,1744,1819,1780,1598,1652,1739
81866,-43904,-18776,-47718,-14950,-3800,3800,76,19,10,88,76,3931,-5,2,879,1433,1557,1744,1819,1780,1598,1652,1739
82867,-43900,-18784,-47718,-14950,-3800,3800,79,20,11,76,92,3937,5,-3,879,1433,1557,1744,1819,1780,1598,1652,1739
83868,-43896,-18788,-47718,-14950,-3800,3800,82,23,10,70,119,3952,10,4,879,1433,1557,1744,1819,1780,1598,1652,1739
84869,-43908,-18788,-47718,-14950,-3800,3800,80,22,11,71,89,3949,6,2,879,1433,1557,1744,1819,1780,1598,1652,1739
85870,-43892,-18788,-47718,-14950,-3800,3800,78,20,12,89,80,3929,11,4,879,1433,1557,1744,1819,1780,1598,1652,1739
86871,-43896,-18768,-47718,-14950,-3800,3800,77,20,13,95,79,3945,12,1,879,1433,1557,1744,1819,1780,1598,1652,1739
87872,-43904,-18780,-47718,-14950,-3800,3800,76,20,11,84,71,3931,12,-3,878,1433,1557,1744,1819,1780,1598,1652,1739
88873,-43892,-18776,-47718,-14950,-3800,3800,78,23,12,65,87,3937,6,8,879,1433,1558,1745,1820,1779,1595,1650,1738
89874,-43896,-18788,-47718,-14950,-3800,3800,79,21,10,59,88,3914,9,-6,879,1433,1558,1745,1820,1779,1595,1650,1738
90875,-43892,-18776,-47718,-14950,-3800,3800,80,20,12,61,96,3935,12,9,879,1433,1558,1745,1820,1779,1595,1650,1738
91876,-43892,-18784,-47718,-14950,-3800,3800,81,21,11,66,91,3930,12,-3,879,1433,1558,1745,1820,1779,1595,1650,1738
92877,-43888,-18788,-47718,-14950,-3800,3800,80,22,12,65,75,3929,12,4,879,1433,1558,1745,1820,1779,1595,1650,1738
93878,-43896,-18784,-47718,-14950,-3800,3800,80,21,12,57,66,3943,8,-3,879,1433,1558,1745,1820,1779,1595,1650,1738
94879,-43892,-18784,-47718,-14950,-3800,3800,80,24,12,71,79,3933,5,0,879,1433,1556,1743,1818,1780,1598,1653,1740
95880,-43892,-18780,-47718,-14950,-3800,3800,79,23,10,70,87,3941,7,2,879,1433,1556,1743,1818,1780,1598,1653,1740
96881,-43908,-18780,-47718,-14950,-3800,3800,80,21,8,61,75,3965,-2,1,879,1433,1556,1743,1818,1780,1598,1653,1740
97882,-43900,-18788,-47718,-14950,-3800,3800,81,21,12,82,83,3940,0,6,879,1433,1556,1743,1818,1780,1598,1653,1740
98883,-43904,-18776,-47718,-14950,-3800,3800,82,22,12,61,65,3962,3,1,879,1433,1556,1743,1818,1780,1598,1653,1740
99884,-43896,-18776,-47718,-14950,-3800,3800,80,22,10,87,79,3964,-2,-2,879,1433,1558,1741,1815,1775,1597,1651,1739
100885,-43896,-18780,-47718,-14950,-3800,3800,77,22,10,107,90,3923,10,3,879,1433,1558,1741,1815,1775,1597,1651,1739
101886,-43896,-18776,-47718,-14950,-3800,3800,76,23,11,76,84,3918,12,-2,879,1433,1558,1741,1815,1775,1597,1651,1739
102887,-43904,-18780,-47718,-14950,-3800,3800,77,23,14,77,88,3908,11,8,879,1433,1558,1741,1815,1775,1597,1651,1739
103888,-43884,-18788,-47718,-14950,-3800,3800,79,24,13,70,78,3944,10,-3,879,1433,1558,1741,1815,1775,1597,1651,1739
104889,-43888,-18776,-47718,-14950,-3800,3800,80,22,11,59,80,3941,11,8,878,1433,1558,1741,1815,1775,1597,1651,1739
105890,-43892,-18780,-47718,-14950,-3800,3800,78,22,14,72,64,3950,10,-1,879,1433,1558,1746,1820,1780,1598,1652,1738
106891,-43900,-18784,-47718,-14950,-3800,3800,77,24,16,58,83,3957,9,7,879,1433,1558,1746,1820,1780,1598,1652,1738
107892,-43908,-18780,-47718,-14950,-3800,3800,80,24,12,55,100,3948,7,0,879,1433,1558,1746,1820,1780,1598,1652,1738
108893,-43884,-18780,-47718,-14950,-3800,3800,82,21,9,58,104,3970,11,2,879,1433,1558,1746,1820,1780,1598,1652,1738
109894,-43912,-18784,-47718,-14950,-3800,3800,82,21,12,80,121,3962,10,-2,879,1433,1558,1746,1820,1780,1598,1652,1738
110895,-43884,-18788,-47718,-14950,-3800,3800,79,22,11,45,103,3940,10,2,879,1431,1558,1746,1820,1780,1598,1653,1740
111896,-43904,-18784,-47718,-14950,-3800,3800,80,22,10,59,91,3953,12,7,879,1431,1558,1746,1820,1780,1598,1653,1740
112897,-43904,-18788,-47718,-14950,-3800,3800,83,21,11,75,79,3959,12,-3,879,1431,1558,1746,1820,1780,1598,1653,1740
113898,-43908,-18784,-47718,-14950,-3800,3800,81,21,11,56,92,3942,5,7,879,1431,1558,1746,1820,1780,1598,1653,1740
114899,-43900,-18776,-47718,-14950,-3800,3800,79,18,9,37,108,3923,2,-5,879,1431,1558,1746,1820,1780,1598,1653,1740
115900,-43892,-18780,-47718,-14950,-3800,3800,79,20,11,50,75,3933,-2,4,879,1431,1558,1746,1820,1780,1598,1653,1740
116901,-43892,-18776,-47718,-14950,-3800,3800,81,22,12,67,72,3932,-7,-5,879,1433,1557,1744,1818,1780,1599,1651,1738
117902,-43904,-18784,-47718,-14950,-3800,3800,81,19,11,60,65,3925,-6,9,879,1433,1557,1744,1818,1780,1599,1651,1738
118903,-43896,-18784,-47718,-14950,-3800,3800,80,19,11,62,81,3902,-2,-5,879,1433,1557,1744,1818,1780,1599,1651,1738
119904,-43904,-18784,-47718,-14950,-3800,3800,83,19,10,69,71,3945,3,3,879,1433,1557,1744,1818,1780,1599,1651,1738
120905,-43908,-18780,-47718,-14950,-3800,3800,82,21,11,67,61,3935,3,5,879,1433,1557,1744,1818,1780,1599,1651,1738
121906,-43908,-18784,-47718,-14950,-3800,3800,81,22,14,92,72,3927,7,-2,878,1434,1560,1746,1820,1780,1600,1652,1738
122907,-43912,-18784,-47718,-14950,-3800,3800,81,19,14,75,56,3960,9,7,879,1434,1560,1746,1820,1780,1600,1652,1738
123908,-43888,-18776,-47718,-14950,-3800,3800,81,17,13,80,69,3936,9,3,879,1434,1560,1746,1820,1780,1600,1652,1738
124909,-43904,-18788,-47718,-14950,-3800,3800,80,16,12,72,73,3951,3,4,879,1434,1560,1746,1820,1780,1600,1652,1738
125910,-43896,-18772,-47718,-14950,-3800,3800,79,20,12,68,80,3962,-4,-2,879,1434,1560,1746,1820,1780,1600,1652,1738
126911,-43892,-18780,-47718,-14950,-3800,3800,82,22,14,79,67,3960,-7,5,879,1434,1560,1746,1820,1780,1600,1652,1738
127912,-43896,-18788,-47718,-14950,-3800,3800,81,19,14,65,96,3961,-1,-4,879,1432,1557,1744,1818,1779,1598,1653,1740
128913,-43904,-18780,-47718,-14950,-3800,3800,81,19,12,82,105,3889,2,4,879,1432,1557,1744,1818,1779,1598,1653,1740
129914,-43896,-18792,-47718,-14950,-3800,3800,81,21,13,79,93,3912,7,5,879,1432,1557,1744,1818,1779,1598,1653,1740
130915,-43904,-18788,-47718,-14950,-3800,3800,82,23,15,91,111,3939,12,1,879,1432,1557,1744,1818,1779,1598,1653,1740
131916,-43900,-18784,-47718,-14950,-3800,3800,80,23,10,79,101,3941,11,7,879,1432,1557,1744,1818,1779,1598,1653,1740
132917,-43888,-18784,-47718,-14950,-3800,3800,78,23,9,81,95,3929,10,-5,879,1434,1557,1744,1819,1779,1598,1653,1739
133918,-43900,-18788,-47718,-14950,-3800,3800,77,20,11,73,85,3952,0,7,879,1434,1557,1744,1819,1779,1598,1653,1739
134919,-43904,-18776,-47718,-14950,-3800,3800,78,17,14,87,82,3934,-4,-5,879,1434,1557,1744,1819,1779,1598,1653,1739
135920,-43904,-18768,-47718,-14950,-3800,3800,79,18,16,86,59,3930,-2,7,879,1434,1557,1744,1819,1779,1598,1653,1739
136921,-43884,-18788,-47718,-14950,-3800,3800,82,19,14,84,87,3948,-5,-5,879,1434,1557,1744,1819,1779,1598,1653,1739
137922,-43896,-18784,-47718,-14950,-3800,3800,80,19,13,88,95,3955,-7,4,879,1434,1557,1744,1819,1779,1598,1653,1739
138923,-43900,-18780,-47718,-14950,-3800,3800,78,20,12,84,95,3939,-7,5,879,1433,1557,1745,1819,1781,1598,1653,1739
139924,-43892,-18776,-47718,-14950,-3800,3800,78,21,12,61,93,3929,0,-5,879,1433,1557,1745,1819,1781,1598,1653,1739
140925,-43904,-18784,-47718,-14950,-3800,3800,80,22,11,64,88,3906,-2,9,879,1433,1557,1745,1819,1781,1598,1653,1739
141926,-43904,-18780,-47718,-14950,-3800,3800,80,22,12,74,92,3912,-7,-5,879,1433,1557,1745,1819,1781,1598,1653,1739
142927,-43892,-18772,-47718,-14950,-3800,3800,83,22,12,54,74,3970,-7,9,879,1433,1557,1745,1819,1781,1598,1653,1739
143928,-43900,-18792,-47718,-14950,-3800,3800,83,21,10,60,93,3949,-6,-3,879,1432,1556,1744,1818,1779,1597,1652,1738
144929,-43904,-18784,-47718,-14950,-3800,3800,77,21,11,62,96,3935,-7,2,879,1432,1556,1744,1818,1779,1597,1652,1738
145930,-43896,-18792,-47718,-14950,-3800,3800,76,21,11,69,80,3940,-7,0,879,1432,1556,1744,1818,1779,1597,1652,1738
146931,-43904,-18768,-47718,-14950,-3800,3800,78,20,11,73,85,3975,-8,-3,879,1432,1556,1744,1818,1779,1597,1652,1738
147932,-43896,-18776,-47718,-14950,-3800,3800,80,21,13,75,104,3959,-4,8,879,1432,1556,1744,1818,1779,1597,1652,1738
148933,-43892,-18788,-47718,-14950,-3800,3800,79,21,11,65,91,3984,-5,0,879,1432,1556,1744,1818,1779,1597,1652,1738
149934,-43904,-18780,-47718,-14950,-3800,3800,79,21,8,88,81,3978,-7,7,879,1433,1557,1743,1818,1779,1598,1652,1739
150935,-43904,-18784,-47718,-14950,-3800,3800,77,22,8,67,95,3945,-6,-6,879,1433,1557,1743,1818,1779,1598,1652,1739
151936,-43880,-18788,-47718,-14950,-3800,3800,77,22,11,58,78,3927,-7,8,879,1433,1557,1743,1818,1779,1598,1652,1739
152937,-43900,-18780,-47718,-14950,-3800,3800,77,22,13,94,73,3943,-7,-6,879,1433,1557,1743,1818,1779,1598,1652,1739
153938,-43892,-18792,-47718,-14950,-3800,3800,79,22,11,77,76,3947,-7,8,879,1433,1557,1743,1818,1779,1598,1652,1739
154939,-43896,-18784,-47718,-14950,-3800,3800,80,25,10,55,59,3929,-7,-3,879,1433,1557,1744,1819,1781,1600,1653,1739
155940,-43904,-18780,-47718,-14950,-3800,3800,80,23,12,44,75,3903,0,-2,878,1433,1557,1744,1819,1781,1600,1653,1739
156941,-43904,-18784,-47718,-14950,-3800,3800,78,21,13,42,78,3930,11,5,879,1433,1557,1744,1819,1781,1600,1653,1739
157942,-43888,-18776,-47718,-14950,-3800,3800,78,22,14,46,76,3948,11,0,879,1433,1557,1744,1819,1781,1600,1653,1739
158943,-43888,-18792,-47718,-14950,-3800,3800,82,20,14,60,86,3943,10,-6,879,1433,1557,1744,1819,1781,1600,1653,1739
159944,-43908,-18772,-47718,-14950,-3800,3800,83,19,12,80,73,3953,8,2,879,1433,1557,1744,1819,1781,1600,1653,1739
160945,-43904,-18780,-47718,-14950,-3800,3800,83,19,15,72,90,3959,-3,3,879,1434,1558,1745,1819,1779,1598,1652,1739
161946,-43896,-18776,-47718,-14950,-3800,3800,82,21,13,63,100,3952,-7,-6,879,1434,1558,1745,1819,1779,1598,1652,1739
162947,-43904,-18776,-47718,-14950,-3800,3800,79,24,11,67,100,3927,-6,7,879,1434,1558,1745,1819,1779,1598,1652,1739
163948,-43884,-18788,-47718,-14950,-3800,3800,81,21,13,60,78,3974,1,-6,879,1434,1558,1745,1819,1779,1598,1652,1739
164949,-43900,-18788,-47718,-14950,-3800,3800,82,21,12,81,88,3970,11,9,879,1434,1558,1745,1819,1779,1598,1652,1739
165950,-43896,-18788,-47718,-14950,-3800,3800,83,21,12,89,95,3928,11,-4,879,1433,1558,1745,1819,1779,1598,1652,1739
166951,-43900,-18780,-47718,-14950,-3800,3800,79,21,13,74,92,3938,11,8,879,1433,1558,1745,1819,1779,1598,1652,1739
167952,-43884,-18772,-47718,-14950,-3800,3800,79,21,11,65,116,3953,9,-4,879,1433,1558,1745,1819,1779,1598,1652,1739
168953,-43900,-18780,-47718,-14950,-3800,3800,79,20,12,74,81,3925,12,5,879,1433,1558,1745,1819,1779,1598,1652,1739
169954,-43900,-18768,-47718,-14950,-3800,3800,80,19,14,60,64,3915,10,-4,879,1433,1558,1745,1819,1779,1598,1652,1739
170955,-43904,-18792,-47718,-14950,-3800,3800,80,19,16,45,76,3923,-2,6,879,1433,1558,1745,1819,1779,1598,1652,1739
171956,-43908,-18788,-47718,-14950,-3800,3800,79,19,16,60,78,3969,-4,-1,879,1433,1557,1745,1819,1780,1599,1653,1740
172957,-43900,-18776,-47718,-14950,-3800,3800,80,21,12,81,97,3984,-7,8,878,1433,1557,1745,1819,1780,1599,1653,1740
173958,-43900,-18792,-47718,-14950,-3800,3800,80,24,12,57,103,3934,-7,5,879,1433,1557,1745,1819,1780,1599,1653,1740
174959,-43900,-18780,-47718,-14950,-3800,3800,77,23,12,45,58,3939,-7,-6,879,1433,1557,1745,1819,1780,1599,1653,1740
175960,-43888,-18788,-47718,-14950,-3800,3800,78,21,14,38,85,3945,-5,7,879,1433,1557,1745,1819,1780,1599,1653,1740
176961,-43904,-18776,-47718,-14950,-3800,3800,77,20,13,67,86,3931,0,-5,879,1433,1557,1744,1818,1779,1597,1652,1739
177962,-43904,-18784,-47718,-14950,-3800,3800,78,19,14,59,96,3931,0,9,879,1433,1557,1744,1818,1779,1597,1652,1739
178963,-43896,-18780,-47718,-14950,-3800,3800,78,20,13,87,110,3952,7,-2,879,1433,1557,1744,1818,1779,1597,1652,1739
179964,-43896,-18768,-47718,-14950,-3800,3800,77,23,11,103,103,3935,11,4,879,1433,1557,1744,1818,1779,1597,1652,1739
180965,-43908,-18780,-47718,-14950,-3800,3800,81,23,13,85,103,3944,10,-1,879,1433,1557,1744,1818,1779,1597,1652,1739
181966,-43900,-18784,-47718,-14950,-3800,3800,82,21,13,61,106,3955,12,-2,879,1433,1557,1744,1818,1779,1597,1652,1739
182967,-43892,-18776,-47718,-14950,-3800,3800,82,22,14,73,84,3949,12,0,879,1435,1558,1745,1819,1780,1599,1653,1739
183968,-43908,-18792,-47718,-14950,-3800,3800,79,23,15,81,64,3927,10,8,879,1435,1558,1745,1819,1780,1599,1653,1739
184969,-43892,-18768,-47718,-14950,-3800,3800,77,22,13,72,59,3949,11,-5,879,1435,1558,1745,1819,1780,1599,1653,1739
185970,-43896,-18776,-47718,-14950,-3800,3800,75,19,12,73,82,3949,12,9,879,1435,1558,1745,1819,1780,1599,1653,1739
186971,-43904,-18772,-47718,-14950,-3800,3800,76,17,11,62,86,3948,9,-2,879,1435,1558,1745,1819,1780,1599,1653,1739
187972,-43908,-18780,-47718,-14950,-3800,3800,78,18,10,64,89,3970,10,5,879,1434,1557,1745,1820,1780,1599,1654,1740
188973,-43900,-18792,-47718,-14950,-3800,3800,79,20,12,90,85,3956,12,0,879,1434,1557,1745,1820,1780,1599,1654,1740
189974,-43888,-18788,-47718,-14950,-3800,3800,81,21,14,89,77,3949,12,-3,878,1434,1557,1745,1820,1780,1599,1654,1740
190975,-43900,-18780,-47718,-14950,-3800,3800,83,20,16,64,89,3919,3,7,879,1434,1557,1745,1820,1780,1599,1654,1740
191976,-43896,-18776,-47718,-14950,-3800,3800,83,17,14,71,95,3926,4,2,879,1434,1557,1745,1820,1780,1599,1654,1740
192977,-43888,-18776,-47718,-14950,-3800,3800,82,18,12,84,75,3935,9,-5,879,1434,1557,1745,1820,1780,1599,1654,1740
193978,-43888,-18776,-47718,-14950,-3800,3800,82,21,11,74,73,3953,8,9,879,1433,1557,1743,1817,1779,1595,1649,1735
194979,-43892,-18776,-47718,-14950,-3800,3800,80,20,12,71,82,3953,10,-3,879,1433,1557,1743,1817,1779,1595,1649,1735
195980,-43900,-18780,-47718,-14950,-3800,3800,76,20,12,69,90,3940,12,-1,879,1433,1557,1743,1817,1779,1595,1649,1735
196981,-43892,-18780,-47718,-14950,-3800,3800,76,19,12,68,90,3947,10,6,879,1433,1557,1743,1817,1779,1595,1649,1735
197982,-43896,-18780,-47718,-14950,-3800,3800,78,21,12,59,93,3913,12,-5,879,1433,1557,1743,1817,1779,1595,1649,1735
198983,-43892,-18788,-47718,-14950,-3800,3800,80,20,11,68,95,3944,11,5,879,1434,1557,1743,1818,1779,1598,1651,1738
199984,-43904,-18780,-47718,-14950,-3800,3800,82,22,9,70,92,3976,12,-5,879,1434,1557,1743,1818,1779,1598,1651,1738
200985,-43892,-18780,-47718,-14950,-3800,3800,82,24,11,68,86,3957,12,8,879,1434,1557,1743,1818,1779,1598,1651,1738
201986,-43892,-18784,-47718,-14950,-3800,3800,79,24,12,89,59,3939,12,-4,879,1434,1557,1743,1818,1779,1598,1651,1738
202987,-43888,-18772,-47718,-14950,-3800,3800,79,22,12,83,88,3956,12,9,879,1434,1557,1743,1818,1779,1598,1651,1738
203988,-43904,-18784,-47718,-14950,-3800,3800,80,24,12,71,84,3943,12,-6,879,1434,1557,1743,1818,1779,1598,1651,1738
204989,-43892,-18784,-47653,-14885,-3800,3800,79,25,12,77,92,3937,9,9,879,1433,1557,1744,1820,1781,1599,1651,1737
205990,-43892,-18780,-47588,-14820,-3800,3800,81,22,10,43,109,3925,12,-6,841,1433,1557,1744,1820,1781,1599,1651,1737
206991,-43904,-18760,-47523,-14755,-3800,3800,83,20,9,66,107,3922,20,267,844,1433,1557,1744,1820,1781,1599,1651,1737
207992,-43896,-18712,-47458,-14690,-3800,3800,79,19,5,117,103,3862,4,284,848,1433,1557,1744,1820,1781,1599,1651,1737
208993,-43904,-18540,-47393,-14625,-3741,3060,62,11,2,30,94,4066,5,305,849,1433,1557,1744,1820,1781,1599,1651,1737
209994,-43904,-18316,-47328,-14560,-3762,2216,60,-38,2,-379,-12,4076,11,295,858,1433,1728,1743,1818,1779,1598,1653,1740
210995,-43908,-18076,-47263,-14495,-3630,1804,54,-110,-6,-669,-58,4511,3,86,867,1433,1728,1743,1818,1779,1598,1653,1740
211996,-43892,-17808,-47198,-14430,-3800,1208,52,-171,-8,-605,182,4575,0,131,870,1433,1728,1743,1818,1779,1598,1653,1740
212997,-43892,-17556,-47133,-14365,-3543,1181,51,-238,-9,514,109,4214,21,154,874,1433,1728,1743,1818,1779,1598,1653,1740
213998,-43888,-17300,-47068,-14300,-3520,899,22,-276,-36,469,46,4276,5,147,874,1433,1728,1743,1818,1779,1598,1653,1740
214999,-43888,-16996,-47003,-14235,-3392,8,-23,-226,-70,-204,-89,4513,22,163,876,1433,1728,1743,1818,1779,1598,1653,1740
216000,-43892,-16724,-46938,-14170,-3259,157,-33,-155,-101,1159,-59,3071,17,160,879,1438,1569,1755,1826,1800,1616,1672,1781
217001,-43908,-16492,-46873,-14105,-3011,453,-48,-82,-120,801,74,4465,21,154,878,1438,1569,1755,1826,1800,1616,1672,1781
218002,-43892,-16196,-46808,-14040,-3352,-628,-56,30,-153,-47,-41,4103,17,141,877,1438,1569,1755,1826,1800,1616,1672,1781
219003,-43892,-15904,-46743,-13975,-3074,-854,-54,26,-186,-182,-328,3476,14,146,875,1438,1569,1755,1826,1800,1616,1672,1781
220004,-43896,-15664,-46678,-13910,-2940,-416,-29,-108,-184,-276,-219,4036,8,143,873,1438,1569,1755,1826,1800,1616,1672,1781
221005,-43880,-15428,-46613,-13845,-3133,-574,-29,-307,-179,-878,-278,4259,-2,128,877,1438,1570,1757,1812,1840,1647,1699,1800
222006,-43892,-15236,-46548,-13780,-2690,-179,-29,-439,-189,-1375,-218,4409,0,126,876,1438,1570,1757,1812,1840,1647,1699,1800
223007,-43908,-14984,-46483,-13715,-2542,-1156,-30,-532,-178,-97,-196,3867,17,129,878,1438,1570,1757,1812,1840,1647,1699,1800
224008,-43904,-14744,-46418,-13650,-2718,-1220,-23,-585,-156,285,-205,4120,18,125,870,1438,1570,1757,1812,1840,1647,1699,1800
225010,-43896,-14572,-46353,-13585,-2700,-500,-46,-578,-158,-425,-178,4580,-3,99,870,1438,1570,1757,1812,1840,1647,1699,1800
226010,-43892,-14388,-46288,-13520,-2575,-795,-65,-553,-173,-1038,-138,4711,10,88,876,1438,1570,1757,1812,1840,1647,1699,1800
227011,-43904,-14240,-46223,-13455,-2282,-446,-46,-494,-167,308,-152,4424,-3,91,875,1421,1559,1742,1801,1835,1645,1708,1813
228012,-43892,-14104,-46158,-13390,-2519,-382,-18,-462,-165,1003,-209,4582,-4,70,877,1421,1559,1742,1801,1835,1645,1708,1813
229013,-43896,-13964,-46093,-13325,-2235,-523,2,-428,-160,16,-14,4959,5,82,877,1421,1559,1742,1801,1835,1645,1708,1813
230014,-43888,-13828,-46028,-13260,-2317,-560,4,-418,-178,-422,144,4770,15,76,876,1421,1559,1742,1801,1835,1645,1708,1813
231015,-43896,-13728,-45963,-13195,-2029,-153,0,-385,-186,-129,184,4470,10,68,876,1421,1559,1742,1801,1835,1645,1708,1813
232016,-43900,-13632,-45898,-13130,-1995,-140,-8,-389,-187,248,198,4372,12,59,878,1423,1564,1734,1800,1850,1652,1725,1824
233017,-43900,-13544,-45833,-13065,-1966,-68,-13,-404,-182,-132,232,4169,11,48,878,1423,1564,1734,1800,1850,1652,1725,1824
234018,-43904,-13448,-45768,-13000,-1833,-206,-8,-423,-193,-535,273,4111,14,59,878,1423,1564,1734,1800,1850,1652,1725,1824
235019,-43900,-13356,-45703,-12935,-1859,-189,-3,-467,-209,-355,265,3699,0,48,878,1423,1564,1734,1800,1850,1652,1725,1824
236020,-43908,-13272,-45638,-12870,-1620,-112,13,-507,-217,-510,265,3940,2,55,878,1423,1564,1734,1800,1850,1652,1725,1824
237021,-43896,-13200,-45573,-12805,-1807,30,36,-539,-220,-511,286,3797,-5,53,879,1423,1564,1734,1800,1850,1652,1725,1824
238022,-43900,-13120,-45508,-12740,-1523,-88,68,-545,-219,-293,279,3718,7,45,879,1423,1561,1737,1810,1887,1677,1743,2048
239023,-43904,-13060,-45443,-12675,-1439,168,99,-549,-237,-140,218,3706,14,32,878,1423,1561,1737,1810,1887,1677,1743,2048
240024,-43900,-12980,-45378,-12610,-1466,-100,133,-538,-246,-242,188,3831,14,35,878,1423,1561,1737,1810,1887,1677,1743,2048
241025,-43892,-12924,-45313,-12545,-1447,211,173,-494,-246,-143,119,3741,12,32,878,1423,1561,1737,1810,1887,1677,1743,2048
242026,-43880,-12868,-45248,-12480,-1432,222,216,-434,-248,43,77,3846,14,33,878,1423,1561,1737,1810,1887,1677,1743,2048
243027,-43892,-12792,-45183,-12415,-1039,-41,248,-381,-254,47,123,3814,5,37,873,1415,1553,1728,1792,1873,1668,1728,1830
244028,-43892,-12752,-45118,-12350,-1110,439,276,-338,-270,-41,105,3726,3,32,879,1415,1553,1728,1792,1873,1668,1728,1830
245029,-43896,-12696,-45053,-12285,-977,251,301,-293,-272,18,147,3744,-2,29,877,1415,1553,1728,1792,1873,1668,1728,1830
246030,-43900,-12652,-44988,-12220,-893,427,305,-251,-258,79,207,3705,7,24,878,1415,1553,1728,1792,1873,1668,1728,1830
247031,-43904,-12608,-44923,-12155,-808,452,309,-231,-259,-14,241,3576,-3,26,872,1415,1553,1728,1792,1873,1668,1728,1830
248032,-43904,-12564,-44858,-12090,-780,478,305,-227,-264,-134,225,3542,-2,31,877,1415,1553,1728,1792,1873,1668,1728,1830
249033,-43900,-12516,-44793,-12025,-756,449,294,-215,-266,-190,266,3578,1,22,877,1408,1534,1717,1786,1848,1641,1702,1795
250034,-43908,-12480,-44728,-11960,-517,634,283,-205,-261,-2,243,3409,-3,25,877,1408,1534,1717,1786,1848,1641,1702,1795
251035,-43900,-12428,-44663,-11895,-648,451,272,-201,-254,10,244,3422,12,32,874,1408,1534,1717,1786,1848,1641,1702,1795
252036,-43904,-12372,-44598,-11830,-414,412,250,-214,-251,-65,184,3297,-4,22,877,1408,1534,1717,1786,1848,1641,1702,1795
253037,-43904,-12348,-44533,-11765,-384,862,226,-203,-239,-64,172,3387,11,31,878,1408,1534,1717,1786,1848,1641,1702,1795
254038,-43900,-12280,-44468,-11700,-361,309,206,-196,-222,106,99,3235,-3,24,875,1418,1548,1732,1808,1848,1650,1704,1807
255039,-43900,-12240,-44403,-11635,-232,689,196,-181,-206,224,40,3331,-4,25,875,1418,1548,1732,1808,1848,1650,1704,1807
256040,-43900,-12180,-44338,-11570,-152,446,187,-183,-194,234,-14,3342,-2,26,876,1418,1548,1732,1808,1848,1650,1704,1807
257041,-43912,-12132,-44273,-11505,92,617,187,-148,-190,385,-66,3342,6,24,877,1418,1548,1732,1808,1848,1650,1704,1807
258042,-43892,-12084,-44208,-11440,-253,638,186,-128,-179,421,-120,3333,-4,29,875,1418,1548,1732,1808,1848,1650,1704,1807
259043,-43900,-12024,-44143,-11375,185,494,189,-103,-162,456,-145,3391,-3,29,873,1432,1560,1753,1807,1879,1679,1727,1830
260044,-43884,-11964,-44078,-11310,-55,501,194,-91,-151,430,-146,3453,-4,28,877,1432,1560,1753,1807,1879,1679,1727,1830
261045,-43892,-11904,-44013,-11245,334,507,199,-84,-128,487,-88,3428,3,31,877,1432,1560,1753,1807,1879,1679,1727,1830
262046,-43896,-11856,-43948,-11180,368,678,203,-95,-115,438,-95,3450,-5,22,876,1432,1560,1753,1807,1879,1679,1727,1830
263047,-43900,-11792,-43883,-11115,452,479,200,-110,-109,369,-63,3538,16,26,874,1432,1560,1753,1807,1879,1679,1727,1830
264048,-43884,-11740,-43818,-11050,262,646,187,-133,-109,439,-17,3549,17,37,875,1432,1560,1753,1807,1879,1679,1727,1830
265049,-43884,-11672,-43753,-10985,541,442,171,-143,-108,392,41,3673,3,41,875,1443,1567,1766,1844,1883,1684,1730,1822
266050,-43880,-11620,-43688,-10920,566,658,155,-157,-98,476,68,3780,11,35,875,1443,1567,1766,1844,1883,1684,1730,1822
267051,-43860,-11564,-43623,-10855,421,619,139,-169,-91,486,89,3915,18,42,874,1443,1567,1766,1844,1883,1684,1730,1822
268052,-43840,-11504,-43558,-10790,476,576,126,-175,-96,457,165,4001,6,43,875,1443,1567,1766,1844,1883,1684,1730,1822
269053,-43840,-11452,-43493,-10725,806,692,113,-182,-94,457,98,4065,17,39,875,1443,1567,1766,1844,1883,1684,1730,1822
270054,-43804,-11388,-43428,-10660,391,543,98,-191,-87,565,133,4199,25,44,872,1448,1568,1765,1849,1876,1682,1730,1823
271055,-43768,-11336,-43363,-10595,427,710,86,-196,-91,574,219,4273,14,40,875,1448,1568,1765,1849,1876,1682,1730,1823
272056,-43736,-11256,-43298,-10530,517,342,76,-188,-85,580,52,4363,31,32,875,1448,1568,1765,1849,1876,1682,1730,1823
273057,-43704,-11196,-43233,-10465,557,598,64,-187,-75,665,-8,4238,21,45,876,1448,1568,1765,1849,1876,1682,1730,1823
274058,-43680,-11136,-43168,-10400,708,604,65,-164,-75,593,110,4424,27,35,875,1448,1568,1765,1849,1876,1682,1730,1823
275059,-43636,-11072,-43103,-10335,484,556,66,-152,-74,618,-63,4356,34,32,873,1448,1568,1765,1849,1876,1682,1730,1823
276060,-43596,-11004,-43038,-10270,565,502,63,-141,-64,580,-72,4391,21,47,875,1452,1571,1769,1855,1893,1697,1745,1840
277061,-43552,-10948,-42973,-10205,540,663,64,-137,-45,481,-30,4361,25,44,875,1452,1571,1769,1855,1893,1697,1745,1840
278062,-43512,-10872,-42908,-10140,621,400,67,-140,-32,451,-51,4250,40,33,874,1452,1571,1769,1855,1893,1697,1745,1840
279063,-43464,-10812,-42843,-10075,542,607,68,-150,-12,343,-93,4258,24,32,875,1452,1571,1769,1855,1893,1697,1745,1840
280064,-43392,-10748,-42778,-10010,234,558,80,-156,2,306,-3,4347,43,38,874,1452,1571,1769,1855,1893,1697,1745,1840
281065,-43360,-10692,-42713,-9945,774,669,89,-183,23,307,-41,4278,34,46,876,1458,1580,1780,1868,1918,1718,1768,1857
282066,-43300,-10648,-42648,-9880,430,846,100,-205,42,294,5,4263,35,46,873,1458,1580,1780,1868,1918,1718,1768,1857
283067,-43248,-10572,-42583,-9815,546,433,105,-221,52,387,118,4407,33,34,873,1458,1580,1780,1868,1918,1718,1768,1857
284068,-43188,-10512,-42518,-9750,453,639,104,-215,68,308,132,4437,49,42,875,1458,1580,1780,1868,1918,1718,1768,1857
285069,-43128,-10452,-42453,-9685,459,645,117,-198,89,502,202,4507,33,45,875,1458,1580,1780,1868,1918,1718,1768,1857
286070,-43076,-10376,-42388,-9620,575,432,133,-178,98,705,242,4427,48,31,875,1458,1580,1780,1868,1918,1718,1768,1857
287071,-43024,-10320,-42323,-9555,591,693,140,-168,98,445,189,4346,41,32,875,1458,1580,1771,1859,1910,1707,1763,1855
288072,-42952,-10268,-42258,-9490,334,759,143,-156,102,273,205,4489,32,41,874,1458,1580,1771,1859,1910,1707,1763,1855
289073,-42888,-10220,-42193,-9425,435,831,148,-141,102,351,292,4341,41,42,874,1458,1580,1771,1859,1910,1707,1763,1855
290074,-42812,-10152,-42128,-9360,271,577,156,-133,100,325,241,4315,46,25,874,1458,1580,1771,1859,1910,1707,1763,1855
291075,-42764,-10124,-42063,-9295,642,1122,165,-115,90,279,279,4440,51,30,876,1458,1580,1771,1859,1910,1707,1763,1855
292076,-42708,-10064,-41998,-9230,554,730,180,-116,82,187,272,4408,50,35,870,1455,1578,1764,1848,1906,1697,1760,1856
293077,-42620,-10008,-41933,-9165,126,791,200,-109,66,271,277,4334,39,28,873,1455,1578,1764,1848,1906,1697,1760,1856
294078,-42560,-9944,-41868,-9100,482,692,218,-113,66,193,355,4433,40,40,875,1455,1578,1764,1848,1906,1697,1760,1856
295079,-42492,-9896,-41803,-9035,379,913,235,-121,69,37,337,4230,50,28,874,1455,1578,1764,1848,1906,1697,1760,1856
296080,-42432,-9836,-41738,-8970,486,770,250,-112,59,218,321,4092,48,29,873,1455,1578,1764,1848,1906,1697,1760,1856
297081,-42360,-9784,-41673,-8905,327,885,263,-110,63,123,290,4219,33,25,874,1455,1578,1764,1848,1906,1697,1760,1856
298082,-42292,-9732,-41608,-8840,373,901,272,-115,76,6,255,3998,51,34,873,1451,1584,1768,1849,1910,1699,1764,1867
299083,-42224,-9684,-41543,-8775,370,973,289,-136,79,-105,344,3960,37,40,873,1451,1584,1768,1849,1910,1699,1764,1867
300084,-42160,-9636,-41478,-8710,422,994,305,-137,76,52,222,3794,35,33,873,1451,1584,1768,1849,1910,1699,1764,1867
301085,-42104,-9580,-41413,-8645,533,905,318,-150,80,-39,273,3731,35,41,873,1451,1584,1768,1849,1910,1699,1764,1867
302086,-42040,-9516,-41348,-8580,434,807,330,-159,91,-20,200,3886,35,31,872,1451,1584,1768,1849,1910,1699,1764,1867
303087,-41964,-9464,-41283,-8515,272,973,342,-151,94,63,188,3876,33,28,874,1468,1604,1788,1868,1909,1696,1763,1866
304088,-41908,-9412,-41218,-8450,533,990,349,-150,102,113,237,3796,44,31,873,1468,1604,1788,1868,1909,1696,1763,1866
305089,-41836,-9368,-41153,-8385,324,1115,349,-157,112,29,126,3618,44,29,872,1468,1604,1788,1868,1909,1696,1763,1866
306090,-41772,-9316,-41088,-8320,425,1031,346,-165,107,108,232,3693,41,30,872,1468,1604,1788,1868,1909,1696,1763,1866
307091,-41720,-9228,-41023,-8255,592,554,341,-159,103,9,201,3620,33,35,872,1468,1604,1788,1868,1909,1696,1763,1866
308092,-41660,-9180,-40958,-8190,498,1075,326,-153,100,25,260,3871,38,32,875,1468,1604,1788,1868,1909,1696,1763,1866
309093,-41596,-9120,-40893,-8125,450,931,312,-148,96,85,190,3641,38,35,871,1488,1627,1809,1884,1887,1675,1746,1849
310094,-41528,-9048,-40828,-8060,396,774,294,-149,83,64,244,3894,47,43,873,1488,1627,1809,1884,1887,1675,1746,1849
311095,-41472,-8996,-40763,-7995,558,1039,283,-153,77,-101,83,3734,45,40,874,1488,1627,1809,1884,1887,1675,1746,1849
312096,-41416,-8920,-40698,-7930,569,727,266,-161,67,-51,286,3761,31,44,872,1488,1627,1809,1884,1887,1675,1746,1849
313097,-41368,-8860,-40633,-7865,690,933,258,-173,59,-137,141,3694,34,43,873,1488,1627,1809,1884,1887,1675,1746,1849
314098,-41300,-8792,-40568,-7800,436,829,243,-176,55,-134,156,3767,36,36,872,1500,1639,1822,1892,1878,1668,1740,1848
315099,-41228,-8744,-40503,-7735,379,1101,240,-174,50,-44,36,3850,45,30,873,1500,1639,1822,1892,1878,1668,1740,1848
316100,-41160,-8684,-40438,-7670,425,957,229,-174,45,-190,-124,3710,43,33,872,1500,1639,1822,1892,1878,1668,1740,1848
317101,-41088,-8628,-40373,-7605,366,1018,230,-181,49,-311,-161,3772,46,27,873,1500,1639,1822,1892,1878,1668,1740,1848
318102,-41052,-8556,-40308,-7540,853,811,227,-190,61,-236,-71,3689,45,32,873,1500,1639,1822,1892,1878,1668,1740,1848
319103,-40968,-8520,-40243,-7475,230,1296,235,-202,66,-125,-87,3680,49,31,871,1500,1639,1822,1892,1878,1668,1740,1848
320104,-40900,-8456,-40178,-7410,426,948,240,-211,70,-136,-59,3721,46,39,871,1508,1649,1836,1907,1879,1671,1742,1856
321105,-40848,-8380,-40113,-7345,642,785,236,-226,89,-202,-145,3524,41,42,873,1508,1649,1836,1907,1879,1671,1742,1856
322106,-40764,-8324,-40048,-7280,220,1046,230,-221,95,-27,-66,3647,35,31,873,1508,1649,1836,1907,1879,1671,1742,1856
323107,-40692,-8276,-39983,-7215,361,1168,220,-200,96,-7,-62,3740,36,34,873,1508,1649,1836,1907,1879,1671,1742,1856
324108,-40632,-8212,-39918,-7150,517,969,213,-176,95,3,-11,3668,32,41,872,1508,1649,1836,1907,1879,1671,1742,1856
325109,-40568,-8164,-39853,-7085,468,1191,194,-187,102,-31,-15,3512,34,40,872,1535,1677,1866,1942,1880,1672,1746,1850
326110,-40516,-8088,-39788,-7020,635,827,190,-179,91,86,177,3878,35,32,870,1535,1677,1866,1942,1880,1672,1746,1850
327111,-40444,-8032,-39723,-6955,377,1088,181,-164,89,-54,61,3802,47,39,872,1535,1677,1866,1942,1880,1672,1746,1850
328112,-40380,-7968,-39658,-6890,478,990,167,-160,82,70,59,3847,47,43,872,1535,1677,1866,1942,1880,1672,1746,1850
329113,-40324,-7900,-39593,-6825,590,937,159,-133,82,-4,81,3984,50,42,872,1535,1677,1866,1942,1880,1672,1746,1850
330114,-40264,-7852,-39528,-6760,546,1209,151,-129,75,4,145,3900,50,42,872,1535,1677,1866,1942,1880,1672,1746,1850
331115,-40204,-7772,-39463,-6695,552,790,146,-129,73,123,72,4048,42,47,871,1551,1688,1872,1955,1871,1668,1740,1841
332116,-40152,-7708,-39398,-6630,668,991,144,-153,78,13,13,3994,36,48,873,1551,1688,1872,1955,1871,1668,1740,1841
333117,-40096,-7640,-39333,-6565,630,939,144,-171,76,-75,1,4024,32,42,871,1551,1688,1872,1955,1871,1668,1740,1841
334118,-40044,-7576,-39268,-6500,696,990,148,-190,68,-158,-2,4173,50,40,872,1551,1688,1872,1955,1871,1668,1740,1841
335119,-39980,-7504,-39203,-6435,547,882,148,-184,77,-59,-137,4140,50,37,871,1551,1688,1872,1955,1871,1668,1740,1841
336120,-39920,-7448,-39138,-6370,604,1093,165,-184,86,138,-47,4206,40,40,872,1551,1685,1873,1959,1877,1675,1747,1853
337121,-39856,-7384,-39073,-6305,555,995,177,-187,109,79,-183,4064,44,46,871,1551,1685,1873,1959,1877,1675,1747,1853
338122,-39780,-7308,-39008,-6240,392,832,196,-212,127,-14,-168,3899,35,41,872,1551,1685,1873,1959,1877,1675,1747,1853
339123,-39720,-7252,-38943,-6175,598,1093,210,-195,128,94,-71,4120,36,41,873,1551,1685,1873,1959,1877,1675,1747,1853
340124,-39648,-7196,-38878,-6110,440,1105,230,-188,132,173,-99,4199,50,35,871,1551,1685,1873,1959,1877,1675,1747,1853
341125,-39596,-7148,-38813,-6045,706,1226,247,-170,143,274,-61,4059,31,31,871,1551,1685,1873,1959,1877,1675,1747,1853
342126,-39536,-7096,-38748,-5980,612,1193,254,-156,150,336,43,4150,44,27,869,1559,1694,1885,1973,1889,1686,1759,1857
343127,-39476,-7040,-38683,-5915,620,1154,256,-144,156,188,119,4132,42,30,869,1559,1694,1885,1973,1889,1686,1759,1857
344128,-39428,-6972,-38618,-5850,790,1000,259,-136,151,262,209,4174,50,37,870,1559,1694,1885,1973,1889,1686,1759,1857
345129,-39344,-6912,-38553,-5785,317,1107,266,-141,151,332,196,4053,51,40,870,1559,1694,1885,1973,1889,1686,1759,1857
346130,-39296,-6876,-38488,-5720,788,1443,264,-143,145,220,310,4146,47,42,872,1559,1694,1885,1973,1889,1686,1759,1857
347131,-39236,-6820,-38423,-5655,645,1205,275,-146,138,458,327,4172,38,39,868,1575,1705,1895,1993,1887,1687,1757,1849
348132,-39172,-6764,-38358,-5590,596,1216,278,-171,129,570,249,4022,33,42,869,1575,1705,1895,1993,1887,1687,1757,1849
349133,-39112,-6696,-38293,-5525,652,1063,288,-194,138,79,229,4171,31,36,870,1575,1705,1895,1993,1887,1687,1757,1849
350134,-39056,-6644,-38228,-5460,714,1279,287,-195,136,67,281,4105,35,45,870,1575,1705,1895,1993,1887,1687,1757,1849
351135,-38984,-6588,-38163,-5395,506,1240,306,-204,132,451,222,4166,40,39,869,1575,1705,1895,1993,1887,1687,1757,1849
352138,-38928,-6544,-38098,-5330,717,1416,328,-229,126,567,147,4110,50,32,870,1575,1705,1895,1993,1887,1687,1757,1849
353137,-38872,-6480,-38033,-5265,729,1168,351,-244,136,77,-15,4090,42,28,868,1574,1699,1895,1993,1889,1693,1759,1853
354138,-38824,-6408,-37968,-5200,849,1060,365,-229,147,221,115,4206,50,38,869,1574,1699,1895,1993,1889,1693,1759,1853
355139,-38752,-6360,-37903,-5135,541,1381,388,-204,152,548,176,4178,53,43,870,1574,1699,1895,1993,1889,1693,1759,1853
356140,-38664,-6316,-37838,-5070,314,1457,409,-202,163,454,80,4011,35,33,869,1574,1699,1895,1993,1889,1693,1759,1853
357141,-38620,-6260,-37773,-5005,889,1318,437,-210,170,129,-28,3944,38,34,869,1574,1699,1895,1993,1889,1693,1759,1853
358142,-38552,-6192,-37708,-4940,586,1166,455,-212,164,182,249,3916,40,42,868,1571,1700,1897,1993,1884,1688,1754,1847
359143,-38484,-6132,-37643,-4875,583,1272,478,-228,167,362,313,3994,50,44,870,1571,1700,1897,1993,1884,1688,1754,1847
360144,-38428,-6092,-37578,-4810,744,1553,505,-230,164,521,333,4009,49,39,869,1571,1700,1897,1993,1884,1688,1754,1847
361145,-38352,-6032,-37513,-4745,481,1310,497,-244,178,170,211,3847,49,37,867,1571,1700,1897,1993,1884,1688,1754,1847
362146,-38292,-5976,-37448,-4680,688,1372,491,-223,180,300,436,4028,42,35,869,1571,1700,1897,1993,1884,1688,1754,1847
363147,-38240,-5908,-37383,-4615,804,1218,481,-194,179,476,375,3992,51,44,869,1571,1700,1897,1993,1884,1688,1754,1847
364148,-38160,-5848,-37318,-4550,435,1325,481,-174,170,488,357,4027,42,33,869,1585,1715,1911,2010,1870,1675,1745,1836
365149,-38120,-5764,-37253,-4485,966,1002,482,-177,165,381,363,3912,37,36,869,1585,1715,1911,2010,1870,1675,1745,1836
366150,-38040,-5700,-37188,-4420,449,1254,486,-178,163,297,407,3935,49,39,869,1585,1715,1911,2010,1870,1675,1745,1836
367151,-37992,-5648,-37123,-4355,869,1420,477,-210,174,307,186,3612,47,40,870,1585,1715,1911,2010,1870,1675,1745,1836
368152,-37920,-5584,-37058,-4290,561,1272,474,-223,175,294,148,3890,44,28,867,1585,1715,1911,2010,1870,1675,1745,1836
369153,-37864,-5536,-36993,-4225,773,1493,472,-236,173,243,135,3829,47,28,869,1596,1725,1925,2020,1869,1677,1742,1842
370154,-37792,-5472,-36928,-4160,564,1295,481,-211,165,454,175,4003,34,39,867,1596,1725,1925,2020,1869,1677,1742,1842
371155,-37744,-5416,-36863,-4095,885,1406,488,-206,177,412,35,3877,39,35,869,1596,1725,1925,2020,1869,1677,1742,1842
372156,-37668,-5380,-36798,-4030,523,1692,494,-211,178,302,148,3927,32,27,867,1596,1725,1925,2020,1869,1677,1742,1842
373157,-37604,-5308,-36733,-3965,674,1234,495,-211,183,228,55,3842,48,43,867,1596,1725,1925,2020,1869,1677,1742,1842
374158,-37552,-5260,-36668,-3900,840,1556,499,-206,183,359,150,3815,43,27,869,1596,1725,1925,2020,1869,1677,1742,1842
375159,-37504,-5212,-36603,-3835,911,1576,498,-193,181,361,234,4033,49,34,866,1600,1731,1935,2023,1879,1681,1749,1852
376160,-37440,-5148,-36538,-3770,713,1379,495,-161,174,518,267,3951,47,29,865,1600,1731,1935,2023,1879,1681,1749,1852
377161,-37372,-5104,-36473,-3705,659,1654,488,-159,184,346,209,3942,54,41,866,1600,1731,1935,2023,1879,1681,1749,1852
378162,-37312,-5040,-36408,-3640,766,1406,479,-156,179,237,331,3929,53,36,866,1600,1731,1935,2023,1879,1681,1749,1852
379163,-37260,-4968,-36343,-3575,882,1298,467,-160,176,160,333,3783,38,32,867,1600,1731,1935,2023,1879,1681,1749,1852
380164,-37176,-4920,-36278,-3510,459,1620,459,-166,175,224,341,3791,38,38,867,1604,1740,1939,2027,1892,1691,1763,1868
381165,-37128,-4852,-36213,-3445,930,1366,454,-166,173,146,398,3842,51,34,868,1604,1740,1939,2027,1892,1691,1763,1868
382166,-37048,-4784,-36148,-3380,512,1363,451,-179,164,140,445,3792,44,46,867,1604,1740,1939,2027,1892,1691,1763,1868
383167,-37000,-4732,-36083,-3315,934,1579,444,-199,154,147,443,3814,33,46,869,1604,1740,1939,2027,1892,1691,1763,1868
384168,-36928,-4672,-36018,-3250,625,1486,436,-201,159,152,384,3986,41,39,866,1604,1740,1939,2027,1892,1691,1763,1868
385169,-36868,-4608,-35953,-3185,781,1438,439,-199,159,198,421,3811,38,35,867,1604,1740,1939,2027,1892,1691,1763,1868
386170,-36812,-4556,-35888,-3120,843,1604,426,-199,151,307,438,4025,35,36,868,1601,1739,1933,2017,1908,1699,1775,1889
387171,-36732,-4472,-35823,-3055,525,1181,428,-198,148,233,379,4004,36,47,866,1601,1739,1933,2017,1908,1699,1775,1889
388172,-36664,-4420,-35758,-2990,671,1598,429,-198,148,322,363,3903,32,37,869,1601,1739,1933,2017,1908,1699,1775,1889
389173,-36596,-4344,-35693,-2925,669,1286,437,-200,138,252,390,4091,45,30,867,1601,1739,1933,2017,1908,1699,1775,1889
390174,-36528,-4296,-35628,-2860,665,1656,446,-189,144,227,328,4019,47,36,868,1601,1739,1933,2017,1908,1699,1775,1889
391175,-36496,-4252,-35563,-2795,1155,1733,459,-186,131,469,420,4018,41,38,867,1596,1740,1935,2009,1917,1704,1776,1894
392176,-36424,-4168,-35498,-2730,648,1210,470,-173,124,142,390,4204,41,41,864,1596,1740,1935,2009,1917,1704,1776,1894
393177,-36372,-4132,-35433,-2665,914,1846,467,-166,120,386,436,4074,35,43,868,1596,1740,1935,2009,1917,1704,1776,1894
394178,-36308,-4068,-35368,-2600,765,1497,466,-168,113,326,419,4131,52,39,863,1596,1740,1935,2009,1917,1704,1776,1894
395179,-36256,-4020,-35303,-2535,932,1719,462,-178,111,139,361,4113,48,40,866,1596,1740,1935,2009,1917,1704,1776,1894
396180,-36212,-3960,-35238,-2470,1057,1575,450,-187,105,230,418,4003,47,29,864,1596,1740,1935,2009,1917,1704,1776,1894
397181,-36168,-3896,-35173,-2405,1083,1528,439,-175,100,108,425,4076,43,36,864,1604,1752,1952,2032,1915,1704,1776,1890
398182,-36080,-3856,-35108,-2340,506,1859,425,-160,103,171,542,4052,53,44,864,1604,1752,1952,2032,1915,1704,1776,1890
399183,-36020,-3792,-35043,-2275,862,1560,408,-160,117,253,422,4024,52,35,865,1604,1752,1952,2032,1915,1704,1776,1890
400186,-35964,-3716,-34978,-2210,924,1398,398,-197,123,53,322,3824,48,37,865,1604,1752,1952,2032,1915,1704,1776,1890
401185,-35876,-3664,-34913,-2145,496,1714,383,-254,124,-133,375,3864,47,42,866,1604,1752,1952,2032,1915,1704,1776,1890
402186,-35824,-3604,-34848,-2080,962,1621,375,-262,105,-132,590,4018,50,31,867,1627,1772,1973,2056,1915,1707,1781,1898
403187,-35764,-3536,-34783,-2015,869,1517,359,-248,86,184,563,4200,41,34,865,1627,1772,1973,2056,1915,1707,1781,1898
404188,-35692,-3476,-34718,-1950,710,1624,347,-246,86,448,487,4091,50,47,866,1627,1772,1973,2056,1915,1707,1781,1898
405189,-35632,-3412,-34653,-1885,867,1577,330,-266,89,71,636,4131,38,43,865,1627,1772,1973,2056,1915,1707,1781,1898
406190,-35564,-3364,-34588,-1820,764,1797,319,-255,70,151,611,4307,49,36,865,1627,1772,1973,2056,1915,1707,1781,1898
407191,-35516,-3296,-34523,-1755,1035,1545,306,-239,63,407,528,4177,31,35,864,1627,1772,1973,2056,1915,1707,1781,1898
408192,-35468,-3236,-34458,-1690,1055,1651,315,-207,53,522,568,4375,33,39,865,1636,1780,1977,2056,1933,1719,1794,1917
409193,-35412,-3164,-34393,-1625,967,1493,326,-159,34,418,546,4408,48,51,864,1636,1780,1977,2056,1933,1719,1794,1917
410194,-35356,-3100,-34328,-1560,978,1595,341,-158,32,159,530,4304,49,50,865,1636,1780,1977,2056,1933,1719,1794,1917
411195,-35280,-3012,-34263,-1495,716,1267,353,-176,26,187,520,4303,45,41,865,1636,1780,1977,2056,1933,1719,1794,1917
412196,-35208,-2944,-34198,-1430,757,1515,361,-193,20,168,606,4148,39,35,867,1636,1780,1977,2056,1933,1719,1794,1917
413197,-35164,-2900,-34133,-1365,1133,1840,382,-192,19,161,661,4284,44,45,866,1630,1778,1980,2059,1952,1735,1808,1929
414198,-35096,-2820,-34068,-1300,830,1373,399,-203,17,343,687,4167,52,46,862,1630,1778,1980,2059,1952,1735,1808,1929
415199,-35044,-2780,-34003,-1235,1046,1903,417,-224,2,212,716,4224,36,46,865,1630,1778,1980,2059,1952,1735,1808,1929
416200,-34972,-2724,-33938,-1170,789,1715,419,-260,0,-51,711,4161,36,36,863,1630,1778,1980,2059,1952,1735,1808,1929
417201,-34916,-2652,-33873,-1105,1000,1508,423,-295,-3,133,827,4156,40,45,863,1630,1778,1980,2059,1952,1735,1808,1929
418202,-34860,-2592,-33808,-1040,1011,1664,412,-319,1,115,811,4054,37,42,865,1630,1778,1980,2059,1952,1735,1808,1929
419203,-34788,-2532,-33743,-975,803,1671,415,-314,13,111,783,4343,38,34,864,1642,1792,1996,2081,1952,1736,1811,1931
420204,-34740,-2476,-33678,-910,1124,1732,408,-301,13,479,771,4147,39,46,865,1642,1792,1996,2081,1952,1736,1811,1931
421205,-34676,-2416,-33613,-845,926,1689,400,-323,14,183,735,4162,55,39,863,1642,1792,1996,2081,1952,1736,1811,1931
422206,-34616,-2352,-33548,-780,982,1641,394,-311,26,196,738,4291,56,34,864,1642,1792,1996,2081,1952,1736,1811,1931
423207,-34556,-2280,-33483,-715,988,1533,380,-301,19,512,808,4078,52,45,864,1642,1792,1996,2081,1952,1736,1811,1931
424208,-34496,-2236,-33418,-650,995,1910,370,-274,12,372,748,4583,45,34,864,1669,1819,2022,2104,1959,1742,1818,1945
425209,-34444,-2176,-33353,-585,1111,1716,369,-247,15,583,698,4374,45,46,864,1669,1819,2022,2104,1959,1742,1818,1945
426210,-34372,-2120,-33288,-520,854,1778,372,-248,12,373,664,4258,52,46,862,1669,1819,2022,2104,1959,1742,1818,1945
427211,-34292,-2056,-33223,-455,735,1680,373,-259,-1,161,619,4210,49,49,864,1669,1819,2022,2104,1959,1742,1818,1945
428212,-34216,-1996,-33158,-390,772,1736,384,-270,-8,266,677,4182,57,40,864,1669,1819,2022,2104,1959,1742,1818,1945
429213,-34152,-1948,-33093,-325,924,1908,395,-277,-21,245,716,4200,58,50,864,1669,1819,2022,2104,1959,1742,1818,1945
430214,-34068,-1876,-33028,-260,651,1599,410,-287,-35,247,695,4263,56,47,864,1674,1824,2036,2113,1988,1766,1834,1965
431215,-33992,-1796,-32963,-195,739,1482,421,-315,-38,134,746,4170,38,50,864,1674,1824,2036,2113,1988,1766,1834,1965
432216,-33928,-1740,-32898,-130,890,1794,419,-344,-44,-17,826,4183,50,46,867,1674,1824,2036,2113,1988,1766,1834,1965
433217,-33872,-1656,-32833,-65,1001,1421,425,-348,-52,129,915,4155,49,48,865,1674,1824,2036,2113,1988,1766,1834,1965
434218,-33800,-1596,-32768,0,793,1728,452,-320,-69,330,1051,4161,54,36,865,1674,1824,2036,2113,1988,1766,1834,1965
435219,-33732,-1532,-32703,65,840,1679,466,-313,-69,329,1094,4146,40,31,865,1678,1831,2045,2125,2011,1782,1853,1984
436220,-33692,-1456,-32638,130,1221,1517,461,-313,-93,218,965,3965,46,37,864,1678,1831,2045,2125,2011,1782,1853,1984
437221,-33620,-1408,-32573,195,813,1888,463,-307,-94,101,1129,4343,37,37,864,1678,1831,2045,2125,2011,1782,1853,1984
438222,-33560,-1356,-32508,260,969,1854,469,-274,-89,394,1091,4162,37,33,863,1678,1831,2045,2125,2011,1782,1853,1984
439223,-33500,-1288,-32443,325,976,1651,472,-237,-90,460,1012,4226,53,45,862,1678,1831,2045,2125,2011,1782,1853,1984
440224,-33428,-1232,-32378,390,817,1812,474,-235,-77,160,1121,4189,41,31,863,1678,1831,2045,2125,2011,1782,1853,1984
441225,-33364,-1168,-32313,455,919,1715,477,-246,-68,108,1110,4014,45,33,864,1686,1840,2052,2132,2028,1797,1866,2001
442226,-33320,-1112,-32248,520,1195,1827,487,-246,-79,220,1039,3975,55,36,864,1686,1840,2052,2132,2028,1797,1866,2001
443227,-33252,-1060,-32183,585,891,1893,499,-248,-82,186,1100,4085,40,39,863,1686,1840,2052,2132,2028,1797,1866,2001
444228,-33180,-1000,-32118,650,834,1800,511,-246,-78,227,988,4026,38,43,862,1686,1840,2052,2132,2028,1797,1866,2001
445229,-33112,-928,-32053,715,880,1642,530,-241,-84,223,933,3962,55,44,862,1686,1840,2052,2132,2028,1797,1866,2001
446230,-33044,-852,-31988,780,878,1579,543,-265,-91,140,1000,3992,40,46,864,1689,1843,2063,2142,2051,1817,1879,2020
447231,-33004,-800,-31923,845,1258,1896,555,-260,-107,222,1019,3954,53,48,864,1689,1843,2063,2142,2051,1817,1879,2020
448232,-32936,-752,-31858,910,904,1966,559,-266,-119,249,982,3911,51,46,862,1689,1843,2063,2142,2051,1817,1879,2020
449233,-32852,-684,-31793,975,682,1714,563,-258,-120,298,1047,4061,52,37,861,1689,1843,2063,2142,2051,1817,1879,2020
450234,-32784,-620,-31728,1040,879,1766,567,-262,-119,404,927,3825,50,40,864,1689,1843,2063,2142,2051,1817,1879,2020
451235,-32724,-544,-31663,1105,986,1602,568,-250,-124,324,1125,4008,37,55,864,1689,1843,2063,2142,2051,1817,1879,2020
452236,-32644,-480,-31598,1170,717,1755,569,-237,-141,166,1207,3978,38,47,864,1698,1852,2076,2152,2066,1828,1889,2032
453237,-32584,-424,-31533,1235,973,1867,545,-214,-161,415,1140,3962,50,39,865,1698,1852,2076,2152,2066,1828,1889,2032
454238,-32516,-348,-31334,1434,1721,2454,535,-192,-172,470,1305,4128,46,56,864,1698,1852,2076,2152,2066,1828,1889,2032
455239,-32468,-268,-31269,1499,1992,2386,513,-199,-169,467,1230,3930,47,47,857,1698,1852,2076,2152,2066,1828,1889,2032
456240,-32396,-188,-31204,1564,1685,2369,499,-184,-177,297,1199,4029,56,53,851,1698,1852,2076,2152,2066,1828,1889,2032
457241,-32312,-76,-31139,1629,1511,1912,497,-158,-164,259,1161,4074,67,60,852,1704,1857,2081,2161,2090,1856,1913,2062
458242,-32204,16,-31074,1694,1160,2130,506,-160,-145,435,1069,3677,78,59,856,1704,1857,2081,2161,2090,1856,1913,2062
459243,-32084,100,-31009,1759,943,2208,510,-186,-141,-84,904,4025,62,58,859,1704,1857,2081,2161,2090,1856,1913,2062
460244,-31988,216,-30944,1824,1205,1745,514,-235,-146,-132,1043,3834,63,58,860,1704,1857,2081,2161,2090,1856,1913,2062
461245,-31876,300,-30879,1889,949,2123,548,-277,-158,115,1224,4142,72,59,861,1704,1857,2081,2161,2090,1856,1913,2062
462246,-31776,392,-30814,1954,1056,1990,568,-333,-155,102,1263,3904,70,69,861,1704,1857,2081,2161,2090,1856,1913,2062
463247,-31680,508,-30749,2019,1069,1629,592,-363,-150,309,1409,4405,71,69,861,1700,1856,2088,2168,2146,1899,1949,2105
464248,-31568,592,-30684,2084,812,2007,606,-372,-158,523,1445,4045,81,72,863,1700,1856,2088,2168,2146,1899,1949,2105
465249,-31468,676,-30619,2149,919,1984,620,-372,-192,413,1453,4294,61,68,864,1700,1856,2088,2168,2146,1899,1949,2105
466250,-31372,764,-30554,2214,932,1907,635,-361,-212,287,1583,4428,80,54,863,1700,1856,2088,2168,2146,1899,1949,2105
467251,-31268,848,-30489,2279,784,1933,647,-322,-214,705,1520,4365,73,68,862,1700,1856,2088,2168,2146,1899,1949,2105
468252,-31176,952,-30424,2344,901,1637,636,-286,-224,726,1422,4431,60,67,863,1708,1871,2106,2183,2171,1916,1969,2132
469253,-31080,1044,-30359,2409,814,1754,620,-285,-222,336,1549,4314,67,72,864,1708,1871,2106,2183,2171,1916,1969,2132
470254,-30980,1152,-30294,2474,722,1502,593,-292,-222,310,1585,4347,58,69,864,1708,1871,2106,2183,2171,1916,1969,2132
471255,-30900,1228,-30229,2539,954,1889,587,-258,-232,604,1515,4167,66,63,865,1708,1871,2106,2183,2171,1916,1969,2132
472256,-30804,1332,-30164,2604,716,1492,589,-256,-226,466,1660,4225,57,65,865,1708,1871,2106,2183,2171,1916,1969,2132
473257,-30716,1436,-30099,2669,789,1445,581,-289,-248,278,1590,3959,67,64,864,1708,1871,2106,2183,2171,1916,1969,2132
474258,-30620,1512,-30034,2734,651,1782,560,-338,-265,-152,1271,4051,67,62,867,1746,1912,2152,2228,2192,1938,1982,2144
475259,-30548,1600,-29969,2799,942,1604,549,-386,-277,-52,1451,4037,63,57,868,1746,1912,2152,2228,2192,1938,1982,2144
476260,-30456,1680,-29904,2864,659,1687,528,-431,-277,103,1398,3969,62,53,864,1746,1912,2152,2228,2192,1938,1982,2144
477261,-30368,1748,-29839,2929,681,1833,519,-461,-268,29,1453,4344,66,41,866,1746,1912,2152,2228,2192,1938,1982,2144
478262,-30304,1816,-29774,2994,983,1830,499,-477,-261,315,1344,4219,58,42,866,1746,1912,2152,2228,2192,1938,1982,2144
479263,-30208,1892,-29709,3059,546,1717,489,-473,-276,270,1555,4399,63,43,864,1745,1905,2157,2223,2192,1935,1970,2139
480264,-30124,1968,-29644,3124,672,1704,474,-472,-290,329,1482,4317,44,47,862,1745,1905,2157,2223,2192,1935,1970,2139
481265,-30060,2028,-29579,3189,924,1911,464,-434,-305,586,1600,4633,46,44,866,1745,1905,2157,2223,2192,1935,1970,2139
482266,-29972,2116,-29514,3254,596,1533,436,-399,-300,482,1490,4306,52,41,866,1745,1905,2157,2223,2192,1935,1970,2139
483267,-29892,2176,-29449,3319,678,1890,417,-375,-294,305,1472,4416,62,47,862,1745,1905,2157,2223,2192,1935,1970,2139
484268,-29824,2248,-29384,3384,825,1731,405,-362,-300,580,1647,4384,56,41,867,1722,1884,2126,2184,2190,1928,1964,2137
485269,-29756,2332,-29319,3449,821,1559,387,-360,-317,435,1633,4227,52,43,864,1722,1884,2126,2184,2190,1928,1964,2137
486270,-29672,2392,-29254,3514,598,1865,362,-362,-319,297,1763,4397,53,48,864,1722,1884,2126,2184,2190,1928,1964,2137
487271,-29612,2480,-29189,3579,904,1487,335,-356,-318,405,1606,3973,51,39,866,1722,1884,2126,2184,2190,1928,1964,2137
488272,-29532,2552,-29124,3644,636,1680,321,-342,-308,443,1831,4203,46,49,865,1722,1884,2126,2184,2190,1928,1964,2137
489273,-29472,2620,-29059,3709,892,1726,304,-337,-310,312,1688,3964,56,35,866,1722,1884,2126,2184,2190,1928,1964,2137
490274,-29380,2672,-28994,3774,460,1943,272,-348,-324,303,1652,4003,50,32,866,1687,1844,2087,2145,2197,1935,1965,2134
491275,-29320,2736,-28929,3839,866,1794,251,-357,-327,185,1730,4230,46,30,864,1687,1844,2087,2145,2197,1935,1965,2134
492276,-29248,2796,-28864,3904,707,1851,221,-356,-333,470,1702,4056,39,32,864,1687,1844,2087,2145,2197,1935,1965,2134
493277,-29180,2856,-28799,3969,754,1857,214,-342,-329,401,1541,4221,42,44,863,1687,1844,2087,2145,2197,1935,1965,2134
494278,-29108,2908,-28734,4034,695,1973,208,-357,-332,377,1609,3875,37,35,864,1687,1844,2087,2145,2197,1935,1965,2134
495279,-29024,2980,-28669,4099,522,1715,196,-363,-348,315,1530,3862,50,46,864,1658,1812,2064,2120,2208,1942,1964,2133
496280,-28960,3048,-28604,4164,773,1762,177,-342,-342,205,1525,3822,52,44,862,1658,1812,2064,2120,2208,1942,1964,2133
497281,-28868,3116,-28539,4229,391,1759,155,-315,-333,500,1542,3741,47,38,866,1658,1812,2064,2120,2208,1942,1964,2133
498282,-28800,3188,-28474,4294,687,1701,115,-285,-326,379,1487,3658,38,49,864,1658,1812,2064,2120,2208,1942,1964,2133
499283,-28736,3268,-28409,4359,739,1583,93,-260,-311,253,1373,3708,54,49,866,1658,1812,2064,2120,2208,1942,1964,2133
500284,-28664,3352,-28344,4424,630,1510,82,-283,-284,438,1411,3588,44,57,865,1658,1812,2064,2120,2208,1942,1964,2133
501285,-28604,3420,-28279,4489,786,1706,79,-325,-268,166,1394,3535,37,61,866,1650,1805,2057,2114,2194,1931,1952,2118
502286,-28540,3492,-28214,4554,737,1649,92,-327,-280,341,1452,3667,44,53,867,1650,1805,2057,2114,2194,1931,1952,2118
503287,-28440,3568,-28149,4619,245,1585,81,-286,-272,252,1373,3856,55,49,865,1650,1805,2057,2114,2194,1931,1952,2118
504288,-28376,3652,-28084,4684,696,1463,70,-299,-251,450,1282,3390,37,60,866,1650,1805,2057,2114,2194,1931,1952,2118
505289,-28312,3744,-28019,4749,698,1330,81,-366,-209,369,1433,3832,56,60,869,1650,1805,2057,2114,2194,1931,1952,2118
506290,-28240,3836,-27954,4814,590,1297,24,-391,-217,83,1370,3532,50,60,868,1665,1823,2070,2132,2160,1900,1933,2092
507291,-28164,3936,-27889,4879,526,1156,-17,-308,-199,478,1606,3648,40,65,869,1665,1823,2070,2132,2160,1900,1933,2092
508292,-28084,4028,-27824,4944,458,1223,-44,-248,-167,988,1550,3126,54,55,870,1665,1823,2070,2132,2160,1900,1933,2092
509293,-28012,4128,-27759,5009,549,1080,-105,-243,-183,527,1542,3092,47,57,871,1665,1823,2070,2132,2160,1900,1933,2092
510294,-27956,4216,-27694,5074,760,1203,-163,-228,-182,64,1665,3463,42,48,870,1665,1823,2070,2132,2160,1900,1933,2092
511295,-27880,4304,-27629,5139,497,1175,-221,-224,-168,442,1563,2988,52,64,871,1665,1823,2070,2132,2160,1900,1933,2092
512296,-27816,4376,-27564,5204,648,1366,-273,-190,-158,647,1271,2962,57,58,869,1689,1846,2079,2140,2134,1879,1923,2082
513297,-27736,4476,-27499,5269,430,975,-302,-181,-133,208,1329,3025,52,47,871,1689,1846,2079,2140,2134,1879,1923,2082
514298,-27668,4544,-27434,5334,576,1371,-329,-195,-117,0,1316,2937,41,55,868,1689,1846,2079,2140,2134,1879,1923,2082
515299,-27580,4620,-27369,5399,299,1257,-324,-221,-103,82,1175,2981,40,46,872,1689,1846,2079,2140,2134,1879,1923,2082
516300,-27496,4712,-27304,5464,326,1025,-306,-285,-66,-13,981,2991,43,62,869,1689,1846,2079,2140,2134,1879,1923,2082
517301,-27424,4820,-27239,5529,467,773,-224,-451,16,377,1191,2933,50,59,871,1663,1816,2046,2094,2142,1880,1910,2069
518302,-27360,4916,-27174,5594,569,885,-145,-601,94,322,962,3072,43,52,873,1663,1816,2046,2094,2142,1880,1910,2069
519303,-27276,5008,-27109,5659,295,902,-197,-567,17,-426,886,3726,44,67,873,1663,1816,2046,2094,2142,1880,1910,2069
520304,-27208,5108,-27044,5724,492,760,-395,-349,-81,-344,938,3358,45,54,872,1663,1816,2046,2094,2142,1880,1910,2069
521305,-27120,5196,-26979,5789,214,882,-596,-106,-39,1247,959,2977,56,59,873,1663,1816,2046,2094,2142,1880,1910,2069
522306,-27048,5284,-26914,5854,405,854,-739,-3,70,1505,637,2736,42,49,874,1663,1816,2046,2094,2142,1880,1910,2069
523307,-26968,5356,-26849,5919,287,1046,-763,-66,126,309,842,3141,45,58,873,1635,1792,2016,2061,2123,1863,1905,2083
524308,-26896,5452,-26784,5984,378,708,-676,-158,136,-172,898,3293,36,58,873,1635,1792,2016,2061,2123,1863,1905,2083
525309,-26820,5536,-26719,6049,315,836,-531,-213,145,268,584,2581,36,64,873,1635,1792,2016,2061,2123,1863,1905,2083
526310,-26752,5632,-26654,6114,411,648,-405,-165,157,603,593,2882,36,47,875,1635,1792,2016,2061,2123,1863,1905,2083
527311,-26680,5724,-26589,6179,353,665,-362,-129,187,362,457,2403,37,63,874,1635,1792,2016,2061,2123,1863,1905,2083
528312,-26616,5820,-26524,6244,454,577,-394,-93,223,123,597,2462,51,46,874,1599,1757,2002,2040,2180,1896,1922,2092
529313,-26552,5904,-26459,6309,455,704,-452,-47,271,78,642,2323,48,58,875,1599,1757,2002,2040,2180,1896,1922,2092
530314,-26468,5976,-26394,6374,182,846,-531,-15,296,112,785,2111,54,46,873,1599,1757,2002,2040,2180,1896,1922,2092
531315,-26396,6060,-26329,6439,323,673,-609,-13,314,-102,890,2286,52,59,873,1599,1757,2002,2040,2180,1896,1922,2092
532316,-26320,6132,-26264,6504,260,815,-656,-42,310,8,1168,2162,40,45,874,1599,1757,2002,2040,2180,1896,1922,2092
533317,-26244,6224,-26199,6569,246,532,-692,-58,319,16,1138,2341,52,58,875,1599,1757,2002,2040,2180,1896,1922,2092
534318,-26168,6304,-26134,6634,233,663,-734,-51,328,242,972,2188,42,61,874,1635,1798,2022,2071,2125,1846,1896,2056
535319,-26108,6384,-26069,6699,439,645,-776,-30,340,411,908,2104,48,51,876,1635,1798,2022,2071,2125,1846,1896,2056
536320,-26032,6464,-26004,6764,226,627,-822,47,352,375,821,2207,53,54,875,1635,1798,2022,2071,2125,1846,1896,2056
537321,-25964,6560,-25939,6829,322,389,-848,169,378,742,849,2255,37,45,874,1635,1798,2022,2071,2125,1846,1896,2056
538322,-25880,6660,-25874,6894,99,297,-891,282,425,915,743,2306,36,53,876,1635,1798,2022,2071,2125,1846,1896,2056
539323,-25804,6748,-25809,6959,185,419,-915,369,452,958,485,2049,48,46,876,1650,1813,2028,2070,2094,1823,1872,2034
540324,-25728,6820,-25744,7024,172,611,-924,390,478,698,325,2260,33,53,878,1650,1813,2028,2070,2094,1823,1872,2034
541325,-25664,6892,-25679,7089,323,602,-920,418,497,311,287,2292,48,53,876,1650,1813,2028,2070,2094,1823,1872,2034
542326,-25592,6972,-25614,7154,215,484,-920,420,519,293,331,2282,36,54,876,1650,1813,2028,2070,2094,1823,1872,2034
543327,-25512,7024,-25549,7219,96,850,-919,418,548,490,89,2285,40,45,875,1650,1813,2028,2070,2094,1823,1872,2034
544328,-25460,7100,-25484,7284,462,536,-921,384,582,360,135,2254,44,49,876,1650,1813,2028,2070,2094,1823,1872,2034
545329,-25376,7160,-25419,7349,39,742,-922,368,611,201,244,2369,38,39,874,1628,1783,2008,2044,2090,1821,1862,2027
546330,-25316,7240,-25354,7414,345,474,-914,388,637,330,298,2243,36,44,875,1628,1783,2008,2044,2090,1821,1862,2027
547331,-25240,7316,-25289,7479,132,510,-911,412,666,535,382,2380,35,49,875,1628,1783,2008,2044,2090,1821,1862,2027
548332,-25156,7400,-25224,7544,8,387,-931,456,702,667,374,2429,56,55,875,1628,1783,2008,2044,2090,1821,1862,2027
549333,-25084,7496,-25159,7609,150,199,-934,537,736,749,357,2347,51,47,876,1628,1783,2008,2044,2090,1821,1862,2027
550334,-25020,7588,-25094,7674,251,216,-954,602,793,404,637,2451,34,54,877,1622,1789,2009,2051,2071,1802,1859,2022
551335,-24936,7664,-25029,7739,-22,403,-947,735,804,1179,222,2686,45,44,878,1622,1789,2009,2051,2071,1802,1859,2022
552336,-24876,7768,-24964,7804,284,5,-938,830,781,1522,-42,2205,49,49,877,1622,1789,2009,2051,2071,1802,1859,2022
553337,-24792,7896,-24899,7869,-39,-371,-926,873,760,1055,-3,2360,48,43,877,1622,1789,2009,2051,2071,1802,1859,2022
554338,-24732,8032,-24834,7934,267,-558,-891,939,731,922,121,2136,37,38,878,1622,1789,2009,2051,2071,1802,1859,2022
555339,-24656,8136,-24769,7999,54,-206,-845,969,709,807,484,2105,52,36,877,1622,1789,2009,2051,2071,1802,1859,2022
556340,-24580,8240,-24704,8064,40,-253,-839,900,688,116,434,2041,38,39,875,1661,1830,2039,2094,2076,1810,1874,2014
557341,-24504,8316,-24639,8129,27,83,-871,831,661,-284,437,2369,33,35,878,1661,1830,2039,2094,2076,1810,1874,2014
558342,-24432,8372,-24574,8194,68,344,-925,787,666,-105,406,2346,39,37,877,1661,1830,2039,2094,2076,1810,1874,2014
559343,-24360,8416,-24509,8259,60,520,-997,783,683,352,358,2464,46,33,878,1661,1830,2039,2094,2076,1810,1874,2014
560344,-24296,8500,-24444,8324,161,-3,-1049,809,720,574,325,2553,37,42,878,1661,1830,2039,2094,2076,1810,1874,2014
561345,-24188,8580,-24379,8389,-442,28,-1076,852,745,753,351,2665,33,45,877,1699,1869,2073,2137,2053,1801,1879,2031
562346,-24088,8632,-24314,8454,-384,394,-1070,884,758,839,106,2738,39,33,878,1699,1869,2073,2137,2053,1801,1879,2031
563347,-24024,8704,-24249,8519,67,136,-1041,921,772,882,27,3039,33,50,878,1699,1869,2073,2137,2053,1801,1879,2031
564348,-23940,8760,-24184,8584,-207,347,-1001,968,777,970,-28,3177,39,44,877,1699,1869,2073,2137,2053,1801,1879,2031
565349,-23884,8848,-24119,8649,154,-81,-947,1053,800,1008,-201,3446,52,41,877,1699,1869,2073,2137,2053,1801,1879,2031
566350,-23832,8924,-24054,8714,220,55,-891,1101,828,944,-189,3323,32,51,870,1699,1869,2073,2137,2053,1801,1879,2031
567351,-23748,8992,-23989,8779,-204,151,-837,1095,850,679,-196,3194,34,42,878,1698,1880,2081,2120,2115,1851,1919,2095
568352,-23708,9064,-23924,8844,377,92,-791,1050,862,488,-225,3418,52,54,878,1698,1880,2081,2120,2115,1851,1919,2095
569353,-23624,9140,-23859,8909,-196,29,-741,989,864,600,7,3431,45,38,870,1698,1880,2081,2120,2115,1851,1919,2095
570354,-23544,9208,-23794,8974,-165,125,-695,876,886,212,-63,3170,55,47,877,1698,1880,2081,2120,2115,1851,1919,2095
571355,-23484,9288,-23729,9039,91,-43,-671,784,887,344,-47,3727,56,55,870,1698,1880,2081,2120,2115,1851,1919,2095
572356,-23408,9380,-23664,9104,-122,-226,-653,679,871,341,249,3546,45,47,872,1717,1895,2105,2175,2112,1851,1915,2062
573357,-23344,9472,-23599,9169,29,-259,-647,573,863,320,360,3411,51,54,878,1717,1895,2105,2175,2112,1851,1915,2062
574358,-23272,9544,-23534,9234,-79,-18,-649,505,853,720,468,4008,33,41,874,1717,1895,2105,2175,2112,1851,1915,2062
575359,-23196,9612,-23469,9299,-144,28,-667,471,825,916,458,3889,33,54,878,1717,1895,2105,2175,2112,1851,1915,2062
576360,-23128,9684,-23404,9364,-47,-30,-681,438,787,954,559,3991,35,48,877,1717,1895,2105,2175,2112,1851,1915,2062
577363,-23056,9772,-23339,9429,-106,-259,-692,459,766,921,625,4262,44,49,873,1717,1895,2105,2175,2112,1851,1915,2062
578362,-22996,9856,-23274,9494,50,-232,-694,496,748,1080,509,4323,35,44,878,1785,1955,2155,2239,2098,1852,1935,2075
579363,-22908,9940,-23209,9559,-328,-256,-682,496,750,794,286,4195,33,55,875,1785,1955,2155,2239,2098,1852,1935,2075
580364,-22836,10012,-23144,9624,-136,-114,-673,477,741,712,186,4421,33,43,878,1785,1955,2155,2239,2098,1852,1935,2075
581365,-22760,10100,-23079,9689,-200,-342,-648,452,731,341,7,4175,35,51,877,1785,1955,2155,2239,2098,1852,1935,2075
582366,-22696,10212,-23014,9754,-49,-700,-621,417,721,349,-126,4299,51,46,873,1785,1955,2155,2239,2098,1852,1935,2075
583367,-22640,10280,-22949,9819,61,-153,-571,363,736,359,-128,4190,38,56,870,1823,2002,2200,2268,2124,1885,1957,2087
584368,-22552,10376,-22884,9884,-367,-542,-524,244,741,-33,-395,4080,51,41,875,1823,2002,2200,2268,2124,1885,1957,2087
585369,-22480,10456,-22819,9949,-175,-360,-471,130,729,-166,-416,4303,46,48,878,1823,2002,2200,2268,2124,1885,1957,2087
586370,-22400,10532,-22754,10014,-294,-324,-433,34,724,-114,-255,4241,32,47,876,1823,2002,2200,2268,2124,1885,1957,2087
587371,-22340,10612,-22689,10079,-38,-392,-394,-12,745,108,-249,4332,36,46,877,1823,2002,2200,2268,2124,1885,1957,2087
588372,-22252,10680,-22624,10144,-416,-246,-381,-24,765,238,-148,4474,32,42,877,1823,2002,2200,2268,2124,1885,1957,2087
589373,-22188,10760,-22559,10209,-114,-415,-377,-45,766,20,-164,4408,33,50,877,1828,2008,2225,2306,2148,1913,1975,2109
590374,-22120,10844,-22494,10274,-168,-488,-390,-81,751,259,7,4519,48,51,878,1828,2008,2225,2306,2148,1913,1975,2109
591375,-22048,10936,-22429,10339,-228,-621,-411,-132,751,112,60,4616,46,49,877,1828,2008,2225,2306,2148,1913,1975,2109
592376,-21988,11000,-22364,10404,-71,-270,-429,-171,738,289,76,4642,52,40,870,1828,2008,2225,2306,2148,1913,1975,2109
593377,-21896,11068,-22299,10469,-504,-325,-467,-184,714,340,23,4726,34,35,866,1828,2008,2225,2306,2148,1913,1975,2109
594378,-21824,11140,-22234,10534,-263,-383,-496,-209,706,163,14,4850,35,41,876,1839,2003,2218,2299,2134,1907,1963,2114
595379,-21760,11208,-22169,10599,-162,-337,-499,-186,708,369,-47,4816,50,30,877,1839,2003,2218,2299,2134,1907,1963,2114
596380,-21656,11280,-22104,10664,-709,-395,-499,-198,692,445,-120,4477,32,34,877,1839,2003,2218,2299,2134,1907,1963,2114
597381,-21592,11344,-22039,10729,-209,-294,-463,-290,603,557,276,4491,46,48,871,1839,2003,2218,2299,2134,1907,1963,2114
598382,-21516,11424,-21974,10794,-373,-514,-441,-243,562,-33,-766,5029,47,33,876,1839,2003,2218,2299,2134,1907,1963,2114
599383,-21440,11500,-21909,10859,-386,-477,-404,-270,537,461,-420,4190,48,39,872,1839,2003,2218,2299,2134,1907,1963,2114
600384,-21368,11556,-21844,10924,-345,-216,-367,-382,505,188,-197,4484,44,41,876,1801,1953,2171,2259,2192,1968,2007,2134
601385,-21280,11624,-21779,10989,-573,-370,-372,-477,477,-881,-556,4006,47,36,877,1801,1953,2171,2259,2192,1968,2007,2134
602386,-21200,11684,-21714,11054,-491,-265,-361,-495,423,-122,-399,4754,47,45,878,1801,1953,2171,2259,2192,1968,2007,2134
603387,-21120,11748,-21649,11119,-510,-313,-362,-522,369,174,-463,4536,35,33,874,1801,1953,2171,2259,2192,1968,2007,2134
604388,-21048,11820,-21584,11184,-419,-422,-365,-583,330,54,-507,4170,47,44,877,1801,1953,2171,2259,2192,1968,2007,2134
605389,-20976,11868,-21519,11249,-427,-101,-379,-612,310,-187,-584,4420,41,46,877,1752,1905,2135,2228,2368,1958,1992,2108
606390,-20912,11944,-21454,11314,-326,-466,-397,-648,279,-49,-365,4192,50,30,877,1752,1905,2135,2228,2368,1958,1992,2108
607391,-20828,12000,-21389,11379,-600,-205,-422,-667,249,4,-546,4132,40,44,875,1752,1905,2135,2228,2368,1958,1992,2108
608392,-20760,12064,-21324,11444,-404,-303,-459,-674,237,-76,-804,4347,40,30,877,1752,1905,2135,2228,2368,1958,1992,2108
609393,-20668,12112,-21259,11509,-737,-83,-515,-695,240,-23,-843,4127,46,40,878,1752,1905,2135,2228,2368,1958,1992,2108
610394,-20600,12172,-21194,11574,-441,-227,-582,-724,259,-83,-782,3977,47,44,877,1752,1905,2135,2228,2368,1958,1992,2108
611395,-20524,12204,-21129,11639,-554,163,-630,-759,287,-260,-904,4079,53,32,877,1721,1873,2097,2187,2146,1929,1963,2087
612396,-20444,12268,-21064,11704,-623,-236,-662,-791,295,-320,-968,3972,41,39,878,1721,1873,2097,2187,2146,1929,1963,2087
613397,-20380,12320,-20999,11769,-422,-70,-698,-820,282,-563,-1127,4234,39,42,878,1721,1873,2097,2187,2146,1929,1963,2087
614398,-20296,12368,-20934,11834,-695,1,-730,-834,276,-488,-1226,4352,50,32,878,1721,1873,2097,2187,2146,1929,1963,2087
615399,-20224,12428,-20869,11899,-554,-144,-766,-857,291,-575,-1360,4337,55,47,877,1721,1873,2097,2187,2146,1929,1963,2087
616400,-20148,12508,-20804,11964,-618,-413,-772,-869,319,-429,-1200,4487,47,33,878,1670,1830,2034,2089,2124,1888,1929,2080
617401,-20060,12564,-20739,12029,-796,-102,-742,-859,315,-266,-1299,4895,45,33,878,1670,1830,2034,2089,2124,1888,1929,2080
618402,-19984,12624,-20674,12094,-660,-145,-723,-855,289,-196,-1158,4758,38,37,877,1670,1830,2034,2089,2124,1888,1929,2080
619403,-19904,12672,-20609,12159,-728,24,-703,-836,238,-416,-981,4557,55,43,878,1670,1830,2034,2089,2124,1888,1929,2080
620404,-19836,12732,-20544,12224,-583,-120,-708,-798,192,-52,-873,4863,53,42,878,1670,1830,2034,2089,2124,1888,1929,2080
621405,-19784,12784,-20479,12289,-367,-4,-725,-789,157,8,-846,4376,48,40,879,1670,1830,2034,2089,2124,1888,1929,2080
622406,-19688,12840,-20414,12354,-955,-43,-742,-757,98,113,-691,4826,52,35,878,1602,1767,1964,2013,2121,1871,1921,2053
623407,-19588,12912,-20349,12419,-1047,-251,-737,-667,45,197,-1060,4818,41,34,878,1602,1767,1964,2013,2121,1871,1921,2053
624408,-19524,12960,-20284,12484,-597,69,-695,-590,19,-94,-1031,5008,33,46,879,1602,1767,1964,2013,2121,1871,1921,2053
625411,-19444,13004,-20219,12549,-816,144,-640,-589,14,145,-1181,5281,48,44,878,1602,1767,1964,2013,2121,1871,1921,2053
626410,-19388,13072,-20154,12614,-505,-160,-575,-582,1,186,-1346,5349,36,45,878,1602,1767,1964,2013,2121,1871,1921,2053
627411,-19308,13128,-20089,12679,-824,1,-514,-562,14,-29,-1460,5434,34,37,878,1615,1768,1974,2063,2079,1855,1905,2005
628412,-19248,13200,-20024,12744,-568,-207,-495,-522,61,135,-1330,4986,48,42,878,1615,1768,1974,2063,2079,1855,1905,2005
629413,-19192,13256,-19959,12809,-507,4,-494,-501,102,-49,-1015,4997,34,37,879,1615,1768,1974,2063,2079,1855,1905,2005
630414,-19112,13324,-19894,12874,-826,-151,-527,-517,164,-603,-1148,4418,26,31,878,1615,1768,1974,2063,2079,1855,1905,2005
631415,-19060,13396,-19829,12939,-460,-209,-577,-557,219,-645,-1124,4366,29,32,879,1615,1768,1974,2063,2079,1855,1905,2005
632416,-18992,13452,-19764,13004,-664,2,-619,-539,276,-135,-1208,4413,40,30,878,1615,1768,1974,2063,2079,1855,1905,2005
633417,-18940,13508,-19699,13069,-448,13,-667,-482,332,174,-1529,4438,27,44,878,1674,1820,2034,2156,2038,1832,1881,1969
634418,-18884,13552,-19634,13134,-488,188,-709,-426,343,622,-1607,4297,24,32,879,1674,1820,2034,2156,2038,1832,1881,1969
635419,-18832,13616,-19569,13199,-422,-61,-726,-342,310,659,-1996,4641,23,40,879,1674,1820,2034,2156,2038,1832,1881,1969
636420,-18792,13660,-19504,13264,-242,214,-719,-206,264,506,-2272,5265,33,36,878,1674,1820,2034,2156,2038,1832,1881,1969
637421,-18752,13712,-19439,13329,-212,130,-679,-7,201,813,-2094,5402,38,37,879,1674,1820,2034,2156,2038,1832,1881,1969
638422,-18692,13780,-19374,13394,-456,-74,-610,156,168,1096,-2123,5498,24,30,878,1686,1821,2027,2101,2025,1803,1845,1938
639423,-18656,13848,-19309,13459,-121,-77,-544,194,190,538,-2338,5248,37,40,870,1686,1821,2027,2101,2025,1803,1845,1938
640424,-18604,13912,-19244,13524,-305,-26,-468,185,172,180,-1791,5279,18,44,872,1686,1821,2027,2101,2025,1803,1845,1938
641425,-18568,13952,-19179,13589,-70,304,-416,166,122,58,-2017,5289,32,39,879,1686,1821,2027,2101,2025,1803,1845,1938
642426,-18532,14032,-19114,13654,-35,-214,-369,148,104,268,-1742,5123,20,35,879,1686,1821,2027,2101,2025,1803,1845,1938
643427,-18492,14088,-19049,13719,-54,96,-310,120,127,386,-1747,4962,25,27,877,1686,1821,2027,2101,2025,1803,1845,1938
644428,-18472,14148,-18984,13784,251,52,-260,131,138,522,-1564,5436,23,38,878,1580,1716,1916,1989,1998,1782,1828,1930
645429,-18436,14216,-18919,13849,86,-51,-196,166,113,479,-1373,5414,31,32,878,1580,1716,1916,1989,1998,1782,1828,1930
646430,-18396,14276,-18854,13914,65,55,-124,191,99,248,-1313,5173,18,43,878,1580,1716,1916,1989,1998,1782,1828,1930
647431,-18376,14336,-18789,13979,370,61,-91,129,129,858,-1209,4437,8,32,878,1580,1716,1916,1989,1998,1782,1828,1930
648432,-18340,14412,-18724,14044,206,-153,-47,99,128,1373,-1624,4678,11,31,878,1580,1716,1916,1989,1998,1782,1828,1930
649433,-18340,14468,-18659,14109,735,108,11,135,125,839,-1654,4231,9,35,876,1561,1709,1902,2002,1980,1768,1838,1932
650434,-18316,14544,-18594,14174,485,-156,46,195,126,1081,-1740,4027,8,39,877,1561,1709,1902,2002,1980,1768,1838,1932
651435,-18288,14580,-18529,14239,480,379,58,236,130,1455,-1770,3774,31,38,875,1561,1709,1902,2002,1980,1768,1838,1932
652436,-18240,14652,-18464,14304,251,-79,28,257,127,1276,-1982,3764,22,40,876,1561,1709,1902,2002,1980,1768,1838,1932
653437,-18216,14708,-18399,14369,600,132,-27,326,98,1305,-1781,3900,25,43,876,1561,1709,1902,2002,1980,1768,1838,1932
654438,-18184,14744,-18334,14434,540,417,-82,447,52,1538,-1862,4257,12,40,878,1561,1709,1902,2002,1980,1768,1838,1932
655439,-18152,14800,-18269,14499,581,178,-123,541,21,1538,-2032,4218,35,41,876,1629,1786,1969,2066,1967,1755,1828,1926
656440,-18104,14840,-18204,14564,401,409,-151,519,12,1211,-2262,3870,19,39,875,1629,1786,1969,2066,1967,1755,1828,1926
657441,-18084,14880,-18139,14629,806,439,-161,470,-19,608,-2289,3997,22,35,876,1629,1786,1969,2066,1967,1755,1828,1926
658442,-18032,14908,-18074,14694,422,633,-143,411,-45,162,-2441,4103,29,49,876,1629,1786,1969,2066,1967,1755,1828,1926
659443,-17988,14940,-18009,14759,548,624,-90,307,-68,456,-2509,4003,28,35,873,1629,1786,1969,2066,1967,1755,1828,1926
660444,-17940,14996,-17944,14824,519,335,-1,180,-72,258,-2743,4215,28,39,874,1617,1764,1954,2032,1980,1770,1816,1923
661445,-17876,15072,-17879,14889,320,71,103,75,-73,299,-2619,4221,27,40,874,1617,1764,1954,2032,1980,1770,1816,1923
662446,-17824,15136,-17814,14954,486,222,208,-38,-71,612,-2468,3863,44,54,876,1617,1764,1954,2032,1980,1770,1816,1923
663447,-17780,15200,-17749,15019,611,224,265,-64,-98,761,-2345,4293,24,53,877,1617,1764,1954,2032,1980,1770,1816,1923
664448,-17724,15272,-17684,15084,472,115,298,15,-132,1179,-2289,4170,42,54,876,1617,1764,1954,2032,1980,1770,1816,1923
665449,-17664,15336,-17619,15149,428,216,291,111,-154,1853,-1962,3920,30,49,875,1617,1764,1954,2032,1980,1770,1816,1923
666450,-17612,15404,-17554,15214,544,163,273,192,-168,1780,-1642,4056,42,52,876,1558,1706,1904,1990,1962,1751,1809,1898
667451,-17540,15468,-17489,15279,286,214,250,232,-169,1244,-1707,3647,43,49,876,1558,1706,1904,1990,1962,1751,1809,1898
668452,-17464,15516,-17424,15344,222,435,238,216,-178,1001,-1708,3857,41,37,876,1558,1706,1904,1990,1962,1751,1809,1898
669453,-17404,15592,-17359,15409,428,71,244,162,-175,805,-1583,3705,44,42,877,1558,1706,1904,1990,1962,1751,1809,1898
670454,-17348,15672,-17294,15474,489,3,245,114,-168,888,-1594,3629,33,41,876,1558,1706,1904,1990,1962,1751,1809,1898
671455,-17272,15724,-17229,15539,226,368,238,97,-167,1178,-1469,3825,28,38,877,1591,1734,1917,2031,1935,1739,1814,1896
672456,-17216,15800,-17164,15604,487,54,229,58,-162,828,-1510,3702,30,46,877,1591,1734,1917,2031,1935,1739,1814,1896
673457,-17160,15872,-17099,15669,498,96,219,12,-150,633,-1682,3412,29,44,877,1591,1734,1917,2031,1935,1739,1814,1896
674458,-17092,15940,-17034,15734,344,142,210,6,-144,743,-1701,3713,34,36,877,1591,1734,1917,2031,1935,1739,1814,1896
675459,-17036,15992,-16969,15799,505,358,207,12,-160,882,-1739,3516,31,43,876,1591,1734,1917,2031,1935,1739,1814,1896
676460,-16976,16052,-16904,15864,461,264,224,66,-176,883,-1955,3563,40,41,877,1591,1734,1917,2031,1935,1739,1814,1896
677461,-16916,16104,-16839,15929,467,380,243,64,-174,793,-2050,3303,47,46,876,1620,1763,1948,2054,1971,1766,1836,1935
678462,-16844,16168,-16774,15994,309,231,274,-10,-176,501,-2028,3214,47,32,876,1620,1763,1948,2054,1971,1766,1836,1935
679463,-16796,16224,-16709,16059,630,342,303,-25,-188,486,-2094,3347,46,46,876,1620,1763,1948,2054,1971,1766,1836,1935
680464,-16728,16284,-16644,16124,376,298,330,22,-204,834,-2062,3556,33,34,877,1620,1763,1948,2054,1971,1766,1836,1935
681465,-16652,16344,-16579,16189,263,304,343,47,-218,918,-1961,3424,32,46,875,1620,1763,1948,2054,1971,1766,1836,1935
682466,-16608,16400,-16514,16254,689,365,376,49,-208,564,-1957,3183,43,29,877,1611,1759,1953,2042,1999,1780,1839,1944
683467,-16548,16444,-16449,16319,495,541,405,26,-184,401,-1859,3629,28,47,876,1611,1759,1953,2042,1999,1780,1839,1944
684468,-16484,16500,-16384,16384,447,402,435,30,-171,433,-1697,3610,48,37,874,1611,1759,1953,2042,1999,1780,1839,1944
685469,-16420,16556,-16319,16449,448,413,462,82,-165,636,-1629,3819,35,38,875,1611,1759,1953,2042,1999,1780,1839,1944
686470,-16356,16600,-16254,16514,449,588,474,131,-153,767,-1407,3697,28,34,876,1611,1759,1953,2042,1999,1780,1839,1944
687471,-16284,16652,-16189,16579,340,503,481,149,-135,686,-1147,3737,38,35,876,1611,1759,1953,2042,1999,1780,1839,1944
688472,-16216,16712,-16124,16644,387,409,474,180,-126,566,-990,3646,33,32,875,1589,1738,1921,2014,1966,1748,1820,1910
689473,-16168,16772,-16059,16709,658,416,473,223,-133,701,-839,3844,31,46,876,1589,1738,1921,2014,1966,1748,1820,1910
690474,-16108,16832,-15994,16774,514,422,471,262,-120,572,-891,3652,43,34,876,1589,1738,1921,2014,1966,1748,1820,1910
691475,-16040,16892,-15929,16839,410,428,480,318,-122,527,-698,3888,45,46,874,1589,1738,1921,2014,1966,1748,1820,1910
692476,-15992,16952,-15864,16904,681,434,493,358,-125,373,-681,3875,34,35,875,1589,1738,1921,2014,1966,1748,1820,1910
693477,-15924,17020,-15799,16969,427,330,507,362,-136,665,-522,3581,30,46,876,1591,1741,1915,2020,1972,1754,1837,1932
694478,-15872,17088,-15734,17034,643,327,537,376,-134,508,-622,3698,46,34,874,1591,1741,1915,2020,1972,1754,1837,1932
695479,-15808,17136,-15669,17099,494,597,566,386,-137,425,-713,3766,49,36,876,1591,1741,1915,2020,1972,1754,1837,1932
696480,-15748,17204,-15604,17164,550,344,614,390,-137,313,-846,3634,42,46,875,1591,1741,1915,2020,1972,1754,1837,1932
697481,-15684,17276,-15539,17229,502,285,658,404,-141,461,-815,3604,39,40,875,1591,1741,1915,2020,1972,1754,1837,1932
698482,-15628,17348,-15474,17294,612,277,720,393,-135,589,-906,3624,33,46,875,1591,1741,1915,2020,1972,1754,1837,1932
699483,-15556,17408,-15409,17359,404,433,778,386,-145,509,-801,3552,32,39,876,1600,1750,1936,2038,2013,1793,1859,1959
700484,-15496,17464,-15344,17424,560,494,841,396,-154,475,-774,3781,35,47,874,1600,1750,1936,2038,2013,1793,1859,1959
701485,-15424,17520,-15279,17489,402,505,880,398,-148,650,-789,3676,32,41,875,1600,1750,1936,2038,2013,1793,1859,1959
702486,-15368,17596,-15214,17554,612,241,926,427,-145,933,-703,3790,32,34,875,1600,1750,1936,2038,2013,1793,1859,1959
703487,-15312,17644,-15149,17619,623,612,951,435,-146,745,-523,3631,44,44,876,1600,1750,1936,2038,2013,1793,1859,1959
704488,-15252,17716,-14950,17818,743,467,969,444,-135,722,-572,3817,42,44,875,1623,1771,1968,2072,1992,1776,1837,1928
705489,-15196,17784,-14885,17883,805,513,973,463,-119,959,-464,3895,45,46,874,1623,1771,1968,2072,1992,1776,1837,1928
706490,-15124,17856,-14820,17948,597,455,980,485,-107,1001,-388,3910,35,39,874,1623,1771,1968,2072,1992,1776,1837,1928
707491,-15064,17920,-14755,18013,753,556,981,517,-93,901,-358,4084,39,42,873,1623,1771,1968,2072,1992,1776,1837,1928
708492,-15000,17980,-14690,18078,704,612,983,536,-74,658,-322,3903,53,46,875,1623,1771,1968,2072,1992,1776,1837,1928
709493,-14928,18048,-14625,18143,595,508,982,505,-69,577,-220,3786,47,51,873,1641,1780,1968,2080,1992,1776,1837,1928
710494,-14860,18132,-14560,18208,642,285,984,484,-76,554,-82,3944,54,42,873,1641,1780,1968,2080,1937,1735,1805,1888
711495,-14800,18188,-14495,18273,748,646,983,450,-67,300,-259,3559,51,45,874,1641,1780,1968,2080,1937,1735,1805,1888
712496,-14708,18240,-14430,18338,315,712,994,427,-58,261,-347,3813,44,43,875,1641,1780,1968,2080,1937,1735,1805,1888
713497,-14636,18336,-14365,18403,557,124,994,374,-62,259,-249,3722,57,52,873,1641,1780,1968,2080,1937,1735,1805,1888
714498,-14552,18412,-14300,18468,384,361,1018,351,-74,330,-157,3638,57,43,875,1641,1780,1968,2080,1937,1735,1805,1888
715499,-14468,18488,-14235,18533,361,347,1036,325,-73,478,-211,3698,53,52,876,1640,1780,1966,2072,1948,1740,1812,1912
716500,-14380,18560,-14170,18598,283,389,1061,309,-69,340,-323,3706,41,41,876,1640,1780,1966,2072,1948,1740,1812,1912
717501,-14300,18624,-14105,18663,365,490,1083,285,-85,304,-49,3759,59,34,876,1640,1780,1966,2072,1948,1740,1812,1912
718502,-14216,18688,-14040,18728,291,491,1100,267,-108,141,-14,3725,58,34,875,1640,1780,1966,2072,1948,1740,1812,1912
719503,-14136,18760,-13975,18793,323,383,1108,263,-122,424,5,3748,38,32,876,1640,1780,1966,2072,1948,1740,1812,1912
720504,-14072,18808,-13910,18858,524,704,1107,237,-124,711,-8,3913,43,38,876,1622,1769,1955,2044,1979,1761,1832,1947
721505,-13988,18872,-13845,18923,251,505,1101,210,-135,738,227,3766,54,38,876,1622,1769,1955,2044,1979,1761,1832,1947
722506,-13912,18932,-13780,18988,338,561,1092,212,-128,493,102,3966,52,33,873,1622,1769,1955,2044,1979,1761,1832,1947
723507,-13860,18996,-13715,19053,654,513,1089,243,-135,831,153,4255,49,45,876,1622,1769,1955,2044,1979,1761,1832,1947
724508,-13792,19052,-13650,19118,450,624,1086,257,-129,690,107,4057,43,34,875,1622,1769,1955,2044,1979,1761,1832,1947
725509,-13724,19120,-13585,19183,446,470,1075,255,-117,424,190,4230,36,35,874,1622,1769,1955,2044,1979,1761,1832,1947
726510,-13660,19180,-13520,19248,497,577,1060,230,-98,253,299,4150,47,34,875,1612,1765,1951,2028,2004,1780,1848,1972
727511,-13584,19232,-13455,19313,334,692,1043,201,-89,176,260,4149,49,41,875,1612,1765,1951,2028,2004,1780,1848,1972
728512,-13536,19292,-13390,19378,705,598,1040,167,-79,333,203,4248,36,34,874,1612,1765,1951,2028,2004,1780,1848,1972
729513,-13464,19372,-13325,19443,397,330,1044,137,-64,255,-36,3978,36,41,875,1612,1765,1951,2028,2004,1780,1848,1972
730514,-13396,19420,-13260,19508,444,751,1043,93,-62,261,92,4246,51,34,873,1612,1765,1951,2028,2004,1780,1848,1972
731515,-13352,19500,-13195,19573,769,333,1021,35,-60,175,317,3945,52,46,876,1598,1755,1953,2023,2035,1805,1862,1991
732516,-13284,19552,-13130,19638,465,698,988,-38,-60,-17,307,4060,49,40,874,1598,1755,1953,2023,2035,1805,1862,1991
733517,-13212,19628,-13065,19703,407,385,945,-32,-83,-14,495,4441,47,42,874,1598,1755,1953,2023,2035,1805,1862,1991
734518,-13168,19704,-13000,19768,783,372,904,-13,-92,273,499,4338,46,45,873,1598,1755,1953,2023,2035,1805,1862,1991
735519,-13100,19784,-12935,19833,479,303,874,11,-85,445,398,4150,35,38,876,1598,1755,1953,2023,2035,1805,1862,1991
736520,-13028,19864,-12870,19898,420,285,834,-68,-77,-95,510,4019,39,34,874,1598,1755,1953,2023,2035,1805,1862,1991
737521,-12956,19924,-12805,19963,412,541,813,-94,-101,-300,492,4221,51,43,876,1598,1756,1956,2020,2052,1816,1868,2003
738522,-12896,19980,-12740,20028,568,602,789,-86,-110,138,426,4412,38,34,876,1598,1756,1956,2020,2052,1816,1868,2003
739523,-12820,20036,-12675,20093,355,613,777,-110,-102,578,557,4194,38,45,875,1598,1756,1956,2020,2052,1816,1868,2003
740524,-12756,20100,-12610,20158,506,514,752,-131,-101,255,591,4476,52,46,874,1598,1756,1956,2020,2052,1816,1868,2003
741525,-12692,20164,-12545,20223,507,516,740,-101,-117,166,748,4647,31,43,875,1598,1756,1956,2020,2052,1816,1868,2003
742526,-12616,20228,-12480,20288,344,517,709,-63,-125,411,731,4635,37,44,875,1584,1739,1941,1999,2049,1810,1861,1997
743527,-12556,20280,-12415,20353,550,683,684,-25,-116,559,703,4671,32,32,875,1584,1739,1941,1999,2049,1810,1861,1997
744528,-12500,20360,-12350,20418,611,314,654,15,-120,547,583,4358,30,42,876,1584,1739,1941,1999,2049,1810,1861,1997
745529,-12432,20416,-12285,20483,457,625,632,28,-105,340,547,4483,31,42,873,1584,1739,1941,1999,2049,1810,1861,1997
746530,-12364,20472,-12220,20548,453,636,592,25,-92,173,654,4161,40,34,875,1584,1739,1941,1999,2049,1810,1861,1997
747531,-12312,20536,-12155,20613,669,537,543,-5,-85,-176,836,4229,40,36,874,1584,1739,1941,1999,2049,1810,1861,1997
748532,-12252,20592,-12090,20678,576,648,490,-34,-79,-271,840,4206,34,35,874,1582,1738,1945,2012,2040,1808,1856,1984
749533,-12192,20652,-12025,20743,582,605,451,-68,-64,-171,711,4177,40,45,874,1582,1738,1945,2012,2040,1808,1856,1984
750534,-12124,20724,-11960,20808,479,446,419,-86,-61,-322,836,4200,33,49,874,1582,1738,1945,2012,2040,1808,1856,1984
751535,-12060,20784,-11895,20873,530,602,386,-139,-50,-166,846,3987,36,43,873,1582,1738,1945,2012,2040,1808,1856,1984
752536,-12012,20840,-11830,20938,751,663,358,-162,-48,-116,825,4057,41,43,874,1582,1738,1945,2012,2040,1808,1856,1984
753537,-11956,20908,-11765,21003,662,509,330,-179,-43,-62,781,4237,40,39,874,1588,1737,1952,2024,2038,1811,1853,1980
754538,-11912,20980,-11700,21068,837,451,302,-144,-52,130,761,4188,36,40,872,1588,1737,1952,2024,2038,1811,1853,1980
755539,-11832,21040,-11635,21133,369,607,297,-85,-70,536,707,4212,50,51,874,1588,1737,1952,2024,2038,1811,1853,1980
756540,-11772,21108,-11570,21198,625,503,279,-30,-75,529,605,4061,50,38,873,1588,1737,1952,2024,2038,1811,1853,1980
757541,-11716,21196,-11505,21263,686,225,258,-2,-73,408,792,4026,37,36,875,1588,1737,1952,2024,2038,1811,1853,1980
758542,-11648,21268,-11440,21328,532,417,230,12,-72,176,766,3886,45,48,874,1588,1737,1952,2024,2038,1811,1853,1980
759543,-11584,21320,-11375,21393,584,683,219,23,-77,129,840,4066,31,42,875,1598,1744,1960,2028,2021,1797,1840,1960
760544,-11536,21392,-11310,21458,804,424,204,30,-73,226,832,3998,48,32,875,1598,1744,1960,2028,2021,1797,1840,1960
761545,-11472,21456,-11245,21523,606,525,178,39,-66,197,848,3917,43,35,873,1598,1744,1960,2028,2021,1797,1840,1960
762546,-11412,21524,-11180,21588,663,472,155,45,-65,136,933,3967,40,46,874,1598,1744,1960,2028,2021,1797,1840,1960
763547,-11344,21584,-11115,21653,559,578,117,32,-51,-76,898,3677,37,39,874,1598,1744,1960,2028,2021,1797,1840,1960
764548,-11280,21656,-11050,21718,610,420,98,18,-59,19,944,3689,51,45,874,1604,1743,1955,2037,1992,1775,1823,1931
765549,-11216,21700,-10985,21783,611,796,63,-1,-62,-19,977,3748,35,46,874,1604,1743,1955,2037,1992,1775,1823,1931
766550,-11148,21764,-10920,21848,558,547,48,15,-59,-28,919,3701,42,34,875,1604,1743,1955,2037,1992,1775,1823,1931
767551,-11080,21828,-10855,21913,554,548,29,8,-42,14,887,3675,35,44,873,1604,1743,1955,2037,1992,1775,1823,1931
768552,-10996,21884,-10790,21978,331,659,17,2,-43,-59,751,3654,39,37,874,1604,1743,1955,2037,1992,1775,1823,1931
769553,-10940,21944,-10725,22043,692,615,11,6,-29,-10,716,3660,34,29,873,1604,1743,1955,2037,1992,1775,1823,1931
770554,-10876,22004,-10660,22108,593,621,5,26,-25,239,802,3754,29,43,875,1607,1750,1959,2046,1982,1770,1820,1930
771555,-10808,22064,-10595,22173,540,628,10,44,-18,129,731,3616,42,34,873,1607,1750,1959,2046,1982,1770,1820,1930
772556,-10740,22124,-10530,22238,536,634,17,57,-15,60,648,3534,35,36,874,1607,1750,1959,2046,1982,1770,1820,1930
773557,-10676,22196,-10465,22303,587,475,33,87,4,211,675,3710,47,30,874,1607,1750,1959,2046,1982,1770,1820,1930
774558,-10636,22240,-10400,22368,919,851,45,108,10,308,677,3528,34,33,874,1607,1750,1959,2046,1982,1770,1820,1930
775559,-10576,22312,-10335,22433,675,492,53,118,8,193,688,3500,38,45,874,1620,1763,1974,2060,1979,1769,1818,1924
776560,-10504,22384,-10270,22498,516,484,54,145,9,108,689,3523,46,33,871,1620,1763,1974,2060,1979,1769,1818,1924
777561,-10444,22428,-10205,22563,672,859,52,163,13,251,697,3549,42,30,874,1620,1763,1974,2060,1979,1769,1818,1924
778562,-10396,22508,-10140,22628,843,391,50,158,1,170,811,3510,43,29,875,1620,1763,1974,2060,1979,1769,1818,1924
779563,-10328,22564,-10075,22693,589,702,51,145,-1,-76,780,3398,48,44,872,1620,1763,1974,2060,1979,1769,1818,1924
780564,-10260,22644,-10010,22758,586,384,44,120,12,132,787,3363,51,30,874,1620,1763,1974,2060,1979,1769,1818,1924
781565,-10216,22700,-9945,22823,911,695,42,101,9,200,832,3398,33,40,874,1639,1780,1990,2086,1966,1760,1812,1908
782566,-10160,22748,-9880,22888,772,815,38,82,18,-52,725,3414,33,38,875,1639,1780,1990,2086,1966,1760,1812,1908
783567,-10104,22808,-9815,22953,783,672,37,100,21,45,828,3485,41,27,871,1639,1780,1990,2086,1966,1760,1812,1908
784568,-10032,22844,-9750,23018,575,1007,34,108,22,183,807,3565,32,30,872,1639,1780,1990,2086,1966,1760,1812,1908
785569,-9972,22900,-9685,23083,732,768,39,108,21,312,665,3458,34,40,871,1639,1780,1990,2086,1966,1760,1812,1908
786570,-9920,22960,-9620,23148,848,724,74,93,34,138,678,3684,47,43,872,1647,1781,1988,2086,1952,1752,1807,1906
787571,-9856,23012,-9555,23213,699,841,95,66,47,271,624,3509,30,41,872,1647,1781,1988,2086,1952,1752,1807,1906
788572,-9796,23072,-9490,23278,755,747,121,53,60,307,550,3744,40,30,872,1647,1781,1988,2086,1952,1752,1807,1906
789573,-9740,23128,-9425,23343,816,808,135,46,73,355,684,3813,36,40,872,1647,1781,1988,2086,1952,1752,1807,1906
790574,-9684,23192,-9360,23408,827,709,159,40,97,163,590,3981,37,30,871,1647,1781,1988,2086,1952,1752,1807,1906
791575,-9628,23252,-9295,23473,838,765,178,50,118,306,590,3935,33,43,872,1647,1781,1988,2086,1952,1752,1807,1906
792576,-9564,23300,-9230,23538,739,936,197,39,136,301,542,3870,34,44,871,1643,1783,1990,2084,1956,1752,1811,1916
793577,-9504,23372,-9165,23603,796,627,217,42,146,162,624,4017,34,36,871,1643,1783,1990,2084,1956,1752,1811,1916
794578,-9452,23440,-9100,23668,912,674,226,65,158,284,575,3930,41,32,872,1643,1783,1990,2084,1956,1752,1811,1916
795579,-9388,23484,-9035,23733,763,999,243,87,174,468,470,3830,40,29,872,1643,1783,1990,2084,1956,1752,1811,1916
796580,-9324,23536,-8970,23798,765,915,255,73,188,304,451,3818,39,30,870,1643,1783,1990,2084,1956,1752,1811,1916
797581,-9264,23596,-8905,23863,821,821,265,37,204,7,440,3804,33,42,871,1665,1808,2015,2112,1967,1761,1821,1923
798582,-9204,23660,-8840,23928,827,773,269,36,203,193,476,3778,38,47,871,1665,1808,2015,2112,1967,1761,1821,1923
799583,-9148,23712,-8775,23993,888,940,271,38,208,193,362,3922,32,46,871,1665,1808,2015,2112,1967,1761,1821,1923
800584,-9088,23772,-8710,24058,844,846,281,50,214,341,440,3850,36,47,870,1665,1808,2015,2112,1967,1761,1821,1923
801585,-9028,23844,-8645,24123,851,687,291,59,226,336,327,3972,51,47,870,1665,1808,2015,2112,1967,1761,1821,1923
802588,-8976,23908,-8580,24188,967,788,287,49,231,418,356,3919,37,46,871,1665,1808,2015,2112,1967,1761,1821,1923
803587,-8920,23968,-8515,24253,928,844,291,41,238,167,347,4150,49,50,871,1690,1836,2045,2147,1962,1758,1816,1913
804588,-8864,24028,-8450,24318,939,851,278,42,253,293,347,4158,38,34,870,1690,1836,2045,2147,1962,1758,1816,1913
805589,-8800,24088,-8385,24383,840,857,290,39,267,265,182,4211,33,44,870,1690,1836,2045,2147,1962,1758,1816,1913
806590,-8728,24172,-8320,24448,732,533,284,31,286,351,124,4281,45,42,871,1690,1836,2045,2147,1962,1758,1816,1913
807591,-8688,24224,-8255,24513,1162,949,300,43,319,410,122,4374,30,43,873,1690,1836,2045,2147,1962,1758,1816,1913
808592,-8636,24292,-8190,24578,1029,746,305,56,345,421,152,4293,29,30,868,1698,1836,2048,2146,1941,1743,1800,1898
809593,-8572,24356,-8125,24643,880,798,320,91,374,268,8,4466,32,32,870,1698,1836,2048,2146,1941,1743,1800,1898
810594,-8516,24420,-8060,24708,991,799,336,123,393,437,241,4546,38,32,871,1698,1836,2048,2146,1941,1743,1800,1898
811595,-8444,24468,-7995,24773,783,1020,343,142,422,353,213,4547,48,30,870,1698,1836,2048,2146,1941,1743,1800,1898
812596,-8388,24528,-7930,24838,994,876,353,167,454,208,254,4675,33,37,870,1698,1836,2048,2146,1941,1743,1800,1898
813597,-8324,24584,-7865,24903,895,937,368,173,484,419,218,4493,32,39,869,1698,1836,2048,2146,1941,1743,1800,1898
814598,-8280,24648,-7800,24968,1171,838,380,155,496,585,240,4368,39,48,870,1701,1841,2051,2151,1943,1748,1810,1908
815599,-8224,24716,-7735,25033,1032,784,398,149,516,225,371,4384,46,33,869,1701,1841,2051,2151,1943,1748,1810,1908
816600,-8168,24776,-7670,25098,1043,891,403,136,533,187,273,4493,47,36,870,1701,1841,2051,2151,1943,1748,1810,1908
817601,-8108,24848,-7605,25163,1000,733,439,138,545,64,202,4069,45,46,869,1701,1841,2051,2151,1943,1748,1810,1908
818602,-8040,24904,-7540,25228,896,944,446,144,566,212,210,4020,51,50,870,1701,1841,2051,2151,1943,1748,1810,1908
819603,-7988,24968,-7475,25293,1113,845,472,145,584,635,84,4200,32,45,869,1716,1856,2067,2176,1952,1754,1816,1908
820604,-7916,25024,-7410,25358,854,956,483,131,599,706,349,4000,49,46,869,1716,1856,2067,2176,1952,1754,1816,1908
821605,-7860,25092,-7345,25423,1065,803,497,164,615,385,438,4228,44,42,870,1716,1856,2067,2176,1952,1754,1816,1908
822606,-7800,25160,-7280,25488,1021,799,487,200,613,533,486,4452,40,50,870,1716,1856,2067,2176,1952,1754,1816,1908
823607,-7752,25244,-7215,25553,1192,576,488,240,607,855,413,4459,52,41,870,1716,1856,2067,2176,1952,1754,1816,1908
824608,-7696,25316,-7150,25618,1104,717,479,249,616,707,407,4183,44,43,870,1716,1856,2067,2176,1952,1754,1816,1908
825609,-7632,25384,-7085,25683,1005,763,484,252,628,363,313,4385,37,41,870,1732,1868,2069,2179,1925,1730,1795,1886
826610,-7584,25456,-7020,25748,1226,706,474,255,627,391,237,4326,34,41,870,1732,1868,2069,2179,1925,1730,1795,1886
827611,-7516,25532,-6955,25813,972,643,476,269,625,378,162,4247,50,52,869,1732,1868,2069,2179,1925,1730,1795,1886
828612,-7464,25620,-6890,25878,1188,464,479,282,636,476,121,4291,39,39,871,1732,1868,2069,2179,1925,1730,1795,1886
829613,-7392,25696,-6825,25943,931,601,476,285,646,331,207,4274,36,39,870,1732,1868,2069,2179,1925,1730,1795,1886
830614,-7324,25772,-6760,26008,977,588,472,255,664,95,90,4089,37,48,871,1718,1853,2059,2164,1925,1733,1796,1890
831615,-7276,25848,-6695,26073,1248,574,468,221,669,94,204,4236,34,35,871,1718,1853,2059,2164,1925,1733,1796,1890
832616,-7216,25920,-6630,26138,1104,616,469,199,676,231,222,4141,46,44,869,1718,1853,2059,2164,1925,1733,1796,1890
833617,-7160,25976,-6565,26203,1166,827,465,176,693,366,93,4159,54,41,870,1718,1853,2059,2164,1925,1733,1796,1890
834618,-7092,26036,-6500,26268,1012,783,490,178,704,326,263,4356,48,41,869,1718,1853,2059,2164,1925,1733,1796,1890
835619,-7028,26104,-6435,26333,1063,679,502,196,704,337,340,4216,37,40,870,1718,1853,2059,2164,1925,1733,1796,1890
836620,-6980,26156,-6370,26398,1284,895,531,221,716,403,95,4200,47,38,869,1702,1846,2056,2153,1955,1761,1823,1929
837621,-6912,26224,-6305,26463,1030,692,544,222,730,585,376,4031,52,49,867,1702,1846,2056,2153,1955,1761,1823,1929
838622,-6836,26288,-6240,26528,918,743,566,234,719,386,462,4188,58,52,870,1702,1846,2056,2153,1955,1761,1823,1929
839623,-6756,26360,-6175,26593,850,635,570,246,728,265,260,3922,42,45,871,1702,1846,2056,2153,1955,1761,1823,1929
840624,-6700,26416,-6110,26658,1161,846,575,232,719,562,576,3989,52,35,872,1702,1846,2056,2153,1955,1761,1823,1929
841625,-6648,26476,-6045,26723,1227,802,563,219,717,374,467,3959,44,35,868,1707,1858,2069,2169,1979,1779,1839,1939
842626,-6596,26540,-5980,26788,1243,753,560,218,706,424,512,3975,33,36,868,1707,1858,2069,2169,1979,1779,1839,1939
843627,-6532,26624,-5915,26853,1095,480,573,235,687,701,520,3954,32,38,868,1707,1858,2069,2169,1979,1779,1839,1939
844628,-6456,26684,-5850,26918,931,786,601,268,685,622,322,3955,43,42,870,1707,1858,2069,2169,1979,1779,1839,1939
845629,-6396,26752,-5785,26983,1137,682,631,289,661,513,636,3870,50,42,870,1707,1858,2069,2169,1979,1779,1839,1939
846630,-6360,26812,-5720,27048,1473,789,652,276,637,40,510,3886,31,50,869,1707,1858,2069,2169,1979,1779,1839,1939
847631,-6308,26876,-5655,27113,1290,740,655,227,611,117,562,3697,34,40,867,1720,1867,2076,2180,1963,1764,1821,1907
848632,-6244,26952,-5590,27178,1141,577,653,167,599,91,630,3734,37,55,868,1720,1867,2076,2180,1963,1764,1821,1907
849633,-6180,27012,-5525,27243,1142,783,648,108,608,6,576,3800,52,41,870,1720,1867,2076,2180,1963,1764,1821,1907
850635,-6128,27084,-5460,27308,1308,625,652,64,616,93,506,3756,48,53,869,1720,1867,2076,2180,1963,1764,1821,1907
851635,-6056,27160,-5395,27373,1050,562,651,62,631,303,483,4038,39,41,869,1720,1867,2076,2180,1963,1764,1821,1907
852636,-6004,27232,-5330,27438,1316,603,650,84,632,770,523,3835,41,41,870,1721,1862,2071,2184,1922,1736,1797,1886
853637,-5944,27304,-5265,27503,1222,594,662,115,639,769,503,3988,50,53,868,1721,1862,2071,2184,1922,1736,1797,1886
854638,-5892,27376,-5200,27568,1338,586,654,117,647,597,476,3677,53,40,869,1721,1862,2071,2184,1922,1736,1797,1886
855639,-5824,27468,-5135,27633,1136,303,667,147,662,579,278,3780,52,39,869,1721,1862,2071,2184,1922,1736,1797,1886
856640,-5760,27520,-5070,27698,1187,819,672,171,681,790,452,3671,37,40,871,1721,1862,2071,2184,1922,1736,1797,1886
857641,-5700,27600,-5005,27763,1243,450,688,245,704,602,546,3975,32,38,869,1721,1862,2071,2184,1922,1736,1797,1886
858642,-5640,27664,-4940,27828,1249,652,689,320,708,695,519,4001,49,39,869,1728,1868,2078,2187,1925,1741,1802,1895
859643,-5580,27728,-4875,27893,1256,653,689,373,682,937,561,3827,42,41,868,1728,1868,2078,2187,1925,1741,1802,1895
860644,-5524,27808,-4810,27958,1317,435,705,362,656,693,647,3741,48,37,868,1728,1868,2078,2187,1925,1741,1802,1895
861645,-5464,27868,-4745,28023,1273,691,709,337,619,292,628,3672,47,40,869,1728,1868,2078,2187,1925,1741,1802,1895
862646,-5396,27916,-4680,28088,1171,862,725,298,573,29,730,3653,32,42,868,1728,1868,2078,2187,1925,1741,1802,1895
863647,-5340,27980,-4615,28153,1332,664,730,257,543,105,681,3577,35,50,868,1729,1862,2085,2204,1958,1775,1822,1907
864648,-5292,28040,-4550,28218,1452,720,732,236,524,190,703,3750,33,47,868,1729,1862,2085,2204,1958,1775,1822,1907
865649,-5228,28124,-4485,28283,1253,397,729,202,497,114,796,3565,38,46,866,1729,1862,2085,2204,1958,1775,1822,1907
866650,-5172,28164,-4420,28348,1365,977,740,177,477,3,704,3732,42,52,870,1729,1862,2085,2204,1958,1775,1822,1907
867651,-5108,28228,-4355,28413,1267,678,747,156,469,159,699,3701,46,45,866,1729,1862,2085,2204,1958,1775,1822,1907
868652,-5048,28276,-4290,28478,1323,899,758,153,454,395,694,3815,38,49,868,1729,1862,2085,2204,1958,1775,1822,1907
869653,-4992,28344,-4225,28543,1385,645,760,177,446,554,715,3756,36,52,867,1727,1858,2089,2208,1975,1793,1837,1927
870654,-4936,28420,-4160,28608,1396,532,760,228,455,740,604,4005,48,42,867,1727,1858,2089,2208,1975,1793,1837,1927
871655,-4884,28500,-4095,28673,1462,464,760,292,465,775,582,3998,36,48,868,1727,1858,2089,2208,1975,1793,1837,1927
872656,-4816,28576,-4030,28738,1258,500,779,356,474,720,445,4011,53,42,867,1727,1858,2089,2208,1975,1793,1837,1927
873657,-4748,28652,-3965,28803,1255,487,794,403,511,875,520,3885,49,42,869,1727,1858,2089,2208,1975,1793,1837,1927
874658,-4696,28724,-3900,28868,1471,528,783,435,545,665,827,4062,42,39,869,1720,1858,2084,2192,1972,1789,1832,1922
875659,-4644,28776,-3835,28933,1487,794,773,483,553,415,726,4083,45,43,867,1720,1858,2084,2192,1972,1789,1832,1922
876660,-4612,28872,-3770,28998,1778,206,761,504,567,571,628,4139,42,53,866,1720,1858,2084,2192,1972,1789,1832,1922
877661,-4520,28916,-3705,29063,995,882,755,489,570,543,786,4000,52,42,866,1720,1858,2084,2192,1972,1789,1832,1922
878662,-4464,28996,-3640,29128,1456,414,728,460,546,141,838,4000,56,53,869,1720,1858,2084,2192,1972,1789,1832,1922
879663,-4396,29080,-3575,29193,1304,341,720,449,517,163,756,4095,34,44,868,1720,1858,2084,2192,1972,1789,1832,1922
880664,-4332,29132,-3510,29258,1355,757,707,425,485,445,697,3852,38,55,869,1711,1847,2080,2193,1974,1793,1833,1922
881665,-4268,29200,-3445,29323,1356,554,698,431,457,485,775,4104,48,39,867,1711,1847,2080,2193,1974,1793,1833,1922
882666,-4216,29268,-3380,29388,1522,550,670,438,419,400,897,3742,42,37,867,1711,1847,2080,2193,1974,1793,1833,1922
883667,-4140,29328,-3315,29453,1210,656,657,438,371,339,828,3846,36,50,867,1711,1847,2080,2193,1974,1793,1833,1922
884668,-4084,29376,-3250,29518,1471,827,625,436,343,341,955,3785,35,43,869,1711,1847,2080,2193,1974,1793,1833,1922
885669,-4004,29436,-3185,29583,1152,683,617,469,302,417,987,4046,35,36,866,1718,1852,2092,2204,2008,1820,1854,1952
886670,-3960,29500,-3120,29648,1629,634,606,507,265,523,827,3879,38,46,870,1718,1852,2092,2204,2008,1820,1854,1952
887671,-3884,29576,-3055,29713,1215,471,608,550,216,809,851,3943,32,44,865,1718,1852,2092,2204,2008,1820,1854,1952
888672,-3840,29628,-2990,29778,1641,787,594,594,181,677,724,3870,49,45,870,1718,1852,2092,2204,2008,1820,1854,1952
889673,-3784,29708,-2925,29843,1503,418,587,622,152,495,869,3852,50,47,865,1718,1852,2092,2204,2008,1820,1854,1952
890674,-3712,29768,-2860,29908,1295,674,574,629,129,418,924,4010,40,42,868,1718,1852,2092,2204,2008,1820,1854,1952
891675,-3640,29816,-2795,29973,1286,845,561,643,121,412,897,4025,40,39,868,1712,1848,2091,2197,2020,1834,1862,1958
892676,-3588,29896,-2730,30038,1553,427,547,649,121,384,822,3978,36,40,867,1712,1848,2091,2197,2020,1834,1862,1958
893677,-3540,29952,-2665,30103,1624,738,548,656,125,316,652,4015,41,42,867,1712,1848,2091,2197,2020,1834,1862,1958
894678,-3484,30012,-2600,30168,1535,694,536,632,146,414,621,3791,33,42,865,1712,1848,2091,2197,2020,1834,1862,1958
895679,-3444,30084,-2535,30233,1766,535,510,570,156,7,946,3931,46,41,866,1712,1848,2091,2197,2020,1834,1862,1958
896680,-3380,30160,-2470,30298,1467,472,468,549,150,-97,1039,4063,43,57,865,1702,1844,2088,2196,2012,1832,1860,1953
897681,-3332,30216,-2405,30363,1688,733,428,533,141,194,942,4090,42,57,868,1702,1844,2088,2196,2012,1832,1860,1953
898682,-3280,30300,-2340,30428,1655,360,395,551,157,495,930,4009,46,40,865,1702,1844,2088,2196,2012,1832,1860,1953
899683,-3204,30384,-2275,30493,1342,338,366,557,162,542,1045,3863,52,45,867,1702,1844,2088,2196,2012,1832,1860,1953
900684,-3152,30440,-2210,30558,1657,699,341,580,147,342,998,3977,39,52,869,1702,1844,2088,2196,2012,1832,1860,1953
901685,-3068,30524,-2145,30623,1235,325,330,602,113,558,927,3983,42,39,865,1702,1844,2088,2196,2012,1832,1860,1953
902686,-3004,30584,-2080,30688,1486,631,305,598,84,575,975,3943,40,48,870,1700,1842,2085,2187,2023,1838,1869,1975
903687,-2964,30668,-2015,30753,1817,308,295,610,32,554,1123,4017,55,48,867,1700,1842,2085,2187,2023,1838,1869,1975
904688,-2888,30728,-1950,30818,1355,614,286,617,0,308,1060,4049,50,43,865,1700,1842,2085,2187,2023,1838,1869,1975
905689,-2808,30776,-1885,30883,1286,785,271,634,-38,532,1192,3998,56,56,868,1700,1842,2085,2187,2023,1838,1869,1975
906690,-2736,30848,-1820,30948,1378,477,266,661,-89,522,1284,4004,46,53,868,1700,1842,2085,2187,2023,1838,1869,1975
907691,-2664,30932,-1755,31013,1370,303,265,661,-123,255,1034,3882,59,55,869,1708,1847,2098,2200,2061,1868,1889,2000
908692,-2592,30996,-1690,31078,1362,555,282,674,-153,359,985,3944,51,55,869,1708,1847,2098,2200,2061,1868,1889,2000
909693,-2524,31068,-1625,31143,1409,446,300,660,-187,473,945,3743,42,49,868,1708,1847,2098,2200,2061,1868,1889,2000
910694,-2448,31128,-1560,31208,1295,602,307,630,-221,318,1075,3726,42,45,868,1708,1847,2098,2200,2061,1868,1889,2000
911695,-2392,31184,-1495,31273,1556,663,286,617,-258,146,1156,3857,52,40,869,1708,1847,2098,2200,2061,1868,1889,2000
912696,-2332,31252,-1430,31338,1514,509,263,632,-263,152,998,3768,48,54,866,1708,1847,2098,2200,2061,1868,1889,2000
913697,-2284,31312,-1365,31403,1684,616,242,623,-265,272,1228,3771,34,56,867,1723,1859,2120,2233,2058,1868,1888,1983
914698,-2204,31396,-1300,31468,1266,292,221,605,-269,72,1195,3582,35,54,865,1723,1859,2120,2233,2058,1868,1888,1983
915699,-2144,31460,-1235,31533,1523,544,197,596,-264,99,1202,3815,50,44,871,1723,1859,2120,2233,2058,1868,1888,1983
916700,-2080,31528,-1170,31598,1474,490,167,597,-260,217,1074,3642,52,41,867,1723,1859,2120,2233,2058,1868,1888,1983
917701,-2024,31604,-1105,31663,1585,377,136,599,-274,244,1141,3882,33,55,868,1723,1859,2120,2233,2058,1868,1888,1983
918702,-1960,31672,-1040,31728,1488,473,109,617,-259,311,1069,3863,47,49,867,1746,1879,2136,2254,2038,1858,1882,1978
919703,-1916,31732,-975,31793,1763,579,83,639,-252,413,1037,3895,52,54,867,1746,1879,2136,2254,2038,1858,1882,1978
920704,-1840,31800,-910,31858,1350,475,55,670,-257,428,1123,3953,40,43,865,1746,1879,2136,2254,2038,1858,1882,1978
921705,-1792,31848,-845,31923,1722,746,42,672,-266,460,1228,3787,44,44,868,1746,1879,2136,2254,2038,1858,1882,1978
922706,-1728,31920,-780,31988,1523,438,36,682,-265,317,1039,4037,44,47,865,1746,1879,2136,2254,2038,1858,1882,1978
923707,-1672,31984,-715,32053,1634,539,32,690,-280,523,1158,4030,45,46,868,1746,1879,2136,2254,2038,1858,1882,1978
924708,-1596,32052,-650,32118,1371,485,31,704,-302,410,1230,3870,40,46,866,1740,1872,2126,2237,2053,1871,1892,1997
925709,-1520,32124,-585,32183,1358,427,39,699,-322,329,1069,3963,57,43,869,1740,1872,2126,2237,2053,1871,1892,1997
926710,-1460,32184,-520,32248,1564,583,57,705,-343,391,1058,4144,44,42,869,1740,1872,2126,2237,2053,1871,1892,1997
927711,-1400,32256,-455,32313,1571,424,77,705,-372,512,1206,3790,40,43,866,1740,1872,2126,2237,2053,1871,1892,1997
928712,-1312,32308,-390,32378,1193,690,101,711,-398,471,1182,3971,36,39,867,1740,1872,2126,2237,2053,1871,1892,1997
929713,-1256,32372,-325,32443,1605,541,96,714,-409,318,1273,3952,39,40,869,1727,1861,2127,2239,2100,1906,1919,2028
930714,-1184,32436,-260,32508,1396,542,98,740,-423,306,1296,3850,36,50,866,1727,1861,2127,2239,2100,1906,1919,2028
931715,-1112,32504,-195,32573,1388,489,90,750,-442,395,1279,3898,52,54,869,1727,1861,2127,2239,2100,1906,1919,2028
932716,-1064,32564,-130,32638,1710,595,93,743,-461,397,1345,3763,52,52,868,1727,1861,2127,2239,2100,1906,1919,2028
933717,-1012,32620,-65,32703,1676,656,84,726,-478,147,1379,3579,49,43,865,1727,1861,2127,2239,2100,1906,1919,2028
934718,-952,32684,0,32768,1582,557,76,703,-497,-51,1339,3620,35,43,865,1750,1882,2152,2272,2101,1909,1922,2022
935719,-880,32748,65,32833,1424,559,59,706,-510,206,1415,3599,36,46,867,1750,1882,2152,2272,2101,1909,1922,2022
936720,-816,32808,130,32898,1525,615,46,717,-520,288,1352,3646,42,56,868,1750,1882,2152,2272,2101,1909,1922,2022
937721,-752,32884,195,32963,1527,402,27,710,-527,116,1267,3572,49,52,867,1750,1882,2152,2272,2101,1909,1922,2022
938722,-676,32952,260,33028,1364,498,8,727,-527,247,1280,3695,35,46,867,1750,1882,2152,2272,2101,1909,1922,2022
939723,-612,33016,325,33093,1515,549,-13,728,-535,285,1272,3644,39,57,869,1750,1882,2152,2272,2101,1909,1922,2022
940724,-544,33072,390,33158,1462,660,-31,733,-543,145,1167,3734,52,40,868,1763,1891,2155,2271,2079,1890,1906,2007
941725,-468,33164,455,33223,1349,178,-48,736,-555,354,1221,3813,58,54,867,1763,1891,2155,2271,2079,1890,1906,2007
942726,-404,33240,520,33288,1500,364,-51,746,-562,175,1097,3895,59,57,870,1763,1891,2155,2271,2079,1890,1906,2007
943727,-340,33308,585,33353,1502,460,-63,778,-556,322,1161,4102,48,47,869,1763,1891,2155,2271,2079,1890,1906,2007
944728,-264,33372,650,33418,1339,512,-65,814,-552,488,1247,4025,39,52,868,1763,1891,2155,2271,2079,1890,1906,2007
945729,-196,33412,715,33483,1436,842,-85,833,-558,401,1194,4142,44,42,869,1740,1869,2130,2235,2070,1882,1897,2005
946730,-112,33492,780,33548,1213,324,-95,831,-573,176,1226,4028,43,40,867,1740,1869,2130,2235,2070,1882,1897,2005
947731,-24,33548,845,33613,1135,635,-97,813,-590,44,967,3857,61,54,871,1740,1869,2130,2235,2070,1882,1897,2005
948732,36,33612,910,33678,1491,536,-97,815,-619,326,1294,4052,47,53,870,1740,1869,2130,2235,2070,1882,1897,2005
949733,100,33692,975,33743,1444,318,-114,799,-641,141,1251,3682,43,40,868,1740,1869,2130,2235,2070,1882,1897,2005
950734,176,33728,1040,33808,1280,903,-142,794,-640,86,758,3900,41,55,869,1740,1869,2130,2235,2070,1882,1897,2005
951735,256,33796,1105,33873,1212,499,-162,798,-662,289,1343,4053,56,54,868,1720,1851,2115,2225,2095,1903,1915,2027
952736,320,33868,1170,33938,1413,441,-164,730,-706,53,1439,3432,41,55,870,1720,1851,2115,2225,2095,1903,1915,2027
953737,392,33940,1235,34003,1306,432,-191,681,-727,-407,1050,3825,47,52,869,1720,1851,2115,2225,2095,1903,1915,2027
954738,464,34004,1434,34202,1461,697,-228,691,-727,213,1118,4087,58,42,870,1720,1851,2115,2225,2095,1903,1915,2027
955739,536,34064,1499,34267,1452,753,-260,688,-742,572,1299,3602,47,46,867,1720,1851,2115,2225,2095,1903,1915,2027
956740,612,34120,1564,34332,1390,814,-274,641,-764,12,1384,3714,55,53,867,1725,1859,2126,2231,2129,1930,1945,2064
957741,696,34196,1629,34397,1266,551,-296,595,-769,-385,1189,3840,53,44,867,1725,1859,2126,2231,2129,1930,1945,2064
958742,760,34304,1694,34462,1519,98,-304,608,-777,-158,1008,3800,45,53,870,1725,1859,2126,2231,2129,1930,1945,2064
959743,828,34376,1759,34527,1465,540,-336,647,-784,614,801,4044,59,46,869,1725,1859,2126,2231,2129,1930,1945,2064
960744,920,34448,1824,34592,1132,531,-346,665,-772,670,1003,3724,59,44,868,1725,1859,2126,2231,2129,1930,1945,2064
961745,1000,34516,1889,34657,1265,578,-359,666,-785,-41,1309,3787,59,60,871,1725,1859,2126,2231,2129,1930,1945,2064
962746,1076,34596,1954,34722,1301,409,-364,644,-801,-390,996,3678,49,55,869,1717,1855,2119,2212,2146,1938,1950,2075
963747,1144,34680,2019,34787,1398,337,-378,664,-803,134,730,4163,55,51,870,1717,1855,2119,2212,2146,1938,1950,2075
964748,1236,34752,2084,34852,1066,479,-395,691,-785,655,936,3917,45,54,869,1717,1855,2119,2212,2146,1938,1950,2075
965749,1312,34832,2149,34917,1252,360,-407,672,-794,55,1185,3819,56,60,871,1717,1855,2119,2212,2146,1938,1950,2075
966750,1404,34912,2214,34982,1019,342,-410,623,-811,-642,1103,3785,54,50,871,1717,1855,2119,2212,2146,1938,1950,2075
967751,1492,34988,2279,35047,1042,379,-427,590,-808,-384,952,3932,60,62,872,1708,1848,2112,2209,2131,1923,1935,2053
968752,1576,35068,2344,35112,1069,310,-440,606,-795,177,881,3971,64,50,872,1708,1848,2112,2209,2131,1923,1935,2053
969753,1648,35132,2409,35177,1210,511,-455,608,-815,489,1140,3683,56,58,872,1708,1848,2112,2209,2131,1923,1935,2053
970754,1728,35208,2474,35242,1092,348,-465,551,-831,-397,1082,3612,47,49,870,1708,1848,2112,2209,2131,1923,1935,2053
971755,1828,35288,2539,35307,800,280,-482,558,-844,-360,1042,4020,57,62,871,1708,1848,2112,2209,2131,1923,1935,2053
972756,1928,35356,2604,35372,758,426,-507,570,-856,258,1101,3706,59,57,873,1708,1848,2112,2209,2131,1923,1935,2053
973757,1996,35444,2669,35437,1154,148,-523,568,-854,140,906,3517,46,49,874,1722,1857,2120,2230,2109,1903,1923,2031
974758,2068,35532,2734,35502,1096,120,-555,579,-848,-91,912,3708,45,50,872,1722,1857,2120,2230,2109,1903,1923,2031
975759,2168,35600,2799,35567,704,366,-576,568,-860,-3,1331,3494,47,64,872,1722,1857,2120,2230,2109,1903,1923,2031
976760,2248,35672,2864,35632,935,308,-589,527,-877,-293,978,3362,52,50,874,1722,1857,2120,2230,2109,1903,1923,2031
977761,2324,35752,2929,35697,972,189,-610,526,-875,-54,801,3600,61,59,873,1722,1857,2120,2230,2109,1903,1923,2031
978762,2416,35832,2994,35762,739,171,-629,548,-872,278,839,3678,50,52,873,1741,1869,2125,2240,2086,1887,1908,2011
979763,2492,35924,3059,35827,927,-12,-649,569,-874,344,928,3546,47,62,875,1741,1869,2125,2240,2086,1887,1908,2011
980764,2572,36012,3124,35892,858,10,-659,554,-887,220,978,3443,57,51,874,1741,1869,2125,2240,2086,1887,1908,2011
981765,2660,36088,3189,35957,730,146,-669,553,-893,-109,763,3644,57,51,875,1741,1869,2125,2240,2086,1887,1908,2011
982766,2724,36176,3254,36022,1031,-32,-670,545,-896,8,684,3546,63,50,875,1741,1869,2125,2240,2086,1887,1908,2011
983767,2820,36256,3319,36087,594,49,-680,522,-894,30,873,3648,60,51,873,1741,1869,2125,2240,2086,1887,1908,2011
984768,2908,36336,3384,36152,667,31,-700,497,-901,-186,853,3688,54,54,876,1721,1842,2093,2201,2060,1862,1886,1991
985769,2980,36448,3449,36217,858,-426,-712,488,-898,-247,787,3469,60,43,876,1721,1842,2093,2201,2060,1862,1886,1991
986770,3072,36568,3514,36282,575,-594,-700,470,-883,-195,685,3508,49,57,873,1721,1842,2093,2201,2060,1862,1886,1991
987771,3172,36648,3579,36347,432,-112,-693,480,-858,-22,551,3549,46,41,874,1721,1842,2093,2201,2060,1862,1886,1991
988772,3256,36708,3644,36412,609,144,-684,493,-829,143,689,3553,57,33,876,1721,1842,2093,2201,2060,1862,1886,1991
989773,3328,36740,3709,36477,752,534,-663,513,-799,-95,768,3224,47,46,875,1694,1824,2072,2176,2058,1860,1888,1996
990774,3408,36832,3774,36542,633,-249,-633,499,-768,-396,727,3176,39,37,873,1694,1824,2072,2176,2058,1860,1888,1996
991775,3484,36888,3839,36607,670,212,-624,479,-748,-499,640,3329,51,37,875,1694,1824,2072,2176,2058,1860,1888,1996
992776,3580,36932,3904,36672,382,387,-618,467,-756,-194,795,3273,58,40,875,1694,1824,2072,2176,2058,1860,1888,1996
993777,3676,37000,3969,36737,344,83,-623,414,-750,-130,829,2816,47,42,876,1694,1824,2072,2176,2058,1860,1888,1996
994778,3736,37068,4034,36802,800,80,-646,374,-747,-395,811,3104,38,50,877,1694,1824,2072,2176,2058,1860,1888,1996
995779,3820,37120,4099,36867,477,296,-678,352,-770,-256,779,2959,54,43,875,1704,1834,2078,2194,2053,1850,1888,1992
996780,3916,37196,4164,36932,289,-18,-708,348,-814,125,728,2964,44,48,876,1704,1834,2078,2194,2053,1850,1888,1992
997781,4000,37252,4229,36997,416,243,-732,323,-850,43,707,2706,46,42,878,1704,1834,2078,2194,2053,1850,1888,1992
998782,4068,37340,4294,37062,613,-185,-754,299,-856,-373,598,2921,42,43,876,1704,1834,2078,2194,2053,1850,1888,1992
999783,4164,37384,4359,37127,226,391,-777,300,-863,-185,565,2985,39,43,875,1704,1834,2078,2194,2053,1850,1888,1992
1000784,4240,37440,4424,37192,462,252,-788,304,-865,-54,585,3011,41,39,877,1721,1845,2079,2185,2045,1839,1883,1994
1001785,4336,37512,4489,37257,174,43,-773,298,-862,136,668,3012,42,40,876,1721,1845,2079,2185,2045,1839,1883,1994
1002786,4416,37604,4554,37322,356,-241,-756,243,-851,-267,407,2845,52,41,878,1721,1845,2079,2185,2045,1839,1883,1994
1003787,4496,37684,4619,37387,338,-109,-753,206,-849,-496,237,3238,33,47,876,1721,1845,2079,2185,2045,1839,1883,1994
1004788,4556,37748,4684,37452,594,92,-741,198,-844,-232,167,3210,33,50,877,1721,1845,2079,2185,2045,1839,1883,1994
1005789,4632,37824,4749,37517,380,-71,-728,205,-821,176,190,3162,50,47,876,1721,1845,2079,2185,2045,1839,1883,1994
1006790,4716,37876,4814,37582,257,245,-712,177,-811,56,232,3013,39,40,876,1691,1821,2050,2146,2036,1827,1868,1980
1007791,4796,37956,4879,37647,289,-124,-718,160,-811,-341,127,2972,48,51,877,1691,1821,2050,2146,2036,1827,1868,1980
1008792,4872,38028,4944,37712,325,-32,-724,159,-796,-359,157,3160,51,38,877,1691,1821,2050,2146,2036,1827,1868,1980
1009793,4956,38104,5009,37777,202,-96,-728,163,-769,-11,279,2994,37,46,877,1691,1821,2050,2146,2036,1827,1868,1980
1010794,5028,38180,5074,37842,344,-109,-720,179,-736,-102,278,3298,35,53,877,1691,1821,2050,2146,2036,1827,1868,1980
1011795,5104,38236,5139,37907,280,151,-719,176,-707,-366,298,3094,36,53,877,1675,1807,2034,2139,2017,1813,1860,1961
1012796,5188,38324,5204,37972,157,-277,-730,176,-697,-533,331,3177,47,53,877,1675,1807,2034,2139,2017,1813,1860,1961
1013797,5240,38380,5269,38037,573,134,-762,162,-682,-353,326,2771,54,42,877,1675,1807,2034,2139,2017,1813,1860,1961
1014798,5328,38452,5334,38102,95,-75,-791,129,-662,-287,292,2885,34,52,876,1675,1807,2034,2139,2017,1813,1860,1961
1015799,5412,38540,5399,38167,122,-303,-816,76,-651,-442,235,2863,38,48,878,1675,1807,2034,2139,2017,1813,1860,1961
1016800,5488,38632,5464,38232,208,-386,-829,55,-666,-477,210,3085,39,52,877,1675,1807,2034,2139,2017,1813,1860,1961
1017801,5592,38700,5529,38297,-189,-89,-826,40,-693,-361,302,3020,54,40,876,1686,1813,2040,2161,2017,1818,1864,1963
1018802,5680,38756,5594,38362,-17,71,-817,20,-709,-224,154,3030,38,39,871,1686,1813,2040,2161,2017,1818,1864,1963
1019803,5772,38832,5659,38427,-100,-193,-798,30,-721,-232,198,3137,50,38,878,1686,1813,2040,2161,2017,1818,1864,1963
1020804,5876,38888,5724,38492,-298,68,-773,28,-733,26,92,3053,37,38,875,1686,1813,2040,2161,2017,1818,1864,1963
1021805,5936,38956,5789,38557,258,-86,-736,19,-757,295,1,3125,38,52,878,1686,1813,2040,2161,2017,1818,1864,1963
1022806,6020,39016,5854,38622,-65,21,-686,41,-769,131,-82,3332,46,45,878,1698,1812,2044,2172,2034,1830,1875,1974
1023807,6096,39072,5919,38687,21,82,-659,116,-762,324,-203,3562,50,51,877,1698,1812,2044,2172,2034,1830,1875,1974
1024808,6172,39148,5984,38752,8,-183,-650,148,-764,209,43,3053,45,46,878,1698,1812,2044,2172,2034,1830,1875,1974
1025809,6252,39220,6049,38817,-60,-141,-665,159,-765,-58,-114,3139,35,42,878,1698,1812,2044,2172,2034,1830,1875,1974
1026810,6324,39280,6114,38882,31,15,-686,178,-761,-79,-162,3425,35,51,878,1698,1812,2044,2172,2034,1830,1875,1974
1027813,6404,39340,6179,38947,-87,21,-700,186,-768,4,23,3200,49,46,879,1698,1812,2044,2172,2034,1830,1875,1974
