%  Data file recorded 2016/7/16  20:7:53
%  Stride Frequency         = [1, 1]
%  Lead In /Lead Out        = 
%  Deltas (Fractional)      = [0.25, 0.25, 0.25],[0.25, 0.25, 0.25]
%  Phase                    = 32768
%  Experiment.py 
%  Motor Gains    = [5000, 400, 200, 0, 300, 5000, 400, 200, 0, 300]
% Columns: 
% time | Right Leg Pos | Left Leg Pos | Commanded Right Leg Pos | Commanded Left Leg Pos | DCR | DCL | GyroX | GyroY | GyroZ | AX | AY | AZ | RBEMF | LBEMF | VBatt | S1 | S2 | S3 | S4 | S5 | S6 | S7 | S8
338,-16324,-14404,-31756,1012,-3800,3800,-5,3,-2,51,61,3968,-7,-5,921,1440,1588,1786,1832,1848,1651,1704,1811
1339,-16328,-14408,-31756,1012,-3800,3800,-6,3,-1,53,48,3961,-7,-3,922,1440,1589,1786,1831,1847,1651,1703,1811
2340,-16324,-14420,-31756,1012,-3800,3800,-4,4,0,55,58,3979,-9,-2,922,1440,1589,1786,1831,1847,1651,1703,1811
3341,-16324,-14416,-31756,1012,-3800,3800,-3,4,-2,52,51,3950,-7,8,921,1440,1589,1786,1831,1847,1651,1703,1811
4342,-16336,-14408,-31756,1012,-3800,3800,-1,4,-1,52,54,3955,-6,7,921,1440,1589,1786,1831,1847,1651,1703,1811
5343,-16328,-14412,-31756,1012,-3800,3800,-3,3,-1,50,73,3933,11,4,921,1440,1589,1786,1831,1847,1651,1703,1811
6344,-16332,-14416,-31756,1012,-3800,3800,-4,1,0,45,62,3965,10,-5,921,1441,1590,1789,1834,1850,1654,1704,1812
7345,-16328,-14420,-31756,1012,-3800,3800,-4,-1,-1,73,69,3960,11,-7,921,1441,1590,1789,1834,1850,1654,1704,1812
8346,-16328,-14420,-31756,1012,-3800,3800,-5,-1,-1,50,60,3952,2,-6,921,1441,1590,1789,1834,1850,1654,1704,1812
9347,-16328,-14420,-31756,1012,-3800,3800,-5,1,-1,56,54,3928,6,4,921,1441,1590,1789,1834,1850,1654,1704,1812
10348,-16316,-14420,-31756,1012,-3800,3800,-6,3,-1,60,45,3957,9,6,921,1441,1590,1789,1834,1850,1654,1704,1812
11349,-16328,-14408,-31756,1012,-3800,3800,-5,3,0,66,90,3965,5,8,921,1441,1590,1789,1834,1850,1654,1704,1812
12350,-16332,-14420,-31756,1012,-3800,3800,-5,2,1,53,74,3961,1,0,921,1440,1588,1785,1832,1848,1651,1703,1811
13351,-16336,-14412,-31756,1012,-3800,3800,-5,1,1,46,95,3961,-6,-4,922,1440,1588,1785,1832,1848,1651,1703,1811
14352,-16316,-14416,-31756,1012,-3800,3800,-4,2,1,74,59,3955,-9,-5,921,1440,1588,1785,1832,1848,1651,1703,1811
15354,-16324,-14408,-31756,1012,-3800,3800,-6,1,-1,80,47,3964,-8,-4,921,1440,1588,1785,1832,1848,1651,1703,1811
16354,-16332,-14420,-31756,1012,-3800,3800,-6,2,-2,66,53,3957,-8,-4,921,1440,1588,1785,1832,1848,1651,1703,1811
17355,-16324,-14428,-31756,1012,-3800,3800,-4,3,1,65,82,3936,-8,-3,921,1439,1589,1786,1831,1847,1652,1704,1812
18356,-16328,-14416,-31756,1012,-3800,3800,-2,5,3,56,69,3935,-7,4,920,1439,1589,1786,1831,1847,1652,1704,1812
19357,-16320,-14416,-31756,1012,-3800,3800,-2,3,4,62,56,3930,-4,3,920,1439,1589,1786,1831,1847,1652,1704,1812
20358,-16332,-14416,-31756,1012,-3800,3800,-2,2,0,62,64,3928,2,-3,921,1439,1589,1786,1831,1847,1652,1704,1812
21359,-16328,-14400,-31756,1012,-3800,3800,-2,3,-1,68,63,3944,10,7,921,1439,1589,1786,1831,1847,1652,1704,1812
22360,-16324,-14408,-31756,1012,-3800,3800,-3,5,1,64,58,3933,10,8,921,1439,1589,1786,1831,1847,1652,1704,1812
23361,-16332,-14412,-31756,1012,-3800,3800,-6,4,2,28,34,3932,11,6,921,1440,1589,1787,1833,1848,1652,1704,1811
24362,-16328,-14416,-31756,1012,-3800,3800,-3,3,2,16,48,3956,10,-3,921,1440,1589,1787,1833,1848,1652,1704,1811
25363,-16324,-14408,-31756,1012,-3800,3800,-1,1,0,54,48,3966,8,-5,921,1440,1589,1787,1833,1848,1652,1704,1811
26364,-16328,-14428,-31756,1012,-3800,3800,-3,2,1,72,44,3956,11,-7,921,1440,1589,1787,1833,1848,1652,1704,1811
27365,-16328,-14408,-31756,1012,-3800,3800,-2,2,1,82,51,3936,11,0,921,1440,1589,1787,1833,1848,1652,1704,1811
28366,-16328,-14416,-31756,1012,-3800,3800,-2,4,1,52,64,3949,10,2,921,1441,1589,1785,1829,1845,1650,1703,1812
29367,-16332,-14416,-31756,1012,-3800,3800,-1,3,0,60,50,3962,11,2,921,1441,1589,1785,1829,1845,1650,1703,1812
30368,-16336,-14416,-31756,1012,-3800,3800,-1,4,1,57,57,3944,9,8,921,1441,1589,1785,1829,1845,1650,1703,1812
31369,-16324,-14420,-31756,1012,-3800,3800,-2,5,2,57,95,3927,8,8,921,1441,1589,1785,1829,1845,1650,1703,1812
32370,-16324,-14416,-31756,1012,-3800,3800,-4,5,3,53,71,3930,-4,7,921,1441,1589,1785,1829,1845,1650,1703,1812
33371,-16324,-14420,-31756,1012,-3800,3800,-2,4,2,40,49,3938,-6,-2,921,1441,1589,1785,1829,1845,1650,1703,1812
34372,-16332,-14412,-31756,1012,-3800,3800,-1,4,0,48,47,3925,-2,-4,921,1440,1588,1786,1832,1848,1651,1704,1810
35373,-16324,-14412,-31756,1012,-3800,3800,-2,4,-3,29,59,3929,-4,-5,921,1440,1588,1786,1832,1848,1651,1704,1810
36374,-16336,-14416,-31756,1012,-3800,3800,-2,5,0,69,53,3933,6,-6,920,1440,1588,1786,1832,1848,1651,1704,1810
37375,-16316,-14416,-31756,1012,-3800,3800,-1,5,2,50,53,3913,10,-5,921,1440,1588,1786,1832,1848,1651,1704,1810
38376,-16324,-14416,-31756,1012,-3800,3800,-2,5,0,57,55,3926,11,-5,921,1440,1588,1786,1832,1848,1651,1704,1810
39377,-16340,-14420,-31756,1012,-3800,3800,-1,4,-2,73,68,3952,11,-7,921,1440,1589,1787,1833,1849,1651,1703,1811
40378,-16316,-14420,-31756,1012,-3800,3800,0,5,-2,67,74,3906,11,-7,921,1440,1589,1787,1833,1849,1651,1703,1811
41379,-16320,-14400,-31756,1012,-3800,3800,1,1,0,48,62,3903,11,-7,921,1440,1589,1787,1833,1849,1651,1703,1811
42380,-16328,-14420,-31756,1012,-3800,3800,-1,-1,1,33,70,3965,10,0,921,1440,1589,1787,1833,1849,1651,1703,1811
43381,-16320,-14420,-31756,1012,-3800,3800,-3,-1,2,53,81,3963,0,-1,921,1440,1589,1787,1833,1849,1651,1703,1811
44382,-16316,-14412,-31756,1012,-3800,3800,-1,4,4,53,70,3975,-6,-2,921,1440,1589,1787,1833,1849,1651,1703,1811
45383,-16336,-14404,-31756,1012,-3800,3800,-2,4,0,60,43,3966,-8,4,921,1440,1588,1786,1831,1848,1651,1704,1812
46384,-16332,-14412,-31756,1012,-3800,3800,-3,2,-1,48,47,3941,-9,0,921,1440,1588,1786,1831,1848,1651,1704,1812
47385,-16324,-14408,-31756,1012,-3800,3800,-2,2,-1,37,54,3924,-3,-1,921,1440,1588,1786,1831,1848,1651,1704,1812
48386,-16328,-14408,-31756,1012,-3800,3800,-2,1,-1,44,56,3966,-3,4,921,1440,1588,1786,1831,1848,1651,1704,1812
49387,-16332,-14400,-31756,1012,-3800,3800,1,2,-2,38,73,3944,-2,3,921,1440,1588,1786,1831,1848,1651,1704,1812
50388,-16332,-14424,-31756,1012,-3800,3800,0,2,1,40,60,3958,4,5,921,1442,1589,1787,1832,1848,1651,1704,1809
51389,-16332,-14404,-31756,1012,-3800,3800,-3,5,-1,61,44,3938,3,8,921,1442,1589,1787,1832,1848,1651,1704,1809
52390,-16328,-14420,-31756,1012,-3800,3800,-3,2,-1,63,61,3973,4,7,921,1442,1589,1787,1832,1848,1651,1704,1809
53391,-16336,-14408,-31756,1012,-3800,3800,-4,4,-5,48,54,3973,6,6,920,1442,1589,1787,1832,1848,1651,1704,1809
54392,-16324,-14412,-31756,1012,-3800,3800,-4,5,-3,57,34,3997,1,1,921,1442,1589,1787,1832,1848,1651,1704,1809
55393,-16328,-14420,-31756,1012,-3800,3800,-1,6,-1,52,65,3981,5,0,921,1442,1589,1787,1832,1848,1651,1704,1809
56394,-16316,-14416,-31756,1012,-3800,3800,-1,5,0,75,63,3995,10,-5,921,1440,1588,1787,1833,1849,1652,1705,1812
57395,-16328,-14420,-31756,1012,-3800,3800,-2,3,1,81,81,3947,10,-6,921,1440,1588,1787,1833,1849,1652,1705,1812
58396,-16324,-14412,-31756,1012,-3800,3800,-4,2,0,63,69,3893,9,-5,921,1440,1588,1787,1833,1849,1652,1705,1812
59397,-16332,-14416,-31756,1012,-3800,3800,-5,2,-1,63,27,3938,11,-6,921,1440,1588,1787,1833,1849,1652,1705,1812
60398,-16332,-14420,-31756,1012,-3800,3800,-4,3,0,73,46,3975,10,-2,921,1440,1588,1787,1833,1849,1652,1705,1812
61399,-16316,-14432,-31756,1012,-3800,3800,-3,3,0,81,62,3970,2,0,921,1440,1588,1786,1831,1847,1651,1703,1811
62400,-16328,-14408,-31756,1012,-3800,3800,-5,3,0,69,67,3952,-9,4,921,1440,1588,1786,1831,1847,1651,1703,1811
63401,-16332,-14408,-31756,1012,-3800,3800,-5,4,0,55,50,3971,-9,8,921,1440,1588,1786,1831,1847,1651,1703,1811
64402,-16328,-14420,-31756,1012,-3800,3800,-5,3,0,41,44,3972,-9,8,921,1440,1588,1786,1831,1847,1651,1703,1811
65403,-16332,-14412,-31756,1012,-3800,3800,-3,2,-1,71,48,3950,2,8,921,1440,1588,1786,1831,1847,1651,1703,1811
66404,-16328,-14412,-31756,1012,-3800,3800,-3,0,1,106,54,3921,9,3,921,1440,1588,1786,1831,1847,1651,1703,1811
67405,-16328,-14420,-31756,1012,-3800,3800,-4,-2,2,77,47,3922,11,-2,921,1441,1589,1786,1831,1847,1650,1703,1810
68406,-16324,-14412,-31756,1012,-3800,3800,-5,-1,1,71,49,3929,-3,-5,921,1441,1589,1786,1831,1847,1650,1703,1810
69407,-16324,-14416,-31756,1012,-3800,3800,-8,1,0,70,49,3938,-8,-6,920,1441,1589,1786,1831,1847,1650,1703,1810
70408,-16324,-14416,-31756,1012,-3800,3800,-7,2,0,48,56,3950,-9,-7,920,1441,1589,1786,1831,1847,1650,1703,1810
71409,-16324,-14408,-31756,1012,-3800,3800,-5,4,0,42,58,3919,-6,-4,921,1441,1589,1786,1831,1847,1650,1703,1810
72410,-16320,-14420,-31756,1012,-3800,3800,-4,7,0,51,50,3933,-4,-7,921,1440,1588,1785,1832,1848,1652,1704,1811
73411,-16332,-14416,-31756,1012,-3800,3800,-4,5,1,57,36,3956,-1,-6,921,1440,1588,1785,1832,1848,1652,1704,1811
74412,-16312,-14408,-31756,1012,-3800,3800,-7,3,1,66,53,3925,11,-6,921,1440,1588,1785,1832,1848,1652,1704,1811
75413,-16316,-14416,-31756,1012,-3800,3800,-7,4,-1,65,74,3913,11,-1,921,1440,1588,1785,1832,1848,1652,1704,1811
76414,-16328,-14428,-31756,1012,-3800,3800,-5,3,3,70,55,3956,10,1,921,1440,1588,1785,1832,1848,1652,1704,1811
77415,-16320,-14424,-31756,1012,-3800,3800,-2,3,2,83,37,3939,2,1,921,1440,1588,1785,1832,1848,1652,1704,1811
78416,-16332,-14432,-31756,1012,-3800,3800,-2,3,0,57,41,3956,2,5,921,1440,1588,1785,1831,1847,1650,1703,1811
79417,-16316,-14416,-31756,1012,-3800,3800,-3,2,2,76,56,3946,-3,3,921,1440,1588,1785,1831,1847,1650,1703,1811
80418,-16328,-14416,-31756,1012,-3800,3800,-5,4,2,69,50,3969,-7,2,921,1440,1588,1785,1831,1847,1650,1703,1811
81419,-16324,-14408,-31756,1012,-3800,3800,-5,5,-2,51,55,3967,-9,8,921,1440,1588,1785,1831,1847,1650,1703,1811
82420,-16320,-14416,-31756,1012,-3800,3800,-4,4,-1,67,59,3945,-9,7,921,1440,1588,1785,1831,1847,1650,1703,1811
83421,-16320,-14412,-31756,1012,-3800,3800,-2,4,1,72,67,3945,-9,6,921,1441,1589,1786,1832,1847,1651,1703,1811
84422,-16340,-14396,-31756,1012,-3800,3800,-3,4,-1,52,43,3952,-8,6,921,1441,1589,1786,1832,1847,1651,1703,1811
85423,-16324,-14412,-31756,1012,-3800,3800,-3,3,0,44,85,3963,-5,5,921,1441,1589,1786,1832,1847,1651,1703,1811
86424,-16336,-14408,-31756,1012,-3800,3800,-3,3,1,78,96,3985,-6,4,920,1441,1589,1786,1832,1847,1651,1703,1811
87425,-16328,-14412,-31756,1012,-3800,3800,-1,2,-2,74,54,3936,1,-3,920,1441,1589,1786,1832,1847,1651,1703,1811
88426,-16332,-14420,-31756,1012,-3800,3800,-4,4,-1,67,54,3904,10,-1,921,1441,1589,1786,1832,1847,1651,1703,1811
89427,-16328,-14416,-31756,1012,-3800,3800,-3,5,0,79,48,3920,0,-4,921,1441,1588,1786,1832,1848,1652,1704,1813
90428,-16324,-14412,-31756,1012,-3800,3800,-3,2,-1,81,45,3944,2,-6,921,1441,1588,1786,1832,1848,1652,1704,1813
91429,-16328,-14412,-31756,1012,-3800,3800,-2,0,-1,55,34,3952,2,-1,921,1441,1588,1786,1832,1848,1652,1704,1813
92430,-16332,-14420,-31756,1012,-3800,3800,1,2,0,45,44,3921,-2,3,921,1441,1588,1786,1832,1848,1652,1704,1813
93431,-16332,-14420,-31756,1012,-3800,3800,0,4,1,60,63,3947,-3,8,921,1441,1588,1786,1832,1848,1652,1704,1813
94432,-16344,-14412,-31756,1012,-3800,3800,-1,7,1,61,64,3987,-9,4,921,1440,1588,1786,1831,1847,1651,1703,1811
95433,-16332,-14416,-31756,1012,-3800,3800,0,6,-1,53,47,3984,-3,-2,921,1440,1588,1786,1831,1847,1651,1703,1811
96434,-16328,-14412,-31756,1012,-3800,3800,-1,4,-3,49,56,3978,-5,-6,921,1440,1588,1786,1831,1847,1651,1703,1811
97435,-16324,-14416,-31756,1012,-3800,3800,-2,2,-3,47,63,3951,-9,-3,921,1440,1588,1786,1831,1847,1651,1703,1811
98436,-16336,-14424,-31756,1012,-3800,3800,-2,0,0,48,68,3962,-7,2,921,1440,1588,1786,1831,1847,1651,1703,1811
99443,-16324,-14404,-31756,1012,-3800,3800,-2,1,3,58,66,3992,-9,8,921,1440,1588,1786,1831,1847,1651,1703,1811
100438,-16328,-14412,-31756,1012,-3800,3800,-4,2,2,62,69,3988,-9,7,921,1442,1592,1788,1832,1848,1650,1703,1811
101439,-16336,-14408,-31756,1012,-3800,3800,-4,3,0,61,57,3938,-6,5,921,1442,1592,1788,1832,1848,1650,1703,1811
102440,-16328,-14404,-31756,1012,-3800,3800,-4,4,-3,58,73,3941,2,-4,921,1442,1592,1788,1832,1848,1650,1703,1811
103441,-16316,-14416,-31756,1012,-3800,3800,-3,6,-1,53,61,3932,6,-5,921,1442,1592,1788,1832,1848,1650,1703,1811
104442,-16328,-14412,-31756,1012,-3800,3800,-2,5,0,50,65,3928,10,-5,920,1442,1592,1788,1832,1848,1650,1703,1811
105443,-16324,-14412,-31756,1012,-3800,3800,-4,4,-1,41,58,3943,8,-5,921,1440,1587,1785,1831,1848,1652,1705,1812
106444,-16328,-14408,-31756,1012,-3800,3800,-3,2,-1,38,54,3932,-5,-7,921,1440,1587,1785,1831,1848,1652,1705,1812
107445,-16332,-14408,-31756,1012,-3800,3800,-1,0,-1,60,66,3924,-7,-7,921,1440,1587,1785,1831,1848,1652,1705,1812
108446,-16320,-14420,-31756,1012,-3800,3800,0,0,0,74,67,3934,-9,-1,921,1440,1587,1785,1831,1848,1652,1705,1812
109447,-16316,-14416,-31756,1012,-3800,3800,-1,-1,0,64,40,3919,-8,1,921,1440,1587,1785,1831,1848,1652,1705,1812
110448,-16324,-14412,-31756,1012,-3800,3800,0,-1,-2,53,49,3944,-8,2,921,1440,1587,1785,1831,1848,1652,1705,1812
111449,-16328,-14412,-31756,1012,-3800,3800,-2,0,-2,51,56,3937,-3,8,920,1441,1588,1785,1831,1847,1651,1702,1811
112450,-16324,-14408,-31756,1012,-3800,3800,-2,2,-1,59,70,3954,1,4,921,1441,1588,1785,1831,1847,1651,1702,1811
113451,-16328,-14412,-31756,1012,-3800,3800,-3,3,0,59,57,3941,8,0,921,1441,1588,1785,1831,1847,1651,1702,1811
114452,-16316,-14412,-31756,1012,-3800,3800,-5,4,-2,74,49,3928,10,-6,921,1441,1588,1785,1831,1847,1651,1702,1811
115453,-16328,-14416,-31756,1012,-3800,3800,-4,3,2,75,52,3930,4,-7,920,1441,1588,1785,1831,1847,1651,1702,1811
116454,-16332,-14420,-31756,1012,-3800,3800,-4,3,1,71,55,3934,9,-7,921,1441,1589,1786,1832,1847,1651,1703,1810
117455,-16324,-14420,-31756,1012,-3800,3800,-3,2,1,69,40,3941,6,2,921,1441,1589,1786,1832,1847,1651,1703,1810
118456,-16328,-14416,-31756,1012,-3800,3800,-4,3,-2,69,51,3920,5,5,921,1441,1589,1786,1832,1847,1651,1703,1810
119457,-16324,-14424,-31756,1012,-3800,3800,-5,2,0,79,50,3911,9,8,921,1441,1589,1786,1832,1847,1651,1703,1810
120458,-16328,-14412,-31756,1012,-3800,3800,-4,-1,-1,70,49,3965,1,3,921,1441,1589,1786,1832,1847,1651,1703,1810
121459,-16324,-14408,-31756,1012,-3800,3800,-3,0,1,44,57,3955,-6,0,921,1440,1588,1785,1832,1848,1652,1704,1813
122460,-16324,-14424,-31756,1012,-3800,3800,-3,2,0,48,46,3919,-8,7,921,1440,1588,1785,1832,1848,1652,1704,1813
123461,-16324,-14400,-31756,1012,-3800,3800,-4,3,0,69,62,3895,-9,-2,921,1440,1588,1785,1832,1848,1652,1704,1813
124462,-16324,-14412,-31756,1012,-3800,3800,-4,3,-2,85,43,3908,-8,-6,922,1440,1588,1785,1832,1848,1652,1704,1813
125463,-16324,-14412,-31756,1012,-3800,3800,-2,3,0,95,32,3919,-8,-7,921,1440,1588,1785,1832,1848,1652,1704,1813
126464,-16328,-14412,-31756,1012,-3800,3800,-3,1,1,62,48,3935,-8,-5,921,1440,1588,1785,1832,1848,1652,1704,1813
127465,-16324,-14412,-31756,1012,-3800,3800,-3,1,2,62,56,3946,-6,-2,921,1441,1588,1786,1832,1847,1650,1702,1811
128466,-16332,-14412,-31756,1012,-3800,3800,-6,1,2,53,60,3948,-8,1,921,1441,1588,1786,1832,1847,1650,1702,1811
129467,-16328,-14416,-31756,1012,-3800,3800,-6,3,0,67,66,3932,-5,8,921,1441,1588,1786,1832,1847,1650,1702,1811
130468,-16316,-14428,-31756,1012,-3800,3800,-4,3,1,64,70,3954,-4,6,921,1441,1588,1786,1832,1847,1650,1702,1811
131469,-16328,-14412,-31756,1012,-3800,3800,-4,3,1,54,53,3977,-9,4,921,1441,1588,1786,1832,1847,1650,1702,1811
132470,-16328,-14408,-31756,1012,-3800,3800,-3,4,0,61,26,3914,-9,-5,921,1441,1590,1787,1832,1848,1651,1703,1810
133471,-16328,-14412,-31756,1012,-3800,3800,-3,2,0,66,27,3911,-9,-6,921,1441,1590,1787,1832,1848,1651,1703,1810
134472,-16336,-14412,-31756,1012,-3800,3800,-3,3,1,59,53,3938,-4,-6,921,1441,1590,1787,1832,1848,1651,1703,1810
135473,-16324,-14416,-31756,1012,-3800,3800,-2,4,0,72,36,3952,-3,-7,921,1441,1590,1787,1832,1848,1651,1703,1810
136474,-16340,-14416,-31756,1012,-3800,3800,-2,4,3,50,32,3939,-5,-7,921,1441,1590,1787,1832,1848,1651,1703,1810
137475,-16328,-14412,-31756,1012,-3800,3800,-5,5,3,77,50,3925,6,-6,921,1441,1590,1787,1832,1848,1651,1703,1810
138476,-16324,-14416,-31756,1012,-3800,3800,-5,7,2,72,78,3933,5,-1,921,1441,1588,1785,1831,1848,1652,1704,1812
139477,-16328,-14420,-31756,1012,-3800,3800,-3,9,-1,71,63,3932,-5,-5,921,1441,1588,1785,1831,1848,1652,1704,1812
140478,-16324,-14412,-31756,1012,-3800,3800,-2,10,-1,54,54,3954,8,-3,921,1441,1588,1785,1831,1848,1652,1704,1812
141479,-16328,-14416,-31756,1012,-3800,3800,-2,7,0,67,40,3929,9,8,921,1441,1588,1785,1831,1848,1652,1704,1812
142480,-16324,-14408,-31756,1012,-3800,3800,-1,4,1,70,59,3920,10,5,921,1441,1588,1785,1831,1848,1652,1704,1812
143481,-16332,-14400,-31756,1012,-3800,3800,-2,3,1,67,53,3934,9,0,921,1442,1588,1785,1832,1847,1651,1703,1811
144482,-16328,-14408,-31756,1012,-3800,3800,-3,2,0,66,43,3933,5,-7,921,1442,1588,1785,1832,1847,1651,1703,1811
145483,-16328,-14412,-31756,1012,-3800,3800,-2,2,0,58,45,3925,-2,-4,921,1442,1588,1785,1832,1847,1651,1703,1811
146484,-16332,-14408,-31756,1012,-3800,3800,0,3,3,61,47,3935,-9,0,921,1442,1588,1785,1832,1847,1651,1703,1811
147486,-16324,-14412,-31756,1012,-3800,3800,-1,5,1,48,50,3936,-8,7,921,1442,1588,1785,1832,1847,1651,1703,1811
148486,-16320,-14420,-31756,1012,-3800,3800,-1,5,-1,81,54,3925,-7,8,921,1442,1588,1785,1832,1847,1651,1703,1811
149487,-16332,-14420,-31756,1012,-3800,3800,-2,4,0,80,70,3927,2,8,921,1442,1589,1787,1832,1847,1651,1703,1811
150488,-16320,-14416,-31756,1012,-3800,3800,-3,5,0,69,64,3903,8,3,921,1442,1589,1787,1832,1847,1651,1703,1811
151489,-16324,-14412,-31756,1012,-3800,3800,-3,6,-1,73,79,3945,11,2,921,1442,1589,1787,1832,1847,1651,1703,1811
152490,-16332,-14420,-31756,1012,-3800,3800,-3,6,-1,89,59,3943,7,4,921,1442,1589,1787,1832,1847,1651,1703,1811
153491,-16320,-14420,-31756,1012,-3800,3800,-3,4,0,64,67,3955,5,-6,921,1442,1589,1787,1832,1847,1651,1703,1811
154492,-16328,-14420,-31756,1012,-3800,3800,-1,6,-1,67,72,3935,5,-7,922,1441,1588,1784,1832,1848,1652,1704,1813
155493,-16332,-14408,-31756,1012,-3800,3800,0,5,-1,66,61,3951,0,-7,920,1441,1588,1784,1832,1848,1652,1704,1813
156494,-16320,-14420,-31756,1012,-3800,3800,0,2,0,61,48,3968,9,-6,921,1441,1588,1784,1832,1848,1652,1704,1813
157495,-16324,-14408,-31756,1012,-3800,3800,-3,1,1,48,66,3962,10,-6,921,1441,1588,1784,1832,1848,1652,1704,1813
158496,-16320,-14412,-31756,1012,-3800,3800,-5,3,-2,74,72,3914,6,-7,921,1441,1588,1784,1832,1848,1652,1704,1813
159497,-16332,-14404,-31756,1012,-3800,3800,-3,4,-3,64,73,3939,8,-3,921,1441,1588,1784,1832,1848,1652,1704,1813
160498,-16332,-14404,-31756,1012,-3800,3800,-1,4,-3,65,59,3936,6,-1,921,1441,1588,1786,1831,1847,1650,1702,1811
161499,-16328,-14424,-31756,1012,-3800,3800,-2,2,-1,54,72,3927,1,1,921,1441,1588,1786,1831,1847,1650,1702,1811
162500,-16332,-14424,-31756,1012,-3800,3800,-2,1,-1,21,65,3936,5,7,921,1441,1588,1786,1831,1847,1650,1702,1811
163501,-16328,-14404,-31756,1012,-3800,3800,-4,1,0,42,45,3943,7,8,922,1441,1588,1786,1831,1847,1650,1702,1811
164502,-16328,-14412,-31756,1012,-3800,3800,-3,0,1,51,69,3956,-1,7,921,1441,1588,1786,1831,1847,1650,1702,1811
165503,-16324,-14416,-31756,1012,-3800,3800,-3,0,0,72,45,3953,-2,-1,921,1441,1589,1787,1833,1847,1651,1704,1812
166504,-16332,-14420,-31756,1012,-3800,3800,-1,3,-2,55,36,3949,-1,-4,921,1441,1589,1787,1833,1847,1651,1704,1812
167505,-16324,-14420,-31756,1012,-3800,3800,-5,3,1,45,68,3932,-6,-7,921,1441,1589,1787,1833,1847,1651,1704,1812
168506,-16328,-14428,-31756,1012,-3800,3800,-6,1,1,30,83,3916,-7,-3,921,1441,1589,1787,1833,1847,1651,1704,1812
169507,-16332,-14400,-31756,1012,-3800,3800,-5,-1,0,29,75,3974,-7,0,921,1441,1589,1787,1833,1847,1651,1704,1812
170508,-16324,-14420,-31756,1012,-3800,3800,-4,1,-2,43,74,3949,-8,1,921,1441,1589,1787,1833,1847,1651,1704,1812
171509,-16312,-14416,-31756,1012,-3800,3800,-6,1,-2,50,64,3941,-9,8,922,1441,1588,1785,1832,1847,1652,1704,1813
172510,-16336,-14412,-31756,1012,-3800,3800,-6,1,-2,39,62,3943,-9,7,921,1441,1588,1785,1832,1847,1652,1704,1813
173511,-16320,-14424,-31756,1012,-3800,3800,-4,2,-4,33,53,3948,-9,3,921,1441,1588,1785,1832,1847,1652,1704,1813
174512,-16324,-14412,-31756,1012,-3800,3800,-1,3,-2,38,63,3925,-9,8,921,1441,1588,1785,1832,1847,1652,1704,1813
175513,-16316,-14420,-31756,1012,-3800,3800,-2,3,-1,38,59,3950,-8,8,922,1441,1588,1785,1832,1847,1652,1704,1813
176514,-16320,-14404,-31756,1012,-3800,3800,-6,0,-1,53,65,3987,-9,8,922,1442,1588,1785,1832,1847,1651,1703,1811
177515,-16324,-14420,-31756,1012,-3800,3800,-8,3,2,63,72,3954,-8,2,922,1442,1588,1785,1832,1847,1651,1703,1811
178516,-16312,-14408,-31756,1012,-3800,3800,-7,4,3,74,40,3932,-7,0,921,1442,1588,1785,1832,1847,1651,1703,1811
179517,-16324,-14408,-31756,1012,-3800,3800,-4,4,1,56,37,3952,-9,-5,922,1442,1588,1785,1832,1847,1651,1703,1811
180518,-16324,-14420,-31756,1012,-3800,3800,-2,3,0,62,53,3921,-8,-6,922,1442,1588,1785,1832,1847,1651,1703,1811
181519,-16332,-14428,-31756,1012,-3800,3800,-3,4,1,41,64,3935,-8,-6,921,1442,1588,1785,1832,1847,1651,1703,1811
182520,-16316,-14412,-31756,1012,-3800,3800,-5,3,2,37,46,3952,-9,-4,922,1442,1589,1787,1832,1849,1651,1703,1811
183521,-16324,-14416,-31756,1012,-3800,3800,-7,6,4,50,67,3951,-9,5,922,1442,1589,1787,1832,1849,1651,1703,1811
184522,-16324,-14420,-31756,1012,-3800,3800,-6,6,5,84,72,3926,-7,8,921,1442,1589,1787,1832,1849,1651,1703,1811
185523,-16328,-14420,-31756,1012,-3800,3800,-5,5,2,63,81,3954,-9,8,921,1442,1589,1787,1832,1849,1651,1703,1811
186524,-16332,-14416,-31756,1012,-3800,3800,-4,5,-1,38,58,3967,-9,1,922,1442,1589,1787,1832,1849,1651,1703,1811
187525,-16320,-14404,-31756,1012,-3800,3800,-3,5,3,51,52,3977,-9,-1,922,1441,1588,1785,1831,1846,1651,1704,1813
188526,-16320,-14412,-31756,1012,-3800,3800,-3,4,3,72,50,3944,-9,-3,922,1441,1588,1785,1831,1846,1651,1704,1813
189527,-16324,-14420,-31756,1012,-3800,3800,-4,4,0,72,72,3922,-8,-6,921,1441,1588,1785,1831,1846,1651,1704,1813
190528,-16320,-14412,-31756,1012,-3800,3800,-1,3,0,67,51,3926,-1,-6,921,1441,1588,1785,1831,1846,1651,1704,1813
191529,-16316,-14424,-31756,1012,-3800,3800,-2,3,1,64,59,3954,-6,-6,921,1441,1588,1785,1831,1846,1651,1704,1813
192530,-16332,-14416,-31756,1012,-3800,3800,-3,6,2,48,84,3951,-4,3,921,1441,1588,1785,1831,1846,1651,1704,1813
193531,-16332,-14404,-31756,1012,-3800,3800,-3,6,0,46,52,3930,-3,8,921,1442,1588,1786,1833,1847,1647,1701,1810
194532,-16332,-14412,-31756,1012,-3800,3800,-3,5,1,65,43,3938,-7,7,921,1442,1588,1786,1833,1847,1647,1701,1810
195533,-16324,-14404,-31756,1012,-3800,3800,0,2,1,58,51,3958,-5,0,921,1442,1588,1786,1833,1847,1647,1701,1810
196534,-16336,-14404,-31756,1012,-3800,3800,-1,3,-2,70,63,3948,-2,-1,921,1442,1588,1786,1833,1847,1647,1701,1810
197535,-16332,-14420,-31756,1012,-3800,3800,-5,4,0,67,60,3937,-1,0,921,1442,1588,1786,1833,1847,1647,1701,1810
198536,-16328,-14416,-31756,1012,-3800,3800,-6,4,1,91,76,3966,0,-6,921,1442,1589,1786,1833,1848,1652,1703,1810
199537,-16328,-14408,-31756,1012,-3800,3800,-2,3,-1,64,70,3977,7,-6,921,1442,1589,1786,1833,1848,1652,1703,1810
200538,-16324,-14408,-31756,1012,-3800,3800,-1,1,-3,50,38,3944,9,-6,921,1442,1589,1786,1833,1848,1652,1703,1810
201539,-16328,-14392,-31756,1012,-3800,3800,1,2,-3,50,45,3966,9,-6,921,1442,1589,1786,1833,1848,1652,1703,1810
202540,-16332,-14412,-31756,1012,-3800,3800,-1,7,-1,30,62,3940,1,-4,921,1442,1589,1786,1833,1848,1652,1703,1810
203541,-16336,-14420,-31756,1012,-3800,3800,-3,6,-2,47,67,3944,6,-2,921,1442,1589,1786,1833,1848,1652,1703,1810
204542,-16332,-14420,-31756,1012,-3800,3800,-4,5,0,45,43,3959,7,7,921,1441,1589,1785,1829,1843,1647,1702,1814
205543,-16324,-14412,-31691,1077,-3800,3800,-5,5,2,62,50,3947,5,8,921,1441,1589,1785,1829,1843,1647,1702,1814
206544,-16332,-14396,-31626,1142,-3800,3800,-4,7,1,87,57,3957,9,6,884,1441,1589,1785,1829,1843,1647,1702,1814
207545,-16336,-14336,-31561,1207,-3800,3800,-6,-4,-14,31,42,3947,4,286,886,1441,1589,1785,1829,1843,1647,1702,1814
208546,-16328,-14224,-31496,1272,-3800,3800,-10,-33,-9,-172,132,4134,21,290,891,1441,1589,1785,1829,1843,1647,1702,1814
209547,-16316,-14060,-31431,1337,-3800,3800,-3,-67,10,-394,228,4315,16,316,893,1442,1588,1786,1831,1847,1651,1704,1812
210548,-16328,-13836,-31366,1402,-3800,3800,-2,-156,21,-350,190,4280,16,311,895,1442,1588,1786,1831,1847,1651,1704,1812
211549,-16332,-13580,-31301,1467,-3800,3800,-5,-225,-3,-446,181,4616,19,333,894,1442,1588,1786,1831,1847,1651,1704,1812
212550,-16328,-13304,-31236,1532,-3800,3800,-10,-266,-13,-435,62,4646,17,330,899,1442,1588,1786,1831,1847,1651,1704,1812
213551,-16324,-12980,-31171,1597,-3800,3800,-19,-272,-33,-45,-1,4345,18,305,899,1442,1588,1786,1831,1847,1651,1704,1812
214552,-16320,-12612,-31106,1662,-3800,3800,-6,-271,-50,-108,86,4313,7,307,902,1442,1588,1786,1831,1847,1651,1704,1812
215553,-16328,-12216,-31041,1727,-3800,3800,-22,-307,-78,-55,-19,4398,7,332,902,1447,1598,1797,1840,1865,1666,1725,1851
216554,-16324,-11844,-30976,1792,-3800,3800,-12,-282,-112,-709,-409,4677,5,316,902,1447,1598,1797,1840,1865,1666,1725,1851
217555,-16324,-11408,-30911,1857,-3800,3800,36,-381,-134,556,-323,3547,7,349,904,1447,1598,1797,1840,1865,1666,1725,1851
218556,-16320,-10952,-30846,1922,-3800,3800,30,-443,-153,-394,-461,5469,24,351,906,1447,1598,1797,1840,1865,1666,1725,1851
219557,-16324,-10492,-30781,1987,-3800,3800,104,-523,-160,-736,-523,3664,12,365,905,1447,1598,1797,1840,1865,1666,1725,1851
220558,-16312,-9972,-30716,2052,-3800,3800,102,-701,-231,-107,-634,4621,13,346,907,1469,1628,1825,1860,1903,1695,1760,1884
221559,-16324,-9412,-30651,2117,-3800,3800,147,-724,-214,-1678,-299,5798,24,347,908,1469,1628,1825,1860,1903,1695,1760,1884
222560,-16328,-8904,-30586,2182,-3800,3800,182,-789,-166,456,-110,4159,5,320,908,1469,1628,1825,1860,1903,1695,1760,1884
223561,-16316,-8368,-30521,2247,-3800,3800,208,-917,-187,-615,-630,4668,22,342,909,1469,1628,1825,1860,1903,1695,1760,1884
224562,-16332,-7864,-30456,2312,-3800,3800,246,-1069,-173,-805,-419,4959,5,342,907,1469,1628,1825,1860,1903,1695,1760,1884
225563,-16320,-7348,-30391,2377,-3800,3800,297,-1152,-147,-1458,-543,5254,21,334,909,1469,1628,1825,1860,1903,1695,1760,1884
226564,-16328,-6796,-30326,2442,-3800,3800,284,-1264,-155,-143,-294,4123,6,356,908,1503,1674,1857,1899,1883,1679,1768,1894
227565,-16308,-6212,-30261,2507,-3800,3800,315,-1312,-118,-1676,-410,6456,21,323,908,1503,1674,1857,1899,1883,1679,1768,1894
228566,-16316,-5704,-30196,2572,-3800,3800,364,-1532,-39,-337,181,4335,13,329,908,1503,1674,1857,1899,1883,1679,1768,1894
229567,-16312,-5156,-30131,2637,-3800,3204,414,-1692,-81,-1236,-543,5700,17,334,909,1503,1674,1857,1899,1883,1679,1768,1894
230568,-16320,-4664,-30066,2702,-3800,3386,501,-1974,-26,-1170,98,5853,14,345,910,1503,1674,1857,1899,1883,1679,1768,1894
231569,-16316,-4180,-30001,2767,-3800,2978,609,-2159,-13,-678,-449,5362,23,219,909,1547,1723,1889,1934,1884,1669,1788,1922
232570,-16316,-3628,-29936,2832,-3800,1536,696,-2186,-59,260,-139,5348,5,173,911,1547,1723,1889,1934,1884,1669,1788,1922
233571,-16312,-3204,-29871,2897,-3800,2700,852,-2153,18,-683,-586,7077,18,217,917,1547,1723,1889,1934,1884,1669,1788,1922
234572,-16308,-2780,-29806,2962,-3800,2265,947,-2292,11,-699,-35,4347,25,228,911,1547,1723,1889,1934,1884,1669,1788,1922
235573,-16304,-2352,-29741,3027,-3800,1774,987,-2368,-103,-2294,-779,7109,23,202,912,1547,1723,1889,1934,1884,1669,1788,1922
236574,-16312,-1984,-29676,3092,-3800,2156,1203,-2352,-22,-183,197,6116,16,206,910,1547,1723,1889,1934,1884,1669,1788,1922
237575,-16312,-1620,-29611,3157,-3800,1843,1294,-2603,-35,645,11,4049,24,185,913,1623,1826,1967,2016,1891,1657,1807,1939
238576,-16312,-1228,-29546,3222,-3800,1096,1373,-3020,-106,-3567,149,6159,18,176,913,1623,1826,1967,2016,1891,1657,1807,1939
239577,-16292,-908,-29481,3287,-3800,1685,1496,-3367,-63,-2273,896,5360,10,181,917,1623,1826,1967,2016,1891,1657,1807,1939
240578,-16304,-628,-29416,3352,-3800,1925,1583,-3504,-38,-203,731,5626,22,160,908,1623,1826,1967,2016,1891,1657,1807,1939
241579,-16304,-396,-29351,3417,-3800,2322,1634,-3655,-81,-513,174,4950,4,148,912,1623,1826,1967,2016,1891,1657,1807,1939
242580,-16304,-156,-29286,3482,-3800,2010,1668,-3824,-79,-944,812,6188,2,134,909,1768,1991,2109,2171,1854,1621,1803,1940
243581,-16304,112,-29221,3547,-3800,1414,1671,-3950,-40,-1784,1027,5922,5,106,910,1768,1991,2109,2171,1854,1621,1803,1940
244582,-16292,320,-29156,3612,-3800,1990,1764,-3866,45,-435,1062,5884,9,107,911,1768,1991,2109,2171,1854,1621,1803,1940
245583,-16288,504,-29091,3677,-3800,2147,1808,-3722,71,1792,974,4556,15,105,911,1768,1991,2109,2171,1854,1621,1803,1940
246584,-16284,672,-29026,3742,-3800,2222,1817,-3591,93,140,587,4949,2,78,908,1768,1991,2109,2171,1854,1621,1803,1940
247585,-16280,800,-28961,3807,-3800,2646,1800,-3522,137,-1510,780,4311,9,87,908,1768,1991,2109,2171,1854,1621,1803,1940
248586,-16284,940,-28896,3872,-3800,2406,1759,-3468,217,-1404,826,4083,7,69,902,1922,2164,2255,2281,1871,1631,1804,1958
249587,-16276,1080,-28831,3937,-3800,2315,1741,-3392,304,-319,577,4311,19,69,906,1922,2164,2255,2281,1871,1631,1804,1958
250588,-16272,1244,-28766,4002,-3800,1895,1712,-3335,395,-1009,793,4154,10,66,907,1922,2164,2255,2281,1871,1631,1804,1958
251589,-16268,1412,-28701,4067,-3800,1720,1738,-3275,508,-1834,859,3885,13,72,910,1922,2164,2255,2281,1871,1631,1804,1958
252590,-16264,1556,-28636,4132,-3800,1926,1795,-3176,607,-1995,1046,4078,9,63,910,1922,2164,2255,2281,1871,1631,1804,1958
253591,-16252,1676,-28571,4197,-3800,2159,1822,-3189,613,-1915,463,3379,3,67,909,1851,2037,2188,2202,1935,1702,1783,1924
254592,-16268,1812,-28506,4262,-3800,1873,1827,-3203,622,-2451,484,4567,-1,55,907,1851,2037,2188,2202,1935,1702,1783,1924
255593,-16256,1920,-28441,4327,-3800,2172,1851,-3162,683,-2180,634,3772,19,53,910,1851,2037,2188,2202,1935,1702,1783,1924
256594,-16256,2040,-28376,4392,-3800,1956,1883,-3093,741,-1182,709,3592,16,56,906,1851,2037,2188,2202,1935,1702,1783,1924
257595,-16240,2144,-28311,4457,-3800,2109,1910,-2982,787,-1112,1100,3872,0,60,909,1851,2037,2188,2202,1935,1702,1783,1924
258596,-16244,2232,-28246,4522,-3800,2282,1938,-2897,842,-1121,1329,3497,4,49,908,1851,2037,2188,2202,1935,1702,1783,1924
259597,-16240,2336,-28181,4587,-3800,2035,1983,-2799,864,-520,1368,3359,3,62,907,1638,1754,2001,2051,2015,1797,1807,1918
260598,-16236,2440,-28116,4652,-3800,1989,2046,-2736,927,-407,1690,3633,8,45,908,1638,1754,2001,2051,2015,1797,1807,1918
261599,-16244,2552,-28051,4717,-3800,1832,2040,-2561,963,137,1924,3496,2,44,908,1638,1754,2001,2051,2015,1797,1807,1918
262600,-16240,2664,-27986,4782,-3800,1775,2080,-2344,1039,623,1863,3450,11,54,910,1638,1754,2001,2051,2015,1797,1807,1918
263601,-16240,2748,-27921,4847,-3800,2103,2133,-2246,1151,1060,2103,3021,-2,47,910,1638,1754,2001,2051,2015,1797,1807,1918
264602,-16236,2816,-27856,4912,-3800,2300,2165,-2125,1212,382,1699,3247,6,32,906,1555,1638,1918,2032,2086,1895,1880,1956
265603,-16232,2952,-27791,4977,-3800,1364,2257,-2021,1281,-291,1345,3840,-2,42,905,1555,1638,1918,2032,2086,1895,1880,1956
266604,-16248,3060,-27726,5042,-3800,1663,2403,-2358,1413,2586,2111,1564,16,35,913,1555,1638,1918,2032,2086,1895,1880,1956
267605,-16240,3156,-27661,5107,-3800,1775,2313,-2441,1611,3074,2166,1603,-3,34,911,1555,1638,1918,2032,2086,1895,1880,1956
268606,-16236,3244,-27596,5172,-3800,1848,1916,-2168,1430,-1920,1444,4470,10,42,910,1555,1638,1918,2032,2086,1895,1880,1956
269607,-16244,3320,-27531,5237,-3800,1986,1432,-1798,1121,-2330,1495,3096,14,42,910,1555,1638,1918,2032,2086,1895,1880,1956
270608,-16240,3416,-27466,5302,-3800,1699,1069,-1332,1121,2096,965,2771,15,61,909,1611,1705,1991,2140,2079,1895,1911,2021
271609,-16244,3504,-27401,5367,-3800,1771,918,-1155,1273,3150,793,1773,7,66,912,1611,1705,1991,2140,2079,1895,1911,2021
272610,-16248,3592,-27336,5432,-3800,1744,907,-1316,1462,-359,276,2128,-2,71,911,1611,1705,1991,2140,2079,1895,1911,2021
273611,-16240,3692,-27271,5497,-3800,1552,1139,-1443,1666,-2234,-519,3401,-2,57,911,1611,1705,1991,2140,2079,1895,1911,2021
274612,-16240,3832,-27206,5562,-3800,960,1417,-1564,1853,-1636,-1324,2337,-2,71,912,1611,1705,1991,2140,2079,1895,1911,2021
275613,-16232,3952,-27141,5627,-3800,1144,1602,-1368,2074,-1304,-1240,4379,13,73,917,1591,1718,1997,2032,2272,2022,1984,2157
276614,-16236,4076,-27076,5692,-3800,1023,1633,-1172,2330,-749,-628,2409,15,63,915,1591,1718,1997,2032,2272,2022,1984,2157
277615,-16224,4188,-27011,5757,-3800,1116,1494,-1047,2512,-714,-468,1935,-1,48,916,1591,1718,1997,2032,2272,2022,1984,2157
278616,-16236,4280,-26946,5822,-3800,1334,1334,-935,2651,-1732,-367,2462,-4,47,916,1591,1718,1997,2032,2272,2022,1984,2157
279617,-16244,4360,-26881,5887,-3800,1466,1192,-884,2717,-1723,257,1678,1,57,914,1591,1718,1997,2032,2272,2022,1984,2157
280618,-16248,4452,-26816,5952,-3800,1284,1108,-934,2716,-1352,684,2123,-3,60,913,1591,1718,1997,2032,2272,2022,1984,2157
281619,-16244,4544,-26751,6017,-3800,1252,1046,-987,2717,-756,1156,2398,15,50,907,1546,1727,1987,2007,2228,1935,1952,2120
282620,-16240,4636,-26686,6082,-3800,1219,1000,-958,2702,-534,1525,3088,2,50,914,1546,1727,1987,2007,2228,1935,1952,2120
283621,-16248,4708,-26621,6147,-3800,1461,912,-886,2660,-125,1880,3121,10,57,915,1546,1727,1987,2007,2228,1935,1952,2120
284622,-16244,4804,-26556,6212,-3800,1123,816,-743,2602,413,2049,3490,6,49,913,1546,1727,1987,2007,2228,1935,1952,2120
285623,-16236,4888,-26491,6277,-3800,1251,710,-494,2568,1335,2031,3641,-4,47,911,1546,1727,1987,2007,2228,1935,1952,2120
286624,-16236,4980,-26426,6342,-3800,1118,583,-228,2541,1928,2118,3550,-4,53,914,1558,1719,1935,1982,2166,1879,1931,2088
287625,-16236,5088,-26361,6407,-3800,867,464,-28,2524,1857,1703,2957,-3,56,915,1558,1719,1935,1982,2166,1879,1931,2088
288626,-16236,5188,-26296,6472,-3800,924,358,122,2514,1217,1424,2799,3,47,917,1558,1719,1935,1982,2166,1879,1931,2088
289627,-16240,5256,-26231,6537,-3800,1321,294,212,2551,672,1347,2550,12,51,914,1558,1719,1935,1982,2166,1879,1931,2088
290628,-16236,5336,-26166,6602,-3800,1153,233,155,2568,534,834,1947,13,45,914,1558,1719,1935,1982,2166,1879,1931,2088
291629,-16240,5416,-26101,6667,-3800,1136,207,0,2600,-154,446,2068,6,42,914,1558,1719,1935,1982,2166,1879,1931,2088
292630,-16236,5484,-26036,6732,-3800,1282,171,-148,2694,-661,377,2397,0,51,915,1607,1739,1994,2061,2218,1978,1967,2304
293631,-16248,5572,-25971,6797,-3800,1005,142,-265,2833,-435,415,2287,-3,40,912,1607,1739,1994,2061,2218,1978,1967,2304
294632,-16244,5640,-25906,6862,-3800,1251,110,-334,2979,-8,239,2410,4,43,916,1607,1739,1994,2061,2218,1978,1967,2304
295633,-16228,5724,-25841,6927,-3800,1029,101,-422,3120,-251,123,2269,12,31,914,1607,1739,1994,2061,2218,1978,1967,2304
296634,-16232,5788,-25776,6992,-3800,1280,98,-509,3253,-393,30,2333,11,45,915,1607,1739,1994,2061,2218,1978,1967,2304
297635,-16240,5852,-25711,7057,-3800,1282,86,-577,3402,-402,107,2472,9,46,913,1575,1708,2013,2068,2218,1986,1941,2087
298636,-16232,5928,-25646,7122,-3800,1119,38,-630,3534,2,131,2518,6,47,914,1575,1708,2013,2068,2218,1986,1941,2087
299637,-16244,6008,-25581,7187,-3800,1052,-22,-618,3638,329,309,2813,-5,52,916,1575,1708,2013,2068,2218,1986,1941,2087
300638,-16236,6084,-25516,7252,-3800,1088,-90,-557,3705,365,521,2771,-5,51,916,1575,1708,2013,2068,2218,1986,1941,2087
301639,-16240,6144,-25451,7317,-3800,1294,-166,-471,3736,418,822,2893,2,44,915,1575,1708,2013,2068,2218,1986,1941,2087
302640,-16236,6216,-25386,7382,-3800,1137,-272,-369,3729,637,1129,2936,12,45,914,1575,1708,2013,2068,2218,1986,1941,2087
303641,-16240,6272,-25321,7447,-3800,1348,-395,-262,3715,775,1483,2935,-2,37,915,1606,1747,2031,2078,2130,1879,1899,2050
304642,-16232,6348,-25256,7512,-3800,1085,-528,-132,3714,974,1809,2976,4,52,913,1606,1747,2031,2078,2130,1879,1899,2050
305643,-16240,6412,-25191,7577,-3800,1237,-674,-7,3712,1052,1918,2806,-3,49,915,1606,1747,2031,2078,2130,1879,1899,2050
306644,-16236,6500,-25126,7642,-3800,910,-825,79,3713,613,1940,2726,7,43,914,1606,1747,2031,2078,2130,1879,1899,2050
307645,-16236,6592,-25061,7707,-3800,827,-930,136,3735,127,1969,2536,-3,49,917,1606,1747,2031,2078,2130,1879,1899,2050
308646,-16232,6656,-24996,7772,-3800,1178,-1021,202,3772,165,1958,2555,13,34,916,1635,1787,2014,2066,2147,1893,1932,2092
309647,-16244,6736,-24931,7837,-3800,960,-1091,238,3810,336,1536,2504,-3,37,914,1635,1787,2014,2066,2147,1893,1932,2092
310648,-16240,6788,-24866,7902,-3800,1326,-1159,207,3833,-98,1286,2461,9,39,916,1635,1787,2014,2066,2147,1893,1932,2092
311649,-16236,6852,-24801,7967,-3800,1179,-1210,187,3876,-698,988,2466,13,27,913,1635,1787,2014,2066,2147,1893,1932,2092
312650,-16244,6916,-24736,8032,-3800,1180,-1224,203,3935,-439,844,2480,12,11,915,1635,1787,2014,2066,2147,1893,1932,2092
313651,-16228,6968,-24671,8097,-3800,1347,-1221,235,4005,-26,523,2842,-5,39,915,1635,1787,2014,2066,2147,1893,1932,2092
314652,-16236,7024,-24606,8162,-3800,1308,-1186,255,4071,-44,324,2660,-2,34,913,1596,1750,2012,2045,2259,1987,1975,2162
315653,-16252,7092,-24541,8227,-3800,1154,-1149,220,4137,-301,407,2638,6,40,914,1596,1750,2012,2045,2259,1987,1975,2162
316654,-16244,7156,-24476,8292,-3800,1206,-1115,253,4196,-243,335,2947,-2,35,915,1596,1750,2012,2045,2259,1987,1975,2162
317655,-16228,7224,-24411,8357,-3800,1153,-1100,312,4262,352,246,2853,14,43,915,1596,1750,2012,2045,2259,1987,1975,2162
318656,-16232,7292,-24346,8422,-3800,1150,-1106,329,4331,561,457,2712,1,36,915,1596,1750,2012,2045,2259,1987,1975,2162
319657,-16236,7368,-24281,8487,-3800,1036,-1135,372,4386,356,637,2820,-3,50,915,1560,1720,2004,2028,2228,1948,1930,2092
320658,-16240,7428,-24216,8552,-3800,1244,-1181,448,4435,327,893,2950,3,44,916,1560,1720,2004,2028,2228,1948,1930,2092
321659,-16236,7508,-24151,8617,-3800,975,-1249,495,4457,802,1082,2876,10,49,914,1560,1720,2004,2028,2228,1948,1930,2092
322660,-16232,7576,-24086,8682,-3800,1122,-1327,518,4479,831,1129,3029,-1,45,911,1560,1720,2004,2028,2228,1948,1930,2092
323661,-16244,7668,-24021,8747,-3800,790,-1438,494,4484,724,1362,2912,-2,41,915,1560,1720,2004,2028,2228,1948,1930,2092
324667,-16240,7744,-23956,8812,-3800,976,-1538,533,4480,791,1529,3168,2,39,918,1560,1720,2004,2028,2228,1948,1930,2092
325663,-16240,7824,-23891,8877,-3800,909,-1614,529,4470,1048,1443,2775,7,36,916,1619,1771,2023,2094,2086,1839,1871,2010
326664,-16252,7912,-23826,8942,-3800,781,-1696,444,4423,866,1475,2863,3,51,911,1619,1771,2023,2094,2086,1839,1871,2010
327665,-16232,7972,-23761,9007,-3800,1137,-1767,416,4391,563,1445,3307,10,33,917,1619,1771,2023,2094,2086,1839,1871,2010
328666,-16240,8060,-23696,9072,-3800,760,-1827,382,4384,1006,1330,2847,-2,31,915,1619,1771,2023,2094,2086,1839,1871,2010
329667,-16240,8112,-23631,9137,-3800,1226,-1853,337,4377,1193,1160,2929,13,36,918,1619,1771,2023,2094,2086,1839,1871,2010
330668,-16240,8188,-23566,9202,-3800,913,-1880,316,4385,563,1061,3010,1,40,911,1704,1861,2106,2169,2097,1863,1915,2070
331669,-16244,8268,-23501,9267,-3800,845,-1908,301,4400,352,922,2835,-5,41,917,1704,1861,2106,2169,2097,1863,1915,2070
332670,-16236,8336,-23436,9332,-3800,991,-1909,239,4432,744,738,2706,11,36,918,1704,1861,2106,2169,2097,1863,1915,2070
333671,-16240,8412,-23371,9397,-3800,879,-1849,126,4451,984,542,2859,6,39,917,1704,1861,2106,2169,2097,1863,1915,2070
334672,-16248,8492,-23306,9462,-3800,811,-1725,76,4456,1085,79,3526,7,44,915,1704,1861,2106,2169,2097,1863,1915,2070
335673,-16244,8564,-23241,9527,-3800,903,-1576,161,4422,1513,313,3781,12,54,917,1752,1941,2185,2223,2097,1863,1915,2070
336674,-16248,8644,-23176,9592,-3800,785,-1471,209,4394,1523,374,3911,-3,46,917,1752,1941,2185,2223,2155,1903,1953,2117
337675,-16252,8736,-23111,9657,-3800,602,-1365,199,4388,1585,349,3732,-1,50,918,1752,1941,2185,2223,2155,1903,1953,2117
338676,-16252,8824,-23046,9722,-3800,625,-1285,124,4372,1709,591,4033,12,48,917,1752,1941,2185,2223,2155,1903,1953,2117
339677,-16248,8920,-22981,9787,-3800,487,-1207,70,4345,1523,467,4247,3,53,919,1752,1941,2185,2223,2155,1903,1953,2117
340678,-16256,9016,-22916,9852,-3800,449,-1120,74,4305,1604,692,3783,14,45,919,1752,1941,2185,2223,2155,1903,1953,2117
341679,-16252,9116,-22851,9917,-3800,357,-1070,99,4266,2084,809,4173,11,46,919,1801,2014,2231,2293,2049,1812,1894,1998
342680,-16260,9220,-22786,9982,-3800,260,-1047,79,4235,2071,567,4367,4,57,918,1801,2014,2231,2293,2049,1812,1894,1998
343681,-16252,9304,-22721,10047,-3800,486,-1009,109,4124,2086,998,4994,-5,52,920,1801,2014,2231,2293,2049,1812,1894,1998
344682,-16256,9400,-22656,10112,-3800,299,-979,142,4013,2080,770,4794,3,53,919,1801,2014,2231,2293,2049,1812,1894,1998
345683,-16248,9476,-22591,10177,-3800,536,-935,166,3906,2702,679,4751,11,52,920,1801,2014,2231,2293,2049,1812,1894,1998
346684,-16260,9584,-22526,10242,-3800,84,-901,150,3820,2918,276,4591,2,54,918,1878,2081,2265,2368,1939,1743,1839,1912
347685,-16264,9732,-22461,10307,-3800,-518,-879,106,3748,2185,460,4811,-1,43,921,1878,2081,2265,2368,1939,1743,1839,1912
348686,-16268,9984,-22396,10372,-3800,-2046,-848,177,3674,1791,591,5019,6,40,919,1878,2081,2265,2368,1939,1743,1839,1912
349687,-16268,10152,-22331,10437,-3800,-1121,-739,388,3642,3101,-419,5127,11,43,905,1878,2081,2265,2368,1939,1743,1839,1912
350688,-16264,10228,-22266,10502,-3800,16,-547,355,3607,4412,-1404,3866,-16,36,914,1878,2081,2265,2368,1939,1743,1839,1912
351689,-16256,10264,-22201,10567,-3800,551,-401,88,3500,2830,-2524,5300,-1,14,921,1878,2081,2265,2368,1939,1743,1839,1912
352690,-16260,10316,-22136,10632,-3800,367,-292,46,3373,2015,-2337,6088,8,13,919,1881,2057,2259,2379,1945,1773,1837,1911
353691,-16260,10352,-22071,10697,-3800,603,-257,260,3229,3649,-1472,6033,-7,27,919,1881,2057,2259,2379,1945,1773,1837,1911
354692,-16264,10392,-22006,10762,-3800,583,-111,434,3082,4836,-2185,5551,-1,23,918,1881,2057,2259,2379,1945,1773,1837,1911
355693,-16272,10428,-21941,10827,-3800,669,98,614,2955,4046,-1656,5162,-1,28,919,1881,2057,2259,2379,1945,1773,1837,1911
356694,-16272,10476,-21876,10892,-3800,539,250,685,2923,2670,-1604,4258,-6,30,918,1881,2057,2259,2379,1945,1773,1837,1911
357695,-16264,10520,-21811,10957,-3800,616,375,609,2896,2854,-1509,3986,4,31,919,1795,1941,2169,2297,1949,1791,1829,1867
358696,-16260,10564,-21746,11022,-3800,642,478,585,2788,2569,-1616,5102,-1,33,919,1795,1941,2169,2297,1949,1791,1829,1867
359697,-16260,10648,-21681,11087,-3800,118,572,569,2670,3117,-1456,3993,9,33,918,1795,1941,2169,2297,1949,1791,1829,1867
360698,-16268,10736,-21616,11152,-3800,40,580,555,2673,2959,-1095,3896,-5,50,921,1795,1941,2169,2297,1949,1791,1829,1867
361699,-16268,10804,-21551,11217,-3800,287,592,662,2796,2500,-2262,5153,9,40,921,1795,1941,2169,2297,1949,1791,1829,1867
362700,-16260,10892,-21486,11282,-3800,9,773,758,2691,4594,-1636,5558,10,47,920,1795,1941,2169,2297,1949,1791,1829,1867
363701,-16252,10992,-21421,11347,-3800,-183,942,819,2506,5015,-1842,5162,-2,35,898,1751,1845,2115,2322,1843,1710,1751,1800
364702,-16264,11064,-21356,11412,-3800,158,1077,944,2287,5408,-1821,5145,-5,50,921,1751,1845,2115,2322,1843,1710,1751,1800
365703,-16264,11128,-21291,11477,-3800,260,1148,1101,2095,6003,-1846,5474,-4,51,921,1751,1845,2115,2322,1843,1710,1751,1800
366704,-16260,11180,-21226,11542,-3800,425,1152,1173,1891,6341,-1619,4032,0,50,920,1751,1845,2115,2322,1843,1710,1751,1800
367705,-16264,11260,-21161,11607,-3800,57,1139,1074,1621,5862,-1870,2743,11,47,913,1751,1845,2115,2322,1843,1710,1751,1800
368706,-16252,11336,-21096,11672,-3800,94,1140,1011,1354,5126,-2149,3822,3,43,921,1772,1797,2124,2370,1919,1765,1767,1826
369707,-16264,11404,-21031,11737,-3800,190,1222,1031,1121,5164,-2882,4134,8,49,921,1772,1797,2124,2370,1919,1765,1767,1826
370708,-16252,11480,-20966,11802,-3800,77,1331,1107,932,5498,-2906,3914,12,39,920,1772,1797,2124,2370,1919,1765,1767,1826
371709,-16248,11572,-20901,11867,-3800,-155,1351,1120,728,5632,-2531,3421,-2,50,917,1772,1797,2124,2370,1919,1765,1767,1826
372712,-16236,11648,-20836,11932,-3800,31,1313,1140,539,5214,-2956,3627,-2,40,921,1772,1797,2124,2370,1919,1765,1767,1826
373711,-16248,11732,-20771,11997,-3800,-92,1297,1029,341,4717,-3103,2893,-6,51,921,1772,1797,2124,2370,1919,1765,1767,1826
374712,-16252,11820,-20706,12062,-3800,-170,1298,869,155,3637,-3269,2672,-5,44,921,1932,1876,2342,2656,1958,1896,1836,1870
375713,-16248,11916,-20641,12127,-3800,-308,1293,700,11,3748,-2816,1655,-6,40,916,1932,1876,2342,2656,1958,1896,1836,1870
376714,-16244,11984,-20576,12192,-3800,38,1264,480,-94,3217,-2559,1431,-6,40,919,1932,1876,2342,2656,1958,1896,1836,1870
377715,-16244,12048,-20511,12257,-3800,90,1163,298,-175,2736,-2184,1223,11,31,921,1932,1876,2342,2656,1958,1896,1836,1870
378716,-16240,12108,-20446,12322,-3800,146,1005,93,-233,2682,-2205,1600,-6,47,921,1932,1876,2342,2656,1958,1896,1836,1870
379717,-16248,12172,-20381,12387,-3800,97,853,-89,-280,2599,-1768,1502,-3,36,919,2058,1983,2506,2901,1975,1934,1862,1874
380718,-16240,12228,-20316,12452,-3800,208,745,-78,-317,2439,-1902,2726,-5,43,921,2058,1983,2506,2901,1975,1934,1862,1874
381719,-16248,12304,-20251,12517,-3800,-55,660,14,-353,2987,-1826,2771,-2,35,921,2058,1983,2506,2901,1975,1934,1862,1874
382720,-16228,12368,-20186,12582,-3800,97,633,119,-364,3178,-1872,3257,-6,49,921,2058,1983,2506,2901,1975,1934,1862,1874
383721,-16248,12428,-20121,12647,-3800,153,635,247,-392,2719,-1711,3320,-2,35,920,2058,1983,2506,2901,1975,1934,1862,1874
384722,-16244,12476,-20056,12712,-3800,324,652,436,-445,2088,-1696,4322,-5,32,921,2058,1983,2506,2901,1975,1934,1862,1874
385723,-16252,12552,-19991,12777,-3800,-40,642,701,-514,2269,-1518,4846,-6,46,920,1919,1892,2269,2499,1990,1881,1841,1874
386724,-16240,12636,-19926,12842,-3800,-163,654,984,-570,2502,-1417,5025,0,47,921,1919,1892,2269,2499,1990,1881,1841,1874
387725,-16236,12736,-19861,12907,-3800,-406,660,1245,-626,2121,-913,5326,5,46,920,1919,1892,2269,2499,1990,1881,1841,1874
388726,-16228,12784,-19796,12972,-3800,265,696,1454,-689,1050,-1076,5527,-1,34,919,1919,1892,2269,2499,1990,1881,1841,1874
389727,-16240,12860,-19731,13037,-3800,-98,728,1493,-771,228,-796,5146,-4,31,920,1919,1892,2269,2499,1990,1881,1841,1874
390728,-16232,12932,-19666,13102,-3800,-57,763,1500,-838,-708,-777,5866,-1,45,921,1663,1705,1986,2136,1994,1842,1831,1877
391729,-16224,12988,-19601,13167,-3800,154,814,1559,-862,-262,-505,5701,-4,34,921,1663,1705,1986,2136,1994,1842,1831,1877
392730,-16236,13076,-19536,13232,-3800,-274,875,1625,-887,91,-669,5753,-2,36,921,1663,1705,1986,2136,1994,1842,1831,1877
393731,-16232,13120,-19471,13297,-3800,302,932,1627,-922,-284,-446,5241,14,43,919,1663,1705,1986,2136,1994,1842,1831,1877
394732,-16232,13188,-19406,13362,-3800,-2,975,1658,-948,-1081,-325,5701,-3,28,920,1663,1705,1986,2136,1994,1842,1831,1877
395733,-16224,13268,-19341,13427,-3800,-170,996,1684,-952,-1199,168,4761,-6,42,921,1663,1705,1986,2136,1994,1842,1831,1877
396734,-16232,13324,-19276,13492,-3800,141,984,1829,-925,-832,419,5053,-3,31,921,1566,1686,1932,2073,2005,1818,1860,1940
397735,-16232,13388,-19211,13557,-3800,43,943,2070,-869,-772,119,4965,11,35,921,1566,1686,1932,2073,2005,1818,1860,1940
398736,-16236,13436,-19146,13622,-3756,264,881,2212,-768,-922,66,4738,-5,39,921,1566,1686,1932,2073,2005,1818,1860,1940
399737,-16224,13496,-19081,13687,-3800,120,813,2316,-645,-1242,81,4843,-6,47,920,1566,1686,1932,2073,2005,1818,1860,1940
400738,-16236,13548,-19016,13752,-3499,236,724,2432,-534,-845,89,4174,-2,33,921,1566,1686,1932,2073,2005,1818,1860,1940
401739,-16212,13632,-18951,13817,-3800,-188,670,2559,-422,-293,-310,4260,-5,33,921,1695,1875,2091,2178,1999,1788,1866,2006
402740,-16216,13700,-18886,13882,-3467,9,630,2598,-304,-512,-340,4151,-2,32,920,1695,1875,2091,2178,1999,1788,1866,2006
403741,-16220,13764,-18821,13947,-3384,60,613,2591,-231,-1397,-407,3747,4,42,921,1695,1875,2091,2178,1999,1788,1866,2006
404742,-16224,13832,-18756,14012,-3300,6,604,2562,-175,-1554,-714,3637,13,33,921,1695,1875,2091,2178,1999,1788,1866,2006
405743,-16220,13900,-18691,14077,-3327,3,557,2462,-160,-1091,-389,3630,3,34,921,1695,1875,2091,2178,1999,1788,1866,2006
406744,-16220,13964,-18626,14142,-3199,54,505,2284,-128,-1053,-436,3597,-3,46,921,1695,1875,2091,2178,1999,1788,1866,2006
407745,-16224,14032,-18561,14207,-3065,0,462,2043,-142,-1106,-34,3675,-2,45,921,1761,1938,2146,2149,2000,1759,1821,1995
408746,-16224,14096,-18496,14272,-3037,51,426,1756,-199,-1569,151,4050,6,45,913,1761,1938,2146,2149,2000,1759,1821,1995
409747,-16220,14180,-18431,14337,-3013,-222,386,1489,-238,-1286,260,4193,11,44,921,1761,1938,2146,2149,2000,1759,1821,1995
410748,-16216,14260,-18366,14402,-2939,-190,365,1191,-277,-1086,229,3742,-5,44,919,1761,1938,2146,2149,2000,1759,1821,1995
411749,-16208,14320,-18301,14467,-2920,66,366,970,-317,-1207,244,4505,13,33,921,1761,1938,2146,2149,2000,1759,1821,1995
412750,-16208,14396,-18236,14532,-2742,-146,353,794,-350,-692,257,4192,-6,43,914,1680,1833,2023,2010,1974,1718,1808,2004
413751,-16216,14484,-18171,14597,-2554,-325,343,616,-359,-652,612,4488,-1,28,921,1680,1833,2023,2010,1974,1718,1808,2004
414752,-16216,14524,-18106,14662,-2576,306,309,481,-334,-692,889,4637,13,37,920,1680,1833,2023,2010,1974,1718,1808,2004
415753,-16208,14600,-18041,14727,-2606,-157,291,393,-303,-317,957,4487,-2,35,920,1680,1833,2023,2010,1974,1718,1808,2004
416754,-16212,14660,-17976,14792,-2373,49,274,320,-270,-295,982,4464,-5,42,918,1680,1833,2023,2010,1974,1718,1808,2004
417755,-16212,14712,-17911,14857,-2344,165,253,263,-203,-445,1021,4142,-2,31,921,1680,1833,2023,2010,1974,1718,1808,2004
418756,-16204,14772,-17846,14922,-2375,71,251,194,-113,-852,756,3719,-3,40,921,1627,1806,1960,1967,2008,1756,1880,2066
419757,-16216,14848,-17781,14987,-2032,-143,283,76,-5,-1074,650,3430,-6,34,921,1627,1806,1960,1967,2008,1756,1880,2066
420758,-16200,14892,-17716,15052,-2323,283,316,-118,91,-1265,548,2733,-5,29,918,1627,1806,1960,1967,2008,1756,1880,2066
421759,-16208,14956,-17651,15117,-1934,34,309,-352,169,-1642,800,2743,-6,38,920,1627,1806,1960,1967,2008,1756,1880,2066
422760,-16200,15024,-17586,15182,-2065,-20,274,-566,236,-2111,889,2541,13,30,921,1627,1806,1960,1967,2008,1756,1880,2066
423761,-16212,15092,-17521,15247,-1721,-23,237,-747,286,-2277,685,2398,13,41,921,1628,1825,1993,2039,2071,1823,1911,2050
424762,-16200,15148,-17456,15312,-1958,138,194,-917,315,-2307,546,2413,14,38,920,1628,1825,1993,2039,2071,1823,1911,2050
425763,-16204,15208,-17391,15377,-1673,94,138,-1065,327,-2324,455,2584,11,36,921,1628,1825,1993,2039,2071,1823,1911,2050
426764,-16196,15284,-17326,15442,-1755,-120,79,-1171,335,-2027,321,2518,3,41,921,1628,1825,1993,2039,2071,1823,1911,2050
427765,-16200,15356,-17261,15507,-1521,-78,18,-1246,330,-1168,101,2832,-6,30,920,1628,1825,1993,2039,2071,1823,1911,2050
428766,-16212,15412,-17196,15572,-1328,133,-24,-1288,319,-574,-218,2771,-7,27,920,1628,1825,1993,2039,2071,1823,1911,2050
429767,-16208,15476,-17131,15637,-1453,34,-49,-1290,290,-745,-376,3000,12,39,921,1630,1789,1988,2037,2021,1783,1831,1959
430768,-16200,15528,-17066,15702,-1434,200,-67,-1244,239,-667,-619,3216,9,40,921,1630,1789,1988,2037,2021,1783,1831,1959
431769,-16204,15584,-17001,15767,-1200,162,-70,-1165,189,-261,-784,3428,4,28,921,1630,1789,1988,2037,2021,1783,1831,1959
432770,-16200,15640,-16936,15832,-1226,173,-89,-1076,155,238,-586,3459,2,26,920,1630,1789,1988,2037,2021,1783,1831,1959
433771,-16204,15716,-16871,15897,-1042,-91,-122,-949,139,464,-547,3592,2,40,921,1630,1789,1988,2037,2021,1783,1831,1959
434772,-16204,15756,-16806,15962,-1012,390,-183,-859,114,228,-289,3553,14,38,921,1554,1683,1898,1952,1946,1736,1767,1876
435773,-16200,15824,-16741,16027,-989,36,-236,-802,74,-37,-150,3627,8,26,920,1554,1683,1898,1952,1946,1736,1767,1876
436774,-16204,15884,-16676,16092,-805,142,-280,-756,56,-337,-108,3515,14,26,921,1554,1683,1898,1952,1946,1736,1767,1876
437775,-16204,15940,-16611,16157,-775,203,-323,-746,77,-300,-139,3262,2,33,921,1554,1683,1898,1952,1946,1736,1767,1876
438776,-16196,15992,-16546,16222,-806,269,-366,-745,102,-509,-50,3331,14,40,920,1554,1683,1898,1952,1946,1736,1767,1876
439777,-16204,16020,-16481,16287,-517,614,-411,-718,114,-868,43,3214,-1,29,920,1554,1683,1898,1952,1946,1736,1767,1876
440778,-16208,16080,-16416,16352,-482,221,-451,-648,140,-651,78,3380,11,27,918,1529,1653,1884,1979,1946,1766,1801,1889
441779,-16184,16140,-16351,16417,-783,227,-466,-582,166,-510,-53,3321,14,36,921,1529,1653,1884,1979,1946,1766,1801,1889
442780,-16192,16200,-16286,16482,-294,233,-462,-505,200,-400,66,3330,6,42,921,1529,1653,1884,1979,1946,1766,1801,1889
443781,-16196,16300,-16221,16547,-260,-309,-475,-399,241,-348,252,3425,11,36,920,1529,1653,1884,1979,1946,1766,1801,1889
444782,-16192,16356,-16156,16612,-286,252,-471,-212,258,-564,191,3544,9,33,919,1529,1653,1884,1979,1946,1766,1801,1889
445783,-16192,16416,-16091,16677,-156,208,-453,-23,243,-313,192,3529,-4,35,920,1560,1700,1932,2045,2017,1827,1862,1943
446784,-16188,16476,-16026,16742,-132,214,-450,124,217,-362,186,3661,14,35,920,1560,1700,1932,2045,2017,1827,1862,1943
447785,-16192,16536,-15961,16807,52,220,-451,225,202,-486,227,3577,9,28,916,1560,1700,1932,2045,2017,1827,1862,1943
448786,-16192,16572,-15896,16872,83,556,-451,282,177,-334,257,3593,12,28,920,1560,1700,1932,2045,2017,1827,1862,1943
449787,-16188,16616,-15831,16937,107,481,-459,313,145,-309,210,3550,14,37,919,1560,1700,1932,2045,2017,1827,1862,1943
450788,-16172,16660,-15766,17002,17,507,-463,376,109,-284,205,4110,-4,39,919,1560,1700,1932,2045,2017,1827,1862,1943
451789,-16188,16688,-15701,17067,516,752,-471,439,83,-41,54,4082,7,32,919,1612,1752,1980,2088,1984,1789,1824,1897
452790,-16188,16712,-15636,17132,395,853,-476,511,62,319,19,4619,12,40,916,1612,1752,1980,2088,1984,1789,1824,1897
453791,-16188,16740,-15571,17197,475,848,-466,589,48,270,31,4903,0,51,915,1612,1752,1980,2088,1984,1789,1824,1897
454792,-16176,16828,-15372,17396,1241,921,-449,635,41,397,26,4910,22,45,916,1612,1752,1980,2088,1984,1789,1824,1897
455793,-16172,16924,-15307,17461,1415,783,-432,694,34,598,-78,5097,18,49,910,1612,1752,1980,2088,1984,1789,1824,1897
456794,-16128,17036,-15242,17526,941,526,-398,740,32,1012,-131,4912,21,60,909,1595,1725,1943,2038,1925,1741,1781,1864
457795,-16080,17136,-15177,17591,913,633,-367,763,37,901,-186,5142,43,62,914,1595,1725,1943,2038,1925,1741,1781,1864
458796,-16016,17244,-15112,17656,714,481,-335,784,24,888,-123,4911,49,59,914,1595,1725,1943,2038,1925,1741,1781,1864
459797,-15972,17352,-15047,17721,990,429,-310,779,-14,944,24,4852,40,77,916,1595,1725,1943,2038,1925,1741,1781,1864
460798,-15900,17488,-14982,17786,632,-8,-264,712,-55,891,-24,4728,54,77,915,1595,1725,1943,2038,1925,1741,1781,1864
461799,-15828,17584,-14917,17851,624,454,-226,614,-72,650,-195,4614,49,75,917,1595,1725,1943,2038,1925,1741,1781,1864
462800,-15732,17688,-14852,17916,286,307,-194,526,-82,589,0,4269,61,77,917,1592,1716,1938,2041,1926,1748,1797,1881
463801,-15652,17824,-14787,17981,468,-180,-170,421,-84,619,-146,4081,56,61,919,1592,1716,1938,2041,1926,1748,1797,1881
464802,-15544,17920,-14722,18046,66,282,-132,349,-103,655,-112,4162,45,74,919,1592,1716,1938,2041,1926,1748,1797,1881
465803,-15468,18028,-14657,18111,452,80,-111,300,-126,870,-195,4057,52,72,920,1592,1716,1938,2041,1926,1748,1797,1881
466804,-15404,18156,-14592,18176,605,-247,-110,266,-135,858,-257,3824,44,61,919,1592,1716,1938,2041,1926,1748,1797,1881
467805,-15324,18240,-14527,18241,386,280,-110,222,-159,1055,-38,4050,61,58,918,1632,1763,1976,2084,1927,1743,1803,1881
468806,-15236,18372,-14462,18306,258,-402,-115,173,-155,809,-343,3789,56,59,919,1632,1763,1976,2084,1927,1743,1803,1881
469807,-15144,18456,-14397,18371,175,175,-119,134,-161,1131,-345,4040,61,55,919,1632,1763,1976,2084,1927,1743,1803,1881
470808,-15072,18560,-14332,18436,418,-123,-128,116,-163,983,-514,3975,55,47,920,1632,1763,1976,2084,1927,1743,1803,1881
471809,-15016,18648,-14267,18501,629,49,-128,61,-160,844,-272,4313,44,45,919,1632,1763,1976,2084,1927,1743,1803,1881
472810,-14924,18736,-14202,18566,146,21,-124,34,-141,586,-444,4278,50,43,918,1632,1763,1976,2084,1927,1743,1803,1881
473811,-14852,18808,-14137,18631,388,212,-109,-15,-137,589,-454,4581,59,44,921,1640,1768,1962,2059,1885,1704,1761,1834
474812,-14776,18896,-14072,18696,325,-16,-95,-77,-118,497,-675,4384,41,53,919,1640,1768,1962,2059,1885,1704,1761,1834
475813,-14692,18960,-14007,18761,202,286,-77,-159,-115,552,-637,4515,52,47,920,1640,1768,1962,2059,1885,1704,1761,1834
476814,-14620,19044,-13942,18826,343,12,-45,-254,-107,378,-742,4627,39,51,920,1640,1768,1962,2059,1885,1704,1761,1834
477815,-14536,19116,-13877,18891,171,154,-14,-312,-117,586,-613,4837,53,37,920,1640,1768,1962,2059,1885,1704,1761,1834
478816,-14456,19188,-13812,18956,203,145,22,-358,-101,591,-880,4571,37,50,920,1570,1694,1893,1991,1861,1686,1737,1812
479817,-14388,19236,-13747,19021,349,466,63,-351,-110,822,-636,4936,48,40,920,1570,1694,1893,1991,1861,1686,1737,1812
480818,-14304,19308,-13682,19086,126,158,86,-336,-119,826,-621,4563,53,46,918,1570,1694,1893,1991,1861,1686,1737,1812
481819,-14252,19388,-13617,19151,543,38,107,-303,-133,912,-551,4517,40,49,920,1570,1694,1893,1991,1861,1686,1737,1812
482820,-14172,19436,-13552,19216,174,459,109,-281,-126,987,-493,4345,33,46,919,1570,1694,1893,1991,1861,1686,1737,1812
483821,-14104,19496,-13487,19281,321,315,112,-236,-129,873,-484,4286,52,47,919,1570,1694,1893,1991,1861,1686,1737,1812
484822,-14040,19568,-13422,19346,372,157,116,-197,-137,833,-310,4277,32,35,919,1568,1697,1905,2017,1883,1708,1767,1842
485823,-13988,19620,-13357,19411,539,422,114,-154,-131,777,-288,4028,43,32,919,1568,1697,1905,2017,1883,1708,1767,1842
486824,-13920,19680,-13292,19476,335,328,122,-114,-123,866,-208,4032,45,42,918,1568,1697,1905,2017,1883,1708,1767,1842
487825,-13860,19752,-13227,19541,441,170,119,-84,-116,752,-155,4073,47,42,919,1568,1697,1905,2017,1883,1708,1767,1842
488826,-13800,19816,-13162,19606,447,271,131,-45,-107,429,-161,3988,48,41,919,1568,1697,1905,2017,1883,1708,1767,1842
489827,-13744,19856,-13097,19671,508,602,135,0,-103,535,-140,3938,28,34,919,1607,1745,1949,2060,1923,1737,1799,1876
490828,-13680,19908,-13032,19736,411,468,155,28,-103,425,-212,3805,29,33,917,1607,1745,1949,2060,1923,1737,1799,1876
491829,-13624,19976,-12967,19801,522,264,170,36,-102,227,-223,3876,30,41,918,1607,1745,1949,2060,1923,1737,1799,1876
492830,-13576,20024,-12902,19866,642,535,198,80,-99,291,-210,3919,38,42,918,1607,1745,1949,2060,1923,1737,1799,1876
493831,-13528,20080,-12837,19931,663,445,229,118,-99,440,-207,3932,43,30,916,1607,1745,1949,2060,1923,1737,1799,1876
494832,-13468,20148,-12772,19996,520,291,251,148,-105,367,-245,3816,28,32,917,1607,1745,1949,2060,1923,1737,1799,1876
495833,-13404,20196,-12707,20061,471,562,269,189,-106,463,-43,4095,33,36,917,1596,1736,1928,2020,1925,1723,1784,1865
496834,-13348,20268,-12642,20126,582,253,293,231,-99,436,-57,4141,48,35,917,1596,1736,1928,2020,1925,1723,1784,1865
497835,-13296,20312,-12577,20191,649,629,313,268,-94,522,-104,4293,33,29,918,1596,1736,1928,2020,1925,1723,1784,1865
498836,-13244,20380,-12512,20256,665,325,338,316,-101,673,10,4351,44,30,916,1596,1736,1928,2020,1925,1723,1784,1865
499840,-13168,20440,-12447,20321,352,431,357,353,-96,721,50,4364,32,35,917,1596,1736,1928,2020,1925,1723,1784,1865
500838,-13112,20488,-12382,20386,613,602,366,393,-93,582,-81,4329,33,43,918,1545,1684,1869,1956,1892,1693,1758,1841
501839,-13052,20552,-12317,20451,570,403,372,412,-91,595,86,4116,34,30,916,1545,1684,1869,1956,1892,1693,1758,1841
502840,-12992,20616,-12252,20516,576,404,379,416,-79,550,49,3958,32,43,917,1545,1684,1869,1956,1892,1693,1758,1841
503841,-12940,20672,-12187,20581,692,515,382,419,-61,557,106,3871,40,35,917,1545,1684,1869,1956,1892,1693,1758,1841
504842,-12868,20732,-12122,20646,433,472,390,444,-58,606,166,3802,49,39,916,1545,1684,1869,1956,1892,1693,1758,1841
505843,-12808,20808,-12057,20711,590,258,388,432,-44,534,83,3639,34,44,918,1545,1684,1869,1956,1892,1693,1758,1841
506844,-12728,20876,-11992,20776,322,354,386,445,-34,696,128,3705,51,46,918,1538,1678,1872,1968,1906,1713,1778,1869
507845,-12672,20932,-11927,20841,633,515,376,426,-28,634,160,3351,38,33,919,1538,1678,1872,1968,1906,1713,1778,1869
508846,-12588,21004,-11862,20906,261,307,374,401,-36,372,84,3520,39,42,916,1538,1678,1872,1968,1906,1713,1778,1869
509847,-12532,21076,-11797,20971,622,298,366,389,-37,371,130,3496,49,48,919,1538,1678,1872,1968,1906,1713,1778,1869
510848,-12472,21132,-11732,21036,578,509,372,387,-31,746,92,3325,29,39,918,1538,1678,1872,1968,1906,1713,1778,1869
511849,-12424,21220,-11667,21101,749,81,369,366,-30,665,121,3430,45,43,917,1571,1713,1913,2008,1948,1748,1811,1908
512850,-12340,21272,-11602,21166,276,547,367,340,-32,423,181,3305,47,33,917,1571,1713,1913,2008,1948,1748,1811,1908
513851,-12288,21344,-11537,21231,692,289,366,303,-24,277,256,3282,48,46,918,1571,1713,1913,2008,1948,1748,1811,1908
514852,-12232,21412,-11472,21296,653,335,370,261,-18,390,265,3363,35,40,917,1571,1713,1913,2008,1948,1748,1811,1908
515853,-12176,21468,-11407,21361,665,495,371,237,-19,500,248,3509,35,40,917,1571,1713,1913,2008,1948,1748,1811,1908
516854,-12096,21524,-11342,21426,347,506,365,230,-19,457,194,3467,50,46,916,1571,1713,1913,2008,1948,1748,1811,1908
517855,-12036,21584,-11277,21491,603,462,365,208,-16,464,244,3650,49,32,918,1580,1723,1917,2000,1948,1740,1800,1896
518856,-11964,21660,-11212,21556,444,249,362,191,-30,475,341,3663,30,31,917,1580,1723,1917,2000,1948,1740,1800,1896
519857,-11936,21724,-11147,21621,1041,400,351,175,-22,425,298,3762,30,40,919,1580,1723,1917,2000,1948,1740,1800,1896
520858,-11856,21784,-11082,21686,372,456,340,178,-16,545,450,3854,40,35,915,1580,1723,1917,2000,1948,1740,1800,1896
521859,-11788,21844,-11017,21751,519,462,331,163,-19,404,379,4042,53,38,918,1580,1723,1917,2000,1948,1740,1800,1896
522860,-11724,21884,-10952,21816,571,742,319,179,-23,427,396,4217,48,33,917,1554,1698,1888,1965,1920,1715,1777,1871
523861,-11652,21956,-10887,21881,462,334,308,169,-12,561,342,3999,43,42,915,1554,1698,1888,1965,1920,1715,1777,1871
524862,-11596,22020,-10822,21946,673,435,298,150,-2,493,336,4190,49,42,918,1554,1698,1888,1965,1920,1715,1777,1871
525863,-11548,22080,-10757,22011,794,491,289,121,0,370,312,4020,28,31,917,1554,1698,1888,1965,1920,1715,1777,1871
526864,-11484,22136,-10692,22076,596,552,278,103,6,303,310,4077,30,44,916,1554,1698,1888,1965,1920,1715,1777,1871
527865,-11424,22216,-10627,22141,652,234,267,106,20,401,301,3988,43,41,916,1554,1698,1888,1965,1920,1715,1777,1871
528866,-11368,22276,-10562,22206,713,490,250,99,18,541,369,3896,40,33,917,1548,1694,1892,1976,1929,1730,1794,1894
529867,-11296,22328,-10497,22271,506,606,246,82,18,337,229,3710,43,38,915,1548,1694,1892,1976,1929,1730,1794,1894
530868,-11244,22392,-10432,22336,772,457,228,66,8,457,438,3818,37,34,916,1548,1694,1892,1976,1929,1730,1794,1894
531869,-11176,22436,-10367,22401,568,733,220,67,-7,267,408,3936,34,28,916,1548,1694,1892,1976,1929,1730,1794,1894
532870,-11092,22516,-10302,22466,346,264,206,79,-16,503,477,3640,44,42,915,1548,1694,1892,1976,1929,1730,1794,1894
533871,-11024,22600,-10237,22531,542,191,200,110,-12,633,424,3847,47,40,919,1578,1728,1931,2018,1970,1764,1827,1929
534872,-10952,22652,-10172,22596,484,607,185,137,-10,516,417,3779,46,35,919,1578,1728,1931,2018,1970,1764,1827,1929
535873,-10896,22704,-10107,22661,695,623,184,160,-10,237,514,3988,41,34,917,1578,1728,1931,2018,1970,1764,1827,1929
536874,-10840,22764,-10042,22726,707,529,172,181,-12,193,491,3927,29,35,916,1578,1728,1931,2018,1970,1764,1827,1929
537875,-10780,22816,-9977,22791,663,645,169,184,-11,356,420,3916,33,38,916,1578,1728,1931,2018,1970,1764,1827,1929
538876,-10716,22860,-9912,22856,614,771,150,185,-1,158,439,4125,36,24,916,1578,1728,1931,2018,1970,1764,1827,1929
539877,-10664,22916,-9847,22921,781,632,148,195,-9,128,456,4192,42,30,915,1593,1744,1944,2025,1971,1760,1819,1916
540878,-10588,22972,-9782,22986,467,643,137,240,-15,332,367,4329,33,32,915,1593,1744,1944,2025,1971,1760,1819,1916
541879,-10528,23036,-9717,23051,673,544,146,260,-10,520,337,4209,48,39,917,1593,1744,1944,2025,1971,1760,1819,1916
542880,-10460,23092,-9652,23116,571,655,146,261,-5,327,331,4289,34,25,916,1593,1744,1944,2025,1971,1760,1819,1916
543881,-10396,23152,-9587,23181,622,611,157,265,9,-14,323,4388,40,26,916,1593,1744,1944,2025,1971,1760,1819,1916
544882,-10336,23204,-9522,23246,678,727,157,260,22,150,450,4264,45,24,916,1576,1726,1921,2002,1937,1730,1791,1885
545883,-10300,23248,-9457,23311,1014,852,148,247,37,224,384,4379,43,35,915,1576,1726,1921,2002,1937,1730,1791,1885
546884,-10240,23316,-9392,23376,721,549,122,228,37,293,529,4338,29,39,911,1576,1726,1921,2002,1937,1730,1791,1885
547885,-10180,23376,-9327,23441,727,655,95,224,38,312,332,4377,31,41,915,1576,1726,1921,2002,1937,1730,1791,1885
548886,-10124,23436,-9262,23506,788,661,96,213,47,486,272,4168,42,38,915,1576,1726,1921,2002,1937,1730,1791,1885
549892,-10060,23468,-9197,23571,690,1051,94,221,63,590,288,4168,35,30,914,1576,1726,1921,2002,1937,1730,1791,1885
550888,-10024,23524,-9132,23636,1075,762,92,233,73,532,312,4239,32,27,913,1584,1732,1931,2017,1925,1724,1793,1891
551889,-9960,23584,-9067,23701,727,718,95,269,75,603,308,4185,30,29,912,1584,1732,1931,2017,1925,1724,1793,1891
552890,-9896,23648,-9002,23766,729,670,99,287,78,728,350,4125,39,49,914,1584,1732,1931,2017,1925,1724,1793,1891
553891,-9832,23708,-8937,23831,730,726,118,301,91,788,217,3981,40,47,915,1584,1732,1931,2017,1925,1724,1793,1891
554892,-9776,23788,-8872,23896,841,457,135,291,105,759,263,3740,34,33,915,1584,1732,1931,2017,1925,1724,1793,1891
555893,-9708,23840,-8807,23961,688,823,129,254,126,489,488,3877,40,38,915,1612,1763,1959,2048,1941,1737,1809,1907
556894,-9644,23892,-8742,24026,740,839,114,268,134,321,540,4136,42,40,915,1612,1763,1959,2048,1941,1737,1809,1907
557895,-9584,23964,-8677,24091,796,581,110,276,129,432,490,3821,33,42,914,1612,1763,1959,2048,1941,1737,1809,1907
558896,-9532,24024,-8612,24156,913,737,118,247,128,259,404,3916,32,44,915,1612,1763,1959,2048,1941,1737,1809,1907
559897,-9476,24100,-8547,24221,874,523,129,247,121,259,311,3948,37,35,913,1612,1763,1959,2048,1941,1737,1809,1907
560898,-9400,24152,-8482,24286,611,839,147,277,109,440,358,4061,36,34,915,1634,1786,1976,2064,1936,1728,1803,1895
561899,-9348,24240,-8417,24351,927,361,166,291,108,375,411,3965,34,46,915,1634,1786,1976,2064,1936,1728,1803,1895
562900,-9280,24320,-8352,24416,723,443,168,297,106,247,394,4114,46,32,915,1634,1786,1976,2064,1936,1728,1803,1895
563901,-9220,24356,-8287,24481,830,1028,172,303,109,228,476,4154,52,27,915,1634,1786,1976,2064,1936,1728,1803,1895
564902,-9180,24420,-8222,24546,1111,680,173,278,115,113,459,4206,50,42,913,1634,1786,1976,2064,1936,1728,1803,1895
565903,-9100,24476,-8157,24611,593,791,176,258,127,-201,329,4317,45,30,912,1634,1786,1976,2064,1936,1728,1803,1895
566904,-9036,24544,-8092,24676,795,638,179,231,146,56,187,4121,40,47,914,1634,1787,1975,2065,1907,1705,1779,1870
567905,-8992,24588,-8027,24741,1070,963,197,232,157,481,195,4253,46,40,915,1634,1787,1975,2065,1907,1705,1779,1870
568906,-8916,24648,-7962,24806,657,769,204,242,180,352,102,4106,41,41,911,1634,1787,1975,2065,1907,1705,1779,1870
569907,-8856,24716,-7897,24871,864,666,212,294,191,327,125,4351,50,37,914,1634,1787,1975,2065,1907,1705,1779,1870
570908,-8800,24776,-7832,24936,925,772,215,354,201,527,220,4179,34,43,914,1634,1787,1975,2065,1907,1705,1779,1870
571909,-8744,24844,-7767,25001,936,668,224,393,208,530,245,4149,38,31,913,1643,1797,1991,2083,1899,1707,1781,1875
572910,-8688,24904,-7702,25066,948,774,233,422,226,408,181,4122,35,38,914,1643,1797,1991,2083,1899,1707,1781,1875
573911,-8620,24964,-7637,25131,794,780,251,430,237,411,185,4030,48,35,913,1643,1797,1991,2083,1899,1707,1781,1875
574912,-8556,25040,-7572,25196,847,567,269,409,246,252,188,3844,49,32,914,1643,1797,1991,2083,1899,1707,1781,1875
575913,-8500,25088,-7507,25261,958,938,287,397,255,333,179,3872,52,43,915,1643,1797,1991,2083,1899,1707,1781,1875
576914,-8432,25164,-7442,25326,804,574,315,391,265,469,64,3677,36,35,912,1643,1797,1991,2083,1899,1707,1781,1875
577915,-8352,25224,-7377,25391,637,780,331,336,273,484,348,3498,35,37,915,1675,1827,2029,2129,1907,1716,1789,1877
578916,-8296,25300,-7312,25456,948,567,327,306,287,113,461,3931,47,40,915,1675,1827,2029,2129,1907,1716,1789,1877
579917,-8236,25372,-7247,25521,904,608,309,308,283,391,504,3741,39,37,914,1675,1827,2029,2129,1907,1716,1789,1877
580918,-8188,25468,-7182,25586,1076,271,301,307,260,366,307,3897,51,40,913,1675,1827,2029,2129,1907,1716,1789,1877
581919,-8116,25544,-7117,25651,767,507,305,290,241,484,356,3545,41,39,914,1675,1827,2029,2129,1907,1716,1789,1877
582920,-8064,25608,-7052,25716,1034,659,312,259,239,485,317,3612,49,47,915,1703,1850,2048,2149,1897,1708,1780,1867
583921,-8004,25692,-6987,25781,940,386,320,259,227,527,411,3759,51,41,914,1703,1850,2048,2149,1897,1708,1780,1867
584922,-7948,25760,-6922,25846,1001,582,323,281,206,500,401,3783,44,36,915,1703,1850,2048,2149,1897,1708,1780,1867
585923,-7896,25820,-6857,25911,1068,689,332,296,196,451,349,3994,44,32,914,1703,1850,2048,2149,1897,1708,1780,1867
586924,-7832,25908,-6792,25976,919,311,350,299,199,490,280,4021,37,38,913,1703,1850,2048,2149,1897,1708,1780,1867
587925,-7776,25964,-6727,26041,1031,721,362,245,206,323,289,3812,34,34,915,1703,1850,2048,2149,1897,1708,1780,1867
588926,-7716,26008,-6662,26106,987,897,377,189,220,71,332,4060,52,44,913,1693,1836,2033,2128,1889,1703,1771,1859
589927,-7648,26080,-6597,26171,883,539,409,175,226,274,287,4156,50,43,912,1693,1836,2033,2128,1889,1703,1771,1859
590928,-7584,26148,-6532,26236,936,585,442,190,246,515,132,4132,52,38,914,1693,1836,2033,2128,1889,1703,1771,1859
591929,-7540,26224,-6467,26301,1211,471,488,196,271,602,194,4071,45,37,914,1693,1836,2033,2128,1889,1703,1771,1859
592930,-7476,26268,-6402,26366,964,897,523,220,277,420,305,4081,50,40,913,1693,1836,2033,2128,1889,1703,1771,1859
593931,-7420,26328,-6337,26431,1075,703,565,218,283,216,239,3824,34,46,912,1679,1829,2033,2131,1890,1707,1778,1864
594932,-7348,26404,-6272,26496,866,490,598,202,280,426,411,3827,50,31,913,1679,1829,2033,2131,1890,1707,1778,1864
595933,-7280,26464,-6207,26561,913,696,636,202,288,404,201,3841,36,34,915,1679,1829,2033,2131,1890,1707,1778,1864
596934,-7236,26520,-6142,26626,1239,757,661,182,301,549,276,3690,36,33,914,1679,1829,2033,2131,1890,1707,1778,1864
597936,-7172,26584,-6077,26691,991,658,683,142,322,385,583,3501,36,36,910,1679,1829,2033,2131,1890,1707,1778,1864
598936,-7116,26652,-6012,26756,1102,604,669,121,359,0,641,3742,35,49,913,1679,1829,2033,2131,1890,1707,1778,1864
599937,-7068,26732,-5947,26821,1223,436,666,129,363,532,815,3668,52,37,913,1718,1868,2071,2187,1882,1703,1779,1851
600938,-6984,26776,-5882,26886,751,912,656,112,368,529,707,3630,37,52,913,1718,1868,2071,2187,1882,1703,1779,1851
601939,-6916,26852,-5817,26951,947,498,646,87,368,434,807,3678,38,39,914,1718,1868,2071,2187,1882,1703,1779,1851
602940,-6836,26928,-5752,27016,780,485,633,90,343,621,973,3849,41,47,914,1718,1868,2071,2187,1882,1703,1779,1851
603941,-6780,26984,-5687,27081,1091,746,615,91,330,496,481,3649,51,47,916,1718,1868,2071,2187,1882,1703,1779,1851
604942,-6716,27052,-5622,27146,992,592,612,121,310,770,525,3993,47,41,913,1749,1889,2089,2202,1889,1708,1780,1867
605943,-6656,27120,-5557,27211,1049,589,614,173,284,769,419,3937,52,49,913,1749,1889,2089,2202,1889,1708,1780,1867
606944,-6608,27192,-5492,27276,1220,530,629,221,255,802,272,3998,46,47,913,1749,1889,2089,2202,1889,1708,1780,1867
607945,-6556,27260,-5427,27341,1187,576,659,271,237,843,279,4090,33,40,912,1749,1889,2089,2202,1889,1708,1780,1867
608946,-6476,27316,-5362,27406,818,737,698,293,241,563,130,3895,32,36,912,1749,1889,2089,2202,1889,1708,1780,1867
609947,-6432,27376,-5297,27471,1295,693,745,312,238,446,237,4208,37,43,914,1749,1889,2089,2202,1889,1708,1780,1867
610948,-6368,27432,-5232,27536,1046,754,783,326,240,326,273,4102,34,40,911,1718,1855,2067,2162,1908,1723,1781,1869
611949,-6324,27512,-5167,27601,1322,436,820,311,255,301,221,4191,36,34,911,1718,1855,2067,2162,1908,1723,1781,1869
612950,-6260,27572,-5102,27666,1074,692,849,270,259,219,347,4050,33,47,912,1718,1855,2067,2162,1908,1723,1781,1869
613951,-6208,27640,-5037,27731,1240,590,869,210,245,146,513,4024,46,46,912,1718,1855,2067,2162,1908,1723,1781,1869
614952,-6172,27688,-4972,27796,1476,860,873,182,263,91,387,3975,39,46,911,1718,1855,2067,2162,1908,1723,1781,1869
615953,-6104,27768,-4907,27861,1073,442,866,160,288,229,561,4090,37,45,909,1694,1839,2055,2163,1899,1720,1785,1864
616954,-6028,27828,-4842,27926,960,698,849,159,310,329,648,3996,37,47,912,1694,1839,2055,2163,1899,1720,1785,1864
617955,-5984,27896,-4777,27991,1386,594,824,156,335,452,784,3984,38,32,913,1694,1839,2055,2163,1899,1720,1785,1864
618956,-5920,27956,-4712,28056,1138,701,802,173,354,620,915,4042,34,49,911,1694,1839,2055,2163,1899,1720,1785,1864
619957,-5860,28008,-4647,28121,1194,816,774,211,372,676,821,4078,50,33,911,1694,1839,2055,2163,1899,1720,1785,1864
620958,-5812,28052,-4582,28186,1365,942,753,260,391,972,710,4048,35,39,911,1694,1839,2055,2163,1899,1720,1785,1864
621959,-5728,28128,-4517,28251,893,529,732,307,402,864,824,4149,44,37,909,1718,1867,2073,2184,1909,1730,1802,1891
622960,-5676,28204,-4452,28316,1309,515,708,362,410,726,643,4141,39,34,913,1718,1867,2073,2184,1909,1730,1802,1891
623961,-5612,28268,-4387,28381,1161,666,699,437,387,1073,583,4223,47,39,912,1718,1867,2073,2184,1909,1730,1802,1891
624962,-5560,28328,-4322,28446,1327,723,703,484,357,1010,441,4063,38,37,912,1718,1867,2073,2184,1909,1730,1802,1891
625963,-5496,28392,-4257,28511,1179,674,703,513,323,787,435,4088,44,39,911,1718,1867,2073,2184,1909,1730,1802,1891
626964,-5440,28464,-4192,28576,1290,565,717,520,285,577,448,4056,37,40,911,1721,1862,2078,2176,1943,1756,1809,1901
627965,-5384,28528,-4127,28641,1302,666,726,507,240,393,345,4019,34,45,911,1721,1862,2078,2176,1943,1756,1809,1901
628966,-5328,28612,-4062,28706,1313,393,732,470,213,317,351,4055,44,37,911,1721,1862,2078,2176,1943,1756,1809,1901
629967,-5272,28688,-3997,28771,1325,480,734,439,200,336,568,4093,46,35,912,1721,1862,2078,2176,1943,1756,1809,1901
630968,-5216,28752,-3932,28836,1336,631,748,402,191,110,659,4122,37,46,911,1721,1862,2078,2176,1943,1756,1809,1901
631969,-5136,28804,-3867,28901,1019,797,732,352,182,-2,608,4169,39,46,910,1721,1862,2078,2176,1943,1756,1809,1901
632970,-5100,28880,-3802,28966,1604,483,727,328,190,275,639,4315,31,47,912,1693,1836,2061,2160,1932,1746,1797,1881
633971,-5028,28944,-3737,29031,1146,635,703,309,210,321,808,4145,45,44,910,1693,1836,2061,2160,1932,1746,1797,1881
634972,-4984,29000,-3672,29096,1522,746,677,324,235,274,709,4320,43,44,911,1693,1836,2061,2160,1932,1746,1797,1881
635973,-4932,29076,-3607,29161,1439,482,643,374,245,620,792,4348,47,49,909,1693,1836,2061,2160,1932,1746,1797,1881
636974,-4852,29128,-3542,29226,1071,798,600,421,247,795,827,4211,44,42,910,1693,1836,2061,2160,1932,1746,1797,1881
637975,-4808,29188,-3477,29291,1547,704,548,470,247,817,742,4212,37,33,911,1692,1841,2055,2155,1913,1733,1796,1887
638976,-4760,29260,-3412,29356,1518,546,507,535,234,856,752,4382,47,40,909,1692,1841,2055,2155,1913,1733,1796,1887
639977,-4704,29320,-3347,29421,1430,702,471,580,230,779,672,4225,42,47,909,1692,1841,2055,2155,1913,1733,1796,1887
640978,-4624,29384,-3282,29486,1112,653,443,616,213,851,706,4394,36,43,909,1692,1841,2055,2155,1913,1733,1796,1887
641979,-4568,29452,-3217,29551,1424,600,416,635,192,740,774,4180,41,46,912,1692,1841,2055,2155,1913,1733,1796,1887
642980,-4496,29504,-3152,29616,1215,816,386,624,170,569,783,4194,51,49,910,1692,1841,2055,2155,1913,1733,1796,1887
643981,-4444,29560,-3087,29681,1482,777,375,595,143,342,618,4019,34,37,910,1703,1850,2072,2170,1948,1770,1823,1919
644982,-4380,29632,-3022,29746,1333,569,366,558,110,275,608,4132,47,50,909,1703,1850,2072,2170,1948,1770,1823,1919
645983,-4320,29700,-2957,29811,1390,615,361,516,82,212,589,3984,46,51,911,1703,1850,2072,2170,1948,1770,1823,1919
646984,-4260,29768,-2892,29876,1396,611,350,486,53,367,612,4116,42,38,911,1703,1850,2072,2170,1948,1770,1823,1919
647985,-4188,29812,-2827,29941,1239,937,340,462,25,221,644,3990,35,50,910,1703,1850,2072,2170,1948,1770,1823,1919
648986,-4120,29880,-2762,30006,1285,633,328,441,-17,387,784,3982,49,42,909,1698,1846,2082,2179,1986,1803,1847,1941
649987,-4080,29952,-2697,30071,1667,575,317,429,-31,283,610,3957,52,47,911,1698,1846,2082,2179,1986,1803,1847,1941
650988,-4004,30012,-2632,30136,1203,731,309,433,-44,522,787,4004,40,54,909,1698,1846,2082,2179,1986,1803,1847,1941
651989,-3948,30060,-2567,30201,1465,902,294,457,-41,446,803,4070,35,47,911,1698,1846,2082,2179,1986,1803,1847,1941
652990,-3888,30156,-2502,30266,1421,264,274,484,-45,512,953,4142,52,50,909,1698,1846,2082,2179,1986,1803,1847,1941
653991,-3820,30224,-2437,30331,1319,610,257,522,-53,438,669,4165,54,54,911,1698,1846,2082,2179,1986,1803,1847,1941
654992,-3760,30304,-2372,30396,1425,442,256,549,-69,718,716,4092,50,54,911,1699,1848,2080,2180,1975,1796,1839,1926
655993,-3696,30380,-2307,30461,1377,478,247,544,-69,677,928,3939,51,49,911,1699,1848,2080,2180,1975,1796,1839,1926
656994,-3636,30452,-2242,30526,1433,520,223,513,-57,142,1074,4050,41,54,911,1699,1848,2080,2180,1975,1796,1839,1926
657995,-3588,30516,-2177,30591,1605,621,185,507,-63,131,1047,4182,49,49,911,1699,1848,2080,2180,1975,1796,1839,1926
658996,-3532,30600,-2112,30656,1517,348,184,522,-68,555,830,4044,40,52,909,1699,1848,2080,2180,1975,1796,1839,1926
659997,-3476,30664,-2047,30721,1528,599,196,495,-57,556,928,3745,38,57,910,1705,1849,2083,2195,1959,1787,1829,1911
660998,-3432,30736,-1982,30786,1705,491,199,462,-36,-65,1109,4062,41,54,910,1705,1849,2083,2195,1959,1787,1829,1911
661999,-3356,30816,-1917,30851,1291,372,185,468,-52,208,979,3938,42,44,908,1705,1849,2083,2195,1959,1787,1829,1911
663000,-3308,30892,-1852,30916,1663,409,175,474,-82,564,914,3699,50,39,910,1705,1849,2083,2195,1959,1787,1829,1911
664001,-3240,30948,-1787,30981,1409,670,164,448,-117,530,1005,3753,40,41,911,1705,1849,2083,2195,1959,1787,1829,1911
665002,-3184,31012,-1722,31046,1571,571,163,459,-160,324,1033,3710,40,46,910,1705,1849,2083,2195,1959,1787,1829,1911
666003,-3120,31084,-1657,31111,1472,462,163,456,-218,524,1018,3645,38,49,908,1733,1868,2115,2236,1972,1802,1842,1924
667004,-3040,31160,-1592,31176,1255,399,166,467,-247,631,920,3558,55,47,909,1733,1868,2115,2236,1972,1802,1842,1924
668005,-2980,31232,-1527,31241,1511,440,160,482,-275,630,1091,3661,41,40,912,1733,1868,2115,2236,1972,1802,1842,1924
669006,-2900,31284,-1462,31306,1244,706,162,518,-308,518,1019,3610,57,53,911,1733,1868,2115,2236,1972,1802,1842,1924
670007,-2836,31344,-1397,31371,1446,612,165,534,-328,570,879,3693,55,41,910,1733,1868,2115,2236,1972,1802,1842,1924
671008,-2772,31412,-1332,31436,1447,509,193,557,-353,473,976,3836,52,54,911,1756,1885,2138,2263,1989,1822,1856,1933
672009,-2684,31488,-1267,31501,1120,395,205,594,-362,875,831,3963,44,54,910,1756,1885,2138,2263,1989,1822,1856,1933
673010,-2604,31564,-1202,31566,1202,382,204,616,-357,279,893,3751,57,38,912,1756,1885,2138,2263,1989,1822,1856,1933
674011,-2520,31640,-1137,31631,1130,369,176,657,-362,-477,991,3613,37,42,913,1756,1885,2138,2263,1989,1822,1856,1933
675012,-2444,31712,-1072,31696,1216,410,124,701,-311,-358,609,3661,54,39,913,1756,1885,2138,2263,1989,1822,1856,1933
676013,-2384,31768,-1007,31761,1423,621,65,655,-230,1173,295,3373,37,37,913,1756,1885,2138,2263,1989,1822,1856,1933
677014,-2308,31828,-942,31826,1210,577,9,582,-147,1671,377,3750,51,52,911,1759,1889,2145,2278,1999,1841,1869,1945
678015,-2236,31892,-877,31891,1252,528,-26,552,-116,-320,969,3650,43,47,911,1759,1889,2145,2278,1999,1841,1869,1945
679016,-2188,31956,-812,31956,1573,530,-20,566,-119,-1171,768,3736,44,48,912,1759,1889,2145,2278,1999,1841,1869,1945
680017,-2116,32024,-747,32021,1266,476,-11,589,-94,445,437,4243,42,45,911,1759,1889,2145,2278,1999,1841,1869,1945
681018,-2052,32076,-682,32086,1367,692,9,567,-70,788,931,3274,50,50,911,1759,1889,2145,2278,1999,1841,1869,1945
682019,-2000,32144,-617,32151,1534,488,27,567,-77,15,898,3635,47,38,911,1730,1857,2120,2237,2073,1893,1913,2009
683020,-1932,32208,-552,32216,1330,539,45,624,-120,30,883,4274,41,40,909,1730,1857,2120,2237,2073,1893,1913,2009
684021,-1860,32296,-487,32281,1273,211,66,672,-172,599,815,3632,54,43,910,1730,1857,2120,2237,2073,1893,1913,2009
685022,-1808,32348,-422,32346,1538,677,112,700,-219,855,920,3680,54,48,912,1730,1857,2120,2237,2073,1893,1913,2009
686023,-1748,32408,-357,32411,1445,583,145,731,-259,389,1004,3824,41,52,911,1730,1857,2120,2237,2073,1893,1913,2009
687024,-1680,32460,-292,32476,1343,699,169,803,-302,428,1048,3935,39,49,910,1730,1857,2120,2237,2073,1893,1913,2009
688025,-1604,32544,-227,32541,1229,276,174,881,-348,681,1183,3755,52,40,910,1716,1846,2110,2219,2111,1914,1933,2027
689026,-1532,32612,-162,32606,1272,472,169,922,-387,510,1292,3753,40,51,912,1716,1846,2110,2219,2111,1914,1933,2027
690027,-1472,32664,-97,32671,1428,688,157,937,-411,91,1161,3533,44,51,912,1716,1846,2110,2219,2111,1914,1933,2027
691028,-1388,32708,-32,32736,1106,814,135,922,-422,-87,1249,3623,36,37,911,1716,1846,2110,2219,2111,1914,1933,2027
692029,-1320,32780,33,32801,1302,455,107,907,-415,37,1203,3671,52,38,911,1716,1846,2110,2219,2111,1914,1933,2027
693030,-1260,32852,98,32866,1409,447,69,897,-398,-22,962,3687,44,44,911,1733,1866,2130,2254,2078,1896,1914,1996
694031,-1188,32908,163,32931,1251,658,22,871,-381,-85,947,3577,46,49,911,1733,1866,2130,2254,2078,1896,1914,1996
695032,-1120,32984,228,32996,1298,394,-23,849,-352,-55,925,3613,39,44,911,1733,1866,2130,2254,2078,1896,1914,1996
696033,-1044,33052,293,33061,1185,490,-64,805,-307,16,1024,3593,36,40,912,1733,1866,2130,2254,2078,1896,1914,1996
697034,-996,33136,358,33126,1556,267,-96,786,-274,-242,867,3807,52,38,913,1733,1866,2130,2254,2078,1896,1914,1996
698035,-936,33196,423,33191,1412,573,-120,802,-227,-65,757,3854,40,55,911,1733,1866,2130,2254,2078,1896,1914,1996
699036,-876,33260,488,33256,1420,525,-131,826,-176,364,695,3719,39,46,910,1743,1878,2147,2265,2070,1898,1913,2011
700037,-820,33328,553,33321,1481,471,-136,837,-137,222,762,3853,51,41,910,1743,1878,2147,2265,2070,1898,1913,2011
701038,-772,33400,618,33386,1602,412,-140,836,-126,25,827,3836,50,50,910,1743,1878,2147,2265,2070,1898,1913,2011
702039,-692,33456,683,33451,1184,623,-144,836,-126,83,809,3996,48,43,910,1743,1878,2147,2265,2070,1898,1913,2011
703040,-616,33512,748,33516,1222,634,-141,854,-142,329,1012,3992,45,44,911,1743,1878,2147,2265,2070,1898,1913,2011
704041,-552,33580,813,33581,1373,481,-135,867,-180,348,848,3976,46,40,912,1734,1870,2146,2246,2104,1918,1929,2036
705042,-492,33632,1012,33780,1593,860,-134,878,-223,348,1029,4043,38,44,911,1734,1870,2146,2246,2104,1918,1929,2036
706043,-424,33716,1077,33845,1490,437,-128,891,-273,220,1197,3899,41,45,911,1734,1870,2146,2246,2104,1918,1929,2036
707044,-344,33772,1142,33910,1322,798,-135,873,-318,220,1062,3843,59,42,908,1734,1870,2146,2246,2104,1918,1929,2036
708045,-264,33828,1207,33975,1305,809,-129,859,-382,220,1316,4102,53,54,911,1734,1870,2146,2246,2104,1918,1929,2036
709046,-176,33908,1272,34040,1177,491,-149,845,-424,-23,1420,3817,48,42,910,1734,1870,2146,2246,2104,1918,1929,2036
710047,-116,33984,1337,34105,1534,527,-159,825,-450,-27,1395,3840,60,49,911,1741,1873,2140,2249,2105,1913,1934,2029
711048,-52,34060,1402,34170,1485,515,-189,794,-484,9,1458,3868,51,55,913,1741,1873,2140,2249,2105,1913,1934,2029
712049,44,34120,1467,34235,1049,721,-209,780,-506,-137,1357,3764,63,45,910,1741,1873,2140,2249,2105,1913,1934,2029
713050,112,34196,1532,34300,1395,507,-242,773,-500,-194,1333,3924,60,53,910,1741,1873,2140,2249,2105,1913,1934,2029
714051,188,34268,1597,34365,1282,549,-273,750,-501,-119,1477,3840,48,56,912,1741,1873,2140,2249,2105,1913,1934,2029
715052,272,34356,1662,34430,1159,321,-279,722,-511,-232,1417,3784,55,58,911,1748,1886,2148,2264,2088,1905,1928,2022
716053,332,34436,1727,34495,1466,403,-298,709,-496,-259,1021,3946,53,46,911,1748,1886,2148,2264,2088,1905,1928,2022
717054,404,34508,1792,34560,1308,494,-301,764,-447,18,984,4026,59,49,912,1748,1886,2148,2264,2088,1905,1928,2022
718055,476,34608,1857,34625,1300,101,-297,789,-394,155,1136,3877,41,47,911,1748,1886,2148,2264,2088,1905,1928,2022
719056,552,34696,1922,34690,1237,223,-280,774,-379,-227,1114,3981,55,45,912,1748,1886,2148,2264,2088,1905,1928,2022
720057,648,34752,1987,34755,950,634,-262,759,-365,-498,949,3998,48,56,913,1748,1886,2148,2264,2088,1905,1928,2022
721058,696,34832,2052,34820,1571,316,-234,772,-328,-67,868,3805,54,57,914,1743,1885,2150,2258,2080,1899,1919,2019
722059,756,34900,2117,34885,1428,462,-223,788,-295,186,950,4002,50,55,914,1743,1885,2150,2258,2080,1899,1919,2019
723060,820,34980,2182,34950,1379,294,-215,808,-286,100,1013,3803,57,58,910,1743,1885,2150,2258,2080,1899,1919,2019
724061,900,35048,2247,35015,1162,440,-214,805,-321,-30,1198,3684,53,54,911,1743,1885,2150,2258,2080,1899,1919,2019
725064,984,35140,2312,35080,1090,107,-225,757,-374,-286,1180,3657,54,60,912,1743,1885,2150,2258,2080,1899,1919,2019
726063,1044,35208,2377,35145,1396,404,-254,704,-430,-143,1149,3461,56,44,913,1762,1896,2170,2286,2066,1886,1904,1992
727064,1112,35272,2442,35210,1293,455,-293,665,-483,56,1138,3539,40,46,915,1762,1896,2170,2286,2066,1886,1904,1992
728065,1180,35356,2507,35275,1289,182,-345,626,-548,53,1466,3657,58,44,911,1762,1896,2170,2286,2066,1886,1904,1992
729066,1272,35424,2572,35340,957,378,-400,583,-620,-263,1587,3568,60,47,912,1762,1896,2170,2286,2066,1886,1904,1992
730067,1352,35492,2637,35405,1089,374,-434,539,-682,-71,1578,3731,61,47,913,1762,1896,2170,2286,2066,1886,1904,1992
731068,1412,35568,2702,35470,1346,261,-449,531,-705,-54,1471,3826,52,49,915,1762,1896,2170,2286,2066,1886,1904,1992
732069,1496,35644,2767,35535,1023,246,-466,519,-726,164,1311,3728,45,57,914,1773,1893,2157,2273,2054,1877,1901,1997
733070,1572,35716,2832,35600,1111,288,-464,531,-730,120,1283,3929,49,48,913,1773,1893,2157,2273,2054,1877,1901,1997
734071,1664,35784,2897,35665,878,334,-451,528,-751,38,1370,3841,60,55,914,1773,1893,2157,2273,2054,1877,1901,1997
735072,1740,35868,2962,35730,1064,111,-431,536,-749,-160,925,3871,41,58,913,1773,1893,2157,2273,2054,1877,1901,1997
736073,1816,35936,3027,35795,1052,307,-418,581,-733,205,931,4046,40,46,916,1773,1893,2157,2273,2054,1877,1901,1997
737074,1876,36024,3092,35860,1258,29,-396,597,-709,221,901,3723,59,56,915,1732,1864,2124,2224,2069,1890,1910,2015
738075,1960,36096,3157,35925,936,221,-393,594,-696,-286,872,3724,58,61,914,1732,1864,2124,2224,2069,1890,1910,2015
739076,2052,36184,3222,35990,803,-7,-379,586,-693,-357,974,3698,60,53,914,1732,1864,2124,2224,2069,1890,1910,2015
740077,2124,36272,3287,36055,1045,-35,-368,534,-677,-411,953,3496,50,53,915,1732,1864,2124,2224,2069,1890,1910,2015
741078,2204,36332,3352,36120,927,321,-360,499,-652,-415,818,3487,48,52,917,1732,1864,2124,2224,2069,1890,1910,2015
742079,2272,36384,3417,36185,1074,437,-356,423,-646,-623,1283,3198,54,47,915,1732,1864,2124,2224,2069,1890,1910,2015
743080,2356,36452,3482,36250,851,233,-364,357,-638,-1046,1289,3297,39,50,915,1711,1853,2116,2222,2067,1884,1904,1999
744081,2436,36536,3547,36315,883,10,-384,300,-646,-639,1215,3325,48,52,914,1711,1853,2116,2222,2067,1884,1904,1999
745082,2496,36628,3612,36380,1140,-123,-429,259,-662,-354,1128,3420,47,50,916,1711,1853,2116,2222,2067,1884,1904,1999
746083,2588,36704,3677,36445,707,63,-467,243,-703,-96,1381,3255,59,55,916,1711,1853,2116,2222,2067,1884,1904,1999
747084,2688,36772,3742,36510,565,159,-512,211,-756,-443,1222,3035,44,41,914,1711,1853,2116,2222,2067,1884,1904,1999
748085,2740,36872,3807,36575,1181,-284,-543,219,-808,-205,1251,3474,41,51,917,1728,1864,2120,2229,2049,1863,1893,1994
749086,2832,36976,3872,36640,649,-382,-563,235,-866,249,1171,3181,58,44,918,1728,1864,2120,2229,2049,1863,1893,1994
750087,2904,37060,3937,36705,890,-155,-578,288,-917,323,969,3467,43,35,914,1728,1864,2120,2229,2049,1863,1893,1994
751088,2980,37128,4002,36770,827,41,-590,317,-956,220,1046,3243,43,38,916,1728,1864,2120,2229,2049,1863,1893,1994
752089,3060,37188,4067,36835,760,148,-587,339,-975,-16,1111,3298,60,44,915,1728,1864,2120,2229,2049,1863,1893,1994
753090,3156,37232,4132,36900,522,373,-586,349,-990,113,1159,3424,51,35,917,1728,1864,2120,2229,2049,1863,1893,1994
754091,3228,37296,4197,36965,813,124,-570,336,-988,-61,943,3273,41,33,917,1724,1852,2106,2204,2055,1869,1891,1994
755092,3304,37356,4262,37030,751,180,-561,333,-979,-364,717,3250,38,40,918,1724,1852,2106,2204,2055,1869,1891,1994
756093,3372,37424,4327,37095,847,76,-556,315,-974,-227,750,3221,51,49,917,1724,1852,2106,2204,2055,1869,1891,1994
757094,3472,37460,4392,37160,406,511,-552,267,-975,-278,732,3010,51,41,917,1724,1852,2106,2204,2055,1869,1891,1994
758095,3548,37520,4457,37225,692,217,-574,218,-976,-612,736,3056,57,41,917,1724,1852,2106,2204,2055,1869,1891,1994
759096,3628,37572,4522,37290,624,333,-591,175,-978,-468,858,2970,50,50,918,1700,1827,2089,2196,2041,1862,1878,1970
760097,3712,37640,4587,37355,552,130,-615,124,-980,-596,700,2871,57,41,918,1700,1827,2089,2196,2041,1862,1878,1970
761098,3792,37716,4652,37420,583,16,-635,79,-975,-549,762,3054,46,47,917,1700,1827,2089,2196,2041,1862,1878,1970
762099,3888,37784,4717,37485,345,113,-654,45,-968,-383,759,3197,55,48,918,1700,1827,2089,2196,2041,1862,1878,1970
763100,3956,37848,4782,37550,693,163,-674,1,-958,-429,746,2992,37,41,918,1700,1827,2089,2196,2041,1862,1878,1970
764101,4040,37920,4847,37615,470,54,-704,-16,-952,-351,832,3134,42,54,919,1700,1827,2089,2196,2041,1862,1878,1970
765102,4108,37976,4912,37680,666,265,-727,-5,-942,-168,872,3194,40,47,917,1685,1813,2067,2178,2023,1847,1874,1966
766103,4192,38044,4977,37745,443,112,-747,2,-940,142,762,3211,36,40,919,1685,1813,2067,2178,2023,1847,1874,1966
767104,4264,38124,5042,37810,585,-57,-751,36,-951,55,823,3465,53,42,917,1685,1813,2067,2178,2023,1847,1874,1966
768105,4348,38192,5107,37875,412,90,-752,53,-958,-126,709,3172,50,48,918,1685,1813,2067,2178,2023,1847,1874,1966
769106,4416,38268,5172,37940,608,-24,-753,87,-959,85,724,3403,39,40,917,1685,1813,2067,2178,2023,1847,1874,1966
770107,4500,38332,5237,38005,386,127,-767,110,-966,343,730,3204,37,55,919,1685,1814,2061,2166,2034,1849,1883,1983
771108,4580,38408,5302,38070,418,-37,-755,120,-995,248,504,3178,50,54,918,1685,1814,2061,2166,2034,1849,1883,1983
772109,4656,38484,5367,38135,454,-51,-737,135,-1012,-329,431,3258,44,51,919,1685,1814,2061,2166,2034,1849,1883,1983
773110,4744,38572,5432,38200,276,-229,-740,170,-1028,-125,622,3264,45,40,919,1685,1814,2061,2166,2034,1849,1883,1983
774111,4820,38652,5497,38265,414,-147,-743,165,-1043,89,549,2998,51,54,919,1685,1814,2061,2166,2034,1849,1883,1983
775115,4884,38732,5562,38330,565,-165,-753,153,-1043,-330,481,3181,44,52,919,1685,1814,2061,2166,2034,1849,1883,1983
776113,4972,38796,5627,38395,237,36,-759,168,-1037,-338,570,3341,41,40,919,1695,1825,2078,2192,2056,1864,1896,1988
777114,5040,38864,5692,38460,483,-18,-764,153,-1035,-240,551,3084,51,46,918,1695,1825,2078,2192,2056,1864,1896,1988
778115,5128,38944,5757,38525,206,-187,-764,106,-1030,-462,562,3020,55,54,920,1695,1825,2078,2192,2056,1864,1896,1988
779116,5188,39000,5822,38590,562,124,-768,81,-1018,-479,474,3075,50,53,919,1695,1825,2078,2192,2056,1864,1896,1988
780117,5284,39064,5887,38655,75,25,-770,78,-1008,-280,444,3243,42,57,920,1695,1825,2078,2192,2056,1864,1896,1988
781118,5364,39120,5952,38720,256,136,-753,75,-1004,-28,496,3214,48,45,918,1711,1841,2093,2216,2051,1861,1895,1982
782119,5448,39192,6017,38785,184,-72,-751,78,-984,-165,377,3159,45,47,920,1711,1841,2093,2216,2051,1861,1895,1982
783120,5516,39256,6082,38850,380,29,-744,116,-968,-110,424,3318,35,41,920,1711,1841,2093,2216,2051,1861,1895,1982
784121,5608,39308,6147,38915,47,194,-749,158,-957,221,424,3352,51,44,920,1711,1841,2093,2216,2051,1861,1895,1982
785122,5688,39396,6212,38980,179,-284,-749,184,-959,436,525,3334,55,45,919,1711,1841,2093,2216,2051,1861,1895,1982
786123,5772,39452,6277,39045,106,127,-754,215,-954,145,404,3378,39,42,919,1723,1841,2093,2216,2051,1861,1895,1982
787124,5840,39524,6342,39110,303,-82,-756,255,-953,173,466,3598,42,55,919,1723,1850,2095,2220,2031,1846,1887,1974
788125,5916,39596,6407,39175,190,-90,-759,291,-943,295,362,3479,38,46,921,1723,1850,2095,2220,2031,1846,1887,1974
789126,6000,39680,6472,39240,67,-264,-754,324,-928,488,390,3518,51,51,920,1723,1850,2095,2220,2031,1846,1887,1974
790127,6080,39764,6537,39305,98,-287,-753,332,-902,166,322,3606,31,40,920,1723,1850,2095,2220,2031,1846,1887,1974
791128,6160,39840,6602,39370,80,-201,-763,332,-903,181,286,3610,38,42,919,1723,1850,2095,2220,2031,1846,1887,1974
792129,6232,39900,6667,39435,173,5,-767,344,-897,77,321,3605,47,49,920,1729,1852,2095,2222,2022,1837,1877,1964
793130,6300,39968,6732,39500,219,-99,-771,347,-899,333,356,3402,37,55,920,1729,1852,2095,2222,2022,1837,1877,1964
794131,6384,40068,6797,39565,-4,-542,-771,335,-888,131,200,3559,52,52,921,1729,1852,2095,2222,2022,1837,1877,1964
795132,6460,40152,6862,39630,82,-365,-776,327,-882,70,179,3470,47,51,920,1729,1852,2095,2222,2022,1837,1877,1964
796133,6552,40200,6927,39695,-151,105,-777,328,-881,137,244,3449,30,45,918,1729,1852,2095,2222,2022,1837,1877,1964
797134,6636,40272,6992,39760,-74,-203,-768,343,-866,254,304,3427,42,34,919,1727,1851,2098,2222,2044,1852,1890,1982
798135,6716,40332,7057,39825,-42,-47,-757,361,-847,114,322,3511,34,40,915,1727,1851,2098,2222,2044,1852,1890,1982
799136,6796,40400,7122,39890,-60,-151,-741,372,-851,34,224,3561,36,40,919,1727,1851,2098,2222,2044,1852,1890,1982
800137,6876,40476,7187,39955,-78,-264,-731,414,-840,17,103,3718,35,37,921,1727,1851,2098,2222,2044,1852,1890,1982
801138,6944,40548,7252,40020,68,-224,-731,463,-844,571,213,3255,50,47,920,1727,1851,2098,2222,2044,1852,1890,1982
802139,7040,40608,7317,40085,-319,-68,-737,464,-827,379,103,3216,32,49,918,1727,1851,2098,2222,2044,1852,1890,1982
803140,7116,40680,7382,40150,-83,-226,-727,449,-811,81,189,3657,31,40,920,1724,1851,2091,2212,2048,1850,1892,1985
804141,7192,40744,7447,40215,-96,-125,-716,465,-799,-27,109,3430,31,47,921,1724,1851,2091,2212,2048,1850,1892,1985
805142,7256,40800,7512,40280,55,-14,-718,477,-791,202,78,3377,32,39,918,1724,1851,2091,2212,2048,1850,1892,1985
806143,7340,40864,7577,40345,-218,-114,-737,465,-784,154,154,3621,36,45,918,1724,1851,2091,2212,2048,1850,1892,1985
807144,7420,40924,7642,40410,-187,-58,-776,417,-772,108,129,3239,51,43,920,1724,1851,2091,2212,2048,1850,1892,1985
808145,7484,40984,7707,40475,15,-52,-803,367,-751,51,147,3330,43,39,911,1716,1846,2079,2198,2041,1841,1889,1987
809146,7560,41064,7772,40540,-148,-320,-838,337,-733,54,112,3476,52,39,913,1716,1846,2079,2198,2041,1841,1889,1987
810147,7648,41140,7837,40605,-326,-284,-870,346,-727,238,85,3418,33,54,921,1716,1846,2079,2198,2041,1841,1889,1987
811148,7716,41216,7902,40670,-79,-298,-900,354,-701,381,27,3412,48,37,914,1716,1846,2079,2198,2041,1841,1889,1987
812149,7792,41288,7967,40735,-193,-257,-924,363,-665,521,33,3565,33,46,920,1716,1846,2079,2198,2041,1841,1889,1987
813150,7876,41344,8032,40800,-316,-46,-946,423,-644,513,-123,3547,36,42,918,1716,1846,2079,2198,2041,1841,1889,1987
814151,7944,41420,8097,40865,-120,-309,-945,503,-627,616,-207,3305,40,41,913,1707,1843,2072,2174,2083,1872,1921,2042
815152,8032,41480,8162,40930,-398,-103,-916,590,-597,591,-224,3481,37,50,921,1707,1843,2072,2174,2083,1872,1921,2042
816153,8104,41560,8227,40995,-206,-372,-892,674,-590,519,-304,3444,36,49,916,1707,1843,2072,2174,2083,1872,1921,2042
817154,8196,41632,8292,41060,-489,-281,-867,739,-587,566,-432,3334,45,37,920,1707,1843,2072,2174,2083,1872,1921,2042
818155,8312,41696,8357,41125,-852,-180,-829,740,-585,262,-324,3379,38,36,912,1707,1843,2072,2174,2083,1872,1921,2042
819156,8380,41748,8422,41190,-255,-14,-788,687,-595,-420,-519,3543,54,50,919,1686,1822,2058,2156,2103,1883,1910,2016
820157,8460,41796,8487,41255,-424,56,-739,660,-621,-392,-613,3782,40,39,919,1686,1822,2058,2156,2103,1883,1910,2016
821158,8552,41848,8552,41320,-606,22,-720,588,-642,-233,-570,3556,57,53,920,1686,1822,2058,2156,2103,1883,1910,2016
822159,8636,41928,8617,41385,-530,-346,-706,495,-642,-707,-490,3700,49,47,920,1686,1822,2058,2156,2103,1883,1910,2016
823160,8716,41992,8682,41450,-498,-145,-730,375,-642,-664,-403,3724,54,52,921,1686,1822,2058,2156,2103,1883,1910,2016
824161,8788,42044,8747,41515,-407,21,-789,282,-643,-299,-214,4021,56,36,919,1686,1822,2058,2156,2103,1883,1910,2016
825162,8892,42112,8812,41580,-854,-184,-869,234,-652,154,-301,4010,46,51,920,1692,1826,2057,2193,2030,1828,1886,1965
826163,8976,42164,8877,41645,-627,32,-941,243,-674,147,-461,4099,58,52,921,1692,1826,2057,2193,2030,1828,1886,1965
827164,9068,42244,8942,41710,-760,-336,-1002,318,-686,266,-527,4343,60,38,920,1692,1826,2057,2193,2030,1828,1886,1965
828165,9140,42328,9007,41775,-519,-410,-1054,464,-682,646,-622,4815,61,40,921,1692,1826,2057,2193,2030,1828,1886,1965
829166,9260,42396,9072,41840,-1186,-213,-1089,621,-652,952,-1285,4893,44,37,920,1692,1826,2057,2193,2030,1828,1886,1965
830167,9368,42456,9137,41905,-1088,-108,-1099,776,-633,1246,-1279,4711,60,44,919,1736,1872,2067,2204,2005,1814,1886,1975
831168,9452,42496,9202,41970,-812,172,-1086,880,-617,432,-1319,4950,44,39,920,1736,1872,2067,2204,2005,1814,1886,1975
832169,9572,42544,9267,42035,-1329,93,-1058,929,-600,210,-1613,5088,59,50,920,1736,1872,2067,2204,2005,1814,1886,1975
833170,9676,42612,9332,42100,-1177,-160,-1028,891,-569,512,-1655,5093,58,39,920,1736,1872,2067,2204,2005,1814,1886,1975
834171,9792,42676,9397,42165,-1390,-109,-976,808,-544,-222,-1774,5093,59,37,920,1736,1872,2067,2204,2005,1814,1886,1975
835172,9892,42732,9462,42230,-1232,1,-902,714,-562,-769,-1886,5378,57,37,921,1736,1872,2067,2204,2005,1814,1886,1975
836173,10000,42784,9527,42295,-1385,67,-816,532,-590,-925,-1575,4768,46,45,920,1708,1841,2053,2175,2010,1816,1875,1943
837174,10104,42840,9592,42360,-1382,28,-735,203,-638,-1036,-1415,4180,53,36,920,1708,1841,2053,2175,2010,1816,1875,1943
838175,10192,42896,9657,42425,-1211,39,-671,-66,-671,-1448,-1190,4505,61,48,921,1708,1841,2053,2175,2010,1816,1875,1943
839176,10320,42972,9722,42490,-1788,-225,-644,-175,-719,-1198,-1120,4700,65,44,915,1708,1841,2053,2175,2010,1816,1875,1943
840177,10424,43032,9787,42555,-1536,-20,-648,-213,-773,-225,-1007,4036,69,45,921,1708,1841,2053,2175,2010,1816,1875,1943
841178,10528,43088,9852,42620,-1584,41,-681,-198,-840,143,-775,4237,66,43,920,1705,1856,2041,2166,1916,1711,1810,1884
842179,10640,43148,9917,42685,-1741,-3,-759,-119,-874,509,-1151,4473,56,50,921,1705,1856,2041,2166,1916,1711,1810,1884
843180,10764,43180,9982,42750,-1964,388,-825,-17,-880,938,-1132,4974,74,36,918,1705,1856,2041,2166,1916,1711,1810,1884
844181,10892,43236,10047,42815,-2091,99,-909,76,-892,791,-1303,4885,68,33,921,1705,1856,2041,2166,1916,1711,1810,1884
845182,11024,43308,10112,42880,-2223,-110,-961,129,-896,643,-1682,5489,71,37,919,1705,1856,2041,2166,1916,1711,1810,1884
846183,11144,43360,10177,42945,-2141,155,-976,123,-898,566,-1872,5773,56,38,921,1705,1856,2041,2166,1916,1711,1810,1884
847184,11268,43412,10242,43010,-2263,171,-935,33,-889,-459,-2174,5648,74,48,918,1699,1841,1981,2068,1844,1652,1759,1855
848185,11384,43452,10307,43075,-2225,351,-860,-83,-873,-1187,-2332,5926,76,47,921,1699,1841,1981,2068,1844,1652,1759,1855
849186,11508,43508,10372,43140,-2398,162,-756,-189,-854,-1011,-2510,6102,67,39,920,1699,1841,1981,2068,1844,1652,1759,1855
850187,11640,43572,10437,43205,-2580,64,-639,-330,-820,-680,-2545,5654,68,48,920,1699,1841,1981,2068,1844,1652,1759,1855
851188,11772,43636,10502,43270,-2663,65,-521,-483,-801,-1031,-2701,5781,70,33,919,1699,1841,1981,2068,1844,1652,1759,1855
852189,11904,43688,10567,43335,-2745,231,-415,-671,-785,-1363,-2528,5342,64,45,921,1590,1739,1911,1995,1905,1707,1795,1898
853190,12024,43740,10632,43400,-2663,245,-326,-834,-766,-1336,-2362,5092,74,43,920,1590,1739,1911,1995,1905,1707,1795,1898
854191,12152,43796,10697,43465,-2840,206,-242,-964,-741,-1153,-2206,4854,60,38,920,1590,1739,1911,1995,1905,1707,1795,1898
855192,12284,43844,10762,43530,-2972,327,-183,-1099,-736,-860,-1881,4496,80,40,919,1590,1739,1911,1995,1905,1707,1795,1898
856193,12396,43912,10827,43595,-2780,74,-140,-1137,-738,-862,-1772,4770,67,36,920,1590,1739,1911,1995,1905,1707,1795,1898
857194,12544,43996,10892,43660,-3332,-150,-122,-1173,-733,-838,-1727,4365,68,41,920,1590,1739,1911,1995,1905,1707,1795,1898
858195,12684,44008,10957,43725,-3325,815,-106,-1178,-724,-627,-1743,4363,61,46,921,1615,1773,1944,2049,1929,1720,1825,1909
859196,12800,44056,11022,43790,-3087,386,-88,-1117,-705,-351,-1534,4394,83,46,920,1615,1773,1944,2049,1929,1720,1825,1909
860197,12928,44128,11087,43855,-3315,77,-82,-1023,-699,-1,-1535,4480,69,49,917,1615,1773,1944,2049,1929,1720,1825,1909
861198,13036,44200,11152,43920,-3118,68,-76,-915,-694,-152,-1607,4503,69,38,919,1615,1773,1944,2049,1929,1720,1825,1909
862199,13168,44256,11217,43985,-3500,279,-75,-818,-703,-240,-1383,4481,62,35,921,1615,1773,1944,2049,1929,1720,1825,1909
863200,13296,44340,11282,44050,-3528,-95,-53,-783,-677,-632,-1470,4479,70,44,920,1641,1772,1920,2022,1884,1677,1770,1839
864201,13404,44400,11347,44115,-3331,212,6,-812,-624,-23,-1881,4452,67,46,920,1641,1772,1920,2022,1884,1677,1770,1839
865202,13516,44444,11412,44180,-3440,437,70,-799,-585,-371,-1520,4921,67,35,920,1641,1772,1920,2022,1884,1677,1770,1839
866203,13656,44524,11477,44245,-3800,-31,148,-670,-565,-1652,-1710,5296,78,44,920,1641,1772,1920,2022,1884,1677,1770,1839
867204,13776,44612,11542,44310,-3700,-159,249,-519,-550,-945,-2338,4833,65,50,919,1641,1772,1920,2022,1884,1677,1770,1839
868205,13892,44664,11607,44375,-3713,307,336,-486,-520,-723,-2314,4573,69,34,921,1641,1772,1920,2022,1884,1677,1770,1839
869206,14008,44720,11672,44440,-3776,268,413,-504,-481,-1658,-2151,4507,61,46,920,1551,1671,1845,1946,1837,1642,1703,1768
870207,14132,44760,11737,44505,-3800,497,475,-516,-469,-1619,-1950,4240,69,49,919,1551,1671,1845,1946,1837,1642,1703,1768
871208,14272,44832,11802,44570,-3800,89,521,-533,-434,-1406,-2005,4289,65,35,919,1551,1671,1845,1946,1837,1642,1703,1768
872209,14384,44896,11867,44635,-3800,190,538,-591,-398,-1447,-1825,4053,65,37,919,1551,1671,1845,1946,1837,1642,1703,1768
873210,14468,44956,11932,44700,-3624,246,527,-624,-364,-1296,-1315,4340,67,36,921,1551,1671,1845,1946,1837,1642,1703,1768
874211,14588,45000,11997,44765,-3800,472,504,-586,-317,-724,-1311,4155,76,36,920,1533,1659,1856,1975,1813,1637,1707,1776
875212,14684,45068,12062,44830,-3800,168,477,-510,-270,165,-1170,4086,72,47,920,1533,1659,1856,1975,1813,1637,1707,1776
876213,14796,45148,12127,44895,-3800,0,441,-349,-215,549,-946,3704,75,49,904,1533,1659,1856,1975,1813,1637,1707,1776
877214,14928,45200,12192,44960,-3800,366,386,-65,-145,535,-1232,3629,56,37,920,1533,1659,1856,1975,1813,1637,1707,1776
878215,15044,45256,12257,45025,-3800,327,299,224,-89,708,-1047,2974,66,34,921,1533,1659,1856,1975,1813,1637,1707,1776
879216,15120,45316,12322,45090,-3800,283,217,440,-41,808,-993,2423,65,47,920,1533,1659,1856,1975,1813,1637,1707,1776
880217,15268,45352,12387,45155,-3800,617,139,638,-15,736,-1038,2721,64,42,914,1603,1724,1924,2035,1882,1706,1777,1862
881218,15360,45360,12452,45220,-3800,1037,104,728,11,159,-1290,2249,69,37,920,1603,1724,1924,2035,1882,1706,1777,1862
882219,15472,45416,12517,45285,-3800,448,115,739,22,-167,-1379,2656,65,37,919,1603,1724,1924,2035,1882,1706,1777,1862
883220,15584,45496,12582,45350,-3800,129,173,692,25,-515,-1498,2885,63,44,916,1603,1724,1924,2035,1882,1706,1777,1862
884221,15680,45552,12647,45415,-3800,440,243,557,13,-674,-1639,3102,51,57,915,1603,1724,1924,2035,1882,1706,1777,1862
885222,15780,45632,12712,45480,-3800,122,301,410,-11,-716,-1499,3679,53,55,921,1544,1654,1862,1947,1949,1748,1771,1856
886223,15888,45696,12777,45545,-3800,323,341,314,-14,-674,-1185,3399,57,54,919,1544,1654,1862,1947,1949,1748,1771,1856
887224,16004,45780,12842,45610,-3800,50,394,163,-43,-467,-1079,3534,62,44,920,1544,1654,1862,1947,1949,1748,1771,1856
888225,16092,45856,12907,45675,-3800,137,414,49,-69,-131,-1052,4155,55,56,915,1544,1654,1862,1947,1949,1748,1771,1856
889226,16172,45944,12972,45740,-3800,-42,405,82,-86,203,-894,3834,52,56,921,1544,1654,1862,1947,1949,1748,1771,1856
890227,16284,46012,13037,45805,-3800,205,358,201,-114,1368,-719,4047,67,55,920,1544,1654,1862,1947,1949,1748,1771,1856
891228,16380,46076,13102,45870,-3800,256,305,329,-115,1477,-489,4284,58,43,921,1473,1594,1795,1878,1895,1694,1751,1840
892229,16476,46144,13167,45935,-3800,202,256,395,-85,841,-478,3718,53,52,919,1473,1594,1795,1878,1895,1694,1751,1840
893230,16572,46232,13232,46000,-3800,-76,218,414,-52,547,-592,3895,54,45,920,1473,1594,1795,1878,1895,1694,1751,1840
894231,16668,46296,13297,46065,-3800,225,187,387,-10,682,-509,3859,61,53,921,1473,1594,1795,1878,1895,1694,1751,1840
895232,16752,46380,13362,46130,-3800,-49,155,290,43,604,-723,3323,57,43,921,1473,1594,1795,1878,1895,1694,1751,1840
896233,16860,46432,13427,46195,-3800,367,119,180,97,290,-766,3536,56,51,919,1501,1640,1826,1921,1901,1714,1783,1875
897234,16928,46508,13492,46260,-3800,54,77,108,149,207,-737,3489,49,39,921,1501,1640,1826,1921,1901,1714,1783,1875
898235,17016,46584,13557,46325,-3800,40,35,27,184,399,-738,3251,48,50,920,1501,1640,1826,1921,1901,1714,1783,1875
899236,17100,46648,13622,46390,-3800,192,4,-43,200,489,-678,3503,55,48,921,1501,1640,1826,1921,1901,1714,1783,1875
900237,17192,46712,13687,46455,-3800,193,-19,-138,219,419,-719,3284,37,46,920,1501,1640,1826,1921,1901,1714,1783,1875
901238,17252,46768,13752,46520,-3800,304,-20,-221,201,348,-699,3430,40,50,920,1501,1640,1826,1921,1901,1714,1783,1875
902239,17324,46832,13817,46585,-3800,205,-3,-282,175,324,-630,3795,53,47,920,1545,1679,1856,1972,1965,1769,1821,1917
903240,17400,46872,13882,46650,-3800,536,29,-344,131,436,-676,3781,48,36,920,1545,1679,1856,1972,1965,1769,1821,1917
904241,17472,46956,13947,46715,-3800,-39,55,-408,75,473,-522,3939,34,34,920,1545,1679,1856,1972,1965,1769,1821,1917
905242,17544,47016,14012,46780,-3800,267,86,-447,25,242,-433,4298,42,34,919,1545,1679,1856,1972,1965,1769,1821,1917
906243,17616,47092,14077,46845,-3800,54,112,-500,-29,429,-264,4374,45,40,921,1545,1679,1856,1972,1965,1769,1821,1917
907244,17680,47144,14142,46910,-3800,370,141,-531,-63,268,-166,4596,42,46,920,1522,1648,1845,1928,1978,1764,1815,1897
908245,17740,47208,14207,46975,-3800,221,159,-556,-95,104,-26,4576,31,33,921,1522,1648,1845,1928,1978,1764,1815,1897
909246,17804,47280,14272,47040,-3800,113,166,-538,-122,246,24,4772,48,41,920,1522,1648,1845,1928,1978,1764,1815,1897
910247,17868,47340,14337,47105,-3800,269,163,-471,-132,278,141,4874,28,24,920,1522,1648,1845,1928,1978,1764,1815,1897
911248,17928,47392,14402,47170,-3800,385,155,-414,-125,99,172,4760,44,36,921,1522,1648,1845,1928,1978,1764,1815,1897
912249,17980,47456,14467,47235,-3800,236,141,-334,-96,-3,199,4785,41,39,920,1522,1648,1845,1928,1978,1764,1815,1897
913250,18028,47508,14532,47300,-3800,402,122,-263,-68,-76,195,4777,26,44,919,1481,1619,1796,1883,1935,1726,1798,1885
914251,18068,47592,14597,47365,-3800,-22,103,-206,-31,-233,180,4766,27,31,920,1481,1619,1796,1883,1935,1726,1798,1885
915252,18124,47648,14662,47430,-3800,339,94,-173,7,-518,75,4567,33,45,919,1481,1619,1796,1883,1935,1726,1798,1885
916253,18172,47704,14727,47495,-3800,349,92,-134,34,-595,89,4824,33,35,921,1481,1619,1796,1883,1935,1726,1798,1885
917254,18200,47772,14792,47560,-3800,196,97,-114,68,-615,-137,4541,21,38,920,1481,1619,1796,1883,1935,1726,1798,1885
918255,18248,47824,14857,47625,-3800,412,109,-85,91,-628,-234,4493,30,33,920,1468,1618,1798,1884,1958,1746,1810,1905
919256,18296,47884,14922,47690,-3800,318,118,-53,109,-591,-288,4545,17,28,920,1468,1618,1798,1884,1958,1746,1810,1905
920257,18336,47944,14987,47755,-3800,324,130,2,112,-491,-307,4220,26,35,920,1468,1618,1798,1884,1958,1746,1810,1905
921258,18364,48008,15052,47820,-3800,275,128,58,99,-388,-294,4214,31,31,912,1468,1618,1798,1884,1958,1746,1810,1905
922259,18392,48072,15117,47885,-3800,276,131,100,79,-190,-233,4185,28,36,919,1468,1618,1798,1884,1958,1746,1810,1905
923260,18432,48108,15182,47950,-3800,662,135,134,38,-258,-278,4098,25,37,920,1468,1618,1798,1884,1958,1746,1810,1905
924261,18460,48184,15247,48015,-3800,148,144,156,2,-311,-269,4151,29,30,920,1485,1633,1830,1909,1980,1760,1811,1912
925262,18480,48236,15312,48080,-3660,464,145,166,-31,-99,-187,4129,10,45,913,1485,1633,1830,1909,1980,1760,1811,1912
926263,18508,48308,15377,48145,-3717,206,140,163,-56,-199,-168,4134,8,44,920,1485,1633,1830,1909,1980,1760,1811,1912
927264,18532,48368,15442,48210,-3617,362,137,163,-84,-130,-79,4130,16,42,919,1485,1633,1830,1909,1980,1760,1811,1912
928265,18552,48440,15507,48275,-3514,203,118,178,-106,-134,27,4179,6,36,920,1485,1633,1830,1909,1980,1760,1811,1912
929266,18568,48520,15572,48340,-3405,84,96,183,-126,14,148,4014,10,31,917,1496,1642,1832,1910,1948,1732,1795,1890
930267,18592,48564,15637,48405,-3456,559,65,203,-134,132,137,3993,21,33,920,1496,1642,1832,1910,1948,1732,1795,1890
931268,18596,48620,15702,48470,-3132,420,31,228,-132,173,211,4038,19,36,920,1496,1642,1832,1910,1948,1732,1795,1890
932269,18604,48708,15767,48535,-3115,-8,-10,271,-126,135,220,3894,17,30,919,1496,1642,1832,1910,1948,1732,1795,1890
933270,18628,48752,15832,48600,-3266,568,-47,284,-114,18,194,3806,7,41,917,1496,1642,1832,1910,1948,1732,1795,1890
934271,18624,48816,15897,48665,-2832,319,-68,281,-97,-155,119,3966,14,37,921,1496,1642,1832,1910,1948,1732,1795,1890
935272,18620,48872,15962,48730,-2749,430,-69,251,-76,-152,36,3835,13,28,919,1492,1631,1802,1878,1921,1705,1782,1879
936273,18640,48936,16027,48795,-2995,331,-66,206,-54,-339,-42,3916,16,38,920,1492,1631,1802,1878,1921,1705,1782,1879
937274,18640,48992,16092,48860,-2667,442,-58,157,-33,-461,-4,3937,12,41,918,1492,1631,1802,1878,1921,1705,1782,1879
938275,18652,49052,16157,48925,-2753,398,-45,78,-19,-411,21,3779,11,40,918,1492,1631,1802,1878,1921,1705,1782,1879
939276,18640,49124,16222,48990,-2360,240,-26,17,-17,-373,13,3873,8,43,918,1492,1631,1802,1878,1921,1705,1782,1879
940277,18644,49188,16287,49055,-2487,341,-5,-46,-1,-387,-27,3782,13,31,919,1459,1603,1775,1853,1943,1727,1794,1899
941278,18640,49252,16352,49120,-2302,342,27,-92,-4,-328,2,3859,9,41,919,1459,1603,1775,1853,1943,1727,1794,1899
942279,18644,49308,16417,49185,-2329,453,50,-139,-12,-301,48,3760,1,39,920,1459,1603,1775,1853,1943,1727,1794,1899
943280,18628,49396,16482,49250,-1981,25,67,-172,-38,-100,32,3675,-4,36,920,1459,1603,1775,1853,1943,1727,1794,1899
944281,18640,49468,16547,49315,-2267,217,79,-182,-61,-94,91,3687,-7,36,919,1459,1603,1775,1853,1943,1727,1794,1899
945282,18620,49536,16612,49380,-1765,263,88,-211,-60,29,215,3591,1,40,920,1459,1603,1775,1853,1943,1727,1794,1899
946283,18632,49592,16677,49445,-2101,423,88,-214,-73,-37,208,3568,-3,28,920,1470,1617,1800,1877,1950,1731,1801,1903
947284,18632,49648,16742,49510,-1872,434,76,-218,-105,148,239,3483,-2,26,920,1470,1617,1800,1877,1950,1731,1801,1903
948285,18632,49708,16807,49575,-1793,390,67,-188,-134,63,226,3558,-7,39,919,1470,1617,1800,1877,1950,1731,1801,1903
949286,18620,49788,16872,49640,-1550,122,47,-174,-159,37,239,3445,5,37,919,1470,1617,1800,1877,1950,1731,1801,1903
950289,18624,49832,16937,49705,-1676,597,28,-144,-161,7,247,3612,8,32,920,1470,1617,1800,1877,1950,1731,1801,1903
951288,18616,49892,17002,49770,-1438,404,8,-140,-167,-106,266,3369,6,25,921,1506,1649,1829,1911,1931,1718,1789,1883
952289,18600,49968,17067,49835,-1240,190,-11,-152,-190,-215,213,3574,-7,29,919,1506,1649,1829,1911,1931,1718,1789,1883
953290,18620,50012,17132,49900,-1635,616,-22,-180,-189,-420,228,3595,4,29,919,1506,1649,1829,1911,1931,1718,1789,1883
954291,18604,50072,17197,49965,-1087,422,-31,-212,-175,-432,150,3622,-3,41,920,1506,1649,1829,1911,1931,1718,1789,1883
955292,18600,50144,17396,50164,-989,427,-36,-220,-164,-419,150,3674,11,41,918,1506,1649,1829,1911,1931,1718,1789,1883
956293,18604,50204,17461,50229,-1016,583,-32,-230,-155,-450,59,3768,2,45,919,1506,1649,1829,1911,1931,1718,1789,1883
957294,18596,50268,17526,50294,-777,534,-22,-240,-152,-395,48,3898,-2,32,919,1491,1632,1812,1889,1925,1714,1764,1871
958295,18592,50340,17591,50359,-743,426,-23,-235,-140,-405,26,3913,2,33,919,1491,1632,1812,1889,1925,1714,1764,1871
959296,18600,50412,17656,50424,-824,417,-7,-216,-134,-230,30,3886,-2,47,919,1491,1632,1812,1889,1925,1714,1764,1871
960297,18596,50492,17721,50489,-590,299,9,-219,-123,-312,37,4219,8,34,919,1491,1632,1812,1889,1925,1714,1764,1871
961298,18592,50564,17786,50554,-506,390,34,-195,-121,-184,26,4144,-6,36,919,1491,1632,1812,1889,1925,1714,1764,1871
962299,18588,50636,17851,50619,-422,382,50,-183,-131,-63,23,4174,9,35,920,1467,1606,1792,1861,1929,1719,1782,1884
963300,18588,50728,17916,50684,-393,99,65,-137,-140,-41,168,4180,11,36,920,1467,1606,1792,1861,1929,1719,1782,1884
964301,18592,50808,17981,50749,-369,230,70,-103,-142,-66,151,4075,-8,35,919,1467,1606,1792,1861,1929,1719,1782,1884
965302,18580,50908,18046,50814,-75,-62,74,-67,-157,41,220,3928,-7,35,920,1467,1606,1792,1861,1929,1719,1782,1884
966303,18564,50964,18111,50879,74,499,66,-26,-181,135,222,3894,-5,37,917,1467,1606,1792,1861,1929,1719,1782,1884
967304,18568,51036,18176,50944,-102,290,63,13,-201,221,312,3713,9,42,921,1467,1606,1792,1861,1929,1719,1782,1884
968305,18572,51112,18241,51009,-28,227,52,26,-215,13,316,3555,-8,34,919,1472,1618,1804,1888,1954,1740,1808,1904
969306,18564,51184,18306,51074,211,268,49,37,-229,-158,322,3715,-4,46,917,1472,1618,1804,1888,1954,1740,1808,1904
970307,18568,51240,18371,51139,135,479,46,33,-243,-90,392,3646,-1,36,920,1472,1618,1804,1888,1954,1740,1808,1904
971308,18560,51324,18436,51204,374,106,48,31,-257,-116,369,3840,12,33,920,1472,1618,1804,1888,1954,1740,1808,1904
972309,18576,51380,18501,51269,134,467,41,44,-280,-60,301,3769,4,30,918,1472,1618,1804,1888,1954,1740,1808,1904
973310,18568,51424,18566,51334,523,643,38,38,-293,-111,231,3862,3,45,918,1493,1631,1817,1903,1958,1746,1806,1897
974311,18568,51504,18631,51399,502,174,41,2,-289,-169,186,3901,8,45,919,1493,1631,1817,1903,1958,1746,1806,1897
975312,18584,51568,18696,51464,362,376,37,-55,-277,-218,58,3800,19,33,916,1493,1631,1817,1903,1958,1746,1806,1897
976313,18580,51624,18761,51529,696,487,36,-83,-271,-161,56,4080,13,35,918,1493,1631,1817,1903,1958,1746,1806,1897
977314,18612,51700,18826,51594,287,222,35,-90,-261,-27,61,4020,4,39,918,1493,1631,1817,1903,1958,1746,1806,1897
978315,18624,51752,18891,51659,601,538,44,-69,-241,117,1,4233,26,38,916,1493,1631,1817,1903,1958,1746,1806,1897
979316,18632,51820,18956,51724,721,334,50,-44,-217,200,-2,4294,17,34,919,1474,1608,1794,1872,1947,1736,1792,1890
980317,18676,51880,19021,51789,298,440,65,-19,-200,153,-28,4335,12,38,916,1474,1608,1794,1872,1947,1736,1792,1890
981318,18708,51944,19086,51854,488,392,87,23,-195,204,-116,4345,37,46,916,1474,1608,1794,1872,1947,1736,1792,1890
982319,18736,52016,19151,51919,583,283,94,69,-204,364,-64,4229,34,34,918,1474,1608,1794,1872,1947,1736,1792,1890
983320,18772,52084,19216,51984,518,329,100,77,-205,201,58,4289,20,36,917,1474,1608,1794,1872,1947,1736,1792,1890
984321,18808,52148,19281,52049,554,381,113,32,-214,-21,8,4109,27,37,918,1459,1594,1781,1861,1941,1729,1788,1884
985322,18864,52216,19346,52114,315,327,120,-27,-218,-209,116,4249,41,42,918,1459,1594,1781,1861,1941,1729,1788,1884
986323,18904,52280,19411,52179,546,378,111,-75,-218,-346,165,4086,42,45,917,1459,1594,1781,1861,1941,1729,1788,1884
987324,18936,52360,19476,52244,687,160,95,-95,-228,-40,242,3997,42,39,919,1459,1594,1781,1861,1941,1729,1788,1884
988325,18996,52408,19541,52309,343,581,69,-109,-230,-30,300,3880,41,38,917,1459,1594,1781,1861,1941,1729,1788,1884
989326,19052,52472,19606,52374,404,382,46,-107,-234,-66,306,3976,31,33,917,1459,1594,1781,1861,1941,1729,1788,1884
990327,19112,52536,19671,52439,360,383,37,-109,-243,-141,265,3661,46,31,917,1476,1612,1800,1888,1956,1744,1808,1904
991328,19176,52608,19736,52504,312,275,36,-140,-251,-156,230,3836,38,29,918,1476,1612,1800,1888,1956,1744,1808,1904
992329,19232,52652,19801,52569,423,650,40,-162,-253,-113,126,3998,32,35,918,1476,1612,1800,1888,1956,1744,1808,1904
993330,19296,52728,19866,52634,324,237,41,-152,-249,-103,108,3771,34,41,919,1476,1612,1800,1888,1956,1744,1808,1904
994331,19356,52784,19931,52699,380,498,33,-125,-258,191,88,4052,50,34,917,1476,1612,1800,1888,1956,1744,1808,1904
995332,19404,52860,19996,52764,551,234,30,-71,-251,223,-87,3786,39,44,919,1486,1620,1805,1887,1962,1745,1807,1906
996333,19472,52908,20061,52829,298,605,27,-45,-237,88,-53,4023,43,37,918,1486,1620,1805,1887,1962,1745,1807,1906
997334,19524,52968,20126,52894,514,461,31,-42,-227,-11,-106,3905,43,33,918,1486,1620,1805,1887,1962,1745,1807,1906
998335,19588,53036,20191,52959,366,358,50,-67,-214,-188,-71,4063,47,46,917,1486,1620,1805,1887,1962,1745,1807,1906
999336,19668,53084,20256,53024,147,628,59,-96,-195,-232,-69,4125,48,39,917,1486,1620,1805,1887,1962,1745,1807,1906
1000341,19728,53124,20321,53089,404,759,77,-112,-168,-354,-98,4146,34,45,918,1486,1620,1805,1887,1962,1745,1807,1906
1001338,19804,53204,20386,53154,191,240,81,-110,-148,-207,-28,4140,42,43,918,1465,1596,1780,1858,1951,1734,1790,1884
1002339,19872,53264,20451,53219,287,497,79,-118,-131,-180,-9,4106,39,35,916,1465,1596,1780,1858,1951,1734,1790,1884
1003340,19924,53324,20516,53284,503,503,82,-145,-111,-320,52,4051,49,34,920,1465,1596,1780,1858,1951,1734,1790,1884
1004341,19980,53384,20581,53349,464,509,87,-172,-100,-368,76,3962,30,45,918,1465,1596,1780,1858,1951,1734,1790,1884
1005342,20056,53444,20646,53414,202,515,91,-192,-98,-276,132,4211,32,46,917,1465,1596,1780,1858,1951,1734,1790,1884
1006343,20120,53516,20711,53479,353,355,78,-171,-92,-163,171,4172,51,43,916,1450,1584,1769,1853,1932,1719,1781,1875
1007344,20164,53572,20776,53544,629,566,73,-136,-83,-34,179,4121,50,33,918,1450,1584,1769,1853,1932,1719,1781,1875
1008345,20244,53640,20841,53609,160,413,58,-88,-93,133,257,4220,51,46,918,1450,1584,1769,1853,1932,1719,1781,1875
1009346,20320,53708,20906,53674,198,409,63,-66,-96,-6,230,3956,52,32,916,1450,1584,1769,1853,1932,1719,1781,1875
1010347,20388,53780,20971,53739,294,350,60,-71,-91,-186,128,3823,30,32,919,1450,1584,1769,1853,1932,1719,1781,1875
1011348,20444,53828,21036,53804,455,671,67,-80,-85,-155,99,4039,43,39,919,1450,1584,1769,1853,1932,1719,1781,1875
1012349,20524,53900,21101,53869,137,363,73,-58,-86,-72,119,3865,31,29,919,1470,1600,1786,1876,1950,1740,1802,1897
1013350,20576,53944,21166,53934,503,738,76,-66,-84,-103,80,3905,34,39,916,1470,1600,1786,1876,1950,1740,1802,1897
1014351,20640,54004,21231,53999,355,544,75,-48,-70,-195,31,3944,37,29,919,1470,1600,1786,1876,1950,1740,1802,1897
1015352,20700,54068,21296,54064,411,496,78,-51,-62,-129,58,3837,31,44,916,1470,1600,1786,1876,1950,1740,1802,1897
1016354,20764,54136,21361,54129,362,442,82,-70,-47,-118,62,3920,37,33,918,1470,1600,1786,1876,1950,1740,1802,1897
1017354,20828,54188,21426,54194,363,658,96,-97,-29,-290,18,3877,32,44,918,1484,1613,1804,1892,1957,1745,1801,1894
1018355,20900,54252,21491,54259,256,509,109,-118,-22,-265,-8,3949,41,31,917,1484,1613,1804,1892,1957,1745,1801,1894
1019356,20944,54312,21556,54324,632,565,120,-111,-17,-129,-36,4049,31,31,918,1484,1613,1804,1892,1957,1745,1801,1894
1020357,21012,54376,21621,54389,328,516,127,-91,-11,13,46,4043,29,31,916,1484,1613,1804,1892,1957,1745,1801,1894
1021358,21084,54436,21686,54454,269,572,124,-79,1,39,56,4118,39,46,918,1484,1613,1804,1892,1957,1745,1801,1894
1022359,21124,54508,21751,54519,700,414,125,-73,-1,-75,60,3984,44,36,917,1481,1609,1801,1887,1939,1732,1788,1876
1023360,21204,54584,21816,54584,183,351,122,-68,-1,-33,103,4204,30,42,916,1481,1609,1801,1887,1939,1732,1788,1876
1024361,21256,54612,21881,54649,548,996,114,-64,5,24,79,4148,35,41,919,1481,1609,1801,1887,1939,1732,1788,1876
1025362,21324,54672,21946,54714,345,602,107,-63,10,-47,94,4156,35,37,914,1481,1609,1801,1887,1939,1732,1788,1876
1026363,21384,54748,22011,54779,451,388,102,-65,11,-13,111,4159,50,45,917,1481,1609,1801,1887,1939,1732,1788,1876
1027364,21448,54804,22076,54844,403,649,94,-63,22,-40,84,4220,42,37,918,1481,1609,1801,1887,1939,1732,1788,1876
1028365,21500,54864,22141,54909,569,605,91,-78,35,-85,155,4136,36,41,917,1476,1600,1790,1881,1924,1723,1782,1871
1029366,21556,54956,22206,54974,530,172,86,-97,21,-90,157,4223,41,42,916,1476,1600,1790,1881,1924,1723,1782,1871
1030367,21632,55008,22271,55039,267,688,85,-95,20,-100,155,4274,41,44,918,1476,1600,1790,1881,1924,1723,1782,1871
