%  Data file recorded 2016/7/17  21:30:47
%  Stride Frequency         = [1, 1]
%  Lead In /Lead Out        = 
%  Deltas (Fractional)      = [0.25, 0.25, 0.25],[0.25, 0.25, 0.25]
%  Phase                    = 32768
%  Experiment.py 
%  Motor Gains    = [5000, 400, 200, 0, 300, 5000, 400, 200, 0, 300]
% Columns: 
% time | Right Leg Pos | Left Leg Pos | Commanded Right Leg Pos | Commanded Left Leg Pos | DCR | DCL | GyroX | GyroY | GyroZ | AX | AY | AZ | RBEMF | LBEMF | VBatt | S1 | S2 | S3 | S4 | S5 | S6 | S7 | S8
288,-45556,-16236,-47276,-14508,-3800,3800,-30,-53,11,51,100,3820,-10,5,929,1524,1651,1838,1918,1873,1665,1731,1843
1289,-45548,-16236,-47276,-14508,-3800,3800,-30,-52,9,37,82,3890,7,-4,929,1524,1651,1838,1918,1873,1665,1731,1843
2290,-45556,-16228,-47276,-14508,-3800,3800,-31,-53,7,46,84,3880,-11,-8,929,1524,1651,1838,1918,1873,1665,1731,1843
3291,-45556,-16228,-47276,-14508,-3800,3800,-30,-51,7,63,68,3855,8,5,929,1524,1651,1838,1918,1873,1665,1731,1843
4292,-45564,-16216,-47276,-14508,-3800,3800,-32,-52,11,55,71,3859,-9,5,929,1524,1651,1838,1918,1873,1665,1731,1843
5293,-45568,-16224,-47276,-14508,-3800,3800,-31,-55,10,70,78,3854,7,-2,929,1525,1650,1837,1917,1871,1664,1733,1845
6294,-45548,-16208,-47276,-14508,-3800,3800,-29,-55,9,59,80,3840,-8,2,929,1525,1650,1837,1917,1871,1664,1733,1845
7295,-45552,-16224,-47276,-14508,-3800,3800,-30,-52,8,60,81,3835,3,6,929,1525,1650,1837,1917,1871,1664,1733,1845
8296,-45564,-16208,-47276,-14508,-3800,3800,-30,-53,6,45,89,3857,5,6,929,1525,1650,1837,1917,1871,1664,1733,1845
9297,-45560,-16220,-47276,-14508,-3800,3800,-31,-53,7,67,72,3866,-10,-7,929,1525,1650,1837,1917,1871,1664,1733,1845
10298,-45556,-16224,-47276,-14508,-3800,3800,-30,-54,10,62,89,3855,8,-1,929,1525,1650,1837,1917,1871,1664,1733,1845
11299,-45556,-16228,-47276,-14508,-3800,3800,-29,-54,11,43,103,3871,-7,5,929,1526,1652,1838,1917,1872,1665,1734,1845
12300,-45548,-16224,-47276,-14508,-3800,3800,-29,-52,12,55,74,3846,1,0,929,1526,1652,1838,1917,1872,1665,1734,1845
13301,-45556,-16224,-47276,-14508,-3800,3800,-29,-50,10,60,64,3867,6,-8,929,1526,1652,1838,1917,1872,1665,1734,1845
14302,-45548,-16220,-47276,-14508,-3800,3800,-32,-50,9,72,82,3874,-11,0,929,1526,1652,1838,1917,1872,1665,1734,1845
15303,-45564,-16212,-47276,-14508,-3800,3800,-34,-53,10,55,89,3878,5,3,929,1526,1652,1838,1917,1872,1665,1734,1845
16304,-45560,-16224,-47276,-14508,-3800,3800,-33,-54,9,76,95,3905,-10,-7,929,1524,1650,1838,1918,1872,1667,1734,1846
17305,-45556,-16216,-47276,-14508,-3800,3800,-34,-57,10,87,82,3867,4,6,929,1524,1650,1838,1918,1872,1667,1734,1846
18306,-45544,-16224,-47276,-14508,-3800,3800,-35,-55,9,69,79,3869,-4,-7,929,1524,1650,1838,1918,1872,1667,1734,1846
19307,-45552,-16224,-47276,-14508,-3800,3800,-35,-54,9,58,90,3870,-6,7,928,1524,1650,1838,1918,1872,1667,1734,1846
20308,-45544,-16228,-47276,-14508,-3800,3800,-31,-53,11,61,89,3900,7,-8,929,1524,1650,1838,1918,1872,1667,1734,1846
21309,-45560,-16236,-47276,-14508,-3800,3800,-30,-51,10,59,84,3864,-10,4,929,1524,1650,1837,1918,1872,1665,1733,1846
22310,-45556,-16216,-47276,-14508,-3800,3800,-31,-51,11,63,93,3855,7,-8,929,1524,1650,1837,1918,1872,1665,1733,1844
23311,-45564,-16224,-47276,-14508,-3800,3800,-30,-55,11,46,74,3881,-3,-2,929,1524,1650,1837,1918,1872,1665,1733,1844
24312,-45544,-16228,-47276,-14508,-3800,3800,-31,-57,11,45,66,3848,-2,-7,929,1524,1650,1837,1918,1872,1665,1733,1844
25313,-45548,-16228,-47276,-14508,-3800,3800,-32,-57,13,62,67,3844,-9,-1,929,1524,1650,1837,1918,1872,1665,1733,1844
26314,-45564,-16224,-47276,-14508,-3800,3800,-31,-54,11,35,66,3853,0,-3,929,1524,1650,1837,1918,1872,1665,1733,1844
27315,-45560,-16224,-47276,-14508,-3800,3800,-29,-53,8,30,77,3842,-6,-1,929,1525,1652,1839,1918,1872,1665,1734,1845
28316,-45536,-16228,-47276,-14508,-3800,3800,-29,-54,8,68,84,3868,-1,6,929,1525,1652,1839,1918,1872,1665,1734,1845
29317,-45568,-16220,-47276,-14508,-3800,3800,-32,-53,9,63,98,3893,-4,6,929,1525,1652,1839,1918,1872,1665,1734,1845
30318,-45560,-16216,-47276,-14508,-3800,3800,-34,-54,8,69,82,3848,1,-4,929,1525,1652,1839,1918,1872,1665,1734,1845
31319,-45568,-16228,-47276,-14508,-3800,3800,-32,-55,10,78,59,3848,-9,5,929,1525,1652,1839,1918,1872,1665,1734,1845
32320,-45548,-16228,-47276,-14508,-3800,3800,-30,-56,10,59,62,3833,8,-5,929,1525,1650,1838,1918,1873,1667,1734,1847
33321,-45548,-16220,-47276,-14508,-3800,3800,-30,-54,10,47,71,3841,-10,-2,929,1525,1650,1838,1918,1873,1667,1734,1847
34322,-45548,-16220,-47276,-14508,-3800,3800,-33,-53,9,74,65,3840,5,6,929,1525,1650,1838,1918,1873,1667,1734,1847
35323,-45544,-16224,-47276,-14508,-3800,3800,-33,-52,10,70,75,3846,-10,-8,929,1525,1650,1838,1918,1873,1667,1734,1847
36324,-45560,-16228,-47276,-14508,-3800,3800,-33,-51,9,78,86,3877,8,1,928,1525,1650,1838,1918,1873,1667,1734,1847
37325,-45560,-16220,-47276,-14508,-3800,3800,-34,-54,8,51,65,3853,0,6,929,1525,1650,1838,1918,1873,1667,1734,1847
38326,-45556,-16236,-47276,-14508,-3800,3800,-32,-55,9,55,66,3809,-4,-7,929,1525,1650,1838,1918,1871,1664,1733,1844
39327,-45568,-16220,-47276,-14508,-3800,3800,-32,-56,9,49,72,3838,6,5,929,1525,1650,1838,1918,1871,1664,1733,1844
40328,-45548,-16220,-47276,-14508,-3800,3800,-32,-54,7,49,76,3894,-9,-3,928,1525,1650,1838,1918,1871,1664,1733,1844
41329,-45556,-16228,-47276,-14508,-3800,3800,-34,-52,8,59,91,3892,-6,6,929,1525,1650,1838,1918,1871,1664,1733,1844
42330,-45556,-16228,-47276,-14508,-3800,3800,-33,-51,10,58,75,3896,7,-1,929,1525,1650,1838,1918,1871,1664,1733,1844
43331,-45560,-16228,-47276,-14508,-3800,3800,-30,-52,8,58,76,3884,-9,1,929,1526,1653,1839,1918,1872,1665,1733,1845
44332,-45564,-16224,-47276,-14508,-3800,3800,-29,-52,8,72,73,3862,-2,1,929,1526,1653,1839,1918,1872,1665,1733,1845
45333,-45556,-16224,-47276,-14508,-3800,3800,-29,-55,10,67,73,3870,6,-3,929,1526,1653,1839,1918,1872,1665,1733,1845
46334,-45560,-16216,-47276,-14508,-3800,3800,-29,-55,10,64,97,3849,-5,6,929,1526,1653,1839,1918,1872,1665,1733,1845
47335,-45552,-16228,-47276,-14508,-3800,3800,-31,-54,6,82,96,3810,-6,-3,929,1526,1653,1839,1918,1872,1665,1733,1845
48336,-45564,-16236,-47276,-14508,-3800,3800,-30,-55,7,77,88,3871,4,-1,929,1526,1653,1839,1918,1872,1665,1733,1845
49337,-45548,-16228,-47276,-14508,-3800,3800,-29,-55,11,57,89,3879,-10,4,929,1524,1649,1837,1917,1872,1667,1735,1846
50338,-45552,-16232,-47276,-14508,-3800,3800,-31,-53,12,75,76,3868,3,-5,929,1524,1649,1837,1917,1872,1667,1735,1846
51339,-45552,-16224,-47276,-14508,-3800,3800,-30,-53,11,47,81,3883,-3,-4,929,1524,1649,1837,1917,1872,1667,1735,1846
52340,-45568,-16216,-47276,-14508,-3800,3800,-30,-53,11,54,82,3863,-2,0,929,1524,1649,1837,1917,1872,1667,1735,1846
53341,-45548,-16216,-47276,-14508,-3800,3800,-34,-54,10,82,82,3850,-4,2,928,1524,1649,1837,1917,1872,1667,1735,1846
54342,-45544,-16228,-47276,-14508,-3800,3800,-35,-52,9,65,70,3861,-1,6,929,1525,1650,1838,1918,1871,1665,1732,1844
55343,-45548,-16232,-47276,-14508,-3800,3800,-33,-50,11,58,46,3854,5,2,929,1525,1650,1838,1918,1871,1665,1732,1844
56344,-45548,-16224,-47276,-14508,-3800,3800,-33,-51,10,65,63,3853,-8,-8,929,1525,1650,1838,1918,1871,1665,1732,1844
57345,-45560,-16224,-47276,-14508,-3800,3800,-32,-53,10,60,61,3883,7,1,929,1525,1650,1838,1918,1871,1665,1732,1844
58346,-45560,-16220,-47276,-14508,-3800,3800,-30,-55,10,71,55,3859,-8,6,929,1525,1650,1838,1918,1871,1665,1732,1844
59347,-45548,-16228,-47276,-14508,-3800,3800,-31,-54,10,51,55,3856,4,-7,929,1525,1650,1838,1918,1871,1665,1732,1844
60348,-45552,-16216,-47276,-14508,-3800,3800,-31,-50,12,64,61,3832,-6,2,929,1528,1652,1840,1917,1872,1665,1733,1845
61349,-45548,-16216,-47276,-14508,-3800,3800,-31,-51,13,75,67,3856,-4,-4,929,1528,1652,1840,1917,1872,1665,1733,1845
62350,-45544,-16224,-47276,-14508,-3800,3800,-30,-54,11,76,63,3853,0,7,929,1528,1652,1840,1917,1872,1665,1733,1845
63351,-45536,-16228,-47276,-14508,-3800,3800,-29,-55,9,79,90,3852,1,-1,929,1528,1652,1840,1917,1872,1665,1733,1845
64352,-45560,-16228,-47276,-14508,-3800,3800,-31,-53,9,84,98,3835,3,-8,929,1528,1652,1840,1917,1872,1665,1733,1845
65353,-45572,-16216,-47276,-14508,-3800,3800,-32,-54,11,75,83,3842,-3,7,929,1524,1650,1839,1917,1871,1666,1735,1848
66354,-45568,-16228,-47276,-14508,-3800,3800,-34,-56,11,70,67,3836,-8,-6,929,1524,1650,1839,1917,1871,1666,1735,1848
67355,-45556,-16220,-47276,-14508,-3800,3800,-36,-54,12,69,93,3831,1,-5,929,1524,1650,1839,1917,1871,1666,1735,1848
68356,-45548,-16224,-47276,-14508,-3800,3800,-34,-53,12,71,84,3846,-7,-1,929,1524,1650,1839,1917,1871,1666,1735,1848
69357,-45564,-16224,-47276,-14508,-3800,3800,-31,-53,7,68,69,3841,7,-8,929,1524,1650,1839,1917,1871,1666,1735,1848
70358,-45564,-16224,-47276,-14508,-3800,3800,-29,-53,9,53,75,3873,-8,1,928,1524,1650,1839,1917,1871,1666,1735,1848
71359,-45556,-16228,-47276,-14508,-3800,3800,-28,-52,11,44,89,3848,5,4,929,1525,1650,1837,1916,1871,1664,1732,1845
72360,-45564,-16216,-47276,-14508,-3800,3800,-31,-54,10,57,95,3853,-10,-6,929,1525,1650,1837,1916,1871,1664,1732,1845
73361,-45560,-16224,-47276,-14508,-3800,3800,-34,-56,10,51,82,3874,0,2,929,1525,1650,1837,1916,1871,1664,1732,1845
74362,-45556,-16232,-47276,-14508,-3800,3800,-35,-57,9,41,56,3848,-2,-5,929,1525,1650,1837,1916,1871,1664,1732,1845
75363,-45556,-16220,-47276,-14508,-3800,3800,-34,-58,9,52,65,3835,1,-8,929,1525,1650,1837,1916,1871,1664,1732,1845
76364,-45552,-16216,-47276,-14508,-3800,3800,-33,-55,10,48,57,3864,7,1,929,1526,1651,1838,1917,1871,1665,1734,1845
77365,-45560,-16220,-47276,-14508,-3800,3800,-33,-54,10,75,71,3867,-6,-6,929,1526,1651,1838,1917,1871,1665,1734,1845
78366,-45560,-16236,-47276,-14508,-3800,3800,-33,-54,8,71,76,3863,2,3,929,1526,1651,1838,1917,1871,1665,1734,1845
79367,-45548,-16228,-47276,-14508,-3800,3800,-33,-53,9,36,68,3862,-9,6,929,1526,1651,1838,1917,1871,1665,1734,1845
80368,-45548,-16220,-47276,-14508,-3800,3800,-33,-54,10,58,83,3834,4,-7,929,1526,1651,1838,1917,1871,1665,1734,1845
81371,-45560,-16216,-47276,-14508,-3800,3800,-33,-53,8,66,51,3853,-6,-2,929,1526,1651,1838,1917,1871,1665,1734,1845
82370,-45556,-16220,-47276,-14508,-3800,3800,-32,-53,8,55,57,3867,7,-3,929,1525,1650,1835,1915,1874,1668,1736,1848
83371,-45548,-16232,-47276,-14508,-3800,3800,-34,-54,8,72,58,3843,-10,-5,929,1525,1650,1835,1915,1874,1668,1736,1848
84372,-45544,-16224,-47276,-14508,-3800,3800,-33,-52,6,57,77,3860,3,6,929,1525,1650,1835,1915,1874,1668,1736,1848
85373,-45548,-16244,-47276,-14508,-3800,3800,-28,-51,7,83,105,3872,-6,-1,929,1525,1650,1835,1915,1874,1668,1736,1848
86374,-45548,-16228,-47276,-14508,-3800,3800,-29,-53,8,53,87,3860,-2,-1,929,1525,1650,1835,1915,1874,1668,1736,1848
87375,-45560,-16224,-47276,-14508,-3800,3800,-29,-56,9,48,105,3856,7,1,928,1525,1650,1837,1917,1871,1664,1734,1844
88376,-45536,-16224,-47276,-14508,-3800,3800,-29,-56,9,48,110,3858,-6,6,929,1525,1650,1837,1917,1871,1664,1734,1844
89377,-45552,-16224,-47276,-14508,-3800,3800,-31,-54,8,73,92,3878,5,-8,929,1525,1650,1837,1917,1871,1664,1734,1844
90378,-45568,-16224,-47276,-14508,-3800,3800,-33,-54,10,103,70,3897,-9,-2,929,1525,1650,1837,1917,1871,1664,1734,1844
91379,-45548,-16228,-47276,-14508,-3800,3800,-33,-56,8,57,91,3890,4,5,929,1525,1650,1837,1917,1871,1664,1734,1844
92380,-45560,-16216,-47276,-14508,-3800,3800,-31,-58,8,45,100,3869,-9,-5,929,1525,1650,1837,1917,1871,1664,1734,1844
93381,-45564,-16232,-47276,-14508,-3800,3800,-29,-55,10,73,87,3851,7,3,929,1526,1652,1839,1918,1872,1666,1733,1845
94382,-45560,-16220,-47276,-14508,-3800,3800,-29,-53,8,79,59,3877,-9,-6,929,1526,1652,1839,1918,1872,1666,1733,1845
95383,-45552,-16224,-47276,-14508,-3800,3800,-31,-54,9,46,79,3886,3,0,929,1526,1652,1839,1918,1872,1666,1733,1845
96384,-45560,-16224,-47276,-14508,-3800,3800,-32,-56,9,42,68,3882,-8,3,929,1526,1652,1839,1918,1872,1666,1733,1845
97385,-45564,-16240,-47276,-14508,-3800,3800,-32,-55,12,52,78,3858,-7,-6,929,1526,1652,1839,1918,1872,1666,1733,1845
98386,-45544,-16208,-47276,-14508,-3800,3800,-31,-52,12,83,91,3862,7,7,929,1526,1652,1840,1917,1873,1666,1735,1847
99387,-45552,-16220,-47276,-14508,-3800,3800,-33,-53,10,76,72,3835,-10,-2,929,1526,1652,1840,1917,1873,1666,1735,1847
100388,-45564,-16228,-47276,-14508,-3800,3800,-34,-53,9,78,77,3843,5,-5,929,1526,1652,1840,1917,1873,1666,1735,1847
101389,-45552,-16220,-47276,-14508,-3800,3800,-33,-56,12,59,87,3848,-4,2,929,1526,1652,1840,1917,1873,1666,1735,1847
102390,-45556,-16228,-47276,-14508,-3800,3800,-32,-55,11,68,86,3831,2,0,929,1526,1652,1840,1917,1873,1666,1735,1847
103391,-45564,-16224,-47276,-14508,-3800,3800,-32,-54,9,48,83,3858,-1,-4,929,1526,1652,1840,1917,1873,1666,1735,1847
104392,-45556,-16220,-47276,-14508,-3800,3800,-32,-54,8,49,76,3860,-2,-7,928,1525,1649,1838,1916,1872,1665,1731,1843
105393,-45560,-16224,-47276,-14508,-3800,3800,-33,-52,10,43,63,3866,3,6,929,1525,1649,1838,1916,1872,1665,1731,1843
106394,-45560,-16228,-47276,-14508,-3800,3800,-33,-52,10,65,87,3866,-10,-8,929,1525,1649,1838,1916,1872,1665,1731,1843
107395,-45548,-16224,-47276,-14508,-3800,3800,-30,-50,10,71,68,3873,8,-4,929,1525,1649,1838,1916,1872,1665,1731,1843
108396,-45552,-16224,-47276,-14508,-3800,3800,-32,-52,10,55,86,3851,-11,5,929,1525,1649,1838,1916,1872,1665,1731,1843
109397,-45548,-16220,-47276,-14508,-3800,3800,-32,-53,9,48,89,3856,8,-8,929,1526,1652,1839,1917,1872,1665,1732,1845
110398,-45548,-16224,-47276,-14508,-3800,3800,-31,-55,6,55,76,3852,-10,-3,929,1526,1652,1839,1917,1872,1665,1732,1845
111399,-45544,-16224,-47276,-14508,-3800,3800,-29,-53,7,65,74,3856,4,6,929,1526,1652,1839,1917,1872,1665,1732,1845
112400,-45560,-16224,-47276,-14508,-3800,3800,-29,-51,8,45,85,3842,2,-7,929,1526,1652,1839,1917,1872,1665,1732,1845
113401,-45564,-16224,-47276,-14508,-3800,3800,-33,-50,10,52,82,3832,-9,6,929,1526,1652,1839,1917,1872,1665,1732,1845
114402,-45560,-16220,-47276,-14508,-3800,3800,-36,-48,11,54,88,3853,5,-7,929,1526,1652,1839,1917,1872,1665,1732,1845
115403,-45556,-16216,-47276,-14508,-3800,3800,-34,-53,10,62,80,3878,-11,6,929,1525,1650,1837,1917,1872,1666,1735,1846
116404,-45564,-16224,-47276,-14508,-3800,3800,-30,-56,9,78,79,3857,6,-7,929,1525,1650,1837,1917,1872,1666,1735,1846
117405,-45564,-16228,-47276,-14508,-3800,3800,-29,-54,9,53,60,3864,-7,7,929,1525,1650,1837,1917,1872,1666,1735,1846
118406,-45556,-16220,-47276,-14508,-3800,3800,-35,-51,9,51,72,3859,-7,-8,929,1525,1650,1837,1917,1872,1666,1735,1846
119407,-45548,-16224,-47276,-14508,-3800,3800,-35,-51,8,66,73,3810,8,4,929,1525,1650,1837,1917,1872,1666,1735,1846
120408,-45556,-16232,-47276,-14508,-3800,3800,-31,-54,11,48,84,3841,-11,-4,929,1526,1651,1835,1915,1871,1666,1734,1844
121409,-45556,-16228,-47276,-14508,-3800,3800,-30,-52,11,51,77,3867,5,4,928,1526,1651,1835,1915,1871,1666,1734,1844
122410,-45568,-16228,-47276,-14508,-3800,3800,-30,-51,8,40,49,3853,-7,-8,928,1526,1651,1835,1915,1871,1666,1734,1844
123411,-45564,-16224,-47276,-14508,-3800,3800,-31,-52,9,55,64,3855,1,6,929,1526,1651,1835,1915,1871,1666,1734,1844
124412,-45544,-16228,-47276,-14508,-3800,3800,-33,-54,9,32,66,3840,2,-7,929,1526,1651,1835,1915,1871,1666,1734,1844
125413,-45552,-16228,-47276,-14508,-3800,3800,-31,-56,8,35,86,3869,-6,6,929,1526,1651,1835,1915,1871,1666,1734,1844
126414,-45548,-16228,-47276,-14508,-3800,3800,-32,-55,7,56,67,3856,5,-7,929,1526,1652,1838,1918,1872,1665,1733,1845
127415,-45560,-16224,-47276,-14508,-3800,3800,-33,-53,8,63,84,3887,-11,-5,929,1526,1652,1838,1918,1872,1665,1733,1845
128416,-45568,-16224,-47276,-14508,-3800,3800,-34,-54,9,49,78,3885,7,-5,929,1526,1652,1838,1918,1872,1665,1733,1845
129418,-45540,-16228,-47276,-14508,-3800,3800,-35,-56,9,37,54,3889,-9,-3,929,1526,1652,1838,1918,1872,1665,1733,1845
130418,-45544,-16208,-47276,-14508,-3800,3800,-34,-54,10,51,70,3865,-5,0,929,1526,1652,1838,1918,1872,1665,1733,1845
131419,-45560,-16220,-47276,-14508,-3800,3800,-34,-55,10,67,71,3869,7,-4,929,1525,1649,1838,1917,1871,1666,1734,1847
132420,-45564,-16216,-47276,-14508,-3800,3800,-34,-55,8,70,69,3871,-10,6,929,1525,1649,1838,1917,1871,1666,1734,1847
133421,-45552,-16224,-47276,-14508,-3800,3800,-32,-55,8,56,80,3850,0,-7,929,1525,1649,1838,1917,1871,1666,1734,1847
134422,-45556,-16228,-47276,-14508,-3800,3800,-30,-53,9,59,69,3856,1,-6,929,1525,1649,1838,1917,1871,1666,1734,1847
135423,-45560,-16224,-47276,-14508,-3800,3800,-30,-55,12,61,83,3866,-7,-1,929,1525,1649,1838,1917,1871,1666,1734,1847
136424,-45552,-16220,-47276,-14508,-3800,3800,-32,-54,12,63,75,3866,8,1,929,1525,1649,1838,1917,1871,1666,1734,1847
137425,-45552,-16224,-47276,-14508,-3800,3800,-31,-56,9,58,67,3859,-9,-3,929,1526,1652,1839,1918,1872,1665,1733,1844
138426,-45540,-16224,-47276,-14508,-3800,3800,-31,-53,7,37,74,3840,-2,6,928,1526,1652,1839,1918,1872,1665,1733,1844
139427,-45556,-16228,-47276,-14508,-3800,3800,-32,-55,9,43,78,3852,-3,-7,928,1526,1652,1839,1918,1872,1665,1733,1844
140428,-45552,-16228,-47276,-14508,-3800,3800,-32,-53,11,71,75,3859,3,3,929,1526,1652,1839,1918,1872,1665,1733,1844
141429,-45556,-16228,-47276,-14508,-3800,3800,-34,-52,10,75,73,3875,-6,-3,929,1526,1652,1839,1918,1872,1665,1733,1844
142430,-45544,-16232,-47276,-14508,-3800,3800,-33,-52,9,71,87,3851,7,1,929,1526,1652,1839,1918,1871,1663,1731,1845
143431,-45552,-16220,-47276,-14508,-3800,3800,-33,-52,10,73,58,3858,-10,-2,929,1526,1652,1839,1918,1871,1663,1731,1845
144432,-45544,-16212,-47276,-14508,-3800,3800,-34,-53,10,56,48,3869,-1,-5,929,1526,1652,1839,1918,1871,1663,1731,1845
145433,-45560,-16216,-47276,-14508,-3800,3800,-31,-52,10,52,50,3859,6,2,929,1526,1652,1839,1918,1871,1663,1731,1845
146434,-45564,-16224,-47276,-14508,-3800,3800,-31,-52,9,48,62,3847,-11,-8,929,1526,1652,1839,1918,1871,1663,1731,1845
147435,-45544,-16228,-47276,-14508,-3800,3800,-30,-55,10,32,50,3870,8,7,929,1526,1652,1839,1918,1871,1663,1731,1845
148436,-45556,-16228,-47276,-14508,-3800,3800,-32,-56,8,47,75,3831,-7,-5,929,1526,1650,1836,1917,1871,1665,1734,1846
149437,-45552,-16228,-47276,-14508,-3800,3800,-36,-55,7,53,86,3834,2,6,929,1526,1650,1836,1917,1871,1665,1734,1846
150438,-45564,-16228,-47276,-14508,-3800,3800,-35,-52,7,73,87,3833,-6,-8,929,1526,1650,1836,1917,1871,1665,1734,1846
151439,-45564,-16212,-47276,-14508,-3800,3800,-33,-52,7,79,84,3823,-7,6,928,1526,1650,1836,1917,1871,1665,1734,1846
152440,-45560,-16212,-47276,-14508,-3800,3800,-30,-54,10,60,60,3840,5,-7,929,1526,1650,1836,1917,1871,1665,1734,1846
153441,-45540,-16216,-47276,-14508,-3800,3800,-29,-54,11,63,76,3865,-10,4,929,1526,1650,1837,1917,1872,1665,1733,1844
154442,-45560,-16236,-47276,-14508,-3800,3800,-32,-55,13,41,77,3886,8,-6,928,1526,1650,1837,1917,1872,1665,1733,1844
155443,-45564,-16228,-47276,-14508,-3800,3800,-33,-54,9,56,85,3867,-10,6,928,1526,1650,1837,1917,1872,1665,1733,1844
156444,-45560,-16232,-47276,-14508,-3800,3800,-32,-53,10,70,68,3841,6,3,928,1526,1650,1837,1917,1872,1665,1733,1844
157445,-45560,-16216,-47276,-14508,-3800,3800,-31,-53,11,78,63,3850,2,-7,929,1526,1650,1837,1917,1872,1665,1733,1844
158446,-45560,-16228,-47276,-14508,-3800,3800,-30,-53,11,70,85,3838,-8,-3,929,1526,1650,1837,1917,1872,1665,1733,1844
159447,-45548,-16224,-47276,-14508,-3800,3800,-30,-54,12,71,68,3861,7,5,929,1527,1651,1835,1918,1874,1666,1734,1845
160448,-45544,-16220,-47276,-14508,-3800,3800,-29,-52,10,61,68,3867,-9,4,929,1527,1651,1835,1918,1874,1666,1734,1845
161449,-45564,-16216,-47276,-14508,-3800,3800,-29,-55,9,76,78,3867,-3,-3,929,1527,1651,1835,1918,1874,1666,1734,1845
162450,-45560,-16228,-47276,-14508,-3800,3800,-29,-55,10,50,60,3822,8,5,929,1527,1651,1835,1918,1874,1666,1734,1845
163451,-45556,-16224,-47276,-14508,-3800,3800,-31,-55,11,42,70,3835,-2,-3,929,1527,1651,1835,1918,1874,1666,1734,1845
164452,-45552,-16240,-47276,-14508,-3800,3800,-32,-52,9,58,63,3845,-10,-7,929,1525,1650,1837,1916,1871,1665,1734,1846
165453,-45564,-16232,-47276,-14508,-3800,3800,-30,-54,9,66,77,3883,5,4,929,1525,1650,1837,1916,1871,1665,1734,1846
166454,-45564,-16224,-47276,-14508,-3800,3800,-29,-53,8,78,97,3853,7,-4,929,1525,1650,1837,1916,1871,1665,1734,1846
167455,-45544,-16220,-47276,-14508,-3800,3800,-28,-51,7,81,86,3857,-11,6,929,1525,1650,1837,1916,1871,1665,1734,1846
168456,-45556,-16224,-47276,-14508,-3800,3800,-30,-52,7,73,67,3909,5,-7,929,1525,1650,1837,1916,1871,1665,1734,1846
169457,-45548,-16224,-47276,-14508,-3800,3800,-31,-52,10,79,81,3870,4,-8,929,1525,1650,1837,1916,1871,1665,1734,1846
170458,-45560,-16232,-47276,-14508,-3800,3800,-33,-54,9,80,82,3855,-11,7,929,1526,1650,1838,1917,1871,1664,1732,1844
171459,-45564,-16228,-47276,-14508,-3800,3800,-35,-55,10,83,66,3886,1,-7,929,1526,1650,1838,1917,1871,1664,1732,1844
172460,-45568,-16228,-47276,-14508,-3800,3800,-34,-55,10,72,78,3883,7,3,928,1526,1650,1838,1917,1871,1664,1732,1844
173461,-45548,-16212,-47276,-14508,-3800,3800,-32,-54,8,34,86,3858,-7,-2,928,1526,1650,1838,1917,1871,1664,1732,1844
174462,-45544,-16220,-47276,-14508,-3800,3800,-31,-52,9,50,77,3845,-7,-6,929,1526,1650,1838,1917,1871,1664,1732,1844
175463,-45552,-16228,-47276,-14508,-3800,3800,-33,-52,11,50,68,3858,5,5,929,1528,1652,1840,1918,1872,1665,1734,1845
176464,-45564,-16224,-47276,-14508,-3800,3800,-34,-55,11,38,74,3875,1,-6,929,1528,1652,1840,1918,1872,1665,1734,1845
177465,-45560,-16224,-47276,-14508,-3800,3800,-33,-58,11,51,73,3866,-9,-5,929,1528,1652,1840,1918,1872,1665,1734,1845
178466,-45564,-16228,-47276,-14508,-3800,3800,-31,-54,9,29,100,3892,3,6,929,1528,1652,1840,1918,1872,1665,1734,1845
179467,-45544,-16220,-47276,-14508,-3800,3800,-30,-52,10,50,89,3892,4,-4,929,1528,1652,1840,1918,1872,1665,1734,1845
180468,-45556,-16228,-47276,-14508,-3800,3800,-31,-53,9,79,74,3882,-9,-8,928,1528,1652,1840,1918,1872,1665,1734,1845
181469,-45556,-16228,-47276,-14508,-3800,3800,-30,-53,11,61,58,3859,2,-2,929,1526,1650,1837,1916,1872,1663,1734,1847
182470,-45556,-16228,-47276,-14508,-3800,3800,-31,-55,12,58,77,3868,5,6,929,1526,1650,1837,1916,1872,1663,1734,1847
183471,-45556,-16220,-47276,-14508,-3800,3800,-32,-55,11,50,88,3858,-11,5,929,1526,1650,1837,1916,1872,1663,1734,1847
184472,-45560,-16228,-47276,-14508,-3800,3800,-32,-54,10,28,88,3872,-6,3,929,1526,1650,1837,1916,1872,1663,1734,1847
185473,-45560,-16228,-47276,-14508,-3800,3800,-32,-52,10,66,72,3853,7,-7,929,1526,1650,1837,1916,1872,1663,1734,1847
186474,-45556,-16224,-47276,-14508,-3800,3800,-32,-54,11,62,65,3870,-11,-8,929,1527,1651,1837,1916,1871,1665,1733,1845
187475,-45556,-16224,-47276,-14508,-3800,3800,-33,-52,12,48,81,3876,4,3,929,1527,1651,1837,1916,1871,1665,1733,1845
188476,-45548,-16232,-47276,-14508,-3800,3800,-33,-51,11,46,89,3868,-1,-3,929,1527,1651,1837,1916,1871,1665,1733,1845
189477,-45564,-16228,-47276,-14508,-3800,3800,-31,-53,14,40,97,3871,-1,-7,928,1527,1651,1837,1916,1871,1665,1733,1845
190478,-45568,-16224,-47276,-14508,-3800,3800,-29,-54,14,67,95,3878,1,-7,928,1527,1651,1837,1916,1871,1665,1733,1845
191479,-45536,-16228,-47276,-14508,-3800,3800,-30,-55,12,67,92,3877,-4,5,929,1527,1651,1837,1916,1871,1665,1733,1845
192480,-45568,-16212,-47276,-14508,-3800,3800,-31,-56,10,56,95,3868,-2,6,929,1526,1651,1839,1920,1873,1666,1734,1845
193481,-45544,-16220,-47276,-14508,-3800,3800,-30,-55,8,50,93,3871,-6,6,929,1526,1651,1839,1920,1873,1666,1734,1845
194482,-45556,-16216,-47276,-14508,-3800,3800,-29,-54,8,54,101,3889,6,-1,929,1526,1651,1839,1920,1873,1666,1734,1845
195483,-45556,-16224,-47276,-14508,-3800,3800,-32,-53,9,57,81,3903,-11,-4,929,1526,1651,1839,1920,1873,1666,1734,1845
196484,-45564,-16228,-47276,-14508,-3800,3800,-32,-51,7,72,94,3881,2,-7,929,1526,1651,1839,1920,1873,1666,1734,1845
197485,-45564,-16220,-47276,-14508,-3800,3800,-29,-54,9,79,73,3871,-1,-6,929,1526,1651,1835,1915,1871,1668,1736,1848
198486,-45556,-16212,-47276,-14508,-3800,3800,-31,-56,7,56,64,3905,-7,-4,929,1526,1651,1835,1915,1871,1668,1736,1848
199487,-45552,-16224,-47276,-14508,-3800,3800,-33,-57,5,56,42,3868,6,-3,929,1526,1651,1835,1915,1871,1668,1736,1848
200488,-45552,-16228,-47276,-14508,-3800,3800,-32,-55,6,52,46,3828,-8,6,929,1526,1651,1835,1915,1871,1668,1736,1848
201489,-45548,-16220,-47276,-14508,-3800,3800,-31,-55,7,62,62,3840,2,3,929,1526,1651,1835,1915,1871,1668,1736,1848
202490,-45548,-16224,-47276,-14508,-3800,3800,-32,-55,7,51,73,3844,8,-7,929,1526,1651,1835,1915,1871,1668,1736,1848
203491,-45548,-16224,-47276,-14508,-3800,3800,-33,-52,8,75,71,3845,-9,6,929,1526,1650,1837,1917,1871,1664,1733,1844
204492,-45560,-16228,-47276,-14508,-3800,3800,-33,-49,8,56,92,3869,-1,6,929,1526,1650,1837,1917,1871,1664,1733,1844
205493,-45552,-16220,-47211,-14443,-1701,2494,-33,-53,7,53,89,3862,8,-8,929,1526,1650,1837,1917,1871,1664,1733,1844
206494,-45548,-16224,-47146,-14378,-1577,2728,-35,-58,8,32,89,3840,-3,-5,928,1526,1650,1837,1917,1871,1664,1733,1844
207495,-45552,-16220,-47081,-14313,-1394,2703,-35,-51,11,73,85,3856,3,2,908,1526,1650,1837,1917,1871,1664,1733,1844
208496,-45552,-16200,-47016,-14248,-1365,2559,-39,-49,11,80,113,3800,4,15,907,1526,1650,1839,1918,1872,1665,1733,1845
209497,-45564,-16116,-46951,-14183,-1122,1736,-39,-46,10,27,117,3977,11,51,908,1526,1650,1839,1918,1872,1665,1733,1845
210498,-45544,-15972,-46886,-14118,-1467,891,-34,-66,12,108,64,3790,7,80,907,1526,1650,1839,1918,1872,1665,1733,1845
211499,-45560,-15824,-46821,-14053,-919,740,-41,-127,18,-406,146,4450,14,80,917,1526,1650,1839,1918,1872,1665,1733,1845
212500,-45552,-15660,-46756,-13988,-1149,420,-43,-191,11,-411,266,4036,2,79,925,1526,1650,1839,1918,1872,1665,1733,1845
213501,-45556,-15516,-46691,-13923,-916,574,-35,-243,-5,-273,-75,4392,14,93,925,1526,1650,1839,1918,1872,1665,1733,1845
214502,-45564,-15356,-46626,-13858,-777,259,-24,-247,-30,467,-75,3934,13,98,926,1526,1647,1838,1917,1865,1667,1737,1858
215503,-45572,-15208,-46561,-13793,-689,308,-34,-228,-42,137,13,4360,-1,93,927,1526,1647,1838,1917,1865,1667,1737,1858
216504,-45560,-15048,-46496,-13728,-874,43,-45,-167,-60,316,45,3668,5,94,928,1526,1647,1838,1917,1865,1667,1737,1858
217505,-45544,-14864,-46431,-13663,-864,-402,-75,-91,-77,217,41,4174,4,86,927,1526,1647,1838,1917,1865,1667,1737,1858
218506,-45556,-14700,-46366,-13598,-421,-272,-105,-53,-112,-42,39,3747,12,87,927,1526,1647,1838,1917,1865,1667,1737,1858
219507,-45544,-14548,-46301,-13533,-657,-228,-132,-56,-123,-549,-59,4277,-6,75,926,1541,1660,1854,1930,1890,1682,1756,1875
220508,-45556,-14392,-46236,-13468,-263,-389,-134,-125,-113,-109,-29,3643,6,71,927,1541,1660,1854,1930,1890,1682,1756,1875
221509,-45560,-14260,-46171,-13403,-279,-170,-142,-210,-122,-311,-231,4080,-1,68,928,1541,1660,1854,1930,1890,1682,1756,1875
222510,-45544,-14140,-46106,-13338,-470,-87,-145,-288,-138,-536,-161,3816,-4,73,926,1541,1660,1854,1930,1890,1682,1756,1875
223511,-45548,-14024,-46041,-13273,-135,-99,-153,-383,-132,-141,-201,3807,-3,66,927,1541,1660,1854,1930,1890,1682,1756,1875
224512,-45560,-13888,-45976,-13208,59,-435,-151,-419,-127,-90,-169,3916,-5,67,928,1541,1660,1854,1930,1890,1682,1756,1875
225513,-45564,-13772,-45911,-13143,43,-248,-152,-430,-118,-196,-115,4008,12,52,923,1530,1662,1848,1922,1911,1699,1763,1891
226514,-45540,-13668,-45846,-13078,-258,-145,-142,-397,-133,-15,-165,4105,11,51,926,1530,1662,1848,1922,1911,1699,1763,1891
227515,-45540,-13584,-45781,-13013,121,83,-129,-370,-137,120,-199,4244,-6,47,927,1530,1662,1848,1922,1911,1699,1763,1891
228516,-45564,-13468,-45716,-12948,530,-380,-98,-366,-125,229,-161,4127,12,49,928,1530,1662,1848,1922,1911,1699,1763,1891
229517,-45552,-13384,-45651,-12883,145,-3,-82,-373,-125,73,-87,4345,9,53,928,1530,1662,1848,1922,1911,1699,1763,1891
230518,-45560,-13304,-45586,-12818,484,29,-62,-384,-124,-62,46,4277,7,50,924,1514,1647,1827,1897,1910,1695,1770,1890
231519,-45548,-13216,-45521,-12753,298,-99,-52,-378,-123,60,163,4139,7,46,928,1514,1647,1827,1897,1910,1695,1770,1890
232520,-45536,-13112,-45456,-12688,363,-347,-48,-379,-131,79,141,4012,0,48,926,1514,1647,1827,1897,1910,1695,1770,1890
233521,-45528,-13044,-45391,-12623,483,100,-50,-361,-138,-109,228,3972,8,37,927,1514,1647,1827,1897,1910,1695,1770,1890
234522,-45516,-12972,-45326,-12558,497,42,-55,-387,-140,-235,166,3823,2,34,925,1514,1647,1827,1897,1910,1695,1770,1890
235523,-45512,-12892,-45261,-12493,672,-76,-54,-397,-147,-160,303,3849,8,30,926,1514,1647,1827,1897,1910,1695,1770,1890
236524,-45484,-12836,-45196,-12428,417,235,-54,-429,-164,-221,241,3694,9,42,926,1519,1651,1829,1912,1914,1698,1777,1890
237525,-45464,-12780,-45131,-12363,572,246,-53,-431,-176,-358,262,3588,29,28,925,1519,1651,1829,1912,1914,1698,1777,1890
238526,-45416,-12724,-45066,-12298,244,257,-58,-433,-188,-203,219,3692,22,26,926,1519,1651,1829,1912,1914,1698,1777,1890
239527,-45380,-12676,-45001,-12233,429,378,-47,-422,-199,-123,205,3651,32,25,925,1519,1651,1829,1912,1914,1698,1777,1890
240528,-45348,-12628,-44936,-12168,519,399,-34,-406,-198,-23,31,3748,33,27,926,1519,1651,1829,1912,1914,1698,1777,1890
241529,-45316,-12580,-44871,-12103,560,420,-3,-383,-201,-24,54,3637,17,36,924,1525,1654,1832,1914,1930,1709,1783,1899
242530,-45276,-12524,-44806,-12038,490,331,23,-341,-213,-1,-16,3802,20,25,925,1525,1654,1832,1914,1930,1709,1783,1899
243531,-45224,-12472,-44741,-11973,356,397,47,-303,-208,51,-125,3677,36,37,924,1525,1654,1832,1914,1930,1709,1783,1899
244532,-45168,-12428,-44676,-11908,317,522,67,-245,-196,82,-108,3739,42,34,925,1525,1654,1832,1914,1930,1709,1783,1899
245533,-45128,-12372,-44611,-11843,549,384,82,-212,-192,-76,-67,3647,24,39,926,1525,1654,1832,1914,1930,1709,1783,1899
246534,-45072,-12332,-44546,-11778,360,615,95,-197,-184,-68,-98,3681,25,40,925,1525,1654,1832,1914,1930,1709,1783,1899
247535,-45016,-12280,-44481,-11713,371,481,107,-196,-168,-171,-45,3590,39,28,925,1515,1641,1824,1905,1917,1697,1767,1882
248536,-44956,-12216,-44416,-11648,327,332,107,-204,-158,-203,-36,3613,31,28,924,1515,1641,1824,1905,1917,1697,1767,1882
249537,-44896,-12176,-44351,-11583,333,662,108,-211,-143,-250,-47,3637,27,38,925,1515,1641,1824,1905,1917,1697,1767,1882
250538,-44840,-12132,-44286,-11518,395,639,98,-222,-129,-58,8,3631,28,34,926,1515,1641,1824,1905,1917,1697,1767,1882
251539,-44776,-12076,-44221,-11453,296,500,89,-238,-117,-124,58,3587,28,37,924,1515,1641,1824,1905,1917,1697,1767,1882
252540,-44700,-12020,-44156,-11388,133,511,68,-243,-112,-52,135,3734,47,26,924,1515,1638,1822,1909,1902,1688,1760,1867
253541,-44668,-11968,-44091,-11323,723,577,54,-238,-101,111,157,3688,47,39,925,1515,1638,1822,1909,1902,1688,1760,1867
254542,-44596,-11896,-44026,-11258,215,319,33,-214,-88,232,171,3617,39,29,926,1515,1638,1822,1909,1902,1688,1760,1867
255543,-44528,-11852,-43961,-11193,262,695,15,-205,-79,227,122,3708,49,42,923,1515,1638,1822,1909,1902,1688,1760,1867
256546,-44460,-11788,-43896,-11128,258,446,-6,-182,-64,360,235,3819,36,25,927,1515,1638,1822,1909,1902,1688,1760,1867
257545,-44400,-11736,-43831,-11063,364,612,-16,-168,-42,344,215,3680,39,37,923,1523,1642,1824,1918,1906,1698,1772,1876
258546,-44336,-11680,-43766,-10998,315,574,-36,-177,-29,307,290,3663,40,40,925,1523,1642,1824,1918,1906,1698,1772,1876
259547,-44280,-11628,-43701,-10933,427,640,-40,-178,-6,235,287,3767,48,28,924,1523,1642,1824,1918,1906,1698,1772,1876
260548,-44212,-11568,-43636,-10868,274,546,-44,-182,12,280,289,3739,33,42,925,1523,1642,1824,1918,1906,1698,1772,1876
261549,-44140,-11520,-43571,-10803,215,717,-45,-216,36,311,260,3768,49,32,924,1523,1642,1824,1918,1906,1698,1772,1876
262550,-44064,-11452,-43506,-10738,152,464,-45,-238,53,142,249,3785,33,42,925,1523,1642,1824,1918,1906,1698,1772,1876
263551,-44016,-11376,-43441,-10673,522,351,-36,-259,76,193,169,3832,42,39,924,1522,1638,1822,1921,1918,1712,1783,1879
264552,-43968,-11324,-43376,-10608,544,667,-24,-270,99,253,115,3908,29,46,927,1522,1638,1822,1921,1918,1712,1783,1879
265553,-43904,-11260,-43311,-10543,345,519,-11,-255,111,313,181,4003,39,29,925,1522,1638,1822,1921,1918,1712,1783,1879
266554,-43828,-11212,-43246,-10478,182,739,1,-265,139,333,140,4004,48,30,923,1522,1638,1822,1921,1918,1712,1783,1879
267555,-43764,-11136,-43181,-10413,333,376,7,-265,154,212,190,4151,49,31,925,1522,1638,1822,1921,1918,1712,1783,1879
268556,-43708,-11084,-43116,-10348,445,692,17,-289,162,182,198,3981,32,32,924,1523,1637,1824,1928,1918,1715,1783,1882
269557,-43640,-11020,-43051,-10283,291,544,30,-303,162,173,92,4087,44,32,926,1523,1637,1824,1928,1918,1715,1783,1882
270558,-43564,-10952,-42986,-10218,178,490,47,-309,156,178,124,4128,42,39,923,1523,1637,1824,1928,1918,1715,1783,1882
271559,-43504,-10916,-42921,-10153,384,926,62,-316,157,145,141,3979,40,29,925,1523,1637,1824,1928,1918,1715,1783,1882
272560,-43440,-10832,-42856,-10088,335,303,72,-320,150,136,192,3938,29,44,926,1523,1637,1824,1928,1918,1715,1783,1882
273561,-43372,-10764,-42791,-10023,283,500,76,-329,144,183,163,3964,30,45,923,1523,1637,1824,1928,1918,1715,1783,1882
274562,-43308,-10700,-42726,-9958,334,551,82,-333,136,153,142,4012,27,41,925,1534,1651,1839,1944,1936,1727,1798,1898
275563,-43256,-10640,-42661,-9893,500,607,96,-341,114,104,226,4108,30,33,925,1534,1651,1839,1944,1936,1727,1798,1898
276564,-43196,-10592,-42596,-9828,406,779,108,-347,105,82,166,4031,39,40,925,1534,1651,1839,1944,1936,1727,1798,1898
277565,-43140,-10520,-42531,-9763,468,471,120,-343,106,360,321,4246,31,25,924,1534,1651,1839,1944,1936,1727,1798,1898
278566,-43068,-10464,-42466,-9698,259,682,130,-332,84,334,136,3906,47,32,923,1534,1651,1839,1944,1936,1727,1798,1898
279567,-43024,-10424,-42401,-9633,635,912,125,-312,62,164,78,4233,45,25,925,1548,1665,1853,1958,1927,1717,1788,1889
280568,-42948,-10368,-42336,-9568,222,724,128,-267,50,301,68,4119,35,34,925,1548,1665,1853,1958,1927,1717,1788,1889
281569,-42884,-10320,-42271,-9503,373,845,127,-238,41,348,-6,4074,42,33,921,1548,1665,1853,1958,1927,1717,1788,1889
282570,-42812,-10252,-42206,-9438,265,591,128,-222,35,161,-64,4218,33,27,924,1548,1665,1853,1958,1927,1717,1788,1889
283571,-42756,-10192,-42141,-9373,476,698,115,-230,19,46,40,3991,48,38,923,1548,1665,1853,1958,1927,1717,1788,1889
284572,-42712,-10140,-42076,-9308,652,814,112,-237,7,-98,32,4143,40,27,925,1548,1665,1853,1958,1927,1717,1788,1889
285573,-42652,-10096,-42011,-9243,458,940,110,-258,6,160,47,3964,50,26,923,1563,1675,1865,1971,1914,1711,1778,1876
286574,-42580,-10032,-41946,-9178,300,692,108,-269,7,128,37,4223,35,33,921,1563,1675,1865,1971,1914,1711,1778,1876
287575,-42500,-9980,-41881,-9113,182,858,101,-287,22,-136,-60,3846,42,23,922,1563,1675,1865,1971,1914,1711,1778,1876
288576,-42444,-9948,-41816,-9048,493,1148,108,-293,24,-105,-101,3979,42,34,924,1563,1675,1865,1971,1914,1711,1778,1876
289577,-42372,-9884,-41751,-8983,285,750,109,-275,37,133,-35,4006,37,31,923,1563,1675,1865,1971,1914,1711,1778,1876
290578,-42324,-9840,-41686,-8918,606,1026,110,-250,50,228,-25,4024,34,34,919,1561,1674,1868,1975,1914,1713,1780,1878
291579,-42260,-9772,-41621,-8853,408,722,106,-234,70,230,27,4110,37,34,923,1561,1674,1868,1975,1914,1713,1780,1878
292580,-42172,-9736,-41556,-8788,79,1159,113,-221,87,212,-57,3848,36,28,919,1561,1674,1868,1975,1914,1713,1780,1878
293581,-42124,-9672,-41491,-8723,600,810,105,-209,102,53,-68,3964,47,31,923,1561,1674,1868,1975,1914,1713,1780,1878
294582,-42056,-9624,-41426,-8658,348,1031,107,-199,117,138,-122,3824,36,26,922,1561,1674,1868,1975,1914,1713,1780,1878
295583,-41972,-9564,-41361,-8593,124,888,107,-182,124,239,-106,3942,50,28,922,1561,1674,1868,1975,1914,1713,1780,1878
296584,-41916,-9492,-41296,-8528,485,729,111,-155,134,113,-50,3843,42,26,921,1575,1688,1886,1993,1911,1712,1778,1877
297585,-41844,-9436,-41231,-8463,277,940,107,-171,147,65,-58,3684,45,42,923,1575,1688,1886,1993,1911,1712,1778,1877
298586,-41800,-9380,-41166,-8398,652,952,104,-178,152,44,2,3794,35,28,923,1575,1688,1886,1993,1911,1712,1778,1877
299587,-41740,-9328,-41101,-8333,460,1018,99,-190,157,58,67,3682,39,39,923,1575,1688,1886,1993,1911,1712,1778,1877
300588,-41680,-9272,-41036,-8268,466,980,98,-190,148,180,85,3881,51,31,920,1575,1688,1886,1993,1911,1712,1778,1877
301589,-41608,-9196,-40971,-8203,307,717,103,-186,138,131,141,3769,48,42,921,1591,1705,1900,2006,1913,1714,1783,1881
302590,-41544,-9144,-40906,-8138,408,1033,103,-197,130,-21,111,3787,43,41,921,1591,1705,1900,2006,1913,1714,1783,1881
303591,-41480,-9080,-40841,-8073,411,885,103,-196,124,35,162,3799,30,38,924,1591,1705,1900,2006,1913,1714,1783,1881
304592,-41428,-9024,-40776,-8008,576,996,106,-195,115,283,181,3864,43,29,921,1591,1705,1900,2006,1913,1714,1783,1881
305593,-41384,-8956,-40711,-7943,702,842,107,-187,100,178,170,3767,30,36,922,1591,1705,1900,2006,1913,1714,1783,1881
306595,-41308,-8912,-40646,-7878,289,1169,107,-172,84,104,199,3937,52,35,921,1591,1705,1900,2006,1913,1714,1783,1881
307595,-41248,-8852,-40581,-7813,496,975,102,-160,72,141,198,3869,36,28,921,1590,1702,1895,2003,1911,1708,1779,1875
308596,-41172,-8792,-40516,-7748,282,982,110,-177,60,67,181,3959,46,42,920,1590,1702,1895,2003,1911,1708,1779,1875
309597,-41112,-8720,-40451,-7683,488,823,108,-207,58,-83,68,3811,38,38,920,1590,1702,1895,2003,1911,1708,1779,1875
310598,-41032,-8660,-40386,-7618,220,979,116,-233,61,-164,71,3908,32,43,922,1590,1702,1895,2003,1911,1708,1779,1875
311599,-40976,-8588,-40321,-7553,532,822,123,-247,60,40,139,3780,50,41,922,1590,1702,1895,2003,1911,1708,1779,1875
312600,-40896,-8536,-40256,-7488,214,1088,134,-265,61,-25,117,3871,38,33,923,1597,1708,1905,2016,1901,1704,1775,1871
313601,-40836,-8484,-40191,-7423,470,1105,139,-290,67,34,108,3770,31,34,922,1597,1708,1905,2016,1901,1704,1775,1871
314602,-40760,-8408,-40126,-7358,256,791,139,-290,72,47,101,3812,34,39,922,1597,1708,1905,2016,1901,1704,1775,1871
315603,-40712,-8348,-40061,-7293,628,997,140,-293,77,122,132,3764,47,29,920,1597,1708,1905,2016,1901,1704,1775,1871
316604,-40648,-8288,-39996,-7228,429,1004,152,-277,85,233,189,3904,30,37,924,1597,1708,1905,2016,1901,1704,1775,1871
317605,-40592,-8236,-39931,-7163,540,1120,157,-271,89,255,152,3757,33,31,920,1597,1708,1905,2016,1901,1704,1775,1871
318606,-40516,-8164,-39866,-7098,277,863,155,-274,93,166,158,3845,48,46,921,1614,1724,1918,2036,1898,1705,1778,1868
319607,-40452,-8092,-39801,-7033,429,854,156,-265,93,188,228,3949,36,41,920,1614,1724,1918,2036,1898,1705,1778,1868
320608,-40400,-8036,-39736,-6968,595,1065,165,-261,100,197,179,3796,28,41,923,1614,1724,1918,2036,1898,1705,1778,1868
321609,-40344,-7976,-39671,-6903,556,1022,160,-261,108,76,160,3811,29,41,922,1614,1724,1918,2036,1898,1705,1778,1868
322610,-40272,-7896,-39606,-6838,347,754,165,-265,110,161,244,3840,49,37,920,1614,1724,1918,2036,1898,1705,1778,1868
323611,-40212,-7828,-39541,-6773,505,901,170,-288,106,116,195,3762,47,44,921,1630,1734,1932,2060,1889,1701,1771,1859
324612,-40152,-7764,-39476,-6708,511,953,178,-309,104,-22,162,3745,30,31,923,1630,1734,1932,2060,1889,1701,1771,1859
325613,-40116,-7704,-39411,-6643,846,1009,183,-330,109,52,141,3767,48,45,920,1630,1734,1932,2060,1889,1701,1771,1859
326614,-40044,-7652,-39346,-6578,388,1126,196,-346,105,5,128,3869,48,33,920,1630,1734,1932,2060,1889,1701,1771,1859
327615,-39984,-7572,-39281,-6513,545,757,211,-365,99,26,111,3903,41,42,919,1630,1734,1932,2060,1889,1701,1771,1859
328616,-39924,-7504,-39216,-6448,551,905,227,-353,103,109,101,3884,50,45,921,1630,1734,1932,2060,1889,1701,1771,1859
329617,-39852,-7440,-39151,-6383,392,956,239,-353,128,126,19,3788,52,42,922,1644,1746,1947,2074,1880,1694,1765,1851
330618,-39788,-7360,-39086,-6318,493,737,245,-355,135,80,-8,3664,53,40,921,1644,1746,1947,2074,1880,1694,1765,1851
331619,-39708,-7300,-39021,-6253,276,995,258,-365,132,42,-107,3818,33,38,921,1644,1746,1947,2074,1880,1694,1765,1851
332620,-39648,-7248,-38956,-6188,532,1110,269,-354,138,39,-36,3898,43,26,923,1644,1746,1947,2074,1880,1694,1765,1851
333621,-39592,-7192,-38891,-6123,593,1072,283,-338,151,92,-112,3819,45,38,922,1644,1746,1947,2074,1880,1694,1765,1851
334622,-39528,-7120,-38826,-6058,494,864,286,-317,160,52,21,3883,41,40,920,1658,1764,1961,2088,1870,1684,1760,1845
335623,-39456,-7076,-38761,-5993,387,1240,285,-311,172,-17,39,3865,45,41,919,1658,1764,1961,2088,1870,1684,1760,1845
336624,-39400,-7020,-38696,-5928,598,1102,289,-314,168,52,86,3922,42,27,922,1658,1764,1961,2088,1870,1684,1760,1845
337625,-39332,-6964,-38631,-5863,444,1112,299,-311,161,227,31,3902,43,37,919,1658,1764,1961,2088,1870,1684,1760,1845
338626,-39276,-6908,-38566,-5798,606,1124,306,-303,163,75,-28,3902,44,32,919,1658,1764,1961,2088,1870,1684,1760,1845
339627,-39212,-6844,-38501,-5733,507,1026,311,-289,165,85,-18,3894,33,37,920,1658,1764,1961,2088,1870,1684,1760,1845
340628,-39140,-6776,-38436,-5668,399,973,320,-273,161,203,-70,3956,36,42,919,1673,1777,1975,2106,1870,1687,1762,1847
341629,-39076,-6724,-38371,-5603,500,1189,324,-260,165,222,-72,3998,48,34,920,1673,1777,1975,2106,1870,1687,1762,1847
342630,-39012,-6640,-38306,-5538,502,766,331,-267,173,22,-139,3939,48,29,920,1673,1777,1975,2106,1870,1687,1762,1847
343631,-38956,-6588,-38241,-5473,613,1183,328,-272,174,-114,-108,3925,35,31,918,1673,1777,1975,2106,1870,1687,1762,1847
344632,-38872,-6536,-38176,-5408,240,1198,338,-284,166,13,-106,3967,44,42,922,1673,1777,1975,2106,1870,1687,1762,1847
345633,-38836,-6464,-38111,-5343,876,941,353,-290,171,77,-141,3891,33,35,919,1687,1786,1993,2125,1883,1701,1772,1859
346634,-38776,-6420,-38046,-5278,583,1317,367,-307,173,104,-69,3833,38,31,920,1687,1786,1993,2125,1883,1701,1772,1859
347635,-38720,-6348,-37981,-5213,644,959,377,-313,170,14,2,3999,46,37,919,1687,1786,1993,2125,1883,1701,1772,1859
348636,-38636,-6304,-37916,-5148,270,1335,386,-311,179,167,-14,3809,35,30,918,1687,1786,1993,2125,1883,1701,1772,1859
349637,-38564,-6228,-37851,-5083,412,921,391,-311,191,139,-98,3775,43,38,920,1687,1786,1993,2125,1883,1701,1772,1859
350638,-38516,-6184,-37786,-5018,734,1348,394,-322,202,-35,-3,3792,43,32,919,1687,1786,1993,2125,1883,1701,1772,1859
351639,-38452,-6124,-37721,-4953,535,1154,403,-320,205,142,140,3862,29,42,921,1692,1794,2000,2128,1890,1704,1777,1866
352640,-38376,-6060,-37656,-4888,371,1106,401,-319,212,254,156,3881,48,32,916,1692,1794,2000,2128,1890,1704,1777,1866
353641,-38316,-6000,-37591,-4823,579,1162,405,-325,221,149,168,3865,34,39,919,1692,1794,2000,2128,1890,1704,1777,1866
354643,-38240,-5948,-37526,-4758,365,1279,390,-321,233,156,224,3955,33,29,921,1692,1794,2000,2128,1890,1704,1777,1866
355643,-38180,-5880,-37461,-4693,571,1075,398,-308,245,215,174,3882,37,33,919,1692,1794,2000,2128,1890,1704,1777,1866
356644,-38128,-5820,-37396,-4628,687,1182,395,-299,249,271,168,4052,32,38,919,1685,1787,1986,2112,1885,1697,1774,1868
357645,-38060,-5756,-37331,-4563,484,1134,401,-287,247,284,159,3916,40,29,920,1685,1787,1986,2112,1885,1697,1774,1868
358646,-37996,-5692,-37266,-4498,536,1135,404,-291,245,270,94,4000,41,40,918,1685,1787,1986,2112,1885,1697,1774,1868
359647,-37936,-5632,-37201,-4433,592,1192,411,-301,245,88,74,3954,44,41,919,1685,1787,1986,2112,1885,1697,1774,1868
360648,-37876,-5560,-37136,-4368,598,1034,407,-322,242,93,153,3884,38,24,918,1685,1787,1986,2112,1885,1697,1774,1868
361649,-37812,-5504,-37071,-4303,550,1246,414,-329,238,197,184,3998,30,36,918,1685,1787,1986,2112,1885,1697,1774,1868
362650,-37748,-5464,-37006,-4238,551,1476,411,-357,228,132,254,3989,31,35,919,1673,1776,1980,2103,1892,1703,1775,1869
363651,-37700,-5412,-36941,-4173,772,1343,413,-382,220,102,278,4006,45,26,918,1673,1776,1980,2103,1892,1703,1775,1869
364652,-37640,-5364,-36876,-4108,629,1414,401,-402,223,159,330,3874,46,31,916,1673,1776,1980,2103,1892,1703,1775,1869
365653,-37580,-5304,-36811,-4043,635,1271,393,-410,225,222,398,3936,30,38,915,1673,1776,1980,2103,1892,1703,1775,1869
366654,-37524,-5248,-36746,-3978,696,1332,388,-412,222,249,403,3900,36,31,917,1673,1776,1980,2103,1892,1703,1775,1869
367655,-37456,-5212,-36681,-3913,543,1618,382,-408,222,268,399,3808,30,26,917,1672,1778,1984,2107,1914,1723,1795,1894
368656,-37400,-5136,-36616,-3848,705,1105,379,-399,229,228,369,4007,46,40,917,1672,1778,1984,2107,1914,1723,1795,1894
369657,-37364,-5072,-36551,-3783,990,1257,375,-391,229,270,416,3807,49,43,915,1672,1778,1984,2107,1914,1723,1795,1894
370658,-37288,-5032,-36486,-3718,477,1588,377,-391,237,215,310,3857,50,40,918,1672,1778,1984,2107,1914,1723,1795,1894
371659,-37220,-4964,-36421,-3653,574,1235,376,-381,253,263,251,3829,37,33,916,1672,1778,1984,2107,1914,1723,1795,1894
372660,-37156,-4900,-36356,-3588,625,1286,369,-391,265,226,108,3624,46,40,916,1672,1778,1984,2107,1914,1723,1795,1894
373661,-37096,-4820,-36291,-3523,681,1069,366,-401,259,158,172,3860,35,39,919,1677,1787,1999,2119,1935,1740,1805,1909
374662,-37040,-4784,-36226,-3458,743,1654,370,-402,266,114,268,3818,32,38,917,1677,1787,1999,2119,1935,1740,1805,1909
375663,-36964,-4704,-36161,-3393,480,1087,370,-417,276,119,139,3858,38,32,919,1677,1787,1999,2119,1935,1740,1805,1909
376664,-36908,-4648,-36096,-3328,741,1398,370,-431,272,285,160,3886,50,48,912,1677,1787,1999,2119,1935,1740,1805,1909
377665,-36844,-4580,-36031,-3263,643,1245,353,-456,279,107,169,3854,33,32,919,1677,1787,1999,2119,1935,1740,1805,1909
378666,-36764,-4516,-35966,-3198,425,1296,342,-452,276,167,319,4087,49,45,916,1687,1797,2011,2124,1926,1730,1796,1900
379667,-36704,-4440,-35901,-3133,681,1134,330,-455,261,341,330,3922,41,42,918,1687,1797,2011,2124,1926,1730,1796,1900
380668,-36640,-4400,-35836,-3068,632,1614,315,-455,259,270,373,4090,30,37,918,1687,1797,2011,2124,1926,1730,1796,1900
381669,-36564,-4336,-35771,-3003,470,1317,304,-458,258,270,462,4051,45,40,918,1687,1797,2011,2124,1926,1730,1796,1900
382670,-36496,-4260,-35706,-2938,566,1153,292,-438,242,300,420,4065,30,36,915,1687,1797,2011,2124,1926,1730,1796,1900
383671,-36448,-4196,-35641,-2873,837,1305,290,-421,223,335,419,4109,37,42,918,1687,1797,2011,2124,1926,1730,1796,1900
384672,-36408,-4160,-35576,-2808,968,1691,272,-424,224,333,464,4038,25,30,919,1681,1793,2004,2120,1930,1734,1798,1904
385673,-36340,-4080,-35511,-2743,614,1124,271,-411,218,340,390,4127,38,30,916,1681,1793,2004,2120,1930,1734,1798,1904
386674,-36284,-4036,-35446,-2678,775,1599,261,-402,214,272,306,4056,37,27,911,1681,1793,2004,2120,1930,1734,1798,1904
387675,-36236,-3996,-35381,-2613,897,1681,264,-399,216,347,199,4010,34,25,919,1681,1793,2004,2120,1930,1734,1798,1904
388676,-36172,-3936,-35316,-2548,698,1437,265,-391,221,283,149,4043,49,26,914,1681,1793,2004,2120,1930,1734,1798,1904
389677,-36128,-3876,-35251,-2483,974,1444,279,-386,218,127,131,3927,49,30,912,1691,1806,2031,2148,1951,1756,1816,1928
390678,-36068,-3824,-35186,-2418,781,1560,293,-381,236,206,149,3992,47,33,916,1691,1806,2031,2148,1951,1756,1816,1928
391679,-36008,-3752,-35121,-2353,787,1302,314,-381,250,315,232,3949,33,33,914,1691,1806,2031,2148,1951,1756,1816,1928
392680,-35920,-3680,-35056,-2288,409,1294,325,-382,249,242,226,3943,35,40,914,1691,1806,2031,2148,1951,1756,1816,1928
393681,-35864,-3628,-34991,-2223,821,1561,327,-409,254,72,188,3705,31,42,915,1691,1806,2031,2148,1951,1756,1816,1928
394682,-35804,-3560,-34926,-2158,777,1357,323,-423,258,18,303,3791,42,35,918,1691,1806,2031,2148,1951,1756,1816,1928
395683,-35736,-3508,-34861,-2093,674,1574,318,-419,256,280,426,3835,49,31,913,1719,1834,2066,2182,1961,1762,1820,1927
396684,-35688,-3452,-34796,-2028,945,1535,316,-418,247,363,566,3930,31,43,916,1719,1834,2066,2182,1961,1762,1820,1927
397685,-35624,-3404,-34731,-1963,747,1657,298,-433,247,294,529,3851,28,43,915,1719,1834,2066,2182,1961,1762,1820,1927
398686,-35564,-3332,-34666,-1898,803,1348,280,-442,241,298,579,3926,31,46,913,1719,1834,2066,2182,1961,1762,1820,1927
399687,-35504,-3272,-34601,-1833,810,1505,264,-437,230,292,673,4008,46,42,913,1719,1834,2066,2182,1961,1762,1820,1927
400688,-35436,-3208,-34536,-1768,706,1457,251,-419,230,402,578,4045,31,34,916,1740,1852,2073,2189,1939,1742,1806,1916
401689,-35380,-3140,-34471,-1703,867,1404,241,-398,224,539,615,4186,36,42,914,1740,1852,2073,2189,1939,1742,1806,1916
402690,-35320,-3092,-34406,-1638,824,1675,239,-390,213,406,612,4188,34,32,915,1740,1852,2073,2189,1939,1742,1806,1916
403691,-35256,-3028,-34341,-1573,775,1477,235,-383,201,331,572,4240,33,45,915,1740,1852,2073,2189,1939,1742,1806,1916
404692,-35204,-2960,-34276,-1508,941,1424,245,-368,193,369,563,4125,33,46,912,1740,1852,2073,2189,1939,1742,1806,1916
405693,-35148,-2880,-34211,-1443,903,1256,263,-356,191,403,591,4114,33,33,915,1740,1852,2073,2189,1939,1742,1806,1916
406694,-35076,-2816,-34146,-1378,695,1458,292,-357,183,325,597,4127,49,39,914,1728,1841,2059,2167,1947,1751,1816,1934
407695,-35020,-2772,-34081,-1313,906,1734,311,-366,176,292,505,4209,44,40,915,1728,1841,2059,2167,1947,1751,1816,1934
408696,-34940,-2712,-34016,-1248,588,1541,331,-377,163,268,580,4052,47,39,915,1728,1841,2059,2167,1947,1751,1816,1934
409697,-34904,-2660,-33951,-1183,1174,1656,340,-388,163,87,565,4012,49,35,912,1728,1841,2059,2167,1947,1751,1816,1934
410698,-34840,-2604,-33886,-1118,825,1618,358,-393,170,171,654,3993,28,41,915,1728,1841,2059,2167,1947,1751,1816,1934
411699,-34784,-2548,-33821,-1053,937,1630,381,-412,172,91,751,4021,38,40,910,1731,1851,2078,2191,1977,1773,1837,1957
412700,-34740,-2468,-33756,-988,1113,1312,400,-424,167,257,651,3956,34,46,913,1731,1851,2078,2191,1977,1773,1837,1957
413701,-34668,-2404,-33691,-923,755,1514,405,-444,170,77,744,3894,54,38,912,1731,1851,2078,2191,1977,1773,1837,1957
414702,-34612,-2348,-33626,-858,966,1625,411,-459,172,85,761,3836,53,42,914,1731,1851,2078,2191,1977,1773,1837,1957
415703,-34548,-2280,-33561,-793,867,1473,420,-448,176,341,755,3851,48,36,914,1731,1851,2078,2191,1977,1773,1837,1957
416704,-34480,-2220,-33496,-728,815,1579,423,-444,166,194,775,3955,49,43,912,1731,1851,2078,2191,1977,1773,1837,1957
417705,-34440,-2168,-33431,-663,1195,1696,428,-423,161,263,873,4058,38,45,914,1762,1887,2114,2227,1995,1787,1852,1973
418706,-34364,-2116,-33366,-598,732,1713,432,-411,155,440,847,3998,48,33,914,1762,1887,2114,2227,1995,1787,1852,1973
419707,-34288,-2056,-33301,-533,719,1619,430,-411,149,355,806,3973,48,46,910,1762,1887,2114,2227,1995,1787,1852,1973
420708,-34220,-1988,-33236,-468,816,1516,433,-411,148,241,806,3953,48,46,913,1762,1887,2114,2227,1995,1787,1852,1973
421709,-34148,-1920,-33171,-403,758,1512,441,-402,141,295,805,4054,52,40,913,1762,1887,2114,2227,1995,1787,1852,1973
422710,-34064,-1852,-33106,-338,585,1510,455,-386,126,353,859,4107,36,49,914,1777,1895,2118,2228,1992,1784,1847,1970
423711,-33996,-1792,-33041,-273,781,1616,474,-398,118,251,770,4101,51,47,914,1777,1895,2118,2228,1992,1784,1847,1970
424712,-33920,-1744,-32976,-208,669,1788,487,-410,108,0,711,4239,39,45,915,1777,1895,2118,2228,1992,1784,1847,1970
425713,-33852,-1640,-32911,-143,765,1041,499,-415,90,191,860,4161,44,43,913,1777,1895,2118,2228,1992,1784,1847,1970
426714,-33796,-1568,-32846,-78,926,1432,510,-421,78,337,934,4169,40,40,913,1777,1895,2118,2228,1992,1784,1847,1970
427715,-33724,-1504,-32781,-13,719,1535,533,-426,70,371,996,4351,33,33,918,1777,1895,2118,2228,1992,1784,1847,1970
428716,-33660,-1440,-32716,52,820,1536,568,-435,58,257,967,4157,53,30,914,1765,1884,2110,2216,2001,1790,1852,1979
429717,-33604,-1372,-32651,117,931,1483,582,-457,24,209,917,4128,45,41,914,1765,1884,2110,2216,2001,1790,1852,1979
430718,-33560,-1316,-32586,182,1107,1644,591,-475,15,-123,909,4265,44,40,913,1765,1884,2110,2216,2001,1790,1852,1979
431719,-33492,-1260,-32521,247,804,1656,602,-469,11,347,976,4141,50,40,910,1765,1884,2110,2216,2001,1790,1852,1979
432720,-33436,-1200,-32456,312,965,1613,612,-452,8,329,950,4254,54,43,912,1765,1884,2110,2216,2001,1790,1852,1979
433721,-33372,-1152,-32391,377,867,1784,617,-455,9,166,985,4067,44,31,912,1773,1902,2134,2242,2028,1816,1878,2016
434722,-33284,-1084,-32326,442,539,1531,631,-476,12,76,946,4012,41,31,911,1773,1902,2134,2242,2028,1816,1878,2016
435723,-33228,-1028,-32261,507,951,1692,645,-490,13,82,874,3864,40,34,916,1773,1902,2134,2242,2028,1816,1878,2016
436724,-33160,-960,-32196,572,797,1540,664,-500,19,43,896,3862,49,42,911,1773,1902,2134,2242,2028,1816,1878,2016
437725,-33116,-900,-32131,637,1123,1646,689,-504,29,78,871,3993,49,43,914,1773,1902,2134,2242,2028,1816,1878,2016
438726,-33048,-852,-32066,702,820,1817,720,-533,26,287,871,3909,35,41,910,1773,1902,2134,2242,2028,1816,1878,2016
439727,-32976,-792,-32001,767,762,1675,746,-559,27,67,896,4073,49,40,911,1797,1927,2160,2266,2058,1838,1899,2039
440728,-32904,-736,-31936,832,753,1736,739,-562,30,28,897,3876,35,42,913,1797,1927,2160,2266,2058,1838,1899,2039
441729,-32852,-652,-31871,897,1020,1363,725,-536,24,329,997,3989,35,37,912,1797,1927,2160,2266,2058,1838,1899,2039
442730,-32792,-592,-31806,962,926,1669,710,-512,28,351,1085,4239,52,44,914,1797,1927,2160,2266,2058,1838,1899,2039
443731,-32720,-512,-31741,1027,769,1402,704,-475,25,513,1094,4141,40,47,911,1797,1927,2160,2266,2058,1838,1899,2039
444732,-32644,-472,-31676,1092,705,1934,692,-474,14,401,1031,4067,47,37,914,1810,1936,2167,2267,2064,1840,1901,2044
445733,-32584,-396,-31611,1157,911,1470,679,-482,-6,94,1114,4249,43,32,911,1810,1936,2167,2267,2064,1840,1901,2044
446734,-32532,-328,-31546,1222,1028,1568,672,-461,-34,105,1055,4128,51,42,914,1810,1936,2167,2267,2064,1840,1901,2044
447735,-32460,-264,-31481,1287,770,1619,649,-451,-55,193,1143,4212,46,49,912,1810,1936,2167,2267,2064,1840,1901,2044
448736,-32404,-184,-31416,1352,981,1402,632,-442,-76,198,1130,4378,35,52,913,1810,1936,2167,2267,2064,1840,1901,2044
449737,-32324,-104,-31351,1417,663,1384,626,-448,-93,100,995,4142,53,51,914,1810,1936,2167,2267,2064,1840,1901,2044
450738,-32272,-28,-31286,1482,1029,1421,634,-461,-98,125,1055,4295,36,49,916,1787,1909,2145,2241,2114,1882,1930,2086
451739,-32208,32,-31221,1547,880,1628,655,-471,-108,241,1094,3918,41,45,913,1787,1909,2145,2241,2114,1882,1930,2086
452740,-32144,124,-31156,1612,883,1195,667,-496,-121,31,878,4140,39,40,913,1787,1909,2145,2241,2114,1882,1930,2086
453741,-32060,200,-31091,1677,609,1382,702,-542,-113,-72,852,4233,50,35,916,1787,1909,2145,2241,2114,1882,1930,2086
454742,-31992,276,-30892,1876,1657,2220,737,-644,-64,807,723,3428,43,43,916,1787,1909,2145,2241,2114,1882,1930,2086
455743,-31924,332,-30827,1941,1654,2482,683,-703,-27,234,498,3609,33,37,899,1762,1893,2148,2240,2174,1928,1967,2137
456744,-31848,392,-30762,2006,1540,2439,477,-578,-154,-1420,640,4061,44,49,898,1762,1893,2148,2240,2174,1928,1967,2137
457745,-31756,496,-30697,2071,1308,1841,180,-237,-285,-491,839,3957,51,52,901,1762,1893,2148,2240,2174,1928,1967,2137
458746,-31664,596,-30632,2136,1275,1849,-19,18,-194,1775,706,3688,70,63,908,1762,1893,2148,2240,2174,1928,1967,2137
459747,-31564,688,-30567,2201,1134,1916,-57,-8,-38,1033,458,3729,72,66,908,1762,1893,2148,2240,2174,1928,1967,2137
460748,-31452,816,-30502,2266,926,1391,43,-168,-30,-1035,450,4017,61,78,909,1762,1893,2148,2240,2174,1928,1967,2137
461749,-31364,940,-30437,2331,1198,1369,205,-293,-100,-545,730,3806,62,76,914,1745,1872,2123,2185,2291,2035,2043,2239
462750,-31252,1056,-30372,2396,842,1407,328,-373,-93,348,566,3797,63,84,914,1745,1872,2123,2185,2291,2035,2043,2239
463751,-31140,1180,-30307,2461,784,1236,364,-367,-80,158,535,4057,68,74,915,1745,1872,2123,2185,2291,2035,2043,2239
464752,-31024,1308,-30242,2526,672,1109,316,-301,-104,-497,524,4500,77,79,917,1745,1872,2123,2185,2291,2035,2043,2239
465753,-30940,1412,-30177,2591,1050,1363,251,-187,-101,397,892,4517,57,75,919,1745,1872,2123,2185,2291,2035,2043,2239
466754,-30832,1528,-30112,2656,697,1150,234,-99,-58,1088,1381,4095,72,74,914,1659,1798,2065,2135,2315,2034,2044,2224
467755,-30736,1648,-30047,2721,810,1033,240,-162,-74,215,1308,4096,68,66,918,1659,1798,2065,2135,2315,2034,2044,2224
468756,-30640,1752,-29982,2786,772,1187,285,-240,-157,-273,1526,4174,70,73,918,1659,1798,2065,2135,2315,2034,2044,2224
469757,-30528,1848,-29917,2851,515,1249,294,-351,-212,18,1766,4045,54,68,917,1659,1798,2065,2135,2315,2034,2044,2224
470758,-30436,1932,-29852,2916,732,1377,229,-392,-233,323,1687,3865,54,65,918,1659,1798,2065,2135,2315,2034,2044,2224
471759,-30336,2032,-29787,2981,590,1134,136,-366,-240,286,1726,4120,60,67,916,1659,1798,2065,2135,2315,2034,2044,2224
472760,-30228,2136,-29722,3046,437,1036,34,-324,-252,296,1700,4070,56,55,919,1693,1835,2088,2183,2237,1964,2002,2170
473761,-30148,2224,-29657,3111,770,1209,-57,-278,-252,412,1619,4003,64,50,920,1693,1835,2088,2183,2237,1964,2002,2170
474762,-30064,2304,-29592,3176,697,1291,-130,-252,-272,599,1677,3879,60,46,917,1693,1835,2088,2183,2237,1964,2002,2170
475763,-29964,2384,-29527,3241,454,1273,-192,-211,-301,441,1385,3976,62,57,917,1693,1835,2088,2183,2237,1964,2002,2170
476764,-29888,2468,-29462,3306,741,1200,-233,-176,-333,620,1232,3826,44,58,919,1693,1835,2088,2183,2237,1964,2002,2170
477765,-29804,2556,-29397,3371,617,1122,-276,-201,-335,286,946,3825,42,55,917,1771,1915,2165,2240,2187,1928,1965,2149
478766,-29748,2636,-29332,3436,978,1204,-303,-201,-326,143,837,3822,45,42,918,1771,1915,2165,2240,2187,1928,1965,2149
479767,-29652,2712,-29267,3501,441,1242,-307,-219,-287,261,870,3596,54,50,916,1771,1915,2165,2240,2187,1928,1965,2149
480768,-29576,2792,-29202,3566,678,1173,-292,-228,-265,295,625,3578,54,36,919,1771,1915,2165,2240,2187,1928,1965,2149
481771,-29484,2860,-29137,3631,445,1320,-297,-259,-262,-92,338,3483,44,33,918,1771,1915,2165,2240,2187,1928,1965,2149
482770,-29428,2912,-29072,3696,906,1536,-286,-297,-257,-304,661,3551,39,32,918,1758,1906,2165,2217,2165,1899,1930,2110
483771,-29352,2964,-29007,3761,643,1552,-282,-329,-241,-36,744,3488,37,43,913,1758,1906,2165,2217,2165,1899,1930,2110
484772,-29296,3024,-28942,3826,904,1459,-291,-329,-221,387,845,3720,55,47,915,1758,1906,2165,2217,2165,1899,1930,2110
485773,-29200,3088,-28877,3891,366,1410,-297,-356,-199,176,1096,3407,41,47,914,1758,1906,2165,2217,2165,1899,1930,2110
486774,-29144,3152,-28812,3956,878,1412,-321,-380,-206,-29,1375,3597,56,39,918,1758,1906,2165,2217,2165,1899,1930,2110
487775,-29088,3224,-28747,4021,889,1303,-322,-363,-222,365,1593,3683,49,43,915,1758,1906,2165,2217,2165,1899,1930,2110
488776,-29008,3300,-28682,4086,570,1240,-346,-360,-238,784,1802,3625,41,40,915,1741,1882,2118,2188,2100,1847,1901,2059
489777,-28928,3356,-28617,4151,552,1502,-364,-332,-261,391,1834,3606,49,50,918,1741,1882,2118,2188,2100,1847,1901,2059
490778,-28860,3428,-28552,4216,698,1293,-398,-316,-269,482,1946,3403,50,46,916,1741,1882,2118,2188,2100,1847,1901,2059
491779,-28788,3504,-28487,4281,640,1230,-421,-289,-288,837,2046,3324,52,41,917,1741,1882,2118,2188,2100,1847,1901,2059
492780,-28712,3588,-28422,4346,577,1107,-445,-281,-313,644,2102,3227,50,57,918,1741,1882,2118,2188,2100,1847,1901,2059
493781,-28644,3668,-28357,4411,673,1139,-451,-279,-344,631,2081,3263,46,56,919,1745,1874,2097,2192,2105,1861,1917,2069
494782,-28592,3732,-28292,4476,889,1341,-448,-278,-359,709,1818,3143,32,52,917,1745,1874,2097,2192,2105,1861,1917,2069
495783,-28516,3804,-28227,4541,576,1232,-443,-286,-370,740,1633,2860,47,44,914,1745,1874,2097,2192,2105,1861,1917,2069
496784,-28428,3892,-28162,4606,398,1005,-424,-305,-391,365,1566,3184,41,58,918,1745,1874,2097,2192,2105,1861,1917,2069
497785,-28392,3996,-28097,4671,1084,757,-400,-307,-396,459,1200,2932,36,43,921,1745,1874,2097,2192,2105,1861,1917,2069
498786,-28320,4064,-28032,4736,625,1204,-342,-297,-363,829,1202,3115,38,44,918,1745,1874,2097,2192,2105,1861,1917,2069
499787,-28256,4132,-27967,4801,726,1200,-291,-306,-335,681,1057,2791,48,57,918,1741,1871,2118,2199,2125,1879,1903,2063
500788,-28188,4224,-27902,4866,673,868,-212,-315,-330,270,822,3215,40,52,917,1741,1871,2118,2199,2125,1879,1903,2063
501789,-28132,4292,-27837,4931,834,1165,-191,-347,-309,334,887,2923,43,51,920,1741,1871,2118,2199,2125,1879,1903,2063
502790,-28056,4360,-27772,4996,570,1161,-149,-344,-257,449,894,3208,33,42,917,1741,1871,2118,2199,2125,1879,1903,2063
503791,-27988,4424,-27707,5061,667,1212,-143,-317,-215,636,1006,2985,34,50,919,1741,1871,2118,2199,2125,1879,1903,2063
504792,-27920,4512,-27642,5126,664,885,-130,-315,-192,470,1066,3113,45,42,918,1736,1868,2119,2198,2056,1816,1854,1995
505793,-27836,4584,-27577,5191,441,1076,-151,-340,-155,336,1275,3019,37,50,920,1736,1868,2119,2198,2056,1816,1854,1995
506794,-27780,4644,-27512,5256,802,1233,-161,-362,-129,433,1416,2948,35,56,920,1736,1868,2119,2198,2056,1816,1854,1995
507795,-27716,4708,-27447,5321,703,1184,-191,-356,-111,593,1488,3131,34,46,917,1736,1868,2119,2198,2056,1816,1854,1995
508796,-27664,4792,-27382,5386,869,911,-217,-339,-107,672,1698,3090,39,48,918,1736,1868,2119,2198,2056,1816,1854,1995
509797,-27572,4856,-27317,5451,336,1163,-253,-329,-94,694,1767,3131,54,60,918,1736,1868,2119,2198,2056,1816,1854,1995
510798,-27508,4940,-27252,5516,687,890,-283,-310,-83,897,1779,2966,42,43,920,1756,1885,2108,2200,2012,1783,1847,1991
511799,-27440,5020,-27187,5581,633,921,-302,-297,-78,813,1663,2954,45,58,920,1756,1885,2108,2200,2012,1783,1847,1991
512800,-27360,5108,-27122,5646,465,793,-316,-276,-96,720,1660,2894,35,59,920,1756,1885,2108,2200,2012,1783,1847,1991
513801,-27284,5196,-27057,5711,502,766,-325,-248,-125,699,1608,3111,35,54,922,1756,1885,2108,2200,2012,1783,1847,1991
514802,-27216,5264,-26992,5776,598,1013,-306,-203,-111,1002,1501,2912,40,40,922,1756,1885,2108,2200,2012,1783,1847,1991
515803,-27156,5332,-26927,5841,705,1009,-270,-165,-88,1223,1495,2768,51,45,920,1755,1884,2110,2190,2086,1843,1895,2061
516804,-27064,5408,-26862,5906,272,895,-218,-162,-117,771,1306,2682,37,40,919,1755,1884,2110,2190,2086,1843,1895,2061
517805,-26992,5476,-26797,5971,514,992,-176,-188,-143,269,1256,2812,53,42,922,1755,1884,2110,2190,2086,1843,1895,2061
518806,-26920,5560,-26732,6036,505,770,-138,-185,-141,576,1293,2819,47,51,920,1755,1884,2110,2190,2086,1843,1895,2061
519807,-26852,5620,-26667,6101,551,1076,-100,-167,-115,852,1149,2790,40,51,922,1755,1884,2110,2190,2086,1843,1895,2061
520808,-26800,5692,-26602,6166,767,917,-68,-173,-83,561,1103,2781,46,51,919,1755,1884,2110,2190,2086,1843,1895,2061
521809,-26724,5772,-26537,6231,454,799,-43,-200,-64,250,1187,2700,39,52,919,1739,1877,2117,2184,2122,1867,1905,2067
522810,-26672,5832,-26472,6296,770,1055,-25,-235,-41,384,1215,2780,38,53,922,1739,1877,2117,2184,2122,1867,1905,2067
523811,-26596,5908,-26407,6361,456,841,-21,-254,-7,583,1196,2782,37,38,918,1739,1877,2117,2184,2122,1867,1905,2067
524812,-26524,5968,-26342,6426,498,1049,-21,-263,32,476,1238,3070,39,44,921,1739,1877,2117,2184,2122,1867,1905,2067
525813,-26460,6028,-26277,6491,599,1055,-41,-257,74,544,1314,3080,52,52,920,1739,1877,2117,2184,2122,1867,1905,2067
526814,-26376,6108,-26212,6556,326,786,-83,-259,125,632,1275,3056,42,52,920,1729,1866,2105,2177,2083,1838,1880,2033
527815,-26316,6180,-26147,6621,632,878,-119,-263,170,696,1439,2971,34,41,922,1729,1866,2105,2177,2083,1838,1880,2033
528816,-26240,6256,-26082,6686,418,814,-155,-245,200,645,1483,3181,41,39,920,1729,1866,2105,2177,2083,1838,1880,2033
529817,-26168,6328,-26017,6751,461,856,-168,-217,218,1053,1479,3272,38,56,921,1729,1866,2105,2177,2083,1838,1880,2033
530818,-26092,6392,-25952,6816,397,958,-206,-204,237,1088,1398,3140,37,42,922,1729,1866,2105,2177,2083,1838,1880,2033
531819,-26016,6464,-25887,6881,384,850,-228,-203,245,819,1369,3097,53,47,921,1729,1866,2105,2177,2083,1838,1880,2033
532820,-25956,6532,-25822,6946,590,896,-267,-186,244,718,1295,3160,39,41,922,1724,1855,2089,2161,2091,1850,1895,2064
533821,-25880,6628,-25757,7011,377,508,-274,-167,253,980,1312,3060,39,53,921,1724,1855,2089,2161,2091,1850,1895,2064
534822,-25792,6704,-25692,7076,199,745,-277,-159,271,1115,1270,2910,35,45,924,1724,1855,2089,2161,2091,1850,1895,2064
535823,-25720,6776,-25627,7141,390,786,-275,-179,270,587,1125,2750,51,46,923,1724,1855,2089,2161,2091,1850,1895,2064
536824,-25648,6824,-25562,7206,381,1107,-287,-200,257,543,1093,2989,37,31,922,1724,1855,2089,2161,2091,1850,1895,2064
537825,-25576,6884,-25497,7271,373,964,-293,-202,245,614,1100,2882,52,45,921,1712,1845,2092,2155,2158,1897,1930,2110
538826,-25504,6948,-25432,7336,364,915,-316,-198,249,683,1152,2939,38,41,922,1712,1845,2092,2155,2158,1897,1930,2110
539827,-25432,7016,-25367,7401,356,861,-332,-181,266,664,1119,2922,46,48,922,1712,1845,2092,2155,2158,1897,1930,2110
540828,-25368,7068,-25302,7466,457,1077,-358,-154,272,687,1101,2913,52,39,922,1712,1845,2092,2155,2158,1897,1930,2110
541829,-25288,7140,-25237,7531,239,819,-371,-131,285,639,1090,2978,49,46,920,1712,1845,2092,2155,2158,1897,1930,2110
542830,-25232,7196,-25172,7596,550,1030,-395,-115,291,616,1140,2884,41,44,923,1712,1845,2092,2155,2158,1897,1930,2110
543831,-25156,7284,-25107,7661,286,602,-426,-80,318,491,1015,3154,45,37,920,1704,1845,2092,2148,2190,1922,1950,2125
544832,-25068,7352,-25042,7726,108,849,-463,-32,354,859,1174,3068,49,48,925,1704,1845,2092,2148,2190,1922,1950,2125
545833,-24988,7444,-24977,7791,190,516,-502,4,408,572,1020,2936,41,54,923,1704,1845,2092,2148,2190,1922,1950,2125
546834,-24916,7492,-24912,7856,281,1087,-546,50,446,524,1120,3126,36,50,925,1704,1845,2092,2148,2190,1922,1950,2125
547835,-24840,7568,-24847,7921,218,723,-584,82,490,525,1039,3158,42,47,921,1704,1845,2092,2148,2190,1922,1950,2125
548836,-24764,7652,-24782,7986,205,600,-637,80,522,415,1039,3020,35,48,924,1684,1828,2070,2129,2181,1921,1946,2113
549837,-24692,7744,-24717,8051,246,467,-679,104,551,413,971,3402,37,53,925,1684,1828,2070,2129,2181,1921,1946,2113
550838,-24612,7840,-24652,8116,128,379,-719,136,581,687,1028,3288,36,46,925,1684,1828,2070,2129,2181,1921,1946,2113
551839,-24532,7916,-24587,8181,109,616,-749,168,598,810,991,3206,36,58,927,1684,1828,2070,2129,2181,1921,1946,2113
552840,-24464,7988,-24522,8246,256,658,-779,171,600,536,858,3355,50,43,925,1684,1828,2070,2129,2181,1921,1946,2113
553841,-24400,8064,-24457,8311,307,595,-800,162,592,631,973,3379,37,50,925,1684,1828,2070,2129,2181,1921,1946,2113
554842,-24308,8160,-24392,8376,-76,307,-830,168,591,699,849,3333,35,45,925,1666,1806,2053,2115,2191,1931,1954,2128
555843,-24240,8244,-24327,8441,220,434,-852,214,601,962,841,3504,51,56,925,1666,1806,2053,2115,2191,1931,1954,2128
556844,-24184,8332,-24262,8506,381,356,-878,282,600,1054,716,3401,47,43,926,1666,1806,2053,2115,2191,1931,1954,2128
557845,-24108,8416,-24197,8571,118,383,-904,335,590,972,789,3392,48,59,926,1666,1806,2053,2115,2191,1931,1954,2128
558846,-24036,8496,-24132,8636,159,414,-927,371,584,961,771,3501,51,61,926,1666,1806,2053,2115,2191,1931,1954,2128
559847,-23936,8576,-24067,8701,-233,396,-957,417,589,1070,722,3631,35,45,926,1684,1823,2076,2147,2207,1948,1970,2133
560848,-23880,8664,-24002,8766,328,268,-988,474,591,975,680,3548,52,45,917,1684,1823,2076,2147,2207,1948,1970,2133
561849,-23800,8744,-23937,8831,9,350,-1016,528,605,914,702,3630,38,43,927,1684,1823,2076,2147,2207,1948,1970,2133
562850,-23696,8832,-23872,8896,-338,222,-1041,558,614,651,758,3471,52,57,927,1684,1823,2076,2147,2207,1948,1970,2133
563851,-23604,8932,-23807,8961,-222,29,-1071,583,625,803,688,3543,52,59,927,1684,1823,2076,2147,2207,1948,1970,2133
564852,-23476,9036,-23742,9026,-749,-69,-1095,602,644,753,623,3433,44,52,919,1684,1823,2076,2147,2207,1948,1970,2133
565853,-23356,9168,-23677,9091,-716,-500,-1118,637,682,455,619,3454,49,48,928,1718,1856,2109,2194,2203,1952,1975,2123
566854,-23288,9316,-23612,9156,-70,-802,-1119,709,714,840,444,3388,42,51,926,1718,1856,2109,2194,2203,1952,1975,2123
567855,-23224,9484,-23547,9221,-19,-1178,-1110,767,736,681,432,3325,29,50,923,1718,1856,2109,2194,2203,1952,1975,2123
568856,-23156,9568,-23482,9286,-72,-151,-1069,809,754,669,416,3009,34,34,921,1718,1856,2109,2194,2203,1952,1975,2123
569857,-23096,9628,-23417,9351,34,155,-1023,816,770,614,411,3369,36,31,926,1718,1856,2109,2194,2203,1952,1975,2123
570858,-23028,9680,-23352,9416,-70,271,-1027,746,747,-47,329,3382,48,33,928,1743,1883,2125,2223,2150,1906,1936,2060
571859,-22968,9748,-23287,9481,36,68,-1030,715,731,193,317,3444,50,32,926,1743,1883,2125,2223,2150,1906,1936,2060
572860,-22896,9796,-23222,9546,-123,338,-1056,751,743,828,564,3727,51,39,928,1743,1883,2125,2223,2150,1906,1936,2060
573861,-22824,9860,-23157,9611,-132,140,-1081,843,748,1148,626,3302,42,36,923,1743,1883,2125,2223,2150,1906,1936,2060
574862,-22764,9924,-23092,9676,24,140,-1111,944,738,1180,501,3330,46,31,923,1743,1883,2125,2223,2150,1906,1936,2060
575863,-22696,9988,-23027,9741,-80,141,-1146,1006,708,1040,388,3328,37,42,928,1743,1883,2125,2223,2150,1906,1936,2060
576864,-22624,10048,-22962,9806,-138,197,-1184,1012,681,639,328,3290,36,35,926,1775,1911,2130,2235,2074,1848,1901,2019
577865,-22576,10116,-22897,9871,183,93,-1222,1035,686,573,357,3658,45,29,922,1775,1911,2130,2235,2074,1848,1901,2019
578866,-22508,10188,-22832,9936,-71,35,-1246,1081,699,870,329,3658,35,43,927,1775,1911,2130,2235,2074,1848,1901,2019
579867,-22444,10244,-22767,10001,-20,246,-1261,1094,708,606,205,3492,50,50,926,1775,1911,2130,2235,2074,1848,1901,2019
580868,-22372,10328,-22702,10066,-129,-127,-1240,1064,711,479,29,3731,50,35,927,1775,1911,2130,2235,2074,1848,1901,2019
581869,-22304,10400,-22637,10131,-83,14,-1207,1025,708,273,-53,3592,38,45,923,1767,1896,2113,2212,2090,1868,1920,2056
582870,-22232,10472,-22572,10196,-142,6,-1145,966,691,435,122,3570,46,49,926,1767,1896,2113,2212,2090,1868,1920,2056
583871,-22160,10548,-22507,10261,-150,-58,-1078,984,696,697,-128,3840,35,50,922,1767,1896,2113,2212,2090,1868,1920,2056
584872,-22084,10640,-22442,10326,-214,-292,-1027,1021,732,886,-438,3716,46,35,922,1767,1896,2113,2212,2090,1868,1920,2056
585873,-22020,10720,-22377,10391,-62,-160,-982,949,735,182,-131,2970,33,48,917,1767,1896,2113,2212,2090,1868,1920,2056
586874,-21944,10800,-22312,10456,-226,-178,-948,881,728,-84,-203,3398,32,45,927,1767,1896,2113,2212,2090,1868,1920,2056
587875,-21884,10892,-22247,10521,-21,-361,-918,874,756,400,-195,3176,41,41,927,1763,1906,2125,2219,2114,1880,1928,2062
588876,-21816,10980,-22182,10586,-124,-339,-897,855,766,684,-89,3144,37,43,927,1763,1906,2125,2219,2114,1880,1928,2062
589877,-21752,11048,-22117,10651,-73,-93,-879,799,763,139,-20,2885,37,46,922,1763,1906,2125,2219,2114,1880,1928,2062
590878,-21656,11128,-22052,10716,-511,-261,-881,734,758,-134,-77,3045,48,46,927,1763,1906,2125,2219,2114,1880,1928,2062
591879,-21596,11216,-21987,10781,-55,-391,-885,705,750,471,7,3134,37,51,927,1763,1906,2125,2219,2114,1880,1928,2062
592880,-21536,11284,-21922,10846,-49,-144,-895,661,738,438,103,2811,39,37,927,1799,1943,2143,2248,2085,1847,1920,2044
593881,-21452,11352,-21857,10911,-372,-148,-909,629,725,222,-24,2882,35,47,928,1799,1943,2143,2248,2085,1847,1920,2044
594882,-21384,11432,-21792,10976,-177,-316,-925,585,707,102,-66,2801,49,50,928,1799,1943,2143,2248,2085,1847,1920,2044
595883,-21300,11524,-21727,11041,-400,-499,-932,549,690,296,-153,3043,36,42,927,1799,1943,2143,2248,2085,1847,1920,2044
596884,-21236,11604,-21662,11106,-149,-367,-933,526,684,185,-279,2758,48,36,926,1799,1943,2143,2248,2085,1847,1920,2044
597885,-21172,11656,-21597,11171,-147,-3,-925,478,675,211,-285,2887,33,46,922,1799,1943,2143,2248,2085,1847,1920,2044
598886,-21084,11724,-21532,11236,-475,-206,-909,439,669,-74,-424,3038,30,43,922,1796,1931,2115,2207,2056,1827,1901,2034
599887,-21012,11796,-21467,11301,-284,-265,-883,364,652,-88,-281,3122,33,43,928,1796,1931,2115,2207,2056,1827,1901,2034
600888,-20948,11872,-21402,11366,-184,-328,-870,230,653,-411,-550,2998,35,47,928,1796,1931,2115,2207,2056,1827,1901,2034
601889,-20888,11948,-21337,11431,-128,-342,-855,86,630,-392,-609,3071,50,37,921,1796,1931,2115,2207,2056,1827,1901,2034
602890,-20800,12000,-21272,11496,-506,-27,-837,-44,606,-562,-603,3203,49,37,922,1796,1931,2115,2207,2056,1827,1901,2034
603891,-20724,12080,-21207,11561,-369,-395,-844,-151,589,-918,-778,3402,45,32,928,1756,1897,2089,2173,2073,1843,1914,2063
604892,-20664,12136,-21142,11626,-163,-84,-860,-236,594,-502,-942,3455,37,35,927,1756,1897,2089,2173,2073,1843,1914,2063
605893,-20592,12204,-21077,11691,-323,-238,-869,-326,592,-402,-1065,3357,38,44,923,1756,1897,2089,2173,2073,1843,1914,2063
606894,-20524,12284,-21012,11756,-276,-406,-872,-400,578,-160,-1013,3503,49,46,927,1756,1897,2089,2173,2073,1843,1914,2063
607895,-20468,12352,-20947,11821,-115,-261,-859,-453,572,-290,-1111,3448,39,37,927,1756,1897,2089,2173,2073,1843,1914,2063
608896,-20384,12408,-20882,11886,-488,-100,-841,-564,566,-252,-1119,3181,48,43,923,1756,1897,2089,2173,2073,1843,1914,2063
609897,-20316,12488,-20817,11951,-292,-418,-810,-671,557,-160,-1224,3533,46,31,926,1760,1909,2104,2184,2131,1888,1975,2127
610898,-20240,12564,-20752,12016,-405,-381,-803,-770,575,-267,-1331,3376,39,40,926,1760,1909,2104,2184,2131,1888,1975,2127
611899,-20160,12624,-20687,12081,-475,-175,-780,-816,559,-139,-845,3502,38,31,927,1760,1909,2104,2184,2131,1888,1975,2127
612900,-20096,12668,-20622,12146,-274,49,-778,-914,562,-308,-788,3432,35,32,927,1760,1909,2104,2184,2131,1888,1975,2127
613901,-20016,12744,-20557,12211,-492,-364,-758,-1020,561,-343,-633,3743,43,30,927,1760,1909,2104,2184,2131,1888,1975,2127
614902,-19948,12812,-20492,12276,-346,-268,-746,-1081,561,-10,-675,3942,35,35,926,1775,1924,2098,2201,2151,1918,1994,2124
615903,-19864,12868,-20427,12341,-569,-107,-732,-1071,565,266,-596,3729,51,34,927,1775,1924,2098,2201,2151,1918,1994,2124
616904,-19808,12924,-20362,12406,-209,-96,-717,-953,606,325,-387,3814,31,40,928,1775,1924,2098,2201,2151,1918,1994,2124
617905,-19740,12976,-20297,12471,-362,-31,-710,-937,644,-339,-805,3385,50,39,919,1775,1924,2098,2201,2151,1918,1994,2124
618906,-19644,13028,-20232,12536,-750,-15,-733,-961,583,60,-887,4104,35,29,928,1775,1924,2098,2201,2151,1918,1994,2124
619907,-19548,13076,-20167,12601,-788,56,-765,-1045,525,-124,-1278,4031,47,44,928,1775,1924,2098,2201,2151,1918,1994,2124
620908,-19476,13148,-20102,12666,-498,-253,-816,-1163,526,-1229,-1555,4490,37,39,928,1762,1903,2080,2162,2050,1806,1876,1988
621909,-19420,13220,-20037,12731,-287,-261,-846,-1318,530,-1495,-1331,4686,51,46,927,1762,1903,2080,2162,2050,1806,1876,1988
622910,-19332,13292,-19972,12796,-715,-271,-850,-1472,496,-1738,-1440,4983,42,34,928,1762,1903,2080,2162,2050,1806,1876,1988
623911,-19252,13352,-19907,12861,-633,-115,-850,-1503,445,-1059,-1529,5735,48,43,927,1762,1903,2080,2162,2050,1806,1876,1988
624912,-19172,13408,-19842,12926,-652,-54,-875,-1539,436,-739,-1843,5268,35,41,928,1762,1903,2080,2162,2050,1806,1876,1988
625913,-19108,13468,-19777,12991,-451,-98,-861,-1542,424,-109,-1702,5809,49,39,928,1651,1788,1960,2017,1992,1759,1827,1966
626914,-19056,13536,-19712,13056,-285,-201,-839,-1535,421,13,-1716,5762,39,37,928,1651,1788,1960,2017,1992,1759,1827,1966
627915,-18976,13576,-19647,13121,-654,178,-815,-1483,432,191,-1613,6141,33,43,927,1651,1788,1960,2017,1992,1759,1827,1966
628916,-18904,13640,-19582,13186,-563,-121,-775,-1346,440,629,-1553,6382,37,31,928,1651,1788,1960,2017,1992,1759,1827,1966
629917,-18812,13696,-19517,13251,-846,-10,-752,-1147,488,519,-2033,6711,33,44,928,1651,1788,1960,2017,1992,1759,1827,1966
630918,-18768,13752,-19452,13316,-220,1,-735,-884,522,1084,-1618,6989,34,36,929,1651,1788,1960,2017,1992,1759,1827,1966
631919,-18696,13824,-19387,13381,-579,-207,-747,-686,544,1014,-1740,5786,34,39,927,1612,1756,1942,2016,2016,1800,1870,2000
632920,-18620,13884,-19322,13446,-643,-51,-766,-561,554,646,-1713,6017,38,31,927,1612,1756,1942,2016,2016,1800,1870,2000
633921,-18548,13924,-19257,13511,-602,228,-755,-470,571,491,-2044,5752,38,32,928,1612,1756,1942,2016,2016,1800,1870,2000
634922,-18492,13996,-19192,13576,-391,-180,-737,-354,554,530,-2192,6269,37,41,928,1612,1756,1942,2016,2016,1800,1870,2000
635923,-18420,14080,-19127,13641,-600,-353,-706,-310,546,349,-1968,5810,30,44,927,1612,1756,1942,2016,2016,1800,1870,2000
636924,-18368,14136,-19062,13706,-335,8,-680,-340,541,-83,-2248,5724,27,37,927,1649,1773,1986,2296,2115,1903,1938,2025
637925,-18308,14188,-18997,13771,-429,73,-657,-365,527,-639,-2400,6092,25,43,929,1649,1773,1986,2296,2115,1903,1938,2025
638926,-18252,14248,-18932,13836,-368,-20,-627,-391,510,-301,-2396,5891,28,32,928,1649,1773,1986,2296,2115,1903,1938,2025
639927,-18200,14312,-18867,13901,-303,-70,-569,-427,511,-184,-2683,5996,39,34,928,1649,1773,1986,2296,2115,1903,1938,2025
640928,-18168,14376,-18802,13966,-12,-69,-511,-469,518,-275,-2515,6004,22,38,928,1649,1773,1986,2296,2115,1903,1938,2025
641929,-18096,14456,-18737,14031,-521,-287,-456,-442,525,118,-2457,6252,21,31,928,1649,1773,1986,2296,2115,1903,1938,2025
642930,-18072,14512,-18672,14096,129,24,-412,-360,532,693,-2302,6563,36,40,921,1646,1769,1984,2106,2069,1849,1889,1968
643931,-18020,14564,-18607,14161,-206,90,-373,-226,535,1065,-2335,6698,32,32,929,1646,1769,1984,2106,2069,1849,1889,1968
644932,-17976,14600,-18542,14226,-80,325,-331,-67,550,1156,-2404,6797,22,35,919,1646,1769,1984,2106,2069,1849,1889,1968
645933,-17940,14664,-18477,14291,55,-25,-275,57,550,1666,-2590,6530,33,29,925,1646,1769,1984,2106,2069,1849,1889,1968
646934,-17900,14708,-18412,14356,36,251,-213,190,570,1608,-2735,6744,22,40,928,1646,1769,1984,2106,2069,1849,1889,1968
647935,-17868,14772,-18347,14421,176,2,-160,314,586,1550,-2550,6402,24,41,927,1608,1726,1901,1996,1947,1736,1805,1890
648936,-17824,14824,-18282,14486,50,168,-106,445,586,1578,-2420,6639,28,28,927,1608,1726,1901,1996,1947,1736,1805,1890
649937,-17800,14896,-18217,14551,350,-91,-67,602,603,1563,-2239,6688,16,28,928,1608,1726,1901,1996,1947,1736,1805,1890
650938,-17764,14956,-18152,14616,236,65,-30,707,624,1313,-2000,6316,29,30,927,1608,1726,1901,1996,1947,1736,1805,1890
651939,-17736,14996,-18087,14681,381,346,-6,761,633,940,-1870,6088,28,43,927,1608,1726,1901,1996,1947,1736,1805,1890
652940,-17692,15040,-18022,14746,207,322,1,774,632,544,-1568,5386,27,34,926,1608,1726,1901,1996,1947,1736,1805,1890
653941,-17660,15100,-17957,14811,397,127,-14,735,621,26,-1427,4971,26,38,926,1597,1721,1889,2010,1906,1710,1790,1877
654942,-17632,15128,-17892,14876,492,572,-23,643,615,-169,-1208,4356,23,31,926,1597,1721,1889,2010,1906,1710,1790,1877
655943,-17596,15136,-17827,14941,427,891,-12,484,630,-456,-1538,3576,18,33,924,1597,1721,1889,2010,1906,1710,1790,1877
656944,-17556,15176,-17762,15006,407,522,25,314,603,-754,-1413,3741,14,38,922,1597,1721,1889,2010,1906,1710,1790,1877
657945,-17516,15228,-17697,15071,438,388,54,161,545,-508,-1260,2950,33,46,925,1597,1721,1889,2010,1906,1710,1790,1877
658946,-17464,15288,-17632,15136,303,294,62,62,516,471,-1409,2509,34,43,925,1633,1758,1953,2065,1986,1774,1842,1962
659947,-17424,15368,-17567,15201,484,26,54,-49,544,775,-1469,2169,33,41,926,1633,1758,1953,2065,1986,1774,1842,1962
660948,-17384,15436,-17502,15266,514,172,73,-120,548,268,-1551,2363,21,48,926,1633,1758,1953,2065,1986,1774,1842,1962
661949,-17352,15520,-17437,15331,655,-51,129,-79,529,444,-1844,2830,22,55,926,1633,1758,1953,2065,1986,1774,1842,1962
662950,-17284,15600,-17372,15396,201,-20,199,9,506,1635,-1683,2874,24,53,925,1633,1758,1953,2065,1986,1774,1842,1962
663951,-17224,15676,-17307,15461,307,17,278,135,488,1857,-1528,3319,34,43,928,1633,1758,1953,2065,1986,1774,1842,1962
664952,-17164,15748,-17242,15526,313,59,338,218,498,1524,-1488,3220,29,46,927,1628,1759,1938,1994,1978,1745,1809,1943
665953,-17112,15816,-17177,15591,429,104,375,201,503,1136,-1351,3070,38,44,926,1628,1759,1938,1994,1978,1745,1809,1943
666954,-17060,15888,-17112,15656,445,45,389,124,515,618,-1132,2769,26,49,926,1628,1759,1938,1994,1978,1745,1809,1943
667955,-17000,15968,-17047,15721,351,-73,397,-147,566,200,-1014,2459,29,40,927,1628,1759,1938,1994,1978,1745,1809,1943
668956,-16940,16032,-16982,15786,357,128,390,-285,609,-146,-715,2262,46,38,927,1628,1759,1938,1994,1978,1745,1809,1943
669957,-16880,16096,-16917,15851,363,129,371,-397,615,-263,-502,2535,34,43,927,1569,1697,1872,1948,1899,1681,1753,1860
670958,-16824,16148,-16852,15916,424,295,343,-484,632,-334,-596,2522,29,45,927,1569,1697,1872,1948,1899,1681,1753,1860
671959,-16756,16228,-16787,15981,271,-73,317,-541,634,67,-380,2315,32,39,926,1569,1697,1872,1948,1899,1681,1753,1860
672960,-16672,16300,-16722,16046,47,18,305,-598,617,-146,-542,2445,30,37,927,1569,1697,1872,1948,1899,1681,1753,1860
673961,-16616,16348,-16657,16111,408,339,273,-612,598,-198,-675,2139,44,39,928,1569,1697,1872,1948,1899,1681,1753,1860
674962,-16564,16404,-16592,16176,474,250,252,-606,580,249,-642,2108,33,34,926,1569,1697,1872,1948,1899,1681,1753,1860
675963,-16500,16460,-16527,16241,326,261,225,-624,569,113,-809,1771,40,49,926,1575,1711,1887,1986,1910,1701,1779,1895
676964,-16444,16528,-16462,16306,437,107,199,-634,549,131,-890,1954,45,33,926,1575,1711,1887,1986,1910,1701,1779,1895
677965,-16384,16588,-16397,16371,393,213,188,-623,535,256,-938,1666,35,32,926,1575,1711,1887,1986,1910,1701,1779,1895
678966,-16312,16640,-16332,16436,234,328,195,-601,531,216,-973,1824,39,47,926,1575,1711,1887,1986,1910,1701,1779,1895
679967,-16232,16716,-16267,16501,116,15,210,-524,519,567,-983,2061,32,40,927,1575,1711,1887,1986,1910,1701,1779,1895
680968,-16164,16776,-16202,16566,262,221,217,-468,511,440,-1096,1899,33,46,928,1625,1755,1952,2042,1997,1778,1841,1970
681969,-16112,16840,-16137,16631,478,172,234,-401,508,468,-1141,2291,44,37,927,1625,1755,1952,2042,1997,1778,1841,1970
682970,-16040,16916,-16072,16696,219,9,259,-382,519,493,-989,2355,44,44,925,1625,1755,1952,2042,1997,1778,1841,1970
683971,-15980,16964,-16007,16761,376,380,289,-353,532,496,-1007,2800,40,35,927,1625,1755,1952,2042,1997,1778,1841,1970
684972,-15920,17016,-15942,16826,382,346,323,-295,543,603,-938,2962,31,37,926,1625,1755,1952,2042,1997,1778,1841,1970
685973,-15848,17072,-15877,16891,223,307,345,-257,543,533,-919,3254,40,41,926,1625,1755,1952,2042,1997,1778,1841,1970
686974,-15796,17148,-15812,16956,489,43,366,-206,546,623,-990,3175,32,46,927,1616,1737,1941,2029,2012,1791,1831,1937
687975,-15736,17220,-15747,17021,395,85,372,-163,549,603,-786,3329,34,42,927,1616,1737,1941,2029,2012,1791,1831,1937
688976,-15656,17268,-15682,17086,127,404,383,-119,551,454,-785,3547,48,45,927,1616,1737,1941,2029,2012,1791,1831,1937
689977,-15596,17328,-15617,17151,383,260,380,-88,551,379,-770,3445,31,34,927,1616,1737,1941,2029,2012,1791,1831,1937
690978,-15528,17400,-15552,17216,279,102,378,-45,548,494,-735,3810,28,44,926,1616,1737,1941,2029,2012,1791,1831,1937
691979,-15472,17460,-15487,17281,440,258,368,6,559,486,-785,3705,29,44,927,1593,1708,1918,2033,1949,1747,1789,1875
692980,-15416,17532,-15422,17346,451,99,361,80,548,805,-664,4055,44,45,926,1593,1708,1918,2033,1949,1747,1789,1875
693981,-15372,17584,-15357,17411,627,365,348,162,533,688,-737,4112,36,32,926,1593,1708,1918,2033,1949,1747,1789,1875
694982,-15312,17648,-15292,17476,433,217,335,230,521,707,-768,4027,48,45,924,1593,1708,1918,2033,1949,1747,1789,1875
695983,-15244,17688,-15227,17541,329,547,332,291,513,805,-739,4392,31,40,926,1593,1708,1918,2033,1949,1747,1789,1875
696984,-15172,17776,-15162,17606,271,-81,338,319,499,847,-698,4236,35,44,925,1593,1708,1918,2033,1949,1747,1789,1875
697985,-15128,17820,-15097,17671,646,495,343,340,501,706,-900,4386,33,37,927,1618,1732,1941,2070,1931,1746,1796,1885
698986,-15048,17892,-15032,17736,178,136,345,342,494,893,-806,4253,36,44,923,1618,1732,1941,2070,1931,1746,1796,1885
699987,-15008,17944,-14967,17801,709,402,351,367,460,1150,-831,4189,43,37,926,1618,1732,1941,2070,1931,1746,1796,1885
700988,-14932,18008,-14902,17866,245,253,352,405,438,1313,-943,4262,32,39,923,1618,1732,1941,2070,1931,1746,1796,1885
701989,-14884,18076,-14837,17931,616,199,368,435,423,1424,-869,4151,36,45,927,1618,1732,1941,2070,1931,1746,1796,1885
702990,-14820,18120,-14772,17996,417,525,396,445,410,1227,-1056,4269,32,31,925,1660,1772,1995,2125,1981,1795,1839,1935
703991,-14744,18176,-14707,18061,254,386,426,450,385,1196,-945,4479,38,42,925,1660,1772,1995,2125,1981,1795,1839,1935
704992,-14704,18240,-14508,18260,898,450,464,478,361,1586,-862,4456,41,37,926,1660,1772,1995,2125,1981,1795,1839,1935
705993,-14616,18328,-14443,18325,270,122,508,497,340,1671,-877,4578,38,45,922,1660,1772,1995,2125,1981,1795,1839,1935
706995,-14556,18384,-14378,18390,626,533,552,526,315,1594,-687,4635,40,46,927,1660,1772,1995,2125,1981,1795,1839,1935
707995,-14488,18452,-14313,18455,522,379,585,520,302,1314,-662,4540,50,30,923,1670,1781,1999,2115,1999,1805,1846,1934
708996,-14396,18516,-14248,18520,189,430,616,505,288,1114,-649,4798,35,34,925,1670,1781,1999,2115,1999,1805,1846,1934
709997,-14336,18572,-14183,18585,595,541,641,472,275,1137,-479,4671,54,41,926,1670,1781,1999,2115,1999,1805,1846,1934
710998,-14240,18632,-14118,18650,107,497,665,426,267,1052,-375,4853,43,36,923,1670,1781,1999,2115,1999,1805,1846,1934
711999,-14172,18700,-14053,18715,454,394,677,367,259,991,-291,4843,54,27,926,1670,1781,1999,2115,1999,1805,1846,1934
713000,-14112,18752,-13988,18780,560,610,671,279,258,669,-337,4617,37,41,925,1670,1781,1999,2115,1999,1805,1846,1934
714001,-14040,18800,-13923,18845,401,680,656,244,235,1021,-109,4974,43,39,923,1650,1760,1961,2083,1948,1753,1811,1898
715002,-13968,18884,-13858,18910,393,207,631,228,212,1147,-208,4696,53,42,923,1650,1760,1961,2083,1948,1753,1811,1898
716003,-13892,18940,-13793,18975,329,568,609,241,178,1252,-136,4981,50,33,926,1650,1760,1961,2083,1948,1753,1811,1898
717004,-13816,18980,-13728,19040,316,799,598,257,160,987,-172,4844,33,43,924,1650,1760,1961,2083,1948,1753,1811,1898
718005,-13756,19072,-13663,19105,522,117,597,283,150,837,-387,4843,38,31,923,1650,1760,1961,2083,1948,1753,1811,1898
719006,-13680,19132,-13598,19170,309,523,607,264,135,1016,-322,4711,47,36,926,1632,1746,1937,2043,1957,1756,1822,1936
720007,-13624,19192,-13533,19235,570,529,621,241,117,764,-417,4548,46,38,925,1632,1746,1937,2043,1957,1756,1822,1936
721008,-13548,19236,-13468,19300,306,755,637,227,101,725,-387,4674,47,42,923,1632,1746,1937,2043,1957,1756,1822,1936
722009,-13488,19304,-13403,19365,512,451,656,225,78,660,-284,4439,41,38,924,1632,1746,1937,2043,1957,1756,1822,1936
723010,-13428,19376,-13338,19430,518,392,672,208,74,460,-445,4214,46,48,925,1632,1746,1937,2043,1957,1756,1822,1936
724011,-13352,19448,-13273,19495,305,384,688,187,63,515,-243,4383,36,42,924,1632,1746,1937,2043,1957,1756,1822,1936
725012,-13308,19528,-13208,19560,731,266,706,179,43,307,-287,4141,41,47,926,1611,1740,1940,2033,2035,1815,1876,2012
726013,-13244,19596,-13143,19625,483,412,726,186,24,553,-150,4232,46,43,924,1611,1740,1940,2033,2035,1815,1876,2012
727014,-13180,19664,-13078,19690,484,408,735,212,3,557,-40,3916,35,42,924,1611,1740,1940,2033,2035,1815,1876,2012
728015,-13108,19748,-13013,19755,375,185,735,193,-5,127,-44,3886,37,34,925,1611,1740,1940,2033,2035,1815,1876,2012
729016,-13044,19824,-12948,19820,477,272,736,148,-13,-22,27,3899,35,45,926,1611,1740,1940,2033,2035,1815,1876,2012
730017,-12992,19880,-12883,19885,643,533,735,115,-24,52,91,3899,41,43,925,1609,1749,1944,2026,2059,1815,1881,2012
731018,-12924,19960,-12818,19950,439,214,734,98,-41,12,117,3988,44,32,923,1609,1749,1944,2026,2059,1815,1881,2012
732019,-12860,20024,-12753,20015,490,416,706,94,-63,72,185,3594,37,33,925,1609,1749,1944,2026,2059,1815,1881,2012
733020,-12792,20068,-12688,20080,436,691,680,83,-65,201,13,3659,35,36,925,1609,1749,1944,2026,2059,1815,1881,2012
734021,-12728,20136,-12623,20145,488,387,649,98,-56,274,16,3777,42,31,923,1609,1749,1944,2026,2059,1815,1881,2012
735022,-12644,20188,-12558,20210,214,603,611,131,-53,249,184,3909,32,36,925,1609,1749,1944,2026,2059,1815,1881,2012
736023,-12576,20272,-12493,20275,411,180,575,172,-61,392,125,3965,41,39,925,1609,1754,1931,2006,1998,1755,1833,1963
737024,-12512,20332,-12428,20340,462,486,531,206,-79,204,138,4039,31,40,926,1609,1754,1931,2006,1998,1755,1833,1963
738025,-12452,20384,-12363,20405,518,602,496,215,-93,71,164,3893,46,45,924,1609,1754,1931,2006,1998,1755,1833,1963
739026,-12384,20464,-12298,20470,414,234,458,225,-105,230,52,3859,47,34,924,1609,1754,1931,2006,1998,1755,1833,1963
740027,-12316,20528,-12233,20535,411,435,423,212,-108,136,-62,3670,39,45,926,1609,1754,1931,2006,1998,1755,1833,1963
741028,-12260,20596,-12168,20600,572,381,401,178,-111,-74,-109,3649,31,39,925,1595,1737,1915,1987,1974,1746,1816,1950
742029,-12200,20660,-12103,20665,528,433,395,154,-119,-178,-157,3595,45,44,924,1595,1737,1915,1987,1974,1746,1816,1950
743030,-12136,20708,-12038,20730,479,653,393,113,-124,33,-205,3522,32,32,924,1595,1737,1915,1987,1974,1746,1816,1950
744031,-12064,20780,-11973,20795,371,345,402,62,-115,-6,-234,3549,31,41,923,1595,1737,1915,1987,1974,1746,1816,1950
745032,-11988,20840,-11908,20860,307,501,415,8,-116,-53,-193,3605,32,35,926,1595,1737,1915,1987,1974,1746,1816,1950
746033,-11936,20896,-11843,20925,623,562,420,-28,-133,123,5,3437,32,45,925,1595,1737,1915,1987,1974,1746,1816,1950
747034,-11876,20956,-11778,20990,529,518,411,-64,-149,151,55,3335,42,42,923,1599,1736,1937,2019,1997,1774,1835,1966
748035,-11808,21048,-11713,21055,425,85,401,-77,-155,294,141,3387,29,35,924,1599,1736,1937,2019,1997,1774,1835,1966
749036,-11760,21120,-11648,21120,696,327,383,-68,-157,452,203,3133,34,46,926,1599,1736,1937,2019,1997,1774,1835,1966
750037,-11684,21212,-11583,21185,333,44,365,-54,-157,466,344,3252,39,41,924,1599,1736,1937,2019,1997,1774,1835,1966
751038,-11624,21256,-11518,21250,539,669,328,-39,-158,275,465,3112,48,45,926,1599,1736,1937,2019,1997,1774,1835,1966
752039,-11568,21324,-11453,21315,600,366,295,-51,-161,267,494,3248,41,43,923,1648,1779,1982,2077,1999,1786,1847,1960
753040,-11504,21400,-11388,21380,501,252,268,-56,-149,235,425,3210,45,41,924,1648,1779,1982,2077,1999,1786,1847,1960
754041,-11444,21456,-11323,21445,557,513,267,-88,-145,285,380,3143,46,35,925,1648,1779,1982,2077,1999,1786,1847,1960
755042,-11380,21524,-11258,21510,509,359,276,-96,-132,301,233,3410,47,30,924,1648,1779,1982,2077,1999,1786,1847,1960
756043,-11332,21576,-11193,21575,730,575,280,-116,-120,182,382,3425,42,43,925,1648,1779,1982,2077,1999,1786,1847,1960
757044,-11264,21632,-11128,21640,477,536,270,-114,-107,246,488,3526,41,43,922,1648,1779,1982,2077,1999,1786,1847,1960
758045,-11200,21696,-11063,21705,528,437,256,-141,-106,122,538,3559,51,30,924,1655,1773,1973,2077,1970,1762,1816,1919
759046,-11128,21768,-10998,21770,419,329,247,-139,-120,98,555,3909,48,29,924,1655,1773,1973,2077,1970,1762,1816,1919
760047,-11052,21808,-10933,21835,356,759,260,-123,-124,54,295,3784,41,41,925,1655,1773,1973,2077,1970,1762,1816,1919
761048,-10988,21884,-10868,21900,507,296,275,-138,-116,199,260,3686,33,27,923,1655,1773,1973,2077,1970,1762,1816,1919
762049,-10932,21940,-10803,21965,618,557,310,-126,-108,197,335,3891,31,39,925,1655,1773,1973,2077,1970,1762,1816,1919
763050,-10864,21980,-10738,22030,464,788,315,-103,-102,165,473,3990,45,30,923,1637,1754,1957,2058,1947,1741,1796,1906
764051,-10792,22080,-10673,22095,406,-5,327,-53,-99,75,408,4047,30,37,923,1637,1754,1957,2058,1947,1741,1796,1906
765052,-10736,22128,-10608,22160,617,666,328,-60,-107,172,486,3719,47,31,927,1637,1754,1957,2058,1947,1741,1796,1906
766053,-10660,22204,-10543,22225,353,302,337,-46,-121,89,499,4143,32,37,923,1637,1754,1957,2058,1947,1741,1796,1906
767054,-10596,22252,-10478,22290,505,673,330,-30,-126,109,601,3771,32,30,926,1637,1754,1957,2058,1947,1741,1796,1906
768055,-10548,22304,-10413,22355,725,639,318,-31,-140,350,558,3735,29,40,922,1637,1754,1957,2058,1947,1741,1796,1906
769056,-10496,22372,-10348,22420,691,435,297,-20,-148,183,615,3716,32,36,922,1649,1773,1981,2087,1954,1749,1811,1924
770057,-10416,22432,-10283,22485,323,541,269,5,-165,96,734,3710,42,40,923,1649,1773,1981,2087,1954,1749,1811,1924
771058,-10364,22492,-10218,22550,689,547,245,50,-168,409,738,3657,47,41,925,1649,1773,1981,2087,1954,1749,1811,1924
772059,-10300,22564,-10153,22615,540,389,233,96,-164,468,698,3582,40,26,923,1649,1773,1981,2087,1954,1749,1811,1924
773060,-10244,22620,-10088,22680,651,600,224,118,-139,194,577,3676,40,31,924,1649,1773,1981,2087,1954,1749,1811,1924
774061,-10180,22680,-10023,22745,552,556,222,139,-131,139,638,3781,39,31,923,1691,1818,2026,2128,1992,1784,1843,1963
775062,-10128,22756,-9958,22810,718,342,224,160,-118,113,566,3754,48,39,924,1691,1818,2026,2128,1992,1784,1843,1963
776063,-10064,22796,-9893,22875,570,823,219,158,-112,261,628,3683,30,34,923,1691,1818,2026,2128,1992,1784,1843,1963
777064,-10008,22844,-9828,22940,681,744,227,144,-104,-23,652,3929,30,30,922,1691,1818,2026,2128,1992,1784,1843,1963
778065,-9936,22916,-9763,23005,473,435,224,143,-101,106,659,3817,32,25,921,1691,1818,2026,2128,1992,1784,1843,1963
779066,-9884,22968,-9698,23070,739,701,237,147,-97,321,592,3972,33,31,924,1691,1818,2026,2128,1992,1784,1843,1963
780067,-9840,23044,-9633,23135,864,388,245,150,-84,252,585,4064,45,36,921,1674,1800,2007,2094,2003,1785,1835,1962
781068,-9772,23080,-9568,23200,561,923,253,161,-94,-9,615,4189,33,24,922,1674,1800,2007,2094,2003,1785,1835,1962
782069,-9724,23148,-9503,23265,831,519,251,195,-105,147,677,4276,48,34,921,1674,1800,2007,2094,2003,1785,1835,1962
783070,-9648,23184,-9438,23330,468,955,247,207,-107,331,664,4148,36,24,922,1674,1800,2007,2094,2003,1785,1835,1962
784071,-9592,23244,-9373,23395,729,661,242,206,-113,122,684,4313,40,37,921,1674,1800,2007,2094,2003,1785,1835,1962
785072,-9544,23300,-9308,23460,850,722,234,213,-126,0,703,4250,47,38,921,1645,1773,1974,2056,1985,1763,1823,1948
786073,-9460,23360,-9243,23525,376,678,224,233,-131,144,605,4215,48,28,920,1645,1773,1974,2056,1985,1763,1823,1948
787074,-9404,23412,-9178,23590,737,794,210,240,-141,251,717,4182,42,42,924,1645,1773,1974,2056,1985,1763,1823,1948
788075,-9352,23464,-9113,23655,803,810,200,229,-145,10,723,4136,38,28,921,1645,1773,1974,2056,1985,1763,1823,1948
789076,-9308,23524,-9048,23720,930,716,180,241,-146,-166,648,4193,47,36,920,1645,1773,1974,2056,1985,1763,1823,1948
790077,-9248,23572,-8983,23785,736,888,166,250,-146,159,688,4061,33,28,919,1645,1773,1974,2056,1985,1763,1823,1948
791078,-9168,23644,-8918,23850,468,579,154,253,-145,205,662,4092,44,43,920,1645,1779,1978,2067,1992,1773,1838,1965
792079,-9116,23688,-8853,23915,834,955,141,242,-131,48,569,3901,38,39,923,1645,1779,1978,2067,1992,1773,1838,1965
793080,-9056,23748,-8788,23980,740,761,130,250,-118,89,590,3710,44,28,919,1645,1779,1978,2067,1992,1773,1838,1965
794081,-8996,23824,-8723,24045,746,547,122,253,-108,193,518,3904,37,44,921,1645,1779,1978,2067,1992,1773,1838,1965
795082,-8928,23872,-8658,24110,642,918,120,268,-92,76,462,3726,41,45,922,1645,1779,1978,2067,1992,1773,1838,1965
796083,-8864,23944,-8593,24175,693,609,121,261,-78,118,504,3840,38,33,921,1670,1805,2010,2099,2006,1788,1852,1976
797084,-8820,24000,-8528,24240,969,820,113,262,-70,45,433,3836,42,30,922,1670,1805,2010,2099,2006,1788,1852,1976
798085,-8776,24068,-8463,24305,995,667,109,248,-65,98,380,3653,46,40,919,1670,1805,2010,2099,2006,1788,1852,1976
799086,-8696,24148,-8398,24370,527,498,107,247,-47,203,375,3870,46,32,920,1670,1805,2010,2099,2006,1788,1852,1976
800087,-8636,24212,-8333,24435,783,700,108,235,-37,142,467,3887,39,29,923,1670,1805,2010,2099,2006,1788,1852,1976
801088,-8592,24268,-8268,24500,1009,811,106,232,-36,-30,363,4034,29,27,921,1670,1805,2010,2099,2006,1788,1852,1976
802089,-8528,24312,-8203,24565,760,987,102,210,-20,80,379,3898,34,26,917,1682,1812,2016,2108,1988,1772,1831,1948
803090,-8464,24368,-8138,24630,761,848,102,183,-5,6,430,4011,38,35,919,1682,1812,2016,2108,1988,1772,1831,1948
804091,-8408,24420,-8073,24695,872,914,100,152,1,-28,477,4105,30,39,920,1682,1812,2016,2108,1988,1772,1831,1948
805092,-8360,24488,-8008,24760,993,711,86,134,10,32,480,4157,47,36,919,1682,1812,2016,2108,1988,1772,1831,1948
806093,-8292,24556,-7943,24825,740,707,72,108,21,197,375,4127,43,44,919,1682,1812,2016,2108,1988,1772,1831,1948
807094,-8224,24620,-7878,24890,736,758,52,94,17,402,421,4053,34,34,921,1681,1808,2009,2105,1955,1744,1810,1927
808095,-8160,24660,-7813,24955,788,1089,40,92,18,151,335,4209,47,36,921,1681,1808,2009,2105,1955,1744,1810,1927
809096,-8096,24736,-7748,25020,789,625,31,93,24,245,357,3971,39,42,918,1681,1808,2009,2105,1955,1744,1810,1927
810097,-8052,24788,-7683,25085,1065,941,28,107,34,355,246,4082,30,30,921,1681,1808,2009,2105,1955,1744,1810,1927
811098,-7980,24856,-7618,25150,706,737,26,125,42,374,242,3942,29,43,917,1681,1808,2009,2105,1955,1744,1810,1927
812099,-7936,24916,-7553,25215,1082,844,29,136,49,230,250,3986,32,33,921,1681,1808,2009,2105,1955,1744,1810,1927
813100,-7860,24980,-7488,25280,669,796,40,122,70,181,295,3844,40,35,918,1699,1829,2031,2127,1954,1750,1816,1937
814101,-7804,25064,-7423,25345,930,523,33,94,86,208,282,3928,49,39,921,1699,1829,2031,2127,1954,1750,1816,1937
815102,-7756,25116,-7358,25410,1051,938,37,81,109,92,269,3883,42,45,921,1699,1829,2031,2127,1954,1750,1816,1937
816103,-7708,25180,-7293,25475,1072,790,47,41,136,127,225,3742,33,41,918,1699,1829,2031,2127,1954,1750,1816,1937
817104,-7648,25268,-7228,25540,928,462,85,9,164,198,193,3855,42,46,918,1699,1829,2031,2127,1954,1750,1816,1937
818105,-7592,25332,-7163,25605,989,763,112,-28,201,65,81,3751,40,36,921,1731,1862,2072,2176,1965,1759,1823,1936
819106,-7536,25408,-7098,25670,1000,599,134,-70,237,220,221,3726,40,46,918,1731,1862,2072,2176,1965,1759,1823,1936
820107,-7476,25488,-7033,25735,956,531,134,-86,274,239,426,3806,36,40,919,1731,1862,2072,2176,1965,1759,1823,1936
821108,-7404,25584,-6968,25800,799,293,136,-83,309,288,443,3683,43,48,921,1731,1862,2072,2176,1965,1759,1823,1936
822109,-7352,25652,-6903,25865,1065,641,140,-63,322,295,524,3875,47,37,923,1731,1862,2072,2176,1965,1759,1823,1936
823110,-7296,25736,-6838,25930,1026,417,146,-58,343,260,357,3740,35,33,919,1731,1862,2072,2176,1965,1759,1823,1936
824111,-7240,25820,-6773,25995,1037,394,164,-48,358,394,355,3751,50,47,921,1764,1888,2095,2207,1942,1739,1808,1912
825112,-7196,25884,-6708,26060,1212,645,170,-47,351,563,467,3960,52,35,921,1764,1888,2095,2207,1942,1739,1808,1912
826113,-7120,25928,-6643,26125,799,921,182,-25,345,410,412,3819,51,41,918,1764,1888,2095,2207,1942,1739,1808,1912
827114,-7056,26000,-6578,26190,951,562,187,-11,331,416,522,4113,35,42,919,1764,1888,2095,2207,1942,1739,1808,1912
828115,-6992,26052,-6513,26255,952,828,213,17,311,584,562,4101,35,34,920,1764,1888,2095,2207,1942,1739,1808,1912
829116,-6944,26124,-6448,26320,1173,570,226,29,314,373,311,4105,33,36,919,1775,1890,2090,2204,1917,1716,1788,1888
830117,-6864,26180,-6383,26385,755,781,256,40,311,493,418,4190,33,44,919,1775,1890,2090,2204,1917,1716,1788,1888
831118,-6812,26264,-6318,26450,1121,408,296,48,305,387,265,4099,39,39,921,1775,1890,2090,2204,1917,1716,1788,1888
832119,-6740,26316,-6253,26515,862,823,353,74,322,256,106,4108,47,37,920,1775,1890,2090,2204,1917,1716,1788,1888
833120,-6684,26384,-6188,26580,1074,620,402,74,332,295,245,3909,38,34,919,1775,1890,2090,2204,1917,1716,1788,1888
834121,-6624,26448,-6123,26645,1030,671,449,71,345,113,227,4073,46,33,919,1775,1890,2090,2204,1917,1716,1788,1888
835122,-6560,26516,-6058,26710,981,617,469,58,376,126,264,3914,45,36,919,1765,1885,2091,2211,1912,1722,1790,1884
836123,-6512,26592,-5993,26775,1202,505,505,64,404,396,408,4014,35,43,919,1765,1885,2091,2211,1912,1722,1790,1884
837124,-6468,26668,-5928,26840,1278,491,520,59,461,164,266,3820,28,42,919,1765,1885,2091,2211,1912,1722,1790,1884
838125,-6408,26724,-5863,26905,1085,752,536,57,511,294,473,3867,47,51,918,1765,1885,2091,2211,1912,1722,1790,1884
839126,-6344,26788,-5798,26970,1036,654,538,70,561,436,500,3951,33,34,918,1765,1885,2091,2211,1912,1722,1790,1884
840127,-6288,26860,-5733,27035,1147,545,533,82,595,615,572,3807,41,48,919,1792,1913,2124,2259,1915,1735,1806,1901
841128,-6244,26928,-5668,27100,1323,591,535,116,622,525,514,3871,48,35,919,1792,1913,2124,2259,1915,1735,1806,1901
842129,-6164,26996,-5603,27165,854,588,528,141,631,620,504,3768,33,47,917,1792,1913,2124,2259,1915,1735,1806,1901
843130,-6120,27048,-5538,27230,1331,804,538,157,634,511,415,3708,33,46,921,1792,1913,2124,2259,1915,1735,1806,1901
844131,-6064,27120,-5473,27295,1192,545,543,192,624,735,493,3796,46,45,916,1792,1913,2124,2259,1915,1735,1806,1901
845132,-6000,27180,-5408,27360,1093,701,565,228,608,640,398,3707,38,38,918,1792,1913,2124,2259,1915,1735,1806,1901
846133,-5940,27252,-5343,27425,1149,543,594,244,587,780,505,3889,44,45,918,1818,1934,2148,2268,1945,1756,1820,1924
847134,-5868,27332,-5278,27490,992,424,629,258,568,667,397,3870,40,40,919,1818,1934,2148,2268,1945,1756,1820,1924
848135,-5832,27404,-5213,27555,1477,516,666,259,550,510,308,3897,37,50,921,1818,1934,2148,2268,1945,1756,1820,1924
849136,-5768,27468,-5148,27620,1128,617,717,256,532,534,404,3959,33,43,916,1818,1934,2148,2268,1945,1756,1820,1924
850137,-5696,27544,-5083,27685,1020,454,759,257,517,467,441,4082,34,45,919,1818,1934,2148,2268,1945,1756,1820,1924
851138,-5640,27608,-5018,27750,1231,605,808,265,506,457,408,4266,34,35,920,1779,1893,2110,2218,1957,1760,1813,1919
852139,-5580,27680,-4953,27815,1188,497,837,278,502,570,404,4162,46,35,918,1779,1893,2110,2218,1957,1760,1813,1919
853140,-5524,27732,-4888,27880,1249,763,874,267,507,442,419,4054,49,46,917,1779,1893,2110,2218,1957,1760,1813,1919
854141,-5456,27808,-4823,27945,1095,450,882,255,515,258,488,4094,39,40,916,1779,1893,2110,2218,1957,1760,1813,1919
855142,-5396,27884,-4758,28010,1201,436,897,247,537,207,584,3981,47,48,920,1779,1893,2110,2218,1957,1760,1813,1919
856143,-5336,27940,-4693,28075,1208,697,891,236,558,366,604,3927,31,46,919,1779,1893,2110,2218,1957,1760,1813,1919
857144,-5276,28004,-4628,28140,1215,599,878,244,576,326,633,3979,49,33,917,1757,1881,2097,2214,1934,1744,1809,1909
858145,-5232,28064,-4563,28205,1440,655,863,250,603,462,711,4017,45,32,918,1757,1881,2097,2214,1934,1744,1809,1909
859146,-5172,28100,-4498,28270,1246,990,850,253,616,531,671,3882,38,44,915,1757,1881,2097,2214,1934,1744,1809,1909
860147,-5096,28172,-4433,28335,1034,531,830,259,628,493,564,4070,48,34,915,1757,1881,2097,2214,1934,1744,1809,1909
861148,-5028,28236,-4368,28400,1130,633,816,263,634,630,610,3843,49,41,920,1757,1881,2097,2214,1934,1744,1809,1909
862149,-4996,28304,-4303,28465,1620,579,801,266,630,546,539,3823,42,35,918,1782,1912,2122,2240,1953,1766,1835,1945
863150,-4940,28364,-4238,28530,1331,685,786,275,622,617,554,3931,29,47,914,1782,1912,2122,2240,1953,1766,1835,1945
864151,-4876,28432,-4173,28595,1234,581,774,286,610,684,590,3717,45,43,916,1782,1912,2122,2240,1953,1766,1835,1945
865152,-4808,28512,-4108,28660,1180,413,767,298,588,565,530,3868,37,38,918,1782,1912,2122,2240,1953,1766,1835,1945
866153,-4760,28592,-4043,28725,1451,395,763,308,570,568,377,3815,52,50,919,1782,1912,2122,2240,1953,1766,1835,1945
867154,-4696,28680,-3978,28790,1252,267,767,305,550,660,436,3849,42,40,917,1782,1912,2122,2240,1953,1766,1835,1945
868155,-4644,28736,-3913,28855,1419,678,775,303,521,466,496,3862,34,51,919,1788,1917,2138,2241,2013,1811,1866,1991
869156,-4576,28808,-3848,28920,1215,469,781,289,490,295,462,3922,49,40,915,1788,1917,2138,2241,2013,1811,1866,1991
870157,-4520,28856,-3783,28985,1376,790,792,281,454,282,485,3962,44,36,918,1788,1917,2138,2241,2013,1811,1866,1991
871158,-4452,28956,-3718,29050,1223,98,796,265,418,327,513,4029,49,48,915,1788,1917,2138,2241,2013,1811,1866,1991
872159,-4400,29008,-3653,29115,1439,714,799,239,403,234,491,3892,37,37,920,1788,1917,2138,2241,2013,1811,1866,1991
873160,-4320,29076,-3588,29180,1071,510,798,233,384,250,481,3906,42,46,916,1749,1878,2104,2196,2030,1824,1869,1989
874161,-4276,29148,-3523,29245,1547,452,795,221,374,326,526,4105,47,42,920,1749,1878,2104,2196,2030,1824,1869,1989
875162,-4200,29216,-3458,29310,1134,498,809,235,384,269,502,4008,49,43,916,1749,1878,2104,2196,2030,1824,1869,1989
876163,-4144,29296,-3393,29375,1395,330,819,227,397,431,562,3890,50,49,919,1749,1878,2104,2196,2030,1824,1869,1989
877164,-4076,29344,-3328,29440,1242,751,802,211,440,364,775,4088,36,41,917,1749,1878,2104,2196,2030,1824,1869,1989
878165,-4020,29420,-3263,29505,1404,387,770,227,501,207,1103,4010,52,36,917,1749,1878,2104,2196,2030,1824,1869,1989
879166,-3956,29484,-3198,29570,1305,538,733,261,533,542,921,4128,50,49,917,1723,1856,2078,2179,2002,1799,1852,1964
880167,-3908,29528,-3133,29635,1526,814,697,284,539,678,878,4049,41,47,917,1723,1856,2078,2179,2002,1799,1852,1964
881168,-3828,29596,-3068,29700,1107,510,670,283,525,498,946,3876,40,41,914,1723,1856,2078,2179,2002,1799,1852,1964
882171,-3776,29680,-3003,29765,1474,287,630,312,491,585,908,4055,45,43,919,1723,1856,2078,2179,2002,1799,1852,1964
883170,-3708,29756,-2938,29830,1270,374,589,312,441,598,838,3892,42,51,917,1723,1856,2078,2179,2002,1799,1852,1964
884171,-3648,29808,-2873,29895,1377,690,553,339,400,484,813,3917,33,45,918,1737,1866,2091,2199,2003,1810,1860,1976
885172,-3596,29876,-2808,29960,1493,486,517,377,358,593,943,4058,33,37,916,1737,1866,2091,2199,2003,1810,1860,1976
886173,-3540,29940,-2743,30025,1454,537,492,401,316,487,675,3804,40,40,916,1737,1866,2091,2199,2003,1810,1860,1976
887174,-3492,29992,-2678,30090,1575,703,482,398,265,410,625,3946,29,38,915,1737,1866,2091,2199,2003,1810,1860,1976
888175,-3428,30064,-2613,30155,1376,445,468,354,232,73,554,3759,28,41,914,1737,1866,2091,2199,2003,1810,1860,1976
889176,-3388,30144,-2548,30220,1708,326,458,303,190,113,619,3755,44,41,916,1737,1866,2091,2199,2003,1810,1860,1976
890177,-3324,30216,-2483,30285,1409,418,431,273,149,35,488,3814,47,50,914,1749,1871,2114,2222,2044,1848,1881,2003
891178,-3268,30280,-2418,30350,1520,519,413,273,118,226,552,3800,44,42,917,1749,1871,2114,2222,2044,1848,1881,2003
892179,-3208,30360,-2353,30415,1477,301,399,277,112,440,781,3723,40,37,916,1749,1871,2114,2222,2044,1848,1881,2003
893180,-3136,30432,-2288,30480,1319,392,381,283,111,208,827,3868,36,52,917,1749,1871,2114,2222,2044,1848,1881,2003
894181,-3076,30496,-2223,30545,1475,493,350,315,132,227,638,3935,36,52,918,1749,1871,2114,2222,2044,1848,1881,2003
895182,-3016,30568,-2158,30610,1482,385,329,342,160,503,879,3772,34,47,916,1750,1878,2124,2226,2055,1858,1893,2012
896183,-2936,30604,-2093,30675,1214,870,310,381,185,365,895,3921,54,51,916,1750,1878,2124,2226,2055,1858,1893,2012
897184,-2872,30684,-2028,30740,1415,302,295,425,210,397,859,3947,55,49,916,1750,1878,2124,2226,2055,1858,1893,2012
898185,-2800,30748,-1963,30805,1307,503,267,463,236,365,1062,3981,43,49,918,1750,1878,2124,2226,2055,1858,1893,2012
899186,-2744,30812,-1898,30870,1518,504,228,493,240,341,1066,3900,39,50,918,1750,1878,2124,2226,2055,1858,1893,2012
900187,-2684,30884,-1833,30935,1474,396,199,546,222,375,1020,4076,55,41,916,1750,1878,2124,2226,2055,1858,1893,2012
901188,-2608,30944,-1768,31000,1262,552,181,543,193,354,1110,3764,45,40,917,1743,1873,2109,2214,2046,1848,1882,1996
902189,-2516,31004,-1703,31065,1029,558,166,532,148,249,1098,4084,53,41,918,1743,1873,2109,2214,2046,1848,1882,1996
903190,-2460,31088,-1638,31130,1490,235,146,509,92,155,1193,3953,50,43,920,1743,1873,2109,2214,2046,1848,1882,1996
904191,-2408,31136,-1573,31195,1557,706,128,478,36,101,1023,3871,38,35,916,1743,1873,2109,2214,2046,1848,1882,1996
905192,-2332,31200,-1508,31260,1243,507,108,455,-26,168,1068,3962,48,39,914,1743,1873,2109,2214,2046,1848,1882,1996
906193,-2264,31268,-1443,31325,1340,453,86,431,-98,30,1247,3950,38,39,918,1739,1858,2104,2217,2050,1856,1887,2003
907194,-2208,31320,-1378,31390,1502,669,68,411,-166,231,1210,3874,49,50,917,1739,1858,2104,2217,2050,1856,1887,2003
908195,-2172,31388,-1313,31455,1787,465,53,383,-211,159,1054,3767,46,51,915,1739,1858,2104,2217,2050,1856,1887,2003
909196,-2088,31444,-1248,31520,1164,626,38,382,-265,110,1085,3796,32,43,913,1739,1858,2104,2217,2050,1856,1887,2003
910197,-2040,31540,-1183,31585,1635,89,24,399,-295,353,1076,3715,31,54,918,1739,1858,2104,2217,2050,1856,1887,2003
911198,-1976,31596,-1118,31650,1437,600,16,424,-311,488,916,3707,32,40,916,1739,1858,2104,2217,2050,1856,1887,2003
912199,-1920,31652,-1053,31715,1548,611,12,453,-308,530,884,3354,46,41,915,1755,1878,2137,2249,2073,1882,1912,2034
913200,-1864,31740,-988,31780,1559,183,5,467,-299,431,1093,3555,46,45,915,1755,1878,2137,2249,2073,1882,1912,2034
914201,-1796,31792,-923,31845,1406,649,-2,485,-282,279,1002,3390,32,51,916,1755,1878,2137,2249,2073,1882,1912,2034
915202,-1764,31864,-858,31910,1896,391,-4,500,-274,336,1056,3501,48,52,916,1755,1878,2137,2249,2073,1882,1912,2034
916203,-1692,31920,-793,31975,1388,602,-15,509,-249,279,1087,3395,39,48,913,1755,1878,2137,2249,2073,1882,1912,2034
917204,-1616,31984,-728,32040,1325,503,-19,516,-231,101,1066,3641,40,46,916,1781,1909,2163,2277,2075,1890,1912,2022
918205,-1560,32060,-663,32105,1586,339,-26,506,-226,89,1149,3460,50,47,917,1781,1909,2163,2277,2075,1890,1912,2022
919206,-1488,32128,-598,32170,1378,436,-36,479,-241,126,1194,3565,42,46,916,1781,1909,2163,2277,2075,1890,1912,2022
920207,-1404,32192,-533,32235,1206,487,-53,439,-261,55,1291,3615,51,52,917,1781,1909,2163,2277,2075,1890,1912,2022
921208,-1336,32260,-468,32300,1402,433,-63,431,-289,-127,1284,3629,46,40,918,1781,1909,2163,2277,2075,1890,1912,2022
922209,-1280,32332,-403,32365,1563,375,-60,428,-322,69,1265,3706,52,42,917,1779,1909,2163,2277,2075,1890,1912,2022
923210,-1224,32384,-338,32430,1575,641,-68,436,-359,122,1332,3924,47,48,916,1779,1896,2151,2272,2048,1862,1885,1991
924211,-1164,32452,-273,32495,1531,437,-73,455,-404,417,1397,3890,37,38,915,1779,1896,2151,2272,2048,1862,1885,1991
925212,-1080,32524,-208,32560,1208,378,-81,447,-459,220,1491,3872,53,53,915,1779,1896,2151,2272,2048,1862,1885,1991
926213,-1036,32588,-143,32625,1735,480,-88,441,-511,123,1361,3777,46,49,919,1779,1896,2151,2272,2048,1862,1885,1991
927214,-980,32644,-78,32690,1596,591,-89,456,-562,328,1317,3743,41,37,913,1779,1896,2151,2272,2048,1862,1885,1991
928215,-908,32704,-13,32755,1387,547,-101,481,-600,367,1268,3774,41,37,914,1783,1891,2153,2281,2054,1870,1895,2004
929216,-832,32780,52,32820,1325,333,-94,541,-640,497,1279,3760,39,53,916,1783,1891,2153,2281,2054,1870,1895,2004
930217,-784,32844,117,32885,1695,485,-97,574,-662,476,1248,3618,48,46,918,1783,1891,2153,2281,2054,1870,1895,2004
931218,-724,32896,182,32950,1551,650,-97,604,-681,313,1250,3701,36,51,914,1783,1891,2153,2281,2054,1870,1895,2004
932220,-656,32968,247,33015,1449,392,-96,636,-677,301,1173,3582,35,46,915,1783,1891,2153,2281,2054,1870,1895,2004
933220,-596,33040,312,33080,1555,383,-82,671,-674,414,1275,3573,50,56,917,1803,1914,2186,2318,2088,1906,1921,2029
934221,-532,33104,377,33145,1506,485,-67,698,-669,224,1180,3571,37,43,916,1803,1914,2186,2318,2088,1906,1921,2029
935222,-464,33164,442,33210,1453,541,-64,690,-648,157,1142,3618,52,47,916,1803,1914,2186,2318,2088,1906,1921,2029
936223,-392,33240,507,33275,1395,327,-54,720,-631,252,1285,3554,38,53,916,1803,1914,2186,2318,2088,1906,1921,2029
937224,-336,33320,572,33340,1607,259,-48,703,-611,101,1303,3457,40,48,917,1803,1914,2186,2318,2088,1906,1921,2029
938225,-248,33392,637,33405,1179,350,-46,695,-598,-104,1122,3544,53,40,915,1803,1914,2186,2318,2088,1906,1921,2029
939226,-180,33444,702,33470,1425,616,-53,688,-586,69,1282,3557,43,45,919,1810,1920,2196,2332,2090,1910,1919,2019
940227,-104,33512,767,33535,1313,413,-54,683,-584,236,1441,3573,40,50,916,1810,1920,2196,2332,2090,1910,1919,2019
941228,-48,33588,832,33600,1574,299,-52,684,-592,-63,1340,3632,56,49,918,1810,1920,2196,2332,2090,1910,1919,2019
942229,36,33644,897,33665,1201,560,-65,710,-608,120,1254,3789,40,40,916,1810,1920,2196,2332,2090,1910,1919,2019
943230,96,33724,962,33730,1508,242,-74,744,-617,435,1371,3701,54,54,918,1810,1920,2196,2332,2090,1910,1919,2019
944231,168,33788,1027,33795,1349,443,-70,779,-646,544,1516,3758,50,48,917,1804,1909,2179,2308,2074,1888,1901,2009
945232,252,33836,1092,33860,1176,664,-75,810,-684,486,1485,3772,40,41,917,1804,1909,2179,2308,2074,1888,1901,2009
946233,308,33912,1157,33925,1537,300,-97,816,-724,462,1515,3794,40,53,918,1804,1909,2179,2308,2074,1888,1901,2009
947234,380,33992,1222,33990,1329,232,-114,853,-759,420,1334,3707,40,42,917,1804,1909,2179,2308,2074,1888,1901,2009
948235,444,34056,1287,34055,1431,433,-144,839,-795,518,1263,3854,54,48,919,1804,1909,2179,2308,2074,1888,1901,2009
949236,524,34120,1352,34120,1212,435,-163,847,-850,343,1503,3762,50,49,917,1804,1909,2179,2308,2074,1888,1901,2009
950237,604,34172,1417,34185,1195,600,-185,798,-873,103,1508,3644,37,55,918,1797,1900,2166,2285,2081,1891,1911,2034
951238,700,34228,1482,34250,957,561,-207,780,-892,-966,1454,3705,47,52,918,1797,1900,2166,2285,2081,1891,1911,2034
952239,792,34304,1547,34315,974,298,-277,765,-930,-758,1237,3272,50,51,920,1797,1900,2166,2285,2081,1891,1911,2034
953240,828,34392,1612,34380,1711,120,-403,749,-895,1734,354,3472,48,41,921,1797,1900,2166,2285,2081,1891,1911,2034
954241,892,34448,1677,34445,1362,531,-590,572,-804,2526,339,2511,35,48,916,1797,1900,2166,2285,2081,1891,1911,2034
955242,964,34524,1876,34644,1417,431,-769,307,-752,154,1260,2109,51,46,916,1778,1897,2162,2259,2131,1937,1955,2118
956243,1040,34596,1941,34709,1354,472,-855,126,-814,-1761,1712,2276,60,43,917,1778,1897,2162,2259,2131,1937,1955,2118
957244,1108,34668,2006,34774,1451,464,-834,189,-846,38,320,4205,47,54,917,1778,1897,2162,2259,2131,1937,1955,2118
958245,1192,34740,2071,34839,1227,455,-743,418,-776,2138,-232,4501,54,54,917,1778,1897,2162,2259,2131,1937,1955,2118
959246,1296,34812,2136,34904,931,447,-630,574,-699,1687,453,3988,63,54,918,1778,1897,2162,2259,2131,1937,1955,2118
960247,1384,34876,2201,34969,1103,548,-549,566,-666,-268,782,3648,50,54,921,1778,1897,2162,2259,2131,1937,1955,2118
961248,1468,34952,2266,35034,1130,385,-529,488,-689,-873,682,3653,68,48,920,1685,1823,2077,2119,2258,2001,2007,2190
962249,1572,35028,2331,35099,833,371,-516,464,-734,508,949,3665,67,58,920,1685,1823,2077,2119,2258,2001,2007,2190
963250,1660,35116,2396,35164,1005,193,-486,468,-786,742,1361,3909,53,46,922,1685,1823,2077,2119,2258,2001,2007,2190
964251,1756,35192,2461,35229,867,330,-458,475,-813,-84,1318,3735,50,45,922,1685,1823,2077,2119,2258,2001,2007,2190
965252,1848,35280,2526,35294,884,152,-457,472,-838,-439,1324,3946,47,45,922,1685,1823,2077,2119,2258,2001,2007,2190
966253,1928,35328,2591,35359,1017,672,-483,447,-872,-269,1681,3622,59,48,923,1661,1808,2058,2144,2207,1955,1975,2099
967254,2012,35408,2656,35424,944,254,-544,385,-929,-131,2047,3319,44,52,920,1661,1808,2058,2144,2207,1955,1975,2099
968255,2100,35504,2721,35489,866,16,-637,300,-976,-478,1955,3427,51,46,922,1661,1808,2058,2144,2207,1955,1975,2099
969256,2196,35584,2786,35554,728,198,-754,236,-1011,-566,1784,3327,45,53,923,1661,1808,2058,2144,2207,1955,1975,2099
970257,2272,35644,2851,35619,965,454,-856,218,-1040,-129,1890,3040,58,46,924,1661,1808,2058,2144,2207,1955,1975,2099
971258,2356,35736,2916,35684,842,21,-934,184,-1052,-152,1660,3215,53,46,921,1661,1808,2058,2144,2207,1955,1975,2099
972259,2436,35808,2981,35749,874,262,-1008,177,-1036,-104,1293,3383,60,49,923,1746,1874,2125,2259,2107,1906,1932,2044
973260,2536,35876,3046,35814,581,309,-1082,234,-1031,433,1089,3940,55,54,922,1746,1874,2125,2259,2107,1906,1932,2044
974261,2604,35984,3111,35879,977,-244,-1114,313,-1024,791,816,3534,45,50,924,1746,1874,2125,2259,2107,1906,1932,2044
975262,2696,36064,3176,35944,645,88,-1109,375,-1010,746,453,3570,46,58,922,1746,1874,2125,2259,2107,1906,1932,2044
976263,2768,36144,3241,36009,887,70,-1085,429,-982,392,95,3733,41,49,924,1746,1874,2125,2259,2107,1906,1932,2044
977264,2868,36228,3306,36074,494,-3,-1061,473,-953,507,-40,3642,48,50,923,1800,1907,2191,2307,2104,1924,1919,2042
978265,2948,36312,3371,36139,726,-27,-1032,504,-934,692,3,3615,57,56,926,1800,1907,2191,2307,2104,1924,1919,2042
979266,3028,36400,3436,36204,708,-105,-1008,474,-919,48,6,3423,41,39,925,1800,1907,2191,2307,2104,1924,1919,2042
980267,3116,36472,3501,36269,579,87,-978,428,-913,-130,161,3681,45,45,924,1800,1907,2191,2307,2104,1924,1919,2042
981268,3196,36532,3566,36334,662,243,-973,358,-903,-193,483,3530,55,46,925,1800,1907,2191,2307,2104,1924,1919,2042
982269,3280,36624,3631,36399,589,-190,-997,285,-899,82,693,3373,38,35,924,1800,1907,2191,2307,2104,1924,1919,2042
983270,3356,36700,3696,36464,676,-5,-1010,169,-908,-218,800,2985,51,39,925,1799,1894,2193,2326,2074,1899,1898,1991
984271,3436,36800,3761,36529,607,-347,-1032,102,-930,-1198,793,3271,38,41,925,1799,1894,2193,2326,2074,1899,1898,1991
985272,3528,36900,3826,36594,424,-390,-1049,102,-965,-604,1181,3346,56,42,924,1799,1894,2193,2326,2074,1899,1898,1991
986273,3596,36980,3891,36659,721,-158,-1086,126,-991,-166,1150,3336,36,44,925,1799,1894,2193,2326,2074,1899,1898,1991
987274,3672,37040,3956,36724,607,98,-1134,168,-1027,-253,1454,3651,47,44,924,1799,1894,2193,2326,2074,1899,1898,1991
988275,3768,37096,4021,36789,319,159,-1170,232,-1073,-75,1716,3434,41,32,925,1814,1904,2152,2302,2024,1840,1890,1984
989276,3852,37168,4086,36854,447,-50,-1187,281,-1097,96,1624,3782,37,35,925,1814,1904,2152,2302,2024,1840,1890,1984
990277,3920,37224,4151,36919,643,161,-1198,333,-1115,-27,1382,3770,49,36,926,1814,1904,2152,2302,2024,1840,1890,1984
991278,4012,37276,4216,36984,311,227,-1185,394,-1138,-314,1251,3694,39,37,925,1814,1904,2152,2302,2024,1840,1890,1984
992279,4084,37344,4281,37049,552,22,-1156,466,-1151,-104,1026,3815,46,45,926,1814,1904,2152,2302,2024,1840,1890,1984
993280,4168,37404,4346,37114,379,128,-1113,491,-1151,-269,730,3657,42,37,926,1814,1904,2152,2302,2024,1840,1890,1984
994281,4256,37472,4411,37179,301,25,-1055,487,-1169,-364,617,3726,37,35,926,1779,1887,2108,2237,2056,1855,1906,2023
995282,4344,37524,4476,37244,273,241,-999,505,-1185,-437,300,3487,39,32,927,1779,1887,2108,2237,2056,1855,1906,2023
996283,4424,37580,4541,37309,354,202,-933,497,-1171,-441,65,3522,43,34,926,1779,1887,2108,2237,2056,1855,1906,2023
997284,4480,37632,4606,37374,665,268,-857,486,-1144,-437,19,3349,44,42,926,1779,1887,2108,2237,2056,1855,1906,2023
998285,4572,37692,4671,37439,182,174,-799,455,-1146,-735,76,3566,44,30,925,1779,1887,2108,2237,2056,1855,1906,2023
999286,4644,37768,4736,37504,424,-40,-761,424,-1138,-489,71,3330,52,37,927,1762,1882,2130,2253,2068,1866,1900,2011
1000287,4724,37820,4801,37569,305,276,-738,358,-1110,-739,17,3040,42,43,926,1762,1882,2130,2253,2068,1866,1900,2011
1001288,4820,37892,4866,37634,68,17,-726,290,-1089,-762,67,3021,36,38,926,1762,1882,2130,2253,2068,1866,1900,2011
1002289,4892,37952,4931,37699,359,173,-734,268,-1074,-518,116,2995,48,42,928,1762,1882,2130,2253,2068,1866,1900,2011
1003290,4964,38040,4996,37764,351,-205,-769,266,-1069,20,323,2940,40,42,927,1762,1882,2130,2253,2068,1866,1900,2011
1004291,5048,38096,5061,37829,177,206,-808,233,-1062,13,320,2809,46,49,926,1762,1882,2130,2253,2068,1866,1900,2011
1005292,5124,38152,5126,37894,264,217,-855,203,-1058,-290,409,2938,45,34,927,1810,1920,2162,2304,2007,1819,1867,1962
1006293,5212,38224,5191,37959,86,8,-892,178,-1056,-93,355,2824,48,49,926,1810,1920,2162,2304,2007,1819,1867,1962
1007294,5288,38300,5256,38024,222,-55,-929,157,-1065,71,486,3107,44,53,928,1810,1920,2162,2304,2007,1819,1867,1962
1008295,5364,38368,5321,38089,209,41,-949,126,-1089,145,479,3079,34,37,927,1810,1920,2162,2304,2007,1819,1867,1962
1009296,5452,38460,5386,38154,31,-292,-958,107,-1102,124,282,3235,49,40,927,1810,1920,2162,2304,2007,1819,1867,1962
1010297,5552,38516,5451,38219,-162,169,-954,63,-1123,103,287,3181,37,49,927,1826,1914,2141,2279,1996,1813,1868,1972
1011298,5640,38596,5516,38284,-40,-150,-935,13,-1140,119,249,3053,46,36,921,1826,1914,2141,2279,1996,1813,1868,1972
1012299,5740,38684,5581,38349,-233,-278,-908,-19,-1161,0,230,3360,49,35,927,1826,1914,2141,2279,1996,1813,1868,1972
1013300,5832,38752,5646,38414,-166,-32,-867,-46,-1182,44,32,3357,50,45,917,1826,1914,2141,2279,1996,1813,1868,1972
1014301,5912,38828,5711,38479,-34,-146,-813,-70,-1202,-2,80,3331,49,46,920,1826,1914,2141,2279,1996,1813,1868,1972
1015302,5988,38876,5776,38544,3,225,-767,-106,-1191,-54,15,3252,49,50,926,1826,1914,2141,2279,1996,1813,1868,1972
1016303,6072,38944,5841,38609,-120,-28,-725,-121,-1181,-153,65,3354,45,46,927,1773,1868,2098,2228,2046,1845,1897,2013
1017304,6144,39008,5906,38674,21,23,-689,-149,-1164,-390,27,3173,30,44,924,1773,1868,2098,2228,2046,1845,1897,2013
1018305,6204,39076,5971,38739,177,-31,-662,-193,-1145,-556,62,3075,48,51,927,1773,1868,2098,2228,2046,1845,1897,2013
1019306,6288,39132,6036,38804,-147,129,-637,-236,-1113,-660,27,3110,32,49,927,1773,1868,2098,2228,2046,1845,1897,2013
1020307,6360,39224,6101,38869,-6,-354,-625,-279,-1076,-715,-5,2930,48,39,922,1773,1868,2098,2228,2046,1845,1897,2013
1021308,6440,39292,6166,38934,-124,-58,-622,-310,-1051,-523,-50,3042,39,45,926,1760,1877,2103,2234,2061,1850,1906,2018
1022309,6512,39356,6231,38999,-33,-6,-627,-334,-1034,-579,7,2878,32,49,924,1760,1877,2103,2234,2061,1850,1906,2018
1023310,6596,39416,6296,39064,-206,50,-634,-386,-1012,-528,-86,3045,48,52,927,1760,1877,2103,2234,2061,1850,1906,2018
