%  Data file recorded 2017/1/18  19:40:28
%  Stride Frequency         = [1, 1]
%  Lead In /Lead Out        = 
%  Deltas (Fractional)      = [0.25, 0.25, 0.25],[0.25, 0.25, 0.25]
%  Phase                    = 32768
%  Experiment.py 
%  Motor Gains    = [5000, 400, 200, 0, 300, 5000, 400, 200, 0, 300]
% Columns: 
% time | Right Leg Pos | Left Leg Pos | Commanded Right Leg Pos | Commanded Left Leg Pos | DCR | DCL | GyroX | GyroY | GyroZ | AX | AY | AZ | RBEMF | LBEMF | VBatt | S1 | S2 | S3 | S4 | S5 | S6 | S7 | S8
41,-46708,-12652,-45346,-12578,3645,-3800,-15,-2,-1,72,163,3932,8,-4,817,1832,1913,2109,2288,2112,1862,1911,2045
1042,-46704,-12656,-45346,-12578,3541,-3800,-12,-3,1,49,185,3927,-10,-5,817,1832,1913,2109,2288,2112,1862,1911,2045
2043,-46716,-12632,-45346,-12578,3756,-3800,-11,-4,2,58,199,3888,8,7,817,1832,1913,2109,2288,2112,1862,1911,2045
3044,-46700,-12640,-45346,-12578,3387,-3800,-12,-5,1,78,204,3937,-10,-4,817,1832,1913,2109,2288,2112,1862,1911,2045
4045,-46704,-12652,-45346,-12578,3642,-3800,-11,-5,3,55,168,3940,4,-5,817,1832,1913,2109,2288,2112,1862,1911,2045
5046,-46692,-12640,-45346,-12578,3429,-3800,-11,-5,3,79,162,3889,-9,7,817,1832,1913,2109,2288,2112,1862,1911,2045
6047,-46712,-12644,-45346,-12578,3800,-3800,-8,-5,2,65,161,3924,8,-3,817,1832,1914,2110,2289,2111,1861,1910,2047
7048,-46692,-12648,-45346,-12578,3330,-3800,-11,-5,1,55,144,3910,-9,-6,817,1832,1914,2110,2289,2111,1861,1910,2047
8049,-46708,-12640,-45346,-12578,3799,-3800,-14,-4,2,45,158,3913,6,6,817,1832,1914,2110,2289,2111,1861,1910,2047
9050,-46712,-12648,-45346,-12578,3655,-3800,-12,-5,5,66,173,3910,-7,7,817,1832,1914,2110,2289,2111,1861,1910,2047
10051,-46716,-12640,-45346,-12578,3660,-3800,-10,-5,3,66,177,3899,-7,-2,817,1832,1914,2110,2289,2111,1861,1910,2047
11052,-46712,-12644,-45346,-12578,3556,-3800,-11,-5,3,62,175,3930,6,-5,817,1834,1915,2111,2289,2112,1861,1911,2047
12053,-46700,-12640,-45346,-12578,3442,-3800,-11,-6,1,58,163,3945,-8,-1,817,1834,1915,2111,2289,2112,1861,1911,2047
13054,-46700,-12652,-45346,-12578,3592,-3800,-10,-5,0,58,162,3928,8,6,817,1834,1915,2111,2289,2112,1861,1911,2047
14055,-46708,-12652,-45346,-12578,3703,-3800,-8,-5,3,81,151,3909,-7,1,817,1834,1915,2111,2289,2112,1861,1911,2047
15056,-46712,-12648,-45346,-12578,3658,-3800,-10,-8,3,58,144,3920,1,-6,817,1834,1915,2111,2289,2112,1861,1911,2047
16057,-46708,-12636,-45346,-12578,3554,-3800,-9,-10,1,62,176,3907,5,-6,817,1834,1915,2111,2289,2112,1861,1911,2047
17058,-46712,-12656,-45346,-12578,3659,-3800,-10,-8,1,58,193,3905,-5,7,817,1832,1915,2110,2290,2113,1862,1912,2048
18059,-46712,-12648,-45346,-12578,3610,-3800,-12,-8,-1,38,180,3909,-5,6,817,1832,1915,2110,2290,2113,1862,1912,2048
19060,-46700,-12636,-45346,-12578,3445,-3800,-11,-9,1,40,176,3941,0,-1,815,1832,1915,2110,2290,2113,1862,1912,2048
20061,-46708,-12648,-45346,-12578,3706,-3800,-12,-5,4,68,166,3943,-10,-6,817,1832,1915,2110,2290,2113,1862,1912,2048
21062,-46696,-12640,-45346,-12578,3441,-3800,-10,-4,2,69,177,3925,-10,-2,817,1832,1915,2110,2290,2113,1862,1912,2048
22063,-46716,-12660,-45346,-12578,3800,-3800,-10,-6,2,66,190,3924,8,8,817,1833,1914,2112,2289,2112,1862,1911,2048
23064,-46700,-12636,-45346,-12578,3397,-3800,-11,-6,4,54,169,3924,-9,-2,816,1833,1914,2112,2289,2112,1862,1911,2048
24065,-46704,-12628,-45346,-12578,3653,-3800,-9,-4,4,68,175,3927,2,-6,817,1833,1914,2112,2289,2112,1862,1911,2048
25066,-46700,-12640,-45346,-12578,3548,-3800,-7,-5,3,52,160,3927,-6,5,817,1833,1914,2112,2289,2112,1862,1911,2048
26067,-46700,-12660,-45346,-12578,3599,-3800,-8,-7,2,47,152,3938,-6,3,817,1833,1914,2112,2289,2112,1862,1911,2048
27069,-46700,-12640,-45346,-12578,3599,-3800,-9,-5,0,45,143,3962,8,-6,817,1833,1914,2112,2289,2112,1862,1911,2048
28069,-46704,-12644,-45346,-12578,3655,-3800,-10,-2,1,81,154,3946,-10,-2,817,1834,1916,2112,2288,2113,1863,1912,2049
29070,-46688,-12648,-45346,-12578,3386,-3800,-11,-1,0,81,169,3942,8,8,817,1834,1916,2112,2288,2113,1863,1912,2049
30071,-46696,-12632,-45346,-12578,3696,-3800,-11,-3,-1,70,201,3933,-6,-3,817,1834,1916,2112,2288,2113,1863,1912,2049
31072,-46704,-12648,-45346,-12578,3706,-3800,-12,-4,-2,62,177,3940,7,-6,817,1834,1916,2112,2288,2113,1863,1912,2049
32073,-46692,-12640,-45346,-12578,3443,-3800,-10,-7,-1,43,163,3926,-9,7,817,1834,1916,2112,2288,2113,1863,1912,2049
33074,-46708,-12648,-45346,-12578,3800,-3800,-11,-5,-2,54,159,3926,8,-4,817,1831,1914,2111,2292,2116,1864,1912,2049
34075,-46708,-12652,-45346,-12578,3613,-3800,-11,-5,-2,60,163,3911,-8,-6,817,1831,1914,2111,2292,2116,1864,1912,2049
35076,-46716,-12648,-45346,-12578,3723,-3800,-11,-5,-1,50,184,3915,-1,5,817,1831,1914,2111,2292,2116,1864,1912,2049
36077,-46708,-12648,-45346,-12578,3514,-3800,-11,-4,1,48,169,3907,3,8,814,1831,1914,2111,2292,2116,1864,1912,2049
37078,-46712,-12628,-45346,-12578,3669,-3800,-12,-3,1,63,190,3918,-9,5,817,1831,1914,2111,2292,2116,1864,1912,2049
38079,-46712,-12648,-45346,-12578,3620,-3800,-14,-3,1,56,189,3906,-7,-7,817,1831,1914,2111,2292,2116,1864,1912,2049
39080,-46712,-12648,-45346,-12578,3620,-3800,-12,-2,-2,43,159,3900,1,-3,817,1831,1914,2111,2287,2114,1864,1912,2048
40081,-46700,-12644,-45346,-12578,3456,-3800,-12,-4,-3,83,176,3941,0,6,817,1831,1914,2111,2287,2114,1864,1912,2048
41082,-46704,-12648,-45346,-12578,3661,-3800,-12,-3,-2,88,161,3903,-9,-1,817,1831,1914,2111,2287,2114,1864,1912,2048
42083,-46700,-12644,-45346,-12578,3557,-3800,-12,-2,1,75,181,3899,8,-7,817,1831,1914,2111,2287,2114,1864,1912,2048
43084,-46704,-12628,-45346,-12578,3662,-3800,-11,-2,0,79,179,3943,-8,-4,817,1831,1914,2111,2287,2114,1864,1912,2048
44085,-46712,-12660,-45346,-12578,3723,-3800,-13,-2,1,56,173,3949,-4,7,817,1831,1915,2111,2289,2113,1859,1911,2050
45086,-46704,-12652,-45346,-12578,3514,-3800,-15,-3,4,58,176,3950,8,6,817,1831,1915,2111,2289,2113,1859,1911,2050
46087,-46708,-12640,-45346,-12578,3669,-3800,-14,-4,3,72,180,3970,-9,4,817,1831,1915,2111,2289,2113,1859,1911,2050
47088,-46712,-12636,-45346,-12578,3675,-3800,-13,-1,0,62,172,3952,3,-6,817,1831,1915,2111,2289,2113,1859,1911,2050
48089,-46692,-12648,-45346,-12578,3351,-3800,-12,0,-3,62,198,3969,0,-3,817,1831,1915,2111,2289,2113,1859,1911,2050
49090,-46700,-12648,-45346,-12578,3711,-3800,-13,-4,-2,89,189,3918,2,7,817,1831,1915,2111,2289,2113,1859,1911,2050
50091,-46708,-12640,-45346,-12578,3721,-3800,-12,-6,3,90,165,3892,4,1,817,1831,1913,2110,2289,2113,1861,1911,2050
51092,-46704,-12636,-45346,-12578,3567,-3800,-13,-5,2,95,151,3905,-8,-4,817,1831,1913,2110,2289,2113,1861,1911,2050
52093,-46708,-12648,-45346,-12578,3672,-3800,-13,-6,0,107,148,3890,4,-7,817,1831,1913,2110,2289,2113,1861,1911,2050
53094,-46700,-12640,-45346,-12578,3513,-3800,-11,-8,-1,98,150,3876,-5,4,813,1831,1913,2110,2289,2113,1861,1911,2050
54095,-46704,-12648,-45346,-12578,3668,-3800,-10,-8,-2,110,157,3908,-4,6,817,1831,1913,2110,2289,2113,1861,1911,2050
55096,-46708,-12636,-45346,-12578,3674,-3800,-12,-8,0,85,161,3927,-5,7,817,1832,1914,2110,2288,2111,1861,1910,2047
56097,-46708,-12648,-45346,-12578,3624,-3800,-12,-6,0,89,182,3933,0,-7,817,1832,1914,2110,2288,2111,1861,1910,2047
57098,-46712,-12648,-45346,-12578,3680,-3800,-13,-5,0,79,164,3922,2,-4,817,1832,1914,2110,2288,2111,1861,1910,2047
58099,-46704,-12632,-45346,-12578,3520,-3800,-11,-6,0,85,179,3920,-3,5,817,1832,1914,2110,2288,2111,1861,1910,2047
59100,-46716,-12640,-45346,-12578,3786,-3800,-10,-6,0,98,184,3912,6,3,817,1832,1914,2110,2288,2111,1861,1910,2047
60101,-46708,-12644,-45346,-12578,3526,-3800,-12,-8,-1,89,184,3916,-10,-7,817,1832,1914,2110,2288,2111,1861,1910,2047
61102,-46700,-12656,-45346,-12578,3517,-3800,-13,-9,1,55,173,3923,8,0,817,1833,1916,2111,2289,2112,1861,1911,2047
62103,-46712,-12632,-45346,-12578,3782,-3800,-12,-11,1,53,158,3917,-9,3,817,1833,1916,2111,2289,2112,1861,1911,2047
63104,-46708,-12656,-45346,-12578,3578,-3800,-10,-11,2,56,217,3903,8,-7,817,1833,1916,2111,2289,2112,1861,1911,2047
64105,-46700,-12644,-45346,-12578,3518,-3800,-8,-7,1,76,209,3897,-10,2,817,1833,1916,2111,2289,2112,1861,1911,2047
65106,-46700,-12656,-45346,-12578,3619,-3800,-7,-7,0,71,164,3914,8,0,817,1833,1916,2111,2289,2112,1861,1911,2047
66107,-46700,-12640,-45346,-12578,3619,-3800,-7,-6,2,73,175,3926,-4,-7,817,1831,1915,2111,2289,2112,1861,1911,2048
67108,-46712,-12644,-45346,-12578,3785,-3800,-7,-9,1,90,162,3942,7,6,817,1831,1915,2111,2289,2112,1861,1911,2048
68109,-46696,-12656,-45346,-12578,3415,-3800,-11,-10,1,70,160,3942,-7,-2,817,1831,1915,2111,2289,2112,1861,1911,2048
69110,-46716,-12644,-45346,-12578,3800,-3800,-11,-7,0,78,170,3908,7,-5,817,1831,1915,2111,2289,2112,1861,1911,2048
70111,-46700,-12632,-45346,-12578,3421,-3800,-10,-6,0,80,160,3884,-10,3,815,1831,1915,2111,2289,2112,1861,1911,2048
71112,-46692,-12648,-45346,-12578,3513,-3800,-9,-6,1,40,138,3915,8,7,817,1831,1915,2111,2289,2112,1861,1911,2048
72113,-46708,-12640,-45346,-12578,3800,-3800,-11,-7,2,67,142,3936,7,-5,817,1832,1914,2112,2290,2113,1862,1910,2047
73114,-46716,-12640,-45346,-12578,3743,-3800,-12,-4,2,48,164,3923,-10,0,817,1832,1914,2112,2290,2113,1862,1910,2047
74115,-46712,-12640,-45346,-12578,3588,-3800,-10,-3,0,42,164,3976,8,4,817,1832,1914,2112,2290,2113,1862,1910,2047
75116,-46704,-12640,-45346,-12578,3529,-3800,-10,-2,0,58,173,3957,-5,-6,817,1832,1914,2112,2290,2113,1862,1910,2047
76117,-46700,-12660,-45346,-12578,3574,-3800,-11,-3,-1,58,167,3962,6,0,817,1832,1914,2112,2290,2113,1862,1910,2047
77118,-46704,-12652,-45346,-12578,3680,-3800,-11,-2,0,43,175,3937,-2,4,817,1832,1916,2112,2289,2113,1863,1912,2048
78119,-46708,-12648,-45346,-12578,3686,-3800,-10,-3,2,53,159,3925,-7,-7,817,1832,1916,2112,2289,2113,1863,1912,2048
79120,-46700,-12652,-45346,-12578,3526,-3800,-10,-5,2,70,163,3913,-2,0,817,1832,1916,2112,2289,2113,1863,1912,2048
80121,-46716,-12652,-45346,-12578,3800,-3800,-11,-7,1,55,168,3923,-5,5,817,1832,1916,2112,2289,2113,1863,1912,2048
81122,-46716,-12640,-45346,-12578,3647,-3800,-15,-7,0,61,194,3924,0,-5,817,1832,1916,2112,2289,2113,1863,1912,2048
82123,-46704,-12640,-45346,-12578,3483,-3800,-15,-5,1,72,191,3941,4,-3,817,1834,1916,2111,2289,2113,1863,1912,2048
83124,-46704,-12644,-45346,-12578,3633,-3800,-12,1,1,60,183,3938,-4,5,817,1834,1916,2111,2289,2113,1863,1912,2049
84125,-46708,-12652,-45346,-12578,3689,-3800,-11,0,1,62,197,3949,1,-6,817,1834,1916,2111,2289,2113,1863,1912,2049
85126,-46716,-12648,-45346,-12578,3749,-3800,-8,-3,2,46,196,3958,-8,-3,817,1834,1916,2111,2289,2113,1863,1912,2049
86127,-46700,-12652,-45346,-12578,3430,-3800,-8,-8,3,66,190,3932,8,8,817,1834,1916,2111,2289,2113,1863,1912,2049
87128,-46708,-12648,-45346,-12578,3740,-3800,-9,-6,2,76,167,3924,-7,2,814,1834,1916,2111,2289,2113,1863,1912,2049
88129,-46700,-12644,-45346,-12578,3531,-3800,-10,-3,0,77,173,3939,7,-4,817,1833,1913,2111,2292,2116,1864,1912,2048
89130,-46708,-12640,-45346,-12578,3741,-3800,-11,-2,0,63,178,3938,5,-3,817,1833,1913,2111,2292,2116,1864,1912,2048
90131,-46700,-12644,-45346,-12578,3532,-3800,-14,-2,0,79,177,3963,-8,3,817,1833,1913,2111,2292,2116,1864,1912,2048
91132,-46700,-12644,-45346,-12578,3632,-3800,-13,-4,2,21,165,3931,5,7,817,1833,1913,2111,2292,2116,1864,1912,2048
92133,-46704,-12640,-45346,-12578,3688,-3800,-13,-4,4,27,179,3961,-9,-7,817,1833,1913,2111,2292,2116,1864,1912,2048
93134,-46708,-12644,-45346,-12578,3693,-3800,-11,-5,5,79,169,3946,8,1,817,1832,1916,2112,2287,2111,1864,1912,2049
94135,-46704,-12640,-45346,-12578,3589,-3800,-10,-4,3,68,162,3944,-9,8,817,1832,1916,2112,2287,2111,1864,1912,2049
95136,-46704,-12640,-45346,-12578,3639,-3800,-10,-4,1,53,138,3929,8,-4,817,1832,1916,2112,2287,2111,1864,1912,2049
96137,-46716,-12628,-45346,-12578,3800,-3800,-12,-3,2,50,162,3923,-10,-1,817,1832,1916,2112,2287,2111,1864,1912,2049
97138,-46700,-12636,-45346,-12578,3435,-3800,-15,-2,1,58,182,3912,7,8,817,1832,1916,2112,2287,2111,1864,1912,2049
98139,-46704,-12652,-45346,-12578,3691,-3800,-13,-3,0,65,171,3879,-10,-1,817,1832,1916,2112,2287,2111,1864,1912,2049
99140,-46700,-12644,-45346,-12578,3586,-3800,-11,-6,0,69,169,3927,8,-6,817,1831,1914,2111,2289,2113,1863,1911,2047
100141,-46708,-12640,-45346,-12578,3747,-3800,-12,-9,-1,75,168,3952,-10,4,817,1831,1914,2111,2289,2113,1863,1911,2047
101142,-46708,-12656,-45346,-12578,3647,-3800,-12,-8,1,54,160,3928,8,5,817,1831,1914,2111,2289,2113,1863,1911,2047
102143,-46708,-12648,-45346,-12578,3648,-3800,-11,-7,2,64,182,3898,-10,-6,817,1831,1914,2111,2289,2113,1863,1911,2047
103144,-46696,-12648,-45346,-12578,3483,-3800,-12,-5,2,66,164,3904,5,-3,817,1831,1914,2111,2289,2113,1863,1911,2047
104145,-46704,-12632,-45346,-12578,3744,-3800,-13,-5,-1,34,161,3925,-10,7,814,1832,1914,2110,2289,2112,1861,1911,2045
105146,-46700,-12648,-45346,-12578,3589,-3800,-13,-5,-2,32,159,3896,1,4,817,1832,1914,2110,2289,2112,1861,1911,2045
106147,-46696,-12640,-45346,-12578,3585,-3800,-13,-6,-2,45,178,3893,-4,-5,817,1832,1914,2110,2289,2112,1861,1911,2045
107148,-46696,-12648,-45346,-12578,3635,-3800,-14,-4,-1,72,187,3911,7,5,817,1832,1914,2110,2289,2112,1861,1911,2045
108149,-46708,-12644,-45346,-12578,3800,-3800,-14,-2,0,81,189,3931,-10,5,817,1832,1914,2110,2289,2112,1861,1911,2045
109150,-46700,-12648,-45346,-12578,3541,-3800,-11,-5,1,52,180,3912,3,-5,817,1832,1914,2110,2289,2112,1861,1911,2045
110151,-46700,-12644,-45346,-12578,3642,-3800,-9,-9,-1,76,211,3900,-10,3,817,1832,1914,2111,2289,2111,1862,1911,2048
111152,-46708,-12648,-45346,-12578,3753,-3800,-12,-6,-2,67,191,3919,4,7,816,1832,1914,2111,2289,2111,1862,1911,2048
112153,-46712,-12640,-45346,-12578,3708,-3800,-10,-3,0,65,171,3939,-7,-1,817,1832,1914,2111,2289,2111,1862,1911,2048
113154,-46704,-12640,-45346,-12578,3549,-3800,-9,-5,2,68,162,3906,-3,-3,817,1832,1914,2111,2289,2111,1862,1911,2048
114155,-46704,-12656,-45346,-12578,3649,-3800,-9,-5,1,72,175,3866,3,6,817,1832,1914,2111,2289,2111,1862,1911,2048
115156,-46700,-12640,-45346,-12578,3595,-3800,-10,-4,-1,36,186,3926,-2,5,817,1832,1914,2110,2289,2112,1862,1911,2050
116157,-46708,-12648,-45346,-12578,3755,-3800,-10,-8,2,61,188,3943,3,-6,817,1832,1914,2110,2289,2112,1862,1911,2050
117158,-46708,-12644,-45346,-12578,3656,-3800,-8,-9,1,60,171,3886,-7,7,817,1832,1914,2110,2289,2112,1862,1911,2050
118159,-46700,-12640,-45346,-12578,3546,-3800,-7,-6,-1,60,172,3878,-3,-3,817,1832,1914,2110,2289,2112,1862,1911,2050
119160,-46700,-12640,-45346,-12578,3647,-3800,-8,-3,-2,90,171,3906,0,1,817,1832,1914,2110,2289,2112,1862,1911,2050
120161,-46708,-12644,-45346,-12578,3757,-3800,-11,-6,0,88,151,3897,3,7,817,1832,1914,2110,2289,2112,1862,1911,2050
121162,-46700,-12640,-45346,-12578,3548,-3800,-12,-9,1,58,178,3934,-9,-5,814,1831,1914,2111,2289,2112,1861,1911,2047
122163,-46704,-12636,-45346,-12578,3703,-3800,-10,-10,2,43,195,3943,7,-2,816,1831,1914,2111,2289,2112,1861,1911,2047
123164,-46700,-12628,-45346,-12578,3599,-3800,-9,-8,1,63,198,3935,0,8,817,1831,1914,2111,2289,2112,1861,1911,2047
124165,-46712,-12644,-45346,-12578,3800,-3800,-8,-6,0,57,178,3938,-8,-4,817,1831,1914,2111,2289,2112,1861,1911,2047
125166,-46708,-12644,-45346,-12578,3610,-3800,-9,-5,-1,62,165,3924,1,7,817,1831,1914,2111,2289,2112,1861,1911,2047
126167,-46688,-12648,-45346,-12578,3386,-3800,-11,-6,-1,46,180,3968,2,4,817,1832,1914,2112,2290,2112,1863,1912,2047
127168,-46696,-12660,-45346,-12578,3746,-3800,-13,-5,0,67,197,3970,-3,-6,817,1832,1914,2112,2290,2112,1863,1912,2047
128169,-46708,-12644,-45346,-12578,3800,-3800,-14,-5,1,39,172,3922,6,5,817,1832,1914,2112,2290,2112,1863,1912,2047
129170,-46704,-12644,-45346,-12578,3607,-3800,-14,-5,4,48,174,3914,-10,4,817,1832,1914,2112,2290,2112,1863,1912,2047
130171,-46692,-12644,-45346,-12578,3493,-3800,-14,-4,2,57,154,3924,6,-7,817,1832,1914,2112,2290,2112,1863,1912,2047
131172,-46700,-12648,-45346,-12578,3753,-3800,-13,-6,1,51,158,3931,-8,8,817,1832,1914,2112,2290,2112,1863,1912,2047
132173,-46700,-12636,-45346,-12578,3653,-3800,-11,-9,0,74,147,3905,2,-1,817,1832,1914,2112,2289,2113,1863,1912,2049
133174,-46700,-12660,-45346,-12578,3654,-3800,-11,-6,1,59,176,3915,-8,-7,817,1832,1914,2112,2289,2113,1863,1912,2049
134175,-46700,-12644,-45346,-12578,3654,-3800,-12,-3,2,56,180,3913,2,6,817,1832,1914,2112,2289,2113,1863,1912,2049
135176,-46704,-12636,-45346,-12578,3710,-3800,-10,-3,1,78,176,3933,3,6,817,1832,1914,2112,2289,2113,1863,1912,2049
136177,-46708,-12640,-45346,-12578,3715,-3800,-8,-3,2,45,161,3945,-9,-4,817,1832,1914,2112,2289,2113,1863,1912,2049
137178,-46700,-12652,-45346,-12578,3556,-3800,-10,-5,0,70,162,3919,8,-2,817,1832,1914,2112,2289,2113,1862,1911,2048
138179,-46704,-12632,-45346,-12578,3711,-3800,-11,-5,1,77,190,3913,-4,8,814,1832,1914,2112,2289,2113,1862,1911,2048
139180,-46708,-12652,-45346,-12578,3717,-3800,-11,-4,0,78,181,3957,-3,5,817,1832,1914,2112,2289,2113,1862,1911,2048
140181,-46716,-12640,-45346,-12578,3777,-3800,-14,-5,0,86,164,3959,-9,-7,817,1832,1914,2112,2289,2113,1862,1911,2048
141182,-46704,-12636,-45346,-12578,3513,-3800,-15,-6,0,72,170,3938,7,2,817,1832,1914,2112,2289,2113,1862,1911,2048
142183,-46712,-12640,-45346,-12578,3773,-3800,-16,-6,3,81,150,3938,-10,6,817,1832,1914,2112,2289,2113,1862,1911,2048
143184,-46704,-12648,-45346,-12578,3564,-3800,-12,-4,3,73,147,3910,2,-6,817,1833,1916,2112,2289,2113,1861,1911,2048
144185,-46712,-12640,-45346,-12578,3775,-3800,-11,-2,2,77,169,3922,7,6,817,1833,1916,2112,2289,2113,1861,1911,2048
145186,-46704,-12640,-45346,-12578,3565,-3800,-8,-2,-1,75,166,3958,-8,5,817,1833,1916,2112,2289,2113,1861,1911,2048
146187,-46708,-12644,-45346,-12578,3721,-3800,-8,-3,0,61,170,3918,8,-5,816,1833,1916,2112,2289,2113,1861,1911,2048
147188,-46708,-12648,-45346,-12578,3671,-3800,-11,-3,0,62,148,3937,-5,8,817,1833,1916,2112,2289,2113,1861,1911,2048
148189,-46704,-12652,-45346,-12578,3617,-3800,-14,-4,-1,59,149,3960,0,-5,817,1831,1916,2111,2290,2112,1861,1910,2048
149190,-46708,-12648,-45346,-12578,3722,-3800,-17,-6,-1,61,173,3953,6,8,817,1831,1916,2111,2290,2112,1861,1910,2048
150191,-46712,-12648,-45346,-12578,3728,-3800,-14,-5,1,84,179,3924,-10,-6,817,1831,1916,2111,2290,2112,1861,1910,2048
151192,-46696,-12644,-45346,-12578,3458,-3800,-12,-3,2,72,179,3923,8,-1,817,1831,1916,2111,2290,2112,1861,1910,2048
152193,-46704,-12632,-45346,-12578,3769,-3800,-11,-3,1,77,166,3901,-4,1,817,1831,1916,2111,2290,2112,1861,1910,2048
153194,-46708,-12640,-45346,-12578,3724,-3800,-11,-6,-1,64,165,3918,-8,-7,817,1831,1916,2111,2290,2112,1861,1910,2048
154195,-46712,-12656,-45346,-12578,3730,-3800,-12,-7,-3,59,169,3960,8,3,817,1831,1911,2111,2292,2114,1862,1912,2047
155196,-46704,-12632,-45346,-12578,3570,-3800,-11,-5,-1,66,160,3941,-6,-4,814,1831,1911,2111,2292,2114,1862,1912,2047
156197,-46700,-12632,-45346,-12578,3616,-3800,-10,-4,0,56,164,3909,0,-6,817,1831,1911,2111,2292,2114,1862,1912,2047
157198,-46708,-12652,-45346,-12578,3776,-3800,-9,-5,-1,65,166,3929,7,6,817,1831,1911,2111,2292,2114,1862,1912,2047
158199,-46708,-12640,-45346,-12578,3677,-3800,-10,-4,-1,76,156,3928,-10,-6,817,1831,1911,2111,2292,2114,1862,1912,2047
159200,-46696,-12644,-45346,-12578,3512,-3800,-11,-7,1,71,177,3929,8,5,817,1831,1914,2111,2289,2113,1859,1911,2050
160201,-46712,-12656,-45346,-12578,3800,-3800,-11,-5,1,82,185,3937,-10,1,817,1831,1914,2111,2289,2113,1859,1911,2050
161202,-46708,-12640,-45346,-12578,3628,-3800,-11,-5,0,83,172,3953,7,3,817,1831,1914,2111,2289,2113,1859,1911,2050
162203,-46704,-12648,-45346,-12578,3624,-3800,-10,-6,0,69,160,3964,-10,5,817,1831,1914,2111,2289,2113,1859,1911,2050
163204,-46708,-12632,-45346,-12578,3729,-3800,-8,-4,1,77,151,3924,8,-6,817,1831,1914,2111,2289,2113,1859,1911,2050
164205,-46700,-12640,-45346,-12578,3570,-3800,-12,-9,0,60,165,3907,-8,3,817,1831,1914,2111,2289,2113,1859,1911,2050
165206,-46712,-12640,-45346,-12578,3800,-3800,-12,-7,0,63,150,3924,4,4,817,1831,1913,2110,2287,2113,1862,1913,2047
166207,-46700,-12636,-45346,-12578,3521,-3800,-11,-4,-2,69,167,3915,-8,-7,817,1831,1913,2110,2287,2113,1862,1913,2047
167208,-46704,-12636,-45346,-12578,3726,-3800,-10,-4,1,60,182,3949,1,7,817,1831,1913,2110,2287,2113,1862,1913,2047
168209,-46704,-12648,-45346,-12578,3677,-3800,-12,-4,3,56,155,3947,-2,-7,817,1831,1913,2110,2287,2113,1862,1913,2047
169210,-46704,-12648,-45346,-12578,3677,-3800,-13,-6,2,45,179,3949,3,6,817,1831,1913,2110,2287,2113,1862,1913,2047
170211,-46704,-12640,-45346,-12578,3678,-3800,-13,-6,1,78,180,3930,2,-5,817,1831,1914,2110,2289,2112,1862,1911,2048
171212,-46700,-12644,-45346,-12578,3623,-3800,-13,-6,0,89,168,3911,-10,1,817,1831,1914,2110,2289,2112,1862,1911,2048
172213,-46700,-12660,-45346,-12578,3674,-3800,-13,-7,-1,79,178,3922,8,5,815,1831,1914,2110,2289,2112,1862,1911,2048
173214,-46708,-12652,-45346,-12578,3784,-3800,-10,-8,1,69,172,3924,-10,-6,817,1831,1914,2110,2289,2112,1862,1911,2048
174215,-46708,-12648,-45346,-12578,3685,-3800,-11,-9,3,67,181,3889,-10,2,817,1831,1914,2110,2289,2112,1862,1911,2048
175216,-46704,-12652,-45346,-12578,3630,-3800,-12,-7,3,66,202,3941,1,7,817,1831,1914,2110,2289,2112,1862,1911,2048
176217,-46712,-12640,-45346,-12578,3791,-3800,-12,-4,3,41,187,3952,-5,-6,817,1830,1915,2110,2289,2113,1862,1911,2048
177218,-46708,-12640,-45346,-12578,3637,-3800,-12,-5,3,64,163,3939,-2,7,817,1830,1915,2110,2289,2113,1862,1911,2048
178219,-46700,-12636,-45346,-12578,3577,-3800,-12,-8,3,71,175,3918,7,0,817,1830,1915,2110,2289,2113,1862,1911,2048
179220,-46712,-12640,-45346,-12578,3800,-3800,-14,-6,1,69,184,3936,-10,-3,817,1830,1915,2110,2289,2113,1862,1911,2048
180221,-46716,-12652,-45346,-12578,3748,-3800,-13,-4,3,60,175,3937,8,8,817,1830,1915,2110,2289,2113,1862,1911,2048
181222,-46716,-12640,-45346,-12578,3699,-3800,-12,-6,0,81,158,3931,-5,0,817,1832,1914,2112,2288,2112,1862,1912,2048
182223,-46720,-12652,-45346,-12578,3754,-3800,-11,-5,-1,74,183,3933,6,1,817,1832,1914,2112,2288,2112,1862,1912,2048
183224,-46708,-12644,-45346,-12578,3540,-3800,-10,-4,0,72,173,3949,-10,2,817,1832,1914,2112,2288,2112,1862,1912,2048
184225,-46708,-12648,-45346,-12578,3690,-3800,-11,-4,2,73,175,3940,3,-6,817,1832,1914,2112,2288,2112,1862,1912,2048
185226,-46716,-12640,-45346,-12578,3800,-3800,-11,-5,4,91,179,3930,0,6,817,1832,1914,2112,2288,2112,1862,1912,2048
186227,-46708,-12648,-45346,-12578,3591,-3800,-12,-1,1,97,160,3979,-9,-7,817,1832,1914,2112,2288,2112,1862,1912,2048
187228,-46712,-12628,-45346,-12578,3747,-3800,-11,-5,1,95,147,3918,7,6,817,1834,1916,2111,2290,2112,1863,1911,2048
188229,-46704,-12648,-45346,-12578,3587,-3800,-11,-7,2,66,173,3923,-10,-5,817,1834,1916,2111,2290,2112,1863,1911,2048
189230,-46696,-12644,-45346,-12578,3578,-3800,-10,-6,3,71,163,3950,7,-3,814,1834,1916,2111,2290,2112,1863,1911,2048
190231,-46700,-12640,-45346,-12578,3733,-3800,-11,-5,3,67,162,3916,-8,5,817,1834,1916,2111,2290,2112,1863,1911,2048
191232,-46700,-12648,-45346,-12578,3684,-3800,-12,-4,0,89,171,3926,-9,-2,817,1834,1916,2111,2290,2112,1863,1911,2048
192233,-46700,-12648,-45346,-12578,3684,-3800,-12,-3,-2,83,177,3962,8,-1,817,1833,1913,2111,2293,2116,1864,1912,2048
193234,-46712,-12640,-45346,-12578,3800,-3800,-11,-3,0,80,162,3978,-9,5,817,1833,1913,2111,2293,2116,1864,1912,2048
194235,-46712,-12648,-45346,-12578,3700,-3800,-11,-4,-1,68,169,3922,4,-4,817,1833,1913,2111,2293,2116,1864,1912,2048
195236,-46712,-12640,-45346,-12578,3701,-3800,-10,-6,0,63,160,3972,0,8,817,1833,1913,2111,2293,2116,1864,1912,2048
196237,-46708,-12632,-45346,-12578,3646,-3800,-13,-6,2,68,165,3976,-9,-5,817,1833,1913,2111,2293,2116,1864,1912,2048
197238,-46704,-12640,-45346,-12578,3642,-3800,-9,-6,4,78,146,3936,8,7,817,1833,1913,2111,2293,2116,1864,1912,2048
198239,-46700,-12644,-45346,-12578,3637,-3800,-9,-5,1,75,166,3949,-8,-4,817,1831,1915,2111,2290,2113,1859,1911,2052
199240,-46700,-12632,-45346,-12578,3688,-3800,-10,-5,0,85,187,3938,8,2,817,1831,1915,2111,2290,2113,1859,1911,2052
200241,-46700,-12648,-45346,-12578,3688,-3800,-11,-4,1,87,167,3922,-10,-1,817,1831,1915,2111,2290,2113,1859,1911,2052
201242,-46692,-12652,-45281,-12513,2047,644,-10,-5,1,54,171,3923,8,-5,818,1831,1915,2111,2290,2113,1859,1911,2052
202245,-46700,-12628,-45216,-12448,2336,344,-9,-5,0,62,178,3927,-6,7,783,1831,1915,2111,2290,2113,1859,1911,2052
203244,-46696,-12648,-45151,-12383,2261,998,-10,-4,-1,45,195,3940,14,16,779,1832,1915,2111,2289,2113,1862,1911,1985
204245,-46672,-12636,-45086,-12318,2062,663,-15,-5,0,38,119,3873,18,28,775,1832,1915,2111,2289,2113,1862,1911,1985
205246,-46624,-12620,-45021,-12253,1783,672,-14,-7,13,-19,8,3944,35,33,782,1832,1915,2111,2289,2113,1862,1911,1985
206247,-46548,-12612,-44956,-12188,1420,842,-25,-6,25,261,8,4003,39,33,785,1832,1915,2111,2289,2113,1862,1911,1985
207248,-46492,-12588,-44891,-12123,1682,692,-36,-20,43,102,58,3812,64,34,791,1832,1915,2111,2289,2113,1862,1911,1985
208249,-46408,-12572,-44826,-12058,1310,852,-52,-43,55,-207,3,3785,67,31,790,1832,1915,2111,2289,2113,1862,1911,1985
209250,-46312,-12544,-44761,-11993,1122,747,-71,-46,68,-242,-73,3942,64,32,794,1743,1825,2044,2209,2055,1814,1868,2008
210251,-46216,-12520,-44696,-11928,1085,848,-83,-61,73,-38,152,3810,78,34,798,1743,1825,2044,2209,2055,1814,1868,2008
211252,-46124,-12500,-44631,-11863,1102,953,-89,-68,77,-149,-22,3943,73,27,797,1743,1825,2044,2209,2055,1814,1868,2008
212253,-46016,-12444,-44566,-11798,851,514,-80,-41,75,385,-128,4314,65,40,795,1743,1825,2044,2209,2055,1814,1868,2008
213254,-45912,-12404,-44501,-11733,853,745,-73,-20,87,321,-125,4076,65,43,804,1743,1825,2044,2209,2055,1814,1868,2008
214255,-45820,-12368,-44436,-11668,971,831,-68,-73,92,-507,-56,3560,68,39,801,1780,1870,2061,2225,2085,1832,1886,2047
215256,-45696,-12308,-44371,-11603,500,537,-60,-100,78,-576,0,4014,82,26,799,1780,1870,2061,2225,2085,1832,1886,2047
216257,-45608,-12272,-44306,-11538,922,872,-47,-106,76,-1,-180,3914,68,31,807,1780,1870,2061,2225,2085,1832,1886,2047
217258,-45516,-12220,-44241,-11473,840,688,-27,-110,78,251,-49,3805,73,42,799,1780,1870,2061,2225,2085,1832,1886,2047
218259,-45416,-12176,-44176,-11408,697,815,-31,-125,90,24,-3,4018,62,48,802,1780,1870,2061,2225,2085,1832,1886,2047
219260,-45336,-12132,-44111,-11343,930,841,-30,-129,88,13,86,3921,62,32,802,1780,1870,2061,2225,2085,1832,1886,2047
220261,-45224,-12068,-44046,-11278,472,592,-26,-123,90,-95,83,4057,74,36,799,1798,1878,2091,2267,2075,1829,1896,2029
221262,-45128,-12000,-43981,-11213,635,539,-19,-138,90,79,47,3899,59,51,807,1798,1878,2091,2267,2075,1829,1896,2029
222263,-45028,-11952,-43916,-11148,543,810,-10,-157,105,-120,14,3887,57,36,807,1798,1878,2091,2267,2075,1829,1896,2029
223264,-44952,-11888,-43851,-11083,829,611,-19,-182,115,-305,-5,3895,50,35,802,1798,1878,2091,2267,2075,1829,1896,2029
224265,-44868,-11832,-43786,-11018,707,723,-23,-182,125,-9,-98,3813,65,39,803,1798,1878,2091,2267,2075,1829,1896,2029
225266,-44776,-11764,-43721,-10953,574,569,-41,-175,134,311,-149,3865,63,45,803,1793,1917,2103,2283,2079,1815,1871,2007
226267,-44708,-11684,-43656,-10888,871,401,-53,-140,140,224,-197,3714,48,43,806,1793,1917,2103,2283,2079,1815,1871,2007
227268,-44640,-11620,-43591,-10823,868,602,-68,-147,140,-28,-213,3813,43,37,805,1793,1917,2103,2283,2079,1815,1871,2007
228269,-44560,-11548,-43526,-10758,700,495,-75,-151,137,31,-238,3975,43,52,803,1793,1917,2103,2283,2079,1815,1871,2007
229270,-44496,-11492,-43461,-10693,902,706,-73,-184,139,255,-245,3751,47,43,806,1793,1917,2103,2283,2079,1815,1871,2007
230271,-44452,-11424,-43396,-10628,1178,552,-65,-203,138,42,-225,4038,51,39,801,1793,1917,2103,2283,2079,1815,1871,2007
231272,-44392,-11352,-43331,-10563,984,495,-60,-220,132,-23,-243,3827,46,51,800,1816,1892,2120,2304,2112,1856,1880,2016
232273,-44324,-11296,-43266,-10498,881,706,-52,-241,121,44,-288,3930,41,43,803,1816,1892,2120,2304,2112,1856,1880,2016
233274,-44280,-11240,-43201,-10433,1207,717,-38,-231,119,-35,-191,4061,39,41,801,1816,1892,2120,2304,2112,1856,1880,2016
234275,-44224,-11184,-43136,-10368,1069,729,-16,-251,123,-37,-172,3848,46,45,797,1816,1892,2120,2304,2112,1856,1880,2016
235276,-44152,-11116,-43071,-10303,860,575,5,-262,110,29,-62,4062,41,51,798,1816,1892,2120,2304,2112,1856,1880,2016
236277,-44116,-11056,-43006,-10238,1346,681,20,-269,102,140,-46,4062,38,44,803,1847,1935,2127,2303,2111,1863,1919,2047
237278,-44064,-10980,-42941,-10173,1162,468,47,-257,99,252,13,4044,33,40,796,1847,1935,2127,2303,2111,1863,1919,2047
238279,-44028,-10940,-42876,-10108,1398,949,66,-273,89,65,93,4037,38,42,800,1847,1935,2127,2303,2111,1863,1919,2047
239280,-43976,-10860,-42811,-10043,1215,431,81,-259,80,62,76,4038,35,50,792,1847,1935,2127,2303,2111,1863,1919,2047
240281,-43912,-10812,-42746,-9978,1066,852,90,-245,72,307,144,4009,58,46,796,1847,1935,2127,2303,2111,1863,1919,2047
241282,-43860,-10748,-42681,-9913,1233,654,85,-228,58,338,107,3922,46,49,797,1847,1935,2127,2303,2111,1863,1919,2047
242283,-43788,-10692,-42616,-9848,974,765,100,-182,54,33,157,4095,44,38,797,1809,1893,2096,2284,2051,1813,1893,2018
243284,-43736,-10612,-42551,-9783,1241,446,96,-164,57,-72,371,3889,38,36,799,1809,1893,2096,2284,2051,1813,1893,2018
244285,-43676,-10568,-42486,-9718,1147,923,114,-154,41,-216,165,3884,36,32,799,1809,1893,2096,2284,2051,1813,1893,2018
245286,-43620,-10496,-42421,-9653,1208,565,104,-182,26,91,111,3855,43,48,795,1809,1893,2096,2284,2051,1813,1893,2018
246287,-43572,-10444,-42356,-9588,1330,830,121,-204,19,283,97,3771,37,50,798,1809,1893,2096,2284,2051,1813,1893,2018
247288,-43504,-10388,-42291,-9523,1076,792,120,-233,25,49,73,3926,52,36,793,1826,1910,2096,2296,2076,1822,1868,2007
248289,-43440,-10320,-42226,-9458,1128,639,133,-230,25,-53,-20,3915,38,50,797,1826,1910,2096,2296,2076,1822,1868,2007
249290,-43384,-10280,-42161,-9393,1239,1019,143,-223,24,7,-21,3900,54,33,798,1826,1910,2096,2296,2076,1822,1868,2007
250291,-43336,-10196,-42096,-9328,1361,447,157,-224,29,49,-158,3948,38,35,793,1826,1910,2096,2296,2076,1822,1868,2007
251292,-43268,-10156,-42031,-9263,1108,1028,171,-216,32,159,-136,3930,40,44,797,1826,1910,2096,2296,2076,1822,1868,2007
252293,-43220,-10104,-41966,-9198,1379,893,183,-206,30,221,-135,3974,43,47,793,1826,1910,2096,2296,2076,1822,1868,2007
253294,-43172,-10044,-41901,-9133,1400,801,186,-208,32,182,-147,4029,38,48,792,1816,1895,2096,2272,2042,1795,1870,2001
254295,-43108,-9988,-41836,-9068,1202,862,189,-202,25,237,-46,4047,38,50,792,1816,1895,2096,2272,2042,1795,1870,2001
255296,-43060,-9916,-41771,-9003,1423,653,192,-198,20,226,29,4076,52,50,794,1816,1895,2096,2272,2042,1795,1870,2001
256297,-43000,-9860,-41706,-8938,1280,865,189,-203,25,122,51,4036,43,49,793,1816,1895,2096,2272,2042,1795,1870,2001
257298,-42952,-9824,-41641,-8873,1451,1150,181,-210,33,147,180,4032,53,38,791,1816,1895,2096,2272,2042,1795,1870,2001
258299,-42900,-9756,-41576,-8808,1418,747,177,-210,32,165,208,4064,41,40,787,1792,1872,2064,2235,2049,1807,1861,1992
259300,-42836,-9700,-41511,-8743,1269,909,174,-196,29,154,248,4054,60,56,792,1792,1872,2064,2235,2049,1807,1861,1992
260301,-42808,-9644,-41446,-8678,1765,920,172,-196,33,103,330,4038,58,41,792,1792,1872,2064,2235,2049,1807,1861,1992
261302,-42736,-9584,-41381,-8613,1207,876,183,-202,30,30,394,4042,55,38,785,1792,1872,2064,2235,2049,1807,1861,1992
262303,-42692,-9516,-41316,-8548,1583,773,180,-214,39,-74,270,4048,46,49,794,1792,1872,2064,2235,2049,1807,1861,1992
263304,-42636,-9452,-41251,-8483,1444,824,190,-203,45,268,340,4031,47,52,790,1792,1872,2064,2235,2049,1807,1861,1992
264305,-42572,-9396,-41186,-8418,1346,936,187,-210,59,106,375,3987,57,56,791,1760,1840,2024,2208,2098,1834,1863,2000
265306,-42496,-9344,-41121,-8353,1183,1002,188,-224,69,42,154,3822,51,53,791,1760,1840,2024,2208,2098,1834,1863,2000
266307,-42440,-9280,-41056,-8288,1445,853,190,-225,74,125,274,4053,50,42,792,1760,1840,2024,2208,2098,1834,1863,2000
267308,-42388,-9220,-40991,-8223,1511,911,191,-229,96,-13,84,3838,42,48,791,1760,1840,2024,2208,2098,1834,1863,2000
268309,-42324,-9164,-40926,-8158,1363,972,192,-238,125,64,44,4003,49,38,789,1760,1840,2024,2208,2098,1834,1863,2000
269310,-42256,-9120,-40861,-8093,1309,1147,195,-209,141,174,182,4097,53,35,790,1813,1904,2116,2304,2164,1872,1920,2064
270311,-42196,-9064,-40796,-8028,1416,1009,200,-198,159,-32,17,3900,40,49,788,1813,1904,2116,2304,2164,1872,1920,2064
271312,-42144,-9020,-40731,-7963,1532,1185,191,-196,172,135,-27,3993,57,39,787,1813,1904,2116,2304,2164,1872,1920,2064
272313,-42076,-8968,-40666,-7898,1330,1102,187,-187,191,43,122,4084,55,42,785,1813,1904,2116,2304,2164,1872,1920,2064
273314,-42036,-8916,-40601,-7833,1710,1118,168,-203,211,-137,52,3830,53,52,789,1813,1904,2116,2304,2164,1872,1920,2064
274315,-41972,-8868,-40536,-7768,1412,1188,151,-216,219,56,59,3998,44,39,781,1813,1904,2116,2304,2164,1872,1920,2064
275316,-41912,-8820,-40471,-7703,1470,1210,129,-240,227,171,284,4028,43,52,785,1855,1935,2155,2335,2167,1887,1943,2100
276317,-41880,-8764,-40406,-7638,1860,1121,111,-242,230,116,281,4051,58,37,784,1855,1935,2155,2335,2167,1887,1943,2100
277318,-41816,-8712,-40341,-7573,1462,1188,80,-259,235,76,293,3908,52,51,780,1855,1935,2155,2335,2167,1887,1943,2100
278319,-41760,-8656,-40276,-7508,1573,1149,61,-254,234,275,380,4333,57,54,784,1855,1935,2155,2335,2167,1887,1943,2100
279320,-41704,-8608,-40211,-7443,1585,1271,43,-248,245,294,319,3950,57,43,784,1855,1935,2155,2335,2167,1887,1943,2100
280321,-41660,-8556,-40146,-7378,1761,1236,29,-248,259,379,330,4070,46,45,782,1789,1855,2055,2215,2071,1829,1871,2011
281322,-41600,-8512,-40081,-7313,1568,1362,10,-230,265,350,472,4190,50,51,780,1789,1855,2055,2215,2071,1829,1871,2011
282323,-41540,-8468,-40016,-7248,1574,1389,5,-206,264,125,356,4050,49,47,781,1789,1855,2055,2215,2071,1829,1871,2011
283324,-41492,-8416,-39951,-7183,1746,1305,11,-184,277,-4,450,4158,53,39,781,1789,1855,2055,2215,2071,1829,1871,2011
284325,-41420,-8360,-39886,-7118,1438,1267,25,-192,296,195,372,3998,64,40,780,1789,1855,2055,2215,2071,1829,1871,2011
285326,-41380,-8320,-39821,-7053,1869,1497,53,-228,314,147,294,4011,63,50,785,1789,1855,2055,2215,2071,1829,1871,2011
286327,-41332,-8260,-39756,-6988,1790,1254,61,-273,335,-11,418,4042,62,48,775,1749,1832,2014,2183,2064,1816,1857,1992
287328,-41252,-8200,-39691,-6923,1372,1260,67,-305,350,87,319,3891,70,56,779,1749,1832,2014,2183,2064,1816,1857,1992
288329,-41184,-8164,-39626,-6858,1519,1597,69,-290,367,89,279,3926,63,43,785,1749,1832,2014,2183,2064,1816,1857,1992
289330,-41116,-8088,-39561,-6793,1517,1083,84,-285,375,87,403,3792,61,46,778,1749,1832,2014,2183,2064,1816,1857,1992
290331,-41048,-8060,-39496,-6728,1513,1729,86,-275,389,-90,184,3762,56,54,785,1749,1832,2014,2183,2064,1816,1857,1992
291332,-40968,-8004,-39431,-6663,1346,1390,93,-282,386,173,387,3909,54,41,773,1732,1832,2016,2208,2047,1783,1826,1983
292333,-40904,-7932,-39366,-6598,1547,1183,91,-298,395,123,314,3977,52,54,784,1732,1832,2016,2208,2047,1783,1826,1983
293334,-40856,-7864,-39301,-6533,1769,1229,88,-294,397,315,429,4012,61,59,784,1732,1832,2016,2208,2047,1783,1826,1983
294335,-40784,-7828,-39236,-6468,1461,1666,77,-299,402,219,366,3925,58,54,780,1732,1832,2016,2208,2047,1783,1826,1983
295336,-40732,-7756,-39171,-6403,1727,1207,59,-294,392,45,433,3924,45,57,777,1732,1832,2016,2208,2047,1783,1826,1983
296337,-40684,-7692,-39106,-6338,1799,1309,35,-275,397,687,324,4206,53,42,780,1732,1832,2016,2208,2047,1783,1826,1983
297338,-40632,-7656,-39041,-6273,1765,1695,20,-280,391,467,497,3851,42,51,777,1759,1835,2048,2216,1992,1744,1808,1915
298339,-40588,-7592,-38976,-6208,1891,1347,8,-291,381,146,294,4023,45,51,773,1759,1835,2048,2216,1992,1744,1808,1915
299340,-40504,-7532,-38911,-6143,1369,1403,1,-267,375,391,337,4087,64,46,775,1759,1835,2048,2216,1992,1744,1808,1915
300341,-40464,-7476,-38846,-6078,1950,1465,4,-243,361,344,356,3845,65,55,782,1759,1835,2048,2216,1992,1744,1808,1915
301342,-40416,-7432,-38781,-6013,1871,1641,3,-194,347,-47,249,4155,62,49,773,1759,1835,2048,2216,1992,1744,1808,1915
302343,-40356,-7376,-38716,-5948,1727,1503,11,-172,346,442,293,3951,53,56,772,1760,1832,2048,2208,2032,1743,1808,1968
303344,-40304,-7320,-38651,-5883,1844,1515,31,-190,334,396,379,3955,68,54,776,1760,1832,2048,2208,2032,1743,1808,1968
304345,-40252,-7260,-38586,-5818,1861,1471,48,-228,315,-53,295,3922,61,59,774,1760,1832,2048,2208,2032,1743,1808,1968
305346,-40184,-7192,-38521,-5753,1658,1368,76,-293,318,-200,440,3877,66,62,774,1760,1832,2048,2208,2032,1743,1808,1968
306347,-40144,-7140,-38456,-5688,2039,1584,101,-361,299,73,586,3838,68,61,779,1760,1832,2048,2208,2032,1743,1808,1968
307348,-40084,-7104,-38391,-5623,1796,1820,138,-395,289,-182,288,3600,51,48,771,1845,1911,2119,2319,2127,1892,1919,2052
308349,-40012,-7024,-38326,-5558,1638,1252,156,-344,240,-136,527,4104,57,50,768,1845,1911,2119,2319,2127,1892,1919,2052
309350,-39936,-6964,-38261,-5493,1575,1509,202,-322,232,0,759,3840,68,53,780,1845,1911,2119,2319,2127,1892,1919,2052
310351,-39880,-6912,-38196,-5428,1836,1625,263,-404,269,596,595,3295,52,50,778,1845,1911,2119,2319,2127,1892,1919,2052
311352,-39780,-6852,-38131,-5363,1244,1532,311,-440,299,449,450,4022,57,60,774,1845,1911,2119,2319,2127,1892,1919,2052
312353,-39732,-6784,-38066,-5298,1916,1428,338,-370,281,-72,722,3953,71,56,782,1845,1911,2119,2319,2127,1892,1919,2052
313354,-39644,-6712,-38001,-5233,1388,1371,333,-276,278,-232,618,4013,57,59,775,1839,1927,2152,2335,2095,1848,1887,2015
314355,-39580,-6632,-37936,-5168,1690,1254,309,-252,291,-92,740,3564,57,63,783,1839,1927,2152,2335,2095,1848,1887,2015
315356,-39528,-6584,-37871,-5103,1857,1674,283,-271,307,-207,689,3707,63,45,781,1839,1927,2152,2335,2095,1848,1887,2015
316357,-39464,-6540,-37806,-5038,1708,1751,277,-273,291,-177,903,4190,63,46,773,1839,1927,2152,2335,2095,1848,1887,2015
317358,-39396,-6476,-37741,-4973,1656,1502,272,-256,243,5,969,4064,56,53,772,1839,1927,2152,2335,2095,1848,1887,2015
318359,-39320,-6428,-37676,-4908,1543,1724,252,-226,220,316,617,4074,58,47,777,1823,1919,2095,2271,2003,1771,1823,1943
319360,-39260,-6364,-37611,-4843,1749,1525,232,-254,213,-91,583,3864,59,58,775,1823,1919,2095,2271,2003,1771,1823,1943
320361,-39180,-6320,-37546,-4778,1482,1802,208,-297,195,-382,433,4025,55,60,776,1823,1919,2095,2271,2003,1771,1823,1943
321362,-39128,-6256,-37481,-4713,1848,1554,204,-319,161,-313,409,3809,54,49,773,1823,1919,2095,2271,2003,1771,1823,1943
322363,-39072,-6192,-37416,-4648,1810,1555,208,-343,140,-215,281,4000,55,59,774,1823,1919,2095,2271,2003,1771,1823,1943
323364,-39000,-6140,-37351,-4583,1602,1722,241,-371,121,-187,404,4109,67,59,775,1823,1919,2095,2271,2003,1771,1823,1943
324365,-38928,-6068,-37286,-4518,1594,1464,272,-377,82,-117,532,4040,67,53,774,1754,1840,2034,2195,2023,1786,1824,1962
325366,-38872,-6028,-37221,-4453,1806,1895,296,-355,64,182,292,3995,60,47,775,1754,1840,2034,2195,2023,1786,1824,1962
326367,-38812,-5984,-37156,-4388,1763,1872,315,-354,87,63,246,3885,72,55,769,1754,1840,2034,2195,2023,1786,1824,1962
327368,-38756,-5924,-37091,-4323,1824,1678,329,-371,99,-147,414,3780,72,45,769,1754,1840,2034,2195,2023,1786,1824,1962
328369,-38668,-5876,-37026,-4258,1397,1850,338,-342,86,75,564,3919,70,56,771,1754,1840,2034,2195,2023,1786,1824,1962
329370,-38568,-5824,-36961,-4193,1204,1815,359,-299,94,76,632,3985,77,45,774,1728,1824,2020,2152,2029,1794,1823,1968
330371,-38508,-5768,-36896,-4128,1711,1777,375,-318,112,-116,641,3762,61,47,777,1728,1824,2020,2152,2029,1794,1823,1968
331372,-38448,-5720,-36831,-4063,1718,1899,375,-364,126,-72,745,3648,72,48,772,1728,1824,2020,2152,2029,1794,1823,1968
332373,-38368,-5676,-36766,-3998,1450,1975,343,-397,147,-60,792,3826,58,45,770,1728,1824,2020,2152,2029,1794,1823,1968
333374,-38300,-5616,-36701,-3933,1597,1782,309,-388,157,-405,836,4052,67,57,769,1728,1824,2020,2152,2029,1794,1823,1968
334375,-38224,-5572,-36636,-3868,1484,2009,283,-382,150,-424,847,3976,56,49,772,1728,1824,2020,2152,2029,1794,1823,1968
335376,-38148,-5500,-36571,-3803,1472,1650,270,-393,156,-54,854,4052,69,45,769,1744,1807,1968,2160,1991,1776,1799,1952
336377,-38096,-5452,-36506,-3738,1788,1972,242,-428,172,142,876,3962,55,44,777,1744,1807,1968,2160,1991,1776,1799,1952
337378,-38036,-5392,-36441,-3673,1695,1828,212,-447,194,43,705,4298,66,47,767,1744,1807,1968,2160,1991,1776,1799,1952
338379,-37956,-5332,-36376,-3608,1427,1835,187,-451,196,89,681,4200,66,55,770,1744,1807,1968,2160,1991,1776,1799,1952
339380,-37912,-5268,-36311,-3543,1903,1787,172,-424,201,-313,541,4430,71,45,773,1744,1807,1968,2160,1991,1776,1799,1952
340381,-37832,-5228,-36246,-3478,1436,2118,182,-375,187,-38,318,4491,68,49,769,1700,1768,1972,2112,2048,1744,1792,1936
341382,-37772,-5156,-36181,-3413,1693,1710,200,-337,178,294,215,4379,58,46,766,1700,1768,1972,2112,2048,1744,1792,1936
342383,-37716,-5128,-36116,-3348,1754,2306,201,-366,196,24,239,4091,57,47,770,1700,1768,1972,2112,2048,1744,1792,1936
343384,-37656,-5056,-36051,-3283,1711,1748,195,-418,191,36,392,4271,74,47,762,1700,1768,1972,2112,2048,1744,1792,1936
344385,-37592,-4996,-35986,-3218,1662,1905,187,-439,181,193,219,4090,65,44,770,1700,1768,1972,2112,2048,1744,1792,1936
345386,-37524,-4944,-35921,-3153,1609,2022,185,-423,182,277,187,3993,66,49,770,1700,1768,1972,2112,2048,1744,1792,1936
346387,-37476,-4900,-35856,-3088,1881,2147,174,-421,202,471,129,3921,79,48,767,1772,1848,2113,2295,2125,1855,1922,2075
347388,-37384,-4844,-35791,-3023,1298,2009,172,-418,232,428,29,3708,75,57,763,1772,1848,2113,2295,2125,1855,1922,2075
348389,-37308,-4772,-35726,-2958,1486,1802,170,-477,258,-34,295,3848,78,64,770,1772,1848,2113,2295,2125,1855,1922,2075
349390,-37228,-4708,-35661,-2893,1418,1904,161,-534,285,-20,353,3846,74,43,773,1772,1848,2113,2295,2125,1855,1922,2075
350391,-37160,-4660,-35596,-2828,1565,2125,152,-536,308,227,507,3932,57,58,773,1772,1848,2113,2295,2125,1855,1922,2075
351392,-37084,-4600,-35531,-2763,1452,1982,133,-486,333,322,524,3786,60,57,767,1840,1903,2135,2327,2174,1887,1929,2047
352393,-37016,-4540,-35466,-2698,1549,1989,103,-418,355,539,655,3843,74,55,770,1840,1903,2135,2327,2174,1887,1929,2047
353394,-36956,-4464,-35401,-2633,1656,1776,65,-396,381,422,751,3570,58,45,769,1840,1903,2135,2327,2174,1887,1929,2047
354395,-36868,-4400,-35336,-2568,1278,1928,36,-420,391,366,703,3806,54,50,771,1840,1903,2135,2327,2174,1887,1929,2047
355396,-36824,-4360,-35271,-2503,1854,2259,5,-485,405,239,781,3899,54,49,773,1840,1903,2135,2327,2174,1887,1929,2047
356397,-36764,-4300,-35206,-2438,1661,2015,-14,-488,418,375,635,4190,69,51,761,1840,1903,2135,2327,2174,1887,1929,2047
357398,-36696,-4256,-35141,-2373,1558,2242,-20,-471,420,306,521,4118,60,47,765,1823,1903,2079,2271,2111,1871,1911,2047
358399,-36620,-4200,-35076,-2308,1445,2104,-24,-454,432,83,588,4320,72,57,763,1823,1903,2079,2271,2111,1871,1911,2047
359400,-36556,-4144,-35011,-2243,1596,2116,-9,-453,446,230,476,4299,73,47,765,1823,1903,2079,2271,2111,1871,1911,2047
360401,-36496,-4092,-34946,-2178,1654,2182,16,-526,462,309,473,4440,66,57,766,1823,1903,2079,2271,2111,1871,1911,2047
361402,-36452,-4016,-34881,-2113,1880,1869,55,-570,460,98,409,4465,65,51,764,1823,1903,2079,2271,2111,1871,1911,2047
362403,-36372,-3972,-34816,-2048,1412,2296,75,-566,477,265,213,4622,70,58,767,1695,1775,1959,2143,2023,1791,1822,1943
363404,-36316,-3912,-34751,-1983,1724,2102,115,-520,480,375,157,4602,60,62,764,1695,1775,1959,2143,2023,1791,1822,1943
364405,-36264,-3852,-34686,-1918,1790,2109,141,-485,496,288,265,4439,73,48,764,1695,1775,1959,2143,2023,1791,1822,1943
365406,-36188,-3776,-34621,-1853,1477,1897,154,-480,505,713,389,4265,59,62,764,1695,1775,1959,2143,2023,1791,1822,1943
366407,-36124,-3728,-34556,-1788,1630,2269,164,-482,505,785,489,4495,63,49,771,1695,1775,1959,2143,2023,1791,1822,1943
367408,-36048,-3672,-34491,-1723,1466,2180,174,-511,517,594,368,4092,59,52,763,1695,1775,1959,2143,2023,1791,1822,1943
368409,-35972,-3600,-34426,-1658,1454,1972,149,-538,551,322,75,3828,68,48,767,1727,1800,1999,2176,1991,1780,1836,1962
369410,-35904,-3528,-34361,-1593,1550,1965,126,-539,584,-358,385,3976,62,55,770,1727,1800,1999,2176,1991,1780,1836,1962
370411,-35836,-3480,-34296,-1528,1547,2286,101,-567,584,-563,606,3772,61,51,770,1727,1800,1999,2176,1991,1780,1836,1962
371412,-35772,-3412,-34231,-1463,1600,2033,61,-632,580,339,578,3635,48,48,764,1727,1800,1999,2176,1991,1780,1836,1962
372413,-35716,-3344,-34166,-1398,1711,2030,30,-665,590,790,779,3838,64,60,767,1727,1800,1999,2176,1991,1780,1836,1962
373414,-35660,-3272,-34101,-1333,1723,1972,-4,-704,603,491,775,3884,65,65,766,1776,1855,2056,2191,2000,1743,1808,1927
374415,-35612,-3212,-34036,-1268,1843,2130,-25,-682,594,222,791,4134,55,50,766,1776,1855,2056,2191,2000,1743,1808,1927
375416,-35548,-3144,-33971,-1203,1646,2026,-25,-627,573,287,705,4354,55,59,764,1776,1855,2056,2191,2000,1743,1808,1927
376417,-35488,-3084,-33906,-1138,1702,2133,-11,-591,537,820,639,4288,62,57,764,1776,1855,2056,2191,2000,1743,1808,1927
377418,-35424,-3032,-33841,-1073,1654,2250,18,-589,523,980,553,4414,71,63,764,1776,1855,2056,2191,2000,1743,1808,1927
378419,-35348,-2964,-33776,-1008,1491,2047,57,-630,521,605,493,4304,62,55,763,1776,1855,2056,2191,2000,1743,1808,1927
379420,-35296,-2888,-33711,-943,1807,1934,94,-692,534,26,589,4596,70,50,766,1703,1792,1952,2128,1984,1727,1792,1888
380421,-35240,-2820,-33646,-878,1769,2031,148,-729,524,-173,729,4749,53,47,767,1703,1792,1952,2128,1984,1727,1792,1888
381422,-35156,-2780,-33581,-813,1396,2413,196,-769,511,9,609,4557,60,59,764,1703,1792,1952,2128,1984,1727,1792,1888
382423,-35100,-2712,-33516,-748,1758,2059,239,-793,516,493,631,4684,56,52,762,1703,1792,1952,2128,1984,1727,1792,1888
383424,-35044,-2648,-33451,-683,1770,2111,273,-838,525,158,834,4351,59,53,764,1703,1792,1952,2128,1984,1727,1792,1888
384425,-34980,-2576,-33386,-618,1671,2004,305,-853,550,-94,882,4633,60,66,764,1762,1858,2084,2240,2064,1776,1826,2000
385426,-34916,-2496,-33321,-553,1674,1886,335,-857,576,450,899,4376,73,64,767,1762,1858,2084,2240,2064,1776,1826,2000
386427,-34848,-2424,-33256,-488,1621,1978,362,-798,583,330,959,4559,62,61,770,1762,1858,2084,2240,2064,1776,1826,2000
387428,-34784,-2376,-33191,-423,1672,2300,373,-773,590,422,998,4256,67,51,768,1762,1858,2084,2240,2064,1776,1826,2000
388429,-34724,-2316,-33126,-358,1729,2157,377,-775,604,482,1159,4316,76,48,763,1762,1858,2084,2240,2064,1776,1826,2000
389430,-34664,-2252,-33061,-293,1735,2109,365,-802,593,314,1191,4086,78,53,763,1762,1858,2084,2240,2064,1776,1826,2000
390431,-34580,-2188,-32996,-228,1413,2110,349,-828,592,371,1116,3997,83,64,764,1872,1951,2163,2367,2083,1847,1878,2015
391432,-34488,-2124,-32931,-163,1281,2112,334,-811,574,314,1067,3947,68,54,767,1872,1951,2163,2367,2083,1847,1878,2015
392433,-34412,-2064,-32866,-98,1468,2169,317,-768,564,6,798,3975,79,50,769,1872,1951,2163,2367,2083,1847,1878,2015
393434,-34316,-2004,-32801,-33,1181,2177,311,-758,561,257,893,3941,67,61,766,1872,1951,2163,2367,2083,1847,1878,2015
394435,-34244,-1924,-32736,32,1472,1908,327,-785,534,457,981,4074,75,57,768,1872,1951,2163,2367,2083,1847,1878,2015
395436,-34160,-1860,-32671,97,1300,2110,347,-821,512,589,943,4204,72,59,772,1887,1976,2175,2373,2111,1856,1887,2047
396437,-34092,-1776,-32606,162,1496,1838,373,-840,492,526,973,4239,70,55,770,1887,1976,2175,2373,2111,1856,1887,2047
397438,-34004,-1696,-32541,227,1219,1871,401,-812,452,432,952,4323,58,49,772,1887,1976,2175,2373,2111,1856,1887,2047
398439,-33956,-1648,-32476,292,1741,2292,430,-763,422,561,998,4453,60,45,774,1887,1976,2175,2373,2111,1856,1887,2047
399440,-33880,-1588,-32411,357,1378,2149,472,-709,398,810,1107,4408,75,47,764,1887,1976,2175,2373,2111,1856,1887,2047
400441,-33816,-1516,-32346,422,1530,1991,496,-684,377,563,913,4395,73,58,765,1887,1976,2175,2373,2111,1856,1887,2047
401442,-33756,-1456,-32281,487,1586,2148,521,-674,368,340,1073,4565,57,48,769,1807,1879,2079,2239,2071,1831,1823,1951
402443,-33692,-1384,-32216,552,1538,1990,543,-650,373,242,1129,4460,69,63,767,1807,1879,2079,2239,2071,1831,1823,1951
403444,-33624,-1328,-32151,617,1485,2202,555,-629,385,388,1123,4435,58,50,768,1807,1879,2079,2239,2071,1831,1823,1951
404445,-33560,-1244,-32086,682,1537,1830,561,-606,401,123,1332,4608,73,51,766,1807,1879,2079,2239,2071,1831,1823,1951
405446,-33484,-1200,-32021,747,1373,2356,550,-586,403,124,1330,4359,58,53,771,1807,1879,2079,2239,2071,1831,1823,1951
406447,-33408,-1120,-31956,812,1361,1888,548,-576,416,188,1439,4454,60,43,766,1731,1799,1996,2171,2008,1771,1816,1959
407448,-33344,-1048,-31891,877,1513,1980,536,-587,430,285,1485,4249,59,53,770,1731,1799,1996,2171,2008,1771,1816,1959
408449,-33276,-964,-31826,942,1460,1808,522,-578,437,249,1208,4273,59,55,770,1731,1799,1996,2171,2008,1771,1816,1959
409450,-33200,-908,-31761,1007,1347,2169,493,-541,442,-4,1274,4458,70,55,773,1731,1799,1996,2171,2008,1771,1816,1959
410451,-33136,-848,-31696,1072,1498,2126,471,-492,428,-84,1249,4404,57,51,765,1731,1799,1996,2171,2008,1771,1816,1959
411452,-33056,-768,-31631,1137,1281,1859,463,-469,404,605,1195,4279,58,53,767,1731,1799,1996,2171,2008,1771,1816,1959
412453,-32992,-708,-31566,1202,1482,2116,473,-482,391,955,1272,4187,60,47,773,1737,1823,2008,2175,2048,1824,1813,1980
413454,-32936,-632,-31501,1267,1594,1903,468,-465,369,681,1133,4339,55,53,769,1737,1823,2008,2175,2048,1824,1813,1980
414455,-32868,-580,-31436,1332,1441,2219,462,-407,327,512,1192,4479,64,68,770,1737,1823,2008,2175,2048,1824,1813,1980
415456,-32792,-496,-31371,1397,1328,1797,455,-337,276,665,1031,4253,56,55,767,1737,1823,2008,2175,2048,1824,1813,1980
416457,-32716,-408,-31306,1462,1315,1720,462,-292,232,707,1025,4341,69,68,773,1737,1823,2008,2175,2048,1824,1813,1980
417458,-32672,-344,-31241,1527,1741,2021,455,-277,189,566,1027,4330,64,55,778,1715,1790,1984,2168,2048,1788,1792,2000
418459,-32608,-272,-31176,1592,1494,1914,439,-285,159,527,952,4281,71,62,769,1715,1790,1984,2168,2048,1788,1792,2000
419460,-32544,-184,-31111,1657,1495,1687,440,-290,142,606,1073,4413,57,57,769,1715,1790,1984,2168,2048,1788,1792,2000
420461,-32472,-104,-31046,1722,1387,1769,453,-316,133,491,1009,4175,67,63,775,1715,1790,1984,2168,2048,1788,1792,2000
421462,-32396,-44,-30981,1787,1324,2026,476,-370,111,273,948,4301,64,52,775,1715,1790,1984,2168,2048,1788,1792,2000
422463,-32336,28,-30916,1852,1531,1868,475,-410,100,-40,963,4435,53,50,771,1715,1790,1984,2168,2048,1788,1792,2000
423464,-32280,104,-30851,1917,1592,1805,457,-404,125,33,893,4514,57,47,772,1730,1808,2048,2176,2032,1760,1824,1939
424465,-32196,160,-30786,1982,1220,2067,411,-367,147,416,1325,4436,65,48,772,1730,1808,2048,2176,2032,1760,1824,1939
425466,-32132,224,-30721,2047,1471,1969,369,-294,163,523,1356,4478,70,53,772,1730,1808,2048,2176,2032,1760,1824,1939
426467,-32044,288,-30656,2112,1144,1971,320,-238,175,260,1316,4331,65,58,771,1730,1808,2048,2176,2032,1760,1824,1939
427469,-31980,360,-30591,2177,1445,1863,283,-235,201,461,1256,4331,66,47,771,1730,1808,2048,2176,2032,1760,1824,1939
428469,-31912,432,-30526,2242,1392,1855,268,-239,205,678,1323,4299,61,61,772,1834,1924,2151,2270,2104,1852,1920,2030
429470,-31844,496,-30461,2307,1389,1957,263,-256,199,760,1186,4302,60,62,774,1834,1924,2151,2270,2104,1852,1920,2030
430471,-31784,580,-30396,2372,1496,1684,252,-247,194,-92,1048,4423,59,64,773,1834,1924,2151,2270,2104,1852,1920,2030
431472,-31704,660,-30331,2437,1228,1717,221,-192,134,269,1420,4110,57,58,774,1834,1924,2151,2270,2104,1852,1920,2030
432473,-31640,712,-30266,2502,1430,2084,206,-114,94,544,1428,4444,52,50,778,1834,1924,2151,2270,2104,1852,1920,2030
433474,-31584,796,-30201,2567,1542,1660,203,-86,63,1066,1468,3799,70,53,773,1834,1924,2151,2270,2104,1852,1920,2030
434475,-31508,860,-30136,2632,1278,1913,196,-106,22,856,1300,4030,62,69,773,1839,1935,2135,2334,2175,1911,1967,2111
435476,-31428,936,-30071,2697,1211,1750,213,-112,-21,186,1195,3945,74,50,775,1839,1935,2135,2334,2175,1911,1967,2111
436477,-31352,1016,-30006,2762,1248,1682,227,-102,-87,278,1153,3836,70,52,776,1839,1935,2135,2334,2175,1911,1967,2111
437478,-31296,1096,-29941,2827,1510,1665,266,-71,-127,332,1110,3862,53,59,778,1839,1935,2135,2334,2175,1911,1967,2111
438479,-31216,1180,-29876,2892,1191,1592,291,-68,-150,560,1156,3815,65,51,777,1839,1935,2135,2334,2175,1911,1967,2111
439480,-31140,1244,-29811,2957,1229,1844,317,-81,-169,476,1276,3740,60,62,779,1791,1887,2095,2264,2143,1887,1907,2039
440481,-31068,1332,-29746,3022,1270,1516,327,-109,-189,232,1333,3654,57,48,779,1791,1887,2095,2264,2143,1887,1907,2039
441482,-31000,1412,-29681,3087,1318,1599,336,-122,-208,246,1167,3656,59,59,779,1791,1887,2095,2264,2143,1887,1907,2039
442483,-30928,1484,-29616,3152,1259,1691,333,-110,-215,251,1342,3655,73,53,781,1791,1887,2095,2264,2143,1887,1907,2039
443484,-30856,1544,-29551,3217,1252,1848,314,-91,-210,366,1240,3522,61,51,779,1791,1887,2095,2264,2143,1887,1907,2039
444485,-30772,1588,-29486,3282,1078,2074,286,-60,-189,432,1303,3556,73,54,774,1791,1887,2095,2264,2143,1887,1907,2039
445486,-30704,1668,-29421,3347,1276,1606,248,-30,-180,298,1433,3294,67,58,773,1731,1818,2038,2189,1988,1764,1793,1910
446487,-30620,1748,-29356,3412,1052,1589,212,7,-178,262,1478,3322,55,59,777,1731,1818,2038,2189,1988,1764,1793,1910
447488,-30540,1812,-29291,3477,1085,1790,181,52,-188,327,1653,3391,58,57,782,1731,1818,2038,2189,1988,1764,1793,1910
448489,-30468,1884,-29226,3542,1177,1682,151,96,-186,670,1626,3216,58,54,782,1731,1818,2038,2189,1988,1764,1793,1910
449490,-30380,1948,-29161,3607,950,1785,125,127,-199,602,1615,3296,56,61,779,1731,1818,2038,2189,1988,1764,1793,1910
450491,-30284,2012,-28962,3806,1662,2636,104,152,-221,488,1641,3139,62,57,780,1726,1814,2010,2184,1981,1749,1792,1919
451492,-30232,2092,-28897,3871,2228,2419,88,150,-264,588,1557,3072,76,62,769,1726,1814,2010,2184,1981,1749,1792,1919
452493,-30156,2172,-28832,3936,1916,2402,88,160,-302,419,1506,3194,70,72,756,1726,1814,2010,2184,1981,1749,1792,1919
453494,-30044,2260,-28767,4001,1408,2274,100,158,-340,483,1583,3112,79,76,756,1726,1814,2010,2184,1981,1749,1792,1919
454495,-29948,2344,-28702,4066,1571,2302,127,146,-383,544,1422,3135,83,82,764,1726,1814,2010,2184,1981,1749,1792,1919
455496,-29856,2452,-28637,4131,1589,1950,149,120,-423,435,1143,2974,88,80,766,1726,1814,2010,2184,1981,1749,1792,1919
456497,-29744,2564,-28572,4196,1282,1843,161,78,-457,433,1182,3056,86,79,769,1632,1704,1888,2000,1879,1700,1751,1908
457498,-29656,2708,-28507,4261,1554,1347,159,63,-492,393,1166,2924,77,91,775,1632,1704,1888,2000,1879,1700,1751,1908
458499,-29560,2848,-28442,4326,1417,1307,174,96,-504,369,1316,2787,88,86,781,1632,1704,1888,2000,1879,1700,1751,1908
459500,-29432,2948,-28377,4391,940,1764,188,42,-502,728,1707,2972,83,74,784,1632,1704,1888,2000,1879,1700,1751,1908
460501,-29316,3080,-28312,4456,1029,1283,210,7,-531,404,1667,2841,76,68,783,1632,1704,1888,2000,1879,1700,1751,1908
461502,-29204,3200,-28247,4521,1022,1366,240,-34,-551,587,1604,2946,73,82,784,1632,1748,1935,2079,2016,1776,1791,1943
462503,-29096,3292,-28182,4586,1019,1684,213,-44,-554,603,1551,3070,70,80,789,1632,1748,1935,2079,2016,1776,1791,1943
463504,-29000,3396,-28117,4651,1132,1486,202,-1,-534,449,1599,3245,74,65,786,1632,1748,1935,2079,2016,1776,1791,1943
464505,-28876,3496,-28052,4716,710,1495,166,51,-516,712,1578,3337,85,64,785,1632,1748,1935,2079,2016,1776,1791,1943
465506,-28772,3584,-27987,4781,913,1617,143,59,-505,757,1634,3125,78,60,787,1632,1748,1935,2079,2016,1776,1791,1943
466507,-28664,3680,-27922,4846,811,1480,115,48,-487,755,1816,3157,64,63,788,1632,1748,1935,2079,2016,1776,1791,1943
467508,-28572,3756,-27857,4911,978,1716,54,26,-480,512,1780,3119,77,67,786,1684,1791,1984,2112,2016,1740,1801,1968
468509,-28480,3852,-27792,4976,945,1429,22,27,-475,126,1598,2861,74,59,786,1684,1791,1984,2112,2016,1740,1801,1968
469510,-28376,3948,-27727,5041,748,1392,-17,61,-467,460,1670,3073,64,57,785,1684,1791,1984,2112,2016,1740,1801,1968
470511,-28280,4036,-27662,5106,811,1464,-14,31,-447,670,1682,2752,60,52,790,1684,1791,1984,2112,2016,1740,1801,1968
471512,-28196,4132,-27597,5171,938,1327,-9,-39,-471,118,1466,2874,59,59,790,1684,1791,1984,2112,2016,1740,1801,1968
472513,-28104,4208,-27532,5236,805,1563,-21,-136,-512,33,1251,2700,64,51,789,1719,1824,2018,2129,2115,1827,1872,2056
473514,-28024,4292,-27467,5301,936,1440,-26,-181,-534,357,1345,2992,53,53,788,1719,1824,2018,2129,2115,1827,1872,2056
474515,-27928,4360,-27402,5366,700,1638,-19,-188,-550,469,1154,2962,65,62,788,1719,1824,2018,2129,2115,1827,1872,2056
475516,-27852,4440,-27337,5431,936,1469,-7,-215,-557,495,1085,3005,56,45,790,1719,1824,2018,2129,2115,1827,1872,2056
476517,-27772,4532,-27272,5496,868,1287,0,-248,-582,483,1287,2882,74,48,786,1719,1824,2018,2129,2115,1827,1872,2056
477518,-27684,4604,-27207,5561,740,1529,3,-260,-597,626,1209,2955,66,58,788,1719,1824,2018,2129,2115,1827,1872,2056
478519,-27568,4688,-27142,5626,328,1356,7,-232,-602,935,1194,3034,56,50,790,1723,1839,2032,2135,2175,1867,1903,2104
479520,-27504,4772,-27077,5691,979,1333,-12,-184,-604,443,1379,3019,48,54,790,1723,1839,2032,2135,2175,1867,1903,2104
480521,-27420,4868,-27012,5756,707,1145,-39,-121,-597,692,1452,3014,59,65,796,1723,1839,2032,2135,2175,1867,1903,2104
481522,-27340,4932,-26947,5821,738,1547,-87,-117,-567,892,1533,2904,53,62,790,1723,1839,2032,2135,2175,1867,1903,2104
482523,-27248,5024,-26882,5886,555,1165,-114,-127,-553,619,1523,2727,54,56,796,1723,1839,2032,2135,2175,1867,1903,2104
483524,-27168,5120,-26817,5951,687,1077,-172,-175,-546,265,1457,2736,63,63,789,1655,1787,1967,2047,2079,1815,1859,2015
484525,-27084,5232,-26752,6016,614,820,-219,-161,-518,470,1603,2798,47,59,797,1655,1787,1967,2047,2079,1815,1859,2015
485526,-26996,5332,-26687,6081,536,928,-269,-141,-483,769,1530,2797,47,53,797,1655,1787,1967,2047,2079,1815,1859,2015
486527,-26920,5416,-26622,6146,672,1105,-312,-136,-472,434,1124,2791,49,49,802,1655,1787,1967,2047,2079,1815,1859,2015
487528,-26848,5512,-26557,6211,715,917,-349,-162,-453,111,1146,2906,48,50,801,1655,1787,1967,2047,2079,1815,1859,2015
488529,-26776,5608,-26492,6276,706,879,-372,-189,-426,319,1143,2857,51,59,797,1655,1787,1967,2047,2079,1815,1859,2015
489530,-26692,5680,-26427,6341,533,1171,-383,-212,-412,716,1050,2727,47,52,799,1652,1761,1947,2056,2106,1828,1861,2031
490531,-26604,5780,-26362,6406,455,779,-388,-240,-402,606,756,2971,63,55,799,1652,1761,1947,2056,2106,1828,1861,2031
491532,-26536,5864,-26297,6471,701,955,-396,-258,-382,449,635,2715,51,54,798,1652,1761,1947,2056,2106,1828,1861,2031
492533,-26448,5944,-26232,6536,423,987,-385,-218,-383,604,788,3023,56,57,804,1652,1761,1947,2056,2106,1828,1861,2031
493534,-26368,6028,-26167,6601,505,915,-382,-192,-394,551,682,2660,64,53,799,1652,1761,1947,2056,2106,1828,1861,2031
494535,-26284,6112,-26102,6666,432,892,-383,-139,-407,496,711,3108,61,48,801,1646,1759,1945,2061,2144,1838,1869,2061
495536,-26196,6200,-26037,6731,354,814,-405,-107,-404,437,893,2833,47,51,799,1646,1759,1945,2061,2144,1838,1869,2061
496537,-26120,6284,-25972,6796,490,841,-427,-76,-387,565,820,2879,56,52,802,1646,1759,1945,2061,2144,1838,1869,2061
497538,-26044,6372,-25907,6861,477,762,-473,-61,-367,427,852,2786,57,61,805,1646,1759,1945,2061,2144,1838,1869,2061
498539,-25952,6464,-25842,6926,244,680,-508,-37,-363,162,842,2594,55,52,803,1646,1759,1945,2061,2144,1838,1869,2061
499540,-25864,6568,-25777,6991,266,483,-555,-37,-322,215,782,2650,42,64,804,1646,1759,1945,2061,2144,1838,1869,2061
500541,-25796,6660,-25712,7056,512,600,-589,-19,-287,590,1004,2542,45,60,807,1669,1793,1977,2081,2120,1825,1876,2044
501542,-25720,6748,-25647,7121,400,622,-644,-13,-259,317,701,2518,46,52,810,1669,1793,1977,2081,2120,1825,1876,2044
502543,-25628,6844,-25582,7186,167,484,-696,-1,-225,124,842,2809,61,53,806,1669,1793,1977,2081,2120,1825,1876,2044
503544,-25548,6924,-25517,7251,298,666,-732,37,-204,541,856,2881,45,56,807,1669,1793,1977,2081,2120,1825,1876,2044
504545,-25472,7012,-25452,7316,335,538,-764,86,-176,690,529,2779,58,51,810,1669,1793,1977,2081,2120,1825,1876,2044
505546,-25392,7112,-25387,7381,267,346,-779,95,-154,622,808,3074,54,62,807,1688,1797,1962,2080,2099,1824,1875,2037
506547,-25316,7200,-25322,7446,303,468,-778,79,-137,921,605,2901,62,47,808,1688,1797,1962,2080,2099,1824,1875,2037
507548,-25220,7284,-25257,7511,15,495,-764,55,-142,883,437,2912,47,56,811,1688,1797,1962,2080,2099,1824,1875,2037
508549,-25128,7376,-25192,7576,32,362,-762,62,-123,560,175,3136,44,57,810,1688,1797,1962,2080,2099,1824,1875,2037
509550,-25052,7452,-25127,7641,219,548,-753,56,-98,936,295,2934,55,61,811,1688,1797,1962,2080,2099,1824,1875,2037
510551,-24960,7544,-25062,7706,-15,315,-739,40,-81,665,190,2891,42,59,813,1688,1797,1962,2080,2099,1824,1875,2037
511552,-24876,7640,-24997,7771,62,227,-741,22,-62,350,13,2887,42,61,809,1670,1781,1951,2067,2118,1838,1880,2042
512553,-24796,7748,-24932,7836,93,25,-752,-6,-25,818,162,2829,49,48,811,1670,1781,1951,2067,2118,1838,1880,2042
513554,-24732,7832,-24867,7901,295,302,-764,-29,9,965,219,2685,43,53,812,1670,1781,1951,2067,2118,1838,1880,2042
514555,-24632,7912,-24802,7966,-198,333,-801,-12,32,641,-35,2980,55,57,815,1670,1781,1951,2067,2118,1838,1880,2042
515556,-24576,8000,-24737,8031,363,205,-833,13,57,477,-35,3023,50,51,812,1670,1781,1951,2067,2118,1838,1880,2042
516557,-24492,8104,-24672,8096,-10,-42,-875,13,104,370,213,2938,49,45,794,1693,1806,1985,2108,2104,1825,1879,1947
517558,-24404,8196,-24607,8161,-88,75,-899,3,141,503,239,3093,44,42,811,1693,1806,1985,2108,2104,1825,1879,1947
518559,-24344,8288,-24542,8226,268,42,-916,-8,181,289,-155,3148,40,59,815,1693,1806,1985,2108,2104,1825,1879,1947
519560,-24268,8380,-24477,8291,54,9,-920,-27,215,90,27,3213,54,50,810,1693,1806,1985,2108,2104,1825,1879,1947
520561,-24188,8500,-24412,8356,-14,-408,-916,-51,253,-194,46,3054,57,56,814,1693,1806,1985,2108,2104,1825,1879,1947
521562,-24068,8616,-24347,8421,-581,-421,-902,-74,270,393,-89,3255,37,52,815,1693,1806,1985,2108,2104,1825,1879,1947
522563,-23892,8748,-24282,8486,-1417,-702,-872,-68,297,337,-207,3376,53,48,812,1731,1845,1994,2144,2124,1834,1904,2072
523564,-23768,8820,-24217,8551,-840,39,-821,-84,324,268,-258,3342,36,34,812,1731,1845,1994,2144,2124,1834,1904,2072
524565,-23700,8876,-24152,8616,-143,250,-759,-226,295,23,24,2959,36,33,807,1731,1845,1994,2144,2124,1834,1904,2072
525566,-23624,8944,-24087,8681,-257,96,-699,-381,267,-743,126,2768,36,49,815,1731,1845,1994,2144,2124,1834,1904,2072
526567,-23528,9024,-24022,8746,-545,-72,-651,-427,323,306,116,3126,58,49,801,1731,1845,1994,2144,2124,1834,1904,2072
527568,-23456,9076,-23957,8811,-253,293,-646,-411,368,1082,0,2853,47,46,815,1755,1883,2042,2182,2107,1820,1870,1987
528569,-23376,9152,-23892,8876,-371,-20,-657,-398,410,340,-436,3116,38,44,815,1755,1883,2042,2182,2107,1820,1870,1987
529570,-23304,9216,-23827,8941,-281,131,-670,-372,434,362,-91,3199,48,40,811,1755,1883,2042,2182,2107,1820,1870,1987
530571,-23252,9288,-23762,9006,-15,22,-693,-344,492,443,-489,3236,52,44,814,1755,1883,2042,2182,2107,1820,1870,1987
531572,-23176,9368,-23697,9071,-328,-96,-725,-297,557,539,-439,3662,50,35,815,1755,1883,2042,2182,2107,1820,1870,1987
532573,-23100,9432,-23632,9136,-342,105,-753,-274,644,441,-421,3548,52,49,816,1823,1930,2072,2220,2027,1767,1856,1993
533574,-23032,9512,-23567,9201,-246,-113,-785,-296,717,549,-556,3796,54,42,815,1823,1930,2072,2220,2027,1767,1856,1993
534575,-22952,9576,-23502,9266,-415,88,-815,-320,781,503,-761,3927,45,51,815,1823,1930,2072,2220,2027,1767,1856,1993
535576,-22900,9660,-23437,9331,-49,-185,-819,-347,831,168,-824,3899,36,50,815,1823,1930,2072,2220,2027,1767,1856,1993
536577,-22832,9720,-23372,9396,-253,120,-801,-367,880,-359,-910,4056,52,42,815,1823,1930,2072,2220,2027,1767,1856,1993
537578,-22756,9816,-23307,9461,-366,-368,-774,-420,926,-505,-862,3750,37,49,814,1823,1930,2072,2220,2027,1767,1856,1993
538579,-22692,9884,-23242,9526,-215,-22,-741,-498,968,-488,-1100,3721,38,51,815,1814,1902,2054,2213,2067,1817,1883,1983
539580,-22620,9956,-23177,9591,-324,-80,-696,-584,1001,-562,-1050,3839,44,38,813,1814,1902,2054,2213,2067,1817,1883,1983
540581,-22564,10024,-23112,9656,-113,-34,-664,-643,1016,-662,-831,4056,57,55,794,1814,1902,2054,2213,2067,1817,1883,1983
541582,-22508,10096,-23047,9721,-102,-92,-619,-711,1031,-136,-713,3707,47,45,801,1814,1902,2054,2213,2067,1817,1883,1983
542583,-22440,10176,-22982,9786,-256,-211,-557,-772,1040,170,-747,3834,38,50,816,1814,1902,2054,2213,2067,1817,1883,1983
543584,-22364,10244,-22917,9851,-371,-65,-497,-826,1030,-36,-597,3622,42,49,808,1796,1888,1984,2227,2161,1892,1959,2102
544585,-22316,10324,-22852,9916,0,-234,-435,-898,1007,-176,-333,3124,33,50,814,1796,1888,1984,2227,2161,1892,1959,2102
545586,-22208,10412,-22787,9981,-802,-362,-381,-938,1019,185,-523,3370,50,40,801,1796,1888,1984,2227,2161,1892,1959,2102
546587,-22152,10468,-22722,10046,-141,49,-344,-873,1073,448,-822,3458,49,51,812,1796,1888,1984,2227,2161,1892,1959,2102
547588,-22088,10556,-22657,10111,-240,-379,-379,-681,1164,398,-855,4080,50,48,810,1796,1888,1984,2227,2161,1892,1959,2102
548589,-21992,10644,-22592,10176,-679,-407,-465,-426,1259,570,-939,4695,41,41,803,1796,1888,1984,2227,2161,1892,1959,2102
549590,-21924,10732,-22527,10241,-333,-436,-567,-187,1350,557,-941,4318,44,41,794,1842,1935,2103,2271,2140,1861,1928,2007
550591,-21880,10820,-22462,10306,-7,-464,-669,11,1447,329,-1022,4565,43,42,812,1842,1935,2103,2271,2140,1861,1928,2007
551592,-21832,10896,-22397,10371,-36,-327,-741,94,1531,154,-940,4032,31,50,812,1842,1935,2103,2271,2140,1861,1928,2007
552593,-21760,10964,-22332,10436,-346,-231,-810,13,1593,-580,-1422,3934,47,51,811,1842,1935,2103,2271,2140,1861,1928,2007
553594,-21688,11036,-22267,10501,-354,-290,-843,-107,1671,-1124,-1770,4370,47,46,813,1842,1935,2103,2271,2140,1861,1928,2007
554595,-21612,11100,-22202,10566,-418,-189,-868,-216,1752,-849,-1581,4342,46,47,814,1858,1937,2103,2287,2138,1888,1872,2067
555596,-21548,11176,-22137,10631,-266,-353,-851,-321,1806,-1024,-1560,4325,31,46,813,1858,1937,2103,2287,2138,1888,1872,2067
556597,-21500,11236,-22072,10696,-46,-147,-848,-397,1835,-1237,-1686,4359,47,35,814,1858,1937,2103,2287,2138,1888,1872,2067
557598,-21436,11320,-22007,10761,-246,-470,-840,-420,1833,-1373,-1604,4489,48,39,811,1858,1937,2103,2287,2138,1888,1872,2067
558599,-21376,11388,-21942,10826,-189,-274,-845,-402,1824,-307,-1439,4777,43,42,815,1858,1937,2103,2287,2138,1888,1872,2067
559600,-21312,11472,-21877,10891,-238,-498,-832,-313,1828,481,-1498,4526,28,36,811,1858,1937,2103,2287,2138,1888,1872,2067
560601,-21252,11524,-21812,10956,-182,-82,-839,-244,1838,450,-1398,4670,46,51,796,1771,1863,2071,2255,2222,1940,1972,2136
561602,-21200,11612,-21747,11021,-67,-560,-844,-160,1818,427,-1462,4547,43,35,808,1771,1863,2071,2255,2222,1940,1972,2136
562603,-21156,11684,-21682,11086,58,-368,-866,-32,1804,539,-1510,4736,43,42,815,1771,1863,2071,2255,2222,1940,1972,2136
563604,-21100,11752,-21617,11151,-81,-323,-890,145,1823,482,-1368,4325,35,44,805,1771,1863,2071,2255,2222,1940,1972,2136
564605,-21056,11832,-21552,11216,95,-491,-935,294,1860,602,-1027,4540,41,46,809,1771,1863,2071,2255,2222,1940,1972,2136
565606,-21012,11888,-21487,11281,121,-180,-995,386,1883,579,-1131,4276,41,32,809,1818,1899,2102,2287,2245,1974,2047,2191
566607,-20948,11952,-21422,11346,-129,-279,-1065,426,1911,-308,-1319,4307,39,47,810,1818,1899,2102,2287,2245,1974,2047,2191
567608,-20880,12008,-21357,11411,-183,-168,-1143,489,1968,-403,-1208,4478,36,35,814,1818,1899,2102,2287,2245,1974,2047,2191
568609,-20816,12068,-21292,11476,-132,-213,-1201,499,2029,134,-1251,4345,30,51,803,1818,1899,2102,2287,2245,1974,2047,2191
569610,-20752,12128,-21227,11541,-130,-207,-1224,503,2064,-167,-1214,4596,34,45,796,1818,1899,2102,2287,2245,1974,2047,2191
570611,-20684,12196,-21162,11606,-184,-311,-1209,477,2087,-127,-988,4480,38,49,803,1818,1899,2102,2287,2245,1974,2047,2191
571612,-20648,12252,-21097,11671,251,-150,-1158,389,2082,564,-1340,4474,32,43,803,1847,1935,2097,2294,2170,1917,1981,2099
572613,-20608,12320,-21032,11736,231,-304,-1117,233,2055,-14,-1814,4348,31,35,794,1847,1935,2097,2294,2170,1917,1981,2099
573614,-20560,12396,-20967,11801,152,-418,-1106,89,2021,35,-1906,4848,28,32,812,1847,1935,2097,2294,2170,1917,1981,2099
574615,-20504,12464,-20902,11866,63,-321,-1096,65,1978,430,-2104,5158,27,44,812,1847,1935,2097,2294,2170,1917,1981,2099
575616,-20436,12524,-20837,11931,-91,-215,-1106,160,1942,466,-2303,5276,43,33,811,1847,1935,2097,2294,2170,1917,1981,2099
576617,-20380,12580,-20772,11996,70,-155,-1110,294,1849,1522,-2148,5896,41,37,812,1800,1958,2124,2299,2156,1888,1961,2101
577618,-20312,12652,-20707,12061,-84,-364,-1088,429,1753,2210,-2316,6104,40,33,809,1800,1958,2124,2299,2156,1888,1961,2101
578619,-20268,12732,-20642,12126,241,-482,-1037,521,1659,2667,-1827,6216,41,31,814,1800,1958,2124,2299,2156,1888,1961,2101
579620,-20220,12792,-20577,12191,212,-226,-1004,474,1608,2544,-2178,5345,39,35,808,1800,1958,2124,2299,2156,1888,1961,2101
580621,-20172,12848,-20512,12256,232,-165,-971,426,1540,1469,-2141,5621,41,44,807,1800,1958,2124,2299,2156,1888,1961,2101
581622,-20104,12900,-20447,12321,-21,-100,-944,407,1436,1108,-2041,5651,26,41,809,1800,1958,2124,2299,2156,1888,1961,2101
582623,-20048,12952,-20382,12386,140,-84,-903,451,1357,1479,-2384,5474,28,38,813,1869,2007,2131,2306,2115,1849,1973,2111
583624,-19992,13012,-20317,12451,151,-178,-892,508,1325,1455,-2307,5562,27,44,815,1869,2007,2131,2306,2115,1849,1973,2111
584625,-19932,13076,-20252,12516,107,-227,-879,479,1288,1521,-1903,5572,31,41,814,1869,2007,2131,2306,2115,1849,1973,2111
585626,-19872,13144,-20187,12581,113,-282,-858,376,1218,1753,-1693,5427,42,32,813,1869,2007,2131,2306,2115,1849,1973,2111
586627,-19824,13200,-20122,12646,283,-121,-784,309,1175,2055,-1943,5081,41,36,813,1869,2007,2131,2306,2115,1849,1973,2111
587628,-19740,13260,-20057,12711,-190,-165,-676,223,1110,1313,-2059,4877,41,37,813,1899,2070,2164,2350,2157,1890,2025,2156
588629,-19688,13320,-19992,12776,225,-159,-585,185,1044,1104,-1990,5447,35,46,813,1899,2070,2164,2350,2157,1890,2025,2156
589630,-19616,13384,-19927,12841,-33,-207,-523,182,972,1664,-1957,4877,30,42,796,1899,2070,2164,2350,2157,1890,2025,2156
590631,-19552,13432,-19862,12906,68,12,-465,141,844,1837,-1820,4872,39,42,813,1899,2070,2164,2350,2157,1890,2025,2156
591632,-19504,13496,-19797,12971,289,-186,-415,135,716,1901,-2194,5368,40,37,814,1899,2070,2164,2350,2157,1890,2025,2156
592633,-19444,13540,-19732,13036,145,89,-346,164,595,2404,-2353,5280,40,42,815,1899,2070,2164,2350,2157,1890,2025,2156
593634,-19376,13592,-19667,13101,41,5,-274,186,470,2418,-2403,5438,32,35,813,1839,1999,2163,2349,2159,1886,2007,2128
594635,-19332,13660,-19602,13166,366,-199,-198,225,346,2325,-2510,5583,40,41,814,1839,1999,2163,2349,2159,1886,2007,2128
595636,-19280,13716,-19537,13231,282,-39,-126,220,222,1700,-2482,5143,30,40,816,1839,1999,2163,2349,2159,1886,2007,2128
596637,-19212,13772,-19472,13296,78,-28,-68,184,104,1814,-2387,5344,31,30,812,1839,1999,2163,2349,2159,1886,2007,2128
597638,-19156,13824,-19407,13361,239,38,-36,94,-3,1684,-2363,4584,39,42,812,1839,1999,2163,2349,2159,1886,2007,2128
598639,-19096,13872,-19342,13426,195,109,-6,26,-101,1676,-2253,4992,37,29,813,1861,2011,2118,2303,2095,1843,1947,2055
599640,-19048,13916,-19277,13491,366,185,43,60,-205,1838,-2383,5312,41,30,814,1861,2011,2118,2303,2095,1843,1947,2055
600641,-18992,13972,-19212,13556,277,46,92,103,-261,1792,-2580,5116,23,31,814,1861,2011,2118,2303,2095,1843,1947,2055
601642,-18916,14028,-19147,13621,14,56,137,145,-289,1544,-2461,4973,27,41,812,1861,2011,2118,2303,2095,1843,1947,2055
602645,-18876,14092,-19082,13686,494,-43,175,168,-317,924,-2171,5109,39,31,814,1861,2011,2118,2303,2095,1843,1947,2055
603644,-18824,14148,-19017,13751,360,68,204,173,-345,963,-2083,4696,27,31,815,1861,2011,2118,2303,2095,1843,1947,2055
604645,-18760,14204,-18952,13816,211,79,211,160,-366,1048,-2032,4459,32,39,812,1811,1954,2082,2264,2066,1818,1926,2044
605646,-18700,14256,-18887,13881,266,145,209,145,-385,690,-1931,4103,34,44,813,1811,1954,2082,2264,2066,1818,1926,2044
606647,-18628,14316,-18822,13946,108,51,204,175,-415,813,-1818,4361,35,41,814,1811,1954,2082,2264,2066,1818,1926,2044
607648,-18592,14380,-18757,14011,593,1,204,216,-454,1006,-1946,4170,39,44,813,1811,1954,2082,2264,2066,1818,1926,2044
608649,-18540,14436,-18692,14076,409,112,201,236,-481,767,-2000,4064,39,44,815,1811,1954,2082,2264,2066,1818,1926,2044
609650,-18476,14504,-18627,14141,260,-42,230,219,-519,1214,-1828,3745,40,46,811,1803,1943,2070,2246,2123,1862,1958,2099
610651,-18416,14556,-18562,14206,316,174,288,222,-585,988,-1894,3651,33,29,812,1803,1943,2070,2246,2123,1862,1958,2099
611652,-18368,14620,-18497,14271,487,25,353,247,-655,580,-1776,3796,39,43,814,1803,1943,2070,2246,2123,1862,1958,2099
612653,-18292,14672,-18432,14336,124,191,420,310,-724,749,-1673,3854,31,35,813,1803,1943,2070,2246,2123,1862,1958,2099
613654,-18232,14720,-18367,14401,330,262,491,333,-768,770,-1766,3652,38,39,812,1803,1943,2070,2246,2123,1862,1958,2099
614655,-18172,14760,-18302,14466,336,393,547,359,-816,708,-1679,3781,31,32,811,1803,1943,2070,2246,2123,1862,1958,2099
615656,-18104,14808,-18237,14531,232,312,598,390,-859,779,-1627,3573,47,34,809,1782,1900,2046,2208,2158,1872,1943,2080
616657,-18064,14848,-18172,14596,613,443,648,415,-891,840,-1573,3648,35,33,811,1782,1900,2046,2208,2158,1872,1943,2080
617658,-17996,14900,-18107,14661,259,309,682,442,-933,690,-1374,3874,47,43,812,1782,1900,2046,2208,2158,1872,1943,2080
618659,-17908,14928,-18042,14726,-19,654,708,494,-955,435,-1190,3729,49,34,807,1782,1900,2046,2208,2158,1872,1943,2080
619660,-17852,14960,-17977,14791,392,644,719,524,-946,269,-1040,3575,50,46,812,1782,1900,2046,2208,2158,1872,1943,2080
620661,-17784,14992,-17912,14856,238,684,730,544,-937,-22,-891,3497,49,41,810,1785,1883,2039,2211,2047,1803,1878,1984
621662,-17724,15060,-17847,14921,344,231,751,548,-915,-195,-961,3857,52,40,807,1785,1883,2039,2211,2047,1803,1878,1984
622663,-17648,15140,-17782,14986,130,63,766,539,-849,-19,-927,3377,37,42,808,1785,1883,2039,2211,2047,1803,1878,1984
623664,-17564,15208,-17717,15051,7,209,741,554,-774,-453,-643,3353,47,57,812,1785,1883,2039,2211,2047,1803,1878,1984
624665,-17504,15276,-17652,15116,313,205,689,569,-710,-799,-575,2895,32,54,814,1785,1883,2039,2211,2047,1803,1878,1984
625666,-17428,15348,-17587,15181,99,147,645,548,-643,-841,-725,2677,32,53,814,1785,1883,2039,2211,2047,1803,1878,1984
626667,-17364,15444,-17522,15246,251,-191,613,523,-562,-865,-731,2641,34,42,813,1809,1901,2061,2264,1996,1767,1843,1951
627668,-17304,15504,-17457,15311,307,265,597,503,-476,-842,-900,2514,38,49,815,1809,1901,2061,2264,1996,1767,1843,1951
628669,-17224,15588,-17392,15376,38,-59,614,465,-424,-989,-891,2675,51,50,813,1809,1901,2061,2264,1996,1767,1843,1951
629670,-17152,15656,-17327,15441,130,137,655,443,-408,-475,-945,3162,45,53,812,1809,1901,2061,2264,1996,1767,1843,1951
630671,-17088,15744,-17262,15506,231,-141,717,504,-418,741,-900,3342,44,52,815,1809,1901,2061,2264,1996,1767,1843,1951
631672,-17016,15804,-17197,15571,123,215,784,578,-417,751,-1054,3309,38,39,812,1831,1894,2077,2264,2047,1807,1866,2007
632673,-16976,15872,-17132,15636,553,111,832,611,-433,453,-842,3679,46,37,810,1831,1894,2077,2264,2047,1807,1866,2007
633674,-16896,15944,-17067,15701,35,53,885,612,-460,-25,-698,3298,47,51,814,1831,1894,2077,2264,2047,1807,1866,2007
634675,-16820,16016,-17002,15766,71,44,935,586,-484,-51,-603,3317,35,45,811,1831,1894,2077,2264,2047,1807,1866,2007
635676,-16748,16100,-16937,15831,113,-129,984,534,-507,520,-592,3069,42,42,816,1831,1894,2077,2264,2047,1807,1866,2007
636677,-16692,16160,-16872,15896,324,177,1020,478,-505,212,-389,3154,41,42,815,1831,1894,2077,2264,2047,1807,1866,2007
637678,-16616,16224,-16807,15961,60,128,1038,425,-495,-103,-234,2909,45,35,814,1832,1894,2092,2279,2084,1836,1888,2014
638679,-16568,16296,-16742,16026,430,19,1036,400,-493,-276,104,2785,47,45,813,1832,1894,2092,2279,2084,1836,1888,2014
639680,-16504,16352,-16677,16091,231,230,1009,388,-454,-291,31,2725,45,39,815,1832,1894,2092,2279,2084,1836,1888,2014
640681,-16432,16408,-16612,16156,123,241,973,367,-391,-249,127,2778,30,34,813,1832,1894,2092,2279,2084,1836,1888,2014
641682,-16384,16468,-16547,16221,444,197,925,336,-309,-677,190,2625,44,40,813,1832,1894,2092,2279,2084,1836,1888,2014
642683,-16304,16528,-16482,16286,25,203,883,328,-223,-606,176,2887,43,34,814,1874,1954,2133,2336,2056,1810,1883,2017
643684,-16236,16592,-16417,16351,172,154,846,307,-124,-344,78,2977,45,36,811,1874,1954,2133,2336,2056,1810,1883,2017
644685,-16172,16656,-16352,16416,223,156,850,324,-25,-476,24,3523,41,48,815,1874,1954,2133,2336,2056,1810,1883,2017
645686,-16112,16704,-16287,16481,279,376,856,354,60,-372,-30,3769,30,35,814,1874,1954,2133,2336,2056,1810,1883,2017
646687,-16068,16776,-16222,16546,505,68,875,356,134,-157,-151,3793,30,45,814,1874,1954,2133,2336,2056,1810,1883,2017
647688,-15992,16848,-16157,16611,91,59,885,360,210,-427,-284,3900,29,47,811,1874,1954,2133,2336,2056,1810,1883,2017
648689,-15944,16916,-16092,16676,462,106,917,355,263,-110,-247,4044,36,37,809,1850,1933,2111,2280,2084,1830,1889,2040
649690,-15896,16968,-16027,16741,483,320,943,338,286,65,-201,4032,45,31,812,1850,1933,2111,2280,2084,1830,1889,2040
650691,-15828,17056,-15962,16806,229,-158,988,339,285,55,-78,4405,46,37,812,1850,1933,2111,2280,2084,1830,1889,2040
651692,-15760,17084,-15897,16871,225,637,1021,332,281,241,-120,4075,42,32,810,1850,1933,2111,2280,2084,1830,1889,2040
652693,-15704,17168,-15832,16936,386,-86,1049,275,257,165,27,4086,35,34,813,1850,1933,2111,2280,2084,1830,1889,2040
653694,-15644,17236,-15767,17001,341,111,1059,235,224,60,121,3966,46,34,808,1810,1897,2097,2247,2133,1870,1912,2074
654695,-15580,17268,-15702,17066,293,601,1050,181,192,379,326,3766,47,42,812,1810,1897,2097,2247,2133,1870,1912,2074
655696,-15520,17348,-15637,17131,349,-17,1023,137,156,515,507,3690,32,40,813,1810,1897,2097,2247,2133,1870,1912,2074
656697,-15456,17404,-15572,17196,300,294,990,101,133,423,550,3713,44,30,808,1810,1897,2097,2247,2133,1870,1912,2074
657698,-15420,17456,-15507,17261,685,359,939,99,129,561,589,3667,35,44,813,1810,1897,2097,2247,2133,1870,1912,2074
658699,-15348,17524,-15442,17326,227,156,882,100,133,468,860,3575,35,45,812,1810,1897,2097,2247,2133,1870,1912,2074
659700,-15296,17576,-15377,17391,493,372,821,90,146,393,1031,3935,43,44,807,1859,1937,2151,2335,2169,1911,1959,2115
660701,-15228,17648,-15312,17456,289,113,768,108,184,285,867,3702,46,44,814,1859,1937,2151,2335,2169,1911,1959,2115
661702,-15180,17696,-15247,17521,560,433,714,141,244,363,713,3882,49,37,809,1859,1937,2151,2335,2169,1911,1959,2115
662703,-15112,17748,-15182,17586,306,399,678,178,306,392,612,4166,47,42,813,1859,1937,2151,2335,2169,1911,1959,2115
663704,-15048,17820,-15117,17651,357,140,645,180,384,55,491,3979,40,32,808,1859,1937,2151,2335,2169,1911,1959,2115
664705,-15000,17860,-15052,17716,578,571,623,153,460,-132,464,4120,48,34,811,1883,1967,2172,2338,2213,1946,1978,2150
665706,-14928,17920,-14987,17781,269,327,609,104,519,-305,517,4150,42,44,809,1883,1967,2172,2338,2213,1946,1978,2150
666707,-14872,17980,-14922,17846,480,333,610,90,558,-407,594,4316,37,39,803,1883,1967,2172,2338,2213,1946,1978,2150
667708,-14804,18020,-14857,17911,327,613,612,72,587,-152,508,4271,40,30,811,1883,1967,2172,2338,2213,1946,1978,2150
668709,-14744,18092,-14792,17976,433,205,611,44,600,-160,496,4442,42,31,810,1883,1967,2172,2338,2213,1946,1978,2150
669710,-14680,18140,-14727,18041,384,526,609,33,589,-25,574,4379,46,36,807,1883,1967,2172,2338,2213,1946,1978,2150
670711,-14600,18216,-14662,18106,166,162,599,54,555,340,748,4803,36,44,811,1808,1904,2140,2288,2219,1938,1955,2127
671712,-14544,18272,-14597,18171,477,423,582,59,515,62,701,4365,39,45,809,1808,1904,2140,2288,2219,1938,1955,2127
672713,-14468,18348,-14532,18236,213,160,548,61,463,236,841,4395,33,31,814,1808,1904,2140,2288,2219,1938,1955,2127
673714,-14420,18396,-14467,18301,584,531,495,95,421,313,847,4558,48,39,809,1808,1904,2140,2288,2219,1938,1955,2127
674715,-14344,18456,-14402,18366,221,387,440,134,370,487,1048,4437,48,46,813,1808,1904,2140,2288,2219,1938,1955,2127
675716,-14272,18520,-14337,18431,262,338,391,188,323,712,943,4478,38,44,807,1807,1899,2122,2268,2184,1914,1944,2096
676717,-14188,18592,-14272,18496,89,229,336,226,279,827,999,4218,45,42,812,1807,1899,2122,2268,2184,1914,1944,2096
677718,-14148,18656,-14207,18561,669,331,280,230,243,500,1177,4175,35,32,811,1807,1899,2122,2268,2184,1914,1944,2096
678719,-14084,18708,-14142,18626,371,496,236,247,221,433,1113,4159,35,48,813,1807,1899,2122,2268,2184,1914,1944,2096
679720,-14012,18776,-14077,18691,262,293,195,263,224,699,1081,4224,42,47,808,1807,1899,2122,2268,2184,1914,1944,2096
680721,-13960,18840,-14012,18756,528,344,165,242,235,688,986,3980,43,32,809,1807,1899,2122,2268,2184,1914,1944,2096
681722,-13908,18908,-13947,18821,544,290,133,238,270,-90,859,3920,47,36,812,1829,1919,2141,2308,2176,1920,1928,2089
682723,-13844,18964,-13882,18886,395,450,101,222,302,-46,1004,4204,42,43,806,1829,1919,2141,2308,2176,1920,1928,2089
683724,-13772,19040,-13817,18951,287,187,89,231,342,257,787,4061,53,39,806,1829,1919,2141,2308,2176,1920,1928,2089
684725,-13704,19104,-13752,19016,333,338,86,186,376,232,833,3805,38,38,809,1829,1919,2141,2308,2176,1920,1928,2089
685726,-13656,19156,-13687,19081,604,504,94,160,405,-11,723,3921,32,29,813,1829,1919,2141,2308,2176,1920,1928,2089
686727,-13596,19224,-13622,19146,460,300,89,92,426,-69,855,3732,36,47,811,1855,1951,2187,2359,2223,1952,1972,2143
687728,-13532,19288,-13557,19211,411,352,86,81,418,231,1061,3895,48,40,807,1855,1951,2187,2359,2223,1952,1972,2143
688729,-13456,19344,-13492,19276,248,462,74,74,401,407,1035,3762,34,39,810,1855,1951,2187,2359,2223,1952,1972,2143
689730,-13412,19432,-13427,19341,672,34,62,119,366,410,989,3943,48,46,810,1855,1951,2187,2359,2223,1952,1972,2143
690731,-13344,19488,-13362,19406,369,445,43,137,321,652,1127,3838,44,34,810,1855,1951,2187,2359,2223,1952,1972,2143
691732,-13288,19552,-13297,19471,530,347,34,179,271,754,1215,4127,41,34,810,1855,1951,2187,2359,2223,1952,1972,2143
692733,-13224,19624,-13232,19536,431,238,15,199,215,602,1264,4117,46,38,810,1852,1948,2162,2320,2156,1889,1922,2074
693734,-13176,19672,-13167,19601,651,559,6,244,139,769,1374,4156,50,30,809,1852,1948,2162,2320,2156,1889,1922,2074
694735,-13112,19744,-13102,19666,453,250,-13,264,96,345,981,3885,49,32,811,1852,1948,2162,2320,2156,1889,1922,2074
695736,-13064,19808,-13037,19731,673,352,-18,275,53,301,1065,4048,50,31,805,1852,1948,2162,2320,2156,1889,1922,2074
696737,-12984,19864,-12972,19796,255,462,-24,275,19,412,1148,4030,41,41,810,1852,1948,2162,2320,2156,1889,1922,2074
697738,-12924,19928,-12907,19861,511,364,-36,269,-10,584,1189,3947,53,41,808,1842,1931,2135,2283,2081,1842,1887,2031
698739,-12852,19968,-12842,19926,353,694,-30,250,-25,464,1198,4061,35,31,810,1842,1931,2135,2283,2081,1842,1887,2031
699740,-12800,20036,-12777,19991,619,341,-27,215,-26,219,1129,3970,48,38,807,1842,1931,2135,2283,2081,1842,1887,2031
700741,-12728,20072,-12578,20190,524,940,-20,218,-30,288,1103,4104,35,32,804,1842,1931,2135,2283,2081,1842,1887,2031
701742,-12652,20132,-12513,20255,461,646,-4,236,-19,534,1122,4023,52,37,808,1842,1931,2135,2283,2081,1842,1887,2031
702743,-12600,20188,-12448,20320,777,707,6,257,-9,584,1132,4079,36,32,801,1842,1931,2135,2283,2081,1842,1887,2031
703744,-12540,20256,-12383,20385,683,553,6,266,8,507,953,3775,46,44,806,1836,1926,2126,2299,2082,1847,1869,2012
704745,-12464,20296,-12318,20450,470,933,25,283,25,644,1027,3884,55,46,802,1836,1926,2126,2299,2082,1847,1869,2012
705746,-12396,20360,-12253,20515,566,635,37,298,46,641,933,3748,53,33,805,1836,1926,2126,2299,2082,1847,1869,2012
706747,-12328,20440,-12188,20580,562,416,54,304,55,698,960,3629,39,36,802,1836,1926,2126,2299,2082,1847,1869,2012
707748,-12252,20520,-12123,20645,449,398,62,304,49,591,903,3514,46,35,805,1836,1926,2126,2299,2082,1847,1869,2012
708749,-12188,20560,-12058,20710,600,929,67,274,49,352,817,3364,53,44,808,1845,1945,2162,2342,2099,1870,1906,2056
709750,-12128,20632,-11993,20775,656,520,76,255,13,471,999,3390,39,36,809,1845,1945,2162,2342,2099,1870,1906,2056
710751,-12052,20696,-11928,20840,443,621,74,223,-13,399,808,3299,48,40,801,1845,1945,2162,2342,2099,1870,1906,2056
711752,-11976,20760,-11863,20905,429,623,66,193,-52,533,986,3152,38,50,806,1845,1945,2162,2342,2099,1870,1906,2056
712753,-11916,20840,-11798,20970,636,405,58,186,-97,676,989,3531,41,50,807,1845,1945,2162,2342,2099,1870,1906,2056
713754,-11848,20904,-11733,21035,532,606,18,181,-136,779,756,3404,53,51,806,1845,1945,2162,2342,2099,1870,1906,2056
714755,-11776,20980,-11668,21100,473,443,-20,170,-161,902,730,3377,53,42,808,1863,1919,2165,2347,2101,1857,1891,2031
715756,-11708,21068,-11603,21165,520,265,-40,162,-187,786,824,3683,40,35,806,1863,1919,2165,2347,2101,1857,1891,2031
716757,-11652,21152,-11538,21230,681,292,-31,168,-213,657,639,3866,52,35,806,1863,1919,2165,2347,2101,1857,1891,2031
717758,-11580,21232,-11473,21295,472,323,-5,232,-234,780,653,4306,42,48,807,1863,1919,2165,2347,2101,1857,1891,2031
718759,-11512,21292,-11408,21360,518,580,23,306,-229,756,483,4426,43,33,808,1863,1919,2165,2347,2101,1857,1891,2031
719760,-11456,21364,-11343,21425,679,421,57,373,-211,697,270,4416,50,42,810,1801,1896,2083,2244,2088,1824,1872,2033
720761,-11404,21440,-11278,21490,745,358,84,404,-200,534,439,4405,35,44,806,1801,1896,2083,2244,2088,1824,1872,2033
721762,-11328,21488,-11213,21555,432,728,98,370,-186,179,417,4076,54,41,806,1801,1896,2083,2244,2088,1824,1872,2033
722763,-11260,21556,-11148,21620,528,475,108,347,-171,67,469,4223,50,38,806,1801,1896,2083,2244,2088,1824,1872,2033
723764,-11188,21620,-11083,21685,471,526,111,307,-155,173,467,3939,42,32,805,1801,1896,2083,2244,2088,1824,1872,2033
724765,-11116,21676,-11018,21750,462,637,110,280,-142,318,484,3891,36,43,807,1801,1896,2083,2244,2088,1824,1872,2033
725766,-11048,21740,-10953,21815,508,538,111,260,-123,240,471,3651,41,35,807,1834,1936,2128,2308,2164,1902,1968,2120
726767,-10972,21784,-10888,21880,395,814,86,232,-102,131,504,3694,34,36,805,1834,1936,2128,2308,2164,1902,1968,2120
727768,-10892,21848,-10823,21945,327,565,75,236,-104,314,506,3607,46,42,807,1834,1936,2128,2308,2164,1902,1968,2120
728769,-10828,21912,-10758,22010,528,566,53,220,-107,521,494,3443,40,45,804,1834,1936,2128,2308,2164,1902,1968,2120
729770,-10772,21972,-10693,22075,639,622,40,225,-117,659,453,3615,33,46,808,1834,1936,2128,2308,2164,1902,1968,2120
730771,-10696,22044,-10628,22140,376,464,18,214,-120,663,336,3479,36,43,806,1857,1952,2157,2345,2141,1901,1948,2087
731772,-10636,22116,-10563,22205,582,455,9,208,-133,653,329,3539,41,42,804,1857,1952,2157,2345,2141,1901,1948,2087
732773,-10576,22160,-10498,22270,588,831,-2,195,-139,549,286,3760,32,43,809,1857,1952,2157,2345,2141,1901,1948,2087
733774,-10520,22232,-10433,22335,649,472,-11,191,-149,558,165,3739,46,42,804,1857,1952,2157,2345,2141,1901,1948,2087
734775,-10464,22264,-10368,22400,660,1013,-18,188,-158,551,85,3952,41,30,799,1857,1952,2157,2345,2141,1901,1948,2087
735776,-10392,22328,-10303,22465,451,614,-20,174,-167,554,30,4007,46,39,805,1857,1952,2157,2345,2141,1901,1948,2087
736777,-10344,22396,-10238,22530,772,560,-15,153,-175,568,-4,4111,37,41,799,1897,1973,2178,2357,2122,1870,1920,2065
737778,-10288,22464,-10173,22595,683,556,-4,136,-173,388,-133,4118,37,29,806,1897,1973,2178,2357,2122,1870,1920,2065
738779,-10240,22528,-10108,22660,804,608,14,127,-156,278,-6,4356,39,30,804,1897,1973,2178,2357,2122,1870,1920,2065
739780,-10180,22592,-10043,22725,660,609,20,109,-137,33,16,4371,47,32,805,1897,1973,2178,2357,2122,1870,1920,2065
740781,-10116,22656,-9978,22790,611,610,23,120,-128,-24,40,4372,38,33,802,1897,1973,2178,2357,2122,1870,1920,2065
741782,-10052,22704,-9913,22855,612,832,25,119,-114,165,78,4450,41,30,804,1844,1920,2117,2288,2102,1846,1892,2037
742783,-10004,22760,-9848,22920,833,743,22,97,-83,105,118,4367,46,40,804,1844,1920,2117,2288,2102,1846,1892,2037
743784,-9952,22808,-9783,22985,799,864,20,107,-66,-73,168,4513,29,29,802,1844,1920,2117,2288,2102,1846,1892,2037
744785,-9888,22864,-9718,23050,650,775,23,101,-43,-17,228,4193,33,28,800,1844,1920,2117,2288,2102,1846,1892,2037
745786,-9836,22920,-9653,23115,816,786,29,89,-15,16,274,4295,46,32,798,1844,1920,2117,2288,2102,1846,1892,2037
746787,-9788,22980,-9588,23180,887,742,26,71,12,-105,285,4243,44,42,802,1828,1918,2103,2288,2102,1846,1892,2037
747788,-9736,23028,-9523,23245,853,912,18,74,23,166,376,4162,42,39,800,1828,1918,2103,2283,2081,1835,1904,2048
748789,-9680,23088,-9458,23310,814,768,20,78,30,238,312,4065,50,34,799,1828,1918,2103,2283,2081,1835,1904,2048
749790,-9612,23152,-9393,23375,661,720,22,74,40,280,297,4004,50,32,798,1828,1918,2103,2283,2081,1835,1904,2048
750791,-9564,23216,-9328,23440,932,721,39,76,46,260,173,4025,49,46,798,1828,1918,2103,2283,2081,1835,1904,2048
751792,-9508,23272,-9263,23505,843,832,63,84,54,342,159,3900,48,42,800,1828,1918,2103,2283,2081,1835,1904,2048
752793,-9456,23336,-9198,23570,908,733,108,90,60,338,130,3892,39,37,799,1860,1940,2140,2335,2117,1876,1926,2061
753794,-9396,23380,-9133,23635,815,1009,137,72,72,292,86,3912,50,40,799,1860,1940,2140,2335,2117,1876,1926,2061
754795,-9336,23472,-9068,23700,821,377,169,51,88,350,-5,3961,41,32,799,1860,1940,2140,2335,2117,1876,1926,2061
755796,-9288,23528,-9003,23765,991,838,195,44,96,287,120,3942,49,37,796,1860,1940,2140,2335,2117,1876,1926,2061
756797,-9224,23580,-8938,23830,793,904,216,27,99,166,53,4003,48,39,804,1860,1940,2140,2335,2117,1876,1926,2061
757798,-9172,23668,-8873,23895,958,426,236,1,114,119,55,4008,44,36,797,1856,1936,2144,2336,2082,1840,1872,1992
758799,-9124,23712,-8808,23960,1030,1001,247,-7,125,294,142,4113,49,36,798,1856,1936,2144,2336,2082,1840,1872,1992
759800,-9068,23792,-8743,24025,941,533,254,30,138,354,-13,4002,32,44,802,1856,1936,2144,2336,2082,1840,1872,1992
760801,-9004,23848,-8678,24090,842,844,249,61,153,374,224,4074,38,48,794,1856,1936,2144,2336,2082,1840,1872,1992
761802,-8944,23908,-8613,24155,899,800,240,49,187,146,145,3957,31,33,801,1856,1936,2144,2336,2082,1840,1872,1992
762803,-8908,23972,-8548,24220,1234,751,242,50,216,103,174,4328,49,36,799,1856,1936,2144,2336,2082,1840,1872,1992
763804,-8848,24036,-8483,24285,940,752,248,55,253,-114,285,4237,45,50,798,1923,2019,2232,2401,2092,1879,1919,2047
764805,-8796,24112,-8418,24350,1056,589,254,65,272,-4,279,4166,52,37,795,1923,2019,2232,2401,2092,1879,1919,2047
765806,-8744,24164,-8353,24415,1072,906,265,67,292,138,306,4234,38,46,798,1923,2019,2232,2401,2092,1879,1919,2047
766807,-8684,24228,-8288,24480,979,757,283,68,328,44,336,4156,34,34,799,1923,2019,2232,2401,2092,1879,1919,2047
767808,-8628,24296,-8223,24545,1040,703,297,76,348,-29,482,4245,38,40,791,1923,2019,2232,2401,2092,1879,1919,2047
768809,-8564,24344,-8158,24610,941,974,326,94,367,70,441,3996,52,47,796,1871,1947,2143,2335,2061,1823,1887,2023
769810,-8520,24400,-8093,24675,1217,885,361,92,395,65,494,4066,42,36,798,1871,1947,2143,2335,2061,1823,1887,2023
770811,-8452,24472,-8028,24740,913,677,402,108,405,152,464,3930,36,48,795,1871,1947,2143,2335,2061,1823,1887,2023
771812,-8380,24548,-7963,24805,855,613,438,142,410,445,494,3945,42,35,793,1871,1947,2143,2335,2061,1823,1887,2023
772813,-8336,24592,-7898,24870,1230,1039,471,158,406,542,552,3691,38,39,799,1871,1947,2143,2335,2061,1823,1887,2023
773814,-8276,24644,-7833,24935,1037,955,504,135,407,225,415,3740,46,42,801,1871,1947,2143,2335,2061,1823,1887,2023
774815,-8240,24708,-7768,25000,1373,806,547,125,407,239,354,3781,47,35,791,1841,1916,2115,2315,2104,1864,1916,2031
775816,-8152,24772,-7703,25065,695,808,580,132,406,455,489,3623,39,49,795,1841,1916,2115,2315,2104,1864,1916,2031
776817,-8120,24824,-7638,25130,1435,974,593,155,395,543,486,3580,42,35,792,1841,1916,2115,2315,2104,1864,1916,2031
777818,-8040,24884,-7573,25195,817,880,599,172,395,487,404,3525,46,48,800,1841,1916,2115,2315,2104,1864,1916,2031
778819,-7992,24928,-7508,25260,1238,1106,609,191,410,263,424,3590,42,46,789,1841,1916,2115,2315,2104,1864,1916,2031
779820,-7952,24988,-7443,25325,1369,912,614,198,420,179,573,3659,42,46,798,1844,1924,2141,2336,2068,1811,1866,2005
780821,-7892,25052,-7378,25390,1125,863,619,184,429,216,465,3705,41,37,789,1844,1924,2141,2336,2068,1811,1866,2005
781822,-7840,25120,-7313,25455,1241,809,619,150,457,268,420,3641,57,40,790,1844,1924,2141,2336,2068,1811,1866,2005
782823,-7784,25168,-7248,25520,1202,1080,615,130,477,208,687,3934,49,46,794,1844,1924,2141,2336,2068,1811,1866,2005
783824,-7712,25236,-7183,25585,993,827,607,118,484,125,428,3750,39,49,794,1844,1924,2141,2336,2068,1811,1866,2005
784825,-7668,25300,-7118,25650,1370,879,595,134,483,170,368,4020,42,41,787,1844,1924,2141,2336,2068,1811,1866,2005
785826,-7596,25368,-7053,25715,1011,825,589,137,494,319,458,3876,49,42,790,1816,1902,2097,2275,2020,1789,1824,1952
786827,-7544,25444,-6988,25780,1277,712,591,114,518,154,416,3962,44,40,796,1816,1902,2097,2275,2020,1789,1824,1952
787828,-7496,25508,-6923,25845,1348,863,602,100,534,275,530,4042,34,35,793,1816,1902,2097,2275,2020,1789,1824,1952
788829,-7436,25576,-6858,25910,1205,809,615,97,540,238,572,4055,36,49,791,1816,1902,2097,2275,2020,1789,1824,1952
789830,-7384,25640,-6793,25975,1321,860,630,110,549,292,571,4024,47,42,794,1816,1902,2097,2275,2020,1789,1824,1952
790831,-7328,25692,-6728,26040,1282,1026,654,138,559,417,552,3938,55,46,791,1790,1887,2089,2252,2040,1800,1847,1999
791832,-7272,25756,-6663,26105,1293,878,672,154,566,340,542,4026,40,47,790,1790,1887,2089,2252,2040,1800,1847,1999
792833,-7220,25816,-6598,26170,1359,935,698,176,545,336,421,4177,59,40,791,1790,1887,2089,2252,2040,1800,1847,1999
793834,-7168,25892,-6533,26235,1376,721,709,187,499,1067,366,3983,39,49,790,1790,1887,2089,2252,2040,1800,1847,1999
794835,-7092,25952,-6468,26300,1062,927,699,148,479,999,664,3403,58,41,792,1790,1887,2089,2252,2040,1800,1847,1999
795836,-7060,26016,-6403,26365,1653,879,693,83,452,328,797,3500,41,42,794,1790,1887,2089,2252,2040,1800,1847,1999
796837,-6988,26072,-6338,26430,1144,990,674,49,428,-25,699,3601,38,53,786,1792,1888,2096,2272,2080,1832,1904,2048
797838,-6932,26120,-6273,26495,1356,1110,671,50,426,399,729,3851,52,42,792,1792,1888,2096,2272,2080,1832,1904,2048
798839,-6860,26204,-6208,26560,1147,637,673,84,423,701,630,3692,46,46,788,1792,1888,2096,2272,2080,1832,1904,2048
799840,-6812,26280,-6143,26625,1468,725,676,100,428,511,612,3831,55,55,797,1792,1888,2096,2272,2080,1832,1904,2048
800841,-6760,26340,-6078,26690,1434,931,666,109,451,158,495,3749,40,37,789,1792,1888,2096,2272,2080,1832,1904,2048
801842,-6712,26404,-6013,26755,1506,882,648,104,466,176,618,3953,44,44,786,1912,2015,2223,2383,2187,1896,1952,2100
802843,-6644,26472,-5948,26820,1252,828,639,110,467,185,538,3954,44,47,789,1912,2015,2223,2383,2187,1896,1952,2100
803844,-6592,26540,-5883,26885,1468,825,628,98,475,228,367,3852,53,58,792,1912,2015,2223,2383,2187,1896,1952,2100
804845,-6516,26616,-5818,26950,1155,711,627,94,472,243,496,4192,50,58,789,1912,2015,2223,2383,2187,1896,1952,2100
805846,-6476,26668,-5753,27015,1636,1027,614,69,479,102,303,4061,38,54,795,1912,2015,2223,2383,2187,1896,1952,2100
806847,-6424,26748,-5688,27080,1502,659,616,59,484,417,444,4361,33,56,785,1912,2015,2223,2383,2187,1896,1952,2100
807848,-6368,26808,-5623,27145,1463,916,606,49,487,312,465,4255,55,61,790,1855,1943,2174,2335,2143,1895,1943,2095
808849,-6308,26892,-5558,27210,1420,593,611,59,482,235,510,4380,53,43,788,1855,1943,2174,2335,2143,1895,1943,2095
809850,-6268,26952,-5493,27275,1701,899,603,53,478,315,487,4256,45,57,793,1855,1943,2174,2335,2143,1895,1943,2095
810851,-6216,27020,-5428,27340,1566,795,600,56,456,440,574,4255,35,59,785,1855,1943,2174,2335,2143,1895,1943,2095
811852,-6168,27112,-5363,27405,1637,462,583,62,444,406,531,4226,40,58,788,1855,1943,2174,2335,2143,1895,1943,2095
812853,-6104,27188,-5298,27470,1439,649,562,66,427,554,655,4241,38,50,791,1810,1893,2101,2290,2099,1843,1883,2035
813854,-6064,27264,-5233,27535,1770,635,540,73,413,434,620,4157,41,45,792,1810,1893,2101,2290,2099,1843,1883,2035
814855,-6004,27340,-5168,27600,1526,622,513,65,394,450,735,4116,47,41,786,1810,1893,2101,2290,2099,1843,1883,2035
815856,-5952,27420,-5103,27665,1643,554,492,64,374,333,796,4143,39,51,790,1810,1893,2101,2290,2099,1843,1883,2035
816857,-5908,27492,-5038,27730,1769,646,476,78,353,407,910,4166,38,40,790,1810,1893,2101,2290,2099,1843,1883,2035
817858,-5848,27548,-4973,27795,1575,857,460,76,340,343,809,4032,51,40,785,1810,1893,2101,2290,2099,1843,1883,2035
818859,-5780,27624,-4908,27860,1472,594,445,92,333,343,755,4128,44,45,785,1831,1916,2114,2288,2120,1880,1913,2066
819860,-5716,27692,-4843,27925,1523,690,436,117,334,328,716,4077,47,53,792,1831,1916,2114,2288,2120,1880,1913,2066
820861,-5668,27768,-4778,27990,1744,576,425,134,317,257,687,4228,54,41,789,1831,1916,2114,2288,2120,1880,1913,2066
821862,-5612,27832,-4713,28055,1656,728,433,149,311,85,593,4032,36,44,788,1831,1916,2114,2288,2120,1880,1913,2066
822863,-5556,27888,-4648,28120,1667,839,430,137,313,193,653,4152,46,46,787,1831,1916,2114,2288,2120,1880,1913,2066
823864,-5496,27956,-4583,28185,1623,685,427,122,306,-70,588,4131,42,49,786,1808,1924,2129,2287,2123,1875,1912,2047
824865,-5440,28012,-4518,28250,1685,846,421,110,300,-17,589,4075,53,41,788,1808,1924,2129,2287,2123,1875,1912,2047
825866,-5376,28068,-4453,28315,1586,857,417,106,302,115,644,4150,53,46,785,1808,1924,2129,2287,2123,1875,1912,2047
826867,-5336,28136,-4388,28380,1917,703,406,100,300,129,702,4255,51,42,786,1808,1924,2129,2287,2123,1875,1912,2047
827869,-5280,28192,-4323,28445,1729,864,395,103,283,125,702,4189,55,55,784,1808,1924,2129,2287,2123,1875,1912,2047
828869,-5220,28252,-4258,28510,1685,821,372,111,275,171,755,4181,52,41,784,1808,1924,2129,2287,2123,1875,1912,2047
829870,-5160,28324,-4193,28575,1691,663,354,122,262,254,799,4314,44,56,785,1794,1890,2087,2239,2064,1832,1855,1984
830871,-5108,28376,-4128,28640,1808,929,329,136,241,284,791,4197,53,51,787,1794,1890,2087,2239,2064,1832,1855,1984
831872,-5048,28436,-4063,28705,1714,835,307,152,231,244,799,4196,50,42,782,1794,1890,2087,2239,2064,1832,1855,1984
832873,-5004,28500,-3998,28770,1941,786,280,174,212,377,846,4163,43,47,784,1794,1890,2087,2239,2064,1832,1855,1984
833874,-4936,28572,-3933,28835,1637,678,265,179,198,216,785,4042,55,48,781,1794,1890,2087,2239,2064,1832,1855,1984
834875,-4892,28636,-3868,28900,1963,779,252,202,178,476,974,4354,42,56,786,1816,1920,2128,2288,2088,1840,1888,2036
835876,-4836,28700,-3803,28965,1824,780,245,211,165,293,827,4030,56,55,778,1816,1920,2128,2288,2088,1840,1888,2036
836877,-4776,28756,-3738,29030,1781,891,231,216,141,252,913,4136,56,55,783,1816,1920,2128,2288,2088,1840,1888,2036
837878,-4720,28820,-3673,29095,1842,792,225,211,116,302,933,4074,58,44,782,1816,1920,2128,2288,2088,1840,1888,2036
838879,-4664,28888,-3608,29160,1854,740,219,205,90,366,881,4068,49,48,783,1816,1920,2128,2288,2088,1840,1888,2036
839880,-4612,28948,-3543,29225,1919,846,215,197,66,246,823,3937,41,55,783,1816,1920,2128,2288,2088,1840,1888,2036
840881,-4564,29008,-3478,29290,1991,852,214,202,42,195,974,4055,44,51,780,1822,1904,2136,2316,2120,1868,1906,2061
841882,-4512,29088,-3413,29355,1957,583,212,205,18,162,916,4042,58,52,780,1822,1904,2136,2316,2120,1868,1906,2061
842883,-4452,29156,-3348,29420,1863,730,212,209,8,122,861,3836,54,57,784,1822,1904,2136,2316,2120,1868,1906,2061
843884,-4396,29224,-3283,29485,1925,726,212,206,-5,193,987,3916,57,43,783,1822,1904,2136,2316,2120,1868,1906,2061
844885,-4320,29288,-3218,29550,1662,777,208,205,-13,191,958,3905,48,49,783,1822,1904,2136,2316,2120,1868,1906,2061
845886,-4256,29352,-3153,29615,1814,779,203,220,-19,180,1030,3893,62,56,786,1888,1975,2175,2352,2176,1919,1959,2111
846887,-4204,29412,-3088,29680,1980,835,203,235,-22,337,1108,3952,48,55,784,1888,1975,2175,2352,2176,1919,1959,2111
847888,-4136,29468,-3023,29745,1777,896,188,245,-44,288,1116,3928,42,52,780,1888,1975,2175,2352,2176,1919,1959,2111
848889,-4076,29544,-2958,29810,1883,633,178,268,-55,222,961,3862,45,57,782,1888,1975,2175,2352,2176,1919,1959,2111
849890,-4012,29596,-2893,29875,1834,949,163,275,-57,372,1044,3908,58,57,783,1888,1975,2175,2352,2176,1919,1959,2111
850891,-3960,29660,-2828,29940,2001,800,152,287,-71,359,1080,4045,44,55,780,1888,1975,2175,2352,2176,1919,1959,2111
851892,-3900,29736,-2763,30005,1907,637,131,299,-86,329,1010,3860,45,45,779,1823,1915,2119,2283,2079,1843,1887,2027
852893,-3836,29788,-2698,30070,1860,953,118,300,-96,319,1030,3871,49,53,781,1823,1915,2119,2283,2079,1843,1887,2027
853894,-3780,29852,-2633,30135,1971,804,112,291,-120,414,1195,4014,42,57,780,1823,1915,2119,2283,2079,1843,1887,2027
854895,-3732,29904,-2568,30200,2092,970,110,288,-132,488,1013,3897,56,46,780,1823,1915,2119,2283,2079,1843,1887,2027
855896,-3668,29976,-2503,30265,1894,711,106,310,-151,495,1037,4021,57,46,776,1823,1915,2119,2283,2079,1843,1887,2027
856897,-3612,30048,-2438,30330,2005,703,103,329,-174,344,1027,4118,57,57,783,1791,1884,2100,2253,2046,1816,1855,1982
857898,-3564,30108,-2373,30395,2126,860,102,347,-202,384,978,4050,44,56,779,1791,1884,2100,2253,2046,1816,1855,1982
858899,-3512,30180,-2308,30460,2092,701,96,349,-219,566,1069,4054,50,50,776,1791,1884,2100,2253,2046,1816,1855,1982
859900,-3464,30256,-2243,30525,2164,638,88,343,-230,482,1000,3996,52,47,779,1791,1884,2100,2253,2046,1816,1855,1982
860901,-3412,30304,-2178,30590,2130,1009,82,350,-235,551,1045,4050,47,49,779,1791,1884,2100,2253,2046,1816,1855,1982
861902,-3360,30376,-2113,30655,2147,700,71,346,-239,391,1120,3777,50,47,774,1791,1884,2100,2253,2046,1816,1855,1982
862903,-3308,30436,-2048,30720,2163,856,57,351,-253,262,1077,3832,53,54,778,1784,1867,2080,2231,2049,1824,1854,1987
863904,-3240,30500,-1983,30785,1960,807,41,318,-257,350,1095,3734,42,54,776,1784,1867,2080,2231,2049,1824,1854,1987
864905,-3188,30556,-1918,30850,2176,918,29,332,-269,728,1154,4017,45,51,780,1784,1867,2080,2231,2049,1824,1854,1987
865906,-3120,30640,-1853,30915,1973,545,24,347,-265,416,963,3647,51,49,774,1784,1867,2080,2231,2049,1824,1854,1987
866907,-3052,30692,-1788,30980,1969,961,17,353,-265,575,1126,4217,55,49,783,1784,1867,2080,2231,2049,1824,1854,1987
867908,-2988,30768,-1723,31045,2022,649,20,392,-278,649,1156,3780,57,44,778,1760,1844,2048,2224,2064,1792,1824,2016
868909,-2932,30824,-1658,31110,2133,910,21,389,-282,620,1145,3827,63,52,780,1760,1844,2048,2224,2064,1792,1824,2016
869910,-2860,30872,-1593,31175,1925,1030,23,382,-280,425,1191,3949,58,53,775,1760,1844,2048,2224,2064,1792,1824,2016
870911,-2796,30948,-1528,31240,2026,667,17,411,-297,349,1197,3844,64,50,779,1760,1844,2048,2224,2064,1792,1824,2016
871912,-2728,31028,-1463,31305,1974,599,13,413,-303,517,1100,3931,59,55,780,1760,1844,2048,2224,2064,1792,1824,2016
872913,-2660,31088,-1398,31370,1970,855,5,450,-314,712,1207,3830,63,63,783,1760,1844,2048,2224,2064,1792,1824,2016
873914,-2588,31152,-1333,31435,1911,806,-6,454,-322,539,1164,3865,61,49,780,1816,1904,2107,2280,2080,1824,1896,2046
874915,-2520,31232,-1268,31500,1959,588,-20,457,-330,443,1172,3975,62,48,781,1816,1904,2107,2280,2080,1824,1896,2046
875916,-2468,31292,-1203,31565,2175,844,-31,466,-345,576,1290,3968,47,52,783,1816,1904,2107,2280,2080,1824,1896,2046
876917,-2396,31352,-1138,31630,1917,850,-38,479,-347,577,1128,4093,48,61,777,1816,1904,2107,2280,2080,1824,1896,2046
877918,-2328,31432,-1073,31695,1963,583,-53,504,-355,551,1205,3998,52,49,780,1816,1904,2107,2280,2080,1824,1896,2046
878919,-2276,31496,-1008,31760,2180,784,-55,525,-373,564,1284,4054,60,48,783,1820,1908,2136,2315,2111,1841,1872,2027
879920,-2208,31580,-943,31825,1977,511,-69,503,-378,462,1183,3835,53,60,777,1820,1908,2136,2315,2111,1841,1872,2027
880921,-2156,31648,-878,31890,2194,707,-69,506,-387,543,1335,3997,53,49,782,1820,1908,2136,2315,2111,1841,1872,2027
881922,-2088,31716,-813,31955,1990,703,-84,510,-391,412,1180,3947,53,48,777,1820,1908,2136,2315,2111,1841,1872,2027
882923,-2040,31776,-748,32020,2262,809,-88,510,-394,452,1220,4036,44,48,781,1820,1908,2136,2315,2111,1841,1872,2027
883924,-1988,31836,-683,32085,2228,815,-91,509,-402,679,1289,3817,44,47,774,1820,1908,2136,2315,2111,1841,1872,2027
884925,-1916,31904,-618,32150,1970,712,-83,495,-415,523,1169,3987,46,57,774,1855,1933,2160,2333,2114,1861,1908,2055
885926,-1856,31972,-553,32215,2126,708,-85,529,-426,633,1140,3977,55,49,780,1855,1933,2160,2333,2114,1861,1908,2055
886927,-1788,32024,-488,32280,2023,924,-85,551,-448,708,1314,4060,46,62,776,1855,1933,2160,2333,2114,1861,1908,2055
887928,-1728,32104,-423,32345,2130,557,-89,581,-469,635,1255,4039,52,61,777,1855,1933,2160,2333,2114,1861,1908,2055
888929,-1656,32164,-358,32410,1972,813,-92,586,-481,759,1346,3798,64,54,780,1855,1933,2160,2333,2114,1861,1908,2055
889930,-1580,32240,-293,32475,1909,599,-88,583,-493,616,1366,3886,45,59,781,1839,1935,2159,2303,2111,1879,1903,2047
890931,-1516,32304,-228,32540,2061,751,-86,565,-513,663,1437,3793,62,52,783,1839,1935,2159,2303,2111,1879,1903,2047
891932,-1452,32360,-163,32605,2062,862,-82,565,-523,437,1436,3710,56,60,779,1839,1935,2159,2303,2111,1879,1903,2047
892933,-1376,32444,-98,32670,1900,488,-99,566,-533,319,1313,3934,59,53,779,1839,1935,2159,2303,2111,1879,1903,2047
893934,-1316,32512,-33,32735,2106,685,-111,611,-530,464,1318,3893,62,58,784,1839,1935,2159,2303,2111,1879,1903,2047
894935,-1236,32588,32,32800,1838,571,-132,625,-532,490,1588,3904,47,54,780,1839,1935,2159,2303,2111,1879,1903,2047
895936,-1168,32656,97,32865,1985,668,-137,610,-548,503,1511,3821,58,50,785,1817,1908,2105,2273,2056,1822,1878,2021
896937,-1100,32712,162,32930,1982,829,-132,574,-558,383,1493,3651,47,59,781,1817,1908,2105,2273,2056,1822,1878,2021
897938,-1028,32772,227,32995,1923,785,-127,567,-577,291,1390,3820,44,59,780,1817,1908,2105,2273,2056,1822,1878,2021
898939,-952,32852,292,33060,1861,516,-123,571,-604,476,1315,3812,63,57,781,1817,1908,2105,2273,2056,1822,1878,2021
899940,-896,32920,357,33125,2122,664,-130,578,-628,576,1306,3805,61,49,785,1817,1908,2105,2273,2056,1822,1878,2021
900941,-832,33012,422,33190,2024,331,-134,574,-650,307,1287,3809,53,54,779,1807,1886,2104,2248,2051,1816,1843,2008
901942,-748,33076,487,33255,1751,682,-131,585,-678,420,1435,3887,49,55,785,1807,1886,2104,2248,2051,1816,1843,2008
902943,-660,33152,552,33320,1673,519,-127,585,-695,557,1279,3686,49,54,785,1807,1886,2104,2248,2051,1816,1843,2008
903944,-592,33196,617,33385,1920,944,-133,593,-703,459,1302,3875,65,51,786,1807,1886,2104,2248,2051,1816,1843,2008
904945,-528,33280,682,33450,1972,421,-128,596,-724,423,1495,3961,58,48,781,1807,1886,2104,2248,2051,1816,1843,2008
905946,-440,33352,747,33515,1644,562,-126,561,-739,596,1281,3657,66,66,784,1807,1886,2104,2248,2051,1816,1843,2008
906947,-368,33412,812,33580,1836,719,-121,505,-767,766,1228,3579,59,47,789,1787,1871,2089,2240,2056,1809,1811,1968
907948,-288,33500,877,33645,1719,341,-137,506,-774,253,953,3736,62,44,784,1787,1871,2089,2240,2056,1809,1811,1968
908949,-204,33572,942,33710,1645,532,-163,582,-803,428,1104,4142,56,60,790,1787,1871,2089,2240,2056,1809,1811,1968
909950,-136,33640,1007,33775,1843,578,-192,630,-835,528,1301,3728,64,49,789,1787,1871,2089,2240,2056,1809,1811,1968
910951,-44,33700,1072,33840,1510,684,-208,576,-852,273,1407,3305,63,45,785,1787,1871,2089,2240,2056,1809,1811,1968
911952,28,33764,1137,33905,1751,636,-225,487,-858,161,1350,3411,61,55,790,1779,1840,2064,2256,2062,1812,1846,1984
912953,100,33824,1202,33970,1744,692,-237,448,-868,490,1212,3589,63,51,787,1779,1840,2064,2256,2062,1812,1846,1984
913954,192,33912,1267,34035,1461,314,-248,416,-903,713,1444,3332,58,50,785,1779,1840,2064,2256,2062,1812,1846,1984
914955,272,33980,1332,34100,1593,560,-264,403,-908,-100,1243,3466,58,60,795,1779,1840,2064,2256,2062,1812,1846,1984
915956,340,34032,1397,34165,1740,776,-289,439,-926,-53,981,3823,64,52,791,1779,1840,2064,2256,2062,1812,1846,1984
916957,436,34092,1462,34230,1353,682,-333,468,-937,760,840,3589,48,41,785,1779,1840,2064,2256,2062,1812,1846,1984
917958,500,34180,1527,34295,1754,305,-384,410,-938,1042,1162,2921,56,48,792,1818,1907,2118,2280,2096,1844,1892,2048
918959,580,34244,1592,34360,1536,606,-423,270,-947,64,1262,2704,46,42,790,1818,1907,2118,2280,2096,1844,1892,2048
919960,644,34312,1657,34425,1738,552,-432,209,-967,-601,1217,3247,53,59,791,1818,1907,2118,2280,2096,1844,1892,2048
920961,716,34388,1722,34490,1630,439,-452,262,-986,310,907,3479,46,52,786,1818,1907,2118,2280,2096,1844,1892,2048
921962,796,34468,1787,34555,1511,371,-454,361,-975,989,763,3604,60,55,791,1818,1907,2118,2280,2096,1844,1892,2048
922963,876,34508,1852,34620,1494,901,-450,348,-977,346,1121,3148,53,42,793,1801,1903,2117,2256,2154,1879,1915,2093
923964,952,34572,1917,34685,1530,602,-449,281,-1014,-779,1126,3349,60,52,788,1801,1903,2117,2256,2154,1879,1915,2093
924965,1024,34640,1982,34750,1573,549,-447,287,-1045,-306,909,3613,53,56,791,1801,1903,2117,2256,2154,1879,1915,2093
925966,1112,34704,2047,34815,1345,600,-465,292,-1068,583,842,3381,49,47,791,1801,1903,2117,2256,2154,1879,1915,2093
926967,1196,34788,2112,34880,1372,327,-471,274,-1090,697,747,3411,63,58,794,1801,1903,2117,2256,2154,1879,1915,2093
927968,1264,34864,2177,34945,1569,413,-500,173,-1114,341,925,2774,47,42,797,1801,1903,2117,2256,2154,1879,1915,2093
928969,1352,34932,2242,35010,1291,510,-543,98,-1145,-351,1050,2900,63,52,793,1801,1903,2127,2263,2153,1888,1944,2107
929970,1400,35000,2307,35075,1812,506,-594,105,-1172,-306,972,3357,55,55,797,1801,1903,2127,2263,2153,1888,1944,2107
930971,1508,35060,2372,35140,1010,612,-644,131,-1184,294,723,3172,56,55,788,1801,1903,2127,2263,2153,1888,1944,2107
931972,1604,35112,2437,35205,1122,728,-672,134,-1209,481,1007,3427,56,46,798,1801,1903,2127,2263,2153,1888,1944,2107
932973,1684,35196,2502,35270,1304,305,-689,89,-1214,-63,1080,2765,66,55,796,1801,1903,2127,2263,2153,1888,1944,2107
933974,1772,35248,2567,35335,1177,721,-726,66,-1220,-443,975,3251,67,54,798,1759,1853,2063,2201,2063,1835,1875,2022
934975,1876,35340,2632,35400,929,188,-761,87,-1216,24,884,3178,51,58,796,1759,1853,2063,2201,2063,1835,1875,2022
935976,1968,35400,2697,35465,1046,594,-789,69,-1206,348,920,2769,54,54,804,1759,1853,2063,2201,2063,1835,1875,2022
936977,2060,35464,2762,35530,1013,545,-835,37,-1194,-461,662,2974,66,40,801,1759,1853,2063,2201,2063,1835,1875,2022
937978,2144,35528,2827,35595,1091,546,-892,25,-1193,-575,822,3026,50,41,796,1759,1853,2063,2201,2063,1835,1875,2022
938979,2236,35604,2892,35660,958,383,-938,4,-1185,-282,724,2827,64,40,799,1759,1853,2063,2201,2063,1835,1875,2022
939980,2328,35668,2957,35725,925,534,-968,-21,-1188,-30,705,2921,56,44,802,1767,1857,2093,2256,2083,1839,1879,2033
940981,2416,35740,3022,35790,947,426,-973,-91,-1187,-11,687,2448,49,54,801,1767,1857,2093,2256,2083,1839,1879,2033
941982,2484,35824,3087,35855,1195,252,-978,-100,-1195,-207,797,3199,58,44,803,1767,1857,2093,2256,2083,1839,1879,2033
942983,2580,35884,3152,35920,807,558,-983,-96,-1199,-499,626,2965,51,55,800,1767,1857,2093,2256,2083,1839,1879,2033
943984,2672,35948,3217,35985,824,510,-993,-36,-1214,-315,680,3345,68,47,803,1767,1857,2093,2256,2083,1839,1879,2033
944985,2748,36008,3282,36050,1010,566,-1004,-44,-1238,-340,757,2926,55,40,803,1776,1858,2069,2227,2111,1856,1887,2044
945986,2844,36072,3347,36115,724,517,-1006,-30,-1247,-267,728,3258,49,39,800,1776,1858,2069,2227,2111,1856,1887,2044
946987,2948,36152,3412,36180,576,299,-1023,-64,-1243,-402,614,2684,55,46,804,1776,1858,2069,2227,2111,1856,1887,2044
947988,3020,36200,3477,36245,967,719,-1032,-83,-1259,-335,674,3156,52,42,808,1776,1858,2069,2227,2111,1856,1887,2044
948989,3120,36276,3542,36310,575,356,-1057,-135,-1271,-455,664,2855,50,45,800,1776,1858,2069,2227,2111,1856,1887,2044
949990,3220,36352,3607,36375,532,343,-1082,-113,-1286,-426,708,3471,59,52,808,1776,1858,2069,2227,2111,1856,1887,2044
950991,3308,36420,3806,36574,817,602,-1114,-90,-1277,-522,539,3243,49,59,809,1757,1839,2059,2216,2096,1840,1858,2003
951992,3388,36496,3871,36639,900,489,-1141,-59,-1277,-366,648,3434,59,56,803,1757,1839,2059,2216,2096,1840,1858,2003
952993,3480,36580,3936,36704,717,366,-1160,-72,-1260,-622,668,2995,48,59,803,1757,1839,2059,2216,2096,1840,1858,2003
953994,3576,36632,4001,36769,629,782,-1174,-107,-1262,-555,762,3363,70,45,806,1757,1839,2059,2216,2096,1840,1858,2003
954995,3672,36708,4066,36834,591,469,-1192,-149,-1245,-799,582,3008,51,59,799,1757,1839,2059,2216,2096,1840,1858,2003
955996,3756,36796,4131,36899,718,291,-1213,-148,-1237,-327,668,3498,59,50,807,1780,1848,2048,2220,2059,1828,1872,2002
956997,3836,36888,4196,36964,750,208,-1226,-150,-1219,-438,535,3096,54,57,807,1780,1848,2048,2220,2059,1828,1872,2002
957998,3928,36976,4261,37029,568,230,-1234,-166,-1212,-489,563,3361,60,57,807,1780,1848,2048,2220,2059,1828,1872,2002
958999,4036,37052,4326,37094,316,367,-1242,-191,-1189,-773,323,2944,55,52,809,1780,1848,2048,2220,2059,1828,1872,2002
960000,4124,37136,4391,37159,537,244,-1243,-190,-1165,-327,418,3427,62,49,810,1780,1848,2048,2220,2059,1828,1872,2002
961001,4196,37224,4456,37224,729,166,-1238,-188,-1121,-622,298,3037,53,57,810,1780,1848,2048,2220,2059,1828,1872,2002
962002,4276,37308,4521,37289,611,192,-1242,-152,-1096,-468,255,3629,47,59,808,1812,1892,2104,2276,2096,1848,1895,2046
963003,4404,37392,4586,37354,-66,169,-1239,-145,-1077,-197,267,3024,46,57,809,1812,1892,2104,2276,2096,1848,1895,2046
964004,4484,37488,4651,37419,515,-19,-1234,-145,-1068,-421,489,3280,61,57,813,1812,1892,2104,2276,2096,1848,1895,2046
965005,4552,37556,4716,37484,662,328,-1226,-152,-1054,-878,348,3082,54,45,812,1812,1892,2104,2276,2096,1848,1895,2046
966006,4660,37644,4781,37549,109,50,-1235,-152,-1047,-269,279,3709,60,53,807,1812,1892,2104,2276,2096,1848,1895,2046
967007,4744,37708,4846,37614,386,351,-1212,-159,-1037,77,469,3484,58,52,815,1840,1893,2112,2303,2100,1839,1887,2016
968008,4836,37784,4911,37679,253,187,-1208,-180,-1020,-920,323,3343,50,55,810,1840,1893,2112,2303,2100,1839,1887,2016
969009,4872,37860,4976,37744,988,173,-1192,-161,-1018,-785,292,3915,41,46,812,1840,1893,2112,2303,2100,1839,1887,2016
970010,4980,37920,5041,37809,36,379,-1187,-141,-1007,-720,419,3699,51,44,804,1840,1893,2112,2303,2100,1839,1887,2016
971011,5076,37992,5106,37874,148,220,-1207,-188,-1011,-49,1208,3590,46,57,813,1840,1893,2112,2303,2100,1839,1887,2016
972012,5160,38072,5171,37939,275,102,-1169,-295,-967,-897,-120,3253,39,49,811,1840,1893,2112,2303,2100,1839,1887,2016
973013,5228,38140,5236,38004,471,248,-1162,-319,-948,-1146,388,3618,46,49,813,1879,1951,2124,2312,2083,1837,1887,2029
974014,5308,38208,5301,38069,303,245,-1156,-203,-930,-425,346,4363,59,55,810,1879,1951,2124,2312,2083,1837,1887,2029
975015,5392,38284,5366,38134,230,131,-1154,-185,-911,37,169,3634,41,53,812,1879,1951,2124,2312,2083,1837,1887,2029
976016,5504,38368,5431,38199,-178,8,-1148,-190,-888,-99,122,3851,56,44,813,1879,1951,2124,2312,2083,1837,1887,2029
977017,5612,38464,5496,38264,-180,-180,-1152,-195,-857,-215,160,3389,53,56,798,1879,1951,2124,2312,2083,1837,1887,2029
978018,5680,38580,5561,38329,316,-492,-1121,-129,-826,-667,274,4087,61,56,797,1856,1929,2129,2319,2073,1829,1888,1992
979019,5748,38692,5626,38394,313,-499,-1108,-54,-793,-174,-68,4055,50,59,808,1856,1929,2129,2319,2073,1829,1888,1992
980020,5840,38748,5691,38459,-20,212,-1083,-12,-744,281,-26,3692,54,51,808,1856,1929,2129,2319,2073,1829,1888,1992
981021,5920,38812,5756,38524,111,113,-1038,-76,-657,-367,148,3326,56,50,814,1856,1929,2129,2319,2073,1829,1888,1992
982022,6020,38880,5821,38589,-181,59,-991,-128,-629,-961,165,3645,45,38,814,1856,1929,2129,2319,2073,1829,1888,1992
983023,6096,38944,5886,38654,105,109,-939,-129,-592,-769,-130,4140,40,49,798,1864,1936,2139,2332,2068,1843,1896,2027
984024,6160,39016,5951,38719,256,1,-901,-100,-546,88,-139,3906,46,51,814,1864,1936,2139,2332,2068,1843,1896,2027
985025,6248,39076,6016,38784,-72,157,-863,-115,-509,-534,-167,3669,47,50,814,1864,1936,2139,2332,2068,1843,1896,2027
986026,6336,39132,6081,38849,-100,218,-836,-142,-520,-537,-46,3536,56,42,812,1864,1936,2139,2332,2068,1843,1896,2027
987027,6424,39212,6146,38914,-128,-100,-818,-166,-534,-354,-92,3797,51,45,808,1864,1936,2139,2332,2068,1843,1896,2027
988028,6500,39256,6211,38979,9,375,-802,-176,-554,-1,125,3468,47,42,804,1864,1936,2139,2332,2068,1843,1896,2027
989029,6580,39324,6276,39044,-61,72,-797,-199,-560,331,223,3714,42,39,810,1886,1952,2151,2358,2064,1811,1869,1980
990030,6660,39388,6341,39109,-79,123,-787,-192,-530,-288,-104,3745,55,45,814,1886,1952,2151,2358,2064,1811,1869,1980
991031,6760,39456,6406,39174,-372,69,-712,-210,-597,-250,639,4437,47,50,811,1886,1952,2151,2358,2064,1811,1869,1980
992032,6836,39520,6471,39239,-85,119,-697,-128,-607,1069,-291,4170,42,53,815,1886,1952,2151,2358,2064,1811,1869,1980
993033,6916,39588,6536,39304,-153,66,-691,-17,-575,904,211,3865,56,51,815,1886,1952,2151,2358,2064,1811,1869,1980
994034,6996,39652,6601,39369,-172,117,-670,27,-528,-60,-37,4015,56,50,801,1891,1962,2148,2351,1983,1808,1874,1996
995035,7080,39724,6666,39434,-245,8,-626,-37,-490,192,-367,4228,48,46,799,1891,1962,2148,2351,1983,1808,1874,1996
996036,7156,39804,6731,39499,-159,-110,-566,-41,-446,-132,-589,4505,62,59,815,1891,1962,2148,2351,1983,1808,1874,1996
997037,7244,39876,6796,39564,-337,-18,-506,-33,-403,73,-478,3997,40,53,814,1891,1962,2148,2351,1983,1808,1874,1996
998038,7320,39948,6861,39629,-201,-27,-452,-101,-355,-235,-491,4323,44,46,815,1891,1962,2148,2351,1983,1808,1874,1996
999039,7388,40028,6926,39694,-104,-145,-383,-145,-311,-70,-593,3975,57,46,801,1891,1962,2148,2351,1983,1808,1874,1996
1000040,7484,40100,6991,39759,-492,-55,-320,-163,-288,-440,-349,4073,51,47,807,1840,1894,2156,2359,2058,1822,1890,2013
1001041,7576,40160,7056,39824,-475,101,-320,-174,-323,231,1060,3403,51,39,815,1840,1894,2156,2359,2058,1822,1890,2013
1002042,7664,40240,7121,39889,-454,-167,-347,-146,-250,1620,133,4288,56,54,815,1840,1894,2156,2359,2058,1822,1890,2013
1003043,7732,40320,7186,39954,-208,-185,-330,-131,-179,638,-710,2823,55,52,811,1840,1894,2156,2359,2058,1822,1890,2013
1004044,7824,40388,7251,40019,-541,-39,-270,-35,-189,-409,216,4161,56,54,814,1840,1894,2156,2359,2058,1822,1890,2013
1005045,7916,40448,7316,40084,-574,67,-219,47,-249,176,403,3548,53,45,815,1855,1994,2180,2388,2076,1828,1897,2019
1006046,8004,40536,7381,40149,-553,-311,-201,-1,-264,776,127,3239,63,42,812,1855,1994,2180,2388,2076,1828,1897,2019
1007047,8088,40600,7446,40214,-526,-11,-192,-54,-275,936,-169,3009,63,55,811,1855,1994,2180,2388,2076,1828,1897,2019
1008048,8196,40672,7511,40279,-879,-119,-169,7,-315,740,-58,4050,48,42,816,1855,1994,2180,2388,2076,1828,1897,2019
1009049,8284,40744,7576,40344,-657,-128,-135,48,-344,94,-317,3486,62,50,815,1855,1994,2180,2388,2076,1828,1897,2019
1010050,8376,40808,7641,40409,-741,-27,-83,78,-346,461,-513,3930,63,50,815,1855,1994,2180,2388,2076,1828,1897,2019
1011051,8476,40888,7706,40474,-883,-245,-50,66,-334,470,-755,4055,50,50,814,1887,1940,2129,2333,2056,1812,1863,1948
1012052,8572,40948,7771,40539,-871,11,-19,73,-305,498,-652,3688,60,45,814,1887,1940,2129,2333,2056,1812,1863,1948
1013053,8660,41024,7836,40604,-799,-202,-15,87,-274,222,-592,3891,66,55,816,1887,1940,2129,2333,2056,1812,1863,1948
1014054,8752,41088,7901,40669,-883,-52,-11,120,-242,197,-610,3604,59,53,814,1887,1940,2129,2333,2056,1812,1863,1948
1015055,8856,41152,7966,40734,-1081,-51,-11,151,-203,524,-664,3687,63,53,815,1887,1940,2129,2333,2056,1812,1863,1948
1016056,8972,41248,8031,40799,-1293,-489,-15,164,-174,488,-533,3298,63,46,816,1824,1891,2080,2277,2031,1811,1863,1982
1017057,9048,41296,8096,40864,-808,132,-12,162,-154,67,-446,3535,57,55,811,1824,1891,2080,2277,2031,1811,1863,1982
1018058,9152,41376,8161,40929,-1205,-286,-3,192,-126,272,-751,4046,67,54,815,1824,1891,2080,2277,2031,1811,1863,1982
1019059,9288,41444,8226,40994,-1693,-140,22,234,-92,920,-662,3427,57,46,813,1824,1891,2080,2277,2031,1811,1863,1982
1020060,9372,41512,8291,41059,-1066,-144,43,237,-66,679,-615,3822,64,37,815,1824,1891,2080,2277,2031,1811,1863,1982
1021061,9484,41576,8356,41124,-1473,-93,78,251,-42,313,-785,4062,70,47,815,1824,1891,2080,2277,2031,1811,1863,1982
1022062,9608,41644,8421,41189,-1696,-147,107,264,-16,517,-717,3525,68,42,815,1798,1867,2065,2265,2083,1843,1902,2028
1023063,9732,41696,8486,41254,-1768,69,138,291,4,699,-521,3666,57,45,812,1798,1867,2065,2265,2083,1843,1902,2028
1024064,9828,41764,8551,41319,-1457,-135,147,318,20,685,-629,3382,63,51,802,1798,1867,2065,2265,2083,1843,1902,2028
