%  Data file recorded 2017/1/18  18:28:41
%  Stride Frequency         = [1, 1]
%  Lead In /Lead Out        = 
%  Deltas (Fractional)      = [0.25, 0.25, 0.25],[0.25, 0.25, 0.25]
%  Phase                    = 32768
%  Experiment.py 
%  Motor Gains    = [10, 0, 10, 0, 0, 10, 0, 10, 0, 0]
% Columns: 
% time | Right Leg Pos | Left Leg Pos | Commanded Right Leg Pos | Commanded Left Leg Pos | DCR | DCL | GyroX | GyroY | GyroZ | AX | AY | AZ | RBEMF | LBEMF | VBatt | S1 | S2 | S3 | S4 | S5 | S6 | S7 | S8
853,17440,-16676,16772,-15996,8,1,-11,-3,0,-33,101,3904,-10,4,829,1849,1918,2140,2348,2148,1907,1932,2063
1854,17444,-16668,16772,-15996,-5,-4,-13,-3,0,-17,87,3892,-1,-1,829,1849,1918,2140,2348,2148,1907,1932,2063
2855,17460,-16676,16772,-15996,-12,6,-13,-2,0,-27,90,3908,6,-10,829,1849,1918,2140,2348,2148,1907,1932,2063
3856,17452,-16668,16772,-15996,3,-4,-13,0,2,-56,98,3878,-2,-5,829,1849,1918,2140,2348,2148,1907,1932,2063
4857,17456,-16672,16772,-15996,-5,3,-11,-3,2,-68,87,3882,-12,4,829,1851,1919,2140,2348,2149,1908,1932,2062
5858,17452,-16676,16772,-15996,0,3,-12,-4,0,-51,113,3853,-7,-6,829,1851,1919,2140,2348,2149,1908,1932,2062
6859,17448,-16672,16772,-15996,0,-2,-16,-2,-1,-39,100,3906,3,-10,829,1851,1919,2140,2348,2149,1908,1932,2062
7860,17440,-16668,16772,-15996,3,-2,-16,0,0,-49,110,3878,2,-2,829,1851,1919,2140,2348,2149,1908,1932,2062
8861,17440,-16676,16772,-15996,-2,6,-16,-1,0,-24,125,3922,-8,1,829,1851,1919,2140,2348,2149,1908,1932,2062
9862,17444,-16680,16772,-15996,-5,3,-15,-4,1,-26,116,3925,-12,-8,829,1851,1919,2140,2348,2149,1908,1932,2062
10863,17448,-16676,16772,-15996,-5,-2,-14,-2,-2,-34,135,3916,-2,-10,829,1852,1917,2137,2346,2148,1907,1932,2061
11864,17452,-16680,16772,-15996,-5,3,-12,-2,-3,-38,135,3908,6,3,829,1852,1917,2137,2346,2148,1907,1932,2061
12865,17436,-16676,16772,-15996,8,-2,-12,-3,0,-37,123,3853,2,3,829,1852,1917,2137,2346,2148,1907,1932,2061
13866,17448,-16668,16772,-15996,-10,-4,-16,0,4,-39,104,3891,-12,-7,829,1852,1917,2137,2346,2148,1907,1932,2061
14867,17452,-16684,16772,-15996,-5,11,-17,0,-1,-32,97,3940,-4,-7,829,1852,1917,2137,2346,2148,1907,1932,2061
15868,17440,-16680,16772,-15996,5,-2,-13,-3,3,-18,101,3894,2,3,829,1852,1916,2136,2346,2147,1906,1930,2060
16869,17448,-16680,16772,-15996,-7,1,-10,-6,4,-23,117,3874,4,1,829,1852,1916,2136,2346,2147,1906,1930,2060
17870,17436,-16676,16772,-15996,5,-2,-10,-3,3,-38,111,3908,-8,-10,829,1852,1916,2136,2346,2147,1906,1930,2060
18871,17456,-16664,16772,-15996,-15,-7,-13,-2,2,-68,112,3915,-12,-2,829,1852,1916,2136,2346,2147,1906,1930,2060
19872,17448,-16672,16772,-15996,3,6,-15,1,1,-62,104,3930,-12,3,826,1852,1916,2136,2346,2147,1906,1930,2060
20873,17440,-16680,16772,-15996,3,6,-14,0,1,-63,106,3915,6,1,825,1852,1916,2136,2346,2147,1906,1930,2060
21874,17440,-16672,16772,-15996,-2,-4,-13,1,2,-45,103,3909,0,-10,829,1850,1920,2136,2348,2148,1906,1931,2061
22875,17456,-16680,16772,-15996,-12,6,-14,-1,1,-29,108,3888,-12,-9,829,1850,1920,2136,2348,2148,1906,1931,2061
23876,17448,-16676,16772,-15996,3,-2,-12,-4,3,-36,116,3846,-10,4,829,1850,1920,2136,2348,2148,1906,1931,2061
24877,17456,-16676,16772,-15996,-7,1,-9,-5,6,-36,116,3857,-3,-4,828,1850,1920,2136,2348,2148,1906,1931,2061
25878,17444,-16680,16772,-15996,5,3,-9,-2,6,-31,114,3912,3,-10,829,1850,1920,2136,2348,2148,1906,1931,2061
26879,17444,-16672,16772,-15996,-2,-4,-9,-2,3,-38,114,3931,-5,1,828,1851,1916,2137,2347,2148,1907,1930,2061
27880,17448,-16680,16772,-15996,-5,6,-12,-2,2,-56,133,3905,-12,3,829,1851,1916,2137,2347,2148,1907,1930,2061
28881,17444,-16676,16772,-15996,0,-2,-11,-4,2,-52,126,3895,0,-6,829,1851,1916,2137,2347,2148,1907,1930,2061
29882,17456,-16676,16772,-15996,-10,1,-8,-4,2,-16,106,3914,6,-7,828,1851,1916,2137,2347,2148,1907,1930,2061
30883,17456,-16680,16772,-15996,-2,3,-8,-2,2,-9,106,3920,-6,0,829,1851,1916,2137,2347,2148,1907,1930,2061
31884,17448,-16664,16772,-15996,3,-9,-10,-2,2,-44,115,3905,-6,4,829,1851,1916,2137,2347,2148,1907,1930,2061
32885,17436,-16680,16772,-15996,5,11,-11,-2,1,-44,114,3886,2,-7,829,1850,1917,2137,2347,2147,1906,1930,2060
33886,17456,-16684,16772,-15996,-15,3,-9,0,2,-34,114,3867,6,-8,829,1850,1917,2137,2347,2147,1906,1930,2060
34887,17436,-16664,16772,-15996,10,-12,-7,-1,2,-56,97,3891,-8,2,829,1850,1917,2137,2347,2147,1906,1930,2060
35888,17440,-16676,16772,-15996,-5,8,-6,-4,1,-39,116,3913,-12,-3,828,1850,1917,2137,2347,2147,1906,1930,2060
36891,17448,-16684,16772,-15996,-7,6,-7,-5,1,-35,147,3891,-9,-7,825,1850,1917,2137,2347,2147,1906,1930,2060
37890,17452,-16668,16772,-15996,-5,-9,-7,-3,2,-32,119,3866,2,-6,825,1850,1916,2136,2347,2148,1907,1931,2061
38891,17448,-16676,16772,-15996,0,6,-9,-3,3,-26,83,3891,3,-10,829,1850,1916,2136,2347,2148,1907,1931,2061
39892,17444,-16676,16772,-15996,0,1,-10,-5,2,-36,104,3907,-9,-6,829,1850,1916,2136,2347,2148,1907,1931,2061
40893,17444,-16680,16772,-15996,-2,3,-10,-6,1,-46,105,3893,-7,1,829,1850,1916,2136,2347,2148,1907,1931,2061
41894,17456,-16664,16772,-15996,-10,-9,-8,-4,1,-49,103,3884,6,-2,829,1850,1916,2136,2347,2148,1907,1931,2061
42895,17444,-16680,16772,-15996,5,11,-5,-2,1,-36,122,3901,4,-10,829,1850,1916,2136,2347,2148,1907,1931,2061
43896,17444,-16676,16772,-15996,-2,-2,-6,-2,1,-32,100,3903,-8,2,829,1850,1916,2137,2346,2148,1906,1930,2061
44897,17448,-16676,16772,-15996,-5,1,-7,-5,1,-26,124,3893,-11,-10,828,1850,1916,2137,2346,2148,1906,1930,2061
45898,17444,-16676,16772,-15996,0,1,-9,-4,1,-42,102,3914,4,-6,828,1850,1916,2137,2346,2148,1906,1930,2061
46899,17432,-16668,16772,-15996,5,-4,-10,-3,0,-38,74,3899,-3,4,829,1850,1916,2137,2346,2148,1906,1930,2061
47900,17440,-16680,16772,-15996,-7,8,-10,-3,2,-31,99,3891,-12,-4,828,1850,1916,2137,2346,2148,1906,1930,2061
48901,17448,-16680,16772,-15996,-7,1,-10,-4,-1,-56,118,3912,-7,-10,829,1850,1917,2137,2346,2148,1906,1931,2061
49902,17448,-16660,16772,-15996,-2,-12,-8,-7,0,-32,126,3893,6,1,829,1850,1917,2137,2346,2148,1906,1931,2061
50903,17460,-16680,16772,-15996,-10,13,-11,-5,1,0,106,3882,1,-2,829,1850,1917,2137,2346,2148,1906,1931,2061
51904,17452,-16676,16772,-15996,3,-2,-9,-2,-2,-4,98,3858,-8,-10,829,1850,1917,2137,2346,2148,1906,1931,2061
52905,17444,-16668,16772,-15996,3,-4,-7,-1,-2,-16,103,3893,-8,0,829,1850,1917,2137,2346,2148,1906,1931,2061
53906,17448,-16672,16772,-15996,-5,3,-8,-1,0,-20,128,3913,-12,-3,825,1850,1917,2137,2346,2148,1906,1931,2061
54907,17452,-16672,16772,-15996,-5,1,-10,0,1,-37,112,3943,6,-7,825,1849,1916,2136,2346,2148,1907,1931,2062
55908,17440,-16668,16772,-15996,5,-2,-12,-2,2,-18,99,3902,-12,-8,828,1849,1916,2136,2346,2148,1907,1931,2062
56909,17448,-16676,16772,-15996,-7,6,-12,-3,4,-15,107,3892,-6,4,829,1849,1916,2136,2346,2148,1907,1931,2062
57910,17440,-16680,16772,-15996,3,3,-11,-3,2,-28,119,3859,6,-7,829,1849,1916,2136,2346,2148,1907,1931,2062
58911,17440,-16672,16772,-15996,-2,-4,-11,-2,0,-26,113,3867,-3,-9,828,1849,1916,2136,2346,2148,1907,1931,2062
59912,17448,-16676,16772,-15996,-7,3,-11,0,1,-25,92,3878,-11,3,829,1849,1916,2136,2345,2148,1906,1931,2062
60913,17456,-16680,16772,-15996,-7,3,-10,-1,1,-37,99,3900,-12,-7,829,1849,1916,2136,2345,2148,1906,1931,2062
61914,17448,-16672,16772,-15996,3,-4,-10,0,3,-17,126,3868,5,-10,828,1849,1916,2136,2345,2148,1906,1931,2062
62915,17448,-16676,16772,-15996,-2,3,-11,-1,3,-30,103,3889,4,2,829,1849,1916,2136,2345,2148,1906,1931,2062
63916,17436,-16668,16772,-15996,5,-4,-12,-2,4,-45,89,3904,-7,2,828,1849,1916,2136,2345,2148,1906,1931,2062
64917,17444,-16676,16772,-15996,-7,6,-15,-1,0,-40,117,3917,-9,-10,829,1849,1916,2136,2345,2148,1906,1931,2062
65918,17448,-16680,16772,-15996,-5,3,-17,-1,3,-41,103,3909,2,1,829,1850,1917,2137,2345,2147,1907,1931,2062
66919,17444,-16664,16772,-15996,0,-9,-14,-1,4,-11,90,3899,6,3,829,1850,1917,2137,2345,2147,1907,1931,2062
67920,17440,-16668,16772,-15996,0,3,-11,0,2,-30,113,3883,-5,-9,829,1850,1917,2137,2345,2147,1907,1931,2062
68921,17448,-16656,16772,-15996,-7,-7,-12,-1,1,-14,112,3915,-10,-1,829,1850,1917,2137,2345,2147,1907,1931,2062
69922,17444,-16684,16772,-15996,0,18,-14,-1,0,-36,120,3908,-12,4,829,1850,1917,2137,2345,2147,1907,1931,2062
70923,17444,-16680,16772,-15996,-2,-2,-15,0,0,-24,113,3885,-11,2,826,1850,1916,2136,2347,2149,1908,1932,2061
71924,17448,-16676,16772,-15996,-5,-2,-16,0,2,-24,136,3904,3,-7,825,1850,1916,2136,2347,2149,1908,1932,2061
72925,17452,-16672,16772,-15996,-5,-2,-14,-2,2,-28,98,3931,1,-10,828,1850,1916,2136,2347,2149,1908,1932,2061
73926,17448,-16668,16772,-15996,0,-2,-11,0,3,-42,85,3955,-12,-4,828,1850,1916,2136,2347,2149,1908,1932,2061
74927,17452,-16680,16772,-15996,-5,8,-9,1,3,-28,95,3938,-4,4,829,1850,1916,2136,2347,2149,1908,1932,2061
75928,17440,-16676,16772,-15996,5,-2,-12,0,4,-37,117,3894,6,1,828,1850,1916,2136,2347,2149,1908,1932,2061
76929,17440,-16672,16772,-15996,-2,-2,-15,0,4,-37,118,3869,-4,-8,828,1850,1917,2136,2346,2148,1907,1931,2063
77930,17444,-16672,16772,-15996,-5,1,-15,-1,2,-31,113,3860,-12,-1,828,1850,1917,2136,2346,2148,1907,1931,2063
78931,17452,-16680,16772,-15996,-7,6,-13,-1,0,-24,91,3869,-5,4,828,1850,1917,2136,2346,2148,1907,1931,2063
79932,17448,-16676,16772,-15996,0,-2,-13,-2,2,-51,103,3868,4,-2,828,1850,1917,2136,2346,2148,1907,1931,2063
80933,17440,-16676,16772,-15996,3,1,-15,-2,-1,-50,101,3859,-9,-8,829,1850,1917,2136,2346,2148,1907,1931,2063
81934,17444,-16680,16772,-15996,-5,3,-14,-1,0,-38,130,3898,-12,2,829,1851,1917,2138,2347,2148,1907,1932,2064
82935,17448,-16676,16772,-15996,-5,-2,-12,0,1,-29,130,3905,-3,4,829,1851,1917,2138,2347,2148,1907,1932,2064
83936,17448,-16680,16772,-15996,-2,3,-12,-2,1,-38,104,3858,6,-10,829,1851,1917,2138,2347,2148,1907,1932,2064
84937,17452,-16656,16772,-15996,-5,-14,-13,-5,2,-68,124,3883,-1,-3,828,1851,1917,2138,2347,2148,1907,1932,2064
85938,17448,-16680,16772,-15996,0,16,-15,-3,1,-67,123,3880,-10,4,829,1851,1917,2138,2347,2148,1907,1932,2064
86939,17448,-16676,16772,-15996,-2,-2,-14,-4,0,-51,93,3910,4,-10,829,1851,1917,2138,2347,2148,1907,1932,2064
87940,17432,-16680,16772,-15996,8,3,-14,-2,0,-59,98,3890,-4,-8,825,1849,1917,2136,2347,2145,1909,1932,2061
88941,17444,-16676,16772,-15996,-10,-2,-16,-2,1,-44,111,3932,-12,0,825,1849,1917,2136,2347,2145,1909,1932,2061
89942,17448,-16668,16772,-15996,-5,-4,-16,-2,0,-8,107,3925,4,-2,828,1849,1917,2136,2347,2145,1909,1932,2061
90943,17452,-16672,16772,-15996,-5,3,-12,-2,-1,-27,127,3887,1,-10,828,1849,1917,2136,2347,2145,1909,1932,2061
91944,17444,-16672,16772,-15996,3,1,-11,-1,-3,-43,114,3892,-11,-4,828,1849,1917,2136,2347,2145,1909,1932,2061
92945,17456,-16672,16772,-15996,-10,1,-12,1,-2,-22,92,3911,4,3,829,1850,1917,2137,2347,2148,1908,1930,2061
93946,17444,-16680,16772,-15996,5,6,-11,-3,0,-43,98,3910,0,-8,829,1850,1917,2137,2347,2148,1908,1930,2061
94947,17452,-16672,16772,-15996,-7,-4,-10,-2,1,-55,106,3875,-8,-6,828,1850,1917,2137,2347,2148,1908,1930,2061
95948,17444,-16672,16772,-15996,3,1,-12,-1,-1,-66,97,3856,6,1,829,1850,1917,2137,2347,2148,1908,1930,2061
96949,17444,-16668,16772,-15996,-2,-2,-13,-1,0,-35,129,3866,-8,-10,828,1850,1917,2137,2347,2148,1908,1930,2061
97950,17444,-16676,16772,-15996,-2,6,-11,-1,1,-42,108,3877,-9,3,829,1850,1917,2137,2347,2148,1908,1930,2061
98951,17436,-16680,16772,-15996,3,3,-10,-2,3,-74,111,3882,-5,-9,829,1850,1917,2135,2350,2148,1906,1930,2062
99952,17444,-16680,16772,-15996,-7,1,-13,-4,1,-40,86,3892,3,-2,829,1850,1917,2135,2350,2148,1906,1930,2062
100953,17448,-16680,16772,-15996,-5,1,-14,-3,-1,-62,115,3904,4,2,829,1850,1917,2135,2350,2148,1906,1930,2062
101954,17444,-16688,16772,-15996,0,6,-11,-3,-2,-59,104,3921,1,-9,829,1850,1917,2135,2350,2148,1906,1930,2062
102955,17448,-16672,16772,-15996,-5,-9,-10,-4,0,-54,118,3890,-5,4,829,1850,1917,2135,2350,2148,1906,1930,2062
103956,17452,-16664,16772,-15996,-5,-4,-9,-3,0,-44,124,3943,-12,-6,829,1847,1918,2138,2348,2147,1907,1932,2062
104957,17444,-16668,16772,-15996,3,3,-7,-5,1,-33,127,3924,6,-8,825,1847,1918,2138,2348,2147,1907,1932,2062
105958,17448,-16676,16772,-15996,-5,6,-8,-4,1,-43,99,3912,-9,-1,825,1847,1918,2138,2348,2147,1907,1932,2062
106959,17440,-16672,16772,-15996,3,-2,-9,-3,1,-22,126,3894,-6,3,828,1847,1918,2138,2348,2147,1907,1932,2062
107960,17452,-16668,16772,-15996,-10,-2,-8,-2,3,-52,108,3896,4,-10,829,1847,1918,2138,2348,2147,1907,1932,2062
108961,17452,-16684,16772,-15996,-2,11,-9,0,3,-66,105,3897,5,0,828,1847,1918,2138,2348,2147,1907,1932,2062
109962,17448,-16680,16772,-15996,0,-2,-10,-1,2,-53,103,3929,-12,3,829,1852,1918,2138,2347,2147,1907,1932,2061
110963,17452,-16680,16772,-15996,-5,1,-9,-2,1,-54,117,3907,-9,-10,828,1852,1918,2138,2347,2147,1907,1932,2061
111964,17448,-16676,16772,-15996,0,-2,-10,-6,0,-44,105,3901,5,-1,829,1852,1918,2138,2347,2147,1907,1932,2061
112965,17440,-16672,16772,-15996,3,-2,-9,-5,2,-42,103,3878,-9,1,829,1852,1918,2138,2347,2147,1907,1932,2061
113966,17456,-16668,16772,-15996,-12,-2,-9,-4,3,-37,93,3889,-10,-9,829,1852,1918,2138,2347,2147,1907,1932,2061
114967,17444,-16668,16772,-15996,5,1,-10,-2,3,-24,90,3879,3,2,829,1852,1917,2137,2347,2148,1908,1931,2061
115968,17444,-16676,16772,-15996,-2,6,-10,-1,4,-21,94,3880,-5,1,829,1852,1917,2137,2347,2148,1908,1931,2061
116969,17452,-16656,16772,-15996,-7,-12,-9,-2,6,-22,134,3915,-12,-8,829,1852,1917,2137,2347,2148,1908,1931,2061
117970,17448,-16680,16772,-15996,0,16,-11,-5,3,-26,126,3909,1,4,828,1852,1917,2137,2347,2148,1908,1931,2061
118971,17436,-16672,16772,-15996,5,-4,-11,-5,1,-24,112,3922,-1,-3,828,1852,1917,2137,2347,2148,1908,1931,2061
119972,17448,-16664,16772,-15996,-10,-4,-9,-3,0,-51,132,3886,-12,-5,829,1852,1917,2137,2347,2148,1908,1931,2061
120973,17452,-16676,16772,-15996,-5,8,-9,-2,2,-32,97,3886,0,4,829,1849,1916,2136,2347,2148,1908,1932,2061
121974,17444,-16680,16772,-15996,3,3,-7,-2,4,-52,77,3904,-7,1,826,1849,1916,2136,2347,2148,1908,1932,2061
122975,17452,-16676,16772,-15996,-7,-2,-9,0,4,-45,99,3894,-10,-10,825,1849,1916,2136,2347,2148,1908,1932,2061
123976,17436,-16688,16772,-15996,8,8,-10,-4,3,-40,103,3909,-5,-7,828,1849,1916,2136,2347,2148,1908,1932,2061
124977,17452,-16672,16772,-15996,-12,-9,-8,-4,3,-32,130,3939,5,1,829,1849,1916,2136,2347,2148,1908,1932,2061
125978,17448,-16680,16772,-15996,0,6,-11,-1,3,-10,113,3884,-9,-3,829,1849,1916,2136,2346,2148,1906,1931,2061
126979,17456,-16680,16772,-15996,-7,1,-15,-1,4,-1,92,3823,-12,-10,829,1849,1916,2136,2346,2148,1906,1931,2061
127980,17456,-16672,16772,-15996,-2,-4,-13,-2,4,-17,96,3880,5,-4,828,1849,1916,2136,2346,2148,1906,1931,2061
128981,17460,-16664,16772,-15996,-5,-4,-12,-2,3,-42,110,3896,-4,0,828,1849,1916,2136,2346,2148,1906,1931,2061
129982,17448,-16664,16772,-15996,5,1,-11,-4,3,-40,85,3870,-12,-10,829,1849,1916,2136,2346,2148,1906,1931,2061
130983,17444,-16676,16772,-15996,0,8,-10,-1,3,-22,95,3907,4,-2,829,1849,1916,2136,2346,2148,1906,1931,2061
131984,17444,-16680,16772,-15996,-2,3,-13,1,2,-23,122,3873,3,1,829,1849,1916,2136,2345,2148,1906,1930,2061
132985,17452,-16664,16772,-15996,-7,-9,-13,0,2,-26,111,3853,-9,-10,828,1849,1916,2136,2345,2148,1906,1930,2061
133986,17460,-16668,16772,-15996,-7,3,-12,0,1,-37,117,3850,4,-7,828,1849,1916,2136,2345,2148,1906,1930,2061
134987,17444,-16680,16772,-15996,8,8,-11,-2,0,-37,126,3847,4,3,829,1849,1916,2136,2345,2148,1906,1930,2061
135988,17456,-16684,16772,-15996,-10,3,-11,-3,-1,-44,128,3884,-11,-9,829,1849,1916,2136,2345,2148,1906,1930,2061
136989,17444,-16680,16772,-15996,5,-2,-10,-2,-1,-30,127,3860,2,-6,829,1848,1916,2136,2346,2147,1906,1931,2062
137990,17440,-16668,16772,-15996,0,-7,-11,-2,-1,-29,127,3879,-4,4,829,1848,1916,2136,2346,2147,1906,1931,2062
138991,17456,-16672,16772,-15996,-12,3,-14,-1,2,-30,145,3887,3,1,825,1848,1916,2136,2346,2147,1906,1931,2062
139992,17448,-16672,16772,-15996,3,1,-13,1,2,-40,125,3879,5,-6,825,1848,1916,2136,2346,2147,1906,1931,2062
140993,17448,-16664,16772,-15996,-2,-4,-14,2,1,-34,91,3876,-9,-1,829,1848,1916,2136,2346,2147,1906,1931,2062
141994,17444,-16680,16772,-15996,0,11,-14,1,1,-33,95,3892,-9,4,829,1848,1916,2136,2346,2147,1906,1931,2062
142995,17436,-16672,16772,-15996,3,-4,-13,-1,0,-48,131,3892,5,2,829,1849,1916,2137,2346,2147,1906,1930,2061
143996,17448,-16668,16772,-15996,-10,-2,-13,-4,-1,-54,127,3879,-12,-10,828,1849,1916,2137,2346,2147,1906,1930,2061
144997,17448,-16680,16772,-15996,-2,8,-14,-4,0,-49,126,3922,1,-6,829,1849,1916,2137,2346,2147,1906,1930,2061
145998,17448,-16672,16772,-15996,-2,-4,-15,-2,0,-38,119,3922,-4,2,828,1849,1916,2137,2346,2147,1906,1930,2061
146999,17456,-16684,16772,-15996,-7,8,-15,-4,-1,-40,119,3928,-12,-6,828,1849,1916,2137,2346,2147,1906,1930,2061
148000,17448,-16672,16772,-15996,3,-7,-14,-2,0,-42,116,3908,-7,-9,828,1849,1917,2138,2346,2147,1906,1931,2061
149001,17452,-16676,16772,-15996,-5,3,-13,-2,-1,-41,113,3909,2,4,829,1849,1917,2138,2346,2147,1906,1931,2061
150002,17448,-16676,16772,-15996,0,1,-11,-3,-1,-41,108,3871,-11,-10,829,1849,1917,2138,2346,2147,1906,1931,2061
151003,17440,-16672,16772,-15996,3,-2,-10,-3,0,-42,100,3926,-5,-5,828,1849,1917,2138,2346,2147,1906,1931,2061
152004,17448,-16676,16772,-15996,-7,3,-9,-4,-2,-42,102,3927,0,3,828,1849,1917,2138,2346,2147,1906,1931,2061
153005,17448,-16676,16772,-15996,-2,1,-10,-4,0,-64,112,3889,-12,-10,828,1849,1917,2138,2346,2147,1906,1931,2061
154006,17448,-16672,16772,-15996,-2,-2,-16,-2,2,-53,119,3877,-6,3,829,1850,1916,2136,2347,2147,1907,1931,2063
155007,17452,-16680,16772,-15996,-5,6,-16,-1,0,-33,106,3886,1,-3,828,1850,1916,2136,2347,2147,1907,1931,2063
156008,17452,-16672,16772,-15996,-2,-4,-13,-2,-1,-49,122,3899,6,-6,825,1850,1916,2136,2347,2147,1907,1931,2063
157009,17448,-16680,16772,-15996,0,6,-12,-5,0,-46,127,3894,-2,4,825,1850,1916,2136,2347,2147,1907,1931,2063
158010,17448,-16684,16772,-15996,-2,3,-13,-5,2,-55,115,3896,-7,-2,828,1850,1916,2136,2347,2147,1907,1931,2063
159011,17444,-16688,16772,-15996,0,3,-15,0,2,-61,86,3894,-8,0,829,1850,1916,2136,2347,2148,1907,1931,2061
160012,17452,-16680,16772,-15996,-7,-4,-14,1,-1,-59,96,3883,5,3,828,1850,1916,2136,2347,2148,1907,1931,2061
161013,17452,-16680,16772,-15996,-2,1,-12,-2,0,-49,90,3887,-12,-10,828,1850,1916,2136,2347,2148,1907,1931,2061
162014,17444,-16672,16772,-15996,3,-4,-10,-3,2,-54,106,3885,2,3,829,1850,1916,2136,2347,2148,1907,1931,2061
163015,17444,-16672,16772,-15996,-2,1,-12,-3,0,-70,126,3881,-3,-1,828,1850,1916,2136,2347,2148,1907,1931,2061
164016,17436,-16672,16772,-15996,3,1,-12,-2,-1,-72,92,3879,-4,-10,829,1850,1916,2136,2347,2148,1907,1931,2061
165017,17456,-16680,16772,-15996,-15,6,-13,0,1,-54,90,3878,5,4,828,1850,1917,2137,2346,2148,1908,1933,2059
166018,17440,-16676,16772,-15996,8,-2,-12,-2,0,-63,83,3905,-9,-2,829,1850,1917,2137,2346,2148,1908,1933,2059
167019,17444,-16680,16772,-15996,-5,3,-11,-5,1,-52,92,3907,-5,-10,828,1850,1917,2137,2346,2148,1908,1933,2059
168020,17456,-16684,16772,-15996,-10,3,-11,-4,1,-27,107,3928,6,2,829,1850,1917,2137,2346,2148,1908,1933,2059
169021,17440,-16668,16772,-15996,8,-9,-13,-3,1,-41,101,3906,-4,1,829,1850,1917,2137,2346,2148,1908,1933,2059
170022,17448,-16664,16772,-15996,-7,-2,-11,-3,3,-67,78,3895,-11,-9,828,1850,1915,2137,2347,2148,1907,1929,2062
171023,17448,-16672,16772,-15996,-2,6,-11,-4,5,-55,105,3895,4,1,829,1850,1915,2137,2347,2148,1907,1929,2062
172024,17452,-16676,16772,-15996,-5,3,-10,-1,3,-24,82,3884,-2,2,828,1850,1915,2137,2347,2148,1907,1929,2062
173025,17448,-16684,16772,-15996,0,6,-10,1,2,-38,92,3884,6,-6,826,1850,1915,2137,2347,2148,1907,1929,2062
174026,17448,-16676,16772,-15996,-2,-4,-11,-2,1,-34,107,3874,-10,-9,825,1850,1915,2137,2347,2148,1907,1929,2062
175027,17444,-16676,16772,-15996,0,1,-11,-4,2,-26,115,3890,6,-1,828,1849,1916,2137,2347,2147,1905,1931,2062
176028,17444,-16684,16772,-15996,-2,6,-13,-4,2,-39,116,3899,-10,4,828,1849,1916,2137,2347,2147,1905,1931,2063
177029,17444,-16684,16772,-15996,-2,1,-12,-3,2,-38,137,3900,-11,-3,828,1849,1916,2137,2347,2147,1905,1931,2063
178030,17444,-16664,16772,-15996,-2,-12,-11,-4,3,-49,119,3897,5,-10,829,1849,1916,2137,2347,2147,1905,1931,2063
179031,17456,-16680,16772,-15996,-10,11,-8,-3,3,-51,102,3881,-9,0,829,1849,1916,2137,2347,2147,1905,1931,2063
180032,17456,-16684,16772,-15996,-2,3,-6,-5,4,-42,123,3914,-6,-2,829,1849,1916,2137,2347,2147,1905,1931,2063
181033,17436,-16684,16772,-15996,10,1,-5,-5,5,-26,115,3900,5,-8,829,1850,1917,2138,2348,2149,1903,1932,2062
182034,17452,-16672,16772,-15996,-12,-7,-8,-4,4,-50,124,3909,-4,-10,828,1850,1917,2138,2348,2149,1903,1932,2062
183035,17444,-16680,16772,-15996,3,6,-10,-3,0,-49,104,3938,-12,3,829,1850,1917,2138,2348,2149,1903,1932,2062
184036,17452,-16668,16772,-15996,-7,-7,-10,-2,3,-41,95,3898,-4,4,829,1850,1917,2138,2348,2149,1903,1932,2062
185037,17452,-16680,16772,-15996,-2,8,-12,-1,4,-16,96,3907,0,0,828,1850,1917,2138,2348,2149,1903,1932,2062
186038,17448,-16676,16772,-15996,0,-2,-9,-1,3,-34,112,3897,-9,-10,829,1849,1917,2136,2347,2145,1907,1932,2064
187039,17444,-16692,16772,-15996,0,11,-6,-1,2,-33,116,3885,-12,-7,829,1849,1917,2136,2347,2145,1907,1932,2064
188040,17452,-16668,16772,-15996,-7,-14,-5,-2,3,-20,111,3892,4,3,828,1849,1917,2136,2347,2145,1907,1932,2064
189041,17440,-16672,16772,-15996,5,3,-9,-6,3,-28,111,3900,3,-3,829,1849,1917,2136,2347,2145,1907,1932,2064
190042,17448,-16676,16772,-15996,-7,3,-10,-5,1,-34,98,3914,2,-8,825,1849,1917,2136,2347,2145,1907,1932,2064
191043,17444,-16672,16772,-15996,0,-2,-8,-4,-1,-36,110,3901,-12,-8,825,1849,1917,2136,2347,2145,1907,1932,2064
192044,17452,-16668,16772,-15996,-7,-2,-6,-3,0,-14,124,3878,0,-3,828,1850,1916,2137,2347,2147,1908,1932,2062
193045,17436,-16664,16772,-15996,8,-2,-6,-2,1,-32,113,3920,6,3,828,1850,1916,2137,2347,2147,1908,1932,2062
194046,17444,-16672,16772,-15996,-7,6,-9,-1,4,-53,124,3911,-12,1,828,1850,1916,2137,2347,2147,1908,1932,2062
195047,17448,-16676,16772,-15996,-5,3,-11,-1,6,-38,110,3834,-3,-10,829,1850,1916,2137,2347,2147,1908,1932,2062
196048,17444,-16676,16772,-15996,0,1,-10,-2,4,-46,136,3879,6,-7,828,1850,1916,2137,2347,2147,1908,1932,2062
197049,17436,-16664,16772,-15996,3,-7,-8,-2,2,-39,109,3901,-8,3,829,1850,1916,2137,2347,2150,1908,1931,2061
198050,17448,-16680,16772,-15996,-10,11,-7,-1,1,-25,113,3859,-12,-1,828,1850,1916,2137,2347,2150,1908,1931,2061
199068,17452,-16680,16772,-15996,-5,1,-9,0,2,-25,114,3884,-6,-10,828,1850,1916,2137,2347,2150,1908,1931,2061
200052,17452,-16672,33156,388,78,76,-11,-1,4,-27,112,3902,5,4,828,1850,1916,2137,2347,2150,1908,1931,2061
201053,17448,-16668,33221,453,81,79,-7,-1,3,-24,123,3912,1,-8,828,1850,1916,2137,2347,2150,1908,1931,2061
202054,17444,-16672,33286,518,81,84,-6,-1,3,-13,107,3891,-11,2,827,1850,1916,2137,2347,2150,1908,1931,2061
203055,17444,-16672,33351,583,78,82,-8,-1,2,-28,106,3865,-12,-6,827,1849,1914,2137,2348,2148,1907,1931,2063
204056,17448,-16676,33416,648,76,85,-9,-1,2,-47,115,3882,-9,-6,826,1849,1914,2137,2348,2148,1907,1931,2063
205057,17452,-16668,33481,713,77,77,-9,-3,2,-48,132,3884,4,2,827,1849,1914,2137,2348,2148,1907,1931,2063
206058,17444,-16676,33546,778,84,87,-10,-2,4,-32,98,3915,-6,-1,827,1849,1914,2137,2348,2148,1907,1931,2063
207059,17448,-16672,33611,843,77,80,-9,1,5,-31,99,3889,-10,0,823,1849,1914,2137,2348,2148,1907,1931,2063
208060,17448,-16676,33676,908,79,85,-10,0,4,-23,115,3911,-7,-6,824,1849,1916,2136,2344,2148,1907,1930,2061
209061,17444,-16676,33741,973,82,83,-11,-1,4,-10,115,3861,-12,-3,826,1849,1916,2136,2344,2148,1907,1930,2061
210062,17436,-16672,33806,1038,84,81,-11,2,1,-20,99,3840,5,2,827,1849,1916,2136,2344,2148,1907,1930,2061
211063,17452,-16676,33871,1103,70,86,-13,0,2,-34,94,3913,-1,0,827,1849,1916,2136,2344,2148,1907,1930,2061
212064,17444,-16676,33936,1168,85,83,-12,-3,2,-42,105,3878,0,-1,826,1849,1916,2136,2344,2148,1907,1930,2061
213065,17440,-16676,34001,1233,83,83,-13,-4,2,-38,132,3858,-9,-8,827,1849,1916,2136,2344,2148,1907,1930,2061
214066,17440,-16680,34066,1298,80,86,-13,1,-1,-45,134,3886,-9,-2,827,1850,1916,2136,2345,2149,1908,1931,2062
215067,17448,-16672,34131,1363,75,79,-14,0,0,-40,114,3892,-11,4,827,1850,1916,2136,2345,2149,1908,1931,2062
216068,17444,-16664,34196,1428,83,79,-14,-2,1,-46,92,3916,-10,-5,827,1850,1916,2136,2345,2149,1908,1931,2062
217069,17456,-16680,34261,1493,74,94,-15,-8,-1,-21,96,3888,-12,-8,827,1850,1916,2136,2345,2149,1908,1931,2062
218070,17452,-16680,34326,1558,84,84,-12,-6,-1,-23,106,3849,-2,-3,827,1850,1916,2136,2345,2149,1908,1931,2062
219071,17456,-16680,34391,1623,79,84,-11,-2,2,-19,109,3859,-10,-8,827,1848,1916,2137,2347,2148,1907,1931,2062
220072,17448,-16680,34456,1688,86,84,-13,-1,0,-38,84,3837,-10,-1,827,1848,1916,2137,2347,2148,1907,1931,2062
221073,17440,-16672,34521,1753,86,79,-14,-1,1,-54,102,3873,-12,-5,827,1848,1916,2137,2347,2148,1907,1931,2062
222074,17448,-16660,34586,1818,76,78,-15,0,3,-47,129,3888,3,-6,826,1848,1916,2137,2347,2148,1907,1931,2062
223075,17424,-16668,34651,1883,97,90,-16,0,3,-61,89,3884,-11,5,827,1848,1916,2137,2347,2148,1907,1931,2062
224076,17444,-16664,34716,1948,70,83,-18,-1,1,-82,77,3905,-2,6,824,1848,1916,2137,2347,2148,1907,1931,2062
225077,17436,-16680,34781,2013,87,95,-18,-3,-1,-71,98,3889,6,-5,823,1849,1917,2137,2347,2147,1906,1930,2060
226078,17436,-16672,34846,2078,82,80,-15,-3,0,-79,116,3875,-12,1,826,1849,1917,2137,2347,2147,1906,1930,2060
227079,17448,-16676,34911,2143,75,88,-14,-1,-1,-48,100,3893,-12,-7,826,1849,1917,2137,2347,2147,1906,1930,2060
228080,17444,-16672,34976,2208,85,84,-13,-2,-1,-27,122,3930,-11,-8,827,1849,1917,2137,2347,2147,1906,1930,2060
229081,17448,-16660,35041,2273,80,79,-13,-3,0,-37,85,3903,2,-8,827,1849,1917,2137,2347,2147,1906,1930,2060
230082,17436,-16680,35106,2338,91,99,-14,-4,-1,-42,81,3875,-8,-8,827,1850,1917,2136,2347,2147,1907,1931,2061
231083,17448,-16668,35171,2403,76,79,-12,-2,-1,-39,92,3870,-10,-7,827,1850,1917,2136,2347,2147,1907,1931,2061
232084,17448,-16676,35236,2468,83,91,-13,0,0,-38,76,3872,-5,-6,827,1850,1917,2136,2347,2147,1907,1931,2061
233085,17448,-16668,35301,2533,83,81,-16,-1,0,-52,83,3878,-11,-4,827,1850,1917,2136,2347,2147,1907,1931,2061
234086,17444,-16684,35366,2598,86,97,-15,-1,-1,-54,81,3841,-9,-3,827,1850,1917,2136,2347,2147,1907,1931,2061
235087,17448,-16676,35431,2663,81,82,-10,-2,-1,-42,87,3878,-9,2,827,1850,1917,2136,2347,2147,1907,1931,2061
236088,17448,-16676,35496,2728,84,87,-11,-4,2,-58,125,3878,-10,-6,827,1850,1916,2136,2346,2147,1906,1931,2059
237089,17436,-16672,35561,2793,92,85,-12,-4,0,-31,110,3893,-11,3,827,1850,1916,2136,2346,2147,1906,1931,2059
238090,17440,-16664,35626,2858,82,82,-12,-2,0,-13,103,3916,-7,6,827,1850,1916,2136,2346,2147,1906,1931,2059
239091,17444,-16660,35691,2923,82,85,-9,-1,0,-60,94,3901,4,-6,827,1850,1916,2136,2346,2147,1906,1931,2059
240092,17456,-16660,35756,2988,77,87,-8,-3,-3,-48,117,3901,-12,-7,827,1850,1916,2136,2346,2147,1906,1931,2059
241093,17456,-16656,35821,3053,84,86,-8,-5,-3,-41,110,3881,2,-1,824,1850,1916,2136,2347,2147,1906,1931,2061
242094,17448,-16640,35886,3118,90,78,-12,-4,-3,-34,97,3890,-3,-3,823,1850,1916,2136,2347,2147,1906,1931,2061
243095,17456,-16648,35951,3183,80,93,-13,-2,-3,-33,102,3918,2,3,826,1850,1916,2136,2347,2147,1906,1931,2061
244096,17448,-16628,36016,3248,90,76,-15,0,0,-56,122,3888,-10,-5,826,1850,1916,2136,2347,2147,1906,1931,2061
245097,17452,-16636,36081,3313,83,93,-13,-2,2,-42,92,3911,-10,-7,826,1850,1916,2136,2347,2147,1906,1931,2061
246098,17444,-16636,36146,3378,90,88,-13,-5,1,-44,84,3895,-12,2,826,1850,1916,2136,2347,2147,1906,1931,2061
247099,17448,-16640,36211,3443,83,92,-12,-7,-3,-76,111,3891,-11,0,827,1848,1916,2136,2347,2147,1907,1932,2062
248100,17448,-16628,36276,3508,85,82,-11,-8,-3,-65,98,3890,-8,2,826,1848,1916,2136,2347,2147,1907,1932,2062
249101,17440,-16620,36341,3573,91,84,-13,-6,-3,-63,97,3892,4,6,827,1848,1916,2136,2347,2147,1907,1932,2062
250102,17452,-16636,36406,3638,79,99,-13,-5,0,-54,111,3908,-5,5,826,1848,1916,2136,2347,2147,1907,1932,2062
251103,17440,-16640,36471,3703,94,92,-11,-3,0,-51,95,3884,-12,0,827,1848,1916,2136,2347,2147,1907,1932,2062
252104,17444,-16620,36536,3768,84,77,-12,-5,-2,-31,91,3886,-12,3,826,1849,1916,2136,2346,2147,1907,1934,2064
253105,17440,-16624,36601,3833,89,92,-11,-7,0,-55,98,3928,-12,-6,827,1849,1916,2136,2346,2147,1907,1934,2064
254106,17444,-16628,36666,3898,84,93,-9,-7,0,-63,106,3884,-7,-1,826,1849,1916,2136,2346,2147,1907,1934,2064
255107,17440,-16620,36731,3963,90,85,-9,-6,2,-71,114,3897,-12,3,826,1849,1916,2136,2346,2147,1907,1934,2064
256108,17440,-16628,36796,4028,87,95,-8,-8,4,-61,97,3903,0,-9,827,1849,1916,2136,2346,2147,1907,1934,2064
257109,17452,-16628,36861,4093,80,90,-7,-8,4,-42,99,3880,-12,-10,824,1849,1916,2136,2346,2147,1907,1934,2064
258110,17452,-16636,36926,4158,87,95,-5,-7,3,-13,124,3908,-7,3,823,1849,1916,2136,2346,2147,1908,1932,2062
259111,17440,-16628,36991,4223,95,85,-5,-3,4,-28,127,3923,-2,-9,826,1849,1916,2136,2346,2147,1908,1932,2062
260112,17448,-16632,37056,4288,82,94,-7,-3,4,-44,112,3916,-11,-5,826,1849,1916,2136,2346,2147,1908,1932,2062
261113,17444,-16636,37121,4353,91,94,-8,-5,1,-39,130,3912,0,-4,826,1849,1916,2136,2346,2147,1908,1932,2062
262116,17444,-16624,37186,4418,88,84,-8,-3,-1,-38,132,3936,-9,-2,826,1849,1916,2136,2346,2147,1908,1932,2062
263115,17448,-16640,37251,4483,86,101,-9,-4,2,-51,117,3904,0,-8,826,1850,1917,2139,2346,2150,1908,1930,2060
264116,17452,-16644,37316,4548,86,94,-10,-4,3,-38,123,3848,-9,-5,826,1850,1917,2139,2346,2150,1908,1930,2060
265117,17440,-16628,37381,4613,96,81,-8,-4,2,-57,137,3857,-8,-7,826,1850,1917,2139,2346,2150,1908,1930,2060
266118,17448,-16628,37446,4678,83,92,-10,-5,2,-37,127,3866,-10,-3,827,1850,1917,2139,2346,2150,1908,1930,2060
267119,17448,-16628,37511,4743,88,92,-12,-7,5,-32,113,3835,-8,5,826,1850,1917,2139,2346,2150,1908,1930,2060
268120,17448,-16624,37576,4808,89,90,-12,-4,3,-40,97,3885,-8,5,826,1850,1917,2139,2346,2150,1908,1930,2060
269121,17444,-16628,37641,4873,92,95,-9,-2,3,-30,102,3863,4,0,826,1850,1916,2137,2347,2150,1908,1930,2061
270122,17440,-16640,37706,4938,92,100,-9,-3,3,-28,112,3845,6,4,826,1850,1916,2137,2347,2150,1908,1930,2061
271123,17440,-16624,37771,5003,89,82,-9,-4,5,-28,130,3868,-12,5,826,1850,1916,2137,2347,2150,1908,1930,2061
272124,17440,-16624,37836,5068,89,92,-10,-2,4,-15,123,3901,-11,-8,827,1850,1916,2137,2347,2150,1908,1930,2061
273125,17448,-16636,37901,5133,84,101,-7,2,3,-28,117,3888,-11,5,826,1850,1916,2137,2347,2150,1908,1930,2061
274126,17448,-16632,37966,5198,90,91,-7,2,4,-35,142,3895,-11,-3,824,1848,1916,2137,2343,2150,1908,1930,2061
275127,17452,-16628,38031,5263,88,91,-7,2,4,-59,108,3880,-11,3,822,1848,1916,2137,2343,2150,1908,1930,2061
276128,17448,-16620,38096,5328,93,88,-7,1,4,-49,122,3892,3,3,826,1848,1916,2137,2343,2150,1908,1930,2061
277129,17444,-16632,38161,5393,93,101,-8,0,4,-42,135,3899,2,4,827,1848,1916,2137,2343,2150,1908,1930,2061
278130,17444,-16628,38226,5458,90,91,-9,1,3,-3,120,3873,-11,-6,826,1848,1916,2137,2343,2150,1908,1930,2061
279131,17444,-16636,38291,5523,90,99,-12,-1,3,-26,125,3909,-12,-8,826,1848,1916,2137,2343,2150,1908,1930,2061
280132,17444,-16628,38356,5588,91,89,-13,0,2,-14,119,3921,-9,-9,826,1848,1915,2133,2347,2150,1908,1931,2061
281133,17444,-16632,38421,5653,91,97,-14,-1,-1,-31,108,3916,-3,3,826,1848,1915,2133,2347,2150,1908,1931,2061
282134,17440,-16624,38486,5718,94,89,-15,-3,-1,-49,102,3848,-10,-4,826,1848,1915,2133,2347,2150,1908,1931,2061
283135,17448,-16624,38551,5783,86,94,-12,-1,-1,-41,137,3872,-11,-5,826,1848,1915,2133,2347,2150,1908,1931,2061
284136,17444,-16628,38616,5848,94,97,-12,1,-1,-40,118,3878,6,4,826,1848,1915,2133,2347,2150,1908,1931,2061
285137,17444,-16620,38681,5913,91,90,-12,2,-1,-40,110,3885,-10,-1,826,1848,1916,2133,2347,2150,1908,1931,2063
286138,17448,-16628,38746,5978,89,100,-13,0,-1,-30,112,3895,-10,-7,826,1848,1916,2133,2347,2150,1908,1931,2063
287139,17436,-16628,38811,6043,100,95,-13,1,0,-30,96,3916,-11,-1,826,1848,1916,2133,2347,2150,1908,1931,2063
288140,17440,-16624,38876,6108,90,93,-14,0,1,-39,95,3905,-10,0,826,1848,1916,2133,2347,2150,1908,1931,2063
289141,17448,-16620,38941,6173,87,93,-11,-2,3,-23,119,3886,-9,-8,826,1848,1916,2133,2347,2150,1908,1931,2063
290142,17444,-16620,39006,6238,95,95,-12,-4,5,-13,100,3917,-11,-5,827,1848,1916,2133,2347,2150,1908,1931,2063
291143,17444,-16628,39071,6303,92,100,-12,-4,4,-31,116,3912,4,-7,823,1848,1916,2137,2348,2152,1908,1931,2062
292144,17440,-16636,39136,6368,95,101,-13,-1,1,-32,128,3887,-9,-8,824,1848,1916,2137,2348,2152,1908,1931,2062
293145,17444,-16632,39201,6433,91,94,-15,-3,2,-33,114,3890,-10,5,826,1848,1916,2137,2348,2152,1908,1931,2062
294146,17444,-16632,39266,6498,93,96,-14,-8,2,-42,112,3936,-4,-1,826,1848,1916,2137,2348,2152,1908,1931,2062
295147,17440,-16636,39331,6563,96,99,-14,-7,1,-38,115,3924,4,-6,826,1848,1916,2137,2348,2152,1908,1931,2062
296148,17440,-16624,39396,6628,93,89,-15,-7,-1,-14,114,3915,-4,4,826,1849,1915,2139,2348,2149,1907,1931,2062
297149,17440,-16628,39461,6693,93,99,-17,-4,-3,-3,123,3915,-2,4,826,1849,1915,2139,2348,2149,1907,1931,2062
298150,17460,-16624,39526,6758,81,95,-19,-3,-3,-10,115,3899,-10,-9,826,1849,1915,2139,2348,2149,1907,1931,2062
299151,17448,-16624,39591,6823,102,97,-16,-2,-4,-40,113,3870,-12,-2,826,1849,1915,2139,2348,2149,1907,1931,2062
300152,17452,-16632,39656,6888,92,102,-15,-3,-2,-59,99,3921,-9,-7,826,1849,1915,2139,2348,2149,1907,1931,2062
301153,17440,-16624,39721,6953,102,92,-15,-3,-2,-53,114,3930,-7,5,826,1849,1915,2139,2348,2149,1907,1931,2062
302154,17452,-16632,39786,7018,87,102,-16,-4,-1,-41,101,3900,-5,-6,826,1849,1915,2140,2348,2148,1907,1931,2062
303155,17444,-16616,39851,7083,99,87,-18,-4,-2,-50,116,3916,-1,4,826,1849,1915,2140,2348,2148,1907,1931,2062
304156,17448,-16624,39916,7148,92,103,-15,-3,0,-41,111,3913,-10,-8,826,1849,1915,2140,2348,2148,1907,1931,2062
305157,17436,-16640,39981,7213,103,108,-13,-3,-1,-46,120,3921,-12,4,826,1849,1915,2140,2348,2148,1907,1931,2062
306158,17448,-16632,40046,7278,88,93,-12,-2,-3,-37,120,3894,-11,-9,826,1849,1915,2140,2348,2148,1907,1931,2062
307159,17440,-16620,40111,7343,100,91,-14,-1,1,-50,121,3867,-7,4,826,1849,1915,2140,2348,2148,1907,1931,2061
308160,17452,-16632,40176,7408,88,106,-16,-3,2,-39,94,3890,-6,4,824,1849,1915,2140,2348,2148,1907,1931,2061
309161,17444,-16636,40241,7473,100,101,-17,-3,-1,-35,100,3909,-11,-7,823,1849,1915,2140,2348,2148,1907,1931,2061
310162,17448,-16632,40306,7538,93,97,-15,-5,1,-37,100,3914,-10,5,826,1849,1915,2140,2348,2148,1907,1931,2061
311163,17448,-16636,40371,7603,95,102,-12,-6,2,-40,99,3903,6,-8,826,1849,1915,2140,2348,2148,1907,1931,2061
312164,17452,-16624,40436,7668,94,92,-11,-3,2,-47,109,3909,-4,-7,826,1849,1915,2140,2348,2148,1907,1931,2061
313165,17444,-16628,40501,7733,101,102,-12,0,2,-59,110,3884,5,4,826,1847,1917,2139,2348,2147,1906,1931,2061
314166,17448,-16632,40566,7798,94,102,-13,2,3,-49,97,3889,5,-1,826,1847,1917,2139,2348,2147,1906,1931,2061
315167,17448,-16620,40631,7863,96,92,-11,1,1,-54,111,3899,-2,5,826,1847,1917,2139,2348,2147,1906,1931,2061
316168,17444,-16644,40696,7928,99,114,-13,0,0,-50,95,3872,-8,-8,826,1847,1917,2139,2348,2147,1906,1931,2061
317169,17444,-16632,40761,7993,96,93,-12,-2,2,-29,117,3898,-11,4,826,1847,1917,2139,2348,2147,1906,1931,2061
318170,17448,-16624,40826,8058,95,95,-10,-1,0,-41,119,3915,-4,-3,826,1847,1918,2137,2346,2146,1906,1930,2062
319171,17456,-16628,40891,8123,92,103,-9,-1,-1,-56,107,3929,-1,-3,826,1847,1918,2137,2346,2146,1906,1930,2062
320172,17444,-16636,40956,8188,105,105,-10,2,2,-31,105,3905,-4,-6,826,1847,1918,2137,2346,2146,1906,1930,2062
321173,17436,-16628,41021,8253,102,95,-11,1,4,-50,95,3906,-11,-7,826,1847,1918,2137,2346,2146,1906,1930,2062
322174,17452,-16632,41086,8318,87,103,-11,-2,1,-38,107,3878,-9,-8,826,1847,1918,2137,2346,2146,1906,1930,2062
323175,17460,-16620,41151,8383,92,94,-13,-3,0,-30,101,3864,-7,-5,826,1847,1918,2137,2346,2146,1906,1930,2062
324176,17452,-16628,41216,8448,103,106,-11,-2,4,-46,92,3878,-9,-6,826,1850,1918,2136,2345,2147,1907,1931,2062
325177,17444,-16640,41281,8513,103,109,-8,-1,3,-15,90,3889,6,4,824,1850,1918,2136,2345,2147,1907,1931,2062
326178,17452,-16632,41346,8578,93,96,-7,0,3,-20,100,3927,-11,-3,822,1850,1918,2136,2345,2147,1907,1931,2062
327179,17448,-16628,41411,8643,101,99,-7,-2,5,-42,93,3868,-9,-1,825,1850,1918,2136,2345,2147,1907,1931,2062
328180,17444,-16632,41476,8708,101,104,-7,-2,7,-52,94,3862,7,-7,826,1850,1918,2136,2345,2147,1907,1931,2062
329181,17448,-16624,41541,8773,96,97,-6,-2,5,-36,79,3873,-12,-8,825,1849,1916,2136,2344,2145,1904,1930,2060
330182,17440,-16624,41606,8838,103,102,-6,-1,6,-27,130,3882,-11,-2,826,1849,1916,2136,2344,2145,1904,1930,2060
331183,17448,-16636,41671,8903,94,110,-9,-2,2,-34,96,3887,-12,-5,825,1849,1916,2136,2344,2145,1904,1930,2060
332184,17440,-16624,41736,8968,104,95,-11,-6,2,-18,100,3918,-11,-9,826,1849,1916,2136,2344,2145,1904,1930,2060
333185,17444,-16632,41801,9033,97,107,-10,-7,1,-18,103,3918,-2,1,826,1849,1916,2136,2344,2145,1904,1930,2060
334186,17440,-16628,41866,9098,102,100,-8,-4,-1,-39,134,3902,-9,4,825,1849,1916,2136,2344,2145,1904,1930,2060
335187,17452,-16632,41931,9163,92,105,-8,-2,-1,-42,133,3895,-2,-10,826,1850,1916,2137,2346,2148,1907,1930,2060
336188,17444,-16628,41996,9228,104,101,-8,0,0,-23,118,3888,6,-2,825,1850,1916,2137,2346,2148,1907,1930,2060
337189,17452,-16624,42061,9293,95,101,-7,-1,4,-3,105,3872,-2,2,825,1850,1916,2137,2346,2148,1907,1930,2060
338190,17444,-16632,42126,9358,105,108,-9,-4,4,-43,111,3867,-11,-5,825,1850,1916,2137,2346,2148,1907,1930,2060
339191,17444,-16620,42191,9423,100,96,-10,-7,2,-40,104,3853,-11,5,825,1850,1916,2137,2346,2148,1907,1930,2060
340192,17456,-16628,42256,9488,93,108,-8,-6,3,-41,100,3927,-11,5,826,1849,1917,2137,2346,2149,1908,1931,2061
341193,17444,-16616,42321,9553,108,96,-7,-6,2,-35,114,3910,-5,-5,825,1849,1917,2137,2346,2149,1908,1931,2061
342194,17448,-16628,42386,9618,98,112,-8,-7,0,-26,110,3861,-9,-8,824,1849,1917,2137,2346,2149,1908,1931,2061
343195,17452,-16620,42451,9683,99,99,-6,-7,1,-33,119,3895,-6,0,822,1849,1917,2137,2346,2149,1908,1931,2061
344196,17448,-16624,42516,9748,104,107,-6,-3,2,-48,103,3881,-7,-8,825,1849,1917,2137,2346,2149,1908,1931,2061
345197,17444,-16636,42581,9813,104,112,-10,0,0,-30,104,3906,-8,5,826,1849,1917,2137,2346,2149,1908,1931,2061
346198,17452,-16620,42646,9878,96,94,-10,-1,-2,-10,90,3869,-12,-6,825,1848,1916,2137,2347,2148,1907,1931,2063
347199,17444,-16628,42711,9943,106,109,-12,-4,-1,-22,94,3868,3,-5,826,1848,1916,2137,2347,2148,1907,1931,2063
348200,17444,-16620,42776,10008,101,100,-13,-5,1,-19,112,3849,-6,-2,825,1848,1916,2137,2347,2148,1907,1931,2063
349201,17452,-16632,42841,10073,96,113,-11,-3,1,-47,120,3867,-3,2,826,1848,1916,2137,2347,2148,1907,1931,2063
350202,17444,-16636,42906,10138,107,108,-10,-2,1,-57,109,3898,6,-9,826,1848,1916,2137,2347,2148,1907,1931,2063
351203,17432,-16628,42971,10203,110,100,-10,-2,2,-44,129,3877,-8,-7,826,1849,1916,2137,2346,2147,1907,1930,2062
352204,17444,-16624,43036,10268,95,103,-12,-2,-1,-11,137,3882,-9,-6,825,1849,1916,2137,2346,2147,1907,1930,2062
353205,17456,-16628,43101,10333,95,108,-12,-4,-2,-41,126,3877,-6,-9,826,1849,1916,2137,2346,2147,1907,1930,2062
354206,17436,-16628,43166,10398,115,105,-11,-3,1,-58,133,3877,-11,3,826,1849,1916,2137,2346,2147,1907,1930,2062
355207,17440,-16624,43231,10463,100,104,-9,-2,0,-42,108,3919,0,-1,826,1849,1916,2137,2346,2147,1907,1930,2062
356208,17444,-16624,43296,10528,101,106,-12,-1,-1,-10,100,3900,-11,-8,826,1849,1916,2137,2346,2147,1907,1930,2062
357209,17440,-16628,43361,10593,106,109,-11,0,1,-29,89,3900,-8,3,826,1849,1916,2136,2345,2149,1906,1931,2059
358210,17444,-16624,43426,10658,101,104,-11,1,4,-41,94,3904,-11,-5,826,1849,1916,2136,2345,2149,1906,1931,2059
359211,17452,-16628,43491,10723,98,109,-13,2,4,-32,105,3865,-9,-9,825,1849,1916,2136,2345,2149,1906,1931,2059
360212,17456,-16632,43556,10788,101,109,-14,3,1,-25,95,3858,-11,3,823,1849,1916,2136,2345,2149,1906,1931,2059
361213,17444,-16616,43621,10853,111,97,-15,0,1,-52,122,3872,2,0,826,1849,1916,2136,2345,2149,1906,1931,2059
362214,17436,-16636,43686,10918,109,120,-15,-2,2,-54,121,3883,-11,4,826,1848,1915,2135,2346,2147,1908,1930,2063
363215,17452,-16640,43751,10983,94,110,-14,-2,2,-35,105,3875,4,-2,825,1848,1915,2135,2346,2147,1908,1930,2063
364216,17448,-16624,43816,11048,107,97,-14,-4,1,-52,124,3863,-5,-2,826,1848,1915,2135,2346,2147,1908,1930,2063
365217,17444,-16624,43881,11113,107,107,-13,-2,4,-23,110,3858,-9,4,826,1848,1915,2135,2346,2147,1908,1930,2063
366218,17432,-16632,43946,11178,112,112,-14,-1,3,-24,86,3870,-7,-2,826,1848,1915,2135,2346,2147,1908,1930,2063
367219,17456,-16624,44011,11243,89,103,-15,1,1,-39,105,3856,-9,-2,826,1848,1915,2135,2346,2147,1908,1930,2063
368220,17440,-16636,44076,11308,115,116,-18,-3,2,-53,106,3849,-11,-8,826,1848,1916,2137,2346,2149,1905,1932,2064
369221,17452,-16624,44141,11373,98,101,-18,-6,1,-45,113,3863,-3,3,826,1848,1916,2137,2346,2149,1905,1932,2064
370222,17440,-16616,44206,11438,113,103,-15,-3,-3,-38,99,3862,-12,-1,826,1848,1916,2137,2346,2149,1905,1932,2064
371223,17444,-16632,44271,11503,103,118,-17,-2,1,-34,95,3900,-10,2,826,1848,1916,2137,2346,2149,1905,1932,2064
372224,17444,-16628,44336,11568,105,106,-13,-1,4,-42,95,3907,0,-8,826,1848,1916,2137,2346,2149,1905,1932,2064
373225,17444,-16624,44401,11633,105,106,-14,0,2,-8,130,3895,-12,-8,826,1850,1917,2137,2345,2149,1908,1931,2063
374226,17460,-16632,44466,11698,95,114,-14,0,-1,-53,121,3892,-10,-8,826,1850,1917,2137,2345,2149,1908,1931,2063
375227,17444,-16628,44531,11763,116,107,-12,-2,0,-51,104,3925,0,5,826,1850,1917,2137,2345,2149,1908,1931,2063
376228,17444,-16628,44596,11828,106,109,-10,-5,0,-39,121,3929,2,-9,827,1850,1917,2137,2345,2149,1908,1931,2063
377229,17452,-16628,44661,11893,101,109,-11,-6,2,-38,121,3894,3,-7,823,1850,1917,2137,2345,2149,1908,1931,2063
378230,17448,-16624,44726,11958,109,107,-11,-6,3,-38,128,3923,5,-9,826,1850,1917,2137,2345,2149,1908,1931,2063
379231,17452,-16632,44791,12023,104,114,-10,-4,1,-30,102,3906,-9,-5,826,1848,1917,2135,2348,2148,1906,1930,2061
380232,17452,-16620,44856,12088,106,103,-9,-5,1,-27,103,3892,-12,3,826,1848,1917,2135,2348,2148,1906,1930,2061
381233,17440,-16636,44921,12153,115,120,-11,-6,0,-15,138,3903,1,0,826,1848,1917,2135,2348,2148,1906,1930,2061
382234,17444,-16628,44986,12218,105,105,-14,-3,2,-20,117,3912,-7,-7,826,1848,1917,2135,2348,2148,1906,1930,2061
383235,17452,-16628,45051,12283,102,110,-13,-1,3,-39,115,3928,3,-8,826,1848,1917,2135,2348,2148,1906,1930,2061
384236,17444,-16624,45116,12348,112,108,-15,0,1,-53,96,3926,-3,-9,826,1847,1918,2140,2348,2147,1906,1930,2062
385237,17448,-16628,45181,12413,105,113,-12,-1,2,-59,106,3888,4,3,826,1847,1918,2140,2348,2147,1906,1930,2062
386238,17448,-16628,45246,12478,107,111,-10,0,0,-47,109,3881,-3,-9,826,1847,1918,2140,2348,2147,1906,1930,2062
387239,17448,-16632,45311,12543,108,114,-8,-2,0,-41,100,3889,3,4,826,1847,1918,2140,2348,2147,1906,1930,2062
388240,17440,-16632,45376,12608,113,111,-9,-2,-1,-14,105,3872,2,0,826,1847,1918,2140,2348,2147,1906,1930,2062
389241,17444,-16620,45441,12673,106,104,-9,-2,0,-30,108,3883,-12,-6,826,1847,1918,2140,2348,2147,1906,1930,2062
390242,17448,-16636,45506,12738,106,121,-9,-2,2,-63,97,3886,-11,1,826,1852,1918,2137,2348,2147,1907,1930,2062
391243,17436,-16632,45571,12803,116,109,-10,-3,-1,-49,81,3878,4,4,826,1852,1918,2137,2348,2147,1907,1930,2062
392244,17440,-16624,45636,12868,106,107,-11,-2,0,-34,98,3908,6,-8,826,1852,1918,2137,2348,2147,1907,1930,2062
393245,17448,-16632,45701,12933,103,117,-10,-4,2,-28,123,3881,6,0,825,1852,1918,2137,2348,2147,1907,1930,2062
394246,17452,-16644,45766,12998,107,120,-7,-3,3,-46,118,3899,-11,4,823,1852,1918,2137,2348,2147,1907,1930,2062
395247,17444,-16632,45831,13063,114,105,-7,-4,0,-47,134,3879,7,-9,826,1848,1916,2136,2347,2148,1907,1931,2061
396248,17444,-16628,45896,13128,109,110,-8,-1,-1,-42,116,3888,-12,-9,826,1848,1916,2136,2347,2148,1907,1931,2061
397249,17436,-16632,45961,13193,114,115,-9,-1,-1,-61,106,3926,-10,0,826,1848,1916,2136,2347,2148,1907,1931,2061
398250,17432,-16616,46026,13258,112,102,-9,-1,0,-61,100,3917,-12,-4,826,1848,1916,2136,2347,2148,1907,1931,2061
399251,17440,-16636,46091,13323,104,126,-10,-1,0,-51,112,3894,3,1,827,1848,1916,2136,2347,2148,1907,1931,2061
400252,17440,-16616,46156,13388,110,101,-12,0,2,-45,107,3891,4,-1,826,1848,1916,2136,2346,2148,1907,1931,2061
401253,17444,-16620,46221,13453,108,116,-10,-2,2,-46,119,3880,-6,1,827,1848,1916,2136,2346,2148,1906,1930,2062
402254,17448,-16628,46286,13518,108,118,-8,-4,1,-28,81,3908,-6,-6,827,1848,1916,2136,2346,2148,1906,1930,2062
403255,17452,-16632,46351,13583,108,116,-9,-2,2,-43,95,3902,-1,-6,826,1848,1916,2136,2346,2148,1906,1930,2062
404256,17444,-16632,46416,13648,115,113,-10,-1,3,-46,96,3874,-3,0,827,1848,1916,2136,2346,2148,1906,1930,2062
405257,17452,-16620,46481,13713,105,107,-11,-4,2,-25,73,3869,2,5,827,1848,1916,2136,2346,2148,1906,1930,2062
406258,17448,-16632,46546,13778,114,122,-11,-5,3,-34,95,3874,-11,-7,827,1849,1917,2138,2346,2148,1907,1931,2062
407259,17448,-16632,46611,13843,111,114,-10,-2,4,-63,83,3883,-10,-5,827,1849,1917,2138,2346,2148,1907,1931,2062
408260,17452,-16632,46676,13908,109,114,-8,-2,3,-53,81,3875,7,-9,827,1849,1917,2138,2346,2148,1907,1931,2062
409261,17440,-16628,46741,13973,119,112,-9,-3,3,-29,109,3894,-9,-3,827,1849,1917,2138,2346,2148,1907,1931,2062
410262,17448,-16624,46806,14038,106,112,-10,-6,4,-4,132,3862,-11,-8,826,1849,1917,2138,2346,2148,1907,1931,2062
411263,17452,-16632,46871,14103,109,120,-11,-4,5,-35,101,3876,-10,-9,823,1846,1914,2134,2342,2145,1905,1929,2061
412264,17448,-16628,46936,14168,114,113,-10,-2,3,-37,118,3889,-11,-2,826,1846,1914,2134,2342,2145,1905,1929,2061
413265,17444,-16636,47001,14233,115,120,-11,-1,2,-36,117,3864,5,-8,827,1846,1914,2134,2342,2145,1905,1929,2061
414266,17452,-16636,47066,14298,107,115,-10,-4,4,-25,109,3869,-11,3,827,1846,1914,2134,2342,2145,1905,1929,2061
415267,17436,-16628,47131,14363,122,110,-10,-4,2,-15,124,3897,6,1,827,1846,1914,2134,2342,2145,1905,1929,2061
416268,17448,-16628,47196,14428,105,115,-13,0,2,-39,129,3892,0,-9,827,1846,1914,2134,2342,2145,1905,1929,2061
417269,17440,-16624,47261,14493,117,113,-13,-1,2,-34,120,3893,7,-4,827,1848,1915,2134,2345,2147,1906,1930,2060
418270,17444,-16632,47326,14558,110,121,-13,-3,3,-39,105,3891,-7,-6,827,1848,1915,2134,2345,2147,1906,1930,2060
419271,17440,-16628,47391,14623,116,114,-12,-3,3,-49,120,3862,-10,2,827,1848,1915,2134,2345,2147,1906,1930,2060
420272,17440,-16628,47456,14688,113,116,-10,-5,3,-42,127,3870,-8,-9,826,1848,1915,2134,2345,2147,1906,1930,2060
421273,17440,-16628,47521,14753,113,116,-12,-5,2,-57,119,3889,-8,3,827,1848,1915,2134,2345,2147,1906,1930,2060
422274,17448,-16640,47586,14818,108,124,-9,-3,0,-34,117,3893,-8,-6,827,1849,1916,2136,2346,2147,1907,1930,2061
423275,17460,-16620,47651,14883,106,104,-9,-3,1,-42,113,3892,-12,-8,827,1849,1916,2136,2346,2147,1907,1930,2061
424276,17444,-16632,47716,14948,123,125,-9,-3,3,-38,126,3866,-10,-10,827,1849,1916,2136,2346,2147,1907,1930,2061
425277,17444,-16636,47781,15013,114,120,-12,-4,1,-62,124,3865,-8,1,826,1849,1916,2136,2346,2147,1907,1930,2061
426278,17456,-16628,47846,15078,107,112,-13,-4,3,-52,127,3875,-9,-8,826,1849,1916,2136,2346,2147,1907,1930,2061
427279,17444,-16632,47911,15143,122,120,-9,-3,1,-54,116,3861,-12,-10,827,1849,1916,2136,2346,2147,1907,1930,2061
428280,17456,-16636,47976,15208,107,120,-8,-2,1,-39,121,3856,-11,0,823,1848,1916,2136,2346,2147,1906,1930,2063
429281,17444,-16620,48041,15273,122,107,-11,-1,0,-43,138,3877,-11,-8,827,1848,1916,2136,2346,2147,1906,1930,2063
430282,17440,-16628,48106,15338,117,123,-11,-2,-1,-26,118,3870,6,-8,827,1848,1916,2136,2346,2147,1906,1930,2063
431283,17456,-16632,48171,15403,104,121,-12,-4,1,-18,131,3884,6,-8,826,1848,1916,2136,2346,2147,1906,1930,2063
432284,17444,-16636,48236,15468,123,121,-11,-5,2,-38,128,3900,-12,-9,827,1848,1916,2136,2346,2147,1906,1930,2063
433285,17452,-16624,48301,15533,110,111,-12,-4,1,-27,113,3900,5,-7,827,1848,1917,2137,2347,2147,1906,1931,2059
434286,17448,-16628,48366,15598,118,121,-13,-1,2,-55,127,3893,-11,-9,827,1848,1917,2137,2347,2147,1906,1931,2059
435287,17448,-16624,48431,15663,115,116,-14,-1,2,-40,143,3900,-11,-8,827,1848,1917,2137,2347,2147,1906,1931,2059
436288,17452,-16632,48496,15728,113,124,-14,-2,0,-46,127,3892,-8,-8,827,1848,1917,2137,2347,2147,1906,1931,2059
437289,17448,-16636,48561,15793,118,122,-13,-1,-1,-47,145,3889,5,-9,826,1848,1917,2137,2347,2147,1906,1931,2059
438290,17456,-16636,48626,15858,111,119,-12,0,1,-35,109,3914,-11,-5,827,1848,1917,2137,2347,2147,1906,1931,2059
439291,17448,-16632,48691,15923,121,117,-10,1,-1,-25,119,3889,-12,-8,827,1848,1917,2137,2347,2149,1907,1929,2064
440292,17448,-16616,48756,15988,116,109,-13,-1,-2,-27,128,3869,-11,-9,827,1848,1917,2137,2347,2149,1907,1929,2064
441293,17460,-16628,48821,16053,109,127,-15,-9,-2,-51,127,3876,-11,-7,826,1848,1917,2137,2347,2149,1907,1929,2064
442294,17444,-16632,48886,16118,126,122,-17,-16,-1,-37,133,3857,-11,-1,826,1848,1917,2137,2347,2149,1907,1929,2064
443295,17448,-16628,48951,16183,114,118,-17,-24,-2,-29,152,3791,4,-5,826,1848,1917,2137,2347,2149,1907,1929,2064
444296,17444,-16636,49016,16248,120,125,-20,-26,-2,-74,158,3724,-12,-9,827,1849,1915,2135,2351,2156,1918,1941,2076
445297,17444,-16640,49081,16313,117,123,-27,-36,0,-90,189,3581,-11,-1,823,1849,1915,2135,2351,2156,1918,1941,2076
446298,17444,-16640,49146,16378,117,120,-32,-41,-5,-47,204,3588,-10,-3,826,1849,1915,2135,2351,2156,1918,1941,2076
447299,17448,-16624,49211,16443,115,110,-34,-50,-8,-11,225,3479,-7,-9,827,1849,1915,2135,2351,2156,1918,1941,2076
448300,17444,-16624,49276,16508,120,120,-36,-58,-10,3,242,3483,5,-9,826,1849,1915,2135,2351,2156,1918,1941,2076
449301,17444,-16632,49540,16772,118,126,-41,-64,-12,-37,263,3498,-12,4,827,1849,1915,2135,2351,2156,1918,1941,2076
450302,17444,-16632,49605,16837,118,121,-42,-66,-12,-11,252,3449,-2,-5,826,1883,1949,2175,2412,2210,1968,1987,2121
451303,17452,-16612,49670,16902,113,109,-40,-74,-10,-15,259,3382,-8,5,826,1883,1949,2175,2412,2210,1968,1987,2121
452304,17460,-16632,49735,16967,113,135,-41,-83,-14,-22,244,3370,-5,-7,827,1883,1949,2175,2412,2210,1968,1987,2121
453305,17440,-16640,49800,17032,132,127,-40,-92,-18,-21,247,3462,-9,1,827,1883,1949,2175,2412,2210,1968,1987,2121
454306,17444,-16624,49865,17097,117,112,-39,-96,-21,-40,248,3411,-11,0,826,1883,1949,2175,2412,2210,1968,1987,2121
455307,17444,-16624,49930,17162,119,122,-37,-117,-25,-112,233,3398,-8,-2,827,1927,1990,2232,2481,2258,2022,2033,2166
456308,17452,-16628,49995,17227,114,125,-33,-138,-28,-104,192,3420,-11,-9,826,1927,1990,2232,2481,2258,2022,2033,2166
457309,17440,-16640,50060,17292,127,130,-33,-151,-29,-71,149,3469,-10,-4,826,1927,1990,2232,2481,2258,2022,2033,2166
458310,17444,-16632,50125,17357,117,117,-29,-154,-28,8,110,3459,-9,-6,826,1927,1990,2232,2481,2258,2022,2033,2166
459311,17444,-16636,50190,17422,119,126,-26,-160,-36,24,111,3420,-10,-1,826,1927,1990,2232,2481,2258,2022,2033,2166
460312,17448,-16624,50255,17487,118,116,-19,-165,-40,40,68,3332,2,-9,827,1927,1990,2232,2481,2258,2022,2033,2166
461313,17444,-16632,50320,17552,123,128,-12,-162,-42,53,39,3366,-11,-7,826,1992,2046,2314,2587,2331,2105,2099,2237
462314,17448,-16640,50385,17617,118,128,-6,-169,-42,24,0,3316,-1,-4,823,1992,2046,2314,2587,2331,2105,2099,2237
463315,17452,-16636,50450,17682,118,121,1,-177,-46,-38,-9,3299,-11,-4,826,1992,2046,2314,2587,2331,2105,2099,2237
464316,17444,-16648,50515,17747,125,131,12,-189,-44,-39,-42,3263,1,4,826,1992,2046,2314,2587,2331,2105,2099,2237
465317,17448,-16640,50580,17812,118,119,24,-193,-41,21,-89,3320,-4,-9,826,1992,2046,2314,2587,2331,2105,2099,2237
466318,17448,-16640,50645,17877,121,124,42,-192,-32,37,-47,3394,1,-9,826,2089,2137,2442,2745,2424,2199,2166,2295
467319,17440,-16636,50710,17942,126,122,52,-197,-30,-105,51,3544,7,-9,826,2089,2137,2442,2745,2424,2199,2166,2295
468320,17452,-16636,50775,18007,114,124,57,-207,-32,-184,49,3561,-9,-8,826,2089,2137,2442,2745,2424,2199,2166,2295
469321,17448,-16632,50840,18072,124,122,61,-218,-31,-205,68,3835,-11,-9,826,2089,2137,2442,2745,2424,2199,2166,2295
470322,17444,-16640,50905,18137,124,129,64,-228,-33,-274,156,4070,4,-10,827,2089,2137,2442,2745,2424,2199,2166,2295
471323,17444,-16632,50970,18202,121,120,65,-220,-37,-294,158,4366,-8,-1,827,2089,2137,2442,2745,2424,2199,2166,2295
472324,17440,-16632,51035,18267,125,125,64,-200,-45,-222,203,4594,-8,-9,826,2137,2169,2475,2778,2426,2192,2149,2263
473325,17448,-16628,51100,18332,117,123,64,-180,-56,-237,216,4791,5,-9,826,2137,2169,2475,2778,2426,2192,2149,2263
474326,17436,-16636,51165,18397,130,130,64,-154,-67,-219,252,5051,-7,-8,826,2137,2169,2475,2778,2426,2192,2149,2263
475327,17452,-16636,51230,18462,112,125,65,-116,-74,-225,269,5256,2,-4,826,2137,2169,2475,2778,2426,2192,2149,2263
476328,17448,-16632,51295,18527,125,123,66,-75,-81,-210,215,5374,-2,-4,827,2137,2169,2475,2778,2426,2192,2149,2263
477329,17452,-16648,51360,18592,120,136,63,-38,-88,-202,203,5450,-12,-9,826,2077,2112,2398,2683,2380,2141,2109,2236
478330,17444,-16636,51425,18657,127,119,60,-4,-91,-213,199,5479,-1,-9,826,2077,2112,2398,2683,2380,2141,2109,2236
479331,17452,-16636,51490,18722,118,126,58,41,-88,-179,156,5478,-7,1,823,2077,2112,2398,2683,2380,2141,2109,2236
480332,17448,-16636,51555,18787,126,126,54,81,-83,-170,103,5287,-10,-8,826,2077,2112,2398,2683,2380,2141,2109,2236
481333,17440,-16636,51620,18852,128,126,48,111,-75,-198,66,5154,-11,-9,826,2077,2112,2398,2683,2380,2141,2109,2236
482334,17444,-16624,51685,18917,121,119,42,127,-64,-189,32,4941,-5,-6,827,2077,2112,2398,2683,2380,2141,2109,2236
483335,17444,-16628,51750,18982,123,129,32,134,-52,-148,10,4723,-12,-8,826,2037,2090,2377,2658,2411,2167,2146,2282
484336,17456,-16640,51815,19047,116,135,22,132,-44,-119,-53,4493,-10,-9,826,2037,2090,2377,2658,2411,2167,2146,2282
485337,17448,-16644,51880,19112,129,130,13,130,-34,-57,-83,4378,-11,-5,826,2037,2090,2377,2658,2411,2167,2146,2282
486338,17448,-16636,51945,19177,124,122,2,126,-26,-9,-121,4135,-10,-8,826,2037,2090,2377,2658,2411,2167,2146,2282
487340,17452,-16632,52010,19242,122,125,-8,120,-22,39,-123,3996,0,-4,827,2037,2090,2377,2658,2411,2167,2146,2282
488340,17444,-16640,52075,19307,129,132,-18,112,-23,119,-125,3898,0,-8,826,2054,2109,2397,2671,2451,2200,2164,2301
489341,17456,-16632,52140,19372,117,122,-25,109,-22,164,-125,3873,-6,5,827,2054,2109,2397,2671,2451,2200,2164,2301
490342,17456,-16636,52205,19437,124,131,-31,98,-21,194,-131,3741,-12,-7,827,2054,2109,2397,2671,2451,2200,2164,2301
491343,17448,-16628,52270,19502,130,123,-39,78,-24,207,-90,3766,-12,-9,827,2054,2109,2397,2671,2451,2200,2164,2301
492344,17440,-16624,52335,19567,130,126,-44,61,-25,203,-68,3745,-12,-6,827,2054,2109,2397,2671,2451,2200,2164,2301
493345,17444,-16636,52400,19632,123,136,-51,40,-26,203,-65,3729,-10,-8,826,2054,2109,2397,2671,2451,2200,2164,2301
494346,17448,-16628,52465,19697,123,123,-61,16,-27,186,-38,3648,1,-9,826,2026,2080,2347,2607,2406,2140,2117,2246
495347,17444,-16644,52530,19762,128,138,-74,-10,-20,172,-22,3626,-12,-8,827,2026,2080,2347,2607,2406,2140,2117,2246
496348,17460,-16636,52595,19827,115,124,-88,-29,-13,159,-11,3549,-8,-8,823,2026,2080,2347,2607,2406,2140,2117,2246
497349,17452,-16636,52660,19892,130,129,-100,-46,-6,147,9,3477,-10,-2,827,2026,2080,2347,2607,2406,2140,2117,2246
498350,17464,-16624,52725,19957,119,122,-110,-69,5,119,20,3385,6,-3,826,2026,2080,2347,2607,2406,2140,2117,2246
499351,17448,-16640,52790,20022,136,139,-119,-90,18,142,21,3342,-12,-7,827,1998,2051,2322,2590,2356,2112,2099,2223
500352,17452,-16628,52855,20087,124,122,-125,-103,31,116,27,3251,-10,-8,826,1998,2051,2322,2590,2356,2112,2099,2223
501353,17452,-16632,52920,20152,126,132,-126,-114,41,145,25,3226,-6,-6,826,1998,2051,2322,2590,2356,2112,2099,2223
502354,17456,-16640,52985,20217,124,134,-126,-120,51,162,40,3213,6,-8,826,1998,2051,2322,2590,2356,2112,2099,2223
503355,17452,-16628,53050,20282,129,123,-117,-120,53,162,50,3272,-11,-3,826,1998,2051,2322,2590,2356,2112,2099,2223
504356,17444,-16628,53115,20347,132,130,-105,-117,57,184,95,3275,-7,-8,826,1998,2051,2322,2590,2356,2112,2099,2223
505357,17448,-16632,53180,20412,125,133,-89,-113,62,166,122,3326,-11,-8,826,2036,2090,2370,2659,2364,2129,2107,2221
506358,17436,-16624,53245,20477,135,125,-72,-109,62,155,127,3447,-11,-3,826,2036,2090,2370,2659,2364,2129,2107,2221
507359,17452,-16636,53310,20542,117,138,-52,-103,59,131,130,3544,-11,-9,826,2036,2090,2370,2659,2364,2129,2107,2221
508360,17448,-16632,53375,20607,130,128,-35,-99,56,82,129,3668,-3,1,826,2036,2090,2370,2659,2364,2129,2107,2221
509361,17440,-16628,53440,20672,132,129,-17,-94,53,42,176,3848,6,0,826,2036,2090,2370,2659,2364,2129,2107,2221
510362,17456,-16636,53505,20737,118,136,-2,-87,49,8,223,3992,-11,-9,826,2062,2100,2382,2675,2319,2089,2061,2163
511363,17436,-16636,53570,20802,141,131,11,-78,46,-6,260,4125,-11,-9,826,2062,2100,2382,2675,2319,2089,2061,2163
512364,17448,-16636,53635,20867,121,131,24,-63,44,-23,279,4252,1,2,826,2062,2100,2382,2675,2319,2089,2061,2163
513365,17448,-16632,53700,20932,128,129,33,-44,38,-30,292,4356,-10,-9,823,2062,2100,2382,2675,2319,2089,2061,2163
514366,17448,-16628,53765,20997,128,129,39,-22,35,-30,283,4413,-5,-8,826,2062,2100,2382,2675,2319,2089,2061,2163
515367,17444,-16628,53830,21062,131,132,47,5,34,9,248,4403,-12,0,827,2062,2100,2382,2675,2319,2089,2061,2163
516368,17452,-16636,53895,21127,123,137,47,36,33,24,244,4401,-1,-9,826,2033,2071,2346,2635,2272,2050,2035,2145
517369,17444,-16632,53960,21192,134,130,50,70,30,27,228,4338,-7,-4,826,2033,2071,2346,2635,2272,2050,2035,2145
518370,17448,-16624,54025,21257,127,127,52,99,30,45,188,4240,-8,-5,826,2033,2071,2346,2635,2272,2050,2035,2145
519371,17452,-16632,54090,21322,127,137,54,122,29,39,188,4101,-11,-9,826,2033,2071,2346,2635,2272,2050,2035,2145
520372,17444,-16636,54155,21387,134,135,57,139,27,35,184,3966,-6,-7,826,2033,2071,2346,2635,2272,2050,2035,2145
521373,17448,-16632,54220,21452,127,130,64,148,26,25,149,3835,-8,-1,827,2032,2078,2358,2646,2324,2101,2087,2217
522374,17432,-16628,54285,21517,139,131,70,149,26,21,102,3734,-4,-8,826,2032,2078,2358,2646,2324,2101,2087,2217
523375,17448,-16636,54350,21582,120,138,77,142,23,48,89,3659,-10,-6,826,2032,2078,2358,2646,2324,2101,2087,2217
524376,17448,-16636,54415,21647,130,133,86,132,18,66,86,3569,-11,-9,826,2032,2078,2358,2646,2324,2101,2087,2217
525377,17444,-16624,54480,21712,133,126,95,117,13,36,85,3558,-12,0,826,2032,2078,2358,2646,2324,2101,2087,2217
526378,17456,-16640,54545,21777,123,143,103,99,9,33,72,3570,-11,-4,826,2032,2078,2358,2646,2324,2101,2087,2217
527379,17452,-16632,54610,21842,133,128,107,80,4,37,99,3587,-4,-6,826,2041,2091,2372,2642,2397,2155,2130,2266
528380,17448,-16636,54675,21907,133,137,107,64,0,37,102,3681,-8,-9,826,2041,2091,2372,2642,2397,2155,2130,2266
529381,17440,-16640,54740,21972,136,137,108,45,-3,27,84,3716,2,-5,826,2041,2091,2372,2642,2397,2155,2130,2266
530382,17448,-16640,54805,22037,126,134,103,27,-7,-18,105,3756,3,-5,823,2041,2091,2372,2642,2397,2155,2130,2266
531383,17452,-16624,54870,22102,129,124,96,10,-9,-12,99,3822,-11,-8,826,2041,2091,2372,2642,2397,2155,2130,2266
532384,17456,-16624,54935,22167,129,134,83,-2,-8,-73,86,3900,-11,-7,826,2010,2062,2333,2584,2389,2135,2114,2251
533385,17440,-16628,55000,22232,141,137,70,-20,-7,-121,70,3903,-3,-9,826,2010,2062,2333,2584,2389,2135,2114,2251
534386,17444,-16636,55065,22297,129,140,54,-41,-6,-169,47,3896,-11,-9,826,2010,2062,2333,2584,2389,2135,2114,2251
535387,17448,-16632,55130,22362,129,133,38,-59,1,-180,4,3895,-5,-8,826,2010,2062,2333,2584,2389,2135,2114,2251
536388,17440,-16636,55195,22427,137,138,19,-78,6,-227,-14,3868,-9,-5,826,2010,2062,2333,2584,2389,2135,2114,2251
537389,17444,-16632,55260,22492,130,133,-1,-93,8,-227,-44,3814,-7,-9,826,2010,2062,2333,2584,2389,2135,2114,2251
538390,17448,-16632,55325,22557,130,135,-17,-108,9,-252,-69,3789,-9,-3,826,1992,2052,2331,2590,2397,2148,2121,2269
539391,17464,-16632,55390,22622,122,135,-24,-118,16,-228,-74,3778,-2,-4,826,1992,2052,2331,2590,2397,2148,2121,2269
540392,17432,-16640,55455,22687,152,141,-33,-122,16,-212,-60,3750,-4,-9,827,1992,2052,2331,2590,2397,2148,2121,2269
541393,17444,-16644,55520,22752,125,139,-42,-122,14,-172,-60,3802,-6,-5,826,1992,2052,2331,2590,2397,2148,2121,2269
542394,17452,-16640,55585,22817,128,134,-43,-119,14,-127,-40,3811,-1,3,826,1992,2052,2331,2590,2397,2148,2121,2269
543395,17436,-16636,55650,22882,143,134,-42,-111,12,-109,27,3846,-11,-4,826,2033,2089,2391,2667,2430,2185,2148,2284
544396,17452,-16624,55715,22947,123,129,-42,-100,8,-73,98,3888,-11,-3,826,2033,2089,2391,2667,2430,2185,2148,2284
545397,17444,-16640,55780,23012,138,146,-43,-88,6,-69,126,3953,-12,-7,826,2033,2089,2391,2667,2430,2185,2148,2284
546398,17448,-16640,55845,23077,131,136,-42,-72,6,-37,179,4039,2,-9,826,2033,2089,2391,2667,2430,2185,2148,2284
547399,17444,-16636,55910,23142,136,135,-41,-61,5,-22,240,4134,-9,-2,822,2033,2089,2391,2667,2430,2185,2148,2284
548400,17444,-16636,55975,23207,134,137,-42,-50,4,-56,297,4174,2,-8,826,2033,2089,2391,2667,2430,2185,2148,2284
549401,17440,-16632,56040,23272,137,135,-46,-37,5,-65,324,4255,-7,-7,826,2063,2104,2406,2692,2401,2162,2122,2236
550402,17440,-16636,56105,23337,134,140,-54,-26,3,-56,359,4293,-7,-5,826,2063,2104,2406,2692,2401,2162,2122,2236
551403,17444,-16632,56170,23402,132,135,-55,-12,1,-18,386,4295,0,-4,826,2063,2104,2406,2692,2401,2162,2122,2236
552404,17444,-16636,56235,23467,134,140,-57,0,5,-51,377,4267,-10,-6,826,2063,2104,2406,2692,2401,2162,2122,2236
553405,17456,-16640,56300,23532,127,141,-60,8,10,-63,375,4253,-6,-5,826,2063,2104,2406,2692,2401,2162,2122,2236
554406,17448,-16624,56365,23597,140,128,-63,18,9,-81,333,4182,6,-7,826,2057,2094,2391,2684,2358,2135,2104,2224
555407,17444,-16624,56430,23662,138,138,-59,26,10,-67,292,4071,5,-9,826,2057,2094,2391,2684,2358,2135,2104,2224
556408,17444,-16636,56495,23727,135,146,-57,35,12,-74,260,3922,-9,-8,826,2057,2094,2391,2684,2358,2135,2104,2224
557409,17452,-16640,56560,23792,130,141,-50,40,9,-92,227,3778,-10,-3,826,2057,2094,2391,2684,2358,2135,2104,2224
558410,17444,-16628,56625,23857,140,131,-40,42,7,-97,179,3678,-9,-9,826,2057,2094,2391,2684,2358,2135,2104,2224
559411,17440,-16624,56690,23922,138,136,-27,39,5,-102,132,3546,-9,4,826,2057,2094,2391,2684,2358,2135,2104,2224
560412,17448,-16644,56755,23987,130,152,-20,39,4,-83,113,3473,-10,-6,826,2079,2125,2431,2731,2406,2178,2144,2276
561413,17452,-16628,56820,24052,134,129,-12,37,2,-90,97,3405,6,-8,826,2079,2125,2431,2731,2406,2178,2144,2276
562414,17456,-16640,56885,24117,134,147,-3,33,0,-59,77,3346,-8,-9,826,2079,2125,2431,2731,2406,2178,2144,2276
563415,17440,-16644,56950,24182,146,142,6,28,-8,-54,103,3364,-10,-2,826,2079,2125,2431,2731,2406,2178,2144,2276
564416,17448,-16624,57015,24247,131,127,13,26,-15,2,132,3446,-4,-9,824,2079,2125,2431,2731,2406,2178,2144,2276
565417,17448,-16628,57080,24312,136,142,16,21,-16,42,167,3486,-12,-8,826,2124,2171,2478,2774,2442,2200,2165,2295
566418,17436,-16616,57145,24377,144,133,20,15,-14,48,189,3621,-11,-9,826,2124,2171,2478,2774,2442,2200,2165,2295
567419,17436,-16640,57210,24442,137,155,21,10,-19,52,228,3739,-12,-9,826,2124,2171,2478,2774,2442,2200,2165,2295
568420,17444,-16636,57275,24507,132,138,17,9,-20,56,224,3876,6,-3,826,2124,2171,2478,2774,2442,2200,2165,2295
569421,17436,-16636,57340,24572,142,140,11,2,-21,83,220,3943,-12,-9,826,2124,2171,2478,2774,2442,2200,2165,2295
570422,17444,-16644,57405,24637,132,145,8,-3,-23,94,248,4030,-10,-8,826,2124,2171,2478,2774,2442,2200,2165,2295
571423,17448,-16628,57470,24702,135,130,8,-8,-25,105,245,4077,-10,5,826,2111,2158,2452,2736,2417,2176,2147,2277
572424,17444,-16628,57535,24767,140,141,4,-12,-23,98,224,4140,3,-4,826,2111,2158,2452,2736,2417,2176,2147,2277
573425,17452,-16636,57600,24832,133,146,-1,-19,-25,75,182,4134,-12,-9,826,2111,2158,2452,2736,2417,2176,2147,2277
574426,17456,-16636,57665,24897,136,141,-6,-25,-27,84,119,4122,-6,-6,826,2111,2158,2452,2736,2417,2176,2147,2277
575427,17448,-16628,57730,24962,143,136,-6,-29,-25,85,74,4064,-12,-6,826,2111,2158,2452,2736,2417,2176,2147,2277
576428,17448,-16636,57795,25027,138,146,-5,-31,-24,66,47,4033,-10,-8,826,2091,2144,2444,2732,2436,2196,2168,2308
577429,17444,-16632,57860,25092,141,139,-9,-32,-26,63,-3,3990,-1,-6,826,2091,2144,2444,2732,2436,2196,2168,2308
578430,17440,-16636,57925,25157,141,145,-10,-32,-29,49,-11,3953,-11,-2,826,2091,2144,2444,2732,2436,2196,2168,2308
579431,17444,-16636,57990,25222,136,142,-10,-31,-29,44,4,3892,0,-7,826,2091,2144,2444,2732,2436,2196,2168,2308
580432,17444,-16636,58055,25287,139,142,-12,-29,-29,58,-15,3884,-11,-6,826,2091,2144,2444,2732,2436,2196,2168,2308
581433,17440,-16644,58120,25352,142,147,-17,-23,-32,26,-8,3888,-10,-7,823,2091,2144,2444,2732,2436,2196,2168,2308
582434,17448,-16632,58185,25417,134,135,-24,-15,-32,49,-2,3888,-9,-8,826,2118,2172,2480,2769,2477,2231,2193,2332
583435,17444,-16636,58250,25482,142,145,-29,-8,-32,39,31,3937,-11,-7,826,2118,2172,2480,2769,2477,2231,2193,2332
584436,17444,-16640,58315,25547,139,145,-34,-1,-31,53,89,4012,-12,-6,826,2118,2172,2480,2769,2477,2231,2193,2332
585437,17452,-16644,58380,25612,134,146,-45,4,-30,38,85,4025,-1,-6,826,2118,2172,2480,2769,2477,2231,2193,2332
586438,17448,-16636,58445,25677,143,138,-56,11,-28,16,157,4029,-8,-5,826,2118,2172,2480,2769,2477,2231,2193,2332
587439,17436,-16628,58510,25742,148,138,-66,22,-28,16,173,4085,-11,-3,827,2125,2176,2475,2764,2462,2213,2181,2311
588440,17448,-16632,58575,25807,133,146,-73,29,-25,41,199,4136,-2,-9,826,2125,2176,2475,2764,2462,2213,2181,2311
589441,17440,-16648,58640,25872,145,153,-78,36,-21,53,212,4076,-5,-9,826,2125,2176,2475,2764,2462,2213,2181,2311
590442,17444,-16644,58705,25937,138,141,-86,40,-18,52,222,4025,5,-2,826,2125,2176,2475,2764,2462,2213,2181,2311
591443,17452,-16640,58770,26002,135,142,-90,43,-19,63,199,3998,-8,-8,826,2125,2176,2475,2764,2462,2213,2181,2311
592444,17448,-16636,58835,26067,144,142,-89,45,-17,75,205,3974,-4,-5,826,2125,2176,2475,2764,2462,2213,2181,2311
593445,17440,-16632,58900,26132,146,142,-91,48,-12,81,169,3894,-9,0,826,2115,2166,2461,2757,2450,2208,2183,2317
594446,17444,-16636,58965,26197,139,147,-94,50,-11,94,147,3811,-5,-5,826,2115,2166,2461,2757,2450,2208,2183,2317
595447,17456,-16632,59030,26262,134,142,-91,49,-10,83,135,3746,-10,-7,826,2115,2166,2461,2757,2450,2208,2183,2317
596448,17436,-16636,59095,26327,154,147,-86,46,-7,29,83,3669,-11,-8,826,2115,2166,2461,2757,2450,2208,2183,2317
597449,17440,-16632,59160,26392,139,143,-82,42,-3,52,64,3611,-2,-9,826,2115,2166,2461,2757,2450,2208,2183,2317
598450,17440,-16644,59225,26457,142,153,-79,38,-3,40,72,3576,2,-9,822,2151,2200,2504,2811,2476,2234,2206,2340
599451,17444,-16636,59290,26522,140,140,-75,32,1,39,54,3596,-11,-8,826,2151,2200,2504,2811,2476,2234,2206,2340
600452,17452,-16636,59355,26587,137,145,-72,28,3,18,38,3626,-11,-5,826,2151,2200,2504,2811,2476,2234,2206,2340
601453,17440,-16636,59420,26652,150,145,-69,21,4,22,19,3672,6,-2,826,2151,2200,2504,2811,2476,2234,2206,2340
602454,17448,-16636,59485,26717,137,145,-66,17,3,-7,11,3722,-12,-1,826,2151,2200,2504,2811,2476,2234,2206,2340
603455,17452,-16644,59550,26782,140,151,-63,11,5,-1,49,3837,-12,-8,826,2151,2200,2504,2811,2476,2234,2206,2340
604456,17432,-16628,59615,26847,155,136,-60,10,2,-19,92,3900,-8,4,826,2181,2225,2526,2831,2464,2222,2193,2323
605457,17448,-16640,59680,26912,133,154,-58,12,0,-11,56,3973,-2,-7,826,2181,2225,2526,2831,2464,2222,2193,2323
606458,17452,-16640,59745,26977,141,146,-53,12,0,-20,49,3999,0,-8,826,2181,2225,2526,2831,2464,2222,2193,2323
607459,17448,-16632,59810,27042,146,141,-47,10,2,-42,80,4025,-4,5,826,2181,2225,2526,2831,2464,2222,2193,2323
608460,17448,-16648,59875,27107,143,156,-44,6,3,-44,68,4040,-3,-9,826,2181,2225,2526,2831,2464,2222,2193,2323
609461,17456,-16632,59940,27172,138,136,-37,8,2,-50,70,4114,-11,-7,826,2169,2212,2506,2809,2441,2203,2179,2311
610462,17444,-16644,60005,27237,151,155,-32,8,4,-66,71,4076,-1,-9,826,2169,2212,2506,2809,2441,2203,2179,2311
611463,17436,-16636,60070,27302,149,142,-26,5,2,-85,86,4033,-11,-8,826,2169,2212,2506,2809,2441,2203,2179,2311
612464,17444,-16636,60135,27367,139,147,-20,0,6,-108,93,3968,5,-9,825,2169,2212,2506,2809,2441,2203,2179,2311
613465,17448,-16632,60200,27432,142,145,-18,-1,9,-131,80,3977,1,-7,826,2169,2212,2506,2809,2441,2203,2179,2311
614466,17436,-16648,60265,27497,152,157,-15,0,7,-135,97,3908,-10,-7,826,2169,2212,2506,2809,2441,2203,2179,2311
615467,17440,-16636,60330,27562,142,140,-7,2,4,-114,75,3877,-8,-9,823,2168,2214,2514,2824,2467,2230,2210,2342
616468,17456,-16636,60395,27627,134,148,-1,-1,5,-111,77,3859,-11,-7,826,2168,2214,2514,2824,2467,2230,2210,2342
617469,17440,-16636,60460,27692,155,148,3,-1,5,-97,76,3857,-11,-2,826,2168,2214,2514,2824,2467,2230,2210,2342
618470,17444,-16632,60525,27757,143,146,10,0,2,-76,114,3828,-10,-9,826,2168,2214,2514,2824,2467,2230,2210,2342
619471,17444,-16640,60590,27822,145,153,15,5,0,-94,92,3880,-10,5,826,2168,2214,2514,2824,2467,2230,2210,2342
620472,17448,-16636,60655,27887,143,146,18,8,1,-102,91,3886,-6,-5,826,2185,2229,2532,2841,2494,2255,2224,2356
621473,17448,-16636,60720,27952,145,148,18,12,-5,-91,70,3912,-11,1,826,2185,2229,2532,2841,2494,2255,2224,2356
622474,17436,-16652,60785,28017,153,159,20,14,-8,-71,66,3931,-11,-9,826,2185,2229,2532,2841,2494,2255,2224,2356
623475,17452,-16640,60850,28082,135,142,19,15,-10,-93,55,3984,-12,-5,826,2185,2229,2532,2841,2494,2255,2224,2356
624476,17444,-16640,60915,28147,151,149,16,17,-12,-100,71,3969,-11,-9,826,2185,2229,2532,2841,2494,2255,2224,2356
625477,17436,-16632,60980,28212,151,144,14,20,-14,-105,57,3983,-2,-8,826,2175,2229,2532,2841,2494,2255,2224,2356
626478,17448,-16632,61045,28277,139,149,11,22,-11,-106,41,3949,0,-7,826,2175,2218,2515,2823,2492,2248,2216,2352
627479,17448,-16636,61110,28342,146,152,10,20,-10,-125,25,3924,2,-9,826,2175,2218,2515,2823,2492,2248,2216,2352
628480,17444,-16636,61175,28407,149,149,8,18,-10,-97,15,3953,-5,-8,826,2175,2218,2515,2823,2492,2248,2216,2352
629481,17448,-16644,61240,28472,144,155,5,20,-9,-80,-3,3896,-5,-7,826,2175,2218,2515,2823,2492,2248,2216,2352
630482,17448,-16636,61305,28537,147,145,0,19,-7,-103,-24,3870,-10,1,826,2175,2218,2515,2823,2492,2248,2216,2352
631483,17452,-16640,61370,28602,145,153,-3,17,-6,-106,-6,3866,5,-9,826,2175,2221,2527,2832,2506,2261,2232,2375
632484,17456,-16644,61435,28667,145,153,-3,17,-4,-99,7,3841,-4,-2,822,2175,2221,2527,2832,2506,2261,2232,2375
633485,17436,-16648,61500,28732,160,153,-3,15,-2,-74,25,3838,-12,-9,826,2175,2221,2527,2832,2506,2261,2232,2375
634486,17448,-16636,61565,28797,140,143,-2,15,1,-48,15,3801,-11,-7,826,2175,2221,2527,2832,2506,2261,2232,2375
635487,17452,-16640,61630,28862,145,154,1,12,1,-33,23,3827,-11,-9,826,2175,2221,2527,2832,2506,2261,2232,2375
636488,17440,-16644,61695,28927,156,154,4,6,1,-31,48,3850,-5,-3,826,2193,2243,2554,2856,2528,2277,2245,2388
637489,17452,-16628,61760,28992,141,141,5,6,1,-36,76,3881,-11,-9,826,2193,2243,2554,2856,2528,2277,2245,2388
638490,17436,-16636,61825,29057,158,156,5,8,-2,-48,74,3917,-1,-8,826,2193,2243,2554,2856,2528,2277,2245,2388
639491,17440,-16652,61890,29122,146,161,3,5,-5,-12,104,3967,-5,-9,826,2193,2243,2554,2856,2528,2277,2245,2388
640492,17436,-16628,61955,29187,151,136,2,1,-8,-7,119,3972,-12,-7,826,2193,2243,2554,2856,2528,2277,2245,2388
641493,17444,-16640,62020,29252,143,160,3,-1,-10,-21,109,3987,0,-10,826,2193,2243,2554,2856,2528,2277,2245,2388
642494,17436,-16640,62085,29317,154,152,6,-2,-10,-30,141,4015,-3,-9,825,2198,2246,2552,2848,2515,2265,2233,2375
643495,17448,-16636,62150,29382,142,150,2,-4,-4,-20,161,4014,-10,-2,826,2198,2246,2552,2848,2515,2265,2233,2375
644496,17452,-16636,62215,29447,147,152,-2,-5,-3,-29,166,3963,-7,-8,826,2198,2246,2552,2848,2515,2265,2233,2375
645497,17448,-16632,62280,29512,152,150,-3,-9,-4,-28,151,3952,0,-2,826,2198,2246,2552,2848,2515,2265,2233,2375
646498,17440,-16636,62345,29577,154,155,-7,-11,-1,-22,136,3918,-12,-9,826,2198,2246,2552,2848,2515,2265,2233,2375
647499,17440,-16644,62410,29642,149,158,-9,-12,3,13,145,3916,-6,-6,826,2198,2248,2554,2857,2518,2273,2242,2386
648500,17440,-16644,62475,29707,149,153,-8,-9,5,-16,132,3894,7,-4,826,2198,2248,2554,2857,2518,2273,2242,2386
649501,17440,-16636,62540,29772,150,148,-6,-8,7,-20,141,3870,-9,-9,822,2198,2248,2554,2857,2518,2273,2242,2386
650502,17452,-16648,62605,29837,143,161,-3,-8,10,0,121,3809,-11,-8,826,2198,2248,2554,2857,2518,2273,2242,2386
651503,17456,-16648,62670,29902,148,153,-1,-10,13,-2,131,3770,-7,-2,826,2198,2248,2554,2857,2518,2273,2242,2386
652504,17448,-16644,62735,29967,155,151,0,-9,11,17,129,3758,-11,1,826,2198,2248,2554,2857,2518,2273,2242,2386
653505,17436,-16636,62800,30032,158,148,2,-9,9,20,143,3784,3,-9,826,2220,2266,2581,2889,2545,2296,2261,2406
654506,17452,-16644,62865,30097,140,159,6,-10,8,24,147,3802,6,1,826,2220,2266,2581,2889,2545,2296,2261,2406
655507,17444,-16640,62930,30162,156,152,6,-9,4,8,187,3828,-11,-8,826,2220,2266,2581,2889,2545,2296,2261,2406
656508,17432,-16648,62995,30227,159,159,6,-11,0,-1,211,3829,-7,-6,826,2220,2266,2581,2889,2545,2296,2261,2406
657509,17444,-16640,63060,30292,144,149,5,-16,-1,-18,226,3844,-2,-3,826,2220,2266,2581,2889,2545,2296,2261,2406
658510,17444,-16648,63125,30357,151,159,4,-18,-3,-13,211,3907,3,-7,826,2228,2276,2590,2895,2546,2296,2260,2402
659511,17440,-16652,63190,30422,154,157,3,-13,-6,-10,223,3897,-2,-9,826,2228,2276,2590,2895,2546,2296,2260,2402
660512,17440,-16648,63255,30487,151,153,-2,-8,-9,-4,232,3912,-12,-4,826,2228,2276,2590,2895,2546,2296,2260,2402
661513,17444,-16644,63320,30552,150,153,-8,-7,-12,-23,225,3910,-4,-8,826,2228,2276,2590,2895,2546,2296,2260,2402
662516,17444,-16636,63385,30617,152,150,-13,-9,-12,-25,214,3886,5,-8,826,2228,2276,2590,2895,2546,2296,2260,2402
663515,17448,-16652,63450,30682,150,165,-16,-3,-10,-22,195,3855,-3,4,826,2228,2276,2590,2895,2546,2296,2260,2402
664516,17440,-16636,63515,30747,157,145,-20,0,-7,-10,206,3832,5,-9,826,2224,2273,2587,2895,2551,2301,2269,2417
665517,17448,-16640,63580,30812,147,158,-21,1,-6,-4,178,3831,-11,-6,826,2224,2273,2587,2895,2551,2301,2269,2417
666518,17436,-16640,63645,30877,160,156,-26,-1,-7,-5,187,3786,-11,-7,823,2224,2273,2587,2895,2551,2301,2269,2417
667519,17456,-16648,63710,30942,140,161,-31,-1,-6,5,150,3790,-11,-9,826,2224,2273,2587,2895,2551,2301,2269,2417
668520,17436,-16636,63775,31007,166,149,-27,-4,-5,-12,162,3775,2,-9,826,2224,2273,2587,2895,2551,2301,2269,2417
669521,17440,-16636,63840,31072,151,156,-27,-6,-3,-24,178,3752,-10,-8,826,2242,2293,2615,2928,2584,2335,2297,2446
670522,17452,-16644,63905,31137,146,161,-27,-7,-4,-30,169,3765,-10,3,826,2242,2293,2615,2928,2584,2335,2297,2446
671523,17440,-16640,63970,31202,161,154,-29,-10,-8,0,150,3785,-8,-5,826,2242,2293,2615,2928,2584,2335,2297,2446
672524,17448,-16632,64035,31267,148,151,-30,-11,-11,33,148,3794,-11,-9,825,2242,2293,2615,2928,2584,2335,2297,2446
673525,17452,-16648,64100,31332,151,167,-32,-14,-13,31,128,3839,-11,-6,826,2242,2293,2615,2928,2584,2335,2297,2446
674526,17452,-16652,64165,31397,154,160,-33,-16,-15,4,148,3876,5,0,826,2242,2293,2615,2928,2584,2335,2297,2446
675527,17448,-16644,64230,31462,157,152,-32,-14,-21,-2,146,3898,1,-7,826,2261,2310,2632,2948,2596,2344,2304,2448
676528,17452,-16652,64295,31527,152,162,-34,-11,-24,13,127,3951,-8,-6,826,2261,2310,2632,2948,2596,2344,2304,2448
677529,17444,-16640,64360,31592,159,150,-37,-9,-26,7,149,3947,-8,4,826,2261,2310,2632,2948,2596,2344,2304,2448
678530,17448,-16648,64425,31657,152,162,-41,-7,-29,25,122,3942,-7,-5,826,2261,2310,2632,2948,2596,2344,2304,2448
679531,17456,-16632,64490,31722,149,148,-45,-4,-31,9,137,3949,0,-7,826,2261,2310,2632,2948,2596,2344,2304,2448
680532,17452,-16644,64555,31787,157,166,-51,-3,-30,-15,127,3917,-11,-9,826,2265,2313,2635,2956,2595,2346,2307,2454
681533,17444,-16636,64620,31852,160,153,-54,-4,-27,-22,138,3945,-11,-7,826,2265,2313,2635,2956,2595,2346,2307,2454
682534,17436,-16648,64685,31917,160,166,-55,-2,-26,-19,100,3921,-12,-8,825,2265,2313,2635,2956,2595,2346,2307,2454
683535,17440,-16648,64750,31982,153,158,-55,-2,-23,-30,107,3886,-9,-6,822,2265,2313,2635,2956,2595,2346,2307,2454
684536,17448,-16644,64815,32047,150,156,-56,-4,-24,-43,96,3846,-4,-6,825,2265,2313,2635,2956,2595,2346,2307,2454
685537,17452,-16644,64880,32112,153,159,-55,-8,-23,-55,71,3822,-3,-1,826,2265,2313,2635,2956,2595,2346,2307,2454
686538,17440,-16648,64945,32177,163,162,-55,-11,-23,-54,73,3821,-11,-7,826,2283,2331,2660,2988,2623,2374,2333,2479
687539,17444,-16648,65010,32242,154,159,-52,-10,-25,-22,90,3807,-2,-9,826,2283,2331,2660,2988,2623,2374,2333,2479
688540,17436,-16644,65075,32307,161,157,-48,-11,-24,-25,91,3806,-11,-9,826,2283,2331,2660,2988,2623,2374,2333,2479
689541,17444,-16648,65140,32372,151,162,-47,-12,-26,-10,128,3844,-1,-8,826,2283,2331,2660,2988,2623,2374,2333,2479
690542,17440,-16644,65205,32437,159,157,-45,-10,-25,-11,117,3864,-12,-2,826,2283,2331,2660,2988,2623,2374,2333,2479
691543,17456,-16644,65270,32502,146,159,-48,-7,-25,11,108,3921,-7,-8,826,2306,2352,2684,3017,2641,2389,2343,2490
692544,17452,-16656,65335,32567,159,168,-47,-6,-28,-3,138,3897,-4,-9,826,2306,2352,2684,3017,2641,2389,2343,2490
693545,17444,-16652,65400,32632,162,158,-49,-2,-32,-5,134,3894,-11,-7,826,2306,2352,2684,3017,2641,2389,2343,2490
694546,17452,-16640,65465,32697,152,153,-50,0,-32,-33,117,3933,-10,-8,826,2306,2352,2684,3017,2641,2389,2343,2490
695547,17448,-16640,65530,32762,160,160,-48,0,-32,-66,114,3974,-10,-9,826,2306,2352,2684,3017,2641,2389,2343,2490
696548,17452,-16644,65595,32827,155,163,-46,-6,-33,-71,100,3991,-8,-1,826,2306,2352,2684,3017,2641,2389,2343,2490
697549,17448,-16640,65660,32892,160,158,-44,-12,-33,-66,79,3991,-4,-3,826,2304,2347,2679,3013,2639,2390,2344,2484
698550,17444,-16644,65725,32957,160,164,-42,-19,-33,-94,72,3963,-6,-4,826,2304,2347,2679,3013,2639,2390,2344,2484
699551,17440,-16640,65924,33156,161,159,-37,-23,-35,-93,67,3968,-11,-6,826,2304,2347,2679,3013,2639,2390,2344,2484
700552,17448,-16652,65989,33221,153,169,-33,-20,-34,-88,69,3951,-11,-7,822,2304,2347,2679,3013,2639,2390,2344,2484
701553,17456,-16640,66054,33286,153,154,-31,-18,-31,-71,67,3957,7,1,825,2304,2347,2679,3013,2639,2390,2344,2484
702554,17440,-16644,66119,33351,168,165,-34,-17,-26,-50,61,3960,-12,-9,826,2311,2355,2695,3031,2658,2408,2358,2504
703555,17456,-16640,66184,33416,148,160,-32,-13,-22,-37,36,3933,6,-9,825,2311,2355,2695,3031,2658,2408,2358,2504
704556,17448,-16636,66249,33481,164,160,-31,-11,-19,-58,29,3903,-9,-9,826,2311,2355,2695,3031,2658,2408,2358,2504
705557,17452,-16644,66314,33546,157,167,-29,-9,-19,-40,26,3947,5,-5,826,2311,2355,2695,3031,2658,2408,2358,2504
706558,17460,-16652,66379,33611,154,167,-25,-5,-20,-57,19,3934,-10,-9,826,2311,2355,2695,3031,2658,2408,2358,2504
707559,17448,-16656,66444,33676,167,165,-26,-2,-17,-53,27,3923,-7,-6,826,2311,2355,2695,3031,2658,2408,2358,2504
708560,17452,-16648,66509,33741,157,158,-26,-4,-15,-69,47,3949,-9,-9,825,2329,2371,2715,3056,2672,2420,2369,2512
709561,17440,-16636,66574,33806,167,156,-27,-5,-16,-83,62,3937,-10,-9,826,2329,2371,2715,3056,2672,2420,2369,2512
710562,17444,-16652,66639,33871,158,173,-26,-9,-17,-56,88,3942,-10,-7,825,2329,2371,2715,3056,2672,2420,2369,2512
711563,17456,-16636,66704,33936,153,153,-27,-7,-18,-57,66,3919,-11,-9,826,2329,2371,2715,3056,2672,2420,2369,2512
712565,17452,-16640,66769,34001,163,166,-27,-7,-19,-56,78,3940,-10,-5,826,2329,2371,2715,3056,2672,2420,2369,2512
713565,17448,-16636,66834,34066,163,161,-28,-11,-19,-70,86,3973,-11,-4,826,2327,2372,2712,3051,2671,2421,2369,2512
714566,17452,-16648,66899,34131,158,171,-25,-13,-18,-66,71,3966,-9,-6,826,2327,2372,2712,3051,2671,2421,2369,2512
715567,17440,-16648,66964,34196,168,164,-22,-15,-17,-42,96,3963,-8,-7,826,2327,2372,2712,3051,2671,2421,2369,2512
716568,17452,-16648,67029,34261,154,164,-20,-17,-18,-21,59,3944,-10,-5,825,2327,2372,2712,3051,2671,2421,2369,2512
717569,17448,-16644,67094,34326,164,162,-19,-17,-15,-37,80,3912,-11,-9,822,2327,2372,2712,3051,2671,2421,2369,2512
718570,17448,-16660,67159,34391,161,174,-19,-13,-12,-17,93,3868,-11,-9,825,2327,2372,2712,3051,2671,2421,2369,2512
719571,17448,-16648,67224,34456,161,157,-22,-10,-14,-38,60,3869,-12,-9,826,2332,2372,2714,3060,2684,2436,2382,2525
720572,17448,-16648,67289,34521,161,164,-24,-7,-12,-35,51,3840,-11,-5,826,2332,2372,2714,3060,2684,2436,2382,2525
721573,17444,-16648,67354,34586,164,165,-21,-9,-9,2,81,3804,3,1,826,2332,2372,2714,3060,2684,2436,2382,2525
722574,17456,-16648,67419,34651,154,165,-21,-11,-4,-9,101,3831,-6,-8,826,2332,2372,2714,3060,2684,2436,2382,2525
723575,17456,-16652,67484,34716,162,168,-21,-10,-1,-37,84,3801,-1,-7,826,2332,2372,2714,3060,2684,2436,2382,2525
724576,17440,-16656,67549,34781,172,168,-23,-11,-2,-4,73,3813,-6,-9,825,2349,2391,2737,3089,2698,2449,2393,2535
725577,17440,-16644,67614,34846,162,158,-26,-13,0,-16,88,3820,-11,-5,825,2349,2391,2737,3089,2698,2449,2393,2535
726578,17440,-16648,67679,34911,162,168,-27,-14,-1,-2,99,3833,-9,-2,826,2349,2391,2737,3089,2698,2449,2393,2535
727579,17456,-16652,67744,34976,152,169,-26,-14,-4,11,108,3848,-6,-7,825,2349,2391,2737,3089,2698,2449,2393,2535
728580,17440,-16644,67809,35041,172,161,-22,-12,-2,7,97,3888,0,-3,826,2349,2391,2737,3089,2698,2449,2393,2535
729581,17444,-16636,67874,35106,161,161,-23,-12,-3,18,93,3892,-11,-9,825,2349,2391,2737,3089,2698,2449,2393,2535
730582,17448,-16636,67939,35171,161,166,-22,-12,-6,17,100,3894,-7,-8,826,2356,2397,2742,3094,2699,2449,2394,2536
731583,17448,-16648,68004,35236,163,174,-20,-11,-5,-1,116,3876,5,-6,825,2356,2397,2742,3094,2699,2449,2394,2536
732584,17440,-16636,68069,35301,168,159,-20,-12,-7,0,103,3913,-11,-9,825,2356,2397,2742,3094,2699,2449,2394,2536
733585,17436,-16652,68134,35366,166,176,-19,-11,-10,9,112,3932,-7,-4,826,2356,2397,2742,3094,2699,2449,2394,2536
734586,17436,-16640,68199,35431,163,160,-19,-9,-9,-3,112,3931,-7,-9,822,2356,2397,2742,3094,2699,2449,2394,2536
735587,17448,-16652,68264,35496,157,175,-17,-8,-6,-15,109,3894,-8,-6,825,2361,2402,2749,3104,2707,2458,2403,2543
736588,17440,-16652,68329,35561,169,167,-18,-8,-6,-5,97,3878,-9,-8,825,2361,2402,2749,3104,2707,2458,2403,2543
737589,17448,-16640,68394,35626,159,160,-18,-7,-3,-1,87,3893,-10,0,825,2361,2402,2749,3104,2707,2458,2403,2543
738590,17444,-16644,68459,35691,167,170,-17,-8,0,6,70,3876,-6,-8,826,2361,2402,2749,3104,2707,2458,2403,2543
739591,17448,-16644,68524,35756,162,167,-14,-7,0,-1,76,3895,5,-8,826,2361,2402,2749,3104,2707,2458,2403,2543
740592,17444,-16640,68589,35821,167,166,-13,-6,0,-7,102,3876,6,-2,826,2361,2402,2749,3104,2707,2458,2403,2543
741593,17452,-16644,68654,35886,160,171,-14,-9,0,-11,92,3878,1,-9,825,2375,2419,2771,3127,2723,2475,2415,2559
742594,17456,-16648,68719,35951,163,171,-10,-12,0,-30,107,3864,-10,-5,825,2375,2419,2771,3127,2723,2475,2415,2559
743595,17440,-16636,68784,36016,175,161,-7,-13,-4,-11,101,3886,-10,-3,825,2375,2419,2771,3127,2723,2475,2415,2559
744596,17444,-16648,68849,36081,163,176,-10,-9,-4,-15,133,3887,-11,-9,826,2375,2419,2771,3127,2723,2475,2415,2559
745597,17436,-16636,68914,36146,170,161,-9,-4,-6,2,124,3891,-10,-9,826,2375,2419,2771,3127,2723,2475,2415,2559
746598,17452,-16644,68979,36211,155,174,-11,-1,-8,-13,124,3903,3,0,826,2382,2423,2775,3135,2734,2481,2420,2567
747599,17444,-16644,69044,36276,170,169,-15,3,-11,12,153,3884,-9,1,826,2382,2423,2775,3135,2734,2481,2420,2567
748600,17460,-16636,69109,36341,156,164,-16,4,-13,30,143,3898,-10,-3,825,2382,2423,2775,3135,2734,2481,2420,2567
749601,17444,-16644,69174,36406,176,174,-16,3,-15,-3,138,3884,-7,-7,825,2382,2423,2775,3135,2734,2481,2420,2567
750602,17448,-16660,69239,36471,164,179,-18,3,-16,-10,168,3905,-7,-9,825,2382,2423,2775,3135,2734,2481,2420,2567
751603,17448,-16644,69304,36536,166,159,-19,8,-15,2,164,3886,-10,-3,822,2382,2423,2775,3135,2734,2481,2420,2567
752604,17444,-16636,69369,36601,169,164,-24,12,-13,14,180,3854,-11,2,825,2387,2434,2792,3152,2748,2497,2436,2584
753605,17444,-16652,69434,36666,166,180,-29,8,-14,9,156,3809,-11,-8,825,2387,2434,2792,3152,2748,2497,2436,2584
754606,17444,-16644,69499,36731,167,165,-29,6,-16,3,144,3812,0,-6,826,2387,2434,2792,3152,2748,2497,2436,2584
755607,17448,-16644,69564,36796,165,170,-30,7,-16,34,156,3829,-11,-4,825,2387,2434,2792,3152,2748,2497,2436,2584
756608,17456,-16648,69629,36861,162,173,-28,8,-16,-8,149,3850,-3,-9,825,2387,2434,2792,3152,2748,2497,2436,2584
757609,17452,-16652,69694,36926,170,173,-28,8,-16,-7,127,3830,0,-4,826,2404,2448,2805,3166,2766,2511,2446,2596
758610,17448,-16636,69759,36991,170,160,-28,7,-15,31,131,3888,-5,-1,826,2404,2448,2805,3166,2766,2511,2446,2596
759611,17448,-16656,69824,37056,167,184,-26,9,-15,14,94,3915,0,-8,825,2404,2448,2805,3166,2766,2511,2446,2596
760612,17456,-16632,69889,37121,163,156,-21,12,-17,-7,89,3926,1,-9,826,2404,2448,2805,3166,2766,2511,2446,2596
761613,17436,-16648,69954,37186,181,181,-17,12,-16,-6,80,3935,-5,2,826,2404,2448,2805,3166,2766,2511,2446,2596
762614,17448,-16648,70019,37251,161,171,-18,13,-13,-5,90,3920,-10,-9,825,2404,2448,2805,3166,2766,2511,2446,2596
763615,17456,-16648,70084,37316,163,171,-19,12,-15,-36,72,3926,5,-3,825,2405,2448,2807,3166,2764,2508,2444,2593
764616,17444,-16652,70149,37381,176,174,-20,12,-18,-27,80,3949,-5,-3,825,2405,2448,2807,3166,2764,2508,2444,2593
765617,17456,-16644,70214,37446,161,167,-22,13,-16,-14,95,3960,-10,-2,826,2405,2448,2807,3166,2764,2508,2444,2593
766618,17444,-16648,70279,37511,176,175,-24,12,-16,-7,95,3965,-3,-2,825,2405,2448,2807,3166,2764,2508,2444,2593
767619,17456,-16668,70344,37576,162,185,-28,8,-17,9,88,3950,-11,-8,825,2405,2448,2807,3166,2764,2508,2444,2593
768620,17444,-16648,70409,37641,177,160,-32,11,-15,13,68,3945,-11,-4,822,2412,2454,2812,3174,2764,2510,2449,2597
769621,17448,-16652,70474,37706,167,175,-33,14,-15,2,95,3977,1,3,825,2412,2454,2812,3174,2764,2510,2449,2597
770622,17456,-16648,70539,37771,164,170,-33,18,-16,7,79,3968,-1,-8,825,2412,2454,2812,3174,2764,2510,2449,2597
771623,17436,-16652,70604,37836,182,176,-36,22,-16,8,68,3935,-11,-5,825,2412,2454,2812,3174,2764,2510,2449,2597
772624,17448,-16648,70669,37901,162,171,-31,27,-13,-10,51,3943,5,-4,825,2412,2454,2812,3174,2764,2510,2449,2597
773625,17448,-16660,70734,37966,170,181,-25,26,-12,8,83,3963,-8,3,826,2412,2454,2812,3174,2764,2510,2449,2597
774626,17444,-16648,70799,38031,173,166,-23,25,-13,2,73,3936,-8,-5,825,2420,2462,2821,3183,2779,2521,2459,2614
775627,17444,-16640,70864,38096,170,168,-22,30,-10,-7,100,3943,-7,2,826,2420,2462,2821,3183,2779,2521,2459,2614
776628,17448,-16656,70929,38161,168,183,-23,31,-7,-43,88,3921,-3,-1,825,2420,2462,2821,3183,2779,2521,2459,2614
777629,17452,-16652,70994,38226,168,171,-18,31,-8,-22,61,3928,6,-9,825,2420,2462,2821,3183,2779,2521,2459,2614
778630,17448,-16640,71059,38291,173,167,-13,29,-7,2,90,3938,-9,-2,826,2420,2462,2821,3183,2779,2521,2459,2614
779631,17448,-16644,71124,38356,171,177,-12,28,-6,-9,66,3963,4,-3,825,2414,2457,2813,3171,2779,2519,2462,2612
780632,17440,-16652,71189,38421,176,179,-11,28,-7,-27,82,3922,5,-9,825,2414,2457,2813,3171,2779,2519,2462,2612
781633,17448,-16648,71254,38486,166,172,-11,28,-6,9,90,3870,1,0,825,2414,2457,2813,3171,2779,2519,2462,2612
782634,17444,-16652,71319,38551,174,177,-10,27,-3,-10,52,3912,-10,-2,826,2414,2457,2813,3171,2779,2519,2462,2612
783635,17448,-16644,71384,38616,169,169,-9,24,-6,-30,71,3904,4,-5,825,2414,2457,2813,3171,2779,2519,2462,2612
784636,17444,-16652,71449,38681,174,180,-11,22,-7,-34,38,3898,-3,-2,825,2414,2457,2813,3171,2779,2519,2462,2612
785637,17432,-16644,71514,38746,180,170,-11,23,-1,-21,36,3892,-11,-4,822,2410,2457,2810,3163,2783,2522,2464,2617
786638,17444,-16644,71579,38811,165,175,-8,22,1,-21,36,3870,-11,-7,825,2410,2457,2810,3163,2783,2522,2464,2617
787639,17444,-16644,71644,38876,172,175,-5,23,-3,-40,28,3883,-2,-1,825,2410,2457,2810,3163,2783,2522,2464,2617
788640,17448,-16644,71709,38941,170,175,-2,25,1,-33,24,3895,-7,2,825,2410,2457,2810,3163,2783,2522,2464,2617
789641,17444,-16652,71774,39006,175,180,-2,25,6,-6,5,3878,-6,-7,825,2410,2457,2810,3163,2783,2522,2464,2617
790642,17440,-16652,71839,39071,175,176,-2,24,6,-17,-10,3895,-10,-6,825,2415,2461,2815,3167,2794,2530,2466,2628
791643,17440,-16648,71904,39136,172,174,1,18,8,-15,7,3875,-11,3,825,2415,2461,2815,3167,2794,2530,2466,2628
792644,17436,-16656,71969,39201,176,181,3,18,9,-57,15,3877,-9,-2,826,2415,2461,2815,3167,2794,2530,2466,2628
793645,17460,-16644,72034,39266,158,169,8,19,9,-21,21,3924,-11,-1,825,2415,2461,2815,3167,2794,2530,2466,2628
794646,17452,-16652,72099,39331,178,181,10,17,9,-41,29,3945,-7,-2,825,2415,2461,2815,3167,2794,2530,2466,2628
795647,17436,-16652,72164,39396,183,176,9,17,11,-54,53,3976,-11,-8,825,2415,2461,2815,3167,2794,2530,2466,2628
796648,17444,-16644,72229,39461,168,171,12,16,10,-56,53,3969,-6,-4,825,2411,2460,2816,3160,2789,2524,2461,2624
797649,17448,-16648,72294,39526,171,180,14,16,11,-50,71,3925,-6,0,825,2411,2460,2816,3160,2789,2524,2461,2624
798650,17440,-16652,72359,39591,179,180,14,15,12,-17,69,3976,-8,-9,825,2411,2460,2816,3160,2789,2524,2461,2624
799651,17452,-16648,72424,39656,167,175,11,16,16,-33,107,3939,1,1,825,2411,2460,2816,3160,2789,2524,2461,2624
800652,17448,-16648,72489,39721,177,177,7,15,17,-24,95,3956,-10,-4,826,2411,2460,2816,3160,2789,2524,2461,2624
801653,17452,-16656,72554,39786,172,182,5,15,13,-34,97,3935,-1,-5,825,2408,2452,2808,3147,2782,2518,2457,2620
802654,17452,-16660,72619,39851,174,180,6,13,13,-51,99,3930,-3,1,821,2408,2452,2808,3147,2782,2518,2457,2620
803655,17448,-16644,72684,39916,177,168,6,13,16,-52,112,3875,-11,2,825,2408,2452,2808,3147,2782,2518,2457,2620
804656,17444,-16660,72749,39981,178,188,6,12,18,-74,105,3894,-11,-2,825,2408,2452,2808,3147,2782,2518,2457,2620
805657,17452,-16652,72814,40046,170,173,3,11,21,-91,100,3848,-10,-1,825,2408,2452,2808,3147,2782,2518,2457,2620
806658,17444,-16648,72879,40111,180,176,3,7,22,-66,117,3843,-9,4,825,2408,2452,2808,3147,2782,2518,2457,2620
807659,17436,-16648,72944,40176,180,178,2,5,21,-74,119,3859,-11,-7,825,2408,2456,2812,3154,2791,2526,2464,2630
808660,17448,-16652,73009,40241,168,181,3,3,21,-68,132,3831,-8,-3,825,2408,2456,2812,3154,2791,2526,2464,2630
809661,17440,-16640,73074,40306,180,172,4,3,21,-55,130,3837,-11,-5,825,2408,2456,2812,3154,2791,2526,2464,2630
810662,17444,-16644,73139,40371,173,182,8,6,19,-43,144,3859,-11,0,825,2408,2456,2812,3154,2791,2526,2464,2630
811663,17452,-16636,73204,40436,171,174,10,7,19,-27,134,3831,-9,0,825,2408,2456,2812,3154,2791,2526,2464,2630
812664,17448,-16652,73269,40501,179,189,9,5,19,-33,126,3848,-11,4,825,2407,2459,2816,3156,2797,2529,2467,2634
813665,17444,-16656,73334,40566,179,182,10,4,18,-37,141,3818,-11,-4,825,2407,2459,2816,3156,2797,2529,2467,2634
814666,17448,-16648,73399,40631,174,174,10,7,14,-46,132,3816,-11,-3,825,2407,2459,2816,3156,2797,2529,2467,2634
815667,17436,-16644,73464,40696,184,177,8,9,14,-41,128,3817,-1,4,825,2407,2459,2816,3156,2797,2529,2467,2634
816668,17448,-16656,73529,40761,169,188,7,10,15,-43,148,3811,-11,-2,825,2407,2459,2816,3156,2797,2529,2467,2634
817669,17432,-16652,73594,40826,187,178,4,10,13,-34,145,3787,-9,-6,825,2407,2459,2816,3156,2797,2529,2467,2634
818670,17452,-16652,73659,40891,165,180,1,8,12,-37,149,3832,-11,1,825,2411,2462,2820,3160,2797,2532,2469,2638
819671,17444,-16636,73724,40956,182,170,1,6,9,-22,138,3803,-8,-2,822,2411,2462,2820,3160,2797,2532,2469,2638
820672,17448,-16652,73789,41021,175,190,1,3,6,-10,147,3818,-10,3,825,2411,2462,2820,3160,2797,2532,2469,2638
821673,17448,-16652,73854,41086,177,180,-3,3,7,-30,138,3801,-11,-3,825,2411,2462,2820,3160,2797,2532,2469,2638
822674,17440,-16644,73919,41151,182,176,-4,3,5,-10,157,3856,-11,3,825,2411,2462,2820,3160,2797,2532,2469,2638
823675,17452,-16648,73984,41216,171,184,-2,3,3,-28,160,3863,-8,-1,825,2425,2477,2836,3179,2812,2545,2479,2652
824676,17436,-16648,74049,41281,188,181,-1,4,0,-30,127,3847,6,3,825,2425,2477,2836,3179,2812,2545,2479,2652
825677,17448,-16648,74114,41346,171,181,-1,3,-3,-32,139,3835,1,4,825,2425,2477,2836,3179,2812,2545,2479,2652
826678,17440,-16644,74179,41411,183,179,0,2,-5,-20,172,3888,3,-2,825,2425,2477,2836,3179,2812,2545,2479,2652
827679,17448,-16648,74244,41476,173,184,-2,4,-7,0,164,3906,-11,2,825,2425,2477,2836,3179,2812,2545,2479,2652
828680,17452,-16636,74309,41541,176,175,2,1,-8,-12,153,3960,-10,2,825,2425,2477,2836,3179,2812,2545,2479,2652
829681,17444,-16636,74374,41606,183,182,5,0,-8,-3,162,3974,5,-2,825,2427,2477,2837,3176,2813,2542,2479,2647
830682,17456,-16636,74439,41671,172,182,7,2,-10,-25,167,3984,-8,2,825,2427,2477,2837,3176,2813,2542,2479,2647
831683,17448,-16652,74504,41736,184,192,6,4,-16,-57,159,3965,-8,-4,825,2427,2477,2837,3176,2813,2542,2479,2647
832684,17444,-16640,74569,41801,182,175,4,4,-16,-43,134,3968,-10,2,825,2427,2477,2837,3176,2813,2542,2479,2647
833685,17448,-16644,74634,41866,177,185,1,2,-14,-15,156,3944,-8,1,825,2427,2477,2837,3176,2813,2542,2479,2647
834686,17444,-16644,74699,41931,182,183,-1,3,-14,-47,148,3978,5,-5,825,2417,2471,2831,3166,2812,2542,2479,2654
835687,17448,-16640,74764,41996,177,181,-5,4,-15,-73,144,3954,1,3,825,2417,2471,2831,3166,2812,2542,2479,2654
836688,17432,-16652,74829,42061,190,191,-6,5,-14,-73,102,3903,-11,4,822,2417,2471,2831,3166,2812,2542,2479,2654
837689,17452,-16648,74894,42126,168,181,-10,8,-15,-42,81,3849,-12,-4,825,2417,2471,2831,3166,2812,2542,2479,2654
838690,17448,-16656,74959,42191,183,188,-10,6,-16,-23,103,3882,-11,2,825,2417,2471,2831,3166,2812,2542,2479,2654
839691,17444,-16648,75024,42256,183,178,-12,6,-15,-22,104,3814,-11,-2,825,2417,2471,2831,3166,2812,2542,2479,2654
840692,17448,-16648,75089,42321,178,183,-15,10,-12,-35,100,3821,-11,0,825,2421,2477,2838,3175,2827,2558,2492,2672
841693,17444,-16656,75154,42386,183,189,-14,13,-12,-9,110,3868,-11,3,825,2421,2477,2838,3175,2827,2558,2492,2672
842694,17448,-16652,75219,42451,179,182,-11,12,-15,-13,100,3856,-11,1,825,2421,2477,2838,3175,2827,2558,2492,2672
843695,17444,-16652,75284,42516,184,184,-12,8,-13,-11,92,3857,1,4,825,2421,2477,2838,3175,2827,2558,2492,2672
844696,17452,-16656,75349,42581,176,187,-15,8,-15,11,115,3871,-11,2,825,2421,2477,2838,3175,2827,2558,2492,2672
845697,17444,-16648,75414,42646,186,179,-16,8,-17,2,131,3854,-11,-1,825,2426,2480,2839,3178,2840,2560,2496,2672
846698,17452,-16648,75479,42711,176,184,-15,6,-13,-15,121,3884,-4,2,825,2426,2480,2839,3178,2840,2560,2496,2672
847699,17444,-16652,75544,42776,186,188,-17,6,-13,-18,127,3900,1,4,825,2426,2480,2839,3178,2840,2560,2496,2672
848700,17448,-16648,75609,42841,179,183,-21,7,-11,-2,145,3909,7,-7,825,2426,2480,2839,3178,2840,2560,2496,2672
849701,17440,-16644,75674,42906,187,183,-24,4,-9,-10,138,3908,-10,2,825,2426,2480,2839,3178,2840,2560,2496,2672
850702,17444,-16640,75739,42971,180,183,-25,0,-9,-11,128,3883,-3,5,825,2425,2479,2840,3176,2832,2553,2491,2667
851703,17444,-16636,75804,43036,182,183,-27,2,-10,0,140,3910,-10,1,825,2425,2479,2840,3176,2832,2553,2491,2667
852704,17448,-16640,75869,43101,180,188,-31,4,-6,4,131,3935,4,5,825,2425,2479,2840,3176,2832,2553,2491,2667
853705,17448,-16648,75934,43166,182,191,-36,6,-2,-12,116,3874,-4,4,822,2425,2479,2840,3176,2832,2553,2491,2667
854706,17452,-16648,75999,43231,180,186,-37,6,-3,-34,95,3901,-11,4,825,2425,2479,2840,3176,2832,2553,2491,2667
855707,17436,-16652,76064,43296,193,189,-35,5,-3,-38,86,3908,3,0,825,2425,2479,2840,3176,2832,2553,2491,2667
856708,17436,-16636,76129,43361,183,176,-36,5,-2,-20,72,3926,-4,3,825,2430,2488,2846,3184,2828,2553,2493,2670
857709,17440,-16640,76194,43426,181,189,-37,5,2,-43,73,3920,6,-3,825,2430,2488,2846,3184,2828,2553,2493,2670
858710,17456,-16644,76259,43491,173,189,-34,3,2,-30,79,3910,-11,-6,825,2430,2488,2846,3184,2828,2553,2493,2670
859711,17440,-16652,76324,43556,193,191,-31,4,4,-35,83,3893,-3,1,825,2430,2488,2846,3184,2828,2553,2493,2670
860712,17452,-16644,76389,43621,176,182,-33,6,4,-50,99,3883,-3,-1,825,2430,2488,2846,3184,2828,2553,2493,2670
861713,17448,-16652,76454,43686,187,192,-33,6,0,-60,107,3883,-2,0,825,2439,2496,2852,3192,2826,2552,2496,2668
862714,17452,-16644,76519,43751,182,182,-33,7,2,-69,126,3892,-11,-4,825,2439,2496,2852,3192,2826,2552,2496,2668
863715,17448,-16652,76584,43816,187,192,-31,12,2,-57,113,3899,-11,-6,825,2439,2496,2852,3192,2826,2552,2496,2668
864716,17440,-16648,76649,43881,189,185,-32,13,0,-16,108,3891,-3,5,825,2439,2496,2852,3192,2826,2552,2496,2668
865717,17440,-16640,76714,43946,184,182,-33,12,-3,-1,134,3922,-3,5,825,2439,2496,2852,3192,2826,2552,2496,2668
866718,17448,-16656,76779,44011,179,198,-32,11,-3,-14,129,3903,-11,-6,825,2439,2496,2852,3192,2826,2552,2496,2668
867719,17444,-16648,76844,44076,188,183,-28,13,-1,-21,108,3927,-6,4,825,2444,2498,2852,3193,2827,2553,2494,2668
868720,17452,-16644,76909,44141,180,186,-25,17,-1,-25,105,3900,-9,5,825,2444,2498,2852,3193,2827,2553,2494,2668
869721,17452,-16648,76974,44206,185,191,-23,20,-4,-9,119,3953,-12,-3,825,2444,2498,2852,3193,2827,2553,2494,2668
870722,17452,-16640,77039,44271,185,183,-19,22,-3,-10,102,3952,-8,3,822,2444,2498,2852,3193,2827,2553,2494,2668
871723,17452,-16644,77104,44336,185,191,-14,19,-2,-10,75,3933,-8,-1,824,2444,2498,2852,3193,2827,2553,2494,2668
872724,17448,-16652,77169,44401,188,194,-12,19,-3,22,59,3930,-10,-6,825,2444,2497,2851,3190,2828,2554,2495,2672
873725,17444,-16648,77234,44466,188,187,-9,19,-3,-3,76,3896,-7,-2,825,2444,2497,2851,3190,2828,2554,2495,2672
874726,17440,-16660,77299,44531,189,197,-7,19,-3,-25,65,3900,-8,4,825,2444,2497,2851,3190,2828,2554,2495,2672
875727,17460,-16640,77364,44596,174,177,-4,18,-5,-29,42,3911,-5,-8,825,2444,2497,2851,3190,2828,2554,2495,2672
876728,17448,-16644,77429,44661,194,192,-4,16,-2,-30,40,3908,5,-3,825,2444,2497,2851,3190,2828,2554,2495,2672
877729,17448,-16656,77494,44726,186,197,-6,9,-2,-42,48,3899,-7,2,825,2444,2497,2851,3190,2828,2554,2495,2672
878730,17440,-16652,77559,44791,191,188,-7,4,-5,-28,38,3897,-4,5,825,2440,2496,2849,3186,2830,2555,2496,2674
879731,17436,-16636,77624,44856,189,180,-6,3,-2,-37,67,3863,-6,-4,825,2440,2496,2849,3186,2830,2555,2496,2674
880732,17448,-16648,77689,44921,180,198,-7,4,-1,-55,69,3853,0,2,825,2440,2496,2849,3186,2830,2555,2496,2674
881733,17440,-16648,77754,44986,192,190,-10,3,-2,-43,78,3863,-10,0,825,2440,2496,2849,3186,2830,2555,2496,2674
882734,17452,-16652,77819,45051,180,193,-10,-2,-2,-57,97,3872,1,2,825,2440,2496,2849,3186,2830,2555,2496,2674
883735,17444,-16644,77884,45116,192,185,-10,-5,-3,-35,89,3882,-11,5,825,2440,2497,2851,3187,2837,2560,2502,2682
884736,17452,-16640,77949,45181,182,188,-11,-5,-5,-22,100,3872,-10,-3,825,2440,2497,2851,3187,2837,2560,2502,2682
885737,17440,-16656,78014,45246,195,201,-11,-3,-7,-57,98,3860,-6,4,825,2440,2497,2851,3187,2837,2560,2502,2682
886738,17448,-16648,78079,45311,183,186,-12,-3,-5,-65,92,3906,-4,5,825,2440,2497,2851,3187,2837,2560,2502,2682
887741,17448,-16648,78144,45376,188,191,-11,-2,-5,-34,111,3913,2,-7,822,2440,2497,2851,3187,2837,2560,2502,2682
888740,17456,-16640,78209,45441,183,186,-12,-4,-6,-39,111,3919,3,2,824,2440,2497,2851,3187,2837,2560,2502,2682
889741,17452,-16644,78274,45506,191,194,-11,-2,-4,-51,104,3937,-2,5,825,2441,2498,2851,3186,2840,2559,2499,2678
890742,17440,-16648,78339,45571,196,194,-9,-2,1,-53,121,3979,-10,-7,825,2441,2498,2851,3186,2840,2559,2499,2678
891743,17440,-16652,78404,45636,188,195,-9,-3,-1,-70,136,3951,-1,3,825,2441,2498,2851,3186,2840,2559,2499,2678
892744,17440,-16648,78469,45701,188,190,-10,1,-1,-71,142,4003,-8,5,825,2441,2498,2851,3186,2840,2559,2499,2678
893745,17444,-16648,78534,45766,187,192,-15,4,-1,-64,155,4016,-9,-2,825,2441,2498,2851,3186,2840,2559,2499,2678
894746,17444,-16648,78599,45831,189,192,-18,6,2,-67,126,4031,0,-5,825,2433,2488,2839,3172,2818,2540,2483,2658
895747,17448,-16656,78664,45896,187,197,-23,8,0,-73,97,3982,-7,-6,825,2433,2488,2839,3172,2818,2540,2483,2658
896748,17448,-16648,78729,45961,189,187,-23,12,4,-49,97,4014,-4,5,825,2433,2488,2839,3172,2818,2540,2483,2658
897749,17444,-16644,78794,46026,192,191,-27,15,4,-48,105,4024,2,5,825,2433,2488,2839,3172,2818,2540,2483,2658
898750,17448,-16644,78859,46091,187,193,-32,18,3,-53,89,4012,-10,1,825,2433,2488,2839,3172,2818,2540,2483,2658
899751,17452,-16648,78924,46156,188,196,-32,20,5,-63,72,4009,-10,-4,825,2433,2488,2839,3172,2818,2540,2483,2658
900752,17448,-16644,78989,46221,193,191,-31,23,6,-53,75,3974,-11,5,825,2420,2477,2823,3151,2798,2519,2466,2640
901753,17448,-16652,79054,46286,190,198,-29,26,4,-68,71,3947,6,5,825,2420,2477,2823,3151,2798,2519,2466,2640
903755,17444,-16664,79184,46416,200,209,-27,29,10,-38,52,3956,-10,0,825,2420,2477,2823,3151,2798,2519,2466,2640
904756,17460,-16656,79249,46481,180,189,-23,31,10,-46,62,3921,-11,-2,821,2420,2477,2823,3151,2798,2519,2466,2640
905757,17444,-16652,79314,46546,201,192,-21,34,8,-40,65,3914,-6,-5,824,2411,2470,2812,3134,2780,2500,2451,2627
906758,17448,-16656,79379,46611,189,197,-23,34,9,-43,57,3894,5,5,825,2411,2470,2812,3134,2780,2500,2451,2627
907759,17444,-16648,79444,46676,194,189,-23,33,13,-29,66,3899,-6,5,825,2411,2470,2812,3134,2780,2500,2451,2627
908760,17448,-16644,79509,46741,189,192,-22,36,13,-25,91,3896,0,2,825,2411,2470,2812,3134,2780,2500,2451,2627
909761,17440,-16644,79574,46806,196,194,-20,37,14,-20,97,3908,-4,-6,825,2411,2470,2812,3134,2780,2500,2451,2627
910762,17448,-16644,79639,46871,186,195,-18,39,16,-22,97,3924,-5,5,825,2411,2470,2812,3134,2780,2500,2451,2627
911763,17456,-16652,79704,46936,186,200,-19,41,16,-32,78,3919,-10,4,825,2395,2454,2787,3101,2749,2469,2428,2603
912764,17440,-16648,79769,47001,202,193,-23,46,14,-16,100,3893,-8,5,825,2395,2454,2787,3101,2749,2469,2428,2603
913765,17448,-16644,79834,47066,187,193,-26,47,14,1,109,3913,0,-1,825,2395,2454,2787,3101,2749,2469,2428,2603
914766,17444,-16648,79899,47131,195,198,-26,48,16,20,90,3920,-9,5,825,2395,2454,2787,3101,2749,2469,2428,2603
915767,17448,-16644,79964,47196,190,193,-24,49,16,7,95,3930,-2,2,825,2395,2454,2787,3101,2749,2469,2428,2603
916768,17444,-16648,80029,47261,195,199,-21,51,17,31,96,3914,-11,4,825,2375,2438,2760,3068,2720,2439,2404,2579
917769,17436,-16652,80094,47326,197,199,-22,52,17,33,111,3901,5,2,825,2375,2438,2760,3068,2720,2439,2404,2579
918770,17444,-16648,80159,47391,188,194,-25,54,17,37,102,3917,-8,-6,825,2375,2438,2760,3068,2720,2439,2404,2579
919771,17452,-16644,80224,47456,188,194,-27,58,17,42,117,3905,4,5,825,2375,2438,2760,3068,2720,2439,2404,2579
920772,17460,-16648,80289,47521,188,199,-30,62,19,38,125,3900,-8,0,825,2375,2438,2760,3068,2720,2439,2404,2579
921773,17452,-16644,80354,47586,198,194,-31,61,21,47,123,3929,-4,-3,821,2375,2438,2760,3068,2720,2439,2404,2579
922774,17448,-16644,80419,47651,196,196,-34,60,20,41,155,3943,1,3,824,2357,2422,2734,3032,2684,2403,2378,2552
923775,17456,-16660,80484,47716,188,207,-42,65,21,45,160,3957,4,5,825,2357,2422,2734,3032,2684,2403,2378,2552
924776,17432,-16652,80549,47781,209,192,-51,71,21,61,181,3935,6,-5,825,2357,2422,2734,3032,2684,2403,2378,2552
925777,17452,-16652,80614,47846,182,197,-57,76,20,71,189,3909,-7,2,825,2357,2422,2734,3032,2684,2403,2378,2552
926778,17452,-16648,80679,47911,194,195,-62,77,19,47,225,3885,2,4,825,2357,2422,2734,3032,2684,2403,2378,2552
927779,17448,-16648,80744,47976,197,197,-69,77,21,46,247,3870,-3,-2,825,2342,2408,2707,3003,2651,2372,2359,2533
928780,17448,-16640,80809,48041,194,192,-74,78,20,54,235,3863,-5,-9,825,2342,2408,2707,3003,2651,2372,2359,2533
929781,17436,-16636,80874,48106,202,196,-79,76,19,56,238,3829,4,4,825,2342,2408,2707,3003,2651,2372,2359,2533
930782,17448,-16648,80939,48171,188,206,-86,75,19,60,225,3805,-5,-1,825,2342,2408,2707,3003,2651,2372,2359,2533
931783,17440,-16660,81004,48236,200,206,-92,73,16,35,232,3787,6,-4,824,2342,2408,2707,3003,2651,2372,2359,2533
932784,17440,-16652,81069,48301,195,193,-95,68,13,22,227,3805,-2,-3,825,2342,2408,2707,3003,2651,2372,2359,2533
933785,17452,-16648,81134,48366,188,196,-96,65,14,15,237,3764,0,-2,825,2334,2403,2693,2989,2637,2359,2354,2527
934786,17452,-16652,81199,48431,195,201,-99,61,14,16,201,3724,-7,5,825,2334,2403,2693,2989,2637,2359,2354,2527
935787,17444,-16644,81264,48496,200,194,-98,53,10,1,198,3708,5,6,825,2334,2403,2693,2989,2637,2359,2354,2527
936788,17460,-16652,81329,48561,185,204,-98,47,7,-27,172,3689,-1,4,825,2334,2403,2693,2989,2637,2359,2354,2527
937790,17448,-16640,81394,48626,204,192,-96,45,6,-18,143,3718,-11,3,825,2334,2403,2693,2989,2637,2359,2354,2527
938790,17456,-16644,81459,48691,191,202,-92,43,6,-3,118,3702,3,1,821,2336,2406,2696,2994,2634,2357,2355,2527
939791,17440,-16648,81524,48756,206,202,-90,44,6,-14,97,3702,-10,-4,823,2336,2406,2696,2994,2634,2357,2355,2527
940792,17456,-16652,81589,48821,186,202,-86,45,5,-21,111,3687,-10,0,825,2336,2406,2696,2994,2634,2357,2355,2527
941793,17452,-16644,81654,48886,199,194,-82,49,2,-20,81,3682,-8,-7,825,2336,2406,2696,2994,2634,2357,2355,2527
942794,17440,-16648,81719,48951,204,203,-82,52,-4,-1,71,3696,-11,-7,825,2336,2406,2696,2994,2634,2357,2355,2527
943795,17444,-16640,81784,49016,195,195,-82,59,-5,19,89,3705,-11,-2,825,2336,2406,2696,2994,2634,2357,2355,2527
944796,17440,-16648,81849,49081,200,205,-79,62,-2,-6,97,3716,-8,-8,825,2355,2426,2717,3015,2635,2359,2359,2539
945797,17444,-16644,81914,49146,195,198,-79,66,0,-25,106,3727,-11,-7,825,2355,2426,2717,3015,2635,2359,2359,2539
946798,17452,-16652,81979,49211,192,205,-82,68,-4,-14,131,3740,-10,-4,824,2355,2426,2717,3015,2635,2359,2359,2539
947799,17448,-16648,82044,49276,200,198,-85,66,-6,8,159,3783,-8,-7,825,2355,2426,2717,3015,2635,2359,2359,2539
948800,17456,-16656,82109,49341,192,206,-89,64,-8,2,185,3778,-9,-2,825,2355,2426,2717,3015,2635,2359,2359,2539
949801,17448,-16640,82308,49540,203,191,-94,61,-11,-20,212,3807,-11,4,825,2378,2447,2733,3037,2635,2362,2365,2543
950802,17456,-16644,82373,49605,193,204,-99,61,-17,25,242,3846,-11,-7,825,2378,2447,2733,3037,2635,2362,2365,2543
951803,17452,-16652,82438,49670,201,206,-102,55,-20,14,219,3854,-10,-8,825,2378,2447,2733,3037,2635,2362,2365,2543
952804,17452,-16652,82503,49735,198,202,-100,44,-25,-21,216,3912,7,4,825,2378,2447,2733,3037,2635,2362,2365,2543
953805,17436,-16640,82568,49800,209,195,-95,30,-29,-27,192,3935,3,-2,824,2378,2447,2733,3037,2635,2362,2365,2543
954806,17440,-16652,82633,49865,197,210,-88,18,-29,-57,153,3951,-6,3,825,2378,2447,2733,3037,2635,2362,2365,2543
955807,17440,-16644,82698,49930,199,197,-80,11,-34,-112,122,3960,3,5,821,2384,2449,2735,3038,2651,2375,2379,2559
956808,17448,-16640,82763,49995,194,200,-70,7,-40,-124,90,4002,-11,-7,823,2384,2449,2735,3038,2651,2375,2379,2559
957809,17448,-16660,82828,50060,199,215,-63,-3,-40,-124,66,3993,-5,-4,825,2384,2449,2735,3038,2651,2375,2379,2559
958810,17440,-16648,82893,50125,204,196,-55,-10,-40,-164,21,4012,5,4,825,2384,2449,2735,3038,2651,2375,2379,2559
959811,17448,-16640,82958,50190,194,198,-51,-14,-42,-190,2,3997,0,2,825,2384,2449,2735,3038,2651,2375,2379,2559
960812,17452,-16636,83023,50255,198,201,-48,-16,-40,-186,25,3964,-6,-2,824,2383,2450,2744,3050,2673,2398,2398,2576
961813,17452,-16652,83088,50320,200,213,-44,-18,-39,-197,12,3905,-2,5,825,2383,2450,2744,3050,2673,2398,2398,2576
962814,17436,-16648,83153,50385,210,201,-40,-16,-37,-195,-27,3922,0,-1,825,2383,2450,2744,3050,2673,2398,2398,2576
963815,17436,-16660,83218,50450,200,211,-42,-16,-38,-223,-1,3882,-11,-2,824,2383,2450,2744,3050,2673,2398,2398,2576
964816,17444,-16640,83283,50515,195,191,-45,-13,-36,-205,19,3893,-10,0,824,2383,2450,2744,3050,2673,2398,2398,2576
965817,17440,-16648,83348,50580,203,209,-48,-13,-34,-218,13,3877,1,-3,825,2383,2450,2744,3050,2673,2398,2398,2576
966818,17448,-16656,83413,50645,196,209,-50,-19,-34,-244,10,3737,-11,0,825,2402,2469,2766,3079,2687,2415,2412,2592
967819,17456,-16648,83478,50710,196,199,-55,-12,-36,-267,40,3984,-11,-1,825,2402,2469,2766,3079,2687,2415,2412,2592
968820,17456,-16652,83543,50775,201,207,-59,-9,-37,-235,-2,3754,-5,3,825,2402,2469,2766,3079,2687,2415,2412,2592
969821,17452,-16656,83608,50840,204,207,-62,-7,-42,-165,49,3915,-10,-5,825,2402,2469,2766,3079,2687,2415,2412,2592
970822,17452,-16644,83673,50905,201,197,-61,5,-41,-141,13,3780,-5,-6,825,2402,2469,2766,3079,2687,2415,2412,2592
971823,17448,-16652,83738,50970,204,210,-56,7,-45,-103,38,3916,-8,-4,825,2424,2490,2798,3119,2727,2454,2448,2626
972824,17448,-16656,83803,51035,201,208,-56,23,-45,-57,34,3733,-8,-1,821,2424,2490,2798,3119,2727,2454,2448,2626
973825,17444,-16640,83868,51100,205,195,-54,27,-47,-51,88,3897,-11,2,823,2424,2490,2798,3119,2727,2454,2448,2626
974826,17452,-16648,83933,51165,197,210,-45,48,-47,-18,12,3810,-7,2,825,2424,2490,2798,3119,2727,2454,2448,2626
975827,17448,-16644,83998,51230,205,203,-42,43,-48,-69,47,3815,3,4,825,2424,2490,2798,3119,2727,2454,2448,2626
976828,17452,-16652,84063,51295,200,210,-37,51,-47,-33,33,3866,-10,1,824,2424,2490,2798,3119,2727,2454,2448,2626
977829,17456,-16652,84128,51360,200,206,-38,43,-45,-116,66,3949,-6,-5,825,2463,2526,2835,3167,2754,2472,2464,2643
978830,17448,-16652,84193,51425,207,206,-40,39,-40,-68,73,3852,7,0,825,2463,2526,2835,3167,2754,2472,2464,2643
979831,17452,-16644,84258,51490,201,201,-38,32,-43,-138,42,4108,-6,-2,824,2463,2526,2835,3167,2754,2472,2464,2643
980832,17452,-16652,84323,51555,203,211,-35,20,-42,-85,39,3911,4,0,824,2463,2526,2835,3167,2754,2472,2464,2643
981833,17448,-16656,84388,51620,206,209,-39,9,-40,-131,21,4188,-8,0,825,2463,2526,2835,3167,2754,2472,2464,2643
982834,17456,-16652,84453,51685,198,204,-41,-6,-42,-136,-11,4039,0,5,825,2459,2519,2819,3143,2718,2438,2428,2602
983835,17444,-16652,84518,51750,211,206,-40,-14,-45,-134,-8,4311,-10,-6,824,2459,2519,2819,3143,2718,2438,2428,2602
984836,17440,-16652,84583,51815,206,207,-42,-30,-40,-139,24,4073,-11,0,824,2459,2519,2819,3143,2718,2438,2428,2602
985837,17452,-16660,84648,51880,197,212,-38,-32,-37,-109,22,4376,5,-3,824,2459,2519,2819,3143,2718,2438,2428,2602
986838,17452,-16648,84713,51945,204,200,-34,-40,-35,-112,7,4127,-3,-5,825,2459,2519,2819,3143,2718,2438,2428,2602
987839,17448,-16660,84778,52010,207,215,-30,-36,-29,-105,11,4295,3,-6,825,2459,2519,2819,3143,2718,2438,2428,2602
988840,17448,-16636,84843,52075,204,192,-30,-33,-24,-85,8,4110,-7,3,825,2437,2497,2798,3124,2704,2432,2424,2599
989841,17436,-16648,84908,52140,212,215,-28,-29,-22,-68,-5,4131,-11,-4,821,2437,2497,2798,3124,2704,2432,2424,2599
990842,17448,-16644,84973,52205,197,206,-25,-29,-20,-36,16,4005,-7,3,822,2437,2497,2798,3124,2704,2432,2424,2599
991843,17452,-16660,85038,52270,203,218,-22,-22,-16,-60,5,4028,-11,-4,824,2437,2497,2798,3124,2704,2432,2424,2599
992844,17444,-16648,85103,52335,210,201,-21,-23,-13,-66,5,3873,-1,0,825,2437,2497,2798,3124,2704,2432,2424,2599
993845,17448,-16648,85168,52400,203,208,-21,-27,-14,-97,16,3888,5,-3,825,2443,2508,2808,3138,2720,2441,2433,2602
994846,17448,-16660,85233,52465,205,216,-16,-22,-11,-78,12,3881,6,-1,824,2443,2508,2808,3138,2720,2441,2433,2602
995847,17440,-16652,85298,52530,210,203,-13,-21,-8,-46,31,3814,-10,0,824,2443,2508,2808,3138,2720,2441,2433,2602
996848,17444,-16664,85363,52595,203,217,-12,-17,-10,-71,57,3843,-4,-5,825,2443,2508,2808,3138,2720,2441,2433,2602
997849,17448,-16664,85428,52660,203,209,-13,-12,-13,-27,64,3834,-9,4,825,2443,2508,2808,3138,2720,2441,2433,2602
998850,17452,-16640,85493,52725,204,194,-14,-7,-10,19,80,3841,4,1,824,2443,2508,2808,3138,2720,2441,2433,2602
999851,17448,-16656,85558,52790,209,219,-14,0,-10,45,109,3864,-7,0,824,2439,2498,2794,3120,2699,2422,2414,2574
1000852,17444,-16640,85623,52855,209,199,-15,8,-11,11,126,3914,6,-1,825,2439,2498,2794,3120,2699,2422,2414,2574
1001853,17452,-16648,85688,52920,201,214,-15,16,-9,67,84,3877,-11,2,824,2439,2498,2794,3120,2699,2422,2414,2574
1002854,17444,-16648,85753,52985,211,210,-14,24,-5,56,77,3920,-1,-2,824,2439,2498,2794,3120,2699,2422,2414,2574
1003855,17448,-16652,85818,53050,204,213,-13,25,0,46,91,3866,-7,2,825,2439,2498,2794,3120,2699,2422,2414,2574
1004856,17444,-16656,85883,53115,210,213,-14,26,4,31,65,3860,-2,-5,824,2414,2472,2765,3091,2675,2403,2396,2558
1005857,17456,-16648,85948,53180,200,205,-15,26,12,23,45,3855,-11,2,824,2414,2472,2765,3091,2675,2403,2396,2558
1006858,17456,-16648,86013,53245,207,210,-16,23,17,5,25,3812,-9,-6,821,2414,2472,2765,3091,2675,2403,2396,2558
1007859,17448,-16644,86078,53310,212,208,-15,12,22,-14,39,3775,2,1,822,2414,2472,2765,3091,2675,2403,2396,2558
1008860,17444,-16644,86143,53375,210,210,-12,5,27,-4,27,3828,-11,-1,824,2414,2472,2765,3091,2675,2403,2396,2558
1009861,17444,-16656,86208,53440,207,219,-10,-9,24,-13,8,3794,-4,-2,824,2414,2472,2765,3091,2675,2403,2396,2558
1010862,17456,-16656,86273,53505,201,211,-8,-18,21,-37,28,3835,0,-3,825,2408,2466,2762,3085,2668,2394,2388,2548
1011863,17444,-16660,86338,53570,216,214,-4,-28,23,-14,12,3846,-8,-1,825,2408,2466,2762,3085,2668,2394,2388,2548
1012864,17448,-16648,86403,53635,206,204,-1,-35,25,-6,23,3921,-1,5,825,2408,2466,2762,3085,2668,2394,2388,2548
1013865,17440,-16648,86468,53700,213,211,3,-41,23,16,-6,3950,-11,-5,824,2408,2466,2762,3085,2668,2394,2388,2548
1014866,17452,-16648,86533,53765,201,211,5,-41,21,-20,29,4026,2,0,825,2408,2466,2762,3085,2668,2394,2388,2548
1015867,17456,-16648,86598,53830,206,212,9,-43,17,-15,34,3956,-11,4,825,2389,2448,2741,3059,2646,2375,2366,2521
1016868,17456,-16652,86663,53895,208,215,13,-45,13,-38,25,3982,-10,-3,824,2389,2448,2741,3059,2646,2375,2366,2521
1017869,17452,-16648,86728,53960,212,210,14,-41,15,-72,27,4013,-11,0,824,2389,2448,2741,3059,2646,2375,2366,2521
1018870,17440,-16640,86793,54025,217,207,11,-43,18,-33,65,3972,-1,5,825,2389,2448,2741,3059,2646,2375,2366,2521
1019871,17448,-16648,86858,54090,204,217,9,-38,14,-43,42,3931,-10,-7,825,2389,2448,2741,3059,2646,2375,2366,2521
1020872,17448,-16640,86923,54155,209,207,10,-29,13,-42,46,3882,-3,5,824,2389,2448,2741,3059,2646,2375,2366,2521
1021873,17452,-16652,86988,54220,207,221,8,-25,18,-29,73,3854,-9,-2,824,2368,2423,2722,3047,2638,2373,2365,2520
1022874,17444,-16652,87053,54285,214,213,5,-20,23,-71,63,3827,-11,4,825,2368,2423,2722,3047,2638,2373,2365,2520
1023875,17452,-16652,87118,54350,205,213,7,-8,21,-40,67,3828,7,-2,821,2368,2423,2722,3047,2638,2373,2365,2520
1024876,17448,-16652,87183,54415,213,213,10,1,20,-1,49,3753,-9,5,821,2368,2423,2722,3047,2638,2373,2365,2520
1025877,17448,-16632,87248,54480,210,201,14,9,23,-5,53,3759,6,1,825,2368,2423,2722,3047,2638,2373,2365,2520
1026878,17448,-16656,87313,54545,210,228,16,13,19,-25,67,3764,7,5,825,2374,2434,2735,3066,2664,2398,2386,2543
1027879,17444,-16652,87378,54610,213,211,19,21,16,-14,53,3769,6,6,825,2374,2434,2735,3066,2664,2398,2386,2543
1028880,17452,-16640,87443,54675,205,207,22,27,16,12,83,3782,-8,-1,824,2374,2434,2735,3066,2664,2398,2386,2543
1029881,17436,-16652,87508,54740,221,222,24,26,16,4,94,3772,-1,1,824,2374,2434,2735,3066,2664,2398,2386,2543
1030882,17436,-16644,87573,54805,211,209,28,24,8,-18,70,3794,-8,6,825,2374,2434,2735,3066,2664,2398,2386,2543
1031883,17452,-16636,87638,54870,201,209,31,21,5,-12,73,3835,-9,1,824,2374,2434,2735,3066,2664,2398,2386,2543
1032884,17444,-16640,87703,54935,216,217,35,17,4,-15,112,3872,-11,-4,824,2375,2434,2738,3056,2666,2395,2382,2545
1033885,17444,-16652,87768,55000,211,222,37,14,1,-9,111,3920,-1,1,825,2375,2434,2738,3056,2666,2395,2382,2545
1034886,17440,-16652,87833,55065,214,215,36,13,-1,-20,102,3899,0,0,825,2375,2434,2738,3056,2666,2395,2382,2545
1036888,17440,-16640,87963,55195,220,210,29,1,-1,-3,141,3910,1,-2,824,2375,2434,2738,3056,2666,2395,2382,2545
1037889,17452,-16652,88028,55260,205,223,26,0,1,-21,90,3930,7,-2,824,2372,2435,2738,3052,2669,2398,2387,2561
1038890,17444,-16648,88093,55325,217,213,22,-1,5,-29,92,3876,7,5,824,2372,2435,2738,3052,2669,2398,2387,2561
1039891,17448,-16652,88158,55390,210,218,15,-2,6,-35,92,3847,3,1,824,2372,2435,2738,3052,2669,2398,2387,2561
1040892,17436,-16640,88223,55455,220,209,13,-6,5,-19,97,3867,-8,-1,821,2372,2435,2738,3052,2669,2398,2387,2561
1041893,17448,-16652,88288,55520,205,224,15,-10,8,-25,89,3850,-6,-2,820,2372,2435,2738,3052,2669,2398,2387,2561
1042894,17452,-16640,88353,55585,211,209,14,-14,11,-38,86,3838,1,4,825,2372,2435,2738,3052,2669,2398,2387,2561
1043895,17448,-16640,88418,55650,216,216,15,-17,9,-54,93,3846,6,1,824,2390,2456,2764,3080,2702,2427,2411,2587
1044896,17456,-16648,88483,55715,208,221,16,-19,9,-17,107,3861,5,3,824,2390,2456,2764,3080,2702,2427,2411,2587
1045897,17452,-16652,88548,55780,216,219,16,-23,9,-12,129,3867,1,6,824,2390,2456,2764,3080,2702,2427,2411,2587
1046898,17448,-16632,88613,55845,216,204,19,-26,6,-30,130,3911,-5,-4,824,2390,2456,2764,3080,2702,2427,2411,2587
1047899,17448,-16640,88678,55910,213,222,21,-25,2,1,132,3945,-11,-1,825,2390,2456,2764,3080,2702,2427,2411,2587
1048900,17456,-16640,88743,55975,209,217,21,-20,3,13,123,3966,-1,6,824,2401,2465,2777,3090,2718,2440,2415,2598
1049901,17444,-16632,88808,56040,222,212,21,-12,2,2,135,3962,6,-7,824,2401,2465,2777,3090,2718,2440,2415,2598
1050902,17444,-16644,88873,56105,214,225,22,-5,0,-12,141,3959,-10,-1,825,2401,2465,2777,3090,2718,2440,2415,2598
1051903,17440,-16640,88938,56170,217,215,20,4,-1,-19,151,3993,-9,5,824,2401,2465,2777,3090,2718,2440,2415,2598
1052904,17452,-16644,89003,56235,207,220,13,16,3,-18,159,3977,5,-3,824,2401,2465,2777,3090,2718,2440,2415,2598
1053905,17448,-16644,89068,56300,217,218,8,23,5,-38,133,3990,1,4,824,2401,2465,2777,3090,2718,2440,2415,2598
1054906,17448,-16640,89133,56365,215,216,7,29,4,-38,119,3953,-11,0,824,2398,2463,2776,3086,2722,2441,2426,2608
1055907,17448,-16636,89198,56430,215,216,3,35,7,-32,136,3925,-2,0,824,2398,2463,2776,3086,2722,2441,2426,2608
1056908,17448,-16644,89263,56495,215,223,-2,39,11,-62,97,3908,-5,3,824,2398,2463,2776,3086,2722,2441,2426,2608
1057909,17448,-16644,89328,56560,215,218,-6,42,12,-83,97,3874,-11,2,820,2398,2463,2776,3086,2722,2441,2426,2608
1058910,17440,-16640,89393,56625,220,216,-9,44,14,-66,89,3852,-11,1,821,2398,2463,2776,3086,2722,2441,2426,2608
1059911,17452,-16624,89458,56690,208,208,-12,38,15,-61,86,3854,6,5,825,2407,2477,2790,3099,2742,2462,2440,2630
1060912,17436,-16628,89523,56755,225,222,-9,30,14,-78,96,3861,-4,-4,824,2407,2477,2790,3099,2742,2462,2440,2630
1061913,17460,-16636,89588,56820,201,224,-9,27,12,-68,79,3861,-10,4,824,2407,2477,2790,3099,2742,2462,2440,2630
1062914,17452,-16624,89653,56885,221,212,-6,24,10,-58,45,3849,-9,2,824,2407,2477,2790,3099,2742,2462,2440,2630
1063915,17456,-16624,89718,56950,214,219,-3,18,9,-54,54,3883,-11,2,824,2407,2477,2790,3099,2742,2462,2440,2630
1064921,17448,-16628,89783,57015,221,222,-4,8,6,-46,65,3928,3,-3,824,2407,2477,2790,3099,2742,2462,2440,2630
1065917,17444,-16632,89848,57080,219,222,-3,-2,3,-60,57,3975,7,3,824,2405,2474,2788,3085,2742,2456,2432,2624
1066918,17448,-16632,89913,57145,214,220,-2,-7,1,-50,70,3957,-3,6,824,2405,2474,2788,3085,2742,2456,2432,2624
1067919,17448,-16632,89978,57210,217,220,-3,-11,-2,-45,82,3978,-11,0,824,2405,2474,2788,3085,2742,2456,2432,2624
1068920,17444,-16636,90043,57275,220,223,-7,-16,0,-54,104,3986,-11,2,824,2405,2474,2788,3085,2742,2456,2432,2624
1069921,17452,-16628,90108,57340,212,215,-12,-19,1,-75,109,3984,-1,2,824,2405,2474,2788,3085,2742,2456,2432,2624
1070922,17448,-16628,90173,57405,220,220,-14,-19,3,-44,116,3991,-10,-1,824,2395,2464,2771,3076,2721,2440,2418,2603
1071923,17460,-16632,90238,57470,210,223,-20,-18,6,-26,130,3950,-10,0,824,2395,2464,2771,3076,2721,2440,2418,2603
1072924,17448,-16636,90303,57535,225,224,-25,-19,9,-58,116,3900,5,6,824,2395,2464,2771,3076,2721,2440,2418,2603
1073925,17460,-16628,90368,57600,210,216,-28,-18,10,-93,116,3892,-10,-4,824,2395,2464,2771,3076,2721,2440,2418,2603
1074926,17452,-16628,90433,57665,223,221,-33,-10,9,-59,112,3850,-11,3,820,2395,2464,2771,3076,2721,2440,2418,2603
1075927,17444,-16636,90498,57730,223,226,-37,-6,9,-57,94,3847,-8,6,821,2395,2464,2771,3076,2721,2440,2418,2603
1076928,17444,-16624,90563,57795,218,214,-39,-3,9,-63,99,3869,-11,5,824,2393,2459,2772,3080,2720,2437,2417,2599
1077929,17444,-16632,90628,57860,218,226,-34,1,5,-64,88,3851,-10,0,824,2393,2459,2772,3080,2720,2437,2417,2599
1078930,17444,-16620,90693,57925,218,214,-32,3,6,-64,117,3839,-11,5,824,2393,2459,2772,3080,2720,2437,2417,2599
1079931,17448,-16624,90758,57990,216,225,-30,3,9,-87,110,3852,-4,3,824,2393,2459,2772,3080,2720,2437,2417,2599
