%  Data file recorded 2017/4/9  12:15:22
%  Stride Frequency         = [1, 1]
%  Lead In /Lead Out        = 
%  Deltas (Fractional)      = [0.25, 0.25, 0.25],[0.25, 0.25, 0.25]
%  Phase                    = 32768
%  Experiment.py 
%  Motor Gains    = [0, 0, 0, 0, 0, 0, 0, 0, 0, 0]
% Columns: 
% time | Right Leg Pos | Left Leg Pos | Commanded Right Leg Pos | Commanded Left Leg Pos | DCR | DCL | GyroX | GyroY | GyroZ | AX | AY | AZ | RBEMF | LBEMF | VBatt | S1 | S2 | S3 | S4 | S5 | S6 | S7 | S8
844,-19280,28256,-44654,53650,0,0,-11,-1,-1,75,-72,-4253,-8,-6,796,2154,2145,2530,2892,2717,2547,2348,2398
1845,-19268,28264,-44654,53650,0,0,-15,-1,-2,76,-90,-4233,-2,-3,794,2154,2145,2530,2892,2717,2547,2348,2398
2846,-19268,28268,-44654,53650,0,0,-12,0,0,63,-69,-4258,5,8,794,2154,2145,2530,2892,2717,2547,2348,2398
3847,-19272,28260,-44654,53650,0,0,-10,1,0,73,-77,-4284,-3,-5,795,2156,2147,2530,2892,2715,2550,2348,2400
4848,-19280,28268,-44654,53650,0,0,-9,0,-2,76,-80,-4259,-4,-6,794,2156,2147,2530,2892,2715,2550,2348,2400
5849,-19284,28272,-44654,53650,0,0,-10,-5,-2,64,-60,-4214,-5,7,794,2156,2147,2530,2892,2715,2550,2348,2400
6850,-19280,28268,-44654,53650,0,0,-10,-5,-2,77,-83,-4233,-6,-3,794,2156,2147,2530,2892,2715,2550,2348,2400
7851,-19264,28260,-44654,53650,0,0,-10,-3,-1,72,-69,-4283,-6,-6,794,2156,2147,2530,2892,2715,2550,2348,2400
8852,-19272,28272,-44654,53650,0,0,-12,-1,-1,60,-71,-4279,-6,-2,794,2156,2147,2530,2892,2715,2550,2348,2400
9853,-19280,28272,-44654,53650,0,0,-14,-2,0,85,-74,-4280,8,3,795,2157,2147,2530,2892,2719,2547,2347,2401
10854,-19284,28264,-44654,53650,0,0,-17,-4,1,81,-48,-4255,-7,-6,795,2157,2147,2530,2892,2719,2547,2347,2401
11855,-19264,28268,-44654,53650,0,0,-14,-2,-2,77,-63,-4229,10,7,795,2157,2147,2530,2892,2719,2547,2347,2401
12856,-19268,28268,-44654,53650,0,0,-11,-4,-2,84,-56,-4251,-7,-2,795,2157,2147,2530,2892,2719,2547,2347,2401
13857,-19272,28268,-44654,53650,0,0,-12,-4,-1,82,-62,-4245,-2,0,795,2157,2147,2530,2892,2719,2547,2347,2401
14858,-19264,28272,-44654,53650,0,0,-14,-3,2,76,-55,-4267,-4,7,795,2155,2146,2530,2891,2719,2549,2345,2402
15859,-19280,28268,-44654,53650,0,0,-13,-3,0,87,-56,-4265,3,-6,794,2155,2146,2530,2891,2719,2549,2345,2402
16860,-19268,28252,-44654,53650,0,0,-14,-3,-2,75,-61,-4251,-7,-2,795,2155,2146,2530,2891,2719,2549,2345,2402
17861,-19276,28260,-44654,53650,0,0,-12,-2,-2,75,-52,-4229,-2,3,794,2155,2146,2530,2891,2719,2549,2345,2402
18862,-19268,28276,-44654,53650,0,0,-10,-1,1,94,-75,-4225,7,-1,794,2155,2146,2530,2891,2719,2549,2345,2402
19863,-19276,28252,-44654,53650,0,0,-10,0,0,85,-65,-4225,-2,-6,781,2155,2146,2530,2891,2719,2549,2345,2402
20864,-19276,28272,-44654,53650,0,0,-13,-2,1,75,-56,-4246,6,3,781,2153,2145,2527,2888,2718,2548,2343,2399
21865,-19272,28272,-44654,53650,0,0,-11,-1,-1,109,-84,-4218,8,0,795,2153,2145,2527,2888,2718,2548,2343,2399
22866,-19268,28268,-44654,53650,0,0,-9,0,-2,80,-87,-4199,-6,-6,795,2153,2145,2527,2888,2718,2548,2343,2399
23867,-19280,28276,-44654,53650,0,0,-10,3,-2,58,-77,-4178,0,4,795,2153,2145,2527,2888,2718,2548,2343,2399
24868,-19280,28272,-44654,53650,0,0,-9,5,0,65,-63,-4208,5,-2,795,2153,2145,2527,2888,2718,2548,2343,2399
25869,-19276,28264,-44654,53650,0,0,-9,4,1,76,-40,-4253,-1,-5,795,2153,2145,2526,2886,2717,2548,2346,2395
26870,-19280,28256,-44654,53650,0,0,-8,4,1,93,-45,-4256,4,7,795,2153,2145,2526,2886,2717,2548,2346,2395
27871,-19276,28276,-44654,53650,0,0,-8,5,1,92,-69,-4227,6,-3,795,2153,2145,2526,2886,2717,2548,2346,2395
28872,-19280,28272,-44654,53650,0,0,-7,7,2,82,-63,-4257,-7,0,795,2153,2145,2526,2886,2717,2548,2346,2395
29873,-19276,28272,-44654,53650,0,0,-9,4,1,79,-57,-4259,5,7,795,2153,2145,2526,2886,2717,2548,2346,2395
30874,-19280,28264,-44654,53650,0,0,-7,3,-2,67,-57,-4251,-1,-6,795,2153,2145,2526,2886,2717,2548,2346,2395
31875,-19276,28256,-44654,53650,0,0,-8,2,-1,77,-84,-4230,-1,-1,795,2153,2144,2526,2888,2718,2549,2346,2399
32876,-19280,28272,-44654,53650,0,0,-11,3,0,74,-71,-4249,1,7,795,2153,2144,2526,2888,2718,2549,2346,2399
33877,-19280,28264,-44654,53650,0,0,-8,5,0,68,-64,-4258,7,-6,794,2153,2144,2526,2888,2718,2549,2346,2399
34878,-19280,28272,-44654,53650,0,0,-6,6,-2,54,-78,-4198,7,5,794,2153,2144,2526,2888,2718,2549,2346,2399
35879,-19268,28268,-44654,53650,0,0,-4,8,-1,81,-65,-4192,7,7,795,2153,2144,2526,2888,2718,2549,2346,2399
36880,-19276,28272,-44654,53650,0,0,-6,8,1,68,-77,-4224,10,0,783,2155,2146,2527,2889,2716,2547,2345,2398
37881,-19280,28272,-44654,53650,0,0,-7,9,-1,86,-95,-4265,-6,-5,781,2155,2146,2527,2889,2716,2547,2345,2398
38882,-19280,28268,-44654,53650,0,0,-5,10,0,83,-84,-4250,4,3,795,2155,2146,2527,2889,2716,2547,2345,2398
39883,-19264,28260,-44654,53650,0,0,-6,7,0,106,-71,-4272,-7,-5,794,2155,2146,2527,2889,2716,2547,2345,2398
40884,-19280,28272,-44654,53650,0,0,-8,4,-2,84,-77,-4251,-6,-5,794,2155,2146,2527,2889,2716,2547,2345,2398
41885,-19276,28272,-44654,53650,0,0,-9,3,-3,84,-80,-4259,-2,2,795,2155,2146,2527,2889,2716,2547,2345,2398
42886,-19284,28268,-44654,53650,0,0,-9,4,-2,79,-66,-4268,0,-6,795,2156,2147,2531,2892,2716,2548,2345,2397
43887,-19280,28272,-44654,53650,0,0,-11,6,0,87,-40,-4257,-1,1,794,2156,2147,2531,2892,2716,2548,2345,2397
44888,-19280,28264,-44654,53650,0,0,-9,6,0,81,-61,-4213,9,1,794,2156,2147,2531,2892,2716,2548,2345,2397
45889,-19276,28268,-44654,53650,0,0,-10,4,0,81,-50,-4248,1,-5,795,2156,2147,2531,2892,2716,2548,2345,2397
46890,-19272,28264,-44654,53650,0,0,-13,4,0,115,-73,-4239,-7,7,794,2156,2147,2531,2892,2716,2548,2345,2397
47891,-19272,28264,-44654,53650,0,0,-10,4,0,87,-80,-4242,-8,-4,794,2156,2147,2530,2893,2719,2549,2346,2398
48892,-19288,28268,-44654,53650,0,0,-9,3,-1,99,-80,-4222,1,1,794,2156,2147,2530,2893,2719,2549,2346,2398
49893,-19276,28264,-44654,53650,0,0,-9,3,-2,80,-83,-4253,3,7,794,2156,2147,2530,2893,2719,2549,2346,2398
50894,-19280,28260,-44654,53650,0,0,-11,2,-2,98,-50,-4284,-6,-5,794,2156,2147,2530,2893,2719,2549,2346,2398
51895,-19280,28276,-44654,53650,0,0,-12,4,-2,82,-75,-4278,-7,3,794,2156,2147,2530,2893,2719,2549,2346,2398
52896,-19280,28252,-44654,53650,0,0,-15,4,-1,91,-96,-4262,-4,8,794,2156,2147,2530,2893,2719,2549,2346,2398
53897,-19268,28264,-44654,53650,0,0,-15,2,-2,87,-88,-4257,-4,-3,783,2157,2148,2530,2891,2717,2549,2345,2398
54898,-19268,28260,-44654,53650,0,0,-13,1,-3,93,-73,-4236,10,-6,780,2157,2148,2530,2891,2717,2549,2345,2398
55899,-19272,28272,-44654,53650,0,0,-11,1,-3,93,-60,-4224,4,7,793,2157,2148,2530,2891,2717,2549,2345,2398
56900,-19276,28268,-44654,53650,0,0,-10,0,-2,88,-61,-4250,5,1,793,2157,2148,2530,2891,2717,2549,2345,2398
57901,-19272,28268,-44654,53650,0,0,-11,1,-2,94,-69,-4232,3,-2,794,2157,2148,2530,2891,2717,2549,2345,2398
58902,-19276,28276,-44654,53650,0,0,-14,1,-3,80,-73,-4258,-5,7,794,2158,2148,2530,2889,2716,2548,2345,2398
59903,-19276,28268,-44654,53650,0,0,-15,1,-3,95,-79,-4266,-7,6,793,2158,2148,2530,2889,2716,2548,2345,2398
60904,-19272,28268,-44654,53650,0,0,-12,-1,-2,103,-66,-4232,-4,-5,794,2158,2148,2530,2889,2716,2548,2345,2398
61905,-19280,28264,-44654,53650,0,0,-11,-3,-3,92,-44,-4249,6,4,793,2158,2148,2530,2889,2716,2548,2345,2398
62906,-19268,28272,-44654,53650,0,0,-12,-3,-1,82,-72,-4264,8,7,793,2158,2148,2530,2889,2716,2548,2345,2398
63907,-19280,28276,-44654,53650,0,0,-13,-1,-2,83,-71,-4234,4,-2,793,2158,2148,2530,2889,2716,2548,2345,2398
64908,-19272,28260,-44654,53650,0,0,-11,-1,-1,89,-74,-4221,8,8,793,2151,2146,2528,2890,2720,2548,2345,2399
65909,-19272,28256,-44654,53650,0,0,-10,-2,-1,67,-63,-4218,-3,-6,793,2151,2146,2528,2890,2720,2548,2345,2399
66910,-19280,28264,-44654,53650,0,0,-11,-1,-2,70,-74,-4255,-8,8,793,2151,2146,2528,2890,2720,2548,2345,2399
67913,-19284,28260,-44654,53650,0,0,-12,0,0,99,-48,-4234,-5,-5,793,2151,2146,2528,2890,2720,2548,2345,2399
68912,-19280,28268,-44654,53650,0,0,-13,0,1,77,-59,-4229,9,-3,793,2151,2146,2528,2890,2720,2548,2345,2399
69913,-19264,28264,-44654,53650,0,0,-12,1,-1,43,-70,-4210,3,0,781,2151,2143,2527,2888,2716,2548,2344,2398
70914,-19284,28260,-44654,53650,0,0,-10,1,1,62,-77,-4209,6,-6,779,2151,2143,2527,2888,2716,2548,2344,2398
71915,-19264,28272,-44654,53650,0,0,-7,-1,-2,75,-59,-4227,9,2,792,2151,2143,2527,2888,2716,2548,2344,2398
72916,-19276,28268,-44654,53650,0,0,-6,-1,-2,79,-45,-4240,1,4,793,2151,2143,2527,2888,2716,2548,2344,2398
73917,-19272,28264,-44654,53650,0,0,-9,-1,1,68,-54,-4217,9,-3,793,2151,2143,2527,2888,2716,2548,2344,2398
74918,-19272,28268,-44654,53650,0,0,-7,-2,3,67,-83,-4227,-8,0,793,2151,2143,2527,2888,2716,2548,2344,2398
75919,-19280,28276,-44654,53650,0,0,-8,-1,3,66,-52,-4239,-8,-5,793,2153,2145,2527,2890,2718,2548,2345,2398
76920,-19276,28268,-44654,53650,0,0,-8,1,1,70,-89,-4246,-7,6,793,2153,2145,2527,2890,2718,2548,2345,2398
77921,-19276,28264,-44654,53650,0,0,-8,3,0,54,-79,-4236,-7,-6,793,2153,2145,2527,2890,2718,2548,2345,2398
78922,-19276,28260,-44654,53650,0,0,-9,3,0,69,-55,-4244,-6,7,793,2153,2145,2527,2890,2718,2548,2345,2398
79923,-19272,28272,-44654,53650,0,0,-8,3,1,85,-71,-4257,-5,7,793,2153,2145,2527,2890,2718,2548,2345,2398
80924,-19272,28264,-44654,53650,0,0,-6,1,-1,62,-58,-4231,-6,0,793,2154,2146,2530,2892,2719,2549,2345,2400
81925,-19288,28272,-44654,53650,0,0,-8,1,1,69,-90,-4224,-2,-6,793,2154,2146,2530,2892,2719,2549,2345,2400
82926,-19276,28260,-44654,53650,0,0,-9,6,0,50,-92,-4236,5,1,793,2154,2146,2530,2892,2719,2549,2345,2400
83927,-19272,28256,-44654,53650,0,0,-11,5,0,61,-77,-4255,1,8,793,2154,2146,2530,2892,2719,2549,2345,2400
84928,-19280,28264,-44654,53650,0,0,-10,5,-2,62,-81,-4267,5,-6,793,2154,2146,2530,2892,2719,2549,2345,2400
85929,-19276,28264,-44654,53650,0,0,-10,6,-2,75,-79,-4266,6,-2,793,2154,2146,2530,2892,2719,2549,2345,2400
86930,-19280,28264,-44654,53650,0,0,-9,6,-3,83,-93,-4235,-1,1,783,2155,2149,2527,2894,2719,2552,2346,2400
87931,-19272,28268,-44654,53650,0,0,-9,5,-2,71,-85,-4241,10,8,779,2155,2149,2527,2894,2719,2552,2346,2400
88932,-19280,28268,-44654,53650,0,0,-9,5,-2,90,-74,-4276,-6,8,792,2155,2149,2527,2894,2719,2552,2346,2400
89933,-19276,28268,-44654,53650,0,0,-10,7,-3,83,-57,-4262,10,4,792,2155,2149,2527,2894,2719,2552,2346,2400
90934,-19272,28264,-44654,53650,0,0,-10,7,-1,83,-75,-4253,-5,-6,793,2155,2149,2527,2894,2719,2552,2346,2400
91935,-19276,28268,-44654,53650,0,0,-9,8,0,57,-90,-4194,-7,7,793,2156,2148,2531,2891,2718,2551,2348,2400
92936,-19272,28264,-44654,53650,0,0,-9,8,-2,69,-83,-4254,-7,8,792,2156,2148,2531,2891,2718,2551,2348,2400
93937,-19276,28272,-44654,53650,0,0,-9,3,-2,73,-92,-4283,1,-5,792,2156,2148,2531,2891,2718,2551,2348,2400
94938,-19280,28272,-44654,53650,0,0,-12,2,-2,87,-80,-4266,9,-2,792,2156,2148,2531,2891,2718,2551,2348,2400
95939,-19284,28268,-44654,53650,0,0,-12,5,-1,77,-55,-4241,1,3,792,2156,2148,2531,2891,2718,2551,2348,2400
96940,-19272,28256,-44654,53650,0,0,-11,6,-1,69,-51,-4278,-6,0,793,2156,2148,2531,2891,2718,2551,2348,2400
97941,-19272,28268,-44654,53650,0,0,-12,7,1,67,-58,-4263,-7,-5,792,2153,2146,2529,2890,2717,2547,2348,2401
98942,-19272,28252,-44654,53650,0,0,-11,6,-3,82,-70,-4223,-3,-6,792,2153,2146,2529,2890,2717,2547,2348,2401
99943,-19280,28272,-44654,53650,0,0,-10,5,-2,77,-70,-4227,3,0,792,2153,2146,2529,2890,2717,2547,2348,2401
100944,-19280,28264,-44654,53650,0,0,-11,5,-1,86,-76,-4267,9,6,792,2153,2146,2529,2890,2717,2547,2348,2401
101945,-19276,28272,-44654,53650,0,0,-13,6,-3,108,-88,-4256,2,4,792,2153,2146,2529,2890,2717,2547,2348,2401
102946,-19280,28272,-44654,53650,0,0,-14,3,-4,84,-66,-4227,-2,-6,792,2153,2144,2527,2888,2716,2549,2343,2399
103947,-19272,28260,-44654,53650,0,0,-11,2,-2,84,-56,-4196,-6,5,783,2153,2144,2527,2888,2716,2549,2343,2399
104948,-19264,28260,-44654,53650,0,0,-11,2,-4,75,-52,-4244,-3,8,779,2153,2144,2527,2888,2716,2549,2343,2399
105949,-19272,28268,-44654,53650,0,0,-11,2,-2,83,-59,-4243,6,5,792,2153,2144,2527,2888,2716,2549,2343,2399
106950,-19268,28264,-44654,53650,0,0,-11,4,-1,87,-67,-4210,6,4,792,2153,2144,2527,2888,2716,2549,2343,2399
107951,-19280,28264,-44654,53650,0,0,-11,3,1,94,-49,-4230,-6,2,793,2153,2144,2527,2888,2716,2549,2343,2399
108952,-19268,28276,-44654,53650,0,0,-9,3,-1,96,-62,-4234,9,-4,792,2152,2144,2525,2886,2716,2547,2345,2395
109953,-19280,28264,-44654,53650,0,0,-10,3,0,80,-64,-4212,-5,-4,792,2152,2144,2525,2886,2716,2547,2345,2395
110954,-19268,28268,-44654,53650,0,0,-9,2,-2,78,-44,-4245,-8,-6,792,2152,2144,2525,2886,2716,2547,2345,2395
111955,-19276,28256,-44654,53650,0,0,-9,0,-3,100,-49,-4250,1,-1,792,2152,2144,2525,2886,2716,2547,2345,2395
112956,-19276,28260,-44654,53650,0,0,-10,0,-2,110,-56,-4214,9,7,792,2152,2144,2525,2886,2716,2547,2345,2395
113957,-19268,28272,-44654,53650,0,0,-9,0,1,106,-58,-4222,-4,3,792,2152,2143,2525,2887,2717,2548,2346,2399
114958,-19272,28260,-44654,53650,0,0,-8,0,2,86,-63,-4244,6,-6,792,2152,2143,2525,2887,2717,2548,2346,2399
115959,-19276,28272,-44654,53650,0,0,-7,-1,1,83,-79,-4234,-3,8,792,2152,2143,2525,2887,2717,2548,2346,2399
116960,-19276,28272,-44654,53650,0,0,-9,0,-3,90,-59,-4227,-6,6,792,2152,2143,2525,2887,2717,2548,2346,2399
117962,-19268,28272,-44654,53650,0,0,-10,-1,-1,77,-64,-4244,5,-6,792,2152,2143,2525,2887,2717,2548,2346,2399
118962,-19284,28272,-44654,53650,0,0,-9,-4,2,55,-86,-4234,5,2,792,2152,2143,2525,2887,2717,2548,2346,2399
119963,-19268,28272,-44654,53650,0,0,-8,-1,2,58,-70,-4250,-7,7,792,2154,2144,2527,2889,2716,2548,2345,2398
120964,-19280,28280,-44654,53650,0,0,-7,-1,2,85,-72,-4274,6,-6,784,2154,2144,2527,2889,2716,2548,2345,2398
121965,-19272,28276,-44654,53650,0,0,-8,-2,2,87,-68,-4274,-4,2,778,2154,2144,2527,2889,2716,2548,2345,2398
122966,-19276,28272,-44654,53650,0,0,-7,-3,0,89,-69,-4246,7,6,791,2154,2144,2527,2889,2716,2548,2345,2398
123967,-19268,28260,-44654,53650,0,0,-8,0,2,94,-90,-4261,1,2,791,2154,2144,2527,2889,2716,2548,2345,2398
124968,-19280,28256,-44654,53650,0,0,-10,1,0,75,-69,-4292,7,-4,791,2155,2148,2532,2892,2718,2548,2345,2399
125969,-19268,28272,-44654,53650,0,0,-11,0,0,70,-68,-4281,4,-5,791,2155,2148,2532,2892,2718,2548,2345,2399
126970,-19268,28268,-44654,53650,0,0,-12,0,2,72,-96,-4254,2,8,791,2155,2148,2532,2892,2718,2548,2345,2399
127971,-19272,28272,-44654,53650,0,0,-12,1,1,84,-89,-4232,7,-1,791,2155,2148,2532,2892,2718,2548,2345,2399
128972,-19276,28264,-44654,53650,0,0,-10,-1,1,94,-64,-4254,5,-6,791,2155,2148,2532,2892,2718,2548,2345,2399
129973,-19276,28272,-44654,53650,0,0,-7,-2,1,94,-73,-4251,8,7,791,2155,2148,2532,2892,2718,2548,2345,2399
130974,-19272,28264,-44654,53650,0,0,-8,-1,-1,82,-74,-4242,3,8,791,2156,2147,2531,2892,2718,2550,2346,2400
131975,-19272,28268,-44654,53650,0,0,-10,0,-2,81,-71,-4249,6,1,791,2156,2147,2531,2892,2718,2550,2346,2400
132976,-19276,28260,-44654,53650,0,0,-9,-1,1,62,-58,-4228,7,3,791,2156,2147,2531,2892,2718,2550,2346,2400
133977,-19276,28264,-44654,53650,0,0,-9,0,1,49,-85,-4241,9,6,790,2156,2147,2531,2892,2718,2550,2346,2400
134978,-19268,28272,-44654,53650,0,0,-8,2,0,65,-82,-4257,1,0,791,2156,2147,2531,2892,2718,2550,2346,2400
135979,-19280,28268,-44654,53650,0,0,-9,3,-2,73,-87,-4255,8,-6,791,2156,2148,2530,2891,2717,2548,2346,2398
136980,-19276,28268,-44654,53650,0,0,-13,3,-3,83,-64,-4262,9,-1,791,2156,2148,2530,2891,2717,2548,2346,2398
137981,-19264,28272,-44654,53650,0,0,-13,1,-2,61,-79,-4267,-1,7,786,2156,2148,2530,2891,2717,2548,2346,2398
138982,-19280,28260,-44654,53650,0,0,-13,4,-2,87,-80,-4235,9,-4,778,2156,2148,2530,2891,2717,2548,2346,2398
139983,-19268,28276,-44654,53650,0,0,-14,4,-1,103,-70,-4237,-4,-6,791,2156,2148,2530,2891,2717,2548,2346,2398
140984,-19268,28264,-44654,53650,0,0,-14,3,-2,98,-76,-4240,-4,8,792,2156,2148,2530,2891,2717,2548,2346,2398
141985,-19272,28280,-44654,53650,0,0,-12,4,-2,82,-60,-4227,9,-2,792,2156,2148,2530,2890,2718,2548,2345,2398
142986,-19280,28272,-44654,53650,0,0,-13,3,-3,90,-84,-4244,-8,7,791,2156,2148,2530,2890,2718,2548,2345,2398
143987,-19280,28272,-44654,53650,0,0,-11,7,-1,62,-80,-4224,4,-5,791,2156,2148,2530,2890,2718,2548,2345,2398
144988,-19272,28264,-44654,53650,0,0,-10,7,-1,55,-54,-4206,6,6,791,2156,2148,2530,2890,2718,2548,2345,2398
145989,-19280,28260,-44654,53650,0,0,-10,4,-2,67,-61,-4204,-5,-5,791,2156,2148,2530,2890,2718,2548,2345,2398
146990,-19276,28268,-44654,53650,0,0,-12,3,-2,61,-84,-4195,10,5,791,2154,2146,2528,2888,2716,2547,2345,2399
147991,-19280,28264,-44654,53650,0,0,-13,6,-3,67,-57,-4206,-4,-3,791,2154,2146,2528,2888,2716,2547,2345,2399
148992,-19276,28268,-44654,53650,0,0,-11,10,-2,79,-85,-4212,2,-6,792,2154,2146,2528,2888,2716,2547,2345,2399
149993,-19268,28268,-44654,53650,0,0,-10,9,0,76,-74,-4243,-1,1,792,2154,2146,2528,2888,2716,2547,2345,2399
150994,-19280,28268,-44654,53650,0,0,-11,6,-2,77,-67,-4227,9,3,792,2154,2146,2528,2888,2716,2547,2345,2399
151995,-19264,28268,-44654,53650,0,0,-12,5,-2,69,-69,-4201,8,-4,792,2154,2146,2528,2888,2716,2547,2345,2399
152996,-19276,28264,-44654,53650,0,0,-12,6,0,83,-58,-4231,-5,5,792,2154,2146,2528,2888,2716,2546,2345,2398
153997,-19268,28280,-44654,53650,0,0,-8,6,-1,97,-75,-4259,-8,5,792,2154,2146,2528,2888,2716,2546,2345,2398
154998,-19276,28268,-44654,53650,0,0,-9,5,-3,104,-91,-4232,6,1,788,2154,2146,2528,2888,2716,2546,2345,2398
155999,-19280,28260,-44654,53650,0,0,-9,1,-2,95,-79,-4249,-5,-5,779,2154,2146,2528,2888,2716,2546,2345,2398
157000,-19280,28264,-44654,53650,0,0,-9,3,-1,85,-85,-4228,4,4,791,2154,2146,2528,2888,2716,2546,2345,2398
158001,-19268,28268,-44654,53650,0,0,-9,4,1,93,-62,-4202,0,7,792,2151,2147,2532,2890,2720,2550,2346,2398
159002,-19264,28268,-44654,53650,0,0,-8,1,2,102,-43,-4251,-5,-5,792,2151,2147,2532,2890,2720,2550,2346,2398
160003,-19276,28268,-44654,53650,0,0,-7,2,1,85,-79,-4292,-3,6,792,2151,2147,2532,2890,2720,2550,2346,2398
161004,-19264,28276,-44654,53650,0,0,-6,4,0,100,-66,-4267,8,7,792,2151,2147,2532,2890,2720,2550,2346,2398
162005,-19268,28280,-44654,53650,0,0,-6,2,0,104,-67,-4251,9,-3,792,2151,2147,2532,2890,2720,2550,2346,2398
163006,-19268,28268,-44654,53650,0,0,-6,0,-2,90,-65,-4239,5,-5,792,2151,2147,2532,2890,2720,2550,2346,2398
164007,-19276,28272,-44654,53650,0,0,-9,2,-4,82,-74,-4269,-8,3,792,2153,2143,2532,2894,2720,2552,2347,2400
165008,-19272,28276,-44654,53650,0,0,-11,1,-1,80,-78,-4266,-2,4,792,2153,2143,2532,2894,2720,2552,2347,2400
166009,-19276,28284,-44654,53650,0,0,-8,0,0,90,-59,-4269,8,-6,792,2153,2143,2532,2894,2720,2552,2347,2400
167010,-19280,28252,-44654,53650,0,0,-6,-2,2,95,-71,-4265,2,-4,792,2153,2143,2532,2894,2720,2552,2347,2400
168011,-19280,28272,-44654,53650,0,0,-8,-1,1,80,-83,-4256,-5,7,792,2153,2143,2532,2894,2720,2552,2347,2400
169012,-19268,28272,-44654,53650,0,0,-7,2,0,79,-98,-4267,1,4,792,2156,2147,2534,2894,2720,2550,2346,2398
170013,-19268,28264,-44654,53650,0,0,-8,-2,1,71,-63,-4258,8,-6,792,2156,2147,2534,2894,2720,2550,2346,2398
171014,-19272,28268,-44654,53650,0,0,-9,-4,2,86,-80,-4234,10,-4,792,2156,2147,2534,2894,2720,2550,2346,2398
172015,-19280,28264,-44654,53650,0,0,-10,-3,0,62,-89,-4249,10,6,791,2156,2147,2534,2894,2720,2550,2346,2398
173016,-19272,28272,-44654,53650,0,0,-9,-3,0,71,-68,-4270,7,0,779,2156,2147,2534,2894,2720,2550,2346,2398
174017,-19276,28264,-44654,53650,0,0,-12,-1,-1,97,-68,-4261,9,-3,793,2156,2147,2534,2894,2720,2550,2346,2398
175018,-19280,28264,-44654,53650,0,0,-12,0,0,91,-80,-4248,1,-4,793,2156,2149,2531,2895,2719,2552,2348,2400
176019,-19284,28268,-44654,53650,0,0,-9,0,-1,85,-62,-4258,-1,3,793,2156,2149,2531,2895,2719,2552,2348,2400
177020,-19276,28268,-44654,53650,0,0,-8,0,-1,53,-77,-4228,9,3,792,2156,2149,2531,2895,2719,2552,2348,2400
178021,-19284,28272,-44654,53650,0,0,-10,-1,-3,55,-95,-4243,9,7,793,2156,2149,2531,2895,2719,2552,2348,2400
179022,-19272,28256,-44654,53650,0,0,-12,-3,-3,74,-88,-4250,4,8,793,2156,2149,2531,2895,2719,2552,2348,2400
180023,-19276,28276,-44654,53650,0,0,-13,-3,-2,50,-62,-4257,8,6,793,2155,2145,2527,2889,2715,2547,2348,2399
181024,-19272,28268,-44654,53650,0,0,-13,-2,1,77,-47,-4248,8,-6,793,2155,2145,2527,2889,2715,2547,2348,2399
182025,-19276,28268,-44654,53650,0,0,-10,-3,0,69,-70,-4230,6,-6,793,2155,2145,2527,2889,2715,2547,2348,2399
183026,-19272,28268,-44654,53650,0,0,-10,0,-1,94,-80,-4231,9,-4,793,2155,2145,2527,2889,2715,2547,2348,2399
184027,-19268,28284,-44654,53650,0,0,-11,3,0,82,-70,-4229,4,-5,793,2155,2145,2527,2889,2715,2547,2348,2399
185028,-19276,28272,-44654,53650,0,0,-14,2,1,60,-79,-4213,7,-1,793,2155,2145,2527,2889,2715,2547,2348,2399
186029,-19276,28268,-44654,53650,0,0,-14,2,-1,58,-71,-4224,8,-4,794,2152,2144,2526,2886,2715,2545,2343,2399
187030,-19280,28264,-44654,53650,0,0,-14,3,-1,58,-62,-4223,9,-6,793,2152,2144,2526,2886,2715,2545,2343,2399
188031,-19272,28272,-44654,53650,0,0,-11,3,1,60,-81,-4208,9,-5,793,2152,2144,2526,2886,2715,2545,2343,2399
189032,-19276,28268,-44654,53650,0,0,-10,5,-1,51,-66,-4227,-4,3,793,2152,2144,2526,2886,2715,2545,2343,2399
190033,-19276,28256,-44654,53650,0,0,-10,5,-3,43,-68,-4242,10,6,780,2152,2144,2526,2886,2715,2545,2343,2399
191034,-19272,28264,-44654,53650,0,0,-10,4,-2,78,-81,-4246,-1,-1,793,2152,2144,2526,2886,2716,2547,2343,2399
192035,-19264,28264,-44654,53650,0,0,-12,3,-1,62,-76,-4227,1,-5,793,2152,2144,2526,2886,2716,2547,2343,2399
193036,-19280,28276,-44654,53650,0,0,-11,5,-1,79,-64,-4229,9,4,793,2152,2144,2526,2886,2716,2547,2343,2399
194037,-19276,28268,-44654,53650,0,0,-8,6,-1,84,-58,-4264,-6,7,793,2152,2144,2526,2886,2716,2547,2343,2399
195038,-19268,28268,-44654,53650,0,0,-6,5,-3,60,-88,-4247,3,6,793,2152,2144,2526,2886,2716,2547,2343,2399
196039,-19276,28268,-44654,53650,0,0,-7,4,0,72,-60,-4237,10,7,794,2151,2144,2527,2887,2717,2549,2343,2402
197040,-19268,28268,-44654,53650,0,0,-7,5,-2,100,-80,-4232,10,7,794,2151,2144,2527,2887,2717,2549,2343,2402
198041,-19272,28256,-44654,53650,0,0,-9,4,-2,101,-67,-4250,-3,7,793,2151,2144,2527,2887,2717,2549,2343,2402
199042,-19276,28268,-44654,53650,0,0,-11,3,-2,92,-56,-4230,-3,-4,793,2151,2144,2527,2887,2717,2549,2343,2402
200043,-19272,28264,-28270,70034,0,0,-10,5,0,76,-85,-4209,10,-5,797,2151,2144,2527,2887,2717,2549,2343,2402
201044,-19268,28264,-28205,70099,0,0,-9,6,-2,82,-72,-4228,10,-4,794,2151,2144,2527,2887,2717,2549,2343,2402
202045,-19280,28272,-28140,70164,0,0,-8,7,-3,89,-70,-4269,1,5,794,2154,2145,2528,2890,2719,2550,2343,2399
203046,-19280,28268,-28075,70229,0,0,-7,4,-4,88,-90,-4241,-8,8,794,2154,2145,2528,2890,2719,2550,2343,2399
204047,-19268,28268,-28010,70294,0,0,-7,5,-1,93,-80,-4251,-7,2,794,2154,2145,2528,2890,2719,2550,2343,2399
205048,-19276,28268,-27945,70359,0,0,-5,4,1,71,-81,-4264,-7,-6,795,2154,2145,2528,2890,2719,2550,2343,2399
206049,-19276,28268,-27880,70424,0,0,-8,3,-1,72,-74,-4264,-5,5,794,2154,2145,2528,2890,2719,2550,2343,2399
207050,-19268,28272,-27815,70489,0,0,-11,5,-4,73,-69,-4268,6,8,781,2156,2148,2531,2893,2719,2550,2345,2399
208051,-19272,28268,-27750,70554,0,0,-9,6,-2,81,-59,-4262,0,4,795,2156,2148,2531,2893,2719,2550,2345,2399
209052,-19272,28264,-27685,70619,0,0,-5,6,-2,88,-59,-4281,4,-6,794,2156,2148,2531,2893,2719,2550,2345,2399
210053,-19288,28264,-27620,70684,0,0,-8,3,0,99,-60,-4270,5,-6,795,2156,2148,2531,2893,2719,2550,2345,2399
211054,-19276,28264,-27555,70749,0,0,-9,2,-1,96,-84,-4277,6,6,795,2156,2148,2531,2893,2719,2550,2345,2399
212055,-19276,28268,-27490,70814,0,0,-11,1,0,90,-85,-4249,0,7,795,2156,2148,2531,2893,2719,2550,2345,2399
213056,-19272,28276,-27425,70879,0,0,-10,2,1,74,-79,-4252,-1,8,795,2155,2147,2530,2893,2718,2551,2343,2402
214057,-19268,28264,-27360,70944,0,0,-10,2,0,79,-89,-4255,-5,5,795,2155,2147,2530,2893,2718,2551,2343,2402
215058,-19276,28260,-27295,71009,0,0,-9,1,-2,88,-91,-4214,-5,-1,795,2155,2147,2530,2893,2718,2551,2343,2402
216059,-19280,28272,-27230,71074,0,0,-11,0,-1,88,-72,-4231,10,-1,795,2155,2147,2530,2893,2718,2551,2343,2402
217060,-19276,28252,-27165,71139,0,0,-10,1,0,70,-65,-4232,5,7,795,2155,2147,2530,2893,2718,2551,2343,2402
218061,-19268,28256,-27100,71204,0,0,-12,1,0,77,-80,-4217,-4,3,796,2155,2146,2530,2890,2716,2549,2343,2398
219062,-19280,28264,-27035,71269,0,0,-14,-1,1,79,-68,-4212,-7,-2,796,2155,2146,2530,2890,2716,2549,2343,2398
220063,-19272,28260,-26970,71334,0,0,-12,-2,0,74,-74,-4242,-8,-4,795,2155,2146,2530,2890,2716,2549,2343,2398
221064,-19280,28260,-26905,71399,0,0,-12,-2,0,86,-94,-4230,-7,-5,795,2155,2146,2530,2890,2716,2549,2343,2398
222065,-19272,28268,-26840,71464,0,0,-14,-1,1,72,-104,-4254,-7,-6,796,2155,2146,2530,2890,2716,2549,2343,2398
223066,-19280,28264,-26775,71529,0,0,-12,-3,2,52,-93,-4244,-7,-1,795,2155,2146,2530,2890,2716,2549,2343,2398
224067,-19280,28268,-26710,71594,0,0,-11,-1,-2,78,-69,-4238,4,0,781,2152,2145,2528,2890,2715,2547,2343,2395
225068,-19276,28260,-26645,71659,0,0,-12,-1,-1,90,-69,-4198,2,2,795,2152,2145,2528,2890,2715,2547,2343,2395
226069,-19276,28268,-26580,71724,0,0,-13,-1,0,71,-64,-4193,5,7,796,2152,2145,2528,2890,2715,2547,2343,2395
227070,-19280,28276,-26515,71789,0,0,-11,1,-1,67,-49,-4194,10,3,796,2152,2145,2528,2890,2715,2547,2343,2395
228071,-19268,28272,-26450,71854,0,0,-10,-1,1,77,-63,-4222,0,-1,796,2152,2145,2528,2890,2715,2547,2343,2395
229072,-19280,28256,-26385,71919,0,0,-13,1,1,72,-68,-4230,3,-5,796,2152,2144,2525,2885,2714,2546,2344,2397
230073,-19272,28260,-26320,71984,0,0,-14,1,-2,77,-82,-4241,9,5,796,2152,2144,2525,2885,2714,2546,2344,2397
231074,-19280,28264,-26255,72049,0,0,-13,3,-4,96,-73,-4190,10,7,796,2152,2144,2525,2885,2714,2546,2344,2397
232075,-19280,28268,-26190,72114,0,0,-10,2,0,94,-57,-4210,9,-4,795,2152,2144,2525,2885,2714,2546,2344,2397
233076,-19276,28272,-26125,72179,0,0,-10,4,0,79,-84,-4253,4,-6,795,2152,2144,2525,2885,2714,2546,2344,2397
234077,-19280,28248,-26060,72244,0,0,-11,3,1,91,-65,-4246,1,-3,796,2152,2144,2525,2885,2714,2546,2344,2397
235078,-19276,28276,-25995,72309,0,0,-13,2,1,74,-65,-4231,-5,3,796,2153,2144,2526,2886,2716,2547,2345,2398
236079,-19276,28272,-25930,72374,0,0,-11,0,1,70,-97,-4224,9,7,796,2153,2144,2526,2886,2716,2547,2345,2398
237080,-19272,28268,-25865,72439,0,0,-10,1,1,94,-80,-4263,10,7,795,2153,2144,2526,2886,2716,2547,2345,2398
238081,-19276,28264,-25800,72504,0,0,-13,4,1,76,-93,-4245,5,-6,796,2153,2144,2526,2886,2716,2547,2345,2398
239082,-19280,28268,-25735,72569,0,0,-12,5,-1,69,-87,-4244,-6,-6,796,2153,2144,2526,2886,2716,2547,2345,2398
240083,-19272,28276,-25670,72634,0,0,-10,4,-1,67,-77,-4261,8,-6,796,2152,2147,2528,2890,2719,2549,2347,2399
241084,-19280,28276,-25605,72699,0,0,-9,2,-2,80,-76,-4254,1,-3,781,2152,2147,2528,2890,2719,2549,2347,2399
242085,-19288,28264,-25540,72764,0,0,-9,0,-1,82,-57,-4249,10,-5,795,2152,2147,2528,2890,2719,2549,2347,2399
243086,-19272,28256,-25475,72829,0,0,-10,0,-2,77,-60,-4276,9,-5,795,2152,2147,2528,2890,2719,2549,2347,2399
244087,-19272,28264,-25410,72894,0,0,-12,1,-2,78,-63,-4273,-7,6,795,2152,2147,2528,2890,2719,2549,2347,2399
245088,-19280,28264,-25345,72959,0,0,-10,1,-2,88,-74,-4301,-3,7,795,2152,2147,2528,2890,2719,2549,2347,2399
246089,-19268,28272,-25280,73024,0,0,-9,2,-1,94,-95,-4295,8,7,795,2155,2148,2529,2891,2719,2551,2347,2400
247090,-19276,28268,-25215,73089,0,0,-9,4,1,82,-69,-4257,9,5,795,2155,2148,2529,2891,2719,2551,2347,2400
248091,-19272,28268,-25150,73154,0,0,-10,4,-2,76,-62,-4237,6,5,795,2155,2148,2529,2891,2719,2551,2347,2400
249092,-19272,28272,-25085,73219,0,0,-9,1,-2,84,-81,-4276,-7,5,795,2155,2148,2529,2891,2719,2551,2347,2400
250093,-19272,28264,-25020,73284,0,0,-9,3,-2,75,-56,-4251,-2,-6,795,2155,2148,2529,2891,2719,2551,2347,2400
251094,-19272,28272,-24955,73349,0,0,-9,4,0,61,-60,-4251,9,-1,795,2156,2148,2529,2891,2719,2550,2346,2399
252095,-19268,28264,-24890,73414,0,0,-11,4,0,58,-60,-4271,9,8,795,2156,2148,2529,2891,2719,2550,2346,2399
253096,-19260,28264,-24825,73479,0,0,-9,4,-2,66,-68,-4238,2,-4,795,2156,2148,2529,2891,2719,2550,2346,2399
254097,-19268,28256,-24760,73544,0,0,-8,3,-3,67,-95,-4214,-8,-4,795,2156,2148,2529,2891,2719,2550,2346,2399
255098,-19268,28280,-24695,73609,0,0,-7,1,-2,70,-66,-4245,4,-4,795,2156,2148,2529,2891,2719,2550,2346,2399
256099,-19276,28272,-24630,73674,0,0,-10,2,-1,68,-81,-4254,9,-6,795,2156,2148,2529,2891,2719,2550,2346,2399
257100,-19276,28276,-24565,73739,0,0,-11,3,0,70,-83,-4235,6,-6,795,2154,2146,2529,2890,2718,2548,2346,2398
258101,-19272,28268,-24500,73804,0,0,-9,4,-2,70,-84,-4240,-7,-6,780,2154,2146,2529,2890,2718,2548,2346,2398
259102,-19268,28264,-24435,73869,0,0,-10,4,-2,75,-66,-4277,6,1,795,2154,2146,2529,2890,2718,2548,2346,2398
260103,-19276,28260,-24370,73934,0,0,-10,3,-4,100,-51,-4232,-7,2,795,2154,2146,2529,2890,2718,2548,2346,2398
261104,-19284,28268,-24305,73999,0,0,-10,2,-3,97,-65,-4258,5,7,795,2154,2146,2529,2890,2718,2548,2346,2398
262105,-19268,28268,-24240,74064,0,0,-8,4,1,75,-77,-4220,-7,-5,795,2156,2147,2529,2888,2714,2545,2343,2397
263106,-19280,28264,-24175,74129,0,0,-9,4,2,92,-65,-4209,-6,-2,795,2156,2147,2529,2888,2714,2545,2343,2397
264107,-19280,28272,-24110,74194,0,0,-10,3,1,90,-94,-4226,9,7,795,2156,2147,2529,2888,2714,2545,2343,2397
265108,-19268,28268,-24045,74259,0,0,-10,5,-1,72,-79,-4209,-5,1,795,2156,2147,2529,2888,2714,2545,2343,2397
266109,-19276,28264,-23980,74324,0,0,-10,4,-1,39,-70,-4213,2,-4,795,2156,2147,2529,2888,2714,2545,2343,2397
267110,-19272,28264,-23915,74389,0,0,-12,3,1,100,-68,-4224,1,-5,795,2156,2147,2529,2888,2714,2545,2343,2397
268111,-19276,28268,-23850,74454,0,0,-14,4,1,97,-61,-4210,-2,6,795,2151,2143,2527,2888,2716,2546,2343,2396
269112,-19272,28268,-23785,74519,0,0,-11,3,0,97,-56,-4212,-6,6,795,2151,2143,2527,2888,2716,2546,2343,2396
270113,-19276,28272,-23720,74584,0,0,-10,3,0,100,-74,-4210,3,-3,794,2151,2143,2527,2888,2716,2546,2343,2396
271114,-19276,28260,-23655,74649,0,0,-10,3,3,72,-77,-4243,6,-4,795,2151,2143,2527,2888,2716,2546,2343,2396
272115,-19276,28260,-23590,74714,0,0,-10,3,1,86,-52,-4245,7,5,796,2151,2143,2527,2888,2716,2546,2343,2396
273116,-19288,28268,-23525,74779,0,0,-11,4,-1,83,-42,-4235,-7,6,796,2152,2145,2527,2887,2718,2550,2346,2396
274117,-19264,28268,-23460,74844,0,0,-12,4,3,73,-55,-4278,-5,-1,795,2152,2145,2527,2887,2718,2550,2346,2396
275118,-19272,28272,-23395,74909,0,0,-11,3,4,67,-52,-4259,7,5,781,2152,2145,2527,2887,2718,2550,2346,2396
276119,-19268,28276,-23330,74974,0,0,-11,2,0,67,-87,-4266,-4,8,795,2152,2145,2527,2887,2718,2550,2346,2396
277120,-19280,28268,-23265,75039,0,0,-10,4,1,80,-83,-4264,10,2,795,2152,2145,2527,2887,2718,2550,2346,2396
278121,-19276,28280,-23200,75104,0,0,-9,5,0,87,-57,-4252,-1,-6,796,2152,2145,2527,2887,2718,2550,2346,2396
279122,-19280,28264,-23135,75169,0,0,-10,3,-3,76,-62,-4233,-8,-2,795,2153,2145,2527,2889,2719,2552,2348,2400
280123,-19272,28260,-23070,75234,0,0,-12,2,-1,71,-72,-4232,-6,2,795,2153,2145,2527,2889,2719,2552,2348,2400
281124,-19276,28268,-23005,75299,0,0,-11,0,-1,102,-76,-4237,8,4,795,2153,2145,2527,2889,2719,2552,2348,2400
282125,-19272,28260,-22940,75364,0,0,-10,-1,-1,90,-76,-4256,-7,3,795,2153,2145,2527,2889,2719,2552,2348,2400
283126,-19272,28272,-22875,75429,0,0,-11,0,0,94,-44,-4270,-2,-6,795,2153,2145,2527,2889,2719,2552,2348,2400
284127,-19276,28268,-22810,75494,0,0,-12,1,-1,90,-70,-4243,8,-5,795,2155,2148,2530,2891,2719,2553,2348,2400
285128,-19276,28268,-22745,75559,0,0,-10,2,-1,86,-60,-4233,9,-2,795,2155,2148,2530,2891,2719,2553,2348,2400
286129,-19272,28268,-22680,75624,0,0,-8,2,0,75,-77,-4252,-2,7,795,2155,2148,2530,2891,2719,2553,2348,2400
287130,-19276,28264,-22615,75689,0,0,-9,2,-1,55,-63,-4256,-7,5,795,2155,2148,2530,2891,2719,2553,2348,2400
288131,-19268,28264,-22550,75754,0,0,-10,2,-3,79,-53,-4277,7,7,795,2155,2148,2530,2891,2719,2553,2348,2400
289132,-19268,28268,-22485,75819,0,0,-11,0,-1,96,-61,-4251,8,2,796,2155,2148,2530,2891,2719,2553,2348,2400
290133,-19276,28268,-22420,75884,0,0,-10,-2,-2,74,-63,-4278,4,-1,795,2154,2147,2530,2892,2720,2549,2350,2402
291134,-19268,28256,-22355,75949,0,0,-9,-1,-2,79,-68,-4284,-1,-6,795,2154,2147,2530,2892,2720,2549,2350,2402
292135,-19280,28256,-22290,76014,0,0,-9,1,-4,76,-49,-4241,10,0,781,2154,2147,2530,2892,2720,2549,2350,2402
293138,-19280,28268,-22225,76079,0,0,-7,1,-2,98,-47,-4267,-5,3,795,2154,2147,2530,2892,2720,2549,2350,2402
294137,-19276,28268,-22160,76144,0,0,-9,-1,-2,87,-76,-4249,9,7,795,2154,2147,2530,2892,2720,2549,2350,2402
295138,-19280,28268,-22095,76209,0,0,-9,-2,-1,88,-75,-4234,8,-3,795,2153,2145,2527,2888,2716,2549,2343,2399
296139,-19276,28264,-22030,76274,0,0,-9,-1,-3,97,-63,-4243,1,-5,795,2153,2145,2527,2888,2716,2549,2343,2399
297140,-19280,28280,-21965,76339,0,0,-8,-2,-2,77,-58,-4256,2,-2,795,2153,2145,2527,2888,2716,2549,2343,2399
298141,-19272,28268,-21900,76404,0,0,-11,-3,-2,93,-68,-4257,7,3,795,2153,2145,2527,2888,2716,2549,2343,2399
299142,-19276,28268,-21835,76469,0,0,-8,-1,0,55,-61,-4255,-7,-5,795,2153,2145,2527,2888,2716,2549,2343,2399
300143,-19280,28264,-21770,76534,0,0,-8,2,-1,75,-71,-4225,9,-2,795,2153,2145,2527,2888,2716,2549,2343,2399
301144,-19268,28276,-21705,76599,0,0,-8,2,-2,77,-60,-4258,9,6,795,2152,2145,2527,2888,2715,2547,2343,2395
302145,-19272,28252,-21640,76664,0,0,-7,2,-3,72,-65,-4254,8,1,795,2152,2145,2527,2888,2715,2547,2343,2395
303146,-19276,28268,-21575,76729,0,0,-8,3,-1,73,-71,-4242,-7,-6,795,2152,2145,2527,2888,2715,2547,2343,2395
304147,-19280,28260,-21510,76794,0,0,-8,3,0,81,-78,-4230,7,7,795,2152,2145,2527,2888,2715,2547,2343,2395
305148,-19284,28264,-21445,76859,0,0,-7,2,3,70,-52,-4197,4,6,795,2152,2145,2527,2888,2715,2547,2343,2395
306149,-19276,28272,-21380,76924,0,0,-8,3,1,53,-76,-4202,-7,-4,795,2151,2144,2526,2887,2714,2545,2344,2397
307150,-19276,28272,-21315,76989,0,0,-8,3,2,59,-63,-4254,-1,-4,796,2151,2144,2526,2887,2714,2545,2344,2397
308151,-19276,28280,-21250,77054,0,0,-13,2,0,50,-72,-4265,-1,7,795,2151,2144,2526,2887,2714,2545,2344,2397
309152,-19276,28260,-21185,77119,0,0,-12,0,1,59,-73,-4253,-7,3,780,2151,2144,2526,2887,2714,2545,2344,2397
310153,-19268,28268,-21120,77184,0,0,-9,4,-1,82,-75,-4224,8,-3,795,2151,2144,2526,2887,2714,2545,2344,2397
311154,-19272,28268,-21055,77249,0,0,-7,4,1,75,-62,-4231,6,-6,795,2151,2144,2526,2887,2714,2545,2344,2397
312155,-19264,28272,-20990,77314,0,0,-8,6,2,61,-82,-4246,2,2,795,2152,2144,2526,2887,2714,2544,2344,2397
313156,-19264,28268,-20925,77379,0,0,-11,6,1,76,-77,-4265,-7,8,795,2152,2144,2526,2887,2714,2544,2344,2397
314157,-19280,28260,-20860,77444,0,0,-14,5,-1,73,-56,-4252,8,4,795,2152,2144,2526,2887,2714,2544,2344,2397
315158,-19272,28260,-20795,77509,0,0,-14,6,0,84,-66,-4254,9,0,794,2152,2144,2526,2887,2714,2544,2344,2397
316159,-19280,28268,-20730,77574,0,0,-15,7,3,75,-55,-4224,-6,-3,795,2152,2144,2526,2887,2714,2544,2344,2397
317160,-19272,28268,-20665,77639,0,0,-13,5,3,72,-52,-4214,1,5,795,2153,2147,2528,2889,2715,2548,2345,2399
318161,-19276,28272,-20600,77704,0,0,-12,5,2,74,-81,-4258,6,7,795,2153,2147,2528,2889,2715,2548,2345,2399
319162,-19280,28272,-20535,77769,0,0,-12,7,1,82,-67,-4232,-7,-4,794,2153,2147,2528,2889,2715,2548,2345,2399
320163,-19268,28264,-20470,77834,0,0,-13,9,-2,70,-65,-4258,-3,-5,795,2153,2147,2528,2889,2715,2548,2345,2399
321164,-19272,28276,-20405,77899,0,0,-13,9,-1,82,-44,-4229,0,-4,795,2153,2147,2528,2889,2715,2548,2345,2399
322165,-19280,28264,-20340,77964,0,0,-12,5,-1,94,-49,-4260,9,6,795,2153,2147,2528,2889,2715,2548,2345,2399
323166,-19288,28264,-20275,78029,0,0,-12,2,-1,80,-79,-4285,-6,-6,795,2153,2146,2530,2892,2720,2550,2348,2399
324167,-19272,28264,-20210,78094,0,0,-11,4,-1,82,-75,-4274,-1,-6,795,2153,2146,2530,2892,2720,2550,2348,2399
325168,-19276,28264,-20145,78159,0,0,-10,6,-1,79,-68,-4254,8,2,795,2153,2146,2530,2892,2720,2550,2348,2399
326169,-19272,28256,-20080,78224,0,0,-10,7,1,93,-63,-4237,-6,7,780,2153,2146,2530,2892,2720,2550,2348,2399
327170,-19272,28260,-20015,78289,0,0,-9,3,0,97,-63,-4248,-6,3,795,2153,2146,2530,2892,2720,2550,2348,2399
328171,-19280,28264,-19950,78354,0,0,-9,2,0,85,-71,-4268,-6,6,795,2154,2147,2529,2892,2720,2550,2346,2399
329172,-19288,28276,-19885,78419,0,0,-10,0,-2,83,-81,-4256,7,-5,794,2154,2147,2529,2892,2720,2550,2346,2399
330173,-19276,28268,-19820,78484,0,0,-11,0,-4,75,-65,-4267,10,-1,794,2154,2147,2529,2892,2720,2550,2346,2399
331174,-19268,28260,-19755,78549,0,0,-12,1,-3,82,-44,-4269,4,6,794,2154,2147,2529,2892,2720,2550,2346,2399
332175,-19280,28268,-19690,78614,0,0,-8,1,-1,108,-49,-4258,-2,6,795,2154,2147,2529,2892,2720,2550,2346,2399
333176,-19280,28268,-19625,78679,0,0,-8,2,-2,108,-68,-4245,-2,-3,795,2154,2147,2529,2892,2720,2550,2346,2399
334177,-19280,28272,-19560,78744,0,0,-10,3,-2,84,-70,-4236,7,6,794,2154,2147,2529,2890,2719,2550,2346,2399
335178,-19272,28272,-19495,78809,0,0,-9,2,-3,83,-85,-4238,4,8,794,2154,2147,2529,2890,2719,2550,2346,2399
336179,-19276,28272,-19430,78874,0,0,-8,2,-3,82,-80,-4250,8,6,795,2154,2147,2529,2890,2719,2550,2346,2399
337180,-19272,28260,-19365,78939,0,0,-10,-1,-3,88,-65,-4237,4,-4,794,2154,2147,2529,2890,2719,2550,2346,2399
338181,-19280,28264,-19300,79004,0,0,-8,0,-3,84,-59,-4243,-6,-6,795,2154,2147,2529,2890,2719,2550,2346,2399
339182,-19276,28256,-19235,79069,0,0,-6,2,-4,80,-70,-4218,-3,1,795,2152,2144,2528,2888,2717,2549,2346,2398
340183,-19276,28260,-19170,79134,0,0,-6,3,-4,80,-51,-4250,-3,7,795,2152,2144,2528,2888,2717,2549,2346,2398
341184,-19276,28272,-19105,79199,0,0,-8,0,-2,78,-68,-4273,3,4,795,2152,2144,2528,2888,2717,2549,2346,2398
342185,-19276,28280,-19040,79264,0,0,-8,0,-1,83,-40,-4233,7,3,795,2152,2144,2528,2888,2717,2549,2346,2398
343186,-19272,28272,-18975,79329,0,0,-10,2,-1,98,-55,-4227,-1,-4,780,2152,2144,2528,2888,2717,2549,2346,2398
344187,-19284,28268,-18910,79394,0,0,-8,2,-1,100,-64,-4254,-4,-5,795,2152,2144,2528,2888,2717,2549,2346,2398
345188,-19268,28268,-18845,79459,0,0,-9,-2,-2,87,-85,-4271,-1,-2,795,2154,2146,2528,2888,2716,2548,2344,2398
346189,-19284,28256,-18780,79524,0,0,-8,0,-1,84,-76,-4234,4,7,795,2154,2146,2528,2888,2716,2548,2344,2398
347190,-19272,28264,-18715,79589,0,0,-7,2,1,93,-57,-4233,0,5,794,2154,2146,2528,2888,2716,2548,2344,2398
348191,-19268,28268,-18650,79654,0,0,-8,-1,-2,82,-67,-4251,-6,-4,794,2154,2146,2528,2888,2716,2548,2344,2398
349192,-19280,28268,-18585,79719,0,0,-10,-2,-1,77,-60,-4213,-1,-4,795,2154,2146,2528,2888,2716,2548,2344,2398
350193,-19268,28268,-18520,79784,0,0,-8,1,1,88,-66,-4240,0,-1,795,2153,2143,2531,2892,2716,2546,2344,2397
351194,-19268,28288,-18455,79849,0,0,-7,1,0,97,-76,-4283,0,7,795,2153,2143,2531,2892,2716,2546,2344,2397
352195,-19276,28264,-18390,79914,0,0,-7,-2,1,53,-60,-4244,0,7,794,2153,2143,2531,2892,2716,2546,2344,2397
353196,-19272,28268,-18325,79979,0,0,-8,0,0,67,-57,-4263,-2,7,795,2153,2143,2531,2892,2716,2546,2344,2397
354197,-19280,28272,-18260,80044,0,0,-11,1,-4,89,-70,-4241,9,-1,795,2153,2143,2531,2892,2716,2546,2344,2397
355198,-19276,28268,-18195,80109,0,0,-12,0,-1,98,-83,-4217,-6,-6,795,2153,2143,2531,2892,2716,2546,2344,2397
356199,-19280,28268,-18130,80174,0,0,-13,0,-1,84,-80,-4240,7,-6,795,2152,2145,2527,2891,2719,2550,2344,2400
357200,-19276,28264,-18065,80239,0,0,-11,2,0,81,-92,-4256,2,-1,795,2152,2145,2527,2891,2719,2550,2344,2400
358201,-19280,28260,-18000,80304,0,0,-10,4,1,67,-106,-4272,3,7,795,2152,2145,2527,2891,2719,2550,2344,2400
359202,-19276,28276,-17935,80369,0,0,-11,5,1,54,-108,-4262,7,0,795,2152,2145,2527,2891,2719,2550,2344,2400
360203,-19280,28272,-17870,80434,0,0,-12,5,0,49,-79,-4252,-4,-4,780,2152,2145,2527,2891,2719,2550,2344,2400
361204,-19264,28264,-17805,80499,0,0,-12,4,-3,70,-61,-4270,3,-2,794,2153,2146,2529,2887,2719,2550,2348,2400
362205,-19276,28256,-17740,80564,0,0,-13,2,-2,79,-52,-4237,-5,-2,794,2153,2146,2529,2887,2719,2550,2348,2400
363206,-19268,28276,-17675,80629,0,0,-12,1,-3,99,-49,-4222,9,6,794,2153,2146,2529,2887,2719,2550,2348,2400
364207,-19276,28268,-17610,80694,0,0,-11,3,1,73,-66,-4226,-4,8,794,2153,2146,2529,2887,2719,2550,2348,2400
365208,-19276,28280,-17545,80759,0,0,-12,3,-1,76,-93,-4246,3,-2,794,2153,2146,2529,2887,2719,2550,2348,2400
366209,-19272,28280,-17480,80824,0,0,-14,2,-1,84,-69,-4275,-3,-6,794,2153,2146,2529,2887,2719,2550,2348,2400
367210,-19276,28272,-17415,80889,0,0,-10,3,0,68,-66,-4240,-6,7,794,2153,2147,2530,2890,2719,2547,2347,2401
368211,-19272,28268,-17350,80954,0,0,-8,2,2,68,-64,-4259,4,-1,793,2153,2147,2530,2890,2719,2547,2347,2401
369212,-19272,28264,-17285,81019,0,0,-9,2,-2,72,-81,-4264,-6,-5,794,2153,2147,2530,2890,2719,2547,2347,2401
370213,-19272,28272,-17220,81084,0,0,-11,4,-3,77,-98,-4273,6,8,793,2153,2147,2530,2890,2719,2547,2347,2401
371214,-19276,28276,-17155,81149,0,0,-11,4,-2,87,-72,-4246,1,-4,794,2153,2147,2530,2890,2719,2547,2347,2401
372215,-19280,28268,-17090,81214,0,0,-12,2,-2,78,-78,-4238,-4,-6,794,2153,2145,2528,2889,2718,2551,2343,2402
373216,-19276,28264,-17025,81279,0,0,-14,2,0,88,-56,-4240,3,7,794,2153,2145,2528,2889,2718,2551,2343,2402
374217,-19268,28256,-16960,81344,0,0,-13,4,1,100,-51,-4236,9,3,794,2153,2145,2528,2889,2718,2551,2343,2402
375218,-19272,28280,-16895,81409,0,0,-11,5,-1,77,-58,-4267,-7,-2,794,2153,2145,2528,2889,2718,2551,2343,2402
376219,-19288,28260,-16830,81474,0,0,-11,2,-2,61,-67,-4271,6,-5,794,2153,2145,2528,2889,2718,2551,2343,2402
377220,-19272,28268,-16765,81539,0,0,-11,1,-2,78,-110,-4284,9,0,780,2153,2145,2528,2889,2718,2551,2343,2402
378221,-19280,28264,-16700,81604,0,0,-11,1,-2,95,-92,-4282,-7,5,793,2152,2145,2527,2887,2718,2548,2344,2397
379222,-19276,28268,-16635,81669,0,0,-10,4,-3,79,-59,-4275,-4,-2,792,2152,2145,2527,2887,2718,2548,2344,2397
380223,-19280,28280,-16570,81734,0,0,-9,4,0,64,-55,-4240,8,-1,792,2152,2145,2527,2887,2718,2548,2344,2397
381224,-19268,28268,-16505,81799,0,0,-9,4,0,70,-72,-4252,9,6,791,2152,2145,2527,2887,2718,2548,2344,2397
382225,-19276,28272,-16440,81864,0,0,-11,2,0,86,-50,-4267,4,-4,792,2152,2145,2527,2887,2718,2548,2344,2397
383226,-19272,28268,-16375,81929,0,0,-12,2,-3,83,-59,-4240,-1,-5,791,2153,2147,2529,2888,2717,2548,2345,2399
384227,-19280,28268,-16310,81994,0,0,-10,0,-4,64,-78,-4231,3,-2,791,2153,2147,2529,2888,2717,2548,2345,2399
385228,-19268,28276,-16245,82059,0,0,-8,2,-3,84,-72,-4237,8,5,791,2153,2147,2529,2888,2717,2548,2345,2399
386229,-19284,28268,-16180,82124,0,0,-7,2,-4,89,-74,-4250,-5,-4,790,2153,2147,2529,2888,2717,2548,2345,2399
387230,-19276,28260,-16115,82189,0,0,-7,0,-6,76,-64,-4273,-7,-1,789,2153,2147,2529,2888,2717,2548,2345,2399
388231,-19268,28260,-16050,82254,0,0,-9,-1,-4,77,-50,-4262,-7,8,789,2153,2147,2529,2888,2717,2548,2345,2399
389232,-19260,28268,-15985,82319,0,0,-8,0,-3,66,-79,-4246,-6,-2,791,2152,2144,2528,2887,2717,2548,2345,2398
390233,-19268,28256,-15920,82384,0,0,-9,1,-3,61,-82,-4255,10,-5,791,2152,2144,2528,2887,2717,2548,2345,2398
391234,-19276,28272,-15855,82449,0,0,-10,2,-4,79,-66,-4241,8,7,790,2152,2144,2528,2887,2717,2548,2345,2398
392235,-19276,28276,-15790,82514,0,0,-8,2,-2,95,-85,-4260,4,3,790,2152,2144,2528,2887,2717,2548,2345,2398
393236,-19272,28260,-15725,82579,0,0,-8,0,1,86,-56,-4261,-4,-4,792,2152,2144,2528,2887,2717,2548,2345,2398
394237,-19276,28264,-15660,82644,0,0,-7,2,0,72,-66,-4251,5,-1,775,2153,2146,2528,2889,2715,2547,2343,2397
395238,-19268,28268,-15595,82709,0,0,-9,2,0,74,-75,-4256,10,3,791,2153,2146,2528,2889,2715,2547,2343,2397
396239,-19280,28264,-15530,82774,0,0,-10,1,1,71,-77,-4277,9,8,790,2153,2146,2528,2889,2715,2547,2343,2397
397240,-19276,28268,-15465,82839,0,0,-11,1,0,81,-80,-4239,8,-2,790,2153,2146,2528,2889,2715,2547,2343,2397
398241,-19276,28268,-15400,82904,0,0,-12,0,-2,90,-66,-4235,1,-5,791,2153,2146,2528,2889,2715,2547,2343,2397
399242,-19276,28260,-15335,82969,0,0,-9,1,-2,85,-90,-4201,-5,-2,792,2153,2146,2528,2889,2715,2547,2343,2397
400243,-19276,28268,-15270,83034,0,0,-7,-1,-1,111,-53,-4257,1,6,791,2154,2150,2532,2893,2716,2548,2344,2398
401244,-19276,28268,-15205,83099,0,0,-8,-1,-3,117,-44,-4261,-6,5,790,2154,2150,2532,2893,2716,2548,2344,2398
402245,-19276,28264,-15140,83164,0,0,-11,0,-2,104,-79,-4243,-7,5,791,2154,2150,2532,2893,2716,2548,2344,2398
403246,-19264,28268,-15075,83229,0,0,-10,3,-1,92,-80,-4240,-1,-2,791,2154,2150,2532,2893,2716,2548,2344,2398
404247,-19284,28268,-15010,83294,0,0,-11,2,1,101,-76,-4237,4,-6,791,2154,2150,2532,2893,2716,2548,2344,2398
405248,-19268,28268,-14945,83359,0,0,-13,2,1,91,-59,-4250,9,-3,791,2152,2145,2527,2891,2719,2550,2346,2400
406249,-19280,28272,-14880,83424,0,0,-12,1,0,83,-85,-4251,-7,5,791,2152,2145,2527,2891,2719,2550,2346,2400
407250,-19280,28268,-14815,83489,0,0,-12,0,0,71,-87,-4265,-1,0,791,2152,2145,2527,2891,2719,2550,2346,2400
408251,-19276,28276,-14750,83554,0,0,-12,0,-1,70,-78,-4278,9,-6,791,2152,2145,2527,2891,2719,2550,2346,2400
409252,-19272,28272,-14685,83619,0,0,-11,0,0,82,-85,-4262,-7,-3,790,2152,2145,2527,2891,2719,2550,2346,2400
410253,-19272,28272,-14620,83684,0,0,-13,0,1,90,-61,-4243,-6,7,791,2152,2144,2527,2891,2719,2550,2346,2400
411254,-19280,28268,-14555,83749,0,0,-13,3,0,53,-79,-4230,-3,0,777,2152,2144,2528,2889,2716,2547,2343,2399
412255,-19272,28272,-14490,83814,0,0,-12,5,0,68,-66,-4240,0,-2,791,2152,2144,2528,2889,2716,2547,2343,2399
413256,-19272,28268,-14425,83879,0,0,-13,3,-1,90,-68,-4248,6,8,791,2152,2144,2528,2889,2716,2547,2343,2399
414257,-19280,28272,-14360,83944,0,0,-13,3,0,92,-78,-4248,-1,2,791,2152,2144,2528,2889,2716,2547,2343,2399
415258,-19268,28268,-14295,84009,0,0,-10,1,1,108,-83,-4244,10,2,792,2152,2144,2528,2889,2716,2547,2343,2399
416259,-19268,28276,-14230,84074,0,0,-10,-1,-1,79,-82,-4239,9,8,791,2154,2147,2529,2889,2717,2548,2345,2398
417260,-19276,28264,-14165,84139,0,0,-12,-2,-2,78,-67,-4243,9,-4,791,2154,2147,2529,2889,2717,2548,2345,2398
418261,-19272,28260,-14100,84204,0,0,-11,1,0,58,-73,-4254,3,-1,791,2154,2147,2529,2889,2717,2548,2345,2398
419262,-19272,28272,-14035,84269,0,0,-11,1,-1,75,-58,-4297,-6,8,791,2154,2147,2529,2889,2717,2548,2345,2398
420263,-19280,28252,-13970,84334,0,0,-11,0,-1,72,-63,-4258,4,0,791,2154,2147,2529,2889,2717,2548,2345,2398
421264,-19272,28260,-13905,84399,0,0,-11,3,-3,100,-58,-4278,-7,-5,791,2151,2144,2527,2887,2716,2548,2345,2399
422265,-19276,28264,-13840,84464,0,0,-10,4,-3,72,-70,-4245,5,6,791,2151,2144,2527,2887,2716,2548,2345,2399
423266,-19284,28264,-13775,84529,0,0,-8,2,-3,51,-64,-4232,-6,-2,791,2151,2144,2527,2887,2716,2548,2345,2399
424267,-19284,28272,-13710,84594,0,0,-9,0,-1,81,-56,-4250,8,-4,790,2151,2144,2527,2887,2716,2548,2345,2399
425268,-19272,28268,-13645,84659,0,0,-10,1,1,82,-87,-4247,8,0,791,2151,2144,2527,2887,2716,2548,2345,2399
426269,-19280,28264,-13580,84724,0,0,-9,2,0,68,-55,-4273,9,7,791,2151,2144,2527,2887,2716,2548,2345,2399
427270,-19276,28260,-13515,84789,0,0,-9,3,-3,82,-72,-4224,9,-1,790,2152,2145,2528,2888,2718,2547,2345,2398
428271,-19276,28280,-13450,84854,0,0,-10,4,-2,88,-80,-4246,10,-5,777,2152,2145,2528,2888,2718,2547,2345,2398
429272,-19280,28264,-13385,84919,0,0,-8,3,0,72,-85,-4220,11,-5,791,2152,2145,2528,2888,2718,2547,2345,2398
430273,-19268,28272,-13320,84984,0,0,-9,2,0,79,-87,-4283,6,-1,792,2152,2145,2528,2888,2718,2547,2345,2398
431274,-19276,28264,-13255,85049,0,0,-9,1,-1,72,-70,-4273,8,5,792,2152,2145,2528,2888,2718,2547,2345,2398
432275,-19284,28268,-13190,85114,0,0,-8,3,-1,77,-89,-4240,7,7,792,2156,2149,2532,2890,2720,2548,2345,2398
433276,-19272,28260,-13125,85179,0,0,-11,5,-1,90,-81,-4247,9,-2,792,2156,2149,2532,2890,2720,2548,2345,2398
434277,-19280,28264,-13060,85244,0,0,-10,5,-3,74,-69,-4251,9,-5,791,2156,2149,2532,2890,2720,2548,2345,2398
435278,-19280,28256,-12995,85309,0,0,-11,2,0,56,-57,-4254,-6,-5,791,2156,2149,2532,2890,2720,2548,2345,2398
436279,-19280,28264,-12930,85374,0,0,-7,1,2,74,-63,-4256,-7,-6,791,2156,2149,2532,2890,2720,2548,2345,2398
437280,-19280,28260,-12865,85439,0,0,-5,0,-1,88,-73,-4260,-1,-6,792,2156,2149,2532,2890,2720,2548,2345,2398
438281,-19280,28256,-12800,85504,0,0,-9,1,-2,48,-83,-4237,10,-4,791,2153,2143,2532,2892,2720,2548,2345,2400
439282,-19276,28268,-12735,85569,0,0,-10,2,0,67,-69,-4246,4,6,792,2153,2143,2532,2892,2720,2548,2345,2400
440283,-19280,28268,-12670,85634,0,0,-11,4,1,81,-96,-4265,6,8,791,2153,2143,2532,2892,2720,2548,2345,2400
441284,-19276,28264,-12605,85699,0,0,-11,5,-2,87,-91,-4259,1,6,792,2153,2143,2532,2892,2720,2548,2345,2400
442285,-19268,28264,-12540,85764,0,0,-11,3,-2,102,-73,-4278,-7,-6,791,2153,2143,2532,2892,2720,2548,2345,2400
443286,-19276,28260,-12475,85829,0,0,-11,4,-2,103,-50,-4251,-6,-4,792,2153,2145,2527,2894,2719,2548,2346,2400
444287,-19272,28268,-12410,85894,0,0,-11,5,-1,93,-58,-4249,-6,-1,791,2153,2145,2527,2894,2719,2548,2346,2400
445288,-19276,28268,-12345,85959,0,0,-12,5,1,88,-63,-4252,-7,8,775,2153,2145,2527,2894,2719,2548,2346,2400
446289,-19268,28264,-12280,86024,0,0,-11,3,0,97,-62,-4264,-6,5,790,2153,2145,2527,2894,2719,2548,2346,2400
447290,-19264,28256,-12215,86089,0,0,-11,5,-1,76,-58,-4259,-2,6,790,2153,2145,2527,2894,2719,2548,2346,2400
448291,-19280,28268,-12150,86154,0,0,-9,5,0,90,-77,-4276,8,8,790,2153,2145,2527,2894,2719,2548,2346,2400
449292,-19276,28252,-11886,86418,0,0,-9,5,0,66,-71,-4263,9,3,790,2153,2147,2528,2892,2719,2547,2348,2401
450293,-19268,28272,-11821,86483,0,0,-12,4,1,69,-70,-4232,-3,-5,790,2153,2147,2528,2892,2719,2547,2348,2401
451294,-19284,28264,-11756,86548,0,0,-11,3,0,76,-70,-4240,-5,-2,790,2153,2147,2528,2892,2719,2547,2348,2401
452295,-19284,28268,-11691,86613,0,0,-11,1,1,66,-64,-4227,10,-2,789,2153,2147,2528,2892,2719,2547,2348,2401
453296,-19276,28264,-11626,86678,0,0,-10,4,-1,81,-74,-4229,1,-3,789,2153,2147,2528,2892,2719,2547,2348,2401
454297,-19272,28260,-11561,86743,0,0,-11,5,0,94,-82,-4260,-7,8,790,2152,2145,2528,2890,2717,2549,2343,2399
455298,-19272,28268,-11496,86808,0,0,-10,4,0,94,-54,-4242,-6,5,790,2152,2145,2528,2890,2717,2549,2343,2399
456299,-19272,28264,-11431,86873,0,0,-11,3,1,84,-60,-4263,7,6,790,2152,2145,2528,2890,2717,2549,2343,2399
457300,-19272,28276,-11366,86938,0,0,-14,2,2,72,-53,-4262,5,-1,789,2152,2145,2528,2890,2717,2549,2343,2399
458301,-19280,28252,-11301,87003,0,0,-11,3,2,91,-42,-4247,3,-5,789,2152,2145,2528,2890,2717,2549,2343,2399
459302,-19276,28268,-11236,87068,0,0,-10,3,-1,84,-55,-4257,3,-6,788,2152,2145,2528,2890,2717,2549,2343,2399
460303,-19268,28268,-11171,87133,0,0,-9,3,-3,99,-61,-4275,0,-5,787,2152,2144,2527,2888,2718,2548,2345,2395
461304,-19272,28260,-11106,87198,0,0,-9,2,-2,54,-61,-4219,-2,-4,787,2152,2144,2527,2888,2718,2548,2345,2395
462305,-19276,28264,-11041,87263,0,0,-9,0,0,95,-79,-4230,1,-4,770,2152,2144,2527,2888,2718,2548,2345,2395
463306,-19272,28268,-10976,87328,0,0,-8,1,-1,122,-58,-4226,-4,4,790,2152,2144,2527,2888,2718,2548,2345,2395
464307,-19272,28268,-10911,87393,0,0,-9,2,-1,93,-63,-4243,-1,5,790,2152,2144,2527,2888,2718,2548,2345,2395
465308,-19272,28288,-10846,87458,0,0,-11,1,-2,73,-62,-4231,-4,1,790,2151,2145,2518,2874,2719,2548,2345,2397
466309,-19276,28272,-10781,87523,0,0,-8,1,-4,73,-64,-4220,-7,-6,790,2151,2145,2518,2874,2719,2548,2345,2397
467310,-19268,28260,-10716,87588,0,0,-9,1,-4,75,-67,-4230,4,-5,790,2151,2145,2518,2874,2719,2548,2345,2397
468311,-19272,28268,-10651,87653,0,0,-11,-2,-2,76,-61,-4237,1,1,790,2151,2145,2518,2874,2719,2548,2345,2397
469312,-19276,28268,-10586,87718,0,0,-11,0,0,97,-63,-4234,3,8,790,2151,2145,2518,2874,2719,2548,2345,2397
470314,-19280,28264,-10521,87783,0,0,-9,1,-1,85,-77,-4215,-1,7,790,2151,2145,2518,2874,2719,2548,2345,2397
471314,-19272,28256,-10456,87848,0,0,-10,1,-3,82,-66,-4218,2,-2,790,2152,2144,2528,2888,2716,2547,2345,2398
472315,-19276,28264,-10391,87913,0,0,-9,1,-3,86,-64,-4230,6,-6,790,2152,2144,2528,2888,2716,2547,2345,2398
473316,-19272,28276,-10326,87978,0,0,-9,0,-2,92,-52,-4225,7,-6,790,2152,2144,2528,2888,2716,2547,2345,2398
474317,-19272,28260,-10261,88043,0,0,-11,-1,-4,82,-55,-4199,2,-4,790,2152,2144,2528,2888,2716,2547,2345,2398
475318,-19276,28260,-10196,88108,0,0,-12,-2,-3,63,-62,-4207,-5,8,790,2152,2144,2528,2888,2716,2547,2345,2398
476319,-19276,28252,-10131,88173,0,0,-9,-1,-2,89,-55,-4268,-6,3,790,2151,2148,2530,2890,2716,2546,2344,2397
477320,-19280,28268,-10066,88238,0,0,-8,1,0,86,-85,-4285,7,-2,790,2151,2148,2530,2890,2716,2546,2344,2397
478321,-19268,28268,-10001,88303,0,0,-10,-1,-1,71,-79,-4225,-1,0,789,2151,2148,2530,2890,2716,2546,2344,2397
479322,-19276,28264,-9936,88368,0,0,-11,-3,-3,62,-77,-4225,10,3,775,2151,2148,2530,2890,2716,2546,2344,2397
480323,-19272,28276,-9871,88433,0,0,-10,0,-1,75,-66,-4221,5,-3,787,2151,2148,2530,2890,2716,2546,2344,2397
481324,-19276,28264,-9806,88498,0,0,-8,0,0,70,-87,-4246,9,4,787,2151,2148,2530,2890,2716,2546,2344,2397
482325,-19280,28276,-9741,88563,0,0,-8,3,-2,62,-77,-4237,-7,7,787,2153,2145,2531,2891,2719,2542,2348,2400
483326,-19272,28268,-9676,88628,0,0,-8,2,0,74,-78,-4216,-5,0,789,2153,2145,2531,2891,2719,2542,2348,2400
484327,-19276,28264,-9611,88693,0,0,-10,3,-1,64,-48,-4216,-3,-6,789,2153,2145,2531,2891,2719,2542,2348,2400
485328,-19272,28264,-9546,88758,0,0,-12,2,2,58,-58,-4229,-2,-4,788,2153,2145,2531,2891,2719,2542,2348,2400
486329,-19284,28260,-9481,88823,0,0,-10,2,-3,76,-62,-4239,-7,-1,787,2153,2145,2531,2891,2719,2542,2348,2400
487330,-19280,28272,-9416,88888,0,0,-10,0,-5,77,-95,-4219,9,1,788,2152,2145,2528,2890,2715,2547,2348,2400
488331,-19276,28288,-9351,88953,0,0,-11,1,-3,64,-89,-4241,9,5,787,2152,2145,2528,2890,2715,2547,2348,2400
489332,-19276,28268,-9286,89018,0,0,-11,2,-2,56,-65,-4251,1,8,788,2152,2145,2528,2890,2715,2547,2348,2400
490333,-19280,28268,-9221,89083,0,0,-12,5,-2,75,-43,-4225,-1,4,788,2152,2145,2528,2890,2715,2547,2348,2400
491334,-19276,28280,-9156,89148,0,0,-11,4,-1,70,-87,-4225,-2,-5,788,2152,2145,2528,2890,2715,2547,2348,2400
492335,-19280,28276,-9091,89213,0,0,-12,3,-1,55,-84,-4243,-7,-6,788,2152,2145,2528,2890,2715,2547,2348,2400
493336,-19280,28260,-9026,89278,0,0,-13,4,-1,67,-84,-4244,-7,-1,788,2153,2146,2529,2890,2717,2547,2346,2399
494337,-19268,28264,-8961,89343,0,0,-10,5,-1,62,-70,-4237,-2,2,788,2153,2146,2529,2890,2717,2547,2346,2399
495338,-19280,28260,-8896,89408,0,0,-8,5,0,97,-61,-4235,-3,8,788,2153,2146,2529,2890,2717,2547,2346,2399
496339,-19268,28264,-8831,89473,0,0,-11,6,0,89,-75,-4291,-5,3,774,2153,2146,2529,2890,2717,2547,2346,2399
497340,-19276,28248,-8766,89538,0,0,-12,5,-1,84,-68,-4314,2,8,785,2153,2146,2529,2890,2717,2547,2346,2399
498341,-19272,28268,-8701,89603,0,0,-10,4,-2,94,-68,-4270,-3,-1,786,2152,2145,2530,2891,2706,2547,2337,2398
499342,-19280,28260,-8636,89668,0,0,-10,4,-1,89,-55,-4245,6,-3,786,2152,2145,2530,2891,2706,2547,2337,2398
500343,-19272,28268,-8571,89733,0,0,-12,2,1,76,-56,-4218,0,-5,786,2152,2145,2530,2891,2706,2547,2337,2398
501344,-19276,28264,-8506,89798,0,0,-12,2,1,97,-41,-4232,3,-5,786,2152,2145,2530,2891,2706,2547,2337,2398
502345,-19272,28276,-8441,89863,0,0,-12,3,0,99,-50,-4251,2,-1,786,2152,2145,2530,2891,2706,2547,2337,2398
503346,-19276,28264,-8376,89928,0,0,-9,4,1,110,-76,-4278,1,8,786,2152,2145,2530,2891,2706,2547,2337,2398
504347,-19280,28284,-8311,89993,0,0,-9,4,3,70,-83,-4281,-7,7,786,2153,2145,2529,2889,2717,2549,2346,2399
505348,-19264,28264,-8246,90058,0,0,-10,6,1,72,-88,-4246,5,-5,785,2153,2145,2529,2889,2717,2549,2346,2399
506349,-19272,28268,-8181,90123,0,0,-10,4,-1,85,-70,-4245,-2,-5,785,2153,2145,2529,2889,2717,2549,2346,2399
507350,-19280,28284,-8116,90188,0,0,-10,2,-1,65,-51,-4252,-7,-5,785,2153,2145,2529,2889,2717,2549,2346,2399
508351,-19272,28268,-8051,90253,0,0,-11,2,1,89,-71,-4245,-4,2,786,2153,2145,2529,2889,2717,2549,2346,2399
509352,-19268,28260,-7986,90318,0,0,-12,0,0,94,-65,-4267,3,5,789,2152,2145,2528,2888,2718,2548,2345,2397
510353,-19276,28272,-7921,90383,0,0,-10,4,-2,87,-70,-4251,5,2,788,2152,2145,2528,2888,2718,2548,2345,2397
511354,-19280,28272,-7856,90448,0,0,-9,5,-1,81,-67,-4226,2,7,786,2152,2145,2528,2888,2718,2548,2345,2397
512355,-19280,28268,-7791,90513,0,0,-9,4,-1,79,-63,-4286,9,8,786,2152,2145,2528,2888,2718,2548,2345,2397
513356,-19264,28264,-7726,90578,0,0,-9,3,0,101,-57,-4244,7,4,769,2152,2145,2528,2888,2718,2548,2345,2397
514357,-19284,28264,-7661,90643,0,0,-7,3,-1,93,-74,-4211,-4,0,784,2152,2145,2528,2888,2718,2548,2345,2397
515358,-19272,28276,-7596,90708,0,0,-6,1,-1,87,-69,-4214,9,0,783,2152,2144,2528,2889,2717,2532,2332,2381
516359,-19272,28272,-7531,90773,0,0,-7,0,-1,114,-74,-4235,8,-4,783,2152,2144,2528,2889,2717,2532,2332,2381
517360,-19268,28264,-7466,90838,0,0,-9,2,-2,96,-69,-4232,-7,8,783,2152,2144,2528,2889,2717,2532,2332,2381
518363,-19272,28272,-7401,90903,0,0,-8,1,-1,63,-64,-4223,7,7,784,2152,2144,2528,2889,2717,2532,2332,2381
519362,-19284,28260,-7336,90968,0,0,-9,0,-2,93,-88,-4240,8,-1,783,2152,2144,2528,2889,2717,2532,2332,2381
520363,-19276,28268,-7271,91033,0,0,-9,-2,-2,99,-86,-4251,2,-5,785,2151,2143,2527,2887,2718,2550,2346,2400
521364,-19268,28268,-7206,91098,0,0,-9,-1,-1,86,-87,-4249,-1,6,784,2151,2143,2527,2887,2718,2550,2346,2400
522365,-19276,28272,-7141,91163,0,0,-7,0,0,114,-66,-4263,-6,8,784,2151,2143,2527,2887,2718,2550,2346,2400
523366,-19276,28268,-7076,91228,0,0,-8,1,0,104,-95,-4281,3,-5,785,2151,2143,2527,2887,2718,2550,2346,2400
524367,-19280,28268,-7011,91293,0,0,-9,1,0,90,-78,-4250,6,3,784,2151,2143,2527,2887,2718,2550,2346,2400
525368,-19268,28268,-6946,91358,0,0,-10,0,1,96,-57,-4253,-5,5,785,2151,2143,2527,2887,2718,2550,2346,2400
526369,-19272,28268,-6881,91423,0,0,-10,3,-3,83,-62,-4231,4,-5,784,2152,2145,2527,2887,2718,2551,2346,2400
527370,-19280,28272,-6816,91488,0,0,-8,2,-4,94,-69,-4217,3,5,784,2152,2145,2527,2887,2718,2551,2346,2400
528371,-19276,28272,-6751,91553,0,0,-11,1,-1,100,-85,-4226,0,1,784,2152,2145,2527,2887,2718,2551,2346,2400
529372,-19276,28268,-6686,91618,0,0,-12,1,-1,57,-84,-4237,-5,-5,787,2152,2145,2527,2887,2718,2551,2346,2400
530373,-19276,28264,-6621,91683,0,0,-11,-1,-3,57,-86,-4279,-3,6,767,2152,2145,2527,2887,2718,2551,2346,2400
531374,-19276,28264,-6556,91748,0,0,-10,-1,-1,68,-75,-4249,10,-2,782,2153,2146,2529,2891,2719,2552,2330,2379
532375,-19276,28264,-6491,91813,0,0,-11,0,1,82,-60,-4242,-2,6,783,2153,2146,2529,2891,2719,2552,2330,2379
533376,-19284,28260,-6426,91878,0,0,-8,1,3,77,-74,-4235,-7,7,783,2153,2146,2529,2891,2719,2552,2330,2379
534377,-19272,28260,-6361,91943,0,0,-9,0,1,86,-77,-4285,3,7,783,2153,2146,2529,2891,2719,2552,2330,2379
535378,-19276,28264,-6296,92008,0,0,-10,-1,0,67,-86,-4264,-2,-5,783,2153,2146,2529,2891,2719,2552,2330,2379
536379,-19280,28264,-6231,92073,0,0,-11,2,-1,74,-79,-4248,-5,-5,783,2153,2146,2529,2891,2719,2552,2330,2379
537380,-19276,28268,-6166,92138,0,0,-10,3,2,88,-64,-4266,-5,-2,783,2154,2147,2530,2891,2717,2549,2346,2398
538381,-19284,28264,-6101,92203,0,0,-12,0,1,69,-58,-4255,7,9,783,2154,2147,2530,2891,2717,2549,2346,2398
539382,-19276,28260,-6036,92268,0,0,-13,1,0,78,-60,-4270,4,8,784,2154,2147,2530,2891,2717,2549,2346,2398
540383,-19280,28268,-5971,92333,0,0,-14,3,0,82,-67,-4243,-2,-5,784,2154,2147,2530,2891,2717,2549,2346,2398
541384,-19280,28264,-5906,92398,0,0,-13,2,-2,102,-72,-4244,10,6,784,2154,2147,2530,2891,2717,2549,2346,2398
542385,-19268,28260,-5841,92463,0,0,-11,0,-1,109,-76,-4267,1,8,784,2154,2148,2530,2891,2718,2549,2345,2399
543386,-19280,28264,-5776,92528,0,0,-11,1,-2,80,-60,-4286,-4,8,784,2154,2148,2530,2891,2718,2549,2345,2399
544387,-19276,28268,-5711,92593,0,0,-13,1,0,79,-73,-4271,-4,5,784,2154,2148,2530,2891,2718,2549,2345,2399
545388,-19276,28264,-5646,92658,0,0,-14,3,0,80,-60,-4249,10,8,784,2154,2148,2530,2891,2718,2549,2345,2399
546389,-19276,28256,-5581,92723,0,0,-12,3,3,72,-72,-4233,10,1,784,2154,2148,2530,2891,2718,2549,2345,2399
547390,-19276,28268,-5516,92788,0,0,-10,3,1,76,-55,-4245,-4,-3,771,2154,2148,2530,2891,2718,2549,2345,2399
548391,-19276,28268,-5451,92853,0,0,-11,4,0,59,-69,-4223,11,3,787,2153,2146,2529,2888,2718,2549,2346,2381
549392,-19256,28288,-5386,92918,0,0,-12,5,1,47,-57,-4253,-5,0,787,2153,2146,2529,2888,2718,2549,2346,2381
550393,-19280,28252,-5321,92983,0,0,-11,5,0,77,-43,-4261,5,-2,786,2153,2146,2529,2888,2718,2549,2346,2381
551394,-19276,28264,-5256,93048,0,0,-11,3,1,94,-64,-4270,-7,-1,787,2153,2146,2529,2888,2718,2549,2346,2381
552395,-19268,28260,-5191,93113,0,0,-11,2,0,91,-39,-4254,-2,-5,787,2153,2146,2529,2888,2718,2549,2346,2381
553396,-19272,28264,-5126,93178,0,0,-10,5,-2,79,-62,-4255,6,-2,786,2151,2145,2525,2892,2719,2549,2346,2400
554397,-19276,28264,-5061,93243,0,0,-9,7,-2,84,-83,-4248,-2,-1,785,2151,2145,2525,2892,2719,2549,2346,2400
555398,-19280,28264,-4996,93308,0,0,-7,5,-1,53,-66,-4238,0,1,786,2151,2145,2525,2892,2719,2549,2346,2400
556399,-19272,28268,-4931,93373,0,0,-9,4,2,76,-66,-4202,-1,7,787,2151,2145,2525,2892,2719,2549,2346,2400
557400,-19272,28268,-4866,93438,0,0,-11,5,-1,91,-63,-4231,-4,4,786,2151,2145,2525,2892,2719,2549,2346,2400
558401,-19272,28272,-4801,93503,0,0,-10,6,-2,81,-55,-4215,-2,1,786,2151,2145,2525,2892,2719,2549,2346,2400
559402,-19276,28264,-4736,93568,0,0,-9,6,0,76,-57,-4246,0,8,786,2152,2145,2527,2887,2719,2552,2346,2400
560403,-19280,28272,-4671,93633,0,0,-9,5,2,97,-90,-4252,-2,5,784,2152,2145,2527,2887,2719,2552,2346,2400
561404,-19272,28268,-4606,93698,0,0,-9,6,-2,82,-68,-4249,10,7,784,2152,2145,2527,2887,2719,2552,2346,2400
562405,-19276,28264,-4541,93763,0,0,-9,6,-2,90,-66,-4199,0,8,784,2152,2145,2527,2887,2719,2552,2346,2400
563406,-19264,28268,-4476,93828,0,0,-7,5,-2,89,-85,-4227,-3,7,783,2152,2145,2527,2887,2719,2552,2346,2400
564407,-19280,28276,-4411,93893,0,0,-7,5,0,78,-94,-4252,9,8,767,2151,2145,2529,2891,2719,2552,2348,2400
565408,-19272,28264,-4346,93958,0,0,-10,5,-1,56,-87,-4248,-1,4,782,2151,2145,2529,2891,2719,2552,2348,2400
566409,-19276,28264,-4281,94023,0,0,-9,1,-1,102,-78,-4249,5,-4,783,2151,2145,2529,2891,2719,2552,2348,2400
567410,-19276,28264,-4216,94088,0,0,-9,2,-2,91,-80,-4252,-6,1,783,2151,2145,2529,2891,2719,2552,2348,2400
568411,-19276,28268,-4151,94153,0,0,-8,3,-5,94,-71,-4249,1,4,783,2151,2145,2529,2891,2719,2552,2348,2400
569412,-19276,28284,-4086,94218,0,0,-10,4,-5,100,-68,-4239,9,5,784,2151,2145,2529,2891,2719,2552,2348,2400
570413,-19264,28264,-4021,94283,0,0,-10,3,-3,79,-74,-4246,1,7,784,2153,2146,2529,2890,2715,2547,2343,2397
571414,-19284,28272,-3956,94348,0,0,-9,3,-2,72,-66,-4261,6,8,784,2153,2146,2529,2890,2715,2547,2343,2397
572415,-19276,28268,-3891,94413,0,0,-10,4,-2,63,-90,-4252,-1,1,784,2153,2146,2529,2890,2715,2547,2343,2397
573416,-19272,28256,-3826,94478,0,0,-11,3,-2,70,-82,-4262,-6,2,784,2153,2146,2529,2890,2715,2547,2343,2397
574417,-19284,28272,-3761,94543,0,0,-11,3,-2,81,-95,-4259,0,-5,784,2153,2146,2529,2890,2715,2547,2343,2397
575418,-19288,28264,-3696,94608,0,0,-9,0,0,78,-72,-4274,7,-6,784,2154,2146,2530,2889,2715,2546,2343,2395
576419,-19272,28264,-3631,94673,0,0,-10,0,-1,65,-52,-4254,9,1,785,2154,2146,2530,2889,2715,2546,2343,2395
577420,-19272,28280,-3566,94738,0,0,-12,1,-3,82,-60,-4226,5,8,784,2154,2146,2530,2889,2715,2546,2343,2395
578421,-19284,28268,-3501,94803,0,0,-11,0,-3,66,-72,-4229,6,8,784,2154,2146,2530,2889,2715,2546,2343,2395
579422,-19272,28272,-3436,94868,0,0,-12,1,-2,87,-63,-4234,8,7,784,2154,2146,2530,2889,2715,2546,2343,2395
580423,-19272,28268,-3371,94933,0,0,-11,3,-1,91,-70,-4243,4,3,785,2154,2146,2530,2889,2715,2546,2343,2395
581424,-19280,28272,-3306,94998,0,0,-12,2,0,86,-92,-4215,10,-4,765,2152,2145,2528,2890,2714,2547,2343,2397
582425,-19280,28272,-3241,95063,0,0,-12,2,-1,76,-53,-4251,-2,2,781,2152,2145,2528,2890,2714,2547,2343,2397
583426,-19276,28260,-3176,95128,0,0,-13,-1,-2,56,-68,-4247,-6,-3,782,2152,2145,2528,2890,2714,2547,2343,2397
584427,-19276,28256,-3111,95193,0,0,-12,0,0,45,-61,-4223,7,8,783,2152,2145,2528,2890,2714,2547,2343,2397
585428,-19276,28264,-3046,95258,0,0,-10,1,2,69,-45,-4254,6,7,783,2152,2145,2528,2890,2714,2547,2343,2397
586429,-19280,28264,-2981,95323,0,0,-12,0,0,91,-28,-4233,10,-4,786,2125,2143,2527,2889,2715,2549,2348,2400
587430,-19272,28272,-2916,95388,0,0,-13,-2,0,86,-61,-4243,6,-5,784,2125,2143,2527,2889,2715,2549,2348,2400
588431,-19284,28264,-2851,95453,0,0,-10,-2,1,76,-76,-4256,10,-5,784,2125,2143,2527,2889,2715,2549,2348,2400
589432,-19268,28260,-2786,95518,0,0,-9,0,4,69,-59,-4265,3,1,783,2125,2143,2527,2889,2715,2549,2348,2400
590433,-19276,28272,-2721,95583,0,0,-12,4,1,96,-43,-4242,2,3,784,2125,2143,2527,2889,2715,2549,2348,2400
591434,-19272,28268,-2656,95648,0,0,-13,3,0,83,-68,-4239,6,8,784,2125,2143,2527,2889,2715,2549,2348,2400
592435,-19280,28268,-2591,95713,0,0,-13,1,1,58,-75,-4257,2,1,785,2151,2147,2529,2889,2715,2551,2348,2401
593436,-19276,28264,-2526,95778,0,0,-9,0,1,60,-71,-4252,9,-5,784,2151,2147,2529,2889,2715,2551,2348,2401
594437,-19276,28260,-2461,95843,0,0,-9,-1,1,83,-49,-4260,2,-6,784,2151,2147,2529,2889,2715,2551,2348,2401
595438,-19276,28268,-2396,95908,0,0,-10,1,2,71,-26,-4231,-4,-5,784,2151,2147,2529,2889,2715,2551,2348,2401
596439,-19280,28268,-2331,95973,0,0,-10,-1,2,62,-39,-4220,9,7,784,2151,2147,2529,2889,2715,2551,2348,2401
597440,-19284,28260,-2266,96038,0,0,-9,-2,-2,76,-66,-4219,6,8,784,2151,2144,2529,2889,2719,2551,2350,2402
598441,-19272,28256,-2201,96103,0,0,-9,1,-4,95,-71,-4253,8,-2,766,2151,2144,2529,2889,2719,2551,2350,2402
599442,-19284,28268,-2136,96168,0,0,-9,1,-4,84,-64,-4259,3,5,781,2151,2144,2529,2889,2719,2551,2350,2402
600443,-19276,28260,-2071,96233,0,0,-7,2,0,76,-56,-4252,10,7,782,2151,2144,2529,2889,2719,2551,2350,2402
601444,-19276,28264,-2006,96298,0,0,-8,4,1,89,-63,-4241,-6,-1,785,2151,2144,2529,2889,2719,2551,2350,2402
602445,-19276,28260,-1941,96363,0,0,-10,2,-1,95,-61,-4260,6,-4,786,2151,2144,2529,2889,2719,2551,2350,2402
603446,-19272,28268,-1876,96428,0,0,-9,1,0,94,-36,-4245,-6,-1,783,2133,2115,2529,2890,2720,2550,2346,2399
604447,-19284,28268,-1811,96493,0,0,-9,1,0,67,-71,-4213,9,-1,784,2133,2115,2529,2890,2720,2550,2346,2399
605448,-19276,28256,-1746,96558,0,0,-8,1,-2,60,-76,-4221,10,4,784,2133,2115,2529,2890,2720,2550,2346,2399
606449,-19276,28272,-1681,96623,0,0,-9,3,-3,46,-47,-4227,4,5,783,2133,2115,2529,2890,2720,2550,2346,2399
607450,-19272,28276,-1616,96688,0,0,-8,5,-3,58,-51,-4225,-6,-5,783,2133,2115,2529,2890,2720,2550,2346,2399
608451,-19284,28268,-1551,96753,0,0,-6,6,0,84,-87,-4230,3,-5,784,2155,2148,2530,2890,2718,2549,2345,2398
609452,-19272,28264,-1486,96818,0,0,-6,6,0,63,-100,-4231,10,0,784,2155,2148,2530,2890,2718,2549,2345,2398
610453,-19264,28256,-1421,96883,0,0,-8,4,-2,77,-51,-4228,9,-4,783,2155,2148,2530,2890,2718,2549,2345,2398
611454,-19268,28268,-1356,96948,0,0,-9,2,-2,86,-57,-4225,7,-5,784,2155,2148,2530,2890,2718,2549,2345,2398
612455,-19276,28272,-1291,97013,0,0,-7,3,-1,90,-62,-4222,-7,-5,784,2155,2148,2530,2890,2718,2549,2345,2398
613456,-19268,28268,-1226,97078,0,0,-6,5,-2,82,-64,-4233,-4,-5,784,2155,2148,2530,2890,2718,2549,2345,2398
614457,-19280,28268,-1161,97143,0,0,-6,3,-2,48,-60,-4222,-2,-2,784,2154,2146,2528,2888,2716,2546,2345,2396
615458,-19276,28268,-1096,97208,0,0,-8,3,-1,69,-54,-4248,10,2,767,2154,2146,2528,2888,2716,2546,2345,2396
616459,-19272,28252,-1031,97273,0,0,-10,4,0,87,-80,-4226,2,6,780,2154,2146,2528,2888,2716,2546,2345,2396
617460,-19280,28268,-966,97338,0,0,-9,5,-1,85,-67,-4250,-3,8,782,2154,2146,2528,2888,2716,2546,2345,2396
618461,-19276,28256,-901,97403,0,0,-9,4,0,99,-72,-4274,4,8,782,2154,2146,2528,2888,2716,2546,2345,2396
619462,-19276,28272,-836,97468,0,0,-10,5,-1,77,-81,-4250,-5,8,782,2152,2127,2494,2887,2710,2545,2339,2395
620463,-19280,28252,-771,97533,0,0,-10,5,-1,76,-64,-4185,-5,8,782,2152,2127,2494,2887,2710,2545,2339,2395
621464,-19276,28272,-706,97598,0,0,-9,4,0,74,-73,-4221,10,6,782,2152,2127,2494,2887,2710,2545,2339,2395
622465,-19272,28268,-641,97663,0,0,-9,4,-1,79,-71,-4258,-6,8,782,2152,2127,2494,2887,2710,2545,2339,2395
623466,-19276,28264,-576,97728,0,0,-13,6,-2,95,-75,-4268,6,7,782,2152,2127,2494,2887,2710,2545,2339,2395
624467,-19276,28268,-511,97793,0,0,-12,7,-2,102,-92,-4231,8,3,783,2152,2127,2494,2887,2710,2545,2339,2395
625468,-19276,28268,-446,97858,0,0,-12,5,0,93,-92,-4227,10,5,783,2152,2146,2528,2890,2714,2546,2343,2395
626469,-19280,28280,-381,97923,0,0,-11,3,-1,91,-84,-4255,3,5,782,2152,2146,2528,2890,2714,2546,2343,2395
627470,-19288,28276,-316,97988,0,0,-10,3,-1,75,-88,-4247,4,7,785,2152,2146,2528,2890,2714,2546,2343,2395
628471,-19272,28264,-251,98053,0,0,-11,4,0,66,-81,-4239,8,5,783,2152,2146,2528,2890,2714,2546,2343,2395
629472,-19268,28272,-186,98118,0,0,-11,5,-1,77,-67,-4279,-6,-4,782,2152,2146,2528,2890,2714,2546,2343,2395
630473,-19276,28268,-121,98183,0,0,-10,5,-1,56,-94,-4294,9,-5,783,2152,2145,2528,2889,2716,2549,2345,2399
631474,-19276,28256,-56,98248,0,0,-12,4,0,62,-63,-4265,-1,4,783,2152,2145,2528,2889,2716,2549,2345,2399
632475,-19276,28264,9,98313,0,0,-13,3,-1,92,-69,-4287,-6,7,765,2152,2145,2528,2889,2716,2549,2345,2399
633476,-19276,28276,74,98378,0,0,-13,1,0,90,-92,-4283,12,1,778,2152,2145,2528,2889,2716,2549,2345,2399
634477,-19276,28288,139,98443,0,0,-13,0,0,108,-75,-4253,8,9,780,2152,2145,2528,2889,2716,2549,2345,2399
635478,-19276,28268,204,98508,0,0,-11,1,1,91,-62,-4242,9,3,781,2152,2145,2528,2889,2716,2549,2345,2399
636479,-19268,28264,269,98573,0,0,-13,2,2,77,-76,-4239,-5,4,781,2153,2151,2505,2864,2718,2552,2348,2400
637480,-19280,28260,334,98638,0,0,-12,1,1,85,-56,-4240,-5,-6,780,2153,2151,2505,2864,2718,2552,2348,2400
638481,-19272,28260,399,98703,0,0,-11,1,0,72,-47,-4228,-4,-3,780,2153,2151,2505,2864,2718,2552,2348,2400
639482,-19276,28260,464,98768,0,0,-10,0,1,68,-53,-4248,-2,-4,781,2153,2151,2505,2864,2718,2552,2348,2400
640483,-19276,28276,529,98833,0,0,-14,0,0,91,-61,-4229,3,3,781,2153,2151,2505,2864,2718,2552,2348,2400
641484,-19276,28264,594,98898,0,0,-13,2,-1,70,-54,-4242,7,4,781,2152,2147,2531,2891,2719,2551,2350,2400
642485,-19280,28264,659,98963,0,0,-9,0,2,68,-68,-4238,2,4,781,2152,2147,2531,2891,2719,2551,2350,2400
643486,-19284,28264,724,99028,0,0,-8,0,1,77,-57,-4276,4,7,780,2152,2147,2531,2891,2719,2551,2350,2400
644487,-19272,28264,789,99093,0,0,-8,-1,-1,101,-64,-4259,-6,7,780,2152,2147,2531,2891,2719,2551,2350,2400
645488,-19268,28268,854,99158,0,0,-10,-3,-2,100,-62,-4233,10,6,781,2152,2147,2531,2891,2719,2551,2350,2400
646489,-19272,28260,919,99223,0,0,-8,-2,0,89,-51,-4235,8,4,782,2151,2146,2527,2890,2715,2550,2349,2404
647490,-19276,28264,984,99288,0,0,-7,0,1,90,-65,-4232,-3,7,782,2151,2146,2527,2890,2715,2550,2349,2404
648491,-19280,28264,1049,99353,0,0,-7,-2,0,115,-56,-4209,9,2,782,2151,2146,2527,2890,2715,2550,2349,2404
649492,-19276,28264,1114,99418,0,0,-7,-1,-3,93,-63,-4232,-6,7,764,2151,2146,2527,2890,2715,2550,2349,2404
650493,-19280,28264,1179,99483,0,0,-7,1,-3,67,-45,-4252,9,9,779,2151,2146,2527,2890,2715,2550,2349,2404
651494,-19272,28264,1244,99548,0,0,-10,1,0,78,-49,-4208,3,5,782,2151,2146,2527,2890,2715,2550,2349,2404
652495,-19276,28260,1309,99613,0,0,-12,2,0,90,-84,-4216,4,7,782,2151,2144,2526,2853,2689,2544,2346,2398
653496,-19272,28264,1374,99678,0,0,-11,3,-2,68,-82,-4216,-6,6,782,2151,2144,2526,2853,2689,2544,2346,2398
654497,-19276,28272,1439,99743,0,0,-8,0,-4,84,-54,-4218,11,6,782,2151,2144,2526,2853,2689,2544,2346,2398
655498,-19264,28256,1504,99808,0,0,-7,1,-5,95,-58,-4241,-6,6,782,2151,2144,2526,2853,2689,2544,2346,2398
656499,-19260,28268,1569,99873,0,0,-7,1,-2,87,-70,-4238,10,1,782,2151,2144,2526,2853,2689,2544,2346,2398
657500,-19276,28256,1634,99938,0,0,-8,2,-1,88,-75,-4246,5,-3,782,2151,2143,2527,2892,2719,2548,2346,2398
658501,-19272,28264,1699,100003,0,0,-7,2,-2,75,-95,-4251,-6,-5,781,2151,2143,2527,2892,2719,2548,2346,2398
659502,-19272,28268,1764,100068,0,0,-5,2,-2,62,-86,-4250,3,-5,782,2151,2143,2527,2892,2719,2548,2346,2398
660503,-19268,28260,1829,100133,0,0,-7,5,-1,65,-73,-4237,7,1,782,2151,2143,2527,2892,2719,2548,2346,2398
661504,-19284,28280,1894,100198,0,0,-9,5,-3,92,-80,-4246,-4,6,782,2151,2143,2527,2892,2719,2548,2346,2398
662505,-19268,28272,1959,100263,0,0,-8,7,-3,58,-87,-4243,-2,6,784,2151,2143,2527,2892,2719,2548,2346,2398
663506,-19272,28276,2024,100328,0,0,-8,7,0,99,-58,-4220,10,7,783,2150,2143,2526,2889,2717,2550,2348,2400
664507,-19272,28284,2089,100393,0,0,-11,6,1,97,-71,-4246,8,5,783,2150,2143,2526,2889,2717,2550,2348,2400
665508,-19276,28268,2154,100458,0,0,-10,5,0,81,-92,-4275,-5,-3,782,2150,2143,2526,2889,2717,2550,2348,2400
666509,-19272,28272,2219,100523,0,0,-9,5,0,84,-100,-4272,-5,-4,765,2150,2143,2526,2889,2717,2550,2348,2400
667510,-19280,28272,2284,100588,0,0,-8,3,0,95,-96,-4225,-6,-4,779,2150,2143,2526,2889,2717,2550,2348,2400
668511,-19280,28268,2349,100653,0,0,-10,6,-1,83,-71,-4234,-6,-6,782,2151,2145,2529,2890,2688,2520,2337,2398
669512,-19276,28276,2414,100718,0,0,-11,8,-2,78,-103,-4224,-7,5,783,2151,2145,2529,2890,2688,2520,2337,2398
670513,-19280,28280,2479,100783,0,0,-12,7,-1,96,-68,-4248,4,5,783,2151,2145,2529,2890,2688,2520,2337,2398
671514,-19272,28268,2544,100848,0,0,-12,5,-2,84,-56,-4264,9,5,783,2151,2145,2529,2890,2688,2520,2337,2398
672515,-19276,28268,2609,100913,0,0,-10,4,0,87,-62,-4284,-6,6,783,2151,2145,2529,2890,2688,2520,2337,2398
673516,-19280,28268,2674,100978,0,0,-12,5,-2,102,-90,-4274,-4,5,784,2151,2145,2529,2890,2688,2520,2337,2398
674517,-19272,28272,2739,101043,0,0,-14,5,-2,99,-94,-4259,10,7,783,2157,2150,2534,2896,2720,2549,2346,2400
675518,-19284,28256,2804,101108,0,0,-12,6,-3,49,-83,-4249,4,4,783,2157,2150,2534,2896,2720,2549,2346,2400
676519,-19280,28264,2869,101173,0,0,-11,2,-1,68,-85,-4252,-6,7,783,2157,2150,2534,2896,2720,2549,2346,2400
677520,-19272,28272,2934,101238,0,0,-10,1,-1,78,-81,-4260,0,6,784,2157,2150,2534,2896,2720,2549,2346,2400
678521,-19272,28276,2999,101303,0,0,-10,1,0,92,-59,-4252,10,-4,783,2157,2150,2534,2896,2720,2549,2346,2400
679522,-19280,28260,3064,101368,0,0,-12,2,-1,84,-82,-4260,10,-5,784,2154,2148,2530,2892,2720,2549,2346,2400
680523,-19276,28272,3129,101433,0,0,-13,1,-1,86,-73,-4248,1,-5,784,2154,2148,2530,2892,2720,2549,2346,2400
681524,-19272,28268,3194,101498,0,0,-14,2,-2,107,-64,-4232,-4,5,786,2154,2148,2530,2892,2720,2549,2346,2400
682525,-19280,28268,3259,101563,0,0,-12,-1,-2,78,-43,-4244,1,4,786,2154,2148,2530,2892,2720,2549,2346,2400
683526,-19276,28260,3324,101628,0,0,-10,0,0,76,-52,-4241,2,3,767,2154,2148,2530,2892,2720,2549,2346,2400
684527,-19284,28268,3389,101693,0,0,-9,2,1,102,-91,-4229,3,-1,780,2154,2148,2530,2892,2720,2549,2346,2400
685528,-19276,28268,3454,101758,0,0,-11,2,-1,93,-71,-4198,-4,-5,783,2154,2147,2530,2888,2716,2529,2329,2377
686529,-19280,28268,3519,101823,0,0,-7,-1,-1,70,-63,-4187,10,-4,783,2154,2147,2530,2888,2716,2529,2329,2377
687530,-19272,28268,3584,101888,0,0,-7,-1,0,77,-54,-4208,6,-3,784,2154,2147,2530,2888,2716,2529,2329,2377
688531,-19284,28276,3649,101953,0,0,-9,2,-2,84,-64,-4221,10,-6,785,2154,2147,2530,2888,2716,2529,2329,2377
689532,-19276,28272,3714,102018,0,0,-11,-2,-2,94,-76,-4236,-2,-6,784,2154,2147,2530,2888,2716,2529,2329,2377
690533,-19268,28268,3779,102083,0,0,-9,-2,1,95,-55,-4203,10,4,785,2150,2144,2526,2887,2715,2547,2345,2395
691534,-19268,28264,3844,102148,0,0,-9,-1,0,107,-51,-4235,-7,3,784,2150,2144,2526,2887,2715,2547,2345,2395
692535,-19280,28260,3909,102213,0,0,-9,1,0,89,-48,-4249,-4,5,784,2150,2144,2526,2887,2715,2547,2345,2395
693536,-19276,28260,3974,102278,0,0,-8,-2,2,73,-57,-4252,0,8,784,2150,2144,2526,2887,2715,2547,2345,2395
694537,-19268,28272,4039,102343,0,0,-9,-3,2,80,-71,-4250,10,8,784,2150,2144,2526,2887,2715,2547,2345,2395
695540,-19280,28272,4104,102408,0,0,-10,-2,1,70,-65,-4197,-6,7,785,2150,2144,2526,2887,2715,2547,2345,2395
696539,-19260,28272,4169,102473,0,0,-9,-2,-1,71,-68,-4195,5,8,785,2149,2144,2525,2886,2715,2546,2343,2399
697540,-19268,28268,4234,102538,0,0,-10,0,1,66,-57,-4236,4,1,784,2149,2144,2525,2886,2715,2546,2343,2399
698541,-19268,28260,4299,102603,0,0,-8,1,2,75,-75,-4246,9,-1,784,2149,2144,2525,2886,2715,2546,2343,2399
699542,-19280,28256,4498,102802,0,0,-6,0,0,82,-85,-4241,-5,-1,784,2149,2144,2525,2886,2715,2546,2343,2399
700543,-19264,28256,4563,102867,0,0,-8,-2,1,94,-76,-4198,-6,8,767,2149,2144,2525,2886,2715,2546,2343,2399
701544,-19268,28268,4628,102932,0,0,-8,-1,0,85,-65,-4206,-6,4,780,2150,2144,2527,2888,2715,2547,2326,2380
702545,-19272,28272,4693,102997,0,0,-8,0,1,69,-71,-4243,-6,8,783,2150,2144,2527,2888,2715,2547,2326,2380
703546,-19272,28260,4758,103062,0,0,-9,-1,0,83,-72,-4237,4,8,784,2150,2144,2527,2888,2715,2547,2326,2380
704547,-19284,28268,4823,103127,0,0,-8,-2,-1,80,-64,-4252,9,8,784,2150,2144,2527,2888,2715,2547,2326,2380
705548,-19276,28272,4888,103192,0,0,-9,0,-2,71,-47,-4248,-7,8,784,2150,2144,2527,2888,2715,2547,2326,2380
706549,-19276,28272,4953,103257,0,0,-11,1,-2,88,-35,-4261,10,8,785,2150,2144,2527,2888,2715,2547,2326,2380
707550,-19276,28276,5018,103322,0,0,-11,2,-1,85,-86,-4269,-6,2,785,2153,2148,2530,2892,2718,2549,2345,2399
708551,-19280,28284,5083,103387,0,0,-11,1,-2,79,-90,-4249,10,2,784,2153,2148,2530,2892,2718,2549,2345,2399
709552,-19280,28276,5148,103452,0,0,-10,2,0,99,-94,-4254,-6,4,784,2153,2148,2530,2892,2718,2549,2345,2399
710553,-19272,28260,5213,103517,0,0,-10,3,0,76,-74,-4266,9,6,784,2153,2148,2530,2892,2718,2549,2345,2399
711554,-19276,28268,5278,103582,0,0,-11,6,-3,74,-69,-4237,-5,2,784,2153,2148,2530,2892,2718,2549,2345,2399
712555,-19284,28272,5343,103647,0,0,-12,7,-3,77,-59,-4215,10,5,785,2156,2148,2531,2891,2719,2550,2347,2400
713556,-19280,28268,5408,103712,0,0,-13,5,-2,80,-82,-4242,-1,8,784,2156,2148,2531,2891,2719,2550,2347,2400
714557,-19276,28268,5473,103777,0,0,-13,4,-2,80,-83,-4250,-6,-1,784,2156,2148,2531,2891,2719,2550,2347,2400
715558,-19276,28264,5538,103842,0,0,-13,4,0,102,-70,-4253,9,2,784,2156,2148,2531,2891,2719,2550,2347,2400
716559,-19268,28268,5603,103907,0,0,-11,3,-1,81,-82,-4278,-3,8,785,2156,2148,2531,2891,2719,2550,2347,2400
717560,-19268,28264,5668,103972,0,0,-8,5,-3,49,-64,-4268,10,9,768,2156,2148,2531,2891,2719,2550,2347,2400
718561,-19276,28268,5733,104037,0,0,-8,5,-2,85,-70,-4247,2,8,780,2156,2148,2530,2892,2718,2550,2346,2382
719562,-19268,28276,5798,104102,0,0,-11,5,-1,93,-50,-4269,6,8,784,2156,2148,2530,2892,2718,2550,2346,2382
720563,-19268,28268,5863,104167,0,0,-11,5,-1,77,-48,-4270,2,-6,784,2156,2148,2530,2892,2718,2550,2346,2382
721564,-19280,28268,5928,104232,0,0,-10,4,0,87,-61,-4265,4,-5,784,2156,2148,2530,2892,2718,2550,2346,2382
722565,-19276,28264,5993,104297,0,0,-11,7,-1,71,-76,-4268,1,-6,784,2156,2148,2530,2892,2718,2550,2346,2382
723566,-19284,28272,6058,104362,0,0,-12,7,-4,77,-59,-4230,7,-4,785,2151,2145,2528,2890,2719,2551,2348,2399
724567,-19280,28252,6123,104427,0,0,-13,6,-2,62,-81,-4221,-6,-4,784,2151,2145,2528,2890,2719,2551,2348,2399
725568,-19280,28256,6188,104492,0,0,-12,5,0,65,-80,-4243,-4,-1,784,2151,2145,2528,2890,2719,2551,2348,2399
726569,-19268,28268,6253,104557,0,0,-10,4,0,71,-75,-4257,-6,4,784,2151,2145,2528,2890,2719,2551,2348,2399
727570,-19276,28264,6318,104622,0,0,-7,4,2,99,-79,-4263,-6,0,783,2151,2145,2528,2890,2719,2551,2348,2399
728571,-19272,28276,6383,104687,0,0,-10,5,-1,102,-63,-4238,3,1,784,2151,2145,2528,2890,2719,2551,2348,2399
729572,-19280,28264,6448,104752,0,0,-11,4,-3,69,-53,-4226,-3,8,784,2149,2143,2525,2886,2715,2545,2343,2399
730573,-19276,28256,6513,104817,0,0,-10,6,-2,66,-60,-4225,8,8,784,2149,2143,2525,2886,2715,2545,2343,2399
731574,-19268,28256,6578,104882,0,0,-9,5,-1,59,-71,-4205,4,8,784,2149,2143,2525,2886,2715,2545,2343,2399
732575,-19280,28272,6643,104947,0,0,-9,1,-2,80,-66,-4196,-4,7,785,2149,2143,2525,2886,2715,2545,2343,2399
733576,-19276,28272,6708,105012,0,0,-10,0,1,36,-100,-4232,9,3,784,2149,2143,2525,2886,2715,2545,2343,2399
734577,-19288,28268,6773,105077,0,0,-10,1,0,79,-63,-4237,11,-3,768,2149,2143,2525,2885,2715,2546,2343,2395
735578,-19276,28264,6838,105142,0,0,-9,2,1,75,-82,-4248,-3,4,775,2149,2143,2525,2885,2715,2546,2343,2395
736579,-19280,28276,6903,105207,0,0,-6,3,2,101,-72,-4246,-4,7,781,2149,2143,2525,2885,2715,2546,2343,2395
737580,-19276,28268,6968,105272,0,0,-7,3,1,96,-55,-4240,9,8,781,2149,2143,2525,2885,2715,2546,2343,2395
738581,-19272,28264,7033,105337,0,0,-6,3,-5,84,-57,-4236,5,8,781,2149,2143,2525,2885,2715,2546,2343,2395
739582,-19272,28272,7098,105402,0,0,-7,0,-2,82,-65,-4247,-4,7,781,2149,2143,2525,2885,2715,2546,2343,2395
740583,-19272,28268,7163,105467,0,0,-7,0,0,76,-79,-4254,-6,6,782,2152,2147,2530,2892,2717,2548,2345,2398
741584,-19272,28264,7228,105532,0,0,-8,0,-1,84,-82,-4256,-6,8,781,2152,2147,2530,2892,2717,2548,2345,2398
742585,-19280,28268,7293,105597,0,0,-9,-1,0,82,-77,-4254,-6,8,781,2152,2147,2530,2892,2717,2548,2345,2398
743588,-19276,28264,7358,105662,0,0,-8,0,2,107,-64,-4241,-6,6,781,2152,2147,2530,2892,2717,2548,2345,2398
744587,-19280,28264,7423,105727,0,0,-9,1,-1,94,-73,-4251,1,5,781,2152,2147,2530,2892,2717,2548,2345,2398
745588,-19276,28272,7488,105792,0,0,-9,1,-1,93,-85,-4259,0,-4,782,2151,2143,2527,2894,2718,2549,2346,2400
746589,-19272,28272,7553,105857,0,0,-9,0,0,93,-82,-4234,2,-4,782,2151,2143,2527,2894,2718,2549,2346,2400
747590,-19272,28268,7618,105922,0,0,-10,-2,1,74,-65,-4252,10,-3,782,2151,2143,2527,2894,2718,2549,2346,2400
748591,-19276,28264,7683,105987,0,0,-11,-2,1,88,-74,-4268,7,2,781,2151,2143,2527,2894,2718,2549,2346,2400
749592,-19276,28268,7748,106052,0,0,-11,-3,0,83,-86,-4260,8,8,783,2151,2143,2527,2894,2718,2549,2346,2400
750593,-19280,28264,7813,106117,0,0,-12,-1,-2,66,-88,-4255,-7,8,783,2151,2143,2527,2894,2718,2549,2346,2400
751594,-19268,28264,7878,106182,0,0,-11,0,-3,58,-73,-4286,11,-3,768,2153,2147,2531,2889,2719,2551,2348,2400
752595,-19276,28272,7943,106247,0,0,-9,0,-3,47,-96,-4278,-6,-5,776,2153,2147,2531,2889,2719,2551,2348,2400
753596,-19280,28260,8008,106312,0,0,-9,-1,0,72,-107,-4255,5,-6,782,2153,2147,2531,2889,2719,2551,2348,2400
754597,-19272,28260,8073,106377,0,0,-12,0,1,61,-108,-4243,-6,-2,783,2153,2147,2531,2889,2719,2551,2348,2400
755598,-19268,28280,8138,106442,0,0,-13,1,1,64,-77,-4251,5,0,783,2153,2147,2531,2889,2719,2551,2348,2400
756599,-19276,28280,8203,106507,0,0,-15,-1,0,93,-67,-4269,-2,2,783,2134,2148,2532,2893,2720,2548,2346,2398
757600,-19276,28264,8268,106572,0,0,-13,0,-1,76,-90,-4252,-4,6,783,2134,2148,2532,2893,2720,2548,2346,2398
758601,-19272,28260,8333,106637,0,0,-11,-1,-1,64,-79,-4283,-2,3,783,2134,2148,2532,2893,2720,2548,2346,2398
759602,-19272,28276,8398,106702,0,0,-10,2,-3,70,-76,-4248,8,1,783,2134,2148,2532,2893,2720,2548,2346,2398
760603,-19276,28260,8463,106767,0,0,-10,2,-3,76,-64,-4231,-1,6,783,2134,2148,2532,2893,2720,2548,2346,2398
761604,-19272,28268,8528,106832,0,0,-12,3,-5,76,-68,-4234,5,8,783,2134,2148,2532,2893,2720,2548,2346,2398
762605,-19268,28276,8593,106897,0,0,-13,3,-4,82,-76,-4232,-6,8,784,2155,2148,2530,2889,2716,2547,2344,2398
763606,-19276,28268,8658,106962,0,0,-10,0,-5,95,-57,-4228,-6,6,783,2155,2148,2530,2889,2716,2547,2344,2398
764607,-19268,28276,8723,107027,0,0,-12,0,-4,87,-77,-4214,5,3,783,2155,2148,2530,2889,2716,2547,2344,2398
765608,-19276,28276,8788,107092,0,0,-13,1,-3,78,-69,-4201,4,6,783,2155,2148,2530,2889,2716,2547,2344,2398
766609,-19276,28276,8853,107157,0,0,-12,1,-2,97,-56,-4224,-3,8,783,2155,2148,2530,2889,2716,2547,2344,2398
767610,-19276,28268,8918,107222,0,0,-10,4,-3,82,-63,-4221,1,8,783,2151,2147,2527,2888,2717,2546,2344,2397
768611,-19272,28256,8983,107287,0,0,-10,6,-2,90,-36,-4216,-5,3,766,2151,2147,2527,2888,2717,2546,2344,2397
769612,-19276,28272,9048,107352,0,0,-11,5,1,91,-71,-4214,10,-2,773,2151,2147,2527,2888,2717,2546,2344,2397
770613,-19268,28268,9113,107417,0,0,-10,6,0,101,-77,-4236,5,-4,781,2151,2147,2527,2888,2717,2546,2344,2397
771614,-19276,28268,9178,107482,0,0,-10,8,0,90,-74,-4241,5,-1,782,2151,2147,2527,2888,2717,2546,2344,2397
772615,-19284,28268,9243,107547,0,0,-11,8,1,56,-54,-4224,-3,-4,782,2151,2147,2527,2888,2717,2546,2344,2397
773616,-19284,28248,9308,107612,0,0,-10,5,0,69,-63,-4232,7,-6,782,2130,2120,2525,2886,2716,2547,2344,2397
774617,-19272,28268,9373,107677,0,0,-8,6,0,72,-70,-4267,5,-1,782,2130,2120,2525,2886,2716,2547,2344,2397
775618,-19280,28268,9438,107742,0,0,-9,6,1,82,-54,-4256,9,-1,781,2130,2120,2525,2886,2716,2547,2344,2397
776619,-19288,28268,9503,107807,0,0,-10,8,0,96,-34,-4215,7,-4,781,2130,2120,2525,2886,2716,2547,2344,2397
777620,-19264,28268,9568,107872,0,0,-8,5,1,81,-60,-4213,-4,-1,781,2130,2120,2525,2886,2716,2547,2344,2397
778621,-19276,28264,9633,107937,0,0,-8,5,1,70,-64,-4246,-3,-1,782,2150,2144,2528,2887,2716,2548,2345,2398
779622,-19272,28260,9698,108002,0,0,-8,6,2,101,-66,-4270,-6,4,781,2150,2144,2528,2887,2716,2548,2345,2398
780623,-19268,28272,9763,108067,0,0,-7,5,-1,113,-71,-4246,-6,7,781,2150,2144,2528,2887,2716,2548,2345,2398
781624,-19276,28264,9828,108132,0,0,-9,4,0,85,-72,-4241,-5,-5,781,2150,2144,2528,2887,2716,2548,2345,2398
782625,-19276,28264,9893,108197,0,0,-11,4,1,92,-84,-4229,2,-5,781,2150,2144,2528,2887,2716,2548,2345,2398
783626,-19284,28276,9958,108262,0,0,-9,4,-1,85,-103,-4269,-3,-3,779,2150,2144,2528,2887,2716,2548,2345,2398
784627,-19276,28268,10023,108327,0,0,-8,3,-3,98,-75,-4255,-6,5,778,2153,2146,2530,2892,2717,2549,2346,2400
785628,-19272,28268,10088,108392,0,0,-8,3,-3,106,-69,-4234,-4,6,760,2153,2146,2530,2892,2717,2549,2346,2400
786629,-19268,28280,10153,108457,0,0,-10,2,0,97,-73,-4285,8,2,763,2153,2146,2530,2892,2717,2549,2346,2400
787630,-19284,28280,10218,108522,0,0,-9,1,-1,109,-63,-4305,-4,9,774,2153,2146,2530,2892,2717,2549,2346,2400
788631,-19276,28272,10283,108587,0,0,-10,0,0,92,-79,-4282,11,2,774,2153,2146,2530,2892,2717,2549,2346,2400
789632,-19276,28276,10348,108652,0,0,-8,-1,1,92,-111,-4265,2,0,775,2123,2110,2484,2896,2718,2552,2345,2401
790633,-19284,28272,10413,108717,0,0,-8,0,0,94,-90,-4259,5,-5,775,2123,2110,2484,2896,2718,2552,2345,2401
791634,-19280,28260,10478,108782,0,0,-9,0,-2,77,-86,-4267,-2,0,774,2123,2110,2484,2896,2718,2552,2345,2401
792635,-19276,28264,10543,108847,0,0,-9,-1,-2,79,-82,-4268,8,4,774,2123,2110,2484,2896,2718,2552,2345,2401
793636,-19272,28260,10608,108912,0,0,-11,-1,-1,87,-88,-4264,11,9,774,2123,2110,2484,2896,2718,2552,2345,2401
794637,-19268,28268,10673,108977,0,0,-12,-1,-2,78,-83,-4260,-3,5,774,2123,2110,2484,2896,2718,2552,2345,2401
795638,-19280,28272,10738,109042,0,0,-11,-2,-3,89,-68,-4239,-6,1,773,2154,2144,2530,2886,2716,2542,2344,2392
796639,-19280,28272,10803,109107,0,0,-11,-1,-2,74,-83,-4265,4,-4,772,2154,2144,2530,2886,2716,2542,2344,2392
797640,-19268,28276,10868,109172,0,0,-9,0,0,59,-95,-4259,10,-5,773,2154,2144,2530,2886,2716,2542,2344,2392
798641,-19268,28264,10933,109237,0,0,-10,0,1,61,-91,-4226,-1,-4,773,2154,2144,2530,2886,2716,2542,2344,2392
799642,-19276,28264,10998,109302,0,0,-11,-1,-1,74,-94,-4216,-4,-3,773,2154,2144,2530,2886,2716,2542,2344,2392
800643,-19268,28272,11063,109367,0,0,-12,-1,-4,83,-69,-4234,8,-5,772,2145,2145,2518,2885,2702,2543,2334,2391
801644,-19272,28272,11128,109432,0,0,-12,0,0,97,-64,-4228,-4,-5,772,2145,2145,2518,2885,2702,2543,2334,2391
802645,-19280,28268,11193,109497,0,0,-13,0,1,102,-67,-4234,-6,-5,762,2145,2145,2518,2885,2702,2543,2334,2391
803646,-19272,28272,11258,109562,0,0,-13,1,0,72,-93,-4231,12,9,755,2145,2145,2518,2885,2702,2543,2334,2391
804647,-19264,28268,11323,109627,0,0,-12,3,-1,66,-87,-4229,-6,6,774,2145,2145,2518,2885,2702,2543,2334,2391
805648,-19280,28268,11388,109692,0,0,-12,3,-1,43,-81,-4228,-1,10,768,2145,2145,2518,2885,2702,2543,2334,2391
806649,-19272,28272,11453,109757,0,0,-13,1,1,62,-54,-4211,6,8,767,2150,2101,2457,2779,2713,2544,2343,2376
807650,-19272,28268,11518,109822,0,0,-11,0,-1,79,-67,-4220,1,1,767,2150,2101,2457,2779,2713,2544,2343,2376
808651,-19276,28272,11583,109887,0,0,-11,0,-2,73,-62,-4221,8,-2,765,2150,2101,2457,2779,2713,2544,2343,2376
809652,-19280,28256,11648,109952,0,0,-12,-1,-2,89,-82,-4231,-5,9,764,2150,2101,2457,2779,2713,2544,2343,2376
810653,-19276,28268,11713,110017,0,0,-12,0,0,62,-71,-4258,7,7,768,2150,2101,2457,2779,2713,2544,2343,2376
811654,-19268,28268,11778,110082,0,0,-12,1,-2,70,-81,-4247,11,-4,770,2112,2138,2485,2863,2666,2518,2320,2385
812655,-19280,28268,11843,110147,0,0,-11,2,-1,76,-96,-4270,-4,9,758,2112,2138,2485,2863,2666,2518,2320,2385
813656,-19280,28268,11908,110212,0,0,-10,1,1,78,-66,-4278,-1,1,769,2112,2138,2485,2863,2666,2518,2320,2385
814657,-19276,28260,11973,110277,0,0,-12,2,-1,113,-53,-4251,-1,-5,764,2112,2138,2485,2863,2666,2518,2320,2385
815658,-19272,28264,12038,110342,0,0,-13,5,-1,101,-73,-4258,7,-3,767,2112,2138,2485,2863,2666,2518,2320,2385
816659,-19272,28268,12103,110407,0,0,-11,5,1,70,-90,-4266,1,-3,769,2112,2138,2485,2863,2666,2518,2320,2385
817660,-19276,28260,12168,110472,0,0,-11,3,0,64,-69,-4293,8,9,760,2135,2131,2515,2830,2697,2506,2330,2376
818661,-19276,28260,12233,110537,0,0,-9,3,-1,68,-72,-4287,9,2,773,2135,2131,2515,2830,2697,2506,2330,2376
819662,-19280,28268,12298,110602,0,0,-8,3,0,83,-62,-4255,10,-4,761,2135,2131,2515,2830,2697,2506,2330,2376
820663,-19276,28264,12363,110667,0,0,-8,4,2,75,-69,-4233,0,0,753,2135,2131,2515,2830,2697,2506,2330,2376
821664,-19276,28268,12428,110732,0,0,-10,4,2,65,-66,-4249,11,4,757,2135,2131,2515,2830,2697,2506,2330,2376
822665,-19280,28260,12493,110797,0,0,-9,4,1,67,-73,-4237,-2,2,758,2140,2148,2495,2829,2630,2531,2290,2358
823666,-19280,28268,12558,110862,0,0,-8,2,0,66,-66,-4239,12,6,760,2140,2148,2495,2829,2630,2531,2290,2358
824667,-19276,28268,12623,110927,0,0,-9,3,0,66,-49,-4275,8,-4,762,2140,2148,2495,2829,2630,2531,2290,2358
825668,-19280,28256,12688,110992,0,0,-9,4,-1,69,-81,-4281,-4,-2,763,2140,2148,2495,2829,2630,2531,2290,2358
826669,-19272,28268,12753,111057,0,0,-9,3,0,58,-91,-4241,11,9,762,2140,2148,2495,2829,2630,2531,2290,2358
827670,-19276,28260,12818,111122,0,0,-8,6,2,71,-66,-4228,-3,-1,763,2140,2148,2495,2829,2630,2531,2290,2358
828671,-19280,28284,12883,111187,0,0,-7,6,0,58,-50,-4259,-4,-4,763,2123,2104,2499,2831,2685,2500,2318,2349
829672,-19280,28276,12948,111252,0,0,-9,2,0,59,-63,-4259,-5,7,763,2123,2104,2499,2831,2685,2500,2318,2349
830673,-19268,28260,13013,111317,0,0,-9,1,1,63,-72,-4229,3,1,763,2123,2104,2499,2831,2685,2500,2318,2349
831674,-19272,28260,13078,111382,0,0,-8,3,-1,82,-84,-4248,-5,-5,764,2123,2104,2499,2831,2685,2500,2318,2349
832675,-19276,28264,13143,111447,0,0,-8,5,-1,107,-81,-4239,10,6,763,2123,2104,2499,2831,2685,2500,2318,2349
833676,-19272,28268,13208,111512,0,0,-9,5,-2,94,-68,-4261,10,8,764,2113,2123,2484,2856,2666,2520,2303,2374
834677,-19276,28264,13273,111577,0,0,-8,3,0,95,-49,-4264,8,8,764,2113,2123,2484,2856,2666,2520,2303,2374
835678,-19272,28264,13338,111642,0,0,-10,3,-5,87,-67,-4255,-1,-4,762,2113,2123,2484,2856,2666,2520,2303,2374
836679,-19280,28264,13403,111707,0,0,-8,5,-4,70,-74,-4246,7,10,760,2113,2123,2484,2856,2666,2520,2303,2374
837680,-19272,28272,13468,111772,0,0,-10,1,-1,98,-75,-4226,7,3,770,2113,2123,2484,2856,2666,2520,2303,2374
838681,-19276,28276,13533,111837,0,0,-11,2,-1,92,-61,-4230,7,1,788,2113,2123,2484,2856,2666,2520,2303,2374
839682,-19280,28268,13598,111902,0,0,-11,1,-1,78,-53,-4215,4,-6,787,2129,2105,2498,2836,2660,2528,2343,2396
840683,-19272,28268,13663,111967,0,0,-10,2,0,82,-54,-4246,3,-6,787,2129,2105,2498,2836,2660,2528,2343,2396
841684,-19280,28276,13728,112032,0,0,-11,1,-4,83,-98,-4243,9,-4,786,2129,2105,2498,2836,2660,2528,2343,2396
842685,-19280,28248,13793,112097,0,0,-9,2,-4,81,-87,-4247,-2,-5,787,2129,2105,2498,2836,2660,2528,2343,2396
843686,-19264,28276,13858,112162,0,0,-11,3,-3,104,-75,-4223,-6,-6,787,2129,2105,2498,2836,2660,2528,2343,2396
844687,-19272,28268,13923,112227,0,0,-12,2,-2,103,-57,-4254,-7,-5,787,2152,2146,2528,2888,2713,2546,2342,2397
845688,-19276,28268,13988,112292,0,0,-12,0,0,92,-66,-4264,8,-6,786,2152,2146,2528,2888,2713,2546,2342,2397
846689,-19268,28268,14053,112357,0,0,-13,-3,1,72,-79,-4258,-6,-6,784,2152,2146,2528,2888,2713,2546,2342,2397
847690,-19276,28268,14118,112422,0,0,-13,-1,1,68,-65,-4247,9,-3,784,2152,2146,2528,2888,2713,2546,2342,2397
848691,-19276,28276,14183,112487,0,0,-11,1,1,60,-42,-4235,8,1,784,2152,2146,2528,2888,2713,2546,2342,2397
849692,-19276,28276,14248,112552,0,0,-10,1,1,82,-38,-4231,-6,0,785,2152,2146,2528,2888,2713,2546,2342,2397
850693,-19268,28268,14313,112617,0,0,-12,2,-1,84,-56,-4224,2,3,785,2151,2148,2530,2890,2716,2548,2344,2398
851694,-19276,28264,14378,112682,0,0,-12,3,-3,72,-72,-4252,-2,8,785,2151,2148,2530,2890,2716,2548,2344,2398
852695,-19268,28276,14443,112747,0,0,-11,1,-2,79,-85,-4256,8,8,785,2151,2148,2530,2890,2716,2548,2344,2398
853696,-19268,28268,14508,112812,0,0,-13,0,0,54,-42,-4267,10,-4,767,2151,2148,2530,2890,2716,2548,2344,2398
854697,-19276,28260,14573,112877,0,0,-12,-2,0,63,-64,-4271,6,7,767,2151,2148,2530,2890,2716,2548,2344,2398
855698,-19284,28268,14638,112942,0,0,-13,-2,1,94,-63,-4250,-7,4,786,2149,2147,2531,2892,2724,2526,2321,2399
856699,-19268,28268,14703,113007,0,0,-12,0,0,83,-54,-4237,-6,-2,786,2149,2147,2531,2892,2724,2526,2321,2399
857700,-19280,28260,14768,113072,0,0,-10,-1,1,74,-49,-4254,5,8,786,2149,2147,2531,2892,2724,2526,2321,2399
858701,-19276,28268,14833,113137,0,0,-11,-2,-3,82,-67,-4259,-5,7,786,2149,2147,2531,2892,2724,2526,2321,2399
859702,-19272,28268,14898,113202,0,0,-12,1,-2,84,-65,-4250,6,8,786,2149,2147,2531,2892,2724,2526,2321,2399
860703,-19276,28264,14963,113267,0,0,-10,0,-3,54,-49,-4243,-3,8,787,2149,2147,2531,2892,2724,2526,2321,2399
861704,-19272,28268,15028,113332,0,0,-10,-1,-2,54,-60,-4262,0,6,786,2152,2146,2529,2890,2719,2548,2345,2398
862705,-19276,28252,15093,113397,0,0,-9,0,-1,81,-66,-4243,5,8,786,2152,2146,2529,2890,2719,2548,2345,2398
863706,-19276,28260,15158,113462,0,0,-9,1,0,99,-67,-4247,-7,7,786,2152,2146,2529,2890,2719,2548,2345,2398
864707,-19268,28264,15223,113527,0,0,-9,2,0,74,-72,-4261,4,1,787,2152,2146,2529,2890,2719,2548,2345,2398
865708,-19268,28268,15288,113592,0,0,-8,1,0,70,-74,-4265,6,1,787,2152,2146,2529,2890,2719,2548,2345,2398
866709,-19280,28256,15353,113657,0,0,-8,1,-2,82,-85,-4283,-4,-5,787,2153,2147,2531,2890,2718,2548,2345,2398
867710,-19272,28272,15418,113722,0,0,-7,1,-4,97,-67,-4267,0,-6,788,2153,2147,2531,2890,2718,2548,2345,2398
868711,-19288,28268,15483,113787,0,0,-8,2,-4,70,-64,-4250,10,1,787,2153,2147,2531,2890,2718,2548,2345,2398
869712,-19280,28264,15548,113852,0,0,-8,1,-1,72,-71,-4231,7,3,787,2153,2147,2531,2890,2718,2548,2345,2398
870713,-19276,28264,15613,113917,0,0,-8,0,1,73,-68,-4219,1,8,771,2153,2147,2531,2890,2718,2548,2345,2398
871714,-19268,28272,15678,113982,0,0,-6,2,0,78,-79,-4225,-6,5,769,2152,2146,2528,2889,2717,2549,2340,2394
872715,-19268,28276,15743,114047,0,0,-7,1,0,91,-79,-4222,4,-2,784,2152,2146,2528,2889,2717,2549,2340,2394
873716,-19272,28276,15808,114112,0,0,-11,1,-2,79,-55,-4263,-7,1,783,2152,2146,2528,2889,2717,2549,2340,2394
874717,-19276,28264,15873,114177,0,0,-11,3,-1,60,-71,-4224,5,4,784,2152,2146,2528,2889,2717,2549,2340,2394
875718,-19280,28268,15938,114242,0,0,-11,4,2,68,-91,-4270,0,-1,784,2152,2146,2528,2889,2717,2549,2340,2394
876719,-19280,28268,16003,114307,0,0,-8,3,2,72,-65,-4288,-5,8,784,2152,2146,2528,2889,2717,2549,2340,2394
877720,-19276,28252,16068,114372,0,0,-7,3,0,91,-66,-4248,3,4,784,2150,2145,2527,2887,2719,2550,2346,2400
878721,-19280,28264,16133,114437,0,0,-7,5,0,79,-67,-4209,10,0,784,2150,2145,2527,2887,2719,2550,2346,2400
879722,-19276,28268,16198,114502,0,0,-8,8,-1,59,-92,-4220,6,-6,784,2150,2145,2527,2887,2719,2550,2346,2400
880723,-19276,28276,16263,114567,0,0,-9,7,0,81,-96,-4230,-3,-5,784,2150,2145,2527,2887,2719,2550,2346,2400
881724,-19272,28268,16328,114632,0,0,-11,5,1,72,-81,-4247,2,-1,784,2150,2145,2527,2887,2719,2550,2346,2400
882725,-19280,28260,16393,114697,0,0,-9,4,0,65,-89,-4208,2,-5,784,2151,2146,2529,2890,2715,2548,2346,2399
883726,-19268,28264,16458,114762,0,0,-11,7,1,79,-80,-4234,-2,-4,782,2151,2146,2529,2890,2715,2548,2346,2399
884727,-19272,28268,16523,114827,0,0,-12,6,2,78,-66,-4248,-1,-3,782,2151,2146,2529,2890,2715,2548,2346,2399
885728,-19276,28264,16588,114892,0,0,-11,5,0,56,-68,-4230,3,6,783,2151,2146,2529,2890,2715,2548,2346,2399
886729,-19284,28272,16653,114957,0,0,-11,3,-2,51,-67,-4240,9,-1,783,2151,2146,2529,2890,2715,2548,2346,2399
887730,-19276,28272,16718,115022,0,0,-11,6,-1,53,-65,-4245,4,-5,767,2151,2146,2529,2890,2715,2548,2346,2399
888731,-19272,28260,16783,115087,0,0,-11,8,0,72,-76,-4256,10,-6,769,2151,2144,2529,2889,2715,2549,2343,2372
889732,-19280,28264,16848,115152,0,0,-11,7,-2,96,-79,-4237,-1,-2,786,2151,2144,2529,2889,2715,2549,2343,2372
890733,-19280,28268,16913,115217,0,0,-12,4,-3,89,-84,-4236,0,-1,786,2151,2144,2529,2889,2715,2549,2343,2372
891734,-19276,28264,16978,115282,0,0,-12,4,0,85,-88,-4248,3,6,786,2151,2144,2529,2889,2715,2549,2343,2372
892735,-19272,28260,17043,115347,0,0,-10,7,0,69,-74,-4254,6,5,785,2151,2144,2529,2889,2715,2549,2343,2372
893736,-19276,28260,17108,115412,0,0,-10,5,-1,75,-82,-4291,5,7,786,2154,2148,2530,2892,2718,2548,2346,2398
894737,-19284,28272,17173,115477,0,0,-11,0,0,73,-63,-4281,-7,0,786,2154,2148,2530,2892,2718,2548,2346,2398
895738,-19280,28264,17238,115542,0,0,-13,0,0,65,-78,-4298,-5,-3,785,2154,2148,2530,2892,2718,2548,2346,2398
896739,-19276,28264,17303,115607,0,0,-12,0,-1,62,-94,-4256,6,-5,784,2154,2148,2530,2892,2718,2548,2346,2398
897740,-19276,28260,17368,115672,0,0,-10,2,0,86,-78,-4230,9,1,785,2154,2148,2530,2892,2718,2548,2346,2398
898741,-19272,28272,17433,115737,0,0,-11,3,-2,85,-78,-4252,9,6,784,2154,2148,2530,2892,2718,2548,2346,2398
899742,-19280,28280,17498,115802,0,0,-12,1,-1,83,-77,-4265,6,7,784,2156,2150,2532,2892,2720,2550,2346,2399
900743,-19268,28260,17563,115867,0,0,-13,1,-1,72,-75,-4215,-7,8,783,2156,2150,2532,2892,2720,2550,2346,2399
901744,-19268,28268,17628,115932,0,0,-11,0,-3,79,-81,-4240,8,2,783,2156,2150,2532,2892,2720,2550,2346,2399
902745,-19272,28276,17693,115997,0,0,-12,1,-4,52,-75,-4238,10,0,783,2156,2150,2532,2892,2720,2550,2346,2399
903746,-19280,28268,17758,116062,0,0,-10,1,-4,55,-60,-4220,-6,-3,783,2156,2150,2532,2892,2720,2550,2346,2399
904747,-19276,28268,17823,116127,0,0,-10,0,0,81,-59,-4213,-4,7,769,2151,2148,2530,2892,2720,2549,2345,2400
905748,-19272,28264,17888,116192,0,0,-10,-3,0,72,-55,-4207,-6,6,767,2151,2148,2530,2892,2720,2549,2345,2400
906749,-19276,28272,17953,116257,0,0,-10,-2,-1,77,-60,-4224,10,-3,786,2151,2148,2530,2892,2720,2549,2345,2400
907750,-19276,28272,18018,116322,0,0,-8,-1,0,88,-52,-4280,0,-4,786,2151,2148,2530,2892,2720,2549,2345,2400
908751,-19276,28268,18083,116387,0,0,-8,-2,1,97,-57,-4258,-5,-4,787,2151,2148,2530,2892,2720,2549,2345,2400
909752,-19272,28272,18148,116452,0,0,-9,-2,-3,85,-62,-4226,-4,2,787,2151,2148,2530,2892,2720,2549,2345,2400
910753,-19288,28268,18213,116517,0,0,-10,-2,-3,89,-78,-4235,7,8,788,2150,2143,2526,2886,2715,2547,2344,2397
911754,-19264,28268,18278,116582,0,0,-11,-2,0,103,-72,-4222,0,7,788,2150,2143,2526,2886,2715,2547,2344,2397
912755,-19280,28268,18343,116647,0,0,-10,-3,2,83,-41,-4218,-7,8,788,2150,2143,2526,2886,2715,2547,2344,2397
913756,-19280,28264,18408,116712,0,0,-9,-2,2,76,-56,-4226,-7,1,788,2150,2143,2526,2886,2715,2547,2344,2397
914757,-19268,28272,18473,116777,0,0,-6,-2,-2,101,-54,-4241,-7,-4,788,2150,2143,2526,2886,2715,2547,2344,2397
915758,-19268,28260,18538,116842,0,0,-8,3,-1,91,-56,-4210,-5,-5,788,2150,2144,2527,2886,2715,2545,2343,2397
916759,-19276,28268,18603,116907,0,0,-11,3,2,72,-83,-4241,5,-6,788,2150,2144,2527,2886,2715,2545,2343,2397
917760,-19280,28260,18668,116972,0,0,-12,3,2,83,-91,-4256,-4,-1,788,2150,2144,2527,2886,2715,2545,2343,2397
918761,-19272,28284,18733,117037,0,0,-8,2,0,78,-74,-4235,-7,7,788,2150,2144,2527,2886,2715,2545,2343,2397
919762,-19276,28264,18798,117102,0,0,-7,1,0,104,-73,-4246,-2,6,788,2150,2144,2527,2886,2715,2545,2343,2397
920764,-19276,28272,18863,117167,0,0,-8,1,0,91,-62,-4251,-7,8,788,2150,2144,2527,2886,2715,2545,2343,2397
921764,-19280,28264,18928,117232,0,0,-9,3,-3,80,-71,-4252,2,8,772,2149,2143,2527,2886,2715,2546,2343,2398
922765,-19272,28264,18993,117297,0,0,-9,5,-2,80,-87,-4221,10,8,771,2149,2143,2527,2886,2715,2546,2343,2398
923766,-19276,28260,19058,117362,0,0,-9,3,-1,57,-79,-4244,5,7,788,2149,2143,2527,2886,2715,2546,2343,2398
924767,-19276,28256,19123,117427,0,0,-10,2,2,61,-76,-4256,-5,4,787,2149,2143,2527,2886,2715,2546,2343,2398
925768,-19272,28256,19188,117492,0,0,-8,2,3,44,-60,-4255,-5,-4,787,2149,2143,2527,2886,2715,2546,2343,2398
926769,-19280,28264,19253,117557,0,0,-9,4,4,58,-65,-4276,2,-2,789,2144,2146,2529,2891,2716,2548,2346,2397
927770,-19280,28268,19318,117622,0,0,-7,3,0,72,-55,-4265,-7,8,789,2144,2146,2529,2891,2716,2548,2346,2397
928771,-19272,28256,19383,117687,0,0,-6,1,0,73,-76,-4266,-6,1,789,2144,2146,2529,2891,2716,2548,2346,2397
929772,-19268,28260,19448,117752,0,0,-10,2,0,95,-79,-4265,-2,4,789,2144,2146,2529,2891,2716,2548,2346,2397
930773,-19280,28268,19513,117817,0,0,-12,4,-3,95,-87,-4248,4,-4,789,2144,2146,2529,2891,2716,2548,2346,2397
931774,-19276,28276,19578,117882,0,0,-10,2,0,87,-92,-4260,9,-4,789,2144,2146,2529,2891,2716,2548,2346,2397
932775,-19268,28268,19643,117947,0,0,-9,0,4,80,-72,-4251,4,5,789,2156,2148,2532,2892,2718,2549,2346,2399
933776,-19276,28272,19708,118012,0,0,-11,1,2,89,-60,-4293,1,6,789,2156,2148,2532,2892,2718,2549,2346,2399
934777,-19276,28272,19773,118077,0,0,-10,2,1,85,-65,-4262,-4,3,789,2156,2148,2532,2892,2718,2549,2346,2399
935778,-19284,28268,19838,118142,0,0,-11,2,0,85,-58,-4251,-7,-5,789,2156,2148,2532,2892,2718,2549,2346,2399
936779,-19272,28264,19903,118207,0,0,-11,4,-1,83,-63,-4264,-6,-1,789,2156,2148,2532,2892,2718,2549,2346,2399
937780,-19264,28264,19968,118272,0,0,-10,3,-4,99,-52,-4311,8,5,790,2156,2148,2532,2892,2720,2550,2347,2400
938781,-19276,28260,20033,118337,0,0,-11,3,-2,82,-78,-4299,-6,8,773,2156,2148,2532,2892,2720,2550,2347,2400
939782,-19268,28260,20098,118402,0,0,-13,4,-1,78,-94,-4251,-1,7,772,2156,2148,2532,2892,2720,2550,2347,2400
940783,-19272,28272,20163,118467,0,0,-14,3,-1,66,-68,-4262,-5,-3,789,2156,2148,2532,2892,2720,2550,2347,2400
941784,-19280,28264,20228,118532,0,0,-14,4,-1,66,-44,-4267,-5,-5,789,2156,2148,2532,2892,2720,2550,2347,2400
942785,-19264,28260,20293,118597,0,0,-13,3,-2,85,-74,-4268,-6,0,789,2156,2148,2532,2892,2720,2550,2347,2400
943786,-19284,28256,20358,118662,0,0,-11,1,-5,82,-71,-4266,1,1,789,2147,2141,2527,2893,2719,2552,2346,2400
944787,-19276,28288,20423,118727,0,0,-10,4,-1,95,-49,-4254,8,7,789,2147,2141,2527,2893,2719,2552,2346,2400
945788,-19276,28272,20488,118792,0,0,-11,3,-1,97,-56,-4259,9,-3,789,2147,2141,2527,2893,2719,2552,2346,2400
946789,-19280,28272,20553,118857,0,0,-10,1,-2,75,-65,-4248,8,-5,789,2147,2141,2527,2893,2719,2552,2346,2400
947790,-19276,28272,20618,118922,0,0,-11,3,-2,86,-45,-4254,6,-6,789,2147,2141,2527,2893,2719,2552,2346,2400
948791,-19264,28264,20683,118987,0,0,-11,3,-1,93,-50,-4221,2,-4,789,2150,2144,2529,2887,2719,2550,2346,2400
949792,-19268,28260,20882,119186,0,0,-9,2,-2,76,-48,-4262,-4,3,789,2150,2144,2529,2887,2719,2550,2346,2400
950793,-19272,28268,20947,119251,0,0,-8,3,-3,79,-33,-4239,9,2,788,2150,2144,2529,2887,2719,2550,2346,2400
951794,-19280,28268,21012,119316,0,0,-9,5,-2,84,-56,-4236,4,7,789,2150,2144,2529,2887,2719,2550,2346,2400
952795,-19276,28272,21077,119381,0,0,-10,5,-1,77,-79,-4235,5,2,789,2150,2144,2529,2887,2719,2550,2346,2400
953796,-19276,28260,21142,119446,0,0,-11,3,-1,78,-60,-4232,8,-3,789,2150,2144,2529,2887,2719,2550,2346,2400
954797,-19276,28268,21207,119511,0,0,-10,0,-2,83,-58,-4189,-3,-4,790,2147,2142,2524,2884,2711,2543,2346,2399
955798,-19272,28256,21272,119576,0,0,-7,2,-1,89,-71,-4174,7,-1,773,2147,2142,2524,2884,2711,2543,2346,2399
956799,-19268,28280,21337,119641,0,0,-7,5,1,85,-66,-4224,-3,-6,767,2147,2142,2524,2884,2711,2543,2346,2399
957800,-19280,28272,21402,119706,0,0,-7,3,2,98,-94,-4232,-7,-6,785,2147,2142,2524,2884,2711,2543,2346,2399
958801,-19284,28260,21467,119771,0,0,-7,1,0,78,-63,-4227,-2,-1,785,2147,2142,2524,2884,2711,2543,2346,2399
959802,-19276,28256,21532,119836,0,0,-6,0,-3,89,-60,-4251,-7,2,786,2144,2136,2506,2885,2714,2544,2343,2396
960803,-19276,28268,21597,119901,0,0,-8,2,0,75,-66,-4243,-1,8,787,2144,2136,2506,2885,2714,2544,2343,2396
961804,-19264,28260,21662,119966,0,0,-8,1,0,90,-76,-4240,0,7,787,2144,2136,2506,2885,2714,2544,2343,2396
962805,-19272,28272,21727,120031,0,0,-9,4,0,91,-74,-4226,10,8,787,2144,2136,2506,2885,2714,2544,2343,2396
963806,-19276,28268,21792,120096,0,0,-9,4,0,84,-81,-4227,9,7,788,2144,2136,2506,2885,2714,2544,2343,2396
964807,-19268,28272,21857,120161,0,0,-7,3,1,95,-67,-4249,10,0,787,2144,2136,2506,2885,2714,2544,2343,2396
965808,-19272,28260,21922,120226,0,0,-8,4,-1,77,-55,-4212,-1,3,788,2149,2144,2528,2889,2716,2546,2344,2397
966809,-19268,28264,21987,120291,0,0,-9,3,-2,91,-82,-4193,1,-5,787,2149,2144,2528,2889,2716,2546,2344,2397
967810,-19276,28276,22052,120356,0,0,-9,2,0,91,-75,-4244,6,-4,788,2149,2144,2528,2889,2716,2546,2344,2397
968812,-19276,28268,22117,120421,0,0,-7,0,3,61,-66,-4265,9,7,788,2149,2144,2528,2889,2716,2546,2344,2397
969812,-19280,28272,22182,120486,0,0,-8,0,0,71,-73,-4262,10,2,788,2149,2144,2528,2889,2716,2546,2344,2397
970813,-19272,28272,22247,120551,0,0,-10,-2,-3,86,-76,-4244,-7,-5,788,2152,2146,2529,2890,2717,2548,2346,2399
971814,-19272,28260,22312,120616,0,0,-12,-2,-1,75,-96,-4224,8,-3,788,2152,2146,2529,2890,2717,2548,2346,2399
972815,-19272,28268,22377,120681,0,0,-12,3,-1,82,-91,-4238,11,-4,772,2152,2146,2529,2890,2717,2548,2346,2399
973816,-19276,28268,22442,120746,0,0,-11,5,-1,84,-91,-4262,-3,-3,766,2152,2146,2529,2890,2717,2548,2346,2399
974817,-19272,28260,22507,120811,0,0,-11,2,1,88,-89,-4258,-4,4,782,2152,2146,2529,2890,2717,2548,2346,2399
975818,-19276,28272,22572,120876,0,0,-12,-2,1,62,-73,-4267,6,2,782,2152,2146,2529,2890,2717,2548,2346,2399
976819,-19264,28272,22637,120941,0,0,-11,-3,0,68,-74,-4285,-1,-5,782,2156,2143,2527,2863,2715,2554,2348,2401
977820,-19280,28268,22702,121006,0,0,-13,0,0,90,-63,-4245,-6,-5,782,2156,2143,2527,2863,2715,2554,2348,2401
978821,-19280,28268,22767,121071,0,0,-11,0,0,79,-58,-4246,-5,-1,783,2156,2143,2527,2863,2715,2554,2348,2401
979822,-19272,28264,22832,121136,0,0,-9,0,1,69,-68,-4228,-1,0,782,2156,2143,2527,2863,2715,2554,2348,2401
980823,-19272,28268,22897,121201,0,0,-9,0,0,58,-87,-4246,10,8,783,2156,2143,2527,2863,2715,2554,2348,2401
981824,-19276,28276,22962,121266,0,0,-10,-1,0,81,-61,-4235,10,6,783,2153,2147,2533,2894,2719,2551,2350,2402
982825,-19280,28264,23027,121331,0,0,-11,-1,-3,76,-64,-4229,10,-3,782,2153,2147,2533,2894,2719,2551,2350,2402
983826,-19272,28264,23092,121396,0,0,-10,0,-5,99,-60,-4234,2,2,782,2153,2147,2533,2894,2719,2551,2350,2402
984827,-19284,28276,23157,121461,0,0,-8,2,-4,83,-58,-4254,-6,-1,781,2153,2147,2533,2894,2719,2551,2350,2402
985828,-19276,28256,23222,121526,0,0,-11,0,-3,53,-57,-4237,-2,-6,781,2153,2147,2533,2894,2719,2551,2350,2402
986829,-19268,28252,23287,121591,0,0,-11,-1,-1,89,-48,-4218,10,-6,782,2153,2147,2533,2894,2719,2551,2350,2402
987830,-19268,28276,23352,121656,0,0,-11,-1,-1,94,-65,-4214,8,-6,783,2150,2144,2527,2887,2717,2549,2343,2399
988831,-19272,28272,23417,121721,0,0,-12,0,-2,91,-66,-4251,2,-1,782,2150,2144,2527,2887,2717,2549,2343,2399
989832,-19268,28260,23482,121786,0,0,-13,-1,-2,77,-60,-4251,7,-3,765,2150,2144,2527,2887,2717,2549,2343,2399
990833,-19272,28256,23547,121851,0,0,-12,0,-1,72,-49,-4275,5,6,767,2150,2144,2527,2887,2717,2549,2343,2399
991834,-19272,28272,23612,121916,0,0,-10,1,-2,88,-63,-4238,-4,8,784,2150,2144,2527,2887,2717,2549,2343,2399
992835,-19276,28276,23677,121981,0,0,-10,4,-2,99,-70,-4213,-5,4,785,2148,2142,2496,2851,2697,2546,2344,2396
993836,-19272,28276,23742,122046,0,0,-10,3,-3,84,-57,-4232,-2,-5,786,2148,2142,2496,2851,2697,2546,2344,2396
994837,-19280,28272,23807,122111,0,0,-10,2,-2,79,-60,-4221,9,-5,785,2148,2142,2496,2851,2697,2546,2344,2396
995838,-19276,28268,23872,122176,0,0,-9,3,-1,78,-46,-4209,5,-5,785,2148,2142,2496,2851,2697,2546,2344,2396
996839,-19276,28264,23937,122241,0,0,-9,4,1,65,-71,-4203,-7,4,785,2148,2142,2496,2851,2697,2546,2344,2396
997840,-19268,28264,24002,122306,0,0,-9,3,0,63,-52,-4209,-5,6,785,2148,2142,2496,2851,2697,2546,2344,2396
998841,-19280,28264,24067,122371,0,0,-10,3,-2,63,-61,-4237,-5,6,785,2147,2139,2527,2888,2716,2546,2344,2396
999842,-19280,28268,24132,122436,0,0,-10,6,-2,63,-77,-4260,5,-2,785,2147,2139,2527,2888,2716,2546,2344,2396
1000843,-19276,28268,24197,122501,0,0,-8,6,-1,76,-59,-4243,10,-2,785,2147,2139,2527,2888,2716,2546,2344,2396
1001844,-19272,28264,24262,122566,0,0,-9,5,1,92,-39,-4226,10,-5,785,2147,2139,2527,2888,2716,2546,2344,2396
1002845,-19276,28264,24327,122631,0,0,-8,5,2,104,-51,-4223,1,1,785,2147,2139,2527,2888,2716,2546,2344,2396
1003846,-19272,28264,24392,122696,0,0,-6,5,0,95,-60,-4246,-7,5,785,2148,2143,2523,2887,2719,2548,2345,2400
1004847,-19284,28280,24457,122761,0,0,-7,4,0,91,-61,-4230,-7,5,785,2148,2143,2523,2887,2719,2548,2345,2400
1005848,-19268,28268,24522,122826,0,0,-9,5,0,82,-82,-4265,6,-3,785,2148,2143,2523,2887,2719,2548,2345,2400
1006849,-19268,28272,24587,122891,0,0,-9,6,1,62,-99,-4252,-1,0,770,2148,2143,2523,2887,2719,2548,2345,2400
1007850,-19280,28272,24652,122956,0,0,-7,4,2,63,-89,-4252,-4,4,766,2148,2143,2523,2887,2719,2548,2345,2400
1008851,-19272,28280,24717,123021,0,0,-9,4,2,68,-82,-4242,-7,8,784,2148,2143,2523,2887,2719,2548,2345,2400
1009852,-19276,28264,24782,123086,0,0,-9,3,0,65,-85,-4241,6,-4,784,2151,2146,2527,2871,2699,2526,2345,2398
1010853,-19268,28264,24847,123151,0,0,-9,5,0,57,-81,-4250,-6,-5,784,2151,2146,2527,2871,2699,2526,2345,2398
1011854,-19276,28264,24912,123216,0,0,-8,3,0,76,-80,-4276,9,7,784,2151,2146,2527,2871,2699,2526,2345,2398
1012855,-19272,28260,24977,123281,0,0,-9,2,-3,77,-84,-4305,-4,8,783,2151,2146,2527,2871,2699,2526,2345,2398
1013856,-19264,28276,25042,123346,0,0,-10,3,-2,82,-71,-4282,-6,4,784,2151,2146,2527,2871,2699,2526,2345,2398
1014857,-19276,28260,25107,123411,0,0,-10,3,3,88,-68,-4286,7,-1,784,2153,2148,2533,2894,2719,2551,2347,2399
1015858,-19268,28264,25172,123476,0,0,-10,2,1,79,-60,-4272,3,-4,784,2153,2148,2533,2894,2719,2551,2347,2399
1016859,-19276,28260,25237,123541,0,0,-10,1,-2,97,-62,-4270,-7,-4,784,2153,2148,2533,2894,2719,2551,2347,2399
1017860,-19276,28272,25302,123606,0,0,-10,2,1,111,-74,-4235,9,5,784,2153,2148,2533,2894,2719,2551,2347,2399
1018861,-19284,28268,25367,123671,0,0,-11,3,1,91,-71,-4221,10,7,784,2153,2148,2533,2894,2719,2551,2347,2399
1019862,-19268,28260,25432,123736,0,0,-11,1,-1,91,-88,-4269,2,2,784,2153,2148,2533,2894,2719,2551,2347,2399
1020863,-19272,28264,25497,123801,0,0,-12,1,1,101,-84,-4248,1,1,784,2153,2148,2531,2892,2718,2549,2345,2399
1021864,-19284,28272,25562,123866,0,0,-13,2,-2,99,-59,-4219,-5,0,785,2153,2148,2531,2892,2718,2549,2345,2399
1022865,-19280,28264,25627,123931,0,0,-10,2,-3,104,-77,-4204,0,6,784,2153,2148,2531,2892,2718,2549,2345,2399
1023866,-19288,28264,25692,123996,0,0,-10,1,0,110,-79,-4209,2,8,769,2153,2148,2531,2892,2718,2549,2345,2399
1024867,-19276,28260,25757,124061,0,0,-12,-1,0,86,-56,-4246,-3,8,766,2153,2148,2531,2892,2718,2549,2345,2399
1025868,-19276,28256,25822,124126,0,0,-13,-2,-1,78,-68,-4244,-2,5,783,2154,2147,2530,2890,2700,2528,2324,2399
1026869,-19276,28268,25887,124191,0,0,-13,-3,-1,55,-86,-4243,5,1,783,2154,2147,2530,2890,2700,2528,2324,2399
1027870,-19284,28276,25952,124256,0,0,-14,1,-2,77,-85,-4212,4,-4,783,2154,2147,2530,2890,2700,2528,2324,2399
1028871,-19268,28268,26017,124321,0,0,-11,1,-1,60,-56,-4237,-5,-5,784,2154,2147,2530,2890,2700,2528,2324,2399
1029872,-19268,28276,26082,124386,0,0,-12,1,1,46,-50,-4235,-7,-3,784,2154,2147,2530,2890,2700,2528,2324,2399
1030873,-19268,28264,26147,124451,0,0,-12,1,-1,70,-61,-4250,-2,4,785,2154,2147,2530,2890,2700,2528,2324,2399
1031874,-19276,28272,26212,124516,0,0,-11,0,-2,108,-76,-4237,8,4,785,2149,2143,2526,2888,2717,2547,2347,2399
1032875,-19272,28272,26277,124581,0,0,-10,0,-2,112,-87,-4220,1,3,786,2149,2143,2526,2888,2717,2547,2347,2399
1033876,-19272,28248,26342,124646,0,0,-11,0,0,91,-84,-4221,-6,0,786,2149,2143,2526,2888,2717,2547,2347,2399
1034877,-19276,28268,26407,124711,0,0,-10,0,-2,78,-75,-4235,10,0,785,2149,2143,2526,2888,2717,2547,2347,2399
1035878,-19264,28264,26472,124776,0,0,-10,1,-3,74,-59,-4251,8,-6,785,2149,2143,2526,2888,2717,2547,2347,2399
1036879,-19272,28272,26537,124841,0,0,-8,0,-1,95,-31,-4247,1,-5,785,2148,2142,2525,2884,2715,2547,2343,2399
1037880,-19280,28268,26602,124906,0,0,-8,0,-2,89,-26,-4246,-1,-1,786,2148,2142,2525,2884,2715,2547,2343,2399
1038881,-19280,28252,26667,124971,0,0,-9,2,-5,93,-48,-4236,10,8,785,2148,2142,2525,2884,2715,2547,2343,2399
1039882,-19288,28264,26732,125036,0,0,-9,4,-4,72,-55,-4240,2,1,785,2148,2142,2525,2884,2715,2547,2343,2399
1040883,-19272,28276,26797,125101,0,0,-12,3,-4,81,-63,-4241,-5,7,771,2148,2142,2525,2884,2715,2547,2343,2399
1041884,-19272,28284,26862,125166,0,0,-12,1,-2,76,-40,-4224,4,5,770,2148,2142,2525,2884,2715,2547,2343,2399
1042885,-19280,28276,26927,125231,0,0,-9,1,1,68,-82,-4258,10,-3,786,2149,2144,2526,2886,2716,2534,2337,2380
1043886,-19272,28276,26992,125296,0,0,-7,0,-1,101,-88,-4280,3,-2,785,2149,2144,2526,2886,2716,2534,2337,2380
1044887,-19272,28248,27057,125361,0,0,-7,3,-3,102,-66,-4261,-7,2,785,2149,2144,2526,2886,2716,2534,2337,2380
1045888,-19276,28248,27122,125426,0,0,-9,5,-2,90,-63,-4229,3,7,784,2149,2144,2526,2886,2716,2534,2337,2380
1046889,-19280,28260,27187,125491,0,0,-7,2,-2,98,-53,-4257,9,7,785,2149,2144,2526,2886,2716,2534,2337,2380
1047890,-19272,28268,27252,125556,0,0,-7,-1,-4,111,-53,-4248,6,-1,786,2150,2144,2529,2889,2718,2549,2345,2399
1048891,-19280,28264,27317,125621,0,0,-7,-2,-1,97,-79,-4264,-7,-5,785,2150,2144,2529,2889,2718,2549,2345,2399
1049892,-19280,28264,27382,125686,0,0,-7,-1,0,71,-96,-4270,10,-6,785,2150,2144,2529,2889,2718,2549,2345,2399
1050893,-19276,28276,27447,125751,0,0,-8,1,-2,67,-75,-4235,-1,2,785,2150,2144,2529,2889,2718,2549,2345,2399
1051894,-19272,28272,27512,125816,0,0,-8,4,-1,69,-86,-4234,-4,8,785,2150,2144,2529,2889,2718,2549,2345,2399
1052895,-19268,28268,27577,125881,0,0,-9,4,0,98,-49,-4271,-6,7,785,2150,2144,2529,2889,2718,2549,2345,2399
1053896,-19280,28272,27642,125946,0,0,-8,3,-2,84,-76,-4263,9,-1,786,2152,2146,2530,2890,2717,2548,2345,2398
1054897,-19272,28264,27707,126011,0,0,-9,2,-1,54,-86,-4228,4,-5,786,2152,2146,2530,2890,2717,2548,2345,2398
1055898,-19276,28268,27772,126076,0,0,-10,1,-1,81,-82,-4263,1,-5,786,2152,2146,2530,2890,2717,2548,2345,2398
1056899,-19276,28264,27837,126141,0,0,-11,1,-1,96,-83,-4254,-7,-2,774,2152,2146,2530,2890,2717,2548,2345,2398
1057900,-19276,28260,27902,126206,0,0,-12,2,-1,61,-90,-4212,-4,-1,766,2152,2146,2530,2890,2717,2548,2345,2398
1058901,-19280,28260,27967,126271,0,0,-12,4,1,62,-78,-4218,-1,-5,779,2154,2148,2532,2891,2716,2547,2340,2391
1059902,-19280,28268,28032,126336,0,0,-11,5,2,64,-77,-4230,2,-4,778,2154,2148,2532,2891,2716,2547,2340,2391
1060903,-19268,28268,28097,126401,0,0,-10,4,-2,77,-104,-4236,-6,-5,778,2154,2148,2532,2891,2716,2547,2340,2391
1061904,-19276,28272,28162,126466,0,0,-11,3,-1,74,-104,-4272,1,1,778,2154,2148,2532,2891,2716,2547,2340,2391
1062905,-19272,28264,28227,126531,0,0,-12,2,0,78,-92,-4281,9,-1,777,2154,2148,2532,2891,2716,2547,2340,2391
1063906,-19276,28268,28292,126596,0,0,-12,0,1,72,-80,-4235,5,6,777,2154,2148,2532,2891,2716,2547,2340,2391
1064907,-19280,28264,28357,126661,0,0,-12,2,1,73,-76,-4231,6,1,778,2151,2141,2527,2879,2719,2543,2348,2394
1065908,-19276,28268,28422,126726,0,0,-15,4,0,70,-84,-4235,8,-2,778,2151,2141,2527,2879,2719,2543,2348,2394
1066909,-19280,28272,28487,126791,0,0,-15,3,-1,67,-72,-4245,-6,-2,778,2151,2141,2527,2879,2719,2543,2348,2394
1067910,-19280,28264,28552,126856,0,0,-13,3,-2,68,-75,-4234,10,-3,778,2151,2141,2527,2879,2719,2543,2348,2394
1068911,-19276,28256,28617,126921,0,0,-14,2,-2,84,-72,-4237,-3,-5,779,2151,2141,2527,2879,2719,2543,2348,2394
1069912,-19276,28276,28682,126986,0,0,-14,4,-2,50,-52,-4228,-6,-6,779,2146,2144,2523,2888,2712,2545,2339,2399
1070913,-19280,28268,28747,127051,0,0,-15,3,0,88,-54,-4233,8,-4,779,2146,2144,2523,2888,2712,2545,2339,2399
1071914,-19280,28256,28812,127116,0,0,-15,5,-1,73,-63,-4255,2,-1,779,2146,2144,2523,2888,2712,2545,2339,2399
1072915,-19276,28276,28877,127181,0,0,-13,2,1,86,-61,-4238,8,-1,779,2146,2144,2523,2888,2712,2545,2339,2399
1073916,-19272,28264,28942,127246,0,0,-13,1,1,82,-58,-4254,-6,6,767,2146,2144,2523,2888,2712,2545,2339,2399
1074917,-19280,28252,29007,127311,0,0,-14,-1,0,111,-64,-4266,10,9,764,2146,2144,2523,2888,2712,2545,2339,2399
1075918,-19280,28268,29072,127376,0,0,-11,2,1,104,-65,-4234,0,6,779,2149,2144,2527,2886,2715,2546,2345,2401
1076919,-19276,28256,29137,127441,0,0,-8,2,-1,79,-54,-4270,10,8,779,2149,2144,2527,2886,2715,2546,2345,2401
1077920,-19276,28264,29202,127506,0,0,-10,3,-2,80,-38,-4239,7,3,780,2149,2144,2527,2886,2715,2546,2345,2401
1078921,-19272,28264,29267,127571,0,0,-12,1,3,109,-57,-4218,4,1,780,2149,2144,2527,2886,2715,2546,2345,2401
1079922,-19268,28268,29332,127636,0,0,-13,1,1,103,-65,-4259,5,4,781,2149,2144,2527,2886,2715,2546,2345,2401
1080923,-19272,28272,29397,127701,0,0,-11,2,-1,93,-61,-4261,3,-5,781,2147,2143,2523,2887,2719,2552,2348,2400
1081924,-19272,28256,29462,127766,0,0,-7,2,0,75,-61,-4265,1,-6,781,2147,2143,2523,2887,2719,2552,2348,2400
1082925,-19272,28268,29527,127831,0,0,-6,3,-1,78,-50,-4270,1,-6,781,2147,2143,2523,2887,2719,2552,2348,2400
1083926,-19276,28264,29592,127896,0,0,-8,1,-1,76,-48,-4273,10,7,782,2147,2143,2523,2887,2719,2552,2348,2400
1084927,-19268,28244,29657,127961,0,0,-9,0,0,89,-57,-4261,4,7,782,2147,2143,2523,2887,2719,2552,2348,2400
1085928,-19272,28248,29722,128026,0,0,-9,1,2,106,-75,-4227,-5,3,783,2147,2143,2523,2887,2719,2552,2348,2400
1086929,-19280,28264,29787,128091,0,0,-7,1,1,81,-43,-4249,9,8,782,2150,2143,2527,2887,2719,2551,2348,2400
1087930,-19272,28264,29852,128156,0,0,-8,2,-1,82,-43,-4255,0,8,782,2150,2143,2527,2887,2719,2551,2348,2400
1088931,-19284,28276,29917,128221,0,0,-10,1,-2,81,-51,-4247,4,6,782,2150,2143,2527,2887,2719,2551,2348,2400
1089932,-19276,28268,29982,128286,0,0,-9,1,-2,77,-60,-4260,7,6,783,2150,2143,2527,2887,2719,2551,2348,2400
1090933,-19268,28272,30047,128351,0,0,-8,1,0,80,-84,-4246,2,-2,772,2150,2143,2527,2887,2719,2551,2348,2400
1091934,-19268,28268,30112,128416,0,0,-9,2,-2,47,-77,-4241,-1,7,765,2151,2147,2529,2890,2717,2547,2349,2402
1092935,-19272,28256,30177,128481,0,0,-10,1,-4,68,-71,-4247,10,9,779,2151,2147,2529,2890,2717,2547,2349,2402
1093936,-19280,28276,30242,128546,0,0,-10,2,-2,86,-80,-4269,0,7,781,2151,2147,2529,2890,2717,2547,2349,2402
1094937,-19268,28264,30307,128611,0,0,-8,3,-2,101,-66,-4262,5,4,781,2151,2147,2529,2890,2717,2547,2349,2402
1095940,-19280,28264,30372,128676,0,0,-9,2,0,69,-74,-4284,10,5,782,2151,2147,2529,2890,2717,2547,2349,2402
1096939,-19276,28268,30437,128741,0,0,-12,2,-1,84,-95,-4246,10,4,781,2150,2148,2530,2891,2718,2549,2345,2400
1097940,-19276,28276,30502,128806,0,0,-10,3,-2,81,-78,-4273,8,-1,781,2150,2148,2530,2891,2718,2549,2345,2400
1098941,-19280,28264,30567,128871,0,0,-10,1,-1,88,-88,-4292,-4,1,781,2150,2148,2530,2891,2718,2549,2345,2400
1099942,-19280,28268,30632,128936,0,0,-9,1,0,92,-74,-4265,-6,-4,781,2150,2148,2530,2891,2718,2549,2345,2400
1100943,-19276,28272,30697,129001,0,0,-10,3,-3,110,-61,-4273,-4,-6,781,2150,2148,2530,2891,2718,2549,2345,2400
1101944,-19268,28264,30762,129066,0,0,-11,3,-2,106,-88,-4264,-6,-5,781,2150,2148,2530,2891,2718,2549,2345,2400
1102945,-19268,28272,30827,129131,0,0,-11,2,0,84,-101,-4231,7,4,781,2154,2146,2530,2890,2716,2547,2344,2396
1103946,-19280,28280,30892,129196,0,0,-10,3,-1,87,-93,-4234,10,6,781,2154,2146,2530,2890,2716,2547,2344,2396
1104947,-19276,28272,30957,129261,0,0,-8,4,-1,58,-81,-4263,8,5,781,2154,2146,2530,2890,2716,2547,2344,2396
1105948,-19280,28268,31022,129326,0,0,-8,3,-2,84,-82,-4224,2,3,781,2154,2146,2530,2890,2716,2547,2344,2396
1106949,-19276,28272,31087,129391,0,0,-9,3,0,101,-80,-4262,-2,1,781,2154,2146,2530,2890,2716,2547,2344,2396
1107950,-19280,28272,31152,129456,0,0,-12,6,0,77,-66,-4221,10,-4,773,2154,2148,2530,2888,2715,2546,2344,2396
1108951,-19276,28268,31217,129521,0,0,-12,5,1,82,-70,-4205,-2,3,762,2154,2148,2530,2888,2715,2546,2344,2396
1109952,-19276,28256,31282,129586,0,0,-13,2,1,87,-63,-4239,-4,9,780,2154,2148,2530,2888,2715,2546,2344,2396
1110953,-19264,28260,31347,129651,0,0,-12,4,1,79,-83,-4229,4,3,780,2154,2148,2530,2888,2715,2546,2344,2396
1111954,-19268,28272,31412,129716,0,0,-12,5,1,75,-64,-4247,10,6,780,2154,2148,2530,2888,2715,2546,2344,2396
1112955,-19268,28260,31477,129781,0,0,-12,4,1,92,-74,-4235,-2,8,781,2154,2148,2530,2888,2715,2546,2344,2396
1113956,-19280,28268,31542,129846,0,0,-11,2,0,86,-75,-4223,-7,8,780,2130,2139,2527,2887,2715,2549,2343,2399
1114957,-19268,28268,31607,129911,0,0,-13,3,-1,82,-60,-4214,-6,3,780,2130,2139,2527,2887,2715,2549,2343,2399
1115958,-19276,28272,31672,129976,0,0,-12,3,1,73,-64,-4262,3,4,780,2130,2139,2527,2887,2715,2549,2343,2399
1116959,-19280,28260,31737,130041,0,0,-10,3,0,89,-56,-4249,10,8,780,2130,2139,2527,2887,2715,2549,2343,2399
