%  Data file recorded 2017/4/24  10:28:28
%  Stride Frequency         = [1, 1]
%  Lead In /Lead Out        = 
%  Deltas (Fractional)      = [0.25, 0.25, 0.25],[0.25, 0.25, 0.25]
%  Phase                    = 32768
%  Experiment.py 
%  Motor Gains    = [100, 0, 100, 0, 0, 100, 0, 100, 0, 0]
% Columns: 
% time | Right Leg Pos | Left Leg Pos | Commanded Right Leg Pos | Commanded Left Leg Pos | DCR | DCL | GyroX | GyroY | GyroZ | AX | AY | AZ | RBEMF | LBEMF | VBatt | S1 | S2 | S3 | S4 | S5 | S6 | S7 | S8
889,11028,-54592,0,0,-295,1407,-15,1,1,121,272,3914,-8,-9,901,1852,1973,2141,2248,2169,1837,1954,2179
1890,11028,-54588,0,0,-270,1307,-15,1,0,120,290,3886,-6,-9,901,1852,1973,2141,2248,2169,1837,1954,2179
2891,11028,-54588,0,0,-270,1332,-13,2,-3,126,288,3890,4,-9,901,1852,1973,2141,2248,2169,1837,1954,2179
3892,11016,-54580,0,0,-194,1282,-12,-1,-2,119,314,3898,4,-7,901,1850,1974,2140,2249,2169,1836,1954,2178
4893,11028,-54588,0,0,-345,1382,-13,-1,0,127,306,3882,4,-5,901,1850,1974,2140,2249,2169,1836,1954,2178
5894,11024,-54580,0,0,-245,1282,-15,0,-2,132,308,3908,4,-5,900,1850,1974,2140,2249,2169,1836,1954,2178
6895,11016,-54580,0,0,-219,1332,-17,-1,-2,151,315,3906,0,2,901,1850,1974,2140,2249,2169,1836,1954,2178
7896,11024,-54576,0,0,-320,1307,-16,-1,0,155,312,3921,-6,3,901,1850,1974,2140,2249,2169,1836,1954,2178
8897,11028,-54588,0,0,-295,1407,-15,0,-1,111,288,3886,-11,4,901,1850,1974,2140,2249,2169,1836,1954,2178
9898,11024,-54580,0,0,-245,1282,-17,1,0,134,286,3898,-4,4,901,1851,1975,2141,2249,2168,1836,1954,2178
10899,11032,-54580,0,0,-320,1332,-17,1,2,122,277,3874,0,4,901,1851,1975,2141,2249,2168,1836,1954,2178
11900,11024,-54584,0,0,-220,1357,-14,-2,1,114,283,3874,5,5,901,1851,1975,2141,2249,2168,1836,1954,2178
12901,11024,-54580,0,0,-270,1307,-12,0,1,99,306,3892,5,4,901,1851,1975,2141,2249,2168,1836,1954,2178
13902,11032,-54592,0,0,-320,1407,-12,0,0,106,297,3881,5,5,901,1851,1975,2141,2249,2168,1836,1954,2178
14903,11036,-54580,0,0,-295,1257,-16,1,4,96,293,3879,-8,3,901,1851,1972,2140,2246,2167,1834,1953,2179
15904,11032,-54576,0,0,-245,1307,-15,1,-1,110,304,3902,-13,5,901,1851,1972,2140,2246,2167,1834,1953,2179
16905,11028,-54580,0,0,-245,1357,-15,-1,-1,125,292,3883,-6,4,901,1851,1972,2140,2246,2167,1834,1953,2179
17906,11020,-54584,0,0,-220,1357,-14,0,2,104,279,3874,5,3,901,1851,1972,2140,2246,2167,1834,1953,2179
18907,11028,-54584,0,0,-320,1332,-13,0,2,105,299,3889,5,4,901,1851,1972,2140,2246,2167,1834,1953,2179
19908,11020,-54580,0,0,-220,1307,-15,0,0,126,298,3907,0,-5,899,1851,1972,2140,2246,2167,1834,1953,2179
20909,11036,-54576,0,0,-370,1307,-15,0,0,120,291,3903,-13,-9,901,1849,1972,2139,2246,2168,1836,1953,2176
21910,11028,-54576,0,0,-220,1332,-16,2,-1,118,288,3903,-2,-5,901,1849,1972,2139,2246,2168,1836,1953,2176
22911,11024,-54584,0,0,-245,1382,-16,2,2,126,304,3897,6,-2,901,1849,1972,2139,2246,2168,1836,1953,2176
23912,11024,-54580,0,0,-270,1307,-15,-1,3,125,298,3906,-8,-2,901,1849,1972,2139,2246,2168,1836,1953,2176
24914,11028,-54580,0,0,-295,1332,-17,-1,2,118,288,3884,-11,3,901,1849,1972,2139,2246,2168,1836,1953,2176
25914,11028,-54576,0,0,-270,1307,-15,3,3,108,272,3893,-13,0,901,1852,1976,2142,2248,2168,1836,1954,2179
26915,11024,-54580,0,0,-245,1357,-15,2,1,104,298,3910,-7,1,901,1852,1976,2142,2248,2168,1836,1954,2179
27916,11016,-54576,0,0,-219,1307,-13,-1,-2,102,302,3922,-3,4,901,1852,1976,2142,2248,2168,1836,1954,2179
28917,11020,-54580,0,0,-295,1357,-13,-1,3,85,294,3920,-1,4,901,1852,1976,2142,2248,2168,1836,1954,2179
29918,11020,-54584,0,0,-270,1357,-12,1,4,80,293,3922,4,4,901,1852,1976,2142,2248,2168,1836,1954,2179
30919,11028,-54592,0,0,-320,1382,-12,2,3,110,283,3900,1,5,901,1852,1976,2142,2248,2168,1836,1954,2179
31920,11028,-54576,0,0,-270,1232,-14,2,1,130,282,3907,-3,4,900,1850,1973,2141,2249,2169,1838,1954,2179
32921,11032,-54580,0,0,-295,1357,-15,0,-2,104,286,3872,-11,2,901,1850,1973,2141,2249,2169,1838,1954,2179
33922,11028,-54592,0,0,-245,1407,-16,-2,-1,94,285,3879,-12,4,901,1850,1973,2141,2249,2169,1838,1954,2179
34923,11024,-54580,0,0,-245,1257,-15,-1,1,122,287,3893,-5,4,901,1850,1973,2141,2249,2169,1838,1954,2179
35924,11020,-54584,0,0,-245,1357,-15,-1,2,144,279,3915,5,4,901,1850,1973,2141,2249,2169,1838,1954,2179
36925,11028,-54580,0,0,-320,1307,-14,-1,2,127,295,3947,-8,-1,899,1850,1974,2141,2248,2168,1836,1954,2178
37926,11028,-54580,0,0,-270,1332,-15,0,0,104,304,3906,-4,4,901,1850,1974,2141,2248,2168,1836,1954,2178
38927,11032,-54592,0,0,-295,1407,-16,-1,-1,110,300,3883,-5,5,901,1850,1974,2141,2248,2168,1836,1954,2178
39928,11024,-54584,0,0,-220,1282,-16,-3,0,110,294,3893,-12,0,901,1850,1974,2141,2248,2168,1836,1954,2178
40929,11032,-54580,0,0,-320,1307,-16,0,-1,92,306,3930,-6,-7,901,1850,1974,2141,2248,2168,1836,1954,2178
41930,11028,-54592,0,0,-245,1407,-15,2,0,104,313,3906,6,-3,901,1850,1974,2141,2248,2168,1836,1954,2178
42931,11024,-54584,0,0,-245,1282,-16,-1,2,93,293,3914,-2,-8,901,1851,1974,2141,2248,2169,1837,1951,2175
43932,11024,-54592,0,0,-270,1382,-15,-1,2,125,316,3907,-11,-8,900,1851,1974,2141,2248,2169,1837,1951,2175
44933,11028,-54576,0,0,-295,1232,-15,-1,0,113,302,3901,-4,-9,901,1851,1974,2141,2248,2169,1837,1951,2175
45934,11032,-54580,0,0,-295,1357,-16,-3,0,129,285,3886,5,-6,901,1851,1974,2141,2248,2169,1837,1951,2175
46935,11020,-54576,0,0,-195,1307,-15,-1,-4,115,285,3914,1,-7,901,1851,1974,2141,2248,2169,1837,1951,2175
47936,11024,-54600,0,0,-295,1483,-14,2,-3,101,307,3913,-12,-1,901,1849,1972,2140,2248,2169,1837,1953,2178
48937,11040,-54580,0,0,-370,1207,-15,2,-1,132,300,3885,-12,3,901,1849,1972,2140,2248,2169,1837,1953,2178
49938,11024,-54580,0,0,-170,1332,-13,1,0,156,276,3894,3,4,901,1849,1972,2140,2248,2169,1837,1953,2178
50939,11024,-54584,0,0,-270,1357,-12,0,1,148,282,3887,2,4,901,1849,1972,2140,2248,2169,1837,1953,2178
51940,11024,-54580,0,0,-270,1307,-14,-1,1,135,302,3891,-3,-3,901,1849,1972,2140,2248,2169,1837,1953,2178
52941,11024,-54580,0,0,-270,1332,-18,0,1,110,322,3926,-12,0,901,1849,1972,2140,2248,2169,1837,1953,2178
53942,11032,-54588,0,0,-320,1382,-17,1,2,114,293,3918,-6,-3,899,1847,1970,2138,2248,2170,1838,1956,2178
54943,11032,-54588,0,0,-270,1332,-15,1,2,141,295,3891,6,3,901,1847,1970,2138,2248,2170,1838,1956,2178
55944,11032,-54580,0,0,-270,1282,-15,0,0,107,305,3885,-6,4,900,1847,1970,2138,2248,2170,1838,1956,2178
56945,11016,-54588,0,0,-169,1382,-13,0,1,95,301,3886,-12,4,901,1847,1970,2138,2248,2170,1838,1956,2178
57946,11024,-54580,0,0,-320,1282,-15,-1,1,103,292,3888,-12,-7,901,1847,1970,2138,2248,2170,1838,1956,2178
58947,11020,-54580,0,0,-245,1332,-15,-4,2,106,295,3899,-12,-9,901,1849,1974,2141,2248,2169,1838,1954,2179
59948,11024,-54576,0,0,-295,1307,-14,-3,1,149,316,3904,-10,-8,900,1849,1974,2141,2248,2169,1838,1954,2179
60949,11028,-54588,0,0,-295,1407,-14,0,0,140,328,3922,-10,-9,901,1849,1974,2141,2248,2169,1838,1954,2179
61950,11032,-54580,0,0,-295,1282,-15,-1,0,133,298,3907,-10,-6,901,1849,1974,2141,2248,2169,1838,1954,2179
62951,11020,-54580,0,0,-195,1332,-15,-1,0,121,296,3914,-1,1,900,1849,1974,2141,2248,2169,1838,1954,2179
63952,11032,-54584,0,0,-345,1357,-17,0,0,125,307,3903,0,-2,901,1849,1974,2141,2248,2169,1838,1954,2179
64953,11028,-54580,0,0,-245,1307,-15,1,2,118,289,3871,3,-4,901,1850,1973,2141,2248,2169,1838,1955,2179
65954,11024,-54572,0,0,-245,1282,-15,0,4,118,302,3893,4,-5,901,1850,1973,2141,2248,2169,1838,1955,2179
66955,11024,-54580,0,0,-270,1382,-14,1,0,145,314,3893,2,-9,901,1850,1973,2141,2248,2169,1838,1955,2179
67956,11028,-54580,0,0,-295,1332,-14,2,-2,142,293,3856,1,-9,900,1850,1973,2141,2248,2169,1838,1955,2179
68957,11024,-54584,0,0,-245,1357,-14,1,-1,111,287,3884,-11,-9,901,1850,1973,2141,2248,2169,1838,1955,2179
69958,11020,-54580,0,0,-245,1307,-15,1,2,111,274,3911,-12,-9,901,1850,1973,2140,2247,2168,1837,1951,2175
70959,11028,-54584,0,0,-320,1357,-14,1,3,123,292,3915,-7,-10,899,1850,1973,2140,2247,2168,1837,1951,2175
71960,11024,-54584,0,0,-245,1332,-15,1,1,103,295,3922,3,0,901,1850,1973,2140,2247,2168,1837,1951,2175
72961,11040,-54584,0,0,-370,1332,-13,1,2,120,284,3915,-12,-1,901,1850,1973,2140,2247,2168,1837,1951,2175
73962,11024,-54576,0,0,-170,1282,-12,0,1,116,273,3890,0,-1,901,1850,1973,2140,2247,2168,1837,1951,2175
74966,11020,-54588,0,0,-245,1407,-12,-1,0,123,292,3867,4,1,901,1850,1973,2140,2247,2168,1837,1951,2175
75964,11040,-54580,0,0,-395,1282,-12,-2,0,117,286,3886,-3,-2,901,1849,1974,2141,2247,2168,1836,1952,2176
76965,11028,-54576,0,0,-195,1307,-15,0,-1,112,307,3887,-12,5,901,1849,1974,2141,2247,2168,1836,1952,2176
77966,11024,-54588,0,0,-245,1407,-15,0,-1,125,305,3884,-3,5,901,1849,1974,2141,2247,2168,1836,1952,2176
78967,11024,-54576,0,0,-270,1257,-13,1,-1,96,287,3885,5,-1,901,1849,1974,2141,2247,2168,1836,1952,2176
79968,11024,-54580,0,0,-270,1357,-15,-1,1,107,300,3905,-5,2,901,1849,1974,2141,2247,2168,1836,1952,2176
80969,11028,-54588,0,0,-295,1382,-15,-1,1,126,320,3885,-11,4,901,1850,1974,2141,2248,2168,1838,1953,2178
81970,11028,-54584,0,0,-270,1307,-14,-2,-1,116,282,3868,-3,1,901,1850,1974,2141,2248,2168,1838,1953,2178
82971,11020,-54580,0,0,-220,1307,-15,-1,-1,123,299,3893,4,5,900,1850,1974,2141,2248,2168,1838,1953,2178
83972,11024,-54584,0,0,-295,1357,-15,-1,1,122,311,3911,5,5,901,1850,1974,2141,2248,2168,1838,1953,2178
84973,11036,-54588,0,0,-345,1357,-12,0,3,108,293,3882,0,5,901,1850,1974,2141,2248,2168,1838,1953,2178
85974,11016,-54588,0,0,-144,1332,-12,3,3,105,297,3870,-7,5,901,1849,1972,2140,2247,2168,1837,1953,2178
86975,11028,-54580,0,0,-345,1282,-13,2,-2,116,276,3875,-13,5,900,1849,1972,2140,2247,2168,1837,1953,2178
87976,11016,-54580,0,0,-194,1332,-14,1,-1,103,270,3863,-12,3,899,1849,1972,2140,2247,2168,1837,1953,2178
88977,11024,-54592,0,0,-320,1407,-15,1,0,121,277,3894,5,3,900,1849,1972,2140,2247,2168,1837,1953,2178
89978,11040,-54584,0,0,-370,1282,-16,2,0,121,276,3895,-12,4,901,1849,1972,2140,2247,2168,1837,1953,2178
90979,11032,-54588,0,0,-220,1357,-14,3,1,135,314,3929,-3,-7,901,1849,1972,2140,2247,2168,1837,1953,2178
91980,11024,-54588,0,0,-220,1332,-13,3,2,105,313,3897,5,-9,901,1850,1974,2141,2249,2168,1837,1953,2178
92981,11028,-54588,0,0,-295,1332,-13,1,2,108,296,3913,-12,-9,901,1850,1974,2141,2249,2168,1837,1953,2178
93982,11036,-54588,0,0,-320,1332,-14,0,1,134,290,3880,-11,-3,900,1850,1974,2141,2249,2168,1837,1953,2178
94983,11032,-54584,0,0,-245,1307,-15,-1,1,108,286,3891,-2,-2,901,1850,1974,2141,2249,2168,1837,1953,2178
95984,11028,-54580,0,0,-245,1307,-15,-1,1,103,304,3908,1,3,901,1850,1974,2141,2249,2168,1837,1953,2178
96985,11032,-54588,0,0,-295,1382,-15,0,1,110,290,3894,-11,1,901,1850,1973,2140,2248,2168,1837,1953,2177
97986,11024,-54576,0,0,-220,1257,-14,0,-2,128,293,3895,-12,-1,901,1850,1973,2140,2248,2168,1837,1953,2177
98987,11012,-54580,0,0,-194,1357,-14,1,1,130,278,3872,4,1,901,1850,1973,2140,2248,2168,1837,1953,2177
99988,11024,-54580,65,65,-281,1396,-14,1,2,119,243,3855,5,-4,900,1850,1973,2140,2248,2168,1837,1953,2177
100989,11024,-54580,130,130,-204,1397,-11,2,2,140,274,3875,5,-4,887,1850,1973,2140,2248,2168,1837,1953,2177
101990,11024,-54564,195,195,-203,1298,-11,9,-3,139,280,3908,-7,10,887,1850,1973,2140,2248,2168,1837,1953,2177
102991,11028,-54528,260,260,-226,1174,-11,6,0,215,285,3865,7,21,875,1850,1972,2140,2247,2167,1821,1951,2177
103992,11040,-54496,325,325,-275,1200,-12,4,9,238,291,3910,7,28,875,1850,1972,2140,2247,2167,1821,1951,2177
104993,11028,-54460,390,390,-123,1176,-17,2,9,166,259,3838,11,34,889,1850,1972,2140,2247,2167,1821,1951,2177
105994,11024,-54384,455,455,-172,925,-18,5,11,187,259,3964,2,24,891,1850,1972,2140,2247,2167,1821,1951,2177
106995,11028,-54312,520,520,-220,950,-14,11,18,193,272,3854,-7,45,883,1850,1972,2140,2247,2167,1821,1951,2177
107996,11020,-54244,585,585,-143,975,-10,13,10,224,277,3916,3,38,879,1832,1953,2140,2247,2168,1836,1948,2168
108997,11028,-54144,650,650,-242,774,-9,13,9,122,328,3824,-3,44,885,1832,1953,2140,2247,2168,1836,1948,2168
109998,11020,-54068,715,715,-140,924,-15,3,4,6,340,3903,0,42,893,1832,1953,2140,2247,2168,1836,1948,2168
110999,11024,-53984,780,780,-214,874,-16,-1,-2,39,319,3876,10,45,894,1832,1953,2140,2247,2168,1836,1948,2168
112000,11032,-53900,845,845,-237,873,-18,2,-3,158,304,3881,-5,56,881,1832,1953,2140,2247,2168,1836,1948,2168
113001,11024,-53792,910,910,-135,722,-17,-5,-4,-105,291,3979,0,61,879,1832,1953,2140,2247,2168,1836,1948,2168
114002,11028,-53668,975,975,-209,621,-11,10,-9,4,247,3894,-6,65,896,1848,1956,2139,2247,2168,1828,1934,2152
115003,11016,-53564,1040,1040,-107,745,-8,2,-3,250,237,3897,-1,62,883,1848,1956,2139,2247,2168,1828,1934,2152
116004,11040,-53440,1105,1105,-331,618,-8,2,4,31,274,3978,11,69,891,1848,1956,2139,2247,2168,1828,1934,2152
117005,11024,-53332,1170,1170,-79,717,-6,-2,1,98,245,3911,11,73,892,1848,1956,2139,2247,2168,1828,1934,2152
118006,11032,-53220,1235,1235,-228,691,-2,8,3,176,320,3902,1,74,896,1848,1956,2139,2247,2168,1828,1934,2152
119007,11024,-53108,1300,1300,-126,690,-8,2,15,163,382,3988,11,78,896,1842,1958,2134,2252,2152,1839,1956,2180
120008,11032,-52976,1365,1365,-225,563,-10,-1,11,152,347,3717,-6,68,889,1842,1958,2134,2252,2152,1839,1956,2180
121009,11028,-52836,1430,1430,-148,511,-13,10,4,75,335,4057,-3,73,883,1842,1958,2134,2252,2152,1839,1956,2180
122010,11032,-52716,1495,1495,-196,635,-20,5,8,256,298,3600,1,80,896,1842,1958,2134,2252,2152,1839,1956,2180
123011,11024,-52560,1560,1560,-120,408,-18,7,7,101,284,4169,4,71,884,1842,1958,2134,2252,2152,1839,1956,2180
124012,11028,-52396,1625,1625,-193,355,-19,20,-7,-85,251,3703,-4,79,892,1842,1958,2134,2252,2152,1839,1956,2180
125013,11032,-52236,1690,1690,-192,378,-15,-6,5,259,255,3984,-2,75,886,1852,1964,2117,2249,2166,1836,1939,2163
126014,11028,-52084,1755,1755,-140,426,-7,6,7,92,272,3817,-3,84,886,1852,1964,2117,2249,2166,1836,1939,2163
127015,11036,-51956,1820,1820,-213,574,-7,-2,0,139,260,3976,11,70,890,1852,1964,2117,2249,2166,1836,1939,2163
128016,11036,-51812,1885,1885,-162,472,-7,11,-8,-3,279,3915,-6,85,883,1852,1964,2117,2249,2166,1836,1939,2163
129017,11036,-51672,1950,1950,-160,496,-19,-2,-7,-85,360,3786,3,84,887,1852,1964,2117,2249,2166,1836,1939,2163
130018,11024,-51528,2015,2015,-83,469,-25,3,-17,156,352,3962,13,75,888,1836,1959,2127,2251,2171,1815,1933,2175
131019,11036,-51404,2080,2080,-232,592,-25,-12,-19,204,268,3820,0,78,894,1836,1959,2127,2251,2171,1815,1933,2175
132020,11032,-51276,2145,2145,-130,566,-23,-22,-19,224,353,3979,8,69,882,1836,1959,2127,2251,2171,1815,1933,2175
133021,11024,-51128,2210,2210,-104,439,-15,-18,-6,-3,279,4007,11,84,890,1836,1959,2127,2251,2171,1815,1933,2175
134022,11024,-50968,2275,2275,-152,361,-17,-3,4,288,329,3810,9,84,894,1836,1959,2127,2251,2171,1815,1933,2175
135023,11020,-50824,2340,2340,-125,459,-13,9,15,127,240,3816,12,79,890,1836,1959,2127,2251,2171,1815,1933,2175
136024,11036,-50688,2405,2405,-249,508,-8,12,23,125,285,4078,0,88,891,1843,1965,2303,2431,2192,1856,1948,2168
137025,11036,-50548,2470,2470,-148,481,-1,14,18,287,230,3717,10,77,896,1843,1965,2303,2431,2192,1856,1948,2168
138026,11024,-50384,2535,2535,-71,328,5,19,17,-109,324,4106,-4,88,898,1843,1965,2303,2431,2192,1856,1948,2168
139027,11032,-50264,2600,2600,-194,602,-6,7,12,55,428,3775,1,82,895,1843,1965,2303,2431,2192,1856,1948,2168
140028,11032,-50096,2665,2665,-143,300,-20,-8,2,6,403,3875,-6,87,885,1843,1965,2303,2431,2192,1856,1948,2168
141029,11024,-49920,2730,2730,-91,247,-32,-17,-8,-149,332,3726,11,79,890,1848,1972,2140,2248,2165,1838,1953,2166
142030,11040,-49756,2795,2795,-240,319,-35,-11,-3,205,327,3925,13,89,895,1848,1972,2140,2248,2165,1838,1953,2166
143031,11036,-49612,2860,2860,-113,443,-27,-8,4,152,162,3938,-6,80,896,1848,1972,2140,2248,2165,1838,1953,2166
144032,11036,-49448,2925,2925,-137,315,-19,-1,-6,73,180,3983,10,85,898,1848,1972,2140,2248,2165,1838,1953,2166
145033,11024,-49292,2990,2990,-60,363,-15,1,-8,343,208,4030,-6,82,891,1848,1972,2140,2248,2165,1838,1953,2166
146034,11036,-49140,3055,3055,-208,386,-12,-9,-2,177,242,3689,-6,79,899,1848,1972,2140,2248,2165,1838,1953,2166
147035,11036,-49000,3120,3120,-132,459,-13,0,-5,42,381,4135,6,83,885,1850,1972,2142,2250,2172,1842,1956,2180
148036,11036,-48848,3185,3185,-130,382,-18,2,-7,70,335,3739,9,94,890,1850,1972,2142,2250,2172,1842,1956,2180
149037,11028,-48696,3250,3250,-78,380,-19,10,-4,222,285,3786,13,82,892,1850,1972,2142,2250,2172,1842,1956,2180
150038,11024,-48516,3315,3315,-102,202,-17,9,0,544,305,4063,11,87,897,1850,1972,2142,2250,2172,1842,1956,2180
151039,11028,-48356,3380,3380,-150,325,-7,14,6,159,258,3870,11,81,895,1850,1972,2142,2250,2172,1842,1956,2180
152040,11032,-48196,3445,3445,-149,322,-4,26,9,156,250,3967,6,74,890,1837,1974,2141,2248,2168,1838,1953,2176
153041,11024,-48028,3510,3510,-72,270,-5,19,11,254,328,3765,10,90,891,1837,1974,2141,2248,2168,1838,1953,2176
154042,11024,-47896,3575,3575,-120,493,-6,7,15,-160,396,4157,6,80,898,1837,1974,2141,2248,2168,1838,1953,2176
155043,11028,-47716,3640,3640,-144,190,-11,4,16,-406,377,3660,-6,87,892,1837,1974,2141,2248,2168,1838,1953,2176
156044,11032,-47576,3705,3705,-142,438,-15,0,6,-135,313,3972,7,82,890,1837,1974,2141,2248,2168,1838,1953,2176
157045,11032,-47408,3770,3770,-116,261,-23,-13,-5,-46,342,3918,-2,92,890,1837,1974,2141,2248,2168,1838,1953,2176
158046,11028,-47240,3835,3835,-89,258,-20,-22,-3,-39,290,3918,-5,76,893,1852,1974,2142,2250,2166,1835,1951,2176
159047,11032,-47076,3900,3900,-138,281,-21,-28,-5,201,295,3767,12,76,896,1852,1974,2142,2250,2166,1835,1951,2176
160048,11024,-46916,3965,3965,-61,304,-20,-4,-6,256,295,4199,8,80,892,1852,1974,2142,2250,2166,1835,1951,2176
161049,11032,-46744,4030,4030,-159,226,-25,-4,-4,241,207,3685,7,84,899,1852,1974,2142,2250,2166,1835,1951,2176
162050,11032,-46596,4095,4095,-108,374,-17,-1,-3,526,225,3974,-5,82,890,1852,1974,2142,2250,2166,1835,1951,2176
163051,11028,-46432,4160,4160,-81,272,-8,9,-6,307,270,3920,11,87,894,1849,1972,2139,2243,2165,1836,1951,2174
164052,11036,-46284,4225,4225,-155,370,-10,-1,-2,-218,328,3914,0,85,897,1849,1972,2139,2243,2165,1836,1951,2174
165053,11036,-46124,4290,4290,-103,292,-16,10,0,504,368,3746,5,80,890,1849,1972,2139,2243,2165,1836,1951,2174
166054,11044,-45940,4355,4355,-152,139,-23,1,1,136,316,3977,11,86,894,1849,1972,2139,2243,2165,1836,1951,2174
167055,11024,-45768,4420,4420,25,212,-20,7,-3,183,277,3687,-3,84,891,1849,1972,2139,2243,2165,1836,1951,2174
168056,11048,-45620,4485,4485,-249,360,-17,21,11,549,291,4086,10,79,899,1849,1972,2139,2243,2165,1836,1951,2174
169057,11036,-45496,4550,4550,-22,508,-11,18,4,-136,290,3829,-5,84,898,1849,1972,2138,2244,2169,1840,1954,2176
170058,11044,-45352,4615,4615,-145,381,-11,5,11,0,267,3933,3,76,898,1849,1972,2138,2244,2169,1840,1954,2176
171059,11040,-45192,4680,4680,-69,279,-2,2,1,-119,313,3861,-1,74,891,1849,1972,2138,2244,2169,1840,1954,2176
172060,11036,-45032,4745,4745,-67,277,-5,-1,6,-309,262,3894,11,81,898,1849,1972,2138,2244,2169,1840,1954,2176
173061,11028,-44892,4810,4810,-40,400,-9,-11,3,167,377,3885,4,83,897,1849,1972,2138,2244,2169,1840,1954,2176
174062,11040,-44728,4875,4875,-164,248,-15,-7,12,-97,364,3895,12,85,899,1846,1970,2139,2191,2111,1839,1953,2175
175063,11040,-44572,4940,4940,-87,295,-17,-19,-2,143,361,3892,10,69,890,1846,1970,2139,2191,2111,1839,1953,2175
176064,11032,-44372,5005,5005,-36,17,-22,-5,-4,242,263,3909,3,77,895,1846,1970,2139,2191,2111,1839,1953,2175
177065,11044,-44228,5070,5070,-159,365,-17,2,-8,104,272,3791,-2,80,900,1846,1970,2139,2191,2111,1839,1953,2175
178066,11032,-44060,5135,5135,-7,213,-12,1,-11,343,301,3994,-3,70,891,1846,1970,2139,2191,2111,1839,1953,2175
179067,11040,-43920,5200,5200,-131,386,-12,-5,-11,186,275,3819,12,75,899,1846,1970,2139,2191,2111,1839,1953,2175
180068,11036,-43748,5265,5265,-54,183,-18,-4,-5,328,345,3994,-7,74,892,1848,1970,2140,2249,2166,1839,1952,2174
181069,11040,-43604,5330,5330,-103,356,-26,-8,1,180,324,3734,-7,78,899,1848,1970,2140,2249,2166,1839,1952,2174
182070,11040,-43468,5395,5395,-76,404,-27,-2,6,195,272,4028,-7,67,895,1848,1970,2140,2249,2166,1839,1952,2174
183071,11044,-43332,5460,5460,-100,403,-21,5,7,242,252,3772,-7,79,897,1848,1970,2140,2249,2166,1839,1952,2174
184072,11036,-43168,5525,5525,-23,225,-16,16,12,266,197,3957,-2,65,895,1848,1970,2140,2249,2166,1839,1952,2174
185073,11040,-43020,5590,5590,-97,323,-7,13,7,101,220,4028,-4,80,899,1849,1972,2140,2246,2167,1838,1952,2177
186074,11040,-42840,5655,5655,-70,120,-8,6,3,84,241,3900,-7,68,895,1849,1972,2140,2246,2167,1838,1952,2177
187075,11040,-42696,5720,5720,-68,344,-5,12,13,260,271,3927,-1,71,898,1849,1972,2140,2246,2167,1838,1952,2177
188076,11044,-42532,5785,5785,-92,216,-8,6,10,-89,372,3894,7,71,898,1849,1972,2140,2246,2167,1838,1952,2177
189077,11036,-42388,5850,5850,-15,339,-9,4,2,-176,314,3940,11,70,897,1849,1972,2140,2246,2167,1838,1952,2177
190078,11040,-42232,5915,5915,-89,262,-14,2,6,-73,314,3884,9,77,897,1849,1972,2140,2246,2167,1838,1952,2177
191079,11048,-42076,5980,5980,-112,260,-15,-2,6,-58,301,3964,-5,77,896,1848,1972,2140,2247,2167,1837,1952,2176
192080,11036,-41944,6045,6045,15,408,-13,-3,2,-148,332,3929,10,76,894,1848,1972,2140,2247,2167,1837,1952,2176
193081,11040,-41780,6110,6110,-84,206,-13,-11,-4,76,369,3835,-7,77,898,1848,1972,2140,2247,2167,1837,1952,2176
194082,11036,-41644,6175,6175,-32,379,-17,-18,-8,90,371,3883,10,67,897,1848,1972,2140,2247,2167,1837,1952,2176
195083,11048,-41476,6240,6240,-131,176,-21,-15,-12,172,347,3933,-7,76,899,1848,1972,2140,2247,2167,1837,1952,2176
196084,11044,-41300,6305,6305,-29,124,-25,-7,-20,252,312,3772,4,67,893,1848,1972,2139,2247,2165,1835,1951,2179
197085,11040,-41180,6370,6370,-28,472,-24,-9,-13,358,244,3898,6,76,899,1848,1972,2139,2247,2165,1835,1951,2179
198086,11044,-41044,6435,6435,-76,371,-15,0,-4,473,259,3851,-6,73,899,1848,1972,2139,2247,2165,1835,1951,2179
199087,11040,-40932,6500,6500,-24,520,-10,5,4,376,289,4167,-5,68,897,1848,1972,2139,2247,2165,1835,1951,2179
200089,11048,-40776,6565,6565,-98,242,-13,12,14,-228,181,3635,7,79,898,1848,1972,2139,2247,2165,1835,1951,2179
201089,11044,-40644,6630,6630,-21,391,-5,0,25,366,244,4060,11,61,895,1848,1972,2139,2247,2165,1835,1951,2179
202090,11052,-40468,6695,6695,-95,113,-5,10,24,144,298,3904,9,69,899,1849,1973,2140,2246,2169,1840,1954,2179
203091,11044,-40328,6760,6760,7,336,-13,4,14,74,380,3810,-6,62,897,1849,1973,2140,2246,2169,1840,1954,2179
204092,11040,-40168,6825,6825,-16,209,-21,3,-1,79,282,3814,11,75,899,1849,1973,2140,2246,2169,1840,1954,2179
205093,11048,-40008,6890,6890,-90,206,-19,9,-22,-19,301,4171,-5,74,900,1849,1973,2140,2246,2169,1840,1954,2179
206094,11056,-39872,6955,6955,-89,355,-16,-2,-24,-30,173,3723,1,70,897,1849,1973,2140,2246,2169,1840,1954,2179
207095,11044,-39724,7020,7020,38,278,-5,10,-16,209,258,3988,-7,74,895,1847,1970,2139,2247,2172,1844,1956,2177
208096,11052,-39572,7085,7085,-85,251,-4,0,-2,-151,295,3995,2,67,899,1847,1970,2139,2247,2172,1844,1956,2177
209097,11040,-39436,7150,7150,42,349,-11,-5,2,139,366,3794,-3,71,897,1847,1970,2139,2247,2172,1844,1956,2177
210098,11052,-39300,7215,7215,-107,347,-12,6,16,70,305,3792,-4,54,899,1847,1970,2139,2247,2172,1844,1956,2177
211099,11044,-39164,7280,7280,20,345,-19,-8,20,254,488,4042,-3,64,894,1847,1970,2139,2247,2172,1844,1956,2177
212100,11040,-39020,7345,7345,-4,293,-27,-12,18,-15,369,3782,-1,73,899,1847,1970,2139,2247,2172,1844,1956,2177
213101,11048,-38904,7410,7410,-77,467,-29,-12,8,111,330,3925,-4,60,900,1850,1973,2142,2252,2166,1838,1955,2179
214102,11048,-38764,7475,7475,-26,315,-24,-5,-4,186,252,3916,10,70,897,1850,1973,2142,2252,2166,1838,1955,2179
215103,11040,-38640,7540,7540,26,414,-19,-4,-10,-14,232,4046,2,67,899,1850,1973,2142,2252,2166,1838,1955,2179
216104,11048,-38504,7605,7605,-73,337,-10,-2,-20,188,176,3772,10,62,899,1850,1973,2142,2252,2166,1838,1955,2179
217105,11044,-38340,7670,7670,4,160,2,-2,-10,-19,143,4108,7,66,897,1850,1973,2142,2252,2166,1838,1955,2179
218106,11056,-38196,7735,7735,-95,283,2,5,-1,-91,289,3896,9,64,900,1850,1972,2144,2248,2168,1840,1952,2176
219107,11056,-38040,7800,7800,-18,206,-6,1,8,60,247,3865,-7,68,895,1850,1972,2144,2248,2168,1840,1952,2176
220108,11048,-37916,7865,7865,34,404,-10,-6,7,289,352,3824,-5,57,899,1850,1972,2144,2248,2168,1840,1952,2176
221109,11048,-37776,7930,7930,-15,302,-17,6,1,417,339,3923,-2,58,899,1850,1972,2144,2248,2168,1840,1952,2176
222110,11048,-37632,7995,7995,-13,275,-17,15,-6,557,347,3816,-2,60,900,1850,1972,2144,2248,2168,1840,1952,2176
223111,11052,-37504,8060,8060,-37,374,-21,5,-2,245,307,3963,5,66,900,1850,1972,2144,2248,2168,1840,1952,2176
224112,11052,-37392,8125,8125,-10,473,-15,15,3,153,365,4002,-8,70,898,1850,1973,2140,2247,2166,1838,1951,2176
225113,11048,-37280,8190,8190,17,472,-19,14,9,131,358,3813,-4,56,898,1850,1973,2140,2247,2166,1838,1951,2176
226114,11048,-37148,8255,8255,-7,345,-21,10,19,48,318,3905,-6,60,899,1850,1973,2140,2247,2166,1838,1951,2176
227115,11052,-36996,8320,8320,-30,218,-23,0,25,-141,285,3904,-4,56,899,1850,1973,2140,2247,2166,1838,1951,2176
228116,11052,-36856,8385,8385,-4,291,-22,1,23,-231,288,3997,10,59,900,1850,1973,2140,2247,2166,1838,1951,2176
229117,11044,-36736,8450,8450,48,415,-24,-8,17,-159,289,3749,-2,61,900,1848,1972,2139,2246,2168,1838,1952,2178
230118,11052,-36616,8515,8515,-50,413,-20,-15,1,-42,273,4037,10,65,899,1848,1972,2139,2246,2168,1838,1952,2178
231119,11056,-36480,8580,8580,-24,312,-17,-23,-8,-148,298,3923,7,58,899,1848,1972,2139,2246,2168,1838,1952,2178
232120,11052,-36356,8645,8645,28,385,-23,-22,-8,221,325,3785,-7,53,899,1848,1972,2139,2246,2168,1838,1952,2178
233121,11056,-36224,8710,8710,-21,334,-26,-25,-2,187,298,3890,-4,56,899,1848,1972,2139,2246,2168,1838,1952,2178
234122,11052,-36096,8775,8775,31,357,-27,-21,-2,-33,391,4003,6,67,899,1848,1972,2139,2246,2168,1838,1952,2178
235123,11048,-35980,8840,8840,33,431,-29,-23,-1,291,316,3812,-4,55,899,1847,1972,2141,2246,2171,1841,1955,2181
236124,11048,-35864,8905,8905,9,429,-31,-14,-3,535,266,3869,-6,67,899,1847,1972,2141,2246,2171,1841,1955,2181
237125,11040,-35732,8970,8970,61,328,-21,1,-4,535,238,3884,-5,56,899,1847,1972,2141,2246,2171,1841,1955,2181
238126,11052,-35608,9035,9035,-63,376,-14,15,3,579,243,3943,3,64,899,1847,1972,2141,2246,2171,1841,1955,2181
239127,11068,-35464,9100,9100,-87,249,-6,30,9,521,193,3881,9,53,899,1847,1972,2141,2246,2171,1841,1955,2181
240128,11052,-35336,9165,9165,115,348,0,31,10,323,230,3976,9,60,898,1848,1971,2140,2246,2170,1841,1954,2176
241129,11048,-35216,9230,9230,42,397,2,26,15,2,225,3958,7,63,896,1848,1971,2140,2246,2170,1841,1954,2176
242130,11044,-35092,9295,9295,44,370,1,24,9,-228,354,4048,8,50,899,1848,1971,2140,2246,2170,1841,1954,2176
243131,11056,-34960,9360,9360,-55,319,-7,9,-2,-351,365,3758,-3,51,899,1848,1971,2140,2246,2170,1841,1954,2176
244132,11056,-34848,9425,9425,22,442,-12,2,1,-124,293,3909,3,55,899,1848,1971,2140,2246,2170,1841,1954,2176
245133,11052,-34748,9490,9490,48,517,-18,-16,4,-120,281,3882,-3,63,899,1848,1971,2140,2246,2170,1841,1954,2176
246134,11052,-34620,9555,9555,25,340,-14,-15,9,-225,285,3980,-4,57,899,1847,1971,2138,2250,2163,1836,1950,2169
247135,11052,-34504,9620,9620,27,414,-17,-15,4,-70,329,3870,1,61,899,1847,1971,2138,2250,2163,1836,1950,2169
248136,11056,-34384,9685,9685,3,387,-20,-14,0,177,293,3917,0,51,899,1847,1971,2138,2250,2163,1836,1950,2169
249137,11056,-34272,9750,9750,30,436,-13,5,-2,341,291,3857,-4,57,899,1847,1971,2138,2250,2163,1836,1950,2169
250138,11052,-34152,9815,9815,56,385,-9,-2,-12,363,360,3984,2,61,899,1847,1971,2138,2250,2163,1836,1950,2169
251139,11052,-34032,9880,9880,33,384,-12,0,-14,290,317,3754,10,63,899,1851,1975,2141,2251,2161,1835,1951,2175
252140,11056,-33920,9945,9945,9,432,-10,5,-15,409,303,4026,9,47,899,1851,1975,2141,2251,2161,1835,1951,2175
253141,11056,-33792,10010,10010,36,331,-11,14,-3,387,282,3784,-7,60,899,1851,1975,2141,2251,2161,1835,1951,2175
254142,11052,-33660,10075,10075,63,304,-12,6,8,252,347,3927,-1,60,899,1851,1975,2141,2251,2161,1835,1951,2175
255143,11064,-33552,10140,10140,-36,453,-15,17,16,111,331,3885,3,59,900,1851,1975,2141,2251,2161,1835,1951,2175
256144,11052,-33444,10205,10205,116,452,-18,5,21,179,242,3869,3,62,899,1851,1975,2141,2251,2161,1835,1951,2175
257145,11052,-33348,10270,10270,42,526,-15,10,22,35,286,3955,10,61,898,1850,1974,2144,2246,2165,1838,1951,2178
258146,11056,-33216,10335,10335,19,300,-16,12,7,-118,273,3893,10,55,897,1850,1974,2144,2246,2165,1838,1951,2178
259147,11056,-33108,10400,10400,45,449,-15,-3,3,-49,253,3918,4,68,899,1850,1974,2144,2246,2165,1838,1951,2178
260148,11060,-32980,10465,10465,22,322,-13,-2,-4,12,287,3877,0,66,899,1850,1974,2144,2246,2165,1838,1951,2178
261149,11052,-32868,10530,10530,99,421,-10,-6,-8,-108,239,3979,-8,63,899,1850,1974,2144,2246,2165,1838,1951,2178
262150,11052,-32748,10595,10595,50,370,-4,-3,-15,55,319,3862,10,63,898,1847,1971,2141,2245,2170,1841,1953,2177
263151,11060,-32612,10660,10660,2,268,-5,0,-10,-69,317,3935,3,62,899,1847,1971,2141,2245,2170,1841,1953,2177
264152,11060,-32488,10725,10725,53,342,-10,-3,2,243,323,3786,9,60,900,1847,1971,2141,2245,2170,1841,1953,2177
265153,11060,-32380,10790,10790,55,440,-13,1,7,100,347,3918,4,55,899,1847,1971,2141,2245,2170,1841,1953,2177
266154,11060,-32256,10855,10855,56,339,-15,-6,14,176,350,3825,10,67,899,1847,1971,2141,2245,2170,1841,1953,2177
267155,11060,-32144,10920,10920,58,413,-22,6,7,287,431,3941,8,62,899,1847,1971,2141,2245,2170,1841,1953,2177
268156,11072,-32012,10985,10985,-16,286,-28,-1,-1,41,406,3843,9,63,899,1849,1974,2141,2248,2167,1839,1953,2176
269157,11056,-31896,11050,11050,161,385,-31,-12,-7,269,363,3845,4,66,899,1849,1974,2141,2248,2167,1839,1953,2176
270158,11060,-31772,11115,11115,38,334,-34,-11,-2,-14,251,3908,-7,58,899,1849,1974,2141,2248,2167,1839,1953,2176
271159,11060,-31664,11180,11180,64,432,-26,-5,1,-22,209,3840,5,61,899,1849,1974,2141,2248,2167,1839,1953,2176
272160,11060,-31548,11245,11245,66,381,-22,-5,6,106,194,3935,10,50,899,1849,1974,2141,2248,2167,1839,1953,2176
273161,11052,-31412,11310,11310,118,255,-21,-1,6,207,213,3896,4,63,899,1846,1970,2138,2246,2168,1840,1952,2176
274162,11052,-31296,11375,11375,69,378,-12,-4,-10,111,227,3962,2,66,899,1846,1970,2138,2246,2168,1840,1952,2176
275163,11052,-31188,11440,11440,71,427,-8,-4,-11,121,229,3873,10,55,897,1846,1970,2138,2246,2168,1840,1952,2176
276164,11056,-31084,11505,11505,47,451,-5,2,-2,257,228,3849,6,65,898,1846,1970,2138,2246,2168,1840,1952,2176
277165,11056,-30972,11570,11570,74,400,-2,8,7,52,238,3916,-6,69,899,1846,1970,2138,2246,2168,1840,1952,2176
278166,11060,-30828,11635,11635,51,198,-4,6,18,209,333,3946,8,54,899,1846,1970,2138,2246,2168,1840,1952,2176
279167,11052,-30700,11700,11700,127,297,-15,-5,20,45,354,3793,2,51,899,1847,1970,2138,2247,2161,1836,1949,2171
280168,11064,-30604,11765,11765,4,496,-21,-3,11,90,408,3957,0,66,899,1847,1970,2138,2247,2161,1836,1949,2171
281169,11064,-30492,11830,11830,80,395,-27,0,-5,53,374,3802,-8,53,899,1847,1970,2138,2247,2161,1836,1949,2171
282170,11064,-30364,11895,11895,82,293,-30,-13,-13,93,313,3947,1,54,899,1847,1970,2138,2247,2161,1836,1949,2171
283171,11064,-30236,11960,11960,83,292,-22,-8,-24,51,242,3801,10,63,899,1847,1970,2138,2247,2161,1836,1949,2171
284172,11052,-30124,12025,12025,160,391,-10,-3,-18,-31,170,3996,9,64,899,1850,1975,2141,2249,2166,1839,1952,2176
285173,11080,-30008,12090,12090,-89,364,-3,8,-4,254,217,3919,-1,52,899,1850,1975,2141,2249,2166,1839,1952,2176
286174,11060,-29896,12155,12155,213,388,4,16,2,157,278,3880,-7,54,897,1850,1975,2141,2249,2166,1839,1952,2176
287175,11060,-29788,12220,12220,90,412,0,2,13,145,267,3917,-6,54,897,1850,1975,2141,2249,2166,1839,1952,2176
288176,11056,-29668,12285,12285,117,336,-4,10,12,204,369,3900,10,63,898,1850,1975,2141,2249,2166,1839,1952,2176
289177,11064,-29540,12350,12350,43,284,-12,4,17,177,397,3816,1,64,899,1850,1975,2141,2249,2166,1839,1952,2176
290178,11060,-29436,12415,12415,120,433,-21,7,15,176,419,3876,-7,66,899,1850,1975,2142,2249,2165,1839,1953,2180
291179,11056,-29316,12480,12480,121,332,-25,7,1,170,294,3898,4,58,899,1850,1975,2142,2249,2165,1839,1953,2180
292180,11072,-29196,12545,12545,-3,331,-19,-8,-4,78,249,3869,5,65,897,1850,1975,2142,2249,2165,1839,1953,2180
293181,11060,-29104,12610,12610,174,505,-17,0,-15,-104,297,3918,-7,63,899,1850,1975,2142,2249,2165,1839,1953,2180
294182,11064,-28988,12675,12675,76,354,-12,-11,-20,-45,142,3830,-6,69,898,1850,1975,2142,2249,2165,1839,1953,2180
295183,11068,-28860,12740,12740,77,277,-5,0,-11,452,247,4043,8,61,898,1848,1972,2139,2246,2169,1840,1952,2176
296184,11068,-28768,12805,12805,104,501,-6,-5,-9,-146,265,3919,10,58,899,1848,1972,2139,2246,2169,1840,1952,2176
297185,11068,-28640,12870,12870,105,275,-8,-2,-2,-107,294,3837,11,69,899,1848,1972,2139,2246,2169,1840,1952,2176
298186,11072,-28528,12935,12935,82,374,-15,-9,13,429,349,3865,11,72,899,1848,1972,2139,2246,2169,1840,1952,2176
299187,11056,-28404,13000,13000,209,297,-19,-3,20,132,395,3824,11,60,899,1848,1972,2139,2246,2169,1840,1952,2176
300189,11064,-28268,13065,13065,60,221,-26,-3,8,25,403,3881,-6,60,899,1848,1972,2139,2246,2169,1840,1952,2176
301189,11072,-28148,13130,13130,62,319,-33,0,-8,263,402,3814,11,71,899,1848,1973,2138,2247,2167,1840,1953,2177
302190,11072,-28052,13195,13195,113,469,-28,2,-10,195,247,3996,11,62,900,1848,1973,2138,2247,2167,1840,1953,2177
303191,11068,-27940,13260,13260,140,367,-17,4,-9,237,268,3894,11,61,899,1848,1973,2138,2247,2167,1840,1953,2177
304192,11060,-27824,13325,13325,167,341,-9,9,-7,0,194,3901,-6,60,898,1848,1973,2138,2247,2167,1840,1953,2177
305193,11064,-27696,13390,13390,93,265,-7,4,-3,183,267,3922,7,62,899,1848,1973,2138,2247,2167,1840,1953,2177
306194,11068,-27576,13455,13455,95,313,-5,-5,3,7,254,3913,12,74,899,1846,1969,2136,2245,2164,1839,1951,2173
307195,11076,-27464,13520,13520,71,362,-12,7,1,-44,351,4000,12,62,899,1846,1969,2136,2245,2164,1839,1951,2173
308196,11068,-27332,13585,13585,173,235,-24,-9,5,-133,296,3808,11,69,899,1846,1969,2136,2245,2164,1839,1951,2173
309197,11080,-27168,13650,13650,49,33,-25,-11,9,99,289,3964,-4,62,898,1846,1969,2136,2245,2164,1839,1951,2173
310198,11072,-27044,13715,13715,176,282,-22,-9,5,-5,293,3895,4,68,900,1846,1969,2136,2245,2164,1839,1951,2173
311199,11080,-26936,13780,13780,77,381,-22,-13,-3,55,318,3842,1,77,900,1849,1973,2139,2249,2165,1838,1951,2174
312200,11084,-26800,13845,13845,104,204,-21,-6,-6,119,296,3945,8,62,899,1849,1973,2139,2249,2165,1838,1951,2174
313201,11080,-26684,13910,13910,156,328,-19,-5,-12,419,295,3793,7,62,899,1849,1973,2139,2249,2165,1838,1951,2174
314202,11080,-26556,13975,13975,132,251,-17,-3,-14,444,303,4045,12,76,899,1849,1973,2139,2249,2165,1838,1951,2174
315203,11080,-26444,14040,14040,134,350,-19,-8,-9,186,339,3831,1,75,899,1849,1973,2139,2249,2165,1838,1951,2174
316204,11076,-26320,14105,14105,160,273,-21,0,-3,248,290,3893,4,61,899,1849,1973,2139,2249,2165,1838,1951,2174
317205,11080,-26208,14170,14170,112,347,-21,6,-3,179,329,4001,7,77,899,1849,1975,2143,2253,2167,1840,1953,2178
318206,11088,-26088,14235,14235,88,296,-17,5,9,-218,247,3909,12,71,899,1849,1975,2143,2253,2167,1840,1953,2178
319207,11088,-25948,14300,14300,140,169,-9,7,9,80,264,3873,11,79,899,1849,1975,2143,2253,2167,1840,1953,2178
320208,11096,-25808,14365,14365,91,167,-4,3,5,-86,272,4069,-5,77,899,1849,1975,2143,2253,2167,1840,1953,2178
321209,11092,-25696,14430,14430,168,341,-6,-9,-6,-91,312,3790,9,73,900,1849,1975,2143,2253,2167,1840,1953,2178
322210,11096,-25568,14495,14495,119,240,-15,-6,-9,549,333,3780,13,65,900,1850,1974,2141,2249,2167,1841,1953,2179
323211,11096,-25436,14560,14560,146,213,-25,0,-7,478,406,3890,11,71,899,1850,1974,2141,2249,2167,1841,1953,2179
324212,11108,-25308,14625,14625,72,236,-30,-4,-12,-246,407,3881,-2,69,899,1850,1974,2141,2249,2167,1841,1953,2179
325213,11116,-25192,14690,14690,99,310,-29,-13,-6,-95,250,3925,8,63,899,1850,1974,2141,2249,2167,1841,1953,2179
326214,11108,-25088,14755,14755,201,384,-19,-13,3,370,212,3986,9,73,898,1850,1974,2141,2249,2167,1841,1953,2179
327217,11124,-24960,14820,14820,52,233,-11,-2,10,35,252,3872,-5,70,898,1850,1974,2141,2249,2167,1841,1953,2179
328216,11128,-24828,14885,14885,128,206,-11,4,11,71,320,3797,13,64,898,1848,1971,2138,2244,2169,1842,1953,2179
329217,11128,-24700,14950,14950,155,230,-16,-4,3,273,317,3946,3,76,900,1848,1971,2138,2244,2169,1842,1953,2179
330218,11140,-24564,15015,15015,81,178,-20,-1,-10,242,348,3907,-4,67,900,1848,1971,2138,2244,2169,1842,1953,2179
331219,11132,-24440,15080,15080,208,251,-26,-3,-5,390,308,3728,13,73,899,1848,1971,2138,2244,2169,1842,1953,2179
332220,11128,-24328,15145,15145,185,325,-24,11,-6,234,295,3988,-1,66,900,1848,1971,2138,2244,2169,1842,1953,2179
333221,11148,-24232,15210,15210,36,424,-20,3,0,-16,257,3922,-2,78,899,1847,1972,2139,2244,2167,1841,1955,2180
334222,11156,-24092,15275,15275,112,148,-10,1,0,107,244,3870,2,82,899,1847,1972,2139,2244,2167,1841,1955,2180
335223,11144,-23936,15340,15340,239,45,0,6,8,1,211,3882,13,80,899,1847,1972,2139,2244,2167,1841,1955,2180
336224,11148,-23796,15405,15405,140,144,1,5,2,-194,325,4021,-1,74,900,1847,1972,2139,2244,2167,1841,1955,2180
337225,11156,-23664,15470,15470,117,192,-4,0,-1,52,351,3691,-4,79,900,1847,1972,2139,2244,2167,1841,1955,2180
338226,11164,-23560,15535,15535,118,366,-13,-4,-5,266,417,3970,10,68,900,1847,1972,2139,2244,2167,1841,1955,2180
339227,11168,-23456,15600,15600,145,365,-26,-16,-24,-43,394,3886,13,68,900,1846,1969,2136,2244,2163,1836,1950,2174
340228,11176,-23320,15665,15665,121,163,-29,-1,-15,230,279,3834,-3,68,899,1846,1969,2136,2244,2163,1836,1950,2174
341229,11184,-23204,15730,15730,122,287,-21,9,-6,484,209,3905,15,80,898,1846,1969,2136,2244,2163,1836,1950,2174
342230,11188,-23100,15795,15795,149,361,-9,7,-1,-324,202,4144,14,82,900,1846,1969,2136,2244,2163,1836,1950,2174
343231,11188,-22952,15860,15860,176,84,0,-6,11,4,281,3796,1,69,897,1846,1969,2136,2244,2163,1836,1950,2174
344232,11200,-22824,15925,15925,102,208,2,5,19,166,309,3781,8,73,898,1852,1976,2142,2250,2163,1838,1952,2176
345233,11212,-22652,15990,15990,103,-70,-7,-6,14,7,374,4025,13,85,900,1852,1976,2142,2250,2163,1838,1952,2176
346234,11216,-22484,16055,16055,155,-48,-17,-10,3,-69,340,3756,9,64,900,1852,1976,2142,2250,2163,1838,1952,2176
347235,11216,-22328,16120,16120,181,25,-20,-19,-1,248,299,3853,-1,75,900,1852,1976,2142,2250,2163,1838,1952,2176
348236,11228,-22228,16185,16185,108,374,-17,-3,-6,81,300,3966,11,70,900,1852,1976,2142,2250,2163,1838,1952,2176
349237,11240,-22136,16384,16384,456,771,-17,2,-6,198,294,3837,7,69,900,1852,1976,2142,2250,2163,1838,1952,2176
350238,11248,-22000,16449,16449,482,494,-16,10,-2,768,250,3761,1,78,899,1854,1976,2143,2251,2166,1841,1951,2175
351239,11264,-21848,16514,16514,434,392,-7,18,11,782,265,4034,4,71,894,1854,1976,2143,2251,2166,1841,1951,2175
352240,11276,-21700,16579,16579,460,415,-6,2,8,35,314,4029,10,79,895,1854,1976,2143,2251,2166,1841,1951,2175
353241,11308,-21608,16644,16644,336,764,-14,15,6,-353,262,3791,21,80,897,1854,1976,2143,2251,2166,1841,1951,2175
354242,11332,-21468,16709,16709,387,463,-17,18,5,-80,321,3986,26,84,896,1854,1976,2143,2251,2166,1841,1951,2175
355243,11348,-21304,16774,16774,438,310,-19,17,-5,-57,279,3687,25,94,895,1849,1972,2140,2248,2168,1840,1950,2175
356244,11392,-21164,16839,16839,263,458,-16,1,-13,-389,272,4153,17,93,897,1849,1972,2140,2248,2168,1840,1950,2175
357245,11416,-21004,16904,16904,389,331,-15,-24,-18,-78,300,3766,28,85,897,1849,1972,2140,2248,2168,1840,1950,2175
358246,11468,-20888,16969,16969,215,605,-16,-24,-9,-215,173,3955,30,83,897,1849,1972,2140,2248,2168,1840,1950,2175
359247,11500,-20720,17034,17034,341,277,-21,-7,1,265,363,3841,30,90,897,1849,1972,2140,2248,2168,1840,1950,2175
360248,11528,-20564,17099,17099,367,350,-25,-16,0,245,348,3778,18,83,895,1849,1972,2140,2248,2168,1840,1950,2175
361249,11576,-20412,17164,17164,242,373,-21,-13,3,261,274,3992,17,87,897,1848,1972,2138,2244,2168,1842,1953,2179
362250,11620,-20276,17229,17229,267,471,-26,-4,2,408,341,3847,28,96,898,1848,1972,2138,2244,2168,1842,1953,2179
363251,11648,-20096,17294,17294,368,193,-21,13,4,482,227,3831,21,84,898,1848,1972,2138,2244,2168,1842,1953,2179
364252,11696,-19944,17359,17359,244,366,-16,-10,8,285,415,4028,22,89,897,1848,1972,2138,2244,2168,1842,1953,2179
365253,11748,-19788,17424,17424,219,339,-24,16,-1,22,408,3918,29,93,898,1848,1972,2138,2244,2168,1842,1953,2179
366254,11796,-19644,17489,17489,244,412,-36,-2,1,346,250,3508,25,87,898,1846,1970,2137,2245,2170,1842,1954,2181
367255,11844,-19500,17554,17554,245,410,-19,33,-4,214,310,4330,37,101,899,1846,1970,2137,2245,2170,1842,1954,2181
368256,11892,-19332,17619,17619,245,258,-16,7,5,111,184,3810,24,100,898,1846,1970,2137,2245,2170,1842,1954,2181
369257,11948,-19172,17684,17684,196,305,-18,10,1,54,190,3922,32,100,898,1846,1970,2137,2245,2170,1842,1954,2181
370258,12004,-19000,17749,17749,196,228,-6,-7,4,-82,179,3892,27,88,899,1846,1970,2137,2245,2170,1842,1954,2181
371259,12052,-18820,17814,17814,246,175,-1,-8,6,-212,308,4062,37,97,899,1846,1970,2137,2245,2170,1842,1954,2181
372260,12116,-18656,17879,17879,146,272,-8,2,-4,-337,345,3679,36,96,899,1847,1972,2140,2249,2169,1841,1953,2178
373261,12164,-18484,17944,17944,247,220,-15,-4,-5,-32,235,3949,37,97,899,1847,1972,2140,2249,2169,1841,1953,2178
374262,12216,-18336,18009,18009,222,368,-13,-11,-8,65,369,3897,35,92,899,1847,1972,2140,2249,2169,1841,1953,2178
375265,12260,-18176,18074,18074,272,291,-18,-25,4,-3,400,3962,37,90,899,1847,1972,2140,2249,2169,1841,1953,2178
376264,12328,-17980,18139,18139,122,62,-25,-25,-7,426,435,3753,36,92,899,1847,1972,2140,2249,2169,1841,1953,2178
377265,12376,-17800,18204,18204,248,160,-31,-9,1,582,331,3955,34,101,897,1853,1980,2146,2254,2168,1840,1952,2177
378266,12428,-17636,18269,18269,223,257,-31,-6,5,544,343,3884,39,96,899,1853,1980,2146,2254,2168,1840,1952,2177
379267,12480,-17476,18334,18334,223,280,-25,16,1,-61,219,3978,37,97,899,1853,1980,2146,2254,2168,1840,1952,2177
380268,12536,-17332,18399,18399,199,378,-10,17,-1,476,146,3860,32,96,899,1853,1980,2146,2254,2168,1840,1952,2177
381269,12604,-17156,18464,18464,124,175,0,14,0,445,252,4038,24,103,899,1853,1980,2146,2254,2168,1840,1952,2177
382270,12656,-16972,18529,18529,224,122,5,17,0,-23,304,3999,36,90,898,1853,1980,2146,2254,2168,1840,1952,2177
383271,12696,-16796,18594,18594,299,170,-8,12,-1,-233,249,3825,29,100,899,1851,1975,2143,2250,2168,1841,1951,2175
384272,12768,-16628,18659,18659,99,217,-9,-5,-7,-510,304,4026,40,96,899,1851,1975,2143,2250,2168,1841,1951,2175
385273,12820,-16488,18724,18724,225,390,-15,4,-10,140,278,3715,38,93,899,1851,1975,2143,2250,2168,1841,1951,2175
386274,12864,-16324,18789,18789,275,238,-9,12,-15,85,363,4049,24,100,899,1851,1975,2143,2250,2168,1841,1951,2175
387275,12916,-16144,18854,18854,225,135,-21,0,2,117,218,3755,30,96,898,1851,1975,2143,2250,2168,1841,1951,2175
388276,12976,-15984,18919,18919,176,258,-18,-25,6,408,392,4120,30,100,899,1847,1971,2138,2246,2165,1840,1952,2176
389277,13036,-15804,18984,18984,176,130,-20,-11,7,-245,366,3814,39,96,899,1847,1971,2138,2246,2165,1840,1952,2176
390278,13096,-15648,19049,19049,176,278,-8,-13,10,45,253,3992,36,93,899,1847,1971,2138,2246,2165,1840,1952,2176
391279,13156,-15456,19114,19114,176,49,-5,9,3,132,301,3880,36,105,900,1847,1971,2138,2246,2165,1840,1952,2176
392280,13216,-15284,19179,19179,176,172,-4,11,0,282,306,3786,30,101,899,1847,1971,2138,2246,2165,1840,1952,2176
393281,13276,-15112,19244,19244,176,169,-7,1,6,619,371,4038,30,94,900,1847,1971,2138,2246,2165,1840,1952,2176
394282,13328,-14924,19309,19309,227,66,-15,-19,5,-149,366,3744,33,95,898,1847,1970,2140,2248,2168,1841,1952,2176
395283,13396,-14736,19374,19374,126,63,-22,12,-4,259,362,3956,24,92,898,1847,1970,2140,2248,2168,1841,1952,2176
396284,13452,-14560,19439,19439,202,136,-31,-9,2,-120,218,3795,42,92,900,1847,1970,2140,2248,2168,1841,1952,2176
397285,13500,-14388,19504,19504,252,158,-22,14,3,208,284,3946,31,100,900,1847,1970,2140,2248,2168,1841,1952,2176
398286,13568,-14204,19569,19569,127,80,-20,-5,0,424,258,3855,27,84,899,1847,1970,2140,2248,2168,1841,1952,2176
399287,13616,-14100,19634,19634,252,579,-13,1,0,39,220,3869,39,105,899,1847,1971,2139,2247,2171,1842,1954,2179
400288,13668,-13932,19699,19699,228,177,-22,-8,2,9,331,3885,29,97,900,1847,1971,2139,2247,2171,1842,1954,2179
401289,13732,-13724,19764,19764,153,-77,-18,7,-10,287,260,3697,25,85,897,1847,1971,2139,2247,2171,1842,1954,2179
402290,13776,-13548,19829,19829,278,120,-16,33,-7,49,263,4137,38,103,899,1847,1971,2139,2247,2171,1842,1954,2179
403291,13844,-13348,19894,19894,128,-33,-10,9,-2,-19,267,3770,38,88,900,1847,1971,2139,2247,2171,1842,1954,2179
404292,13900,-13176,19959,19959,203,139,-3,-3,2,-20,243,4107,41,97,899,1847,1971,2139,2247,2171,1842,1954,2179
405293,13952,-13036,20024,20024,229,338,-3,-25,4,-444,318,3871,29,102,900,1849,1973,2141,2249,2168,1840,1952,2175
406294,14004,-12832,20089,20089,229,-66,-10,-15,8,-117,315,3693,36,87,899,1849,1973,2141,2249,2168,1840,1952,2175
407295,14076,-12680,20154,20154,104,257,-23,-7,2,47,396,3974,27,95,899,1849,1973,2141,2249,2168,1840,1952,2175
408296,14120,-12488,20219,20219,279,4,-33,-40,3,-174,338,3751,31,89,899,1849,1973,2141,2249,2168,1840,1952,2175
409297,14180,-12316,20284,20284,180,126,-15,-31,6,274,342,3970,35,98,900,1849,1973,2141,2249,2168,1840,1952,2175
410298,14240,-12164,20349,20349,180,249,-20,-18,-3,509,419,3890,35,99,900,1853,1975,2143,2254,2167,1842,1954,2178
411299,14292,-11956,20414,20414,230,-104,-25,-10,0,678,297,3751,36,102,899,1853,1975,2143,2254,2167,1842,1954,2178
412300,14356,-11748,20479,20479,155,-108,-25,17,-3,774,314,3857,26,85,898,1853,1975,2143,2254,2167,1842,1954,2178
413301,14400,-11572,20544,20544,281,90,-17,20,0,10,266,4014,40,91,899,1853,1975,2143,2254,2167,1842,1954,2178
414302,14452,-11424,20609,20609,231,263,-16,16,-5,-10,313,4067,40,99,900,1853,1975,2143,2254,2167,1842,1954,2178
415303,14508,-11248,20674,20674,206,85,-15,15,-1,116,187,3676,26,97,899,1853,1975,2143,2254,2167,1842,1954,2178
416304,14564,-11068,20739,20739,206,57,-12,8,-1,246,286,4153,26,90,899,1850,1973,2141,2247,2167,1840,1951,2174
417305,14628,-10956,20804,20804,156,481,-13,8,2,-309,211,3896,27,99,900,1850,1973,2141,2247,2167,1840,1951,2174
418306,14684,-10772,20869,20869,207,28,-15,-4,1,-174,185,3767,42,90,900,1850,1973,2141,2247,2167,1840,1951,2174
419307,14744,-10592,20934,20934,182,50,-13,4,-13,-46,285,4064,25,82,898,1850,1973,2141,2247,2167,1840,1951,2174
420308,14812,-10440,20999,20999,132,223,-15,-6,-1,-35,203,3935,26,99,900,1850,1973,2141,2247,2167,1840,1951,2174
421309,14868,-10292,21064,21064,207,246,-2,5,-2,185,263,3916,39,84,900,1844,1968,2136,2245,2166,1842,1953,2176
422310,14924,-10112,21129,21129,207,43,4,-8,-15,48,276,3870,24,97,900,1844,1968,2136,2245,2166,1842,1953,2176
423311,14980,-9908,21194,21194,207,-110,5,-4,1,27,359,4229,24,98,899,1844,1968,2136,2245,2166,1842,1953,2176
424312,15048,-9736,21259,21259,132,87,-8,-19,3,40,494,3572,29,94,900,1844,1968,2136,2245,2166,1842,1953,2176
425313,15100,-9540,21324,21324,232,-66,-16,-18,7,224,393,4014,38,94,899,1844,1968,2136,2245,2166,1842,1953,2176
426314,15168,-9344,21389,21389,132,-69,-19,-11,4,264,348,3792,25,79,900,1844,1968,2136,2245,2166,1842,1953,2176
427315,15220,-9216,21454,21454,233,354,-16,7,11,99,258,3968,41,95,899,1847,1972,2138,2247,2168,1843,1955,2177
428316,15260,-9088,21519,21519,308,353,-17,24,3,476,339,3841,24,80,898,1847,1972,2138,2247,2168,1843,1955,2177
429317,15324,-8920,21584,21584,158,100,-20,1,-6,311,262,3858,37,79,896,1847,1972,2138,2247,2168,1843,1955,2177
430318,15396,-8756,21649,21649,108,123,-22,-15,-3,297,288,3892,38,85,898,1847,1972,2138,2247,2168,1843,1955,2177
431319,15444,-8616,21714,21714,259,271,-26,-2,0,-225,280,3962,33,79,900,1847,1972,2138,2247,2168,1843,1955,2177
432320,15504,-8432,21779,21779,184,-7,-30,4,-7,-256,174,3895,41,93,900,1849,1972,2142,2248,2173,1845,1954,2180
433321,15556,-8264,21844,21844,234,91,-16,2,-6,253,100,3922,26,91,898,1849,1972,2142,2248,2173,1845,1954,2180
434322,15604,-8124,21909,21909,259,264,4,11,-7,175,222,4000,25,81,900,1849,1972,2142,2248,2173,1845,1954,2180
435323,15652,-7952,21974,21974,260,61,8,4,2,-149,259,3981,38,86,899,1849,1972,2142,2248,2173,1845,1954,2180
436324,15724,-7792,22039,22039,110,134,-3,-10,-4,153,374,3668,41,92,899,1849,1972,2142,2248,2173,1845,1954,2180
437325,15784,-7600,22104,22104,185,-69,-9,3,1,199,360,3943,27,78,899,1849,1972,2142,2248,2173,1845,1954,2180
438326,15840,-7436,22169,22169,210,103,-16,1,1,222,370,3810,24,79,900,1850,1975,2143,2250,2168,1840,1952,2176
439327,15888,-7264,22234,22234,260,51,-25,5,1,-54,277,3881,24,85,899,1850,1975,2143,2250,2168,1840,1952,2176
440328,15944,-7128,22299,22299,211,274,-11,4,10,342,301,3975,41,78,899,1850,1975,2143,2250,2168,1840,1952,2176
441329,16008,-6976,22364,22364,161,172,-10,0,9,189,347,3951,24,86,899,1850,1975,2143,2250,2168,1840,1952,2176
442330,16056,-6816,22429,22429,261,119,-10,-17,-7,-66,363,3840,43,73,899,1850,1975,2143,2250,2168,1840,1952,2176
443331,16124,-6652,22494,22494,136,92,-15,-7,-6,71,383,3836,37,83,899,1850,1973,2140,2249,2164,1839,1950,2172
444332,16196,-6488,22559,22559,111,90,-23,-15,-8,-12,355,3939,41,85,899,1850,1973,2140,2249,2164,1839,1950,2172
445333,16244,-6340,22624,22624,261,188,-27,-5,-19,-78,313,3848,38,75,898,1850,1973,2140,2249,2164,1839,1950,2172
446334,16300,-6208,22689,22689,211,286,-25,2,-17,111,237,3805,33,72,898,1850,1973,2140,2249,2164,1839,1950,2172
447335,16360,-6060,22754,22754,187,184,-20,-2,-11,46,204,3971,36,84,899,1850,1973,2140,2249,2164,1839,1950,2172
448336,16408,-5904,22819,22819,262,132,-17,-15,-3,62,215,3975,36,72,899,1850,1973,2140,2249,2164,1839,1950,2172
454342,16764,-5012,23209,23209,188,169,-5,-12,-1,-54,271,3845,38,80,899,1847,1967,2138,2246,2170,1844,1954,2180
455343,16812,-4864,23274,23274,263,167,-3,8,-8,343,404,3784,34,79,899,1847,1967,2138,2246,2170,1844,1954,2180
456344,16876,-4744,23339,23339,163,341,-15,-1,-10,271,363,3896,41,81,899,1847,1967,2138,2246,2170,1844,1954,2180
457345,16924,-4588,23404,23404,264,114,-28,-11,-15,246,401,3835,40,78,899,1847,1967,2138,2246,2170,1844,1954,2180
458346,16976,-4448,23469,23469,239,212,-29,-23,-16,-118,290,3930,41,80,899,1847,1967,2138,2246,2170,1844,1954,2180
459347,17040,-4292,23534,23534,164,110,-33,-10,-20,-20,301,3840,27,67,899,1847,1967,2138,2246,2170,1844,1954,2180
460348,17080,-4176,23599,23599,315,359,-22,8,-24,68,235,3943,41,79,899,1848,1973,2139,2245,2168,1841,1953,2179
461349,17152,-4036,23664,23664,114,207,-17,-8,-5,-321,160,3970,42,62,900,1848,1973,2139,2245,2168,1841,1953,2179
462350,17204,-3888,23729,23729,240,155,-7,3,-10,229,224,3869,29,72,897,1848,1973,2139,2245,2168,1841,1953,2179
463351,17252,-3736,23794,23794,265,128,1,-4,8,160,192,3994,24,77,898,1848,1973,2139,2245,2168,1841,1953,2179
464352,17300,-3616,23859,23859,266,326,6,0,14,144,335,3881,40,74,899,1848,1973,2139,2245,2168,1841,1953,2179
465353,17388,-3500,23924,23924,15,350,-2,14,15,234,283,3922,36,65,899,1848,1973,2140,2248,2168,1842,1953,2176
466354,17432,-3348,23989,23989,291,123,-3,6,15,284,356,3838,33,68,898,1848,1973,2140,2248,2168,1842,1953,2176
467355,17480,-3220,24054,24054,266,271,-8,17,11,172,415,3891,32,78,899,1848,1973,2140,2248,2168,1842,1953,2176
468356,17556,-3088,24119,24119,91,245,-14,6,2,229,366,3959,29,63,899,1848,1973,2140,2248,2168,1842,1953,2176
469357,17616,-2956,24184,24184,191,243,-19,-9,1,269,319,3819,43,77,899,1848,1973,2140,2248,2168,1842,1953,2176
470358,17680,-2824,24249,24249,166,241,-24,-9,-14,-110,375,4015,25,78,900,1848,1973,2140,2248,2168,1842,1953,2176
471359,17744,-2684,24314,24314,166,190,-28,-19,-19,-41,292,3911,43,64,899,1849,1972,2139,2248,2163,1839,1950,2172
472360,17804,-2556,24379,24379,191,263,-24,-18,-20,87,279,3768,29,68,899,1849,1972,2139,2248,2163,1839,1950,2172
473361,17848,-2428,24444,24444,292,262,-20,-20,-12,102,274,4057,24,66,899,1849,1972,2139,2248,2163,1839,1950,2172
474362,17916,-2296,24509,24509,141,235,-23,-22,-9,107,211,3805,41,77,899,1849,1972,2139,2248,2163,1839,1950,2172
475363,17952,-2164,24574,24574,342,233,-25,-20,0,2,190,3937,42,61,898,1849,1972,2139,2248,2163,1839,1950,2172
476364,18012,-2036,24639,24639,192,257,-16,7,7,173,206,3980,33,60,899,1847,1971,2139,2244,2167,1842,1952,2176
477365,18080,-1916,24704,24704,142,305,-2,24,11,316,138,3920,26,72,898,1847,1971,2139,2244,2167,1842,1952,2176
478366,18124,-1772,24769,24769,293,153,6,23,10,266,305,3997,31,70,899,1847,1971,2139,2244,2167,1842,1952,2176
479367,18192,-1644,24834,24834,143,252,6,18,3,31,373,3776,41,66,897,1847,1971,2139,2244,2167,1842,1952,2176
480368,18240,-1524,24899,24899,268,301,5,5,1,61,428,4001,39,61,898,1847,1971,2139,2244,2167,1842,1952,2176
481369,18292,-1396,24964,24964,243,249,-9,0,-9,316,502,3756,41,67,899,1847,1971,2139,2244,2167,1842,1952,2176
482370,18348,-1276,25029,25029,219,298,-21,-10,-9,97,419,3875,25,62,898,1847,1971,2139,2247,2163,1839,1953,2175
483371,18412,-1148,25094,25094,169,246,-26,-10,-9,-82,418,3854,26,57,899,1847,1971,2139,2247,2163,1839,1953,2175
484372,18460,-1020,25159,25159,269,245,-29,-19,-8,-16,276,3897,41,61,899,1847,1971,2139,2247,2163,1839,1953,2175
485373,18516,-896,25224,25224,219,268,-23,-20,-7,46,219,3955,38,71,899,1847,1971,2139,2247,2163,1839,1953,2175
486374,18568,-788,25289,25289,245,367,-23,-22,-2,172,198,3778,41,63,899,1847,1971,2139,2247,2163,1839,1953,2175
487375,18644,-652,25354,25354,94,190,-15,-8,-7,53,219,4057,28,71,899,1848,1972,2139,2245,2167,1841,1953,2178
488376,18688,-524,25419,25419,295,239,-13,-15,-2,114,233,3806,32,70,898,1848,1972,2139,2245,2167,1841,1953,2178
489377,18748,-416,25484,25484,195,363,-13,-2,-7,348,314,3898,37,68,900,1848,1972,2139,2245,2167,1841,1953,2178
490378,18800,-292,25549,25549,245,261,-11,-2,-4,48,273,3901,39,69,898,1848,1972,2139,2245,2167,1841,1953,2178
491379,18848,-160,25614,25614,271,210,-12,3,-3,243,293,3943,29,73,898,1848,1972,2139,2245,2167,1841,1953,2178
492380,18920,-36,25679,25679,121,258,-8,8,4,257,288,3809,41,71,899,1848,1972,2139,2245,2167,1841,1953,2178
493381,18976,104,25744,25744,221,156,-10,2,2,34,281,3965,40,71,899,1849,1976,2144,2248,2168,1842,1953,2176
494382,19020,208,25809,25809,296,381,-4,5,-1,268,237,3877,29,61,899,1849,1976,2144,2248,2168,1842,1953,2176
495383,19092,320,25874,25874,121,329,-10,1,5,-13,261,3890,41,64,899,1849,1976,2144,2248,2168,1842,1953,2176
496384,19164,440,25939,25939,121,278,-11,2,-1,134,344,3805,33,68,896,1849,1976,2144,2248,2168,1842,1953,2176
497385,19224,560,26004,26004,196,277,-12,-9,-7,211,335,3959,29,71,897,1849,1976,2144,2248,2168,1842,1953,2176
498386,19276,704,26069,26069,246,125,-19,-16,0,-103,358,3846,25,62,899,1849,1974,2142,2249,2167,1843,1951,2174
499387,19328,828,26134,26134,247,248,-23,-20,-7,55,381,3828,30,74,899,1849,1974,2142,2249,2167,1843,1951,2174
500388,19392,944,26199,26199,172,297,-25,-15,-3,220,324,3887,27,73,899,1849,1974,2142,2249,2167,1843,1951,2174
501389,19452,1092,26264,26264,197,95,-27,-15,-8,94,350,3922,39,71,899,1849,1974,2142,2249,2167,1843,1951,2174
502392,19524,1204,26329,26329,122,319,-19,-14,1,53,202,3997,25,60,899,1849,1974,2142,2249,2167,1843,1951,2174
503391,19564,1312,26394,26394,322,343,-16,-2,-3,182,209,3771,37,67,899,1849,1974,2142,2249,2167,1843,1951,2174
504392,19624,1440,26459,26459,197,216,-10,3,-1,155,252,4126,41,73,899,1847,1971,2139,2245,2166,1841,1952,2176
505393,19684,1576,26524,26524,197,165,-11,4,-4,225,265,3736,27,65,898,1847,1971,2139,2245,2166,1841,1952,2176
506394,19736,1700,26589,26589,248,238,-7,-4,7,230,276,3979,24,67,899,1847,1971,2139,2245,2166,1841,1952,2176
507395,19812,1828,26654,26654,98,212,-10,9,2,196,334,3872,28,57,900,1847,1971,2139,2245,2166,1841,1952,2176
508396,19868,1936,26719,26719,223,336,-16,1,3,182,298,3854,39,62,899,1847,1971,2139,2245,2166,1841,1952,2176
509397,19916,2068,26784,26784,273,184,-11,9,5,68,301,3957,26,68,900,1847,1974,2140,2248,2168,1844,1952,2176
510398,19960,2180,26849,26849,299,308,-10,7,7,110,350,3877,40,62,898,1847,1974,2140,2248,2168,1844,1952,2176
511399,20024,2300,26914,26914,174,256,-12,-2,8,280,319,3887,34,61,899,1847,1974,2140,2248,2168,1844,1952,2176
512400,20096,2412,26979,26979,124,305,-18,-5,8,160,323,3900,44,74,898,1847,1974,2140,2248,2168,1844,1952,2176
513401,20156,2520,27044,27044,199,329,-16,-1,-9,-105,363,3903,44,58,898,1847,1974,2140,2248,2168,1844,1952,2176
514402,20224,2660,27109,27109,149,127,-22,-7,-16,74,318,3814,27,61,897,1847,1974,2140,2248,2168,1844,1952,2176
515403,20280,2800,27174,27174,224,126,-27,-3,-24,264,311,3991,26,72,898,1846,1971,2139,2247,2168,1844,1954,2178
516404,20336,2900,27239,27239,224,375,-23,-8,-16,-178,247,3955,32,73,900,1846,1971,2139,2247,2168,1844,1954,2178
517405,20404,2992,27304,27304,149,424,-18,-13,-7,206,225,3905,25,61,899,1846,1971,2139,2247,2168,1844,1954,2178
518406,20456,3116,27369,27369,249,223,-11,-3,2,320,174,3966,42,72,898,1846,1971,2139,2247,2168,1844,1954,2178
519407,20528,3236,27434,27434,124,246,0,-4,12,-77,189,3945,25,59,898,1846,1971,2139,2247,2168,1844,1954,2178
520408,20568,3364,27499,27499,325,195,3,17,30,122,251,3923,38,69,899,1846,1973,2140,2246,2169,1844,1954,2178
521409,20624,3484,27564,27564,225,243,5,24,26,318,305,3827,36,64,900,1846,1973,2140,2246,2169,1844,1954,2178
522410,20680,3604,27629,27629,225,242,2,10,23,368,359,3965,33,64,898,1846,1973,2140,2246,2169,1844,1954,2178
523411,20764,3736,27694,27694,50,165,-11,2,12,307,436,3749,26,69,899,1846,1973,2140,2246,2169,1844,1954,2178
524412,20804,3868,27759,27759,325,164,-23,-7,4,-11,430,3851,26,71,899,1846,1973,2140,2246,2169,1844,1954,2178
525413,20888,4016,27824,27824,50,62,-30,-7,-5,157,419,3862,38,72,900,1846,1973,2140,2246,2169,1844,1954,2178
526414,20940,4148,27889,27889,250,160,-36,-7,-13,95,293,3934,32,72,898,1851,1975,2141,2247,2167,1841,1954,2180
527415,20988,4268,27954,27954,276,234,-32,10,-18,-71,248,3855,42,66,900,1851,1975,2141,2247,2167,1841,1954,2180
528416,21044,4360,28019,28019,226,408,-27,0,-15,61,186,3976,27,61,899,1851,1975,2141,2247,2167,1841,1954,2180
529417,21096,4496,28084,28084,251,131,-18,-11,-21,275,128,3839,30,74,899,1851,1975,2141,2247,2167,1841,1954,2180
530418,21160,4600,28149,28149,176,330,-5,-8,-13,51,185,4223,36,66,896,1851,1975,2141,2247,2167,1841,1954,2180
531419,21212,4704,28214,28214,251,329,-10,10,-4,73,183,3605,29,74,898,1844,1970,2139,2243,2170,1844,1954,2179
532420,21264,4796,28279,28279,252,404,1,23,1,273,237,4131,34,76,898,1844,1970,2139,2243,2170,1844,1954,2179
533421,21328,4916,28344,28344,177,227,3,-5,3,428,341,3827,26,66,898,1844,1970,2139,2243,2170,1844,1954,2179
534422,21376,5052,28409,28409,277,126,2,4,8,156,353,3859,27,64,898,1844,1970,2139,2243,2170,1844,1954,2179
535423,21444,5152,28474,28474,152,350,-7,6,20,-8,382,3831,36,76,899,1844,1970,2139,2243,2170,1844,1954,2179
536424,21500,5276,28539,28539,227,198,-10,22,22,286,366,3866,40,71,899,1848,1970,2139,2243,2170,1844,1954,2179
537425,21572,5412,28604,28604,127,122,-9,8,25,170,381,3968,40,79,898,1848,1976,2142,2248,2168,1843,1953,2177
538426,21620,5528,28669,28669,278,245,-12,9,23,-86,401,3843,27,77,899,1848,1976,2142,2248,2168,1843,1953,2177
539427,21680,5668,28734,28734,203,94,-21,8,14,265,406,3783,41,67,900,1848,1976,2142,2248,2168,1843,1953,2177
540428,21740,5800,28799,28799,203,142,-31,-4,8,295,364,3966,42,63,898,1848,1976,2142,2248,2168,1843,1953,2177
541429,21820,5940,28864,28864,77,90,-30,-7,4,122,348,3864,25,79,900,1848,1976,2142,2248,2168,1843,1953,2177
542430,21860,6068,28929,28929,328,164,-42,-10,-7,151,346,3722,26,70,899,1847,1972,2140,2245,2169,1845,1954,2180
543431,21932,6224,28994,28994,128,-14,-32,-14,-14,-29,159,4109,25,74,900,1847,1972,2140,2245,2169,1845,1954,2180
544432,21968,6392,29059,29059,354,-91,-21,-7,-14,183,135,3863,39,71,898,1847,1972,2140,2245,2169,1845,1954,2180
545433,22024,6524,29124,29124,229,132,-7,10,-15,45,134,3892,44,69,900,1847,1972,2140,2245,2169,1845,1954,2180
546434,22104,6648,29189,29189,78,181,2,9,-3,-30,205,4065,44,72,899,1847,1972,2140,2245,2169,1845,1954,2180
547435,22152,6772,29254,29254,279,179,7,1,-2,295,196,3814,37,60,898,1845,1971,2141,2245,2173,1848,1958,2183
548436,22224,6876,29319,29319,129,303,3,1,3,353,271,3923,30,67,898,1845,1971,2141,2245,2173,1848,1958,2183
549437,22268,6988,29384,29384,304,252,-4,7,10,87,404,3778,33,69,899,1845,1971,2141,2245,2173,1848,1958,2183
550438,22324,7064,29449,29449,229,477,-15,9,13,132,439,3871,42,79,899,1845,1971,2141,2245,2173,1848,1958,2183
551439,22376,7140,29514,29514,255,477,-20,13,9,186,414,3913,41,66,898,1845,1971,2141,2245,2173,1848,1958,2183
552441,22436,7244,29579,29579,205,301,-23,3,3,112,340,3793,27,63,897,1845,1971,2141,2245,2173,1848,1958,2183
553441,22504,7360,29644,29644,155,225,-21,12,6,29,343,3964,39,81,897,1849,1973,2139,2247,2172,1846,1956,2180
554442,22552,7472,29709,29709,280,248,-17,-2,16,-61,264,3889,27,69,899,1849,1973,2139,2247,2172,1846,1956,2180
555443,22616,7608,29774,29774,180,97,-11,11,13,150,333,3986,42,77,899,1849,1973,2139,2247,2172,1846,1956,2180
556444,22656,7724,29839,29839,331,220,-15,13,16,-305,271,3876,28,78,899,1849,1973,2139,2247,2172,1846,1956,2180
557445,22740,7836,29904,29904,55,244,-12,7,19,304,247,3838,33,68,900,1849,1973,2139,2247,2172,1846,1956,2180
558446,22792,7960,29969,29969,256,168,-11,0,26,260,324,4011,29,80,898,1847,1972,2141,2246,2166,1841,1951,2175
559447,22848,8096,30034,30034,231,91,-16,4,12,-134,331,3798,31,74,899,1847,1972,2141,2246,2166,1841,1951,2175
560448,22904,8216,30099,30099,231,190,-24,6,8,233,284,3861,27,75,899,1847,1972,2141,2246,2166,1841,1951,2175
561449,22964,8340,30164,30164,206,163,-24,11,-1,277,249,3828,27,68,899,1847,1972,2141,2246,2166,1841,1951,2175
562450,23004,8456,30229,30229,332,212,-22,-5,-9,321,259,3981,35,76,899,1847,1972,2141,2246,2166,1841,1951,2175
563451,23064,8572,30294,30294,207,211,-13,-21,-7,169,261,3991,31,67,899,1847,1972,2141,2246,2166,1841,1951,2175
564452,23148,8696,30359,30359,57,159,-15,-11,-7,38,242,3764,42,78,897,1848,1970,2139,2245,2167,1844,1953,2180
565453,23196,8828,30424,30424,282,108,-13,-4,-5,4,285,4015,27,78,898,1848,1970,2139,2245,2167,1844,1953,2180
566454,23260,8944,30489,30489,182,207,-13,5,-5,171,266,3910,38,78,900,1848,1970,2139,2245,2167,1844,1953,2180
567455,23304,9060,30554,30554,308,205,-18,-6,0,79,292,3887,28,72,899,1848,1970,2139,2245,2167,1844,1953,2180
568456,23376,9192,30619,30619,132,104,-22,10,9,82,264,3821,34,64,899,1848,1970,2139,2245,2167,1844,1953,2180
569457,23432,9268,30684,30684,233,453,-9,-7,12,160,297,4015,45,77,898,1848,1975,2142,2248,2168,1842,1955,2179
570458,23492,9412,30749,30749,208,26,-11,10,12,-225,284,3810,44,77,900,1848,1975,2142,2248,2168,1842,1955,2179
571459,23548,9516,30814,30814,233,275,-13,-4,8,178,401,3916,44,70,898,1848,1975,2142,2248,2168,1842,1955,2179
572460,23600,9624,30879,30879,258,249,-22,4,12,-175,396,3986,34,74,900,1848,1975,2142,2248,2168,1842,1955,2179
573461,23664,9740,30944,30944,183,198,-22,-1,18,135,388,3699,26,77,899,1848,1975,2142,2248,2168,1842,1955,2179
574462,23720,9864,31009,31009,233,147,-21,23,19,342,333,3881,28,72,899,1848,1975,2142,2248,2168,1842,1955,2179
575463,23776,9992,31074,31074,234,120,-11,8,12,108,282,4018,27,62,899,1851,1979,2144,2251,2168,1843,1954,2177
576464,23816,10116,31139,31139,334,144,-8,15,15,53,239,3932,27,76,899,1851,1979,2144,2251,2168,1843,1954,2177
577465,23868,10224,31204,31204,260,243,-9,20,8,168,349,3751,26,77,899,1851,1979,2144,2251,2168,1843,1954,2177
578466,23920,10340,31269,31269,260,191,-20,6,0,54,370,4003,28,77,898,1851,1979,2144,2251,2168,1843,1954,2177
579467,23992,10476,31334,31334,135,65,-27,1,-9,-10,324,3873,36,72,899,1851,1979,2144,2251,2168,1843,1954,2177
580468,24064,10600,31399,31399,135,138,-41,-33,-18,12,311,3798,40,64,899,1851,1973,2139,2252,2167,1844,1954,2180
581469,24128,10732,31464,31464,185,87,-36,-25,-15,12,300,4041,42,71,898,1851,1973,2139,2252,2167,1844,1954,2180
582470,24180,10840,31529,31529,260,236,-32,-36,-16,145,138,3797,44,67,899,1851,1973,2139,2252,2167,1844,1954,2180
583471,24236,10964,31594,31594,235,134,-22,-11,-13,195,103,3938,32,68,900,1851,1973,2139,2252,2167,1844,1954,2180
584472,24296,11064,31659,31659,210,283,-4,6,-2,515,93,3903,26,67,899,1851,1973,2139,2252,2167,1844,1954,2180
585473,24356,11164,31724,31724,210,282,7,17,15,297,141,3928,25,69,899,1851,1973,2139,2252,2167,1844,1954,2180
586474,24416,11276,31789,31789,211,206,13,37,17,62,246,3951,26,66,899,1848,1972,2140,2246,2165,1841,1952,2174
587475,24484,11368,31854,31854,160,331,15,30,13,-11,321,3825,28,70,899,1848,1972,2140,2246,2165,1841,1952,2174
588476,24532,11464,31919,31919,286,305,8,17,17,306,460,3960,40,73,899,1848,1972,2140,2246,2165,1841,1952,2174
589477,24616,11552,31984,31984,60,354,-14,2,15,-46,524,3831,44,71,899,1848,1972,2140,2246,2165,1841,1952,2174
590478,24656,11660,32049,32049,336,228,-25,-4,8,-330,482,3807,30,72,898,1848,1972,2140,2246,2165,1841,1952,2174
591479,24704,11776,32114,32114,286,177,-29,-11,6,-38,453,3846,37,65,899,1852,1976,2144,2252,2163,1839,1952,2176
592480,24776,11880,32179,32179,136,251,-35,-9,4,21,412,3912,33,69,898,1852,1976,2144,2252,2163,1839,1952,2176
593481,24836,11972,32244,32244,211,325,-35,-16,9,21,260,3893,41,72,899,1852,1976,2144,2252,2163,1839,1952,2176
594482,24896,12088,32309,32309,211,174,-30,0,8,195,250,3862,39,68,899,1852,1976,2144,2252,2163,1839,1952,2176
595483,24944,12200,32374,32374,287,198,-16,0,3,133,174,3965,27,73,898,1852,1976,2144,2252,2163,1839,1952,2176
596484,25000,12324,32439,32439,237,122,-13,11,4,448,246,4068,28,60,899,1852,1976,2144,2252,2163,1839,1952,2176
597485,25064,12440,32504,32504,187,170,-4,7,8,186,176,3646,28,69,899,1848,1972,2140,2246,2167,1843,1953,2179
598486,25128,12548,32569,32569,187,219,-4,20,0,234,276,4095,29,68,898,1848,1972,2140,2246,2167,1843,1953,2179
599487,25176,12656,32768,32768,291,222,-11,9,-5,104,231,3933,31,64,897,1848,1972,2140,2246,2167,1843,1953,2179
600489,25216,12760,32833,32833,341,246,-15,-4,-12,-11,226,3725,30,63,899,1848,1972,2140,2246,2167,1843,1953,2179
601489,25264,12884,32898,32898,292,119,-22,-12,-15,7,332,4102,25,68,899,1848,1972,2140,2246,2167,1843,1953,2179
602490,25324,12980,32963,32963,217,293,-25,-15,-22,127,253,3762,43,66,898,1849,1974,2142,2249,2168,1843,1954,2179
603491,25384,13096,33028,33028,217,167,-20,-30,-13,75,229,3986,42,71,899,1849,1974,2142,2249,2168,1843,1954,2179
604492,25424,13196,33093,33093,343,266,-19,-11,0,94,281,3866,32,66,899,1849,1974,2142,2249,2168,1843,1954,2179
605493,25484,13300,33158,33158,218,240,-12,-5,5,285,258,3907,29,65,899,1849,1974,2142,2249,2168,1843,1954,2179
606494,25540,13404,33223,33223,243,239,-8,8,13,431,264,3848,39,53,898,1849,1974,2142,2249,2168,1843,1954,2179
607495,25608,13516,33288,33288,168,188,2,16,22,250,270,3936,27,62,899,1849,1974,2142,2249,2168,1843,1954,2179
608496,25680,13624,33353,33353,143,212,0,24,19,75,416,4003,26,68,899,1847,1978,2143,2250,2168,1842,1954,2176
609497,25736,13712,33418,33418,243,337,-7,23,10,-101,399,3739,43,67,899,1847,1978,2143,2250,2168,1842,1954,2176
610498,25780,13820,33483,33483,319,211,-16,11,11,87,442,3952,28,64,899,1847,1978,2143,2250,2168,1842,1954,2176
611499,25848,13928,33548,33548,168,210,-23,-3,8,-28,457,3843,26,57,898,1847,1978,2143,2250,2168,1842,1954,2176
612500,25920,14016,33613,33613,143,334,-28,-10,1,-141,406,3899,42,57,898,1847,1978,2143,2250,2168,1842,1954,2176
613501,25972,14120,33678,33678,269,233,-39,-23,-12,-52,237,3912,43,68,899,1850,1974,2139,2249,2163,1840,1951,2175
614502,26032,14216,33743,33743,219,282,-32,-20,-11,264,149,3989,44,54,899,1850,1974,2139,2249,2163,1840,1951,2175
615503,26108,14316,33808,33808,118,256,-28,-20,-16,122,180,3918,42,56,897,1850,1974,2139,2249,2163,1840,1951,2175
616504,26152,14448,33873,33873,319,55,-22,-14,-4,56,131,3914,33,57,897,1850,1974,2139,2249,2163,1840,1951,2175
617505,26220,14552,33938,33938,169,229,-13,15,3,634,131,4017,32,58,899,1850,1974,2139,2249,2163,1840,1951,2175
618506,26276,14660,34003,34003,244,203,2,17,2,488,171,3895,28,52,899,1850,1974,2139,2249,2163,1840,1951,2175
619507,26344,14768,34068,34068,169,202,11,29,4,431,207,3950,43,52,899,1847,1972,2141,2245,2167,1843,1953,2179
620508,26384,14856,34133,34133,345,326,13,30,6,321,236,3747,29,60,899,1847,1972,2141,2245,2167,1843,1953,2179
621509,26440,14952,34198,34198,245,275,8,23,1,269,362,4032,42,66,899,1847,1972,2141,2245,2167,1843,1953,2179
622510,26500,15060,34263,34263,220,199,1,13,0,-144,436,3722,35,62,897,1847,1972,2141,2245,2167,1843,1953,2179
623511,26564,15148,34328,34328,195,324,-13,5,1,45,464,3919,27,62,898,1847,1972,2141,2245,2167,1843,1953,2179
624512,26612,15232,34393,34393,295,348,-25,-9,-4,-95,465,3787,36,63,899,1849,1975,2141,2250,2162,1839,1950,2172
625513,26684,15340,34458,34458,145,197,-37,-25,1,-551,328,4028,27,62,898,1849,1975,2141,2250,2162,1839,1950,2172
626514,26776,15448,34523,34523,20,196,-37,-31,4,-30,330,3757,27,60,898,1849,1975,2141,2250,2162,1839,1950,2172
627515,26832,15560,34588,34588,245,170,-34,-21,10,40,199,4043,41,56,899,1849,1975,2141,2250,2162,1839,1950,2172
628516,26900,15660,34653,34653,170,244,-21,-4,8,14,223,3934,33,63,899,1849,1975,2141,2250,2162,1839,1950,2172
629517,26944,15764,34718,34718,320,218,-14,0,13,219,200,3890,37,66,899,1849,1975,2141,2250,2162,1839,1950,2172
630518,27024,15868,34783,34783,95,217,0,7,13,159,244,3999,45,59,898,1849,1976,2141,2247,2167,1843,1954,2180
631519,27072,15964,34848,34848,295,267,-2,9,3,-39,343,3873,37,68,898,1849,1976,2141,2247,2167,1843,1954,2180
632520,27128,16084,34913,34913,246,115,-5,9,-7,298,284,3836,42,56,897,1849,1976,2141,2247,2167,1843,1954,2180
633521,27200,16180,34978,34978,145,264,-11,17,-10,588,324,3861,33,54,899,1849,1976,2141,2247,2167,1843,1954,2180
634522,27264,16276,35043,35043,195,264,-17,9,-10,240,339,3934,25,65,899,1849,1976,2141,2247,2167,1843,1954,2180
635523,27328,16388,35108,35108,195,163,-26,6,-10,297,313,3937,43,64,899,1850,1975,2141,2249,2165,1841,1953,2176
636524,27376,16480,35173,35173,296,287,-28,1,-2,249,222,3825,27,65,899,1850,1975,2141,2249,2165,1841,1953,2176
637525,27440,16580,35238,35238,196,236,-26,3,3,123,229,4014,28,64,898,1850,1975,2141,2249,2165,1841,1953,2176
638526,27508,16688,35303,35303,171,185,-17,-1,7,-178,159,3825,30,51,899,1850,1975,2141,2249,2165,1841,1953,2176
639527,27552,16788,35368,35368,321,234,-11,-5,14,-21,205,4019,27,55,899,1850,1975,2141,2249,2165,1841,1953,2176
640528,27648,16900,35433,35433,-4,158,-8,-1,3,-51,237,3869,43,53,898,1850,1975,2141,2249,2165,1841,1953,2176
641529,27700,16992,35498,35498,271,282,-2,-2,6,182,253,3871,42,64,900,1848,1971,2138,2248,2168,1844,1952,2176
642530,27768,17112,35563,35563,171,106,-6,-6,-1,60,391,3966,41,52,898,1848,1971,2138,2248,2168,1844,1952,2176
643531,27820,17212,35628,35628,271,230,-11,-6,-5,141,383,3793,28,52,900,1848,1971,2138,2248,2168,1844,1952,2176
644532,27872,17328,35693,35693,271,129,-16,-2,-5,170,336,3873,45,48,899,1848,1971,2138,2248,2168,1844,1952,2176
645533,27928,17424,35758,35758,247,253,-12,17,5,63,348,3910,42,48,899,1848,1971,2138,2248,2168,1844,1952,2176
646534,27992,17504,35823,35823,197,353,-14,-8,5,48,346,3875,41,58,899,1848,1973,2139,2248,2161,1839,1950,2173
647535,28040,17632,35888,35888,297,51,-5,7,-2,162,308,3870,27,62,898,1848,1973,2139,2248,2161,1839,1950,2173
648536,28112,17724,35953,35953,147,276,-1,4,4,240,321,4025,31,48,898,1848,1973,2139,2248,2161,1839,1950,2173
649537,28180,17828,36018,36018,172,200,-17,9,5,-10,323,3813,32,47,897,1848,1973,2139,2248,2161,1839,1950,2173
650538,28252,17912,36083,36083,147,324,-20,1,-1,-30,293,3748,43,51,899,1848,1973,2139,2248,2161,1839,1950,2173
651539,28316,18016,36148,36148,197,198,-21,-5,0,13,334,4008,43,58,899,1848,1973,2139,2248,2161,1839,1950,2173
652540,28388,18080,36213,36213,147,448,-26,-11,0,37,231,3755,45,48,899,1851,1975,2142,2251,2161,1840,1951,2173
653541,28440,18208,36278,36278,272,47,-28,-14,-6,109,256,3879,44,58,898,1851,1975,2142,2251,2161,1840,1951,2173
654542,28508,18292,36343,36343,172,321,-25,-10,1,108,222,3891,44,60,899,1851,1975,2142,2251,2161,1840,1951,2173
655543,28612,18392,36408,36408,-54,220,-21,-7,1,414,233,3842,38,52,898,1851,1975,2142,2251,2161,1840,1951,2173
656544,28652,18484,36473,36473,346,270,-17,7,-1,244,238,3939,36,45,900,1851,1975,2142,2251,2161,1840,1951,2173
657545,28708,18604,36538,36538,247,93,-14,5,2,234,260,3893,34,47,898,1847,1975,2144,2252,2168,1844,1954,2180
658546,28784,18696,36603,36603,121,268,-3,19,5,334,305,3940,39,49,899,1847,1975,2144,2252,2168,1844,1954,2180
659547,28852,18788,36668,36668,171,267,-3,19,-5,182,352,4023,25,45,899,1847,1975,2144,2252,2168,1844,1954,2180
660548,28892,18880,36733,36733,347,266,-8,0,-7,-39,395,3802,35,43,899,1847,1975,2144,2252,2168,1844,1954,2180
661549,28952,18984,36798,36798,222,190,-15,9,-6,-16,407,3928,31,50,898,1847,1975,2144,2252,2168,1844,1954,2180
662550,29008,19060,36863,36863,247,365,-20,-7,-2,-161,339,3799,42,62,899,1847,1975,2144,2252,2168,1844,1954,2180
663551,29064,19172,36928,36928,247,139,-22,-9,-2,11,330,4093,35,47,898,1849,1974,2142,2249,2166,1842,1951,2175
664552,29116,19272,36993,36993,273,213,-26,-10,-3,-145,291,3661,25,60,899,1849,1974,2142,2249,2166,1842,1951,2175
665553,29184,19396,37058,37058,173,62,-24,-16,-4,-57,279,4067,24,50,897,1849,1974,2142,2249,2166,1842,1951,2175
666554,29260,19516,37123,37123,122,85,-22,-9,-7,93,242,3796,40,47,898,1849,1974,2142,2249,2166,1842,1951,2175
667555,29316,19612,37188,37188,248,235,-18,-10,-1,191,239,4000,34,46,900,1849,1974,2142,2249,2166,1842,1951,2175
668556,29388,19712,37253,37253,148,209,-15,2,-7,177,224,3953,39,47,898,1847,1973,2138,2246,2167,1842,1953,2177
669557,29436,19828,37318,37318,298,108,-9,3,-11,298,233,3901,26,56,899,1847,1973,2138,2246,2167,1842,1953,2177
670558,29500,19900,37383,37383,198,382,-9,13,-4,522,210,3823,41,52,899,1847,1973,2138,2246,2167,1842,1953,2177
671559,29568,19976,37448,37448,173,357,-13,4,0,381,301,4007,38,45,898,1847,1973,2138,2246,2167,1842,1953,2177
672560,29628,20072,37513,37513,223,231,-10,7,1,87,346,3841,25,52,898,1847,1973,2138,2246,2167,1842,1953,2177
673561,29680,20172,37578,37578,273,205,-17,13,6,172,312,3882,26,45,898,1847,1973,2138,2246,2167,1842,1953,2177
674562,29724,20256,37643,37643,324,305,-15,2,8,109,292,3833,28,48,898,1849,1975,2142,2250,2164,1842,1952,2176
675563,29788,20336,37708,37708,199,330,-14,8,10,43,319,4063,30,58,898,1849,1975,2142,2250,2164,1842,1952,2176
676564,29848,20436,37773,37773,224,204,-12,2,10,-28,282,3796,25,55,898,1849,1975,2142,2250,2164,1842,1952,2176
677565,29908,20524,37838,37838,224,278,-16,-4,15,-46,290,3926,37,44,899,1849,1975,2142,2250,2164,1842,1952,2176
678566,29964,20632,37903,37903,249,152,-13,-7,7,48,313,4021,24,47,898,1849,1975,2142,2250,2164,1842,1952,2176
679567,30036,20720,37968,37968,149,277,-9,-2,9,-30,296,3898,25,59,899,1848,1974,2140,2249,2165,1842,1952,2175
680568,30088,20832,38033,38033,274,125,-15,-5,3,-11,350,3891,28,53,899,1848,1974,2140,2249,2165,1842,1952,2175
681569,30148,20932,38098,38098,225,200,-15,-8,1,55,331,3810,40,50,898,1848,1974,2140,2249,2165,1842,1952,2175
682570,30200,21020,38163,38163,275,274,-14,0,-12,44,368,4049,38,43,897,1848,1974,2140,2249,2165,1842,1952,2175
683571,30256,21140,38228,38228,250,73,-21,-11,-10,87,249,3644,35,42,897,1848,1974,2140,2249,2165,1842,1952,2175
684572,30316,21232,38293,38293,225,247,-17,-4,-13,401,344,4030,22,46,899,1848,1974,2140,2249,2165,1842,1952,2175
685573,30388,21340,38358,38358,150,146,-19,-4,-13,142,347,3923,27,46,899,1851,1976,2143,2251,2164,1841,1952,2176
686574,30420,21440,38423,38423,401,195,-24,-3,-3,175,242,3813,25,52,899,1851,1976,2143,2251,2164,1841,1952,2176
687575,30480,21540,38488,38488,226,194,-27,-3,4,262,282,3923,34,42,897,1851,1976,2143,2251,2164,1841,1952,2176
688576,30536,21628,38553,38553,251,269,-22,-4,4,54,259,3938,27,40,899,1851,1976,2143,2251,2164,1841,1952,2176
689577,30588,21720,38618,38618,277,243,-21,-2,6,335,253,3878,25,40,898,1851,1976,2143,2251,2164,1841,1952,2176
690578,30648,21808,38683,38683,227,267,-19,4,9,40,252,3886,27,44,898,1852,1977,2144,2249,2168,1844,1953,2180
691579,30712,21900,38748,38748,202,242,-14,-3,7,232,301,3990,37,53,898,1852,1977,2144,2249,2168,1844,1953,2180
692580,30764,21968,38813,38813,277,392,-12,11,2,171,270,3881,28,46,899,1852,1977,2144,2249,2168,1844,1953,2180
693581,30780,22084,38878,38878,503,91,-10,5,2,72,295,3919,24,48,897,1852,1977,2144,2249,2168,1844,1953,2180
694582,30856,22164,38943,38943,128,315,-10,10,-2,188,348,3940,29,51,897,1852,1977,2144,2249,2168,1844,1953,2180
695583,30920,22260,39008,39008,203,214,-10,6,-3,-54,361,3788,47,55,898,1852,1977,2144,2249,2168,1844,1953,2180
696584,30984,22340,39073,39073,203,314,-13,3,4,42,324,3923,42,55,899,1846,1974,2139,2245,2164,1841,1952,2175
697585,31036,22448,39138,39138,278,138,-17,8,-2,210,354,3925,27,44,898,1846,1974,2139,2245,2164,1841,1952,2175
698586,31088,22564,39203,39203,279,87,-18,-8,0,-4,302,3647,25,54,898,1846,1974,2139,2245,2164,1841,1952,2175
699587,31168,22656,39268,39268,103,236,-20,6,5,270,382,4101,30,50,898,1846,1974,2139,2245,2164,1841,1952,2175
700588,31228,22732,39333,39333,228,336,-27,-13,2,-49,220,3816,27,39,897,1846,1974,2139,2245,2164,1841,1952,2175
701589,31276,22828,39398,39398,304,210,-23,-14,8,195,313,3943,26,48,898,1849,1975,2141,2249,2164,1842,1953,2175
702590,31344,22912,39463,39463,179,285,-18,-9,2,193,242,3867,24,41,898,1849,1975,2141,2249,2164,1842,1953,2175
703591,31400,23004,39528,39528,254,234,-16,5,-5,-110,266,3955,36,46,898,1849,1975,2141,2249,2164,1842,1953,2175
704592,31468,23116,39593,39593,179,108,-14,-2,-1,31,249,3788,35,37,898,1849,1975,2141,2249,2164,1842,1953,2175
705593,31544,23208,39658,39658,129,232,-7,9,5,236,298,4160,42,40,899,1849,1975,2141,2249,2164,1842,1953,2175
706594,31592,23288,39723,39723,304,307,-10,-5,1,-184,257,3733,26,37,899,1849,1975,2141,2249,2164,1842,1953,2175
707595,31652,23372,39788,39788,229,281,-11,-5,-6,56,287,3985,35,40,897,1847,1973,2137,2247,2167,1846,1954,2178
708596,31712,23468,39853,39853,229,206,-13,-4,3,126,236,3853,39,41,898,1847,1973,2137,2247,2167,1846,1954,2178
709597,31760,23560,39918,39918,305,230,-15,-5,4,75,293,3819,25,41,898,1847,1973,2137,2247,2167,1846,1954,2178
710598,31824,23656,39983,39983,205,204,-14,-5,2,181,293,3928,26,50,898,1847,1973,2137,2247,2167,1846,1954,2178
711599,31880,23748,40048,40048,255,228,-18,-9,0,187,281,3852,41,38,899,1847,1973,2137,2247,2167,1846,1954,2178
712600,31956,23812,40113,40113,130,403,-11,-1,-2,242,295,3935,30,39,898,1850,1976,2143,2250,2165,1843,1954,2178
713601,32016,23912,40178,40178,230,178,-10,6,-6,279,309,3941,39,38,897,1850,1976,2143,2250,2165,1843,1954,2178
714602,32068,23996,40243,40243,280,277,-10,5,-8,179,304,3912,37,42,898,1850,1976,2143,2250,2165,1843,1954,2178
715603,32120,24084,40308,40308,280,252,-8,16,1,280,306,3821,24,51,898,1850,1976,2143,2250,2165,1843,1954,2178
716604,32192,24172,40373,40373,155,251,-7,14,0,330,339,3929,40,51,898,1850,1976,2143,2250,2165,1843,1954,2178
717605,32244,24248,40438,40438,281,326,-14,10,3,45,324,3882,27,49,897,1850,1976,2143,2250,2165,1843,1954,2178
718606,32304,24324,40503,40503,231,325,-15,8,16,126,371,3887,24,42,897,1852,1978,2144,2249,2165,1842,1953,2176
719607,32364,24436,40568,40568,231,99,-16,5,19,-310,300,3926,34,48,898,1852,1978,2144,2249,2165,1842,1953,2176
720608,32412,24516,40633,40633,306,299,-17,1,7,-39,259,3845,42,51,899,1852,1978,2144,2249,2165,1842,1953,2176
721609,32484,24592,40698,40698,156,324,-15,-3,6,15,252,3914,25,39,898,1852,1978,2144,2249,2165,1842,1953,2176
722610,32552,24680,40763,40763,181,248,-22,-12,-2,-67,297,3851,43,52,898,1852,1978,2144,2249,2165,1842,1953,2176
723611,32608,24764,40828,40828,256,273,-21,-4,-18,72,322,3986,39,48,898,1847,1971,2137,2243,2166,1842,1954,2176
724612,32672,24876,40893,40893,206,97,-23,-18,-17,106,309,3765,24,39,898,1847,1971,2137,2243,2166,1842,1954,2176
725613,32728,24956,40958,40958,256,296,-25,-14,-21,-31,291,4009,29,38,899,1847,1971,2137,2243,2166,1842,1954,2176
726614,32780,25052,41023,41023,282,195,-20,-10,-18,189,286,3916,30,39,898,1847,1971,2137,2243,2166,1842,1954,2176
727617,32844,25124,41088,41088,207,345,-18,-8,-14,228,280,3828,34,48,897,1847,1971,2137,2243,2166,1842,1954,2176
728616,32884,25196,41153,41153,357,345,-19,4,-3,282,280,3875,24,38,898,1847,1971,2137,2243,2166,1842,1954,2176
729617,32956,25292,41218,41218,157,194,-12,-11,5,385,295,3995,30,48,897,1845,1972,2137,2243,2166,1843,1953,2179
730618,33016,25404,41283,41283,232,93,-12,14,14,235,302,3844,40,50,899,1845,1972,2137,2243,2166,1843,1953,2179
731619,33084,25476,41348,41348,182,343,-12,7,19,285,261,3815,38,35,899,1845,1972,2137,2243,2166,1843,1953,2179
732620,33148,25584,41413,41413,207,117,-9,21,24,195,270,4016,29,40,898,1845,1972,2137,2243,2166,1843,1953,2179
733621,33208,25672,41478,41478,232,241,-13,8,12,125,347,3916,23,48,898,1845,1972,2137,2243,2166,1843,1953,2179
734622,33272,25748,41543,41543,207,316,-17,4,4,-44,322,3780,32,45,897,1849,1974,2141,2247,2167,1844,1955,2177
735623,33340,25840,41608,41608,182,215,-18,-7,0,-124,296,3969,30,40,898,1849,1974,2141,2247,2167,1844,1955,2177
736624,33396,25932,41673,41673,258,215,-17,5,-11,35,334,3903,29,37,899,1849,1974,2141,2247,2167,1844,1955,2177
737625,33460,26024,41738,41738,208,214,-17,-4,-16,-24,302,3873,22,46,899,1849,1974,2141,2247,2167,1844,1955,2177
738626,33508,26108,41803,41803,308,264,-23,-3,-17,-106,289,3911,35,35,899,1849,1974,2141,2247,2167,1844,1955,2177
739627,33568,26212,41868,41868,233,138,-20,-12,-17,60,290,3986,25,47,898,1849,1974,2141,2247,2167,1844,1955,2177
740628,33608,26292,41933,41933,359,287,-20,-12,-8,58,267,3857,40,36,899,1851,1977,2141,2251,2166,1844,1956,2178
741629,33660,26372,41998,41998,284,287,-22,-13,4,8,235,3865,30,49,898,1851,1977,2141,2251,2166,1844,1956,2178
742630,33728,26456,42063,42063,184,262,-15,-4,4,163,212,3925,26,41,898,1851,1977,2141,2251,2166,1844,1956,2178
743631,33780,26540,42128,42128,284,261,-11,-9,9,366,216,3884,40,40,898,1851,1977,2141,2251,2166,1844,1956,2178
744632,33840,26612,42193,42193,234,336,-15,-1,11,222,300,3953,24,35,898,1851,1977,2141,2251,2166,1844,1956,2178
745633,33908,26704,42258,42258,184,210,-13,-2,6,277,324,3889,37,37,898,1851,1975,2139,2247,2159,1839,1950,2171
746634,33956,26764,42323,42323,310,410,-10,13,0,288,293,3877,25,46,899,1851,1975,2139,2247,2159,1839,1950,2171
747635,34020,26848,42388,42388,210,260,-7,11,2,225,343,3912,26,46,897,1851,1975,2139,2247,2159,1839,1950,2171
748636,34064,26932,42453,42453,335,259,-11,12,-3,207,340,3865,42,40,898,1851,1975,2139,2247,2159,1839,1950,2171
749637,34124,27024,42518,42518,235,209,-15,10,-2,52,307,3927,33,41,898,1851,1975,2139,2247,2159,1839,1950,2171
750638,34180,27104,42583,42583,261,283,-18,0,1,26,263,3849,39,43,898,1851,1975,2139,2247,2159,1839,1950,2171
751639,34244,27184,42648,42648,211,283,-12,5,-1,92,310,3933,26,42,896,1852,1977,2144,2248,2160,1838,1950,2172
752640,34304,27280,42713,42713,236,182,-18,2,2,-72,214,3835,40,39,898,1852,1977,2144,2248,2160,1838,1950,2172
753641,34384,27372,42778,42778,110,207,-16,-2,6,113,216,3913,24,35,899,1852,1977,2144,2248,2160,1838,1950,2172
754642,34424,27432,42843,42843,361,407,-15,1,9,102,270,3930,29,47,899,1852,1977,2144,2248,2160,1838,1950,2172
755643,34496,27516,42908,42908,161,256,-12,1,3,-23,286,3900,36,45,897,1852,1977,2144,2248,2160,1838,1950,2172
756644,34548,27608,42973,42973,286,206,-10,-3,1,123,297,3888,36,37,899,1847,1974,2138,2247,2165,1843,1953,2177
757645,34604,27692,43038,43038,261,255,-9,2,0,121,306,3879,31,38,898,1847,1974,2138,2247,2165,1843,1953,2177
758646,34680,27776,43103,43103,136,255,-11,7,-1,185,366,3836,26,37,898,1847,1974,2138,2247,2165,1843,1953,2177
759647,34736,27844,43168,43168,261,355,-16,-3,0,126,303,3933,32,36,899,1847,1974,2138,2247,2165,1843,1953,2177
760648,34788,27940,43233,43233,287,179,-18,3,2,147,333,3826,31,37,898,1847,1974,2138,2247,2165,1843,1953,2177
761649,34852,28004,43298,43298,212,379,-23,-12,5,193,351,3925,30,36,899,1849,1975,2141,2249,2166,1844,1954,2178
762650,34908,28072,43363,43363,262,354,-21,3,7,110,266,3833,25,46,898,1849,1975,2141,2249,2166,1844,1954,2178
763651,34976,28168,43428,43428,187,178,-25,-12,13,60,267,3966,25,45,897,1849,1975,2141,2249,2166,1844,1954,2178
764652,35024,28216,43493,43493,312,478,-21,-7,7,136,296,3813,33,43,899,1849,1975,2141,2249,2166,1844,1954,2178
765653,35108,28312,43558,43558,87,178,-22,-3,9,28,254,3980,27,41,896,1849,1975,2141,2249,2166,1844,1954,2178
766654,35164,28380,43623,43623,262,353,-21,-12,5,29,268,3820,37,34,900,1849,1975,2141,2249,2166,1844,1954,2178
767655,35212,28460,43688,43688,312,277,-21,3,6,91,246,3907,37,43,898,1847,1978,2143,2252,2172,1848,1956,2180
768656,35280,28556,43753,43753,187,177,-16,-7,0,172,301,3924,41,47,896,1847,1978,2143,2252,2172,1848,1956,2180
769657,35356,28624,43818,43818,137,351,-13,1,-9,7,294,3872,41,36,899,1847,1978,2143,2252,2172,1848,1956,2180
770658,35412,28712,43883,43883,262,226,-13,3,-6,245,268,3899,29,34,899,1847,1978,2143,2252,2172,1848,1956,2180
771659,35476,28800,43948,43948,212,225,-10,10,-8,222,329,3980,31,43,899,1847,1978,2143,2252,2172,1848,1956,2180
772660,35528,28864,44013,44013,288,375,-7,2,-9,280,337,3803,42,43,899,1849,1976,2141,2249,2165,1843,1955,2177
773661,35584,28948,44078,44078,263,250,-10,15,0,153,320,3944,26,34,897,1849,1976,2141,2249,2165,1843,1955,2177
774662,35656,29032,44143,44143,163,249,-15,3,12,74,323,3936,29,36,898,1849,1976,2141,2249,2165,1843,1955,2177
775663,35724,29096,44208,44208,188,374,-17,6,20,271,360,3884,38,46,899,1849,1976,2141,2249,2165,1843,1955,2177
776664,35788,29176,44273,44273,213,274,-19,11,19,92,395,3889,31,41,898,1849,1976,2141,2249,2165,1843,1955,2177
777666,35848,29252,44338,44338,238,299,-24,-9,16,-82,326,3843,25,36,899,1849,1976,2141,2249,2165,1843,1955,2177
778666,35908,29336,44403,44403,238,248,-24,5,2,-40,326,4008,41,37,898,1850,1976,2139,2248,2165,1841,1954,2177
779667,35964,29400,44468,44468,263,373,-17,2,-5,38,214,3805,27,43,899,1850,1976,2139,2248,2165,1841,1954,2177
780668,36040,29484,44533,44533,138,248,-9,1,-10,67,189,3987,29,35,898,1850,1976,2139,2248,2165,1841,1954,2177
781669,36108,29572,44598,44598,188,222,-2,6,-18,5,238,4000,26,34,899,1850,1976,2139,2248,2165,1841,1954,2177
782670,36176,29644,44663,44663,188,322,2,11,-13,81,157,3848,43,44,899,1850,1976,2139,2248,2165,1841,1954,2177
783671,36228,29716,44728,44728,288,322,11,11,-9,249,247,3914,24,45,898,1848,1975,2141,2249,2167,1843,1954,2175
784672,36292,29788,44793,44793,213,322,6,13,4,94,266,3917,24,48,898,1848,1975,2141,2249,2167,1843,1954,2175
785673,36364,29852,44858,44858,163,372,1,9,10,217,313,3943,27,44,897,1848,1975,2141,2249,2167,1843,1954,2175
786674,36436,29932,44923,44923,163,271,-6,9,16,264,317,3800,32,39,898,1848,1975,2141,2249,2167,1843,1954,2175
787675,36492,30016,44988,44988,263,246,-9,14,7,257,378,3930,34,40,899,1848,1975,2141,2249,2167,1843,1954,2175
788676,36572,30108,45053,45053,113,195,-15,13,1,101,362,3856,42,38,899,1848,1975,2141,2249,2167,1843,1954,2175
789677,36628,30180,45118,45118,263,320,-17,8,-3,121,363,3868,39,32,900,1851,1976,2140,2252,2165,1844,1957,2178
790678,36692,30260,45183,45183,213,270,-14,1,-3,238,303,3927,41,31,898,1851,1976,2140,2252,2165,1844,1957,2178
791679,36752,30348,45248,45248,238,219,-14,-1,-5,33,354,3828,33,45,899,1851,1976,2140,2252,2165,1844,1957,2178
792680,36808,30432,45313,45313,263,244,-17,4,3,-27,255,3994,24,30,899,1851,1976,2140,2252,2165,1844,1957,2178
793681,36880,30488,45378,45378,163,419,-14,7,5,99,298,3909,27,41,899,1851,1976,2140,2252,2165,1844,1957,2178
794682,36940,30544,45443,45443,238,419,-14,0,6,-53,274,3913,37,38,898,1851,1978,2142,2252,2172,1848,1960,2181
795683,36996,30624,45508,45508,263,269,-9,6,11,89,231,3931,37,37,898,1851,1978,2142,2252,2172,1848,1960,2181
796684,37068,30692,45573,45573,163,344,-5,7,11,104,295,3876,25,29,899,1851,1978,2142,2252,2172,1848,1960,2181
797685,37128,30744,45638,45638,238,444,-5,12,6,100,269,3914,35,32,899,1851,1978,2142,2252,2172,1848,1960,2181
798686,37196,30796,45703,45703,188,444,-4,10,1,107,268,3928,39,34,898,1851,1978,2142,2252,2172,1848,1960,2181
799687,37248,30880,45768,45768,289,244,-6,5,-1,194,309,3800,26,35,898,1851,1978,2142,2252,2172,1848,1960,2181
800688,37312,30952,45833,45833,214,319,-8,7,-2,185,327,3924,30,38,899,1850,1978,2142,2251,2169,1846,1959,2182
801689,37372,31028,45898,45898,239,294,-17,-2,2,68,373,3884,25,32,898,1850,1978,2142,2251,2169,1846,1959,2182
802690,37424,31072,45963,45963,289,494,-21,5,-2,67,357,3898,27,42,897,1850,1978,2142,2251,2169,1846,1959,2182
803691,37492,31144,46028,46028,189,319,-25,0,2,193,353,3930,24,40,897,1850,1978,2142,2251,2169,1846,1959,2182
804692,37560,31216,46093,46093,189,319,-24,-9,8,78,268,3788,28,43,898,1850,1978,2142,2251,2169,1846,1959,2182
805693,37608,31276,46158,46158,314,394,-20,-1,7,173,322,4114,24,36,898,1856,1980,2141,2253,2168,1846,1963,2185
806694,37668,31348,46223,46223,239,319,-26,2,6,35,313,3735,26,30,898,1856,1980,2141,2253,2168,1846,1963,2185
807695,37752,31424,46288,46288,89,293,-23,-11,7,67,289,3882,42,32,898,1856,1980,2141,2253,2168,1846,1963,2185
808696,37796,31504,46353,46353,339,268,-31,-3,3,104,304,3878,28,35,899,1856,1980,2141,2253,2168,1846,1963,2185
809697,37868,31560,46418,46418,164,418,-21,-2,-3,121,310,3958,30,43,898,1856,1980,2141,2253,2168,1846,1963,2185
810698,37928,31620,46483,46483,239,393,-25,-4,-5,96,371,3819,31,29,898,1856,1980,2141,2253,2168,1846,1963,2185
811699,37992,31712,46548,46548,214,193,-24,-10,-5,23,317,3970,29,34,898,1854,1983,2142,2255,2171,1846,1970,2188
812700,38048,31776,46613,46613,265,368,-24,-5,0,57,311,3918,29,31,899,1854,1983,2142,2255,2171,1846,1970,2188
813701,38120,31864,46678,46678,164,217,-32,-8,14,72,332,3810,24,35,898,1854,1983,2142,2255,2171,1846,1970,2188
814702,38196,31932,46743,46743,139,342,-36,-3,17,186,325,3909,41,43,899,1854,1983,2142,2255,2171,1846,1970,2188
815703,38252,31984,46808,46808,264,442,-38,-4,13,57,294,3921,42,36,899,1854,1983,2142,2255,2171,1846,1970,2188
816704,38308,32072,46873,46873,265,217,-38,-10,5,76,273,3885,37,42,897,1857,1986,2141,2257,2178,1852,1974,2192
817705,38364,32144,46938,46938,265,317,-33,-6,-3,152,278,3901,41,35,899,1857,1986,2141,2257,2178,1852,1974,2192
818706,38444,32224,47003,47003,114,266,-40,-10,-9,174,268,3884,31,43,898,1857,1986,2141,2257,2178,1852,1974,2192
819707,38504,32284,47068,47068,240,391,-43,-5,-11,100,266,3858,39,34,897,1857,1986,2141,2257,2178,1852,1974,2192
820708,38560,32352,47133,47133,265,341,-38,-9,-8,223,269,4014,39,30,898,1857,1986,2141,2257,2178,1852,1974,2192
821709,38632,32412,47198,47198,165,391,-34,3,2,148,252,3863,27,42,898,1857,1986,2141,2257,2178,1852,1974,2192
822710,38684,32500,47263,47263,290,216,-35,0,5,313,310,3824,37,47,898,1857,1985,2140,2258,2183,1859,1982,2199
823711,38736,32560,47328,47328,290,391,-36,3,12,140,280,3914,39,33,899,1857,1985,2140,2258,2183,1859,1982,2199
824712,38808,32632,47393,47393,165,316,-34,0,10,195,354,3849,39,34,897,1857,1985,2140,2258,2183,1859,1982,2199
825713,38876,32716,47458,47458,190,240,-36,-1,13,36,279,3930,30,34,899,1857,1985,2140,2258,2183,1859,1982,2199
826714,38940,32788,47523,47523,215,315,-38,2,9,148,258,3975,38,32,899,1857,1985,2140,2258,2183,1859,1982,2199
827715,39000,32860,47588,47588,240,315,-34,5,7,135,330,3968,23,38,898,1853,1983,2134,2254,2183,1856,1981,2195
828716,39072,32912,47653,47653,165,440,-33,12,2,-50,328,3892,36,46,898,1853,1983,2134,2254,2183,1856,1981,2195
829717,39116,32988,47718,47718,341,290,-39,-2,6,-97,278,3884,28,44,898,1853,1983,2134,2254,2183,1856,1981,2195
830718,39176,33052,47783,47783,241,365,-38,4,0,25,296,3902,40,41,898,1853,1983,2134,2254,2183,1856,1981,2195
831719,39244,33148,47848,47848,191,164,-41,-5,5,31,285,3920,43,46,898,1853,1983,2134,2254,2183,1856,1981,2195
832720,39316,33220,47913,47913,165,314,-42,-3,-3,167,325,3800,36,34,899,1853,1983,2134,2254,2183,1856,1981,2195
833721,39380,33296,47978,47978,215,289,-41,-3,3,120,276,4002,30,45,899,1855,1987,2135,2258,2185,1857,1985,2198
834722,39436,33356,48043,48043,266,389,-37,4,5,170,339,3877,42,36,898,1855,1987,2135,2258,2185,1857,1985,2198
835723,39504,33432,48108,48108,191,289,-41,4,8,122,322,3886,30,36,898,1855,1987,2135,2258,2185,1857,1985,2198
836724,39572,33496,48173,48173,190,364,-48,-2,12,157,248,3969,25,37,898,1855,1987,2135,2258,2185,1857,1985,2198
837725,39644,33584,48238,48238,165,213,-46,-1,12,300,302,3847,24,45,898,1855,1987,2135,2258,2185,1857,1985,2198
838726,39700,33672,48303,48303,266,213,-43,0,13,244,297,3975,26,32,899,1857,1991,2138,2262,2184,1858,1990,2202
839727,39776,33720,48368,48368,140,463,-43,8,-1,143,313,3918,43,38,899,1857,1991,2138,2262,2184,1858,1990,2202
840728,39840,33796,48433,48433,215,288,-46,10,-9,136,271,3903,42,44,898,1857,1991,2138,2262,2184,1858,1990,2202
841729,39900,33876,48498,48498,240,262,-42,15,-8,272,266,3939,42,46,899,1857,1991,2138,2262,2184,1858,1990,2202
842730,39956,33956,48563,48563,266,262,-38,0,-7,-12,318,3865,37,37,898,1857,1991,2138,2262,2184,1858,1990,2202
843731,40028,34016,48628,48628,165,387,-41,-1,-3,-15,311,3896,40,39,898,1857,1991,2138,2262,2184,1858,1990,2202
844732,40092,34104,48693,48693,215,212,-49,-10,2,-47,310,3909,39,33,898,1862,1996,2139,2265,2185,1858,1991,2202
845733,40152,34172,48758,48758,241,337,-50,-6,12,38,288,3893,42,41,899,1862,1996,2139,2265,2185,1858,1991,2202
846734,40220,34220,48823,48823,191,462,-49,-5,19,145,357,3897,30,37,898,1862,1996,2139,2265,2185,1858,1991,2202
847735,40296,34292,48888,48888,140,312,-52,-15,24,81,323,3830,28,44,897,1862,1996,2139,2265,2185,1858,1991,2202
848736,40356,34360,48953,48953,240,337,-55,-11,18,140,350,3918,38,45,899,1862,1996,2139,2265,2185,1858,1991,2202
849737,40432,34428,49152,49152,143,340,-54,-9,7,24,296,3874,44,34,898,1867,2002,2144,2271,2187,1860,1994,2203
850738,40492,34508,49217,49217,244,265,-50,-4,1,188,331,3926,28,44,899,1867,2002,2144,2271,2187,1860,1994,2203
851739,40560,34572,49282,49282,193,365,-50,-3,-9,203,320,3856,42,34,899,1867,2002,2144,2271,2187,1860,1994,2203
852740,40640,34652,49347,49347,118,264,-48,-10,-14,-45,265,3896,26,35,898,1867,2002,2144,2271,2187,1860,1994,2203
853741,40708,34732,49412,49412,193,264,-44,-2,-16,149,281,3921,28,48,897,1867,2002,2144,2271,2187,1860,1994,2203
854742,40776,34804,49477,49477,193,314,-42,-4,-13,214,235,3838,31,34,899,1867,2002,2144,2271,2187,1860,1994,2203
855743,40844,34872,49542,49542,193,339,-38,-6,-3,164,262,3995,39,36,899,1868,2001,2142,2271,2183,1860,1996,2204
856744,40920,34952,49607,49607,143,263,-37,-12,0,55,236,3811,33,39,898,1868,2001,2142,2271,2183,1860,1996,2204
857745,40996,35024,49672,49672,142,313,-41,-14,11,43,215,3985,33,40,899,1868,2001,2142,2271,2183,1860,1996,2204
858746,41040,35080,49737,49737,343,413,-37,0,14,195,289,3870,44,36,899,1868,2001,2142,2271,2183,1860,1996,2204
859747,41128,35172,49802,49802,67,188,-41,-2,13,217,290,3874,44,44,897,1868,2001,2142,2271,2183,1860,1996,2204
860748,41180,35252,49867,49867,293,262,-42,-3,2,158,283,3916,39,43,900,1869,2002,2141,2272,2180,1855,1992,2198
861749,41256,35316,49932,49932,142,362,-38,-1,1,163,247,3859,43,39,898,1869,2002,2141,2272,2180,1855,1992,2198
862750,41312,35384,49997,49997,268,337,-34,2,-2,163,327,3951,30,43,898,1869,2002,2141,2272,2180,1855,1992,2198
863751,41380,35452,50062,50062,192,337,-31,-1,-6,45,284,3967,41,32,898,1869,2002,2141,2272,2180,1855,1992,2198
864752,41456,35520,50127,50127,142,337,-31,1,-2,-50,260,3879,48,46,898,1869,2002,2141,2272,2180,1855,1992,2198
865753,41536,35604,50192,50192,117,237,-32,-3,7,113,244,3857,31,46,899,1869,2002,2141,2272,2180,1855,1992,2198
866754,41600,35676,50257,50257,217,311,-33,6,5,240,244,3906,45,46,899,1871,2006,2142,2273,2184,1858,1995,2201
867755,41684,35752,50322,50322,91,286,-26,-6,-1,99,282,3840,29,34,899,1871,2006,2142,2273,2184,1858,1995,2201
868756,41740,35808,50387,50387,267,411,-25,-2,7,238,285,3970,41,39,899,1871,2006,2142,2273,2184,1858,1995,2201
869757,41816,35892,50452,50452,141,236,-24,0,4,102,290,3956,29,39,898,1871,2006,2142,2273,2184,1858,1995,2201
870758,41900,35960,50517,50517,91,336,-21,-4,-1,-4,323,3892,34,41,898,1871,2006,2142,2273,2184,1858,1995,2201
871759,41980,36040,50582,50582,116,261,-23,1,10,201,246,3863,35,32,899,1870,2005,2142,2271,2188,1862,2001,2208
872760,42068,36104,50647,50647,65,361,-27,1,18,211,298,3835,33,43,899,1870,2005,2142,2271,2188,1862,2001,2208
873761,42140,36196,50712,50712,165,185,-27,7,15,70,340,3949,29,32,899,1870,2005,2142,2271,2188,1862,2001,2208
874762,42208,36260,50777,50777,190,360,-33,-5,13,-57,330,3797,31,38,899,1870,2005,2142,2271,2188,1862,2001,2208
875763,42284,36336,50842,50842,139,285,-36,-2,0,147,315,3983,30,51,898,1870,2005,2142,2271,2188,1862,2001,2208
876764,42348,36400,50907,50907,214,360,-38,3,-6,232,283,3954,40,36,899,1870,2005,2142,2271,2188,1862,2001,2208
877765,42428,36476,50972,50972,114,284,-36,-4,-12,74,303,3849,32,43,898,1870,2007,2141,2271,2193,1865,2006,2213
878766,42508,36560,51037,51037,114,234,-36,-8,-9,142,248,3951,47,42,899,1870,2007,2141,2271,2193,1865,2006,2213
879767,42596,36616,51102,51102,63,409,-29,3,-5,123,199,3930,39,47,899,1870,2007,2141,2271,2193,1865,2006,2213
880768,42676,36696,51167,51167,113,259,-24,-3,9,-6,212,3883,35,39,899,1870,2007,2141,2271,2193,1865,2006,2213
881769,42772,36772,51232,51232,12,284,-22,-2,19,145,261,3909,31,47,899,1870,2007,2141,2271,2193,1865,2006,2213
882770,42860,36852,51297,51297,61,258,-23,-11,19,72,300,3789,31,38,900,1867,2003,2135,2267,2198,1870,2010,2216
883771,42940,36924,51362,51362,111,308,-31,-7,17,147,352,3894,43,47,899,1867,2003,2135,2267,2198,1870,2010,2216
884772,43052,37008,51427,51427,-90,233,-32,2,6,190,338,4016,46,53,899,1867,2003,2135,2267,2198,1870,2010,2216
885773,43148,37096,51492,51492,9,207,-37,-6,-1,178,372,3812,33,43,896,1867,2003,2135,2267,2198,1870,2010,2216
886774,43236,37164,51557,51557,59,332,-41,-9,-8,22,382,3857,45,48,900,1867,2003,2135,2267,2198,1870,2010,2216
887775,43312,37244,51622,51622,133,257,-49,-11,-8,34,367,3924,29,50,898,1867,2003,2135,2267,2198,1870,2010,2216
888776,43384,37348,51687,51687,158,106,-44,-1,-6,139,275,4021,28,49,899,1866,2002,2133,2267,2194,1866,2010,2214
889777,43460,37412,51752,51752,133,356,-46,-3,0,33,314,3894,42,42,900,1866,2002,2133,2267,2194,1866,2010,2214
890778,43540,37512,51817,51817,108,130,-47,-7,5,-49,291,3808,46,42,898,1866,2002,2133,2267,2194,1866,2010,2214
891779,43620,37584,51882,51882,107,305,-45,-12,8,-10,242,3894,38,41,900,1866,2002,2133,2267,2194,1866,2010,2214
892780,43688,37648,51947,51947,182,355,-40,-15,7,175,248,3926,32,52,899,1866,2002,2133,2267,2194,1866,2010,2214
893781,43764,37740,52012,52012,132,179,-42,-21,13,222,315,3813,30,47,898,1866,2002,2134,2269,2199,1870,2015,2218
894782,43844,37824,52077,52077,107,228,-49,-24,5,-221,296,3941,46,46,899,1866,2002,2134,2269,2199,1870,2015,2218
895783,43936,37908,52142,52142,31,228,-51,-10,1,185,252,4012,40,51,899,1866,2002,2134,2269,2199,1870,2015,2218
896784,44012,37980,52207,52207,131,303,-49,-12,2,462,293,3935,34,43,900,1866,2002,2134,2269,2199,1870,2015,2218
897785,44068,38068,52272,52272,256,202,-54,-8,-1,-30,353,3859,40,44,899,1866,2002,2134,2269,2199,1870,2015,2218
898786,44144,38160,52337,52337,131,177,-58,-11,-1,38,336,3901,37,53,899,1866,2002,2134,2269,2199,1870,2015,2218
899787,44208,38236,52402,52402,206,276,-60,-2,8,296,320,3936,37,54,900,1869,2010,2138,2276,2204,1874,2023,2223
900788,44284,38316,52467,52467,130,251,-60,-6,16,307,290,3940,41,53,899,1869,2010,2138,2276,2204,1874,2023,2223
901789,44380,38400,52532,52532,5,226,-65,-6,16,152,402,3885,31,44,899,1869,2010,2138,2276,2204,1874,2023,2223
902790,44464,38496,52597,52597,79,150,-68,1,2,67,322,3810,49,55,900,1869,2010,2138,2276,2204,1874,2023,2223
903791,44544,38580,52662,52662,104,224,-71,-2,4,131,307,4003,38,44,900,1869,2010,2138,2276,2204,1874,2023,2223
904792,44616,38680,52727,52727,154,123,-77,6,3,29,321,3881,33,47,898,1874,2015,2139,2279,2208,1876,2029,2229
905793,44696,38760,52792,52792,103,248,-79,-1,1,14,314,3893,41,45,900,1874,2015,2139,2279,2208,1876,2029,2229
906794,44760,38844,52857,52857,203,223,-78,-16,-3,28,268,3900,35,58,899,1874,2015,2139,2279,2208,1876,2029,2229
907795,44828,38928,52922,52922,178,222,-73,-18,5,69,242,4017,33,50,899,1874,2015,2139,2279,2208,1876,2029,2229
908796,44916,39012,52987,52987,53,222,-72,-16,8,44,268,3847,47,51,899,1874,2015,2139,2279,2208,1876,2029,2229
909797,44992,39120,53052,53052,127,71,-67,-10,8,28,236,3968,39,43,900,1874,2015,2139,2279,2208,1876,2029,2229
910798,45056,39196,53117,53117,202,270,-64,-9,6,291,236,3867,33,49,900,1871,2015,2136,2278,2209,1876,2032,2228
911799,45132,39276,53182,53182,127,245,-61,-12,10,-43,250,3758,36,56,899,1871,2015,2136,2278,2209,1876,2032,2228
912800,45220,39348,53247,53247,51,295,-62,-20,5,156,331,3918,52,46,899,1871,2015,2136,2278,2209,1876,2032,2228
913801,45304,39444,53312,53312,76,144,-60,-8,0,261,279,4009,35,53,899,1871,2015,2136,2278,2209,1876,2032,2228
914802,45372,39516,53377,53377,176,294,-64,-9,3,264,280,3837,43,60,900,1871,2015,2136,2278,2209,1876,2032,2228
915803,45452,39620,53442,53442,101,93,-68,-13,1,244,326,3816,35,61,899,1874,2019,2135,2281,2203,1872,2031,2226
916804,45540,39676,53507,53507,50,393,-76,-4,-2,38,289,4028,46,60,900,1874,2019,2135,2281,2203,1872,2031,2226
917805,45632,39788,53572,53572,24,42,-74,5,-2,288,337,3851,34,46,899,1874,2019,2135,2281,2203,1872,2031,2226
918806,45704,39884,53637,53637,149,141,-78,-4,8,315,326,3868,51,54,901,1874,2019,2135,2281,2203,1872,2031,2226
919807,45788,39976,53702,53702,74,166,-86,-11,7,-38,370,3873,48,57,900,1874,2019,2135,2281,2203,1872,2031,2226
920808,45852,40072,53767,53767,199,140,-93,-22,17,-111,262,3843,43,55,900,1874,2019,2135,2281,2203,1872,2031,2226
921809,45936,40152,53832,53832,73,239,-94,-17,26,63,262,3887,32,61,898,1879,2023,2135,2284,2202,1873,2035,2229
922810,46036,40248,53897,53897,-28,139,-88,-16,25,-90,233,4019,49,46,900,1879,2023,2135,2284,2202,1873,2035,2229
923811,46120,40356,53962,53962,72,63,-84,-15,18,186,224,3867,33,43,900,1879,2023,2135,2284,2202,1873,2035,2229
924812,46200,40420,54027,54027,97,338,-79,-29,15,233,222,3744,44,49,900,1879,2023,2135,2284,2202,1873,2035,2229
925813,46276,40524,54092,54092,121,87,-71,-26,2,16,184,3988,35,46,899,1879,2023,2135,2284,2202,1873,2035,2229
926814,46352,40616,54157,54157,121,161,-65,-19,-4,385,238,3922,51,55,900,1880,2025,2137,2287,2213,1879,2039,2238
927815,46424,40708,54222,54222,146,160,-60,-16,-21,127,239,3793,45,51,900,1880,2025,2137,2287,2213,1879,2039,2238
928816,46504,40784,54287,54287,96,260,-49,-14,-11,276,202,3975,43,59,900,1880,2025,2137,2287,2213,1879,2039,2238
929817,46584,40876,54352,54352,95,160,-48,-8,-5,229,293,3955,33,60,899,1880,2025,2137,2287,2213,1879,2039,2238
930818,46648,40972,54417,54417,195,134,-48,-16,1,-273,271,3910,32,51,900,1880,2025,2137,2287,2213,1879,2039,2238
931819,46736,41060,54482,54482,45,183,-52,-12,8,73,309,3974,45,62,899,1880,2025,2137,2287,2213,1879,2039,2238
932820,46824,41148,54547,54547,44,183,-51,-6,18,149,280,3874,48,56,900,1884,2030,2140,2292,2209,1878,2043,2231
933821,46884,41248,54612,54612,219,107,-56,-9,18,-87,310,3955,35,55,900,1884,2030,2140,2292,2209,1878,2043,2231
934822,46976,41360,54677,54677,19,31,-64,-18,15,12,289,3816,39,49,900,1884,2030,2140,2292,2209,1878,2043,2231
935823,47056,41448,54742,54742,93,180,-61,-19,9,96,211,4017,41,54,901,1884,2030,2140,2292,2209,1878,2043,2231
936824,47152,41516,54807,54807,-8,305,-58,-9,1,276,227,3870,35,51,900,1884,2030,2140,2292,2209,1878,2043,2231
937825,47204,41612,54872,54872,268,129,-49,-10,3,121,221,3824,49,51,900,1887,2034,2140,2294,2210,1876,2046,2234
938826,47276,41700,54937,54937,143,179,-48,-11,4,434,287,4045,50,50,898,1887,2034,2140,2294,2210,1876,2046,2234
939827,47380,41800,55002,55002,-58,103,-45,-6,-9,64,226,3864,36,62,900,1887,2034,2140,2294,2210,1876,2046,2234
940828,47468,41896,55067,55067,41,127,-40,1,-9,101,227,3954,43,59,900,1887,2034,2140,2294,2210,1876,2046,2234
941829,47560,41980,55132,55132,15,202,-40,0,-2,310,250,3776,38,47,901,1887,2034,2140,2294,2210,1876,2046,2234
942830,47624,42072,55197,55197,190,151,-39,3,-3,114,279,3984,35,61,900,1887,2034,2140,2294,2210,1876,2046,2234
943831,47720,42136,55262,55262,-10,326,-33,9,-1,140,279,3908,49,46,899,1884,2031,2135,2290,2209,1878,2047,2235
944832,47796,42232,55327,55327,114,125,-33,3,2,215,248,3826,49,52,899,1884,2031,2135,2290,2209,1878,2047,2235
945833,47880,42328,55392,55392,64,124,-28,-6,11,57,167,3951,42,61,900,1884,2031,2135,2290,2209,1878,2047,2235
946834,47924,42432,55457,55457,314,73,-23,1,9,-390,239,4047,32,61,900,1884,2031,2135,2290,2209,1878,2047,2235
947835,48008,42532,55522,55522,64,98,-28,-6,17,-13,257,3764,35,60,899,1884,2031,2135,2290,2209,1878,2047,2235
948836,48096,42644,55587,55587,38,21,-25,-3,14,39,244,3913,35,49,900,1884,2032,2135,2292,2212,1879,2050,2237
949837,48184,42728,55652,55652,38,196,-32,-18,2,-196,415,3844,34,48,901,1884,2032,2135,2292,2212,1879,2050,2237
950838,48256,42812,55717,55717,138,196,-35,-12,6,215,238,3790,47,51,900,1884,2032,2135,2292,2212,1879,2050,2237
951839,48344,42916,55782,55782,37,70,-30,-9,2,609,319,4036,39,60,900,1884,2032,2135,2292,2212,1879,2050,2237
952841,48412,43020,55847,55847,162,69,-29,-14,-4,80,309,3899,42,50,901,1884,2032,2135,2292,2212,1879,2050,2237
953841,48476,43096,55912,55912,187,243,-33,-9,1,7,297,3903,49,61,900,1884,2032,2135,2292,2212,1879,2050,2237
954842,48568,43180,55977,55977,11,193,-31,3,3,379,250,3831,37,55,899,1886,2033,2137,2291,2211,1879,2058,2246
955843,48644,43280,56042,56042,111,92,-22,16,0,400,275,3881,48,53,898,1886,2033,2137,2291,2211,1879,2058,2246
956844,48720,43368,56107,56107,111,167,-27,-6,6,179,325,3879,37,51,900,1886,2033,2137,2291,2211,1879,2058,2246
957845,48804,43456,56172,56172,60,166,-30,-5,-1,-52,281,3975,47,51,900,1886,2033,2137,2291,2211,1879,2058,2246
958846,48876,43556,56237,56237,135,90,-28,-7,2,-9,265,3824,35,63,900,1886,2033,2137,2291,2211,1879,2058,2246
959847,48948,43660,56302,56302,135,64,-31,5,-1,266,292,4018,41,62,900,1887,2033,2135,2291,2222,1887,2060,2247
960848,49004,43744,56367,56367,235,189,-34,-11,5,-113,271,3801,40,48,900,1887,2033,2135,2291,2222,1887,2060,2247
961849,49084,43832,56432,56432,85,163,-34,-10,4,99,265,3881,46,52,899,1887,2033,2135,2291,2222,1887,2060,2247
962850,49200,43924,56497,56497,-141,137,-32,-8,5,84,241,3984,49,53,900,1887,2033,2135,2291,2222,1887,2060,2247
963851,49284,44008,56562,56562,58,187,-39,-8,3,-106,313,3916,35,63,892,1887,2033,2135,2291,2222,1887,2060,2247
964852,49332,44104,56627,56627,284,111,-33,2,9,17,205,3876,39,53,900,1887,2033,2135,2291,2222,1887,2060,2247
965853,49408,44212,56692,56692,108,35,-27,-5,7,297,270,3802,36,48,899,1882,2029,2132,2288,2228,1891,2064,2250
966854,49488,44292,56757,56757,83,210,-27,-16,6,108,311,4096,33,50,900,1882,2029,2132,2288,2228,1891,2064,2250
967855,49584,44364,56822,56822,-18,260,-32,-5,7,84,302,3723,33,60,900,1882,2029,2132,2288,2228,1891,2064,2250
968856,49672,44444,56887,56887,32,209,-37,-9,6,185,287,4085,33,48,900,1882,2029,2132,2288,2228,1891,2064,2250
969857,49716,44564,56952,56952,307,-42,-33,9,2,427,338,3847,32,61,900,1882,2029,2132,2288,2228,1891,2064,2250
970858,49792,44652,57017,57017,107,157,-42,-11,7,191,285,3786,32,62,899,1878,2027,2128,2284,2224,1888,2062,2249
971859,49888,44768,57082,57082,-19,-19,-42,-1,7,143,310,3879,35,63,900,1878,2027,2128,2284,2224,1888,2062,2249
972860,49960,44844,57147,57147,131,231,-46,8,1,181,276,4126,50,62,899,1878,2027,2128,2284,2224,1888,2062,2249
973861,50040,44924,57212,57212,81,206,-43,-5,1,-54,273,3653,33,49,899,1878,2027,2128,2284,2224,1888,2062,2249
974862,50128,45008,57277,57277,30,180,-42,4,4,398,295,4025,38,49,900,1878,2027,2128,2284,2224,1888,2062,2249
975863,50216,45124,57342,57342,29,-21,-37,1,-4,259,286,3965,46,48,900,1878,2027,2128,2284,2224,1888,2062,2249
976864,50276,45220,57407,57407,205,103,-39,-4,-3,-241,218,3819,42,48,901,1879,2030,2128,2287,2224,1889,2065,2250
977865,50356,45300,57472,57472,79,203,-40,-2,-3,-107,241,4030,49,58,900,1879,2030,2128,2287,2224,1889,2065,2250
978866,50412,45396,57537,57537,229,102,-41,2,5,127,287,3829,50,52,900,1879,2030,2128,2287,2224,1889,2065,2250
979867,50492,45500,57602,57602,79,51,-45,-16,8,197,358,3854,36,59,899,1879,2030,2128,2287,2224,1889,2065,2250
980868,50568,45596,57667,57667,104,100,-53,-19,11,-269,342,3990,47,53,900,1879,2030,2128,2287,2224,1889,2065,2250
981869,50648,45692,57732,57732,78,99,-57,-9,3,-58,317,3900,36,58,900,1882,2034,2132,2293,2225,1887,2067,2255
982870,50724,45788,57797,57797,103,99,-56,-18,5,323,301,3911,35,55,900,1882,2034,2132,2293,2225,1887,2067,2255
983871,50804,45876,57862,57862,78,148,-60,-17,8,103,283,3898,32,54,900,1882,2034,2132,2293,2225,1887,2067,2255
984872,50872,45968,57927,57927,153,122,-54,-1,4,508,269,3861,50,50,900,1882,2034,2132,2293,2225,1887,2067,2255
985873,50960,46060,57992,57992,27,122,-49,-3,-2,302,210,3930,38,61,900,1882,2034,2132,2293,2225,1887,2067,2255
986874,51020,46132,58057,58057,202,247,-45,7,3,325,239,3898,46,61,900,1888,2038,2134,2293,2228,1891,2072,2255
987875,51124,46224,58122,58122,-74,121,-43,16,6,246,225,3964,31,58,899,1888,2038,2134,2293,2228,1891,2072,2255
988876,51212,46332,58187,58187,26,20,-37,11,6,68,251,3973,45,63,899,1888,2038,2134,2293,2228,1891,2072,2255
989877,51288,46424,58252,58252,101,119,-45,-4,3,-37,285,3897,46,55,900,1888,2038,2134,2293,2228,1891,2072,2255
990878,51372,46536,58317,58317,50,-7,-54,-3,6,-277,330,3805,33,50,900,1888,2038,2134,2293,2228,1891,2072,2255
991879,51448,46640,58382,58382,100,42,-56,-4,7,51,293,3993,33,55,901,1888,2038,2134,2293,2228,1891,2072,2255
992880,51516,46728,58447,58447,150,142,-60,-20,9,-71,277,3763,43,56,901,1887,2039,2132,2298,2226,1888,2069,2250
993881,51588,46820,58512,58512,125,116,-61,-29,1,-218,285,3886,32,52,900,1887,2039,2132,2298,2226,1888,2069,2250
994882,51668,46912,58577,58577,74,115,-63,-25,-1,213,249,3835,44,47,900,1887,2039,2132,2298,2226,1888,2069,2250
995883,51756,47008,58642,58642,24,90,-58,-8,3,430,202,4076,48,49,901,1887,2039,2132,2298,2226,1888,2069,2250
996884,51824,47092,58707,58707,149,164,-47,-6,6,270,251,3883,31,50,901,1887,2039,2132,2298,2226,1888,2069,2250
997885,51888,47172,58772,58772,174,189,-42,3,1,344,281,3916,47,52,900,1886,2037,2129,2294,2223,1889,2072,2251
998886,51968,47264,58837,58837,73,113,-40,1,4,132,256,3894,33,59,900,1886,2037,2129,2294,2223,1889,2072,2251
999887,52040,47348,58902,58902,123,163,-41,4,6,271,300,4023,36,50,900,1886,2037,2129,2294,2223,1889,2072,2251
1000888,52120,47464,58967,58967,73,-39,-45,4,8,41,292,3797,36,50,900,1886,2037,2129,2294,2223,1889,2072,2251
1001889,52200,47540,59032,59032,72,211,-49,-4,8,-44,297,3845,33,48,901,1886,2037,2129,2294,2223,1889,2072,2251
1002890,52264,47632,59097,59097,172,110,-53,-14,7,-50,310,3917,30,52,900,1886,2037,2129,2294,2223,1889,2072,2251
1003891,52336,47724,59162,59162,122,110,-51,-12,7,-115,255,3927,32,64,900,1889,2040,2129,2297,2221,1887,2074,2251
1004892,52404,47796,59227,59227,147,235,-52,-18,4,206,244,3783,38,60,900,1889,2040,2129,2297,2221,1887,2074,2251
1005893,52472,47912,59292,59292,147,-42,-48,-4,4,197,208,4020,48,55,899,1889,2040,2129,2297,2221,1887,2074,2251
1006894,52548,47992,59357,59357,97,183,-49,-7,4,365,234,3926,46,49,899,1889,2040,2129,2297,2221,1887,2074,2251
1007895,52596,48060,59422,59422,272,258,-47,-1,0,14,268,3945,37,54,900,1889,2040,2129,2297,2221,1887,2074,2251
1008896,52688,48128,59487,59487,-4,258,-46,4,2,167,278,3894,36,64,899,1891,2044,2131,2298,2227,1891,2079,2255
1009897,52760,48188,59552,59552,121,308,-43,12,1,445,295,3886,46,63,900,1891,2044,2131,2298,2227,1891,2079,2255
1010898,52852,48324,59617,59617,-4,-169,-44,-1,7,220,291,3829,33,59,899,1891,2044,2131,2298,2227,1891,2079,2255
1011899,52908,48440,59682,59682,221,-45,-44,-2,9,20,280,3980,37,50,900,1891,2044,2131,2298,2227,1891,2079,2255
1012900,52984,48548,59747,59747,96,4,-51,2,10,-396,349,3942,49,63,900,1891,2044,2131,2298,2227,1891,2079,2255
1013901,53068,48608,59812,59812,45,304,-55,4,10,-271,203,3942,50,64,900,1891,2044,2131,2298,2227,1891,2079,2255
1014902,53152,48736,59877,59877,45,-123,-59,-15,7,115,200,3778,48,48,900,1892,2048,2131,2300,2231,1894,2085,2262
1015903,53204,48836,59942,59942,245,52,-43,-32,0,386,288,3711,49,53,900,1892,2048,2131,2300,2231,1894,2085,2262
1016904,53308,48944,60007,60007,-81,1,-49,-20,-2,-212,210,4233,39,47,899,1892,2048,2131,2300,2231,1894,2085,2262
1017905,53356,49024,60072,60072,269,175,-40,-15,-4,328,204,3571,51,56,898,1892,2048,2131,2300,2231,1894,2085,2262
1018906,53428,49104,60137,60137,119,175,-32,5,0,486,249,4054,34,58,899,1892,2048,2131,2300,2231,1894,2085,2262
1019907,53508,49196,60202,60202,69,99,-33,-13,-3,593,274,3716,47,45,900,1891,2047,2130,2300,2232,1894,2088,2264
1020908,53584,49316,60267,60267,94,-77,-29,6,9,302,304,4103,33,57,901,1891,2047,2130,2300,2232,1894,2088,2264
1021909,53668,49396,60332,60332,43,172,-41,9,12,77,447,3799,33,46,900,1891,2047,2130,2300,2232,1894,2088,2264
1022910,53744,49484,60397,60397,93,122,-47,21,10,137,300,3921,48,47,900,1891,2047,2130,2300,2232,1894,2088,2264
1023911,53804,49580,60462,60462,193,71,-51,8,11,194,349,3785,39,51,899,1891,2047,2130,2300,2232,1894,2088,2264
1024912,53888,49668,60527,60527,43,121,-57,-5,11,-221,306,3756,46,55,900,1891,2047,2130,2300,2232,1894,2088,2264
1025913,53984,49760,60592,60592,-33,95,-55,-5,5,-247,234,3844,52,55,900,1889,2045,2126,2298,2232,1894,2089,2261
1026914,54064,49856,60657,60657,66,69,-54,-7,6,-92,175,4064,34,60,901,1889,2045,2126,2298,2232,1894,2089,2261
1027915,54144,49944,60722,60722,66,119,-47,-10,0,0,211,3826,31,56,900,1889,2045,2126,2298,2232,1894,2089,2261
1028916,54208,50028,60787,60787,166,143,-33,-6,0,41,122,4053,39,62,900,1889,2045,2126,2298,2232,1894,2089,2261
1029917,54276,50120,60852,60852,141,93,-29,-13,3,131,178,3816,38,60,899,1889,2045,2126,2298,2232,1894,2089,2261
1030918,54372,50216,60917,60917,-35,67,-28,-18,9,22,240,3860,42,49,900,1888,2042,2124,2297,2236,1899,2093,2267
1031919,54456,50320,60982,60982,40,16,-28,-13,7,153,334,4025,34,50,901,1888,2042,2124,2297,2236,1899,2093,2267
1032920,54536,50388,61047,61047,64,241,-34,-1,6,371,301,3879,34,48,901,1888,2042,2124,2297,2236,1899,2093,2267
1033921,54628,50492,61112,61112,-11,15,-32,-6,7,470,317,3773,34,43,899,1888,2042,2124,2297,2236,1899,2093,2267
1034922,54696,50572,61177,61177,139,164,-38,3,5,355,343,3997,32,51,901,1888,2042,2124,2297,2236,1899,2093,2267
1035923,54768,50664,61242,61242,114,89,-45,11,1,190,335,3775,41,49,900,1888,2042,2124,2297,2236,1899,2093,2267
1036924,54832,50776,61307,61307,164,-37,-50,7,5,220,260,4009,41,47,900,1891,2047,2126,2301,2235,1899,2096,2269
1037925,54912,50884,61372,61372,63,-13,-46,7,5,138,229,3837,33,48,900,1891,2047,2126,2301,2235,1899,2096,2269
1038926,54996,50968,61437,61437,38,136,-46,-2,5,-81,279,4027,33,46,900,1891,2047,2126,2301,2235,1899,2096,2269
1039927,55080,51048,61502,61502,37,161,-45,0,4,-43,238,3854,34,57,900,1891,2047,2126,2301,2235,1899,2096,2269
1040928,55140,51136,61567,61567,187,110,-42,-8,2,14,176,3917,48,59,899,1891,2047,2126,2301,2235,1899,2096,2269
1041929,55216,51244,61632,61632,87,-16,-39,5,7,288,224,3887,30,55,899,1889,2048,2126,2298,2242,1902,2100,2272
1042930,55280,51324,61697,61697,162,159,-36,1,6,-280,222,3978,41,49,900,1889,2048,2126,2298,2242,1902,2100,2272
1043931,55372,51404,61762,61762,-13,158,-38,-9,11,-42,209,3936,31,47,899,1889,2048,2126,2298,2242,1902,2100,2272
1044932,55452,51512,61827,61827,61,-18,-30,-6,4,154,252,3806,36,51,900,1889,2048,2126,2298,2242,1902,2100,2272
1045933,55520,51596,61892,61892,136,132,-28,-22,9,113,294,3843,30,56,901,1889,2048,2126,2298,2242,1902,2100,2272
1046934,55584,51692,61957,61957,161,56,-30,-10,1,2,346,4102,34,58,900,1889,2048,2126,2298,2242,1902,2100,2272
1047935,55668,51784,62022,62022,36,80,-37,-6,0,106,306,3818,36,43,900,1887,2043,2121,2295,2242,1902,2103,2276
1048936,55736,51892,62087,62087,136,-21,-33,-17,-2,125,240,3826,38,43,901,1887,2043,2121,2295,2242,1902,2103,2276
1049937,55800,51964,62152,62152,161,204,-37,-23,4,433,300,3771,29,44,901,1887,2043,2121,2295,2242,1902,2103,2276
1050938,55856,52024,62217,62217,211,279,-33,-2,2,186,326,4022,37,58,900,1887,2043,2121,2295,2242,1902,2103,2276
1051939,55940,52092,62282,62282,35,229,-38,1,0,285,255,3729,32,48,899,1887,2043,2121,2295,2242,1902,2103,2276
1052940,56012,52196,62347,62347,110,3,-38,11,-2,547,311,3892,48,49,900,1892,2049,2123,2299,2239,1899,2101,2270
1053941,56100,52300,62412,62412,10,2,-38,8,5,274,330,4010,39,46,901,1892,2049,2123,2299,2239,1899,2101,2270
1054942,56148,52400,62477,62477,260,27,-43,8,9,113,343,4045,32,55,901,1892,2049,2123,2299,2239,1899,2101,2270
1055943,56204,52488,62542,62542,210,101,-46,15,11,-61,259,3897,30,52,900,1892,2049,2123,2299,2239,1899,2101,2270
1056944,56268,52576,62607,62607,160,100,-52,9,7,-320,330,3857,30,50,900,1892,2049,2123,2299,2239,1899,2101,2270
1057945,56316,52656,62672,62672,261,150,-59,-3,10,-271,234,3832,40,45,898,1892,2049,2123,2299,2239,1899,2101,2270
1058946,56372,52744,62737,62737,211,99,-52,-24,7,117,236,4014,37,41,899,1894,2053,2127,2303,2244,1904,2105,2273
1059947,56452,52832,62802,62802,61,99,-50,-21,9,263,186,3822,33,54,900,1894,2053,2127,2303,2244,1904,2105,2273
1060948,56508,52928,62867,62867,211,48,-48,-15,1,53,240,3909,50,43,900,1894,2053,2127,2303,2244,1904,2105,2273
1061949,56576,52996,62932,62932,136,223,-47,0,-2,38,240,4098,34,44,900,1894,2053,2127,2303,2244,1904,2105,2273
1062950,56668,53088,62997,62997,-15,72,-39,7,-5,345,238,3826,49,49,899,1894,2053,2127,2303,2244,1904,2105,2273
1063951,56740,53160,63062,63062,110,197,-37,6,-4,629,310,3937,46,48,901,1890,2048,2121,2299,2245,1906,2110,2278
1064952,56820,53248,63127,63127,59,97,-36,-1,5,142,282,3837,34,47,900,1890,2048,2121,2299,2245,1906,2110,2278
1065953,56900,53336,63192,63192,59,96,-37,3,11,108,304,3891,39,54,900,1890,2048,2121,2299,2245,1906,2110,2278
1066954,56976,53416,63257,63257,84,146,-36,3,13,24,276,3933,40,45,900,1890,2048,2121,2299,2245,1906,2110,2278
1067955,57040,53508,63322,63322,159,70,-39,0,13,-53,285,3726,31,41,900,1890,2048,2121,2299,2245,1906,2110,2278
1068956,57116,53612,63387,63387,84,-6,-42,-13,9,33,262,3922,39,43,900,1890,2048,2121,2299,2245,1906,2110,2278
1069957,57180,53712,63452,63452,159,18,-50,-16,10,-25,272,4008,33,47,900,1892,2052,2121,2302,2246,1905,2112,2277
1070958,57268,53792,63517,63517,8,143,-51,-3,9,110,218,3899,47,41,900,1892,2052,2121,2302,2246,1905,2112,2277
1071959,57348,53908,63582,63582,58,-83,-54,-14,2,99,282,3870,38,47,900,1892,2052,2121,2302,2246,1905,2112,2277
1072960,57412,54040,63647,63647,158,-185,-57,-7,-2,266,253,3971,33,45,901,1892,2052,2121,2302,2246,1905,2112,2277
1073961,57476,54124,63712,63712,158,115,-54,-6,4,215,306,3784,42,46,899,1892,2052,2121,2302,2246,1905,2112,2277
1074962,57532,54200,63777,63777,208,164,-51,5,-3,179,284,3984,37,46,898,1890,2051,2120,2298,2247,1904,2113,2280
1075963,57620,54272,63842,63842,7,189,-47,5,-4,299,249,4010,35,55,899,1890,2051,2120,2298,2247,1904,2113,2280
1076964,57668,54356,63907,63907,258,114,-53,6,1,304,309,3662,33,50,900,1890,2051,2120,2298,2247,1904,2113,2280
1077965,57756,54456,63972,63972,7,13,-43,14,3,224,220,3925,29,37,899,1890,2051,2120,2298,2247,1904,2113,2280
1078966,57812,54520,64037,64037,207,238,-42,4,8,64,207,4033,33,47,901,1890,2051,2120,2298,2247,1904,2113,2280
1079967,57896,54588,64102,64102,32,213,-37,12,9,115,216,3843,39,52,899,1890,2051,2120,2298,2247,1904,2113,2280
1080968,57960,54672,64167,64167,157,112,-38,-2,11,58,234,3823,34,46,900,1890,2053,2119,2301,2250,1908,2118,2284
1081969,58020,54756,64232,64232,182,112,-36,0,13,-136,224,4125,34,54,900,1890,2053,2119,2301,2250,1908,2118,2284
1082970,58084,54824,64297,64297,157,212,-35,-7,18,73,201,3623,39,44,900,1890,2053,2119,2301,2250,1908,2118,2284
1083971,58140,54900,64362,64362,207,162,-34,-13,8,12,281,3937,44,42,899,1890,2053,2119,2301,2250,1908,2118,2284
1084972,58204,54980,64427,64427,157,136,-32,-7,7,-141,202,3980,40,43,899,1890,2053,2119,2301,2250,1908,2118,2284
1085973,58276,55076,64492,64492,107,35,-31,-18,6,293,325,3900,31,41,900,1893,2056,2121,2303,2247,1907,2120,2282
1086974,58316,55200,64557,64557,308,-141,-36,-19,7,86,318,3911,34,54,900,1893,2056,2121,2303,2247,1907,2120,2282
1087975,58400,55304,64622,64622,32,-17,-43,-16,1,66,367,3930,31,43,899,1893,2056,2121,2303,2247,1907,2120,2282
1088976,58472,55368,64687,64687,107,233,-48,-4,-2,173,318,3965,35,45,901,1893,2056,2121,2303,2247,1907,2120,2282
1089977,58508,55448,64752,64752,333,133,-49,-3,-7,251,279,3868,46,49,900,1893,2056,2121,2303,2247,1907,2120,2282
