%  Data file recorded 2017/4/24  11:2:25
%  Stride Frequency         = [1, 1]
%  Lead In /Lead Out        = 
%  Deltas (Fractional)      = [0.25, 0.25, 0.25],[0.25, 0.25, 0.25]
%  Phase                    = 32768
%  Experiment.py 
%  Motor Gains    = [100, 0, 100, 0, 0, 100, 0, 100, 0, 0]
% Columns: 
% time | Right Leg Pos | Left Leg Pos | Commanded Right Leg Pos | Commanded Left Leg Pos | DCR | DCL | GyroX | GyroY | GyroZ | AX | AY | AZ | RBEMF | LBEMF | VBatt | S1 | S2 | S3 | S4 | S5 | S6 | S7 | S8
687,11336,-54904,0,0,-302,1290,43,4,-4,227,329,3921,-3,7,871,1776,1940,2117,2211,2143,1837,1942,2141
1688,11328,-54904,0,0,-227,1340,43,5,-5,205,340,3955,-10,-3,871,1776,1940,2117,2211,2143,1837,1942,2141
2689,11332,-54904,0,0,-302,1340,43,4,-4,184,358,3941,2,0,871,1776,1940,2117,2211,2143,1837,1942,2141
3690,11336,-54904,0,0,-302,1340,42,2,-6,205,363,3945,-6,4,871,1776,1940,2117,2211,2143,1837,1942,2141
4691,11328,-54912,0,0,-227,1390,41,4,-7,195,361,3921,-4,-5,871,1773,1939,2118,2214,2146,1840,1944,2144
5692,11332,-54900,0,0,-302,1265,41,6,-4,204,358,3922,7,0,871,1773,1939,2118,2214,2146,1840,1944,2144
6693,11328,-54904,0,0,-252,1365,42,6,-6,219,353,3952,-9,3,871,1773,1939,2118,2214,2146,1840,1944,2144
7694,11324,-54904,0,0,-252,1340,40,4,-5,185,366,3950,9,-7,871,1773,1939,2118,2214,2146,1840,1944,2144
8695,11328,-54912,0,0,-302,1390,39,2,-5,205,400,3920,-9,5,871,1773,1939,2118,2214,2146,1840,1944,2144
9696,11324,-54904,0,0,-252,1290,38,1,-5,193,373,3945,8,1,871,1775,1940,2117,2211,2142,1838,1941,2139
10697,11336,-54912,0,0,-352,1390,38,1,-7,200,341,3936,-6,-7,871,1775,1940,2117,2211,2142,1838,1941,2139
11698,11332,-54912,0,0,-252,1340,38,1,-6,189,344,3931,3,0,871,1775,1940,2117,2211,2142,1838,1941,2139
12699,11336,-54908,0,0,-302,1315,41,4,-4,186,325,3928,-8,6,871,1775,1940,2117,2211,2142,1838,1941,2139
13700,11336,-54912,0,0,-277,1365,40,5,-5,203,346,3951,3,-6,871,1775,1940,2117,2211,2142,1838,1941,2139
14701,11340,-54904,0,0,-302,1290,39,4,-5,198,331,3903,3,3,871,1775,1940,2117,2211,2142,1838,1941,2139
15702,11328,-54908,0,0,-202,1365,41,5,-5,195,328,3898,-7,4,871,1777,1941,2116,2210,2142,1837,1941,2140
16703,11324,-54908,0,0,-252,1340,40,3,-6,187,345,3887,9,-7,871,1777,1941,2116,2210,2142,1837,1941,2140
17704,11332,-54908,0,0,-327,1340,41,4,-6,204,363,3917,-1,5,871,1777,1941,2116,2210,2142,1837,1941,2140
18705,11336,-54904,0,0,-302,1315,41,4,-6,204,364,3927,-6,-4,871,1777,1941,2116,2210,2142,1837,1941,2140
19706,11336,-54908,0,0,-277,1365,40,1,-5,193,368,3918,7,-7,867,1777,1941,2116,2210,2142,1837,1941,2140
20707,11328,-54904,0,0,-227,1315,43,1,-5,192,376,3949,-7,4,871,1776,1939,2117,2210,2143,1837,1943,2142
21708,11320,-54912,0,0,-227,1390,41,4,-8,187,366,3911,-8,-7,871,1776,1939,2117,2210,2143,1837,1943,2142
22709,11332,-54908,0,0,-352,1315,37,5,-6,214,346,3912,8,1,871,1776,1939,2117,2210,2143,1837,1943,2142
23710,11332,-54904,0,0,-277,1315,36,5,-4,224,352,3898,-3,4,871,1776,1939,2117,2210,2143,1837,1943,2142
24711,11332,-54900,0,0,-277,1315,39,5,-4,216,360,3889,-2,-7,871,1776,1939,2117,2210,2143,1837,1943,2142
25712,11324,-54904,0,0,-227,1365,41,6,-5,203,351,3911,7,-2,871,1776,1939,2117,2210,2143,1837,1943,2142
26713,11336,-54896,0,0,-352,1290,41,5,-6,220,362,3908,-10,7,871,1777,1939,2115,2212,2143,1838,1942,2140
27714,11332,-54908,0,0,-252,1415,42,2,-4,216,375,3916,7,-2,871,1777,1939,2115,2212,2143,1838,1942,2140
28715,11336,-54904,0,0,-302,1315,42,4,-3,205,377,3947,-6,-7,871,1777,1939,2115,2212,2143,1838,1942,2140
29716,11336,-54900,0,0,-277,1315,42,6,-4,199,373,3948,2,3,871,1777,1939,2115,2212,2143,1838,1942,2140
30717,11336,-54912,0,0,-277,1415,40,5,-6,199,393,3948,-8,3,871,1777,1939,2115,2212,2143,1838,1942,2140
31718,11320,-54912,0,0,-177,1340,39,6,-5,189,361,3921,8,-6,871,1777,1941,2118,2212,2142,1837,1941,2139
32719,11332,-54916,0,0,-352,1365,40,5,-4,231,344,3924,-4,-1,871,1777,1941,2118,2212,2142,1837,1941,2139
33720,11332,-54900,0,0,-277,1240,40,3,-3,210,328,3958,7,6,871,1777,1941,2118,2212,2142,1837,1941,2139
34721,11336,-54900,0,0,-302,1340,39,2,-2,219,342,3932,-7,-3,871,1777,1941,2118,2212,2142,1837,1941,2139
35722,11320,-54904,0,0,-177,1365,40,3,-1,226,363,3901,6,-1,871,1777,1941,2118,2212,2142,1837,1941,2139
36723,11332,-54908,0,0,-352,1365,38,4,-3,232,330,3944,-10,7,867,1777,1941,2118,2212,2142,1837,1941,2139
37724,11328,-54912,0,0,-252,1365,38,4,-5,232,327,3946,-2,-7,871,1777,1939,2116,2210,2143,1837,1942,2142
38725,11328,-54904,0,0,-277,1290,38,5,-4,201,327,3931,9,6,871,1777,1939,2116,2210,2143,1837,1942,2142
39726,11332,-54904,0,0,-302,1340,39,7,-4,186,345,3915,-10,-3,871,1777,1939,2116,2210,2143,1837,1942,2142
40727,11336,-54900,0,0,-302,1315,42,6,-4,199,369,3948,8,-7,871,1777,1939,2116,2210,2143,1837,1942,2142
41728,11328,-54916,0,0,-227,1440,44,5,-1,185,364,3967,-6,0,871,1777,1939,2116,2210,2143,1837,1942,2142
42729,11328,-54908,0,0,-277,1290,44,4,-3,190,347,3964,6,7,871,1776,1939,2116,2210,2144,1837,1941,2140
43730,11336,-54908,0,0,-327,1340,42,3,-5,181,365,3960,-3,1,871,1776,1939,2116,2210,2144,1837,1941,2140
44731,11332,-54908,0,0,-252,1340,39,4,-4,187,399,3946,4,-7,871,1776,1939,2116,2210,2144,1837,1941,2140
45732,11328,-54912,0,0,-252,1365,38,3,-3,193,370,3927,-8,0,871,1776,1939,2116,2210,2144,1837,1941,2140
46733,11328,-54904,0,0,-277,1290,39,1,-1,188,351,3924,0,6,871,1776,1939,2116,2210,2144,1837,1941,2140
47734,11324,-54908,0,0,-252,1365,40,3,-2,212,365,3915,4,-1,871,1776,1939,2116,2210,2144,1837,1941,2140
48735,11336,-54904,0,0,-352,1315,41,5,-3,217,345,3911,-5,-7,871,1777,1941,2115,2209,2142,1838,1944,2141
49736,11336,-54920,0,0,-277,1440,41,4,-4,193,326,3911,9,-3,871,1777,1941,2115,2209,2142,1838,1944,2141
50737,11332,-54896,0,0,-252,1190,40,5,-6,195,334,3930,-9,7,871,1777,1941,2115,2209,2142,1838,1944,2141
51738,11328,-54912,0,0,-252,1440,41,4,-6,203,320,3945,9,-5,871,1777,1941,2115,2209,2142,1838,1944,2141
52739,11320,-54908,0,0,-227,1315,40,2,-5,182,350,3932,-6,-7,871,1777,1941,2115,2209,2142,1838,1944,2141
53740,11332,-54908,0,0,-352,1340,38,2,-5,172,347,3932,-5,7,867,1776,1938,2117,2211,2143,1838,1942,2142
54741,11332,-54908,0,0,-277,1340,39,4,-4,176,334,3908,9,-6,871,1776,1938,2117,2211,2143,1838,1942,2142
55742,11344,-54912,0,0,-352,1365,40,5,-5,202,356,3922,3,4,871,1776,1938,2117,2211,2143,1838,1942,2142
56743,11328,-54908,0,0,-177,1315,40,4,-7,205,346,3895,-8,3,871,1776,1938,2117,2211,2143,1838,1942,2142
57744,11328,-54912,0,0,-277,1365,39,5,-4,223,354,3917,6,-7,871,1776,1938,2117,2211,2143,1838,1942,2142
58745,11336,-54908,0,0,-327,1315,39,6,-4,232,343,3923,-10,-1,871,1776,1938,2117,2211,2143,1838,1942,2142
59746,11328,-54904,0,0,-227,1315,39,6,-5,195,352,3933,1,7,871,1778,1940,2117,2212,2142,1836,1941,2139
60747,11340,-54912,0,0,-352,1390,38,5,-5,175,353,3916,-7,-7,871,1778,1940,2117,2212,2142,1836,1941,2139
61748,11328,-54916,0,0,-202,1365,41,4,-5,157,331,3903,2,-1,871,1778,1940,2117,2212,2142,1836,1941,2139
62749,11316,-54908,0,0,-202,1290,40,1,-5,195,318,3927,0,4,871,1778,1940,2117,2212,2142,1836,1941,2139
63750,11328,-54908,0,0,-352,1340,40,4,-5,235,329,3938,-2,-6,871,1778,1940,2117,2212,2142,1836,1941,2139
64751,11324,-54908,0,0,-252,1340,40,4,-6,197,351,3912,5,7,871,1778,1940,2117,2211,2144,1837,1941,2140
65752,11328,-54900,0,0,-302,1290,42,5,-6,179,363,3903,-10,-8,871,1778,1940,2117,2211,2144,1837,1941,2140
66753,11332,-54896,0,0,-302,1315,42,4,-7,196,357,3910,9,6,871,1778,1940,2117,2211,2144,1837,1941,2140
67754,11324,-54920,0,0,-227,1490,41,3,-6,199,337,3902,-10,-1,871,1778,1940,2117,2211,2144,1837,1941,2140
68755,11324,-54904,0,0,-277,1240,40,4,-5,201,353,3933,9,0,871,1778,1940,2117,2211,2144,1837,1941,2140
69756,11324,-54904,0,0,-277,1340,39,4,-5,214,355,3930,-10,6,871,1778,1940,2117,2211,2144,1837,1941,2140
70757,11336,-54900,0,0,-352,1315,39,3,-5,210,369,3896,7,-7,867,1776,1939,2117,2209,2139,1838,1944,2142
71758,11336,-54904,0,0,-277,1365,39,4,-6,208,358,3920,7,6,871,1776,1939,2117,2209,2139,1838,1944,2142
72759,11336,-54896,0,0,-277,1290,42,5,-7,211,338,3919,-9,-6,871,1776,1939,2117,2209,2139,1838,1944,2142
73760,11328,-54904,0,0,-227,1390,41,6,-7,222,342,3914,1,5,871,1776,1939,2117,2209,2139,1838,1944,2142
74761,11328,-54916,0,0,-277,1415,41,5,-5,220,323,3903,6,-2,871,1776,1939,2117,2209,2139,1838,1944,2142
75762,11336,-54908,0,0,-327,1290,40,5,-5,225,353,3924,9,7,871,1777,1939,2115,2210,2142,1836,1941,2141
76763,11328,-54912,0,0,-227,1365,39,5,-6,214,353,3923,-6,-4,871,1777,1939,2115,2210,2142,1836,1941,2141
77764,11336,-54908,0,0,-327,1315,39,6,-6,218,334,3936,4,0,871,1777,1939,2115,2210,2142,1836,1941,2141
78765,11332,-54892,0,0,-252,1240,40,6,-6,212,338,3910,-3,7,871,1777,1939,2115,2210,2142,1836,1941,2141
79766,11336,-54900,0,0,-302,1390,43,6,-5,228,341,3900,-9,-6,871,1777,1939,2115,2210,2142,1836,1941,2141
80767,11328,-54912,0,0,-227,1415,42,6,-3,209,357,3915,8,2,871,1777,1939,2115,2210,2142,1836,1941,2141
81768,11336,-54908,0,0,-327,1315,41,4,-4,191,354,3927,-10,5,871,1777,1940,2116,2211,2143,1837,1941,2140
82769,11328,-54904,0,0,-227,1315,41,3,-4,192,371,3949,7,-7,871,1777,1940,2116,2211,2143,1837,1941,2140
83770,11332,-54900,0,0,-302,1315,41,4,-5,195,339,3927,-10,6,871,1777,1940,2116,2211,2143,1837,1941,2140
84771,11336,-54908,0,0,-302,1390,39,3,-5,212,331,3960,7,4,871,1777,1940,2116,2211,2143,1837,1941,2140
85773,11328,-54904,0,0,-227,1315,40,2,-4,191,324,3923,0,-7,871,1777,1940,2116,2211,2143,1837,1941,2140
86773,11332,-54904,0,0,-302,1340,40,4,-4,210,334,3918,-10,4,871,1778,1940,2118,2210,2144,1837,1943,2143
87774,11328,-54904,0,0,-252,1340,39,4,-5,216,357,3943,-6,-1,867,1778,1940,2118,2210,2144,1837,1943,2143
88775,11328,-54904,0,0,-277,1340,38,4,-4,213,355,3925,3,0,871,1778,1940,2118,2210,2144,1837,1943,2143
89776,11336,-54900,0,0,-327,1315,39,5,-3,221,334,3921,-4,3,871,1778,1940,2118,2210,2144,1837,1943,2143
90777,11328,-54904,0,0,-227,1365,41,5,-3,223,346,3935,-5,-7,871,1778,1940,2118,2210,2144,1837,1943,2143
91778,11312,-54908,0,0,-177,1365,41,6,-4,201,351,3957,8,1,871,1778,1940,2118,2210,2144,1837,1943,2143
92779,11324,-54904,0,0,-352,1315,39,5,-4,195,365,3939,-10,4,871,1777,1940,2116,2211,2143,1835,1942,2143
93780,11328,-54908,0,0,-302,1365,39,5,-2,204,355,3933,3,-7,871,1777,1940,2116,2211,2143,1835,1942,2143
94781,11340,-54908,0,0,-352,1340,41,6,-2,182,356,3951,4,0,871,1777,1940,2116,2211,2143,1835,1942,2143
95782,11336,-54904,0,0,-252,1315,41,5,-3,171,352,3922,-7,7,871,1777,1940,2116,2211,2143,1835,1942,2143
96783,11320,-54908,0,0,-177,1365,38,4,-3,200,351,3911,7,1,871,1777,1940,2116,2211,2143,1835,1942,2143
97784,11332,-54916,0,0,-352,1390,37,4,-3,181,335,3923,-10,-7,871,1778,1941,2117,2212,2142,1836,1941,2140
98785,11332,-54912,0,0,-277,1315,38,4,-4,176,324,3926,8,2,871,1778,1941,2117,2212,2142,1836,1941,2140
99786,11336,-54904,0,0,-302,1290,39,5,-3,178,328,3930,-10,7,871,1778,1941,2117,2212,2142,1836,1941,2140
100787,11332,-54900,65,65,-189,1378,41,3,-2,177,343,3942,-2,0,872,1778,1941,2117,2212,2142,1836,1941,2140
101788,11336,-54908,130,130,-237,1455,41,5,-2,176,352,3933,1,5,830,1778,1941,2117,2212,2142,1836,1941,2140
102789,11320,-54876,195,195,-110,1206,43,5,-1,201,341,3918,4,17,809,1778,1941,2117,2212,2142,1836,1941,2140
103790,11336,-54860,260,260,-309,1307,41,6,-10,251,365,3920,5,13,831,1777,1939,2116,2211,2142,1837,1856,2048
104791,11332,-54828,325,325,-182,1208,40,11,-5,328,351,3913,11,30,834,1777,1939,2116,2211,2142,1837,1856,2048
105792,11336,-54776,390,390,-231,1083,46,14,1,418,342,3911,12,41,854,1777,1939,2116,2211,2142,1837,1856,2048
106793,11332,-54716,455,455,-179,1033,48,11,10,168,293,3993,21,37,819,1777,1939,2116,2211,2142,1837,1856,2048
107794,11332,-54672,520,520,-202,1134,50,10,9,176,306,3851,12,45,861,1777,1939,2116,2211,2142,1837,1856,2048
108795,11336,-54564,585,585,-226,733,50,6,7,290,352,3867,19,42,829,1775,1940,2118,2167,2096,1768,1939,2138
109796,11336,-54492,650,650,-199,958,46,22,7,151,353,4049,0,39,830,1775,1940,2118,2167,2096,1768,1939,2138
110797,11324,-54400,715,715,-123,832,41,11,-3,240,397,3800,3,42,863,1775,1940,2118,2167,2096,1768,1939,2138
111798,11332,-54300,780,780,-246,781,39,13,-11,108,428,3978,6,46,848,1775,1940,2118,2167,2096,1768,1939,2138
112799,11328,-54216,845,845,-169,881,32,-1,-11,96,413,3881,-3,48,853,1775,1940,2118,2167,2096,1768,1939,2138
113800,11320,-54132,910,910,-143,880,32,-3,-22,148,397,3955,12,65,851,1775,1940,2118,2167,2096,1768,1939,2138
114801,11332,-54056,975,975,-266,930,28,-9,-29,140,352,3921,7,65,845,1735,1939,2117,2312,2128,1828,1940,2141
115802,11340,-53968,1040,1040,-240,854,24,-25,-14,103,279,3916,-5,55,849,1735,1939,2117,2312,2128,1828,1940,2141
116803,11336,-53868,1105,1105,-163,779,39,-3,-7,384,282,3877,4,58,865,1735,1939,2117,2312,2128,1828,1940,2141
117804,11328,-53756,1170,1170,-136,702,39,10,-1,551,275,3976,16,62,848,1735,1939,2117,2312,2128,1828,1940,2141
118805,11336,-53648,1235,1235,-235,726,40,10,-1,354,283,3910,14,70,848,1735,1939,2117,2312,2128,1828,1940,2141
119806,11328,-53528,1300,1300,-133,650,52,19,12,315,289,3862,6,62,841,1762,1939,2063,2209,2145,1818,1923,2136
120807,11336,-53408,1365,1365,-232,649,52,28,8,399,364,4053,-5,80,867,1762,1939,2063,2209,2145,1818,1923,2136
121808,11336,-53284,1430,1430,-180,622,61,46,7,77,256,3871,2,75,840,1762,1939,2063,2209,2145,1818,1923,2136
122809,11336,-53172,1495,1495,-179,696,70,71,13,410,362,4044,3,69,868,1762,1939,2063,2209,2145,1818,1923,2136
123810,11344,-53052,1560,1560,-227,645,73,78,10,-42,413,3913,0,74,843,1762,1939,2063,2209,2145,1818,1923,2136
124811,11332,-52944,1625,1625,-100,719,58,32,-7,-542,559,4209,0,81,837,1762,1939,2063,2209,2145,1818,1923,2136
125812,11332,-52812,1690,1690,-174,567,35,-28,-14,-462,530,3609,-2,81,848,1778,1941,2048,2216,2138,1799,1902,2094
126813,11336,-52680,1755,1755,-197,565,20,-61,-11,-227,556,3837,10,77,852,1778,1941,2048,2216,2138,1799,1902,2094
127814,11336,-52548,1820,1820,-171,564,4,-60,-17,-316,400,3919,9,81,843,1778,1941,2048,2216,2138,1799,1902,2094
128815,11324,-52384,1885,1885,-94,361,4,-41,-21,-34,347,3882,10,78,844,1778,1941,2048,2216,2138,1799,1902,2094
129816,11336,-52248,1950,1950,-243,535,13,-39,-2,649,202,3918,7,82,856,1778,1941,2048,2216,2138,1799,1902,2094
130817,11336,-52104,2015,2015,-166,483,40,-15,5,1183,200,4156,7,86,847,1778,1903,2080,2156,2088,1812,1911,2146
131818,11328,-51952,2080,2080,-114,431,47,2,-7,1104,175,3904,13,83,871,1778,1903,2080,2156,2088,1812,1911,2146
132819,11336,-51812,2145,2145,-213,504,54,31,-1,623,202,3937,9,80,855,1778,1903,2080,2156,2088,1812,1911,2146
133820,11324,-51664,2210,2210,-86,452,63,58,6,140,282,3925,18,85,849,1778,1903,2080,2156,2088,1812,1911,2146
134821,11324,-51536,2275,2275,-159,575,63,56,-6,150,373,3905,-1,86,852,1778,1903,2080,2156,2088,1812,1911,2146
135822,11340,-51396,2340,2340,-258,498,55,33,-15,258,389,3924,-2,77,857,1778,1903,2080,2156,2088,1812,1911,2146
136823,11328,-51260,2405,2405,-81,522,42,7,-19,36,473,3786,9,75,839,1778,1908,2114,2208,2071,1780,1940,2140
137824,11332,-51076,2470,2470,-180,219,29,2,-12,-3,455,4033,14,76,870,1778,1908,2114,2208,2071,1780,1940,2140
138825,11328,-50936,2535,2535,-128,492,23,-1,-12,152,528,3995,9,91,869,1778,1908,2114,2208,2071,1780,1940,2140
139826,11336,-50800,2600,2600,-202,515,24,-12,-3,99,281,3740,12,77,853,1778,1908,2114,2208,2071,1780,1940,2140
140827,11328,-50656,2665,2665,-100,463,39,3,-2,221,359,4161,13,82,847,1778,1908,2114,2208,2071,1780,1940,2140
141828,11328,-50544,2730,2730,-148,662,40,10,-6,7,268,3820,16,85,854,1778,1941,2115,2173,2105,1826,1934,2078
142829,11328,-50404,2795,2795,-147,485,50,-2,11,-78,352,4043,15,81,855,1778,1941,2115,2173,2105,1826,1934,2078
143830,11328,-50252,2860,2860,-145,408,50,1,13,-268,473,3900,2,85,852,1778,1941,2115,2173,2105,1826,1934,2078
144831,11324,-50112,2925,2925,-119,481,31,-22,9,-152,428,3912,-3,84,855,1778,1941,2115,2173,2105,1826,1934,2078
145832,11328,-49944,2990,2990,-167,304,28,-24,-2,24,399,3877,12,78,858,1778,1941,2115,2173,2105,1826,1934,2078
146833,11336,-49792,3055,3055,-191,402,22,-21,2,365,337,3828,8,86,855,1778,1941,2115,2173,2105,1826,1934,2078
147834,11332,-49640,3120,3120,-114,400,27,-9,3,444,270,3985,9,94,847,1759,1920,2097,2187,2124,1821,1940,2136
148835,11340,-49472,3185,3185,-188,297,33,4,-16,548,273,3894,2,81,854,1759,1920,2097,2187,2124,1821,1940,2136
149836,11332,-49312,3250,3250,-86,345,38,6,-17,572,320,3981,14,94,854,1759,1920,2097,2187,2124,1821,1940,2136
150837,11336,-49164,3315,3315,-159,418,36,3,-5,597,341,3951,7,81,857,1759,1920,2097,2187,2124,1821,1940,2136
151838,11328,-49016,3380,3380,-83,416,33,11,-17,551,361,3848,12,89,860,1759,1920,2097,2187,2124,1821,1940,2136
152839,11332,-48872,3445,3445,-156,439,33,18,-26,204,292,3992,15,75,860,1728,1922,2095,2144,2068,1837,1946,2080
153840,11340,-48716,3510,3510,-180,362,44,10,-8,24,250,3938,5,93,860,1728,1922,2095,2144,2068,1837,1946,2080
154841,11332,-48536,3575,3575,-78,209,50,19,-2,351,249,3882,10,96,850,1728,1922,2095,2144,2068,1837,1946,2080
155842,11344,-48396,3640,3640,-202,457,61,49,-11,371,325,4112,14,91,856,1728,1922,2095,2144,2068,1837,1946,2080
156843,11336,-48220,3705,3705,-75,229,64,39,1,125,321,3867,18,74,853,1728,1922,2095,2144,2068,1837,1946,2080
157844,11336,-48072,3770,3770,-123,402,65,20,0,187,452,3943,-2,77,857,1728,1922,2095,2144,2068,1837,1946,2080
158845,11336,-47912,3835,3835,-122,325,52,19,2,-45,469,3980,-4,77,865,1791,1983,2143,2239,2136,1834,1983,2175
159846,11332,-47776,3900,3900,-95,473,41,6,0,-215,530,3800,8,75,860,1791,1983,2143,2239,2136,1834,1983,2175
160847,11340,-47608,3965,3965,-169,271,33,10,12,-296,378,3824,-2,85,862,1791,1983,2143,2239,2136,1834,1983,2175
161848,11336,-47492,4030,4030,-92,594,30,-1,3,-80,439,4098,-2,78,857,1791,1983,2143,2239,2136,1834,1983,2175
162849,11340,-47356,4095,4095,-140,468,24,-19,-6,31,366,3725,6,74,858,1791,1983,2143,2239,2136,1834,1983,2175
163850,11336,-47164,4160,4160,-89,115,24,-20,-12,179,346,3980,-3,89,859,1777,1934,2113,2211,2139,1815,1919,2139
164851,11340,-46992,4225,4225,-137,237,17,-37,-12,368,306,3821,12,90,861,1777,1934,2113,2211,2139,1815,1919,2139
165852,11332,-46836,4290,4290,-60,335,34,-9,-13,480,266,4066,14,74,865,1777,1934,2113,2211,2139,1815,1919,2139
166853,11340,-46684,4355,4355,-159,358,34,12,-7,625,227,3778,-5,86,866,1777,1934,2113,2211,2139,1815,1919,2139
167854,11344,-46532,4420,4420,-133,355,45,23,-6,381,210,4092,2,83,863,1777,1934,2113,2211,2139,1815,1919,2139
168855,11336,-46376,4485,4485,-56,328,49,19,-9,286,226,3929,-2,91,852,1777,1934,2113,2211,2139,1815,1919,2139
169856,11348,-46220,4550,4550,-179,326,55,18,-9,312,373,3995,-2,73,858,1778,1940,2104,2192,2144,1837,1920,2124
170857,11340,-46032,4615,4615,-53,123,50,12,1,125,332,3794,5,86,874,1778,1940,2104,2192,2144,1837,1920,2124
171858,11332,-45872,4680,4680,-51,296,45,7,-10,203,474,4028,7,74,847,1778,1940,2104,2192,2144,1837,1920,2124
172859,11340,-45720,4745,4745,-150,344,37,-1,-14,21,357,3793,5,82,873,1778,1940,2104,2192,2144,1837,1920,2124
173860,11332,-45580,4810,4810,-48,417,33,13,-13,416,507,4066,8,84,873,1778,1940,2104,2192,2144,1837,1920,2124
174861,11332,-45456,4875,4875,-96,515,27,2,-10,133,306,3797,13,79,853,1778,1908,2077,2205,2144,1838,1942,2124
175862,11336,-45304,4940,4940,-120,338,40,18,-17,344,383,3990,-2,83,873,1778,1908,2077,2205,2144,1838,1942,2124
176863,11348,-45140,5005,5005,-168,261,43,7,-5,38,287,3844,5,79,865,1778,1908,2077,2205,2144,1838,1942,2124
177864,11336,-44988,5070,5070,-16,334,51,5,6,13,393,4082,1,88,862,1778,1908,2077,2205,2144,1838,1942,2124
178865,11336,-44844,5135,5135,-90,382,38,-2,5,186,408,3788,10,72,851,1778,1908,2077,2205,2144,1838,1942,2124
179866,11344,-44712,5200,5200,-138,455,41,-1,10,174,369,3901,5,83,874,1778,1908,2077,2205,2144,1838,1942,2124
180867,11332,-44568,5265,5265,-12,378,36,1,9,288,374,3910,-4,73,867,1777,1940,2113,2202,2113,1810,1938,2139
181868,11344,-44388,5330,5330,-160,150,39,-3,6,46,333,4045,-2,66,857,1777,1940,2113,2202,2113,1810,1938,2139
182869,11328,-44220,5395,5395,17,223,40,10,-12,-17,336,3852,-4,86,874,1777,1940,2113,2202,2113,1810,1938,2139
183870,11348,-44064,5460,5460,-207,296,39,1,-11,454,360,3941,10,68,854,1777,1940,2113,2202,2113,1810,1938,2139
184871,11332,-43892,5525,5525,20,193,38,4,-9,282,320,3985,-1,87,875,1777,1940,2113,2202,2113,1810,1938,2139
185872,11348,-43760,5590,5590,-179,441,28,-12,-10,270,358,4004,5,75,842,1764,1940,2117,2192,2119,1834,1944,2095
186873,11348,-43608,5655,5655,-77,314,29,-7,-19,108,297,3824,-2,75,875,1764,1940,2117,2192,2119,1834,1944,2095
187874,11344,-43444,5720,5720,-51,237,37,-4,-12,10,280,4048,8,75,847,1764,1940,2117,2192,2119,1834,1944,2095
188875,11348,-43312,5785,5785,-99,435,40,-11,1,156,285,4000,8,76,870,1764,1940,2117,2192,2119,1834,1944,2095
189876,11336,-43168,5850,5850,3,358,44,4,-4,340,370,3842,14,69,872,1764,1940,2117,2192,2119,1834,1944,2095
190877,11340,-43024,5915,5915,-96,356,46,17,-2,183,331,3967,13,67,865,1731,1876,2110,2212,2142,1837,1945,2143
191878,11336,-42856,5980,5980,-44,204,41,-2,-3,290,379,4034,0,70,874,1731,1876,2110,2212,2142,1837,1945,2143
192879,11348,-42688,6045,6045,-143,201,50,5,6,355,310,3835,13,63,865,1731,1876,2110,2212,2142,1837,1945,2143
193880,11340,-42532,6110,6110,-16,274,49,28,4,345,485,4066,14,81,876,1731,1876,2110,2212,2142,1837,1945,2143
194881,11340,-42384,6175,6175,-65,322,32,12,10,18,380,3618,-5,69,857,1731,1876,2110,2212,2142,1837,1945,2143
195882,11348,-42236,6240,6240,-113,320,36,20,1,318,409,4064,3,74,875,1731,1876,2110,2212,2142,1837,1945,2143
196883,11352,-42096,6305,6305,-87,368,38,20,-4,436,336,3790,-5,70,873,1774,1941,2117,2224,2152,1832,1939,2137
197884,11348,-41968,6370,6370,-35,442,41,3,-10,154,333,4062,0,76,864,1774,1941,2117,2224,2152,1832,1939,2137
198885,11348,-41804,6435,6435,-58,214,42,16,-12,239,312,3905,-6,69,869,1774,1941,2117,2224,2152,1832,1939,2137
199886,11340,-41668,6500,6500,-7,387,31,15,-17,109,380,3903,11,64,874,1774,1941,2117,2224,2152,1832,1939,2137
200887,11356,-41524,6565,6565,-155,336,33,-8,-1,-44,255,3876,9,65,874,1774,1941,2117,2224,2152,1832,1939,2137
201888,11348,-41392,6630,6630,-4,409,41,1,-3,115,333,4112,11,79,874,1780,1940,2117,2212,2140,1835,1939,2139
202889,11348,-41244,6695,6695,-52,307,40,5,-10,108,286,3710,-3,68,853,1780,1940,2117,2212,2140,1835,1939,2139
203890,11348,-41088,6760,6760,-51,255,42,9,2,-5,275,3990,0,76,873,1780,1940,2117,2212,2140,1835,1939,2139
204891,11348,-40968,6825,6825,-49,478,44,-17,11,262,379,3970,-5,78,875,1780,1940,2117,2212,2140,1835,1939,2139
205892,11344,-40828,6890,6890,-22,351,47,8,-1,-429,325,4005,1,75,875,1780,1940,2117,2212,2140,1835,1939,2139
206893,11336,-40688,6955,6955,5,350,42,-13,2,293,292,3637,4,60,869,1780,1940,2117,2212,2140,1835,1939,2139
207894,11340,-40540,7020,7020,-69,298,46,-7,-1,585,468,4075,-4,61,872,1778,1939,2115,2211,2143,1837,1941,2141
208895,11348,-40400,7085,7085,-93,346,40,-8,-7,76,446,3971,4,71,874,1778,1939,2115,2211,2143,1837,1941,2141
209896,11344,-40260,7150,7150,-16,344,29,-11,-15,486,435,3732,-4,65,871,1778,1939,2115,2211,2143,1837,1941,2141
210897,11356,-40104,7215,7215,-115,242,27,-8,-25,346,390,3970,-3,66,867,1778,1939,2115,2211,2143,1837,1941,2141
211898,11328,-39976,7280,7280,138,415,37,12,-34,174,339,4218,3,62,874,1778,1939,2115,2211,2143,1837,1941,2141
212899,11352,-39848,7345,7345,-186,414,39,5,-26,535,270,3672,-3,75,865,1779,1940,2118,2210,2146,1840,1943,2141
213900,11356,-39684,7410,7410,-60,186,52,11,-13,284,351,4027,-2,63,873,1779,1940,2118,2210,2146,1840,1943,2141
214901,11348,-39532,7475,7475,17,259,45,9,10,122,394,4156,2,57,844,1779,1940,2118,2210,2146,1840,1943,2141
215902,11352,-39424,7540,7540,-57,533,42,16,18,371,363,3672,11,57,874,1779,1940,2118,2210,2146,1840,1943,2141
216903,11340,-39300,7605,7605,45,432,38,25,26,295,375,3843,2,58,875,1779,1940,2118,2210,2146,1840,1943,2141
217904,11348,-39160,7670,7670,-78,330,37,0,35,117,393,4119,13,72,872,1779,1940,2118,2210,2146,1840,1943,2141
218905,11352,-39024,7735,7735,-52,353,31,0,23,61,496,3846,9,70,873,1740,1922,2116,2209,2142,1836,1941,2139
219906,11352,-38888,7800,7800,-25,351,23,-12,1,-165,400,3835,2,57,869,1740,1922,2116,2209,2142,1836,1941,2139
220907,11344,-38760,7865,7865,27,400,26,12,-20,64,290,4081,0,55,874,1740,1922,2116,2209,2142,1836,1941,2139
221908,11356,-38624,7930,7930,-97,348,36,-5,-22,7,215,3986,-3,61,874,1740,1922,2116,2209,2142,1836,1941,2139
222909,11340,-38504,7995,7995,80,447,46,-4,-37,-24,241,3962,-3,63,873,1740,1922,2116,2209,2142,1836,1941,2139
223910,11352,-38368,8060,8060,-94,345,52,-7,-34,-43,187,3994,-1,60,861,1776,1938,2115,2208,2142,1835,1939,2139
224911,11356,-38232,8125,8125,-42,343,53,-2,-40,110,325,4012,13,56,869,1776,1938,2115,2208,2142,1835,1939,2139
225912,11344,-38100,8190,8190,59,367,50,6,-30,307,284,3831,4,59,866,1776,1938,2115,2208,2142,1835,1939,2139
226913,11360,-37960,8255,8255,-114,315,48,12,-15,785,408,3877,-2,56,874,1776,1938,2115,2208,2142,1835,1939,2139
227914,11352,-37832,8320,8320,37,388,39,1,4,612,434,3948,-4,60,874,1776,1938,2115,2208,2142,1835,1939,2139
228915,11356,-37700,8385,8385,-36,362,32,2,21,337,453,3935,8,52,862,1776,1938,2115,2208,2142,1835,1939,2139
229916,11356,-37576,8450,8450,-9,410,31,11,35,531,409,3736,2,60,873,1782,1944,2117,2213,2139,1835,1940,2137
230917,11352,-37448,8515,8515,17,384,33,27,44,452,420,4028,-6,61,874,1782,1944,2117,2213,2139,1835,1940,2137
231918,11348,-37316,8580,8580,19,357,27,10,36,195,414,3925,2,57,873,1782,1944,2117,2213,2139,1835,1940,2137
232919,11364,-37212,8645,8645,-105,531,35,24,14,107,381,3847,11,55,873,1782,1944,2117,2213,2139,1835,1940,2137
233920,11352,-37080,8710,8710,72,354,38,10,3,47,309,4039,4,54,874,1782,1944,2117,2213,2139,1835,1940,2137
234921,11360,-36960,8775,8775,-52,428,45,17,-22,-133,331,4033,7,61,861,1780,1940,2117,2207,2142,1837,1942,2135
235922,11364,-36832,8840,8840,-25,377,43,16,-48,-346,286,3900,-1,70,873,1780,1940,2117,2207,2142,1837,1942,2135
236923,11356,-36692,8905,8905,52,300,42,-6,-45,-151,268,3922,12,57,873,1780,1940,2117,2207,2142,1837,1942,2135
237924,11352,-36580,8970,8970,28,474,50,-3,-39,169,287,4040,12,61,873,1780,1940,2117,2207,2142,1837,1942,2135
238925,11364,-36452,9035,9035,-70,372,44,-13,-15,-150,247,3897,-2,65,874,1780,1940,2117,2207,2142,1837,1942,2135
239926,11356,-36324,9100,9100,56,370,34,-26,24,223,304,3883,8,56,872,1780,1940,2117,2207,2142,1837,1942,2135
240927,11356,-36232,9165,9165,8,595,18,-25,50,596,470,3830,2,55,867,1779,1941,2118,2211,2142,1838,1942,2144
241928,11356,-36100,9230,9230,10,343,9,-26,48,166,513,3841,-6,53,871,1779,1941,2118,2211,2142,1838,1942,2144
242929,11364,-35952,9295,9295,-39,241,7,-18,32,398,473,3938,-4,54,870,1779,1941,2118,2211,2142,1838,1942,2144
243930,11352,-35844,9360,9360,88,490,14,-10,4,625,382,3830,-2,69,874,1779,1941,2118,2211,2142,1838,1942,2144
244931,11348,-35720,9425,9425,40,389,31,5,-15,411,217,4014,-1,68,875,1779,1941,2118,2211,2142,1838,1942,2144
245932,11364,-35592,9490,9490,-84,362,49,19,-20,317,292,4013,-6,53,871,1777,1938,2114,2206,2148,1840,1945,2146
246933,11356,-35464,9555,9555,68,361,59,42,-29,413,293,3931,1,53,873,1777,1938,2114,2206,2148,1840,1945,2146
247934,11356,-35328,9620,9620,19,309,75,42,-38,422,202,3940,-4,54,868,1777,1938,2114,2206,2148,1840,1945,2146
248935,11356,-35216,9685,9685,21,458,77,43,-22,239,242,3999,-3,54,873,1777,1938,2114,2206,2148,1840,1945,2146
249936,11356,-35104,9750,9750,22,457,71,24,-10,172,432,3873,9,62,874,1777,1938,2114,2206,2148,1840,1945,2146
250937,11356,-34976,9815,9815,24,355,46,9,-4,-180,435,3860,2,63,872,1777,1938,2114,2206,2148,1840,1945,2146
251938,11364,-34872,9880,9880,-25,504,33,-2,11,50,398,3784,1,49,872,1778,1940,2115,2212,2134,1831,1935,2129
252939,11356,-34752,9945,9945,77,403,20,-12,20,53,432,3922,4,60,874,1778,1940,2115,2212,2134,1831,1935,2129
253940,11356,-34632,10010,10010,29,401,13,-18,21,-170,296,3936,-3,53,872,1778,1940,2115,2212,2134,1831,1935,2129
254941,11364,-34524,10075,10075,-20,475,19,-25,11,-59,313,3925,-3,53,872,1778,1940,2115,2212,2134,1831,1935,2129
255942,11352,-34404,10140,10140,107,399,28,-18,13,112,259,4001,12,64,873,1778,1940,2115,2212,2134,1831,1935,2129
256943,11364,-34300,10205,10205,-42,498,44,-5,4,186,297,4117,-4,53,872,1779,1940,2116,2213,2135,1834,1940,2137
257944,11356,-34188,10270,10270,85,447,49,-3,-10,102,287,3927,-5,58,869,1779,1940,2116,2213,2135,1834,1940,2137
258945,11348,-34048,10335,10335,87,270,55,-1,-23,322,357,3953,-3,59,869,1779,1940,2116,2213,2135,1834,1940,2137
259946,11368,-33944,10400,10400,-87,494,50,14,-29,545,377,3949,-2,61,871,1779,1940,2116,2213,2135,1834,1940,2137
260947,11364,-33832,10465,10465,65,443,52,5,-25,568,325,3788,13,62,874,1779,1940,2116,2213,2135,1834,1940,2137
261948,11364,-33716,10530,10530,41,417,53,29,-19,620,453,4085,-3,52,866,1779,1940,2116,2213,2135,1834,1940,2137
262949,11356,-33580,10595,10595,93,290,42,5,0,359,357,3750,6,66,872,1780,1941,2119,2212,2139,1835,1942,2141
263950,11352,-33476,10660,10660,70,489,41,15,5,375,434,3944,12,65,873,1780,1941,2119,2212,2139,1835,1942,2141
264951,11356,-33376,10725,10725,21,513,37,20,11,38,328,3886,-6,65,873,1780,1941,2119,2212,2139,1835,1942,2141
265952,11356,-33248,10790,10790,48,337,37,18,13,108,369,3881,-5,60,871,1780,1941,2119,2212,2139,1835,1942,2141
266953,11356,-33136,10855,10855,49,435,39,12,8,79,353,3945,-2,57,871,1780,1941,2119,2212,2139,1835,1942,2141
267954,11360,-33036,10920,10920,26,510,42,18,0,-47,335,3938,-4,62,874,1781,1942,2119,2213,2146,1840,1943,2144
268955,11352,-32908,10985,10985,103,333,44,7,-4,100,379,3974,10,51,873,1781,1942,2119,2213,2146,1840,1943,2144
269956,11352,-32804,11050,11050,54,482,45,13,-16,209,366,3975,10,61,871,1781,1942,2119,2213,2146,1840,1943,2144
270957,11360,-32700,11115,11115,6,481,48,10,-22,-64,324,3920,3,59,873,1781,1942,2119,2213,2146,1840,1943,2144
271958,11352,-32572,11180,11180,107,330,47,8,-16,263,326,3954,9,67,872,1781,1942,2119,2213,2146,1840,1943,2144
272959,11356,-32468,11245,11245,34,479,49,8,-10,217,294,3906,-5,58,873,1781,1942,2119,2213,2146,1840,1943,2144
273960,11368,-32328,11310,11310,-15,252,42,14,-2,38,339,3930,12,65,873,1780,1940,2116,2208,2144,1839,1943,2141
274961,11356,-32212,11375,11375,137,401,41,8,4,311,384,3894,5,65,869,1780,1940,2116,2208,2144,1839,1943,2141
275962,11352,-32092,11440,11440,89,374,41,5,5,305,411,3901,-4,57,871,1780,1940,2116,2208,2144,1839,1943,2141
276963,11368,-31988,11505,11505,-35,473,32,-6,2,140,454,4006,-5,58,872,1780,1940,2116,2208,2144,1839,1943,2141
277964,11352,-31860,11570,11570,167,322,26,-12,-13,110,425,3800,5,54,873,1780,1940,2116,2208,2144,1839,1943,2141
278965,11360,-31740,11635,11635,18,370,31,-5,-11,149,330,3957,4,61,872,1775,1935,2111,2203,2139,1836,1942,2142
279966,11360,-31620,11700,11700,70,369,29,0,-4,389,372,3891,8,53,873,1775,1935,2111,2203,2139,1836,1942,2142
280967,11356,-31500,11765,11765,96,368,31,-1,0,331,334,3957,-6,54,874,1775,1935,2111,2203,2139,1836,1942,2142
281968,11368,-31396,11830,11830,-2,467,32,-1,-8,251,329,3954,1,62,873,1775,1935,2111,2203,2139,1836,1942,2142
282969,11360,-31284,11895,11895,125,416,40,1,-12,215,374,3969,-6,67,872,1775,1935,2111,2203,2139,1836,1942,2142
283970,11360,-31168,11960,11960,76,389,39,5,-18,210,294,3946,-6,64,872,1775,1935,2111,2203,2139,1836,1942,2142
284971,11356,-31052,12025,12025,103,388,46,6,-14,76,224,3966,-3,53,872,1775,1936,2113,2207,2139,1834,1938,2136
285972,11364,-30916,12090,12090,29,261,53,3,-1,212,248,3965,12,58,873,1775,1936,2113,2207,2139,1834,1938,2136
286973,11356,-30808,12155,12155,131,435,52,21,8,206,298,3981,10,51,873,1775,1936,2113,2207,2139,1834,1938,2136
287974,11348,-30688,12220,12220,133,359,42,3,10,90,361,3922,-3,58,875,1775,1936,2113,2207,2139,1834,1938,2136
288975,11360,-30580,12285,12285,9,433,39,-4,9,291,459,3866,-2,58,871,1775,1936,2113,2207,2139,1834,1938,2136
289976,11360,-30464,12350,12350,86,382,33,-4,-2,233,466,3959,12,69,873,1781,1943,2119,2215,2135,1832,1937,2134
290977,11356,-30348,12415,12415,112,381,18,-17,-9,171,399,3899,1,62,873,1781,1943,2119,2215,2135,1832,1937,2134
291978,11364,-30216,12480,12480,39,279,21,-8,-14,302,354,3876,-5,59,869,1781,1943,2119,2215,2135,1832,1937,2134
292979,11368,-30112,12545,12545,65,453,26,0,-8,108,305,3922,13,68,869,1781,1943,2119,2215,2135,1832,1937,2134
293980,11352,-29996,12610,12610,192,377,34,6,3,217,305,4027,4,67,875,1781,1943,2119,2215,2135,1832,1937,2134
294981,11356,-29880,12675,12675,69,375,37,0,5,147,362,4006,5,62,872,1781,1943,2119,2215,2135,1832,1937,2134
295982,11368,-29780,12740,12740,20,475,41,5,-5,118,371,3889,12,65,872,1783,1946,2122,2216,2144,1837,1943,2142
296983,11356,-29644,12805,12805,172,248,47,4,-5,228,260,3935,3,64,873,1783,1946,2122,2216,2144,1837,1943,2142
297984,11352,-29524,12870,12870,124,347,49,19,8,472,375,3956,-5,58,872,1783,1946,2122,2216,2144,1837,1943,2142
298985,11368,-29420,12935,12935,0,446,35,8,-5,193,430,3972,-5,57,873,1783,1946,2122,2216,2144,1837,1943,2142
299986,11368,-29316,13000,13000,101,445,30,4,-10,229,314,3835,13,70,873,1783,1946,2122,2216,2144,1837,1943,2142
300987,11356,-29212,13065,13065,178,444,38,10,-8,255,382,3996,-5,57,873,1782,1942,2119,2213,2143,1835,1942,2143
301988,11364,-29104,13130,13130,55,418,34,11,-12,-187,283,3972,-2,66,871,1782,1942,2119,2213,2143,1835,1942,2143
302989,11364,-28984,13195,13195,106,341,45,12,-15,227,254,3897,1,70,871,1782,1942,2119,2213,2143,1835,1942,2143
303990,11372,-28868,13260,13260,58,365,53,12,-1,460,290,4076,0,64,872,1782,1942,2119,2213,2143,1835,1942,2143
304991,11368,-28760,13325,13325,134,414,49,7,6,84,340,3963,13,67,873,1782,1942,2119,2213,2143,1835,1942,2143
305992,11368,-28644,13390,13390,111,363,50,6,-1,42,367,3903,-6,70,873,1782,1942,2119,2213,2143,1835,1942,2143
306993,11372,-28524,13455,13455,87,336,45,1,1,218,442,3876,9,71,872,1778,1939,2113,2208,2141,1836,1941,2139
307994,11360,-28384,13520,13520,189,210,37,-1,-9,298,460,3878,8,66,873,1778,1939,2113,2208,2141,1836,1941,2139
308995,11360,-28268,13585,13585,116,358,33,-4,-23,71,381,3921,3,69,870,1778,1939,2113,2208,2141,1836,1941,2139
309996,11368,-28152,13650,13650,67,357,35,7,-34,89,397,3927,-5,61,870,1778,1939,2113,2208,2141,1836,1941,2139
310998,11380,-28044,13715,13715,44,406,39,7,-17,441,293,3922,14,61,872,1778,1939,2113,2208,2141,1836,1941,2139
311998,11364,-27928,13780,13780,220,355,49,7,-2,261,299,4023,-5,73,873,1776,1935,2112,2207,2140,1837,1941,2140
312999,11368,-27816,13845,13845,97,379,53,7,1,9,293,3936,12,65,873,1776,1935,2112,2207,2140,1837,1941,2140
314000,11368,-27680,13910,13910,124,227,43,-2,8,211,429,3918,1,61,871,1776,1935,2112,2207,2140,1837,1941,2140
315001,11372,-27552,13975,13975,100,275,35,11,0,171,446,3906,-5,74,872,1776,1935,2112,2207,2140,1837,1941,2140
316002,11372,-27432,14040,14040,127,324,29,3,-8,316,370,3765,-3,76,874,1776,1935,2112,2207,2140,1837,1941,2140
317003,11368,-27324,14105,14105,153,398,35,3,-14,440,389,4062,12,66,874,1776,1935,2112,2207,2140,1837,1941,2140
318004,11368,-27208,14170,14170,130,347,33,3,-14,199,348,3832,1,67,873,1779,1940,2116,2208,2141,1836,1939,2139
319005,11388,-27048,14235,14235,6,69,38,2,-12,267,273,3973,0,70,872,1779,1940,2116,2208,2141,1836,1939,2139
320006,11384,-26940,14300,14300,158,393,44,13,-21,36,284,4020,4,77,873,1779,1940,2116,2208,2141,1836,1939,2139
321007,11380,-26800,14365,14365,159,192,45,7,-8,93,331,3881,0,61,876,1779,1940,2116,2208,2141,1836,1939,2139
322008,11388,-26704,14430,14430,86,466,46,5,-10,332,399,3912,10,64,872,1779,1940,2116,2208,2141,1836,1939,2139
323009,11388,-26576,14495,14495,137,264,40,6,-8,36,403,3941,2,71,874,1783,1943,2122,2215,2139,1838,1943,2143
324010,11380,-26456,14560,14560,189,313,29,-9,0,135,411,3973,-2,64,871,1783,1943,2122,2215,2139,1838,1943,2143
325011,11392,-26336,14625,14625,65,312,25,-5,4,106,410,3800,15,76,873,1783,1943,2122,2215,2139,1838,1943,2143
326012,11396,-26216,14690,14690,117,310,25,-8,10,164,387,4041,12,74,869,1783,1943,2122,2215,2139,1838,1943,2143
327013,11396,-26096,14755,14755,144,309,26,-5,3,172,391,3856,0,67,870,1783,1943,2122,2215,2139,1838,1943,2143
328014,11400,-25984,14820,14820,120,358,28,3,-8,263,351,3972,-3,67,873,1783,1943,2122,2215,2139,1838,1943,2143
329015,11412,-25864,14885,14885,71,306,30,-5,-22,260,328,4037,13,67,873,1781,1942,2119,2212,2145,1839,1943,2143
330016,11412,-25736,14950,14950,148,255,39,-3,-35,23,280,3988,7,69,872,1781,1942,2119,2212,2145,1839,1943,2143
331017,11412,-25620,15015,15015,149,329,38,-2,-26,403,293,3787,-2,75,874,1781,1942,2119,2212,2145,1839,1943,2143
332018,11408,-25500,15080,15080,176,302,42,7,-15,734,390,3912,13,81,874,1781,1942,2119,2212,2145,1839,1943,2143
333019,11416,-25368,15145,15145,103,226,38,0,5,-61,306,4031,-1,76,873,1781,1942,2119,2212,2145,1839,1943,2143
334020,11440,-25244,15210,15210,4,274,38,-13,12,45,395,3903,13,69,873,1779,1940,2115,2209,2141,1835,1940,2139
335021,11440,-25124,15275,15275,155,298,37,-7,20,129,309,3947,11,70,874,1779,1940,2115,2209,2141,1835,1940,2139
336022,11436,-25012,15340,15340,182,347,31,2,24,137,374,3878,11,73,875,1779,1940,2115,2209,2141,1835,1940,2139
337023,11452,-24868,15405,15405,58,145,34,15,13,527,423,3829,7,66,873,1779,1940,2115,2209,2141,1835,1940,2139
338024,11448,-24748,15470,15470,185,293,30,3,-6,339,398,3952,-1,72,872,1779,1940,2115,2209,2141,1835,1940,2139
339025,11460,-24616,15535,15535,86,217,32,-9,-18,104,333,3991,6,81,876,1779,1940,2115,2209,2141,1835,1940,2139
340026,11468,-24484,15600,15600,112,215,35,-15,-20,54,358,3971,-1,67,873,1778,1940,2114,2208,2140,1834,1939,2138
341027,11472,-24368,15665,15665,139,314,36,3,-22,88,311,3882,3,69,874,1778,1940,2114,2208,2140,1834,1939,2138
342028,11476,-24264,15730,15730,140,388,38,22,-11,571,284,3876,-2,71,874,1778,1940,2114,2208,2140,1834,1939,2138
343029,11492,-24152,15795,15795,67,337,48,20,3,290,235,4025,16,72,870,1778,1940,2114,2208,2140,1834,1939,2138
344030,11492,-24012,15860,15860,168,160,54,2,4,-102,293,4030,17,75,869,1778,1940,2114,2208,2140,1834,1939,2138
345031,11508,-23880,15925,15925,69,208,51,1,-4,-184,314,3953,0,81,874,1775,1936,2113,2208,2137,1831,1939,2139
346032,11504,-23748,15990,15990,196,207,44,3,-8,203,351,3849,8,68,874,1775,1936,2113,2208,2137,1831,1939,2139
347033,11496,-23648,16055,16055,223,406,37,7,-17,636,450,3865,14,67,875,1775,1936,2113,2208,2137,1831,1939,2139
348034,11520,-23516,16120,16120,24,204,32,4,-18,319,415,3924,0,73,874,1775,1936,2113,2208,2137,1831,1939,2139
349035,11512,-23348,16185,16185,226,-23,29,4,-14,358,388,3931,11,72,871,1775,1936,2113,2208,2137,1831,1939,2139
350036,11528,-23232,16384,16384,424,648,37,-11,-10,-100,242,4076,17,70,875,1775,1936,2113,2208,2137,1831,1939,2139
351037,11540,-23140,16449,16449,450,797,47,0,-10,-396,251,4127,4,79,875,1782,1942,2119,2214,2140,1838,1941,2140
352038,11540,-23012,16514,16514,527,570,59,13,6,67,288,3700,21,81,865,1782,1942,2119,2214,2140,1838,1941,2140
353039,11560,-22872,16579,16579,403,494,57,34,18,658,420,3844,8,85,862,1782,1942,2119,2214,2140,1838,1941,2140
354040,11580,-22724,16644,16644,404,442,44,-2,2,236,445,3905,26,85,864,1782,1942,2119,2214,2140,1838,1941,2140
355041,11588,-22552,16709,16709,481,289,37,-6,-7,-38,475,3998,26,84,867,1782,1942,2119,2214,2140,1838,1941,2140
356042,11632,-22424,16774,16774,256,562,25,-8,0,446,304,3782,10,93,868,1784,1944,2120,2217,2143,1839,1944,2144
357043,11656,-22304,16839,16839,382,611,39,5,-14,282,316,4060,15,85,868,1784,1944,2120,2217,2143,1839,1944,2144
358044,11672,-22108,16904,16904,433,133,43,24,-21,277,345,3896,24,92,869,1784,1944,2120,2217,2143,1839,1944,2144
359045,11704,-21956,16969,16969,334,406,45,8,-19,458,294,3880,14,97,866,1784,1944,2120,2217,2143,1839,1944,2144
360046,11740,-21808,17034,17034,310,429,49,-3,-18,41,290,4030,17,92,867,1784,1944,2120,2217,2143,1839,1944,2144
361047,11784,-21676,17099,17099,260,527,50,-3,-11,-84,371,4013,16,98,866,1784,1944,2120,2217,2143,1839,1944,2144
362048,11840,-21524,17164,17164,185,400,42,8,0,394,375,3603,32,90,870,1780,1940,2116,2208,2144,1836,1941,2140
363049,11876,-21368,17229,17229,311,373,44,8,6,244,399,4019,26,95,869,1780,1940,2116,2208,2144,1836,1941,2140
364050,11912,-21228,17294,17294,312,471,38,-10,-1,23,383,4052,17,90,871,1780,1940,2116,2208,2144,1836,1941,2140
365051,11964,-21072,17359,17359,212,369,39,-2,1,320,329,3800,19,83,870,1780,1940,2116,2208,2144,1836,1941,2140
366052,12004,-20924,17424,17424,288,417,42,5,2,416,322,3896,29,102,869,1780,1940,2116,2208,2144,1836,1941,2140
367053,12056,-20740,17489,17489,213,189,37,6,0,24,427,4120,32,102,871,1777,1936,2112,2205,2141,1836,1940,2142
368054,12084,-20580,17554,17554,364,337,33,-10,-10,-18,409,3829,37,94,870,1777,1936,2112,2205,2141,1836,1940,2142
369055,12144,-20432,17619,17619,164,409,31,-8,-9,-212,297,3942,19,89,873,1777,1936,2112,2205,2141,1836,1940,2142
370056,12184,-20288,17684,17684,290,433,35,8,-12,381,323,3825,21,93,870,1777,1936,2112,2205,2141,1836,1940,2142
371057,12248,-20112,17749,17749,140,230,42,14,-6,542,301,4033,19,99,871,1777,1936,2112,2205,2141,1836,1940,2142
372058,12276,-19956,17814,17814,366,353,47,-6,-3,519,351,3931,39,103,870,1777,1936,2112,2205,2141,1836,1940,2142
373059,12324,-19804,17879,17879,241,375,47,1,-2,-78,394,4156,36,97,874,1774,1934,2112,2206,2142,1837,1940,2139
374060,12392,-19640,17944,17944,116,298,35,13,4,-37,401,3711,24,100,870,1774,1934,2112,2206,2142,1837,1940,2139
375061,12440,-19476,18009,18009,241,296,35,26,-5,624,399,3819,30,91,871,1774,1934,2112,2206,2142,1837,1940,2139
376062,12496,-19324,18074,18074,192,369,36,20,-5,459,369,4150,39,97,873,1774,1934,2112,2206,2142,1837,1940,2139
377063,12536,-19164,18139,18139,292,316,44,6,-9,-11,346,4068,35,100,868,1774,1934,2112,2206,2142,1837,1940,2139
378064,12596,-18992,18204,18204,167,239,45,-15,-11,-95,293,3707,23,95,868,1778,1937,2116,2211,2142,1838,1942,2140
379065,12648,-18816,18269,18269,218,211,40,-9,-1,31,404,4089,40,90,871,1778,1937,2116,2211,2142,1838,1942,2140
380066,12688,-18640,18334,18334,293,208,35,9,-5,77,451,3920,28,106,873,1778,1937,2116,2211,2142,1838,1942,2140
381067,12744,-18460,18399,18399,194,180,33,1,-3,-115,265,3812,39,106,873,1778,1937,2116,2211,2142,1838,1942,2140
382068,12800,-18296,18464,18464,194,278,36,2,-2,518,330,3961,42,102,872,1778,1937,2116,2211,2142,1838,1942,2140
383069,12844,-18148,18529,18529,269,376,36,-14,-7,297,400,4133,36,99,874,1778,1937,2116,2211,2142,1838,1942,2140
384070,12892,-17980,18594,18594,245,248,35,-6,-5,114,363,3817,24,107,872,1783,1942,2120,2216,2144,1838,1943,2142
385071,12952,-17792,18659,18659,170,120,34,2,-1,574,381,3805,31,103,871,1783,1942,2120,2216,2144,1838,1943,2142
386072,13000,-17620,18724,18724,245,218,32,-5,-9,-4,391,4124,28,94,872,1783,1942,2120,2216,2144,1838,1943,2142
387073,13064,-17468,18789,18789,145,341,32,6,-9,85,314,3926,37,105,874,1783,1942,2120,2216,2144,1838,1943,2142
388074,13128,-17288,18854,18854,145,163,53,14,0,338,206,3721,35,90,873,1783,1942,2120,2216,2144,1838,1943,2142
389075,13168,-17128,18919,18919,296,286,58,13,-2,470,379,4256,27,107,872,1781,1941,2117,2211,2143,1835,1939,2140
390076,13224,-16944,18984,18984,196,133,49,-3,-6,172,466,3919,34,109,874,1781,1941,2117,2211,2143,1835,1939,2140
391077,13288,-16752,19049,19049,146,80,41,10,1,-301,329,3770,37,92,871,1781,1941,2117,2211,2143,1835,1939,2140
392078,13336,-16580,19114,19114,247,202,34,3,-3,222,491,3867,26,97,874,1781,1941,2117,2211,2143,1835,1939,2140
393079,13388,-16428,19179,19179,222,325,32,16,1,488,337,4065,26,98,874,1781,1941,2117,2211,2143,1835,1939,2140
394080,13432,-16264,19244,19244,272,247,34,5,0,266,364,3886,33,94,870,1781,1941,2117,2211,2143,1835,1939,2140
395081,13496,-16088,19309,19309,147,170,39,0,0,128,290,3892,27,104,869,1779,1937,2112,2208,2139,1835,1940,2139
396082,13560,-15908,19374,19374,147,142,39,-5,1,363,315,4120,32,94,872,1779,1937,2112,2208,2139,1835,1940,2139
397083,13620,-15744,19439,19439,173,239,39,10,-11,172,329,3794,27,93,874,1779,1937,2112,2208,2139,1835,1940,2139
398084,13664,-15564,19504,19504,273,137,48,10,-8,-58,262,4041,25,107,874,1779,1937,2112,2208,2139,1835,1940,2139
399085,13724,-15408,19569,19569,173,284,57,22,-11,176,338,3869,33,92,873,1779,1937,2112,2208,2139,1835,1940,2139
400086,13776,-15232,19634,19634,224,157,62,5,-12,128,353,4066,33,104,873,1774,1934,2112,2206,2141,1836,1939,2136
401087,13832,-15036,19699,19699,199,29,47,-1,-14,307,472,3931,26,95,873,1774,1934,2112,2206,2141,1836,1939,2136
402088,13888,-14824,19764,19764,199,-75,38,-19,-5,-19,341,3814,30,98,873,1774,1934,2112,2206,2141,1836,1939,2136
403089,13944,-14672,19829,19829,199,298,35,7,-1,135,424,4005,35,103,875,1774,1934,2112,2206,2141,1836,1939,2136
404090,14004,-14512,19894,19894,174,245,34,-3,-1,36,302,3972,29,90,874,1774,1934,2112,2206,2141,1836,1939,2136
405091,14048,-14320,19959,19959,275,42,39,8,-13,451,374,3813,25,104,872,1774,1934,2112,2206,2141,1836,1939,2136
406092,14100,-14116,20024,20024,225,-36,41,2,-11,568,401,4015,27,94,873,1780,1938,2116,2211,2144,1840,1943,2143
407093,14152,-13920,20089,20089,225,11,37,-11,-4,398,421,3889,41,95,874,1780,1938,2116,2211,2144,1840,1943,2143
408094,14208,-13764,20154,20154,201,259,30,-10,-5,-76,426,4015,38,94,874,1780,1938,2116,2211,2144,1840,1943,2143
409095,14272,-13600,20219,20219,151,206,30,2,-12,-157,244,3813,33,90,874,1780,1938,2116,2211,2144,1840,1943,2143
410096,14320,-13420,20284,20284,251,103,43,28,-11,593,228,3896,31,100,873,1780,1938,2116,2211,2144,1840,1943,2143
411097,14380,-13268,20349,20349,176,276,50,17,0,458,306,4049,34,98,870,1779,1938,2119,2214,2148,1842,1944,2144
412098,14424,-13092,20414,20414,277,124,49,13,3,242,350,3927,41,101,870,1779,1938,2119,2214,2148,1842,1944,2144
413099,14472,-12936,20479,20479,252,246,41,4,-2,175,383,3909,33,94,873,1779,1938,2119,2214,2148,1842,1944,2144
414100,14536,-12752,20544,20544,152,68,34,-7,-10,201,479,3852,28,94,873,1779,1938,2119,2214,2148,1842,1944,2144
415101,14592,-12556,20609,20609,202,-10,40,4,-5,45,375,4019,40,89,872,1779,1938,2119,2214,2148,1842,1944,2144
416102,14644,-12424,20674,20674,228,389,35,24,-6,36,317,3986,32,94,874,1782,1939,2116,2211,2143,1837,1939,2135
417103,14704,-12224,20739,20739,178,-40,33,-4,-8,161,302,3884,28,94,874,1782,1939,2116,2211,2143,1837,1939,2135
418104,14768,-12040,20804,20804,153,57,44,-8,-10,0,331,4005,40,86,871,1782,1939,2116,2211,2143,1837,1939,2135
419105,14816,-11860,20869,20869,253,80,41,4,-3,296,337,3849,32,93,875,1782,1939,2116,2211,2143,1837,1939,2135
420106,14884,-11732,20934,20934,128,403,38,-3,-11,165,412,4027,25,99,875,1782,1939,2116,2211,2143,1837,1939,2135
421107,14932,-11556,20999,20999,254,100,31,7,0,-187,228,3742,41,98,873,1782,1939,2116,2211,2143,1837,1939,2135
422108,14988,-11384,21064,21064,204,123,43,7,-7,704,415,3973,40,98,872,1779,1936,2112,2210,2138,1835,1939,2135
423109,15044,-11184,21129,21129,204,-56,38,19,-9,193,320,4017,45,89,873,1779,1936,2112,2210,2138,1835,1939,2135
424110,15104,-11016,21194,21194,179,142,40,-4,-4,396,350,3838,41,91,874,1779,1936,2112,2210,2138,1835,1939,2135
425111,15148,-10844,21259,21259,280,114,43,-4,0,147,366,4017,43,102,874,1779,1936,2112,2210,2138,1835,1939,2135
426112,15212,-10688,21324,21324,155,212,40,-12,1,-222,374,3973,28,92,874,1779,1936,2112,2210,2138,1835,1939,2135
427113,15264,-10504,21389,21389,230,34,43,13,-13,-240,318,3865,40,90,873,1777,1934,2111,2208,2140,1836,1940,2138
428114,15324,-10300,21454,21454,180,-94,38,-12,-8,199,247,3864,31,90,870,1777,1934,2111,2208,2140,1836,1940,2138
429115,15380,-10156,21519,21519,205,279,52,-2,-14,160,403,4127,34,99,871,1777,1934,2111,2208,2140,1836,1940,2138
430116,15428,-9956,21584,21584,256,-74,43,-21,-14,281,409,3857,25,95,874,1777,1934,2111,2208,2140,1836,1940,2138
431117,15488,-9780,21649,21649,181,73,42,-20,-7,338,361,3821,35,100,873,1777,1934,2111,2208,2140,1836,1940,2138
432118,15548,-9616,21714,21714,181,145,37,0,6,169,383,4063,39,80,873,1777,1934,2111,2208,2140,1836,1940,2138
433119,15592,-9468,21779,21779,282,243,36,15,4,359,389,3794,27,83,874,1782,1940,2117,2211,2144,1840,1943,2144
434120,15644,-9292,21844,21844,232,66,39,28,9,599,164,3962,26,80,873,1782,1940,2117,2211,2144,1840,1943,2144
435121,15708,-9088,21909,21909,157,-113,59,14,5,386,314,4007,27,94,871,1782,1940,2117,2211,2144,1840,1943,2144
436122,15764,-8912,21974,21974,207,60,56,27,-4,50,413,4046,41,94,873,1782,1940,2117,2211,2144,1840,1943,2144
437123,15812,-8772,22039,22039,258,283,50,9,1,-105,465,3866,39,96,873,1782,1940,2117,2211,2144,1840,1943,2144
438124,15860,-8620,22104,22104,258,206,32,0,-16,38,451,3933,25,85,875,1780,1939,2115,2215,2148,1844,1945,2144
439125,15920,-8432,22169,22169,183,-22,33,-14,-23,219,373,3808,42,80,871,1780,1939,2115,2215,2148,1844,1945,2144
440126,15984,-8256,22234,22234,158,50,38,-2,-23,297,381,4015,42,89,872,1780,1939,2115,2215,2148,1844,1945,2144
441127,16024,-8072,22299,22299,309,-3,36,-17,-22,215,329,3961,30,92,875,1780,1939,2115,2215,2148,1844,1945,2144
442128,16084,-7940,22364,22364,184,320,43,2,-8,43,317,3959,30,79,874,1780,1939,2115,2215,2148,1844,1945,2144
443129,16140,-7788,22429,22429,209,193,41,8,-5,433,369,3820,45,91,873,1780,1939,2115,2215,2148,1844,1945,2144
444130,16208,-7624,22494,22494,134,116,44,8,4,428,319,4017,31,91,872,1776,1937,2114,2208,2144,1837,1941,2137
445131,16256,-7436,22559,22559,259,-37,37,1,9,123,369,3984,38,84,870,1776,1937,2114,2208,2144,1837,1941,2137
446132,16316,-7300,22624,22624,185,286,48,-4,9,0,260,3822,34,79,871,1776,1937,2114,2208,2144,1837,1941,2137
447133,16376,-7152,22689,22689,185,209,49,16,4,56,316,4139,43,94,874,1776,1937,2114,2208,2144,1837,1941,2137
448134,16436,-6992,22754,22754,185,132,49,6,-5,166,395,3760,25,78,872,1776,1937,2114,2208,2144,1837,1941,2137
449135,16480,-6816,22819,22819,285,29,44,5,-13,102,432,3995,24,73,873,1777,1936,2112,2208,2139,1835,1939,2135
450136,16532,-6664,22884,22884,236,177,29,-37,-15,70,467,3942,25,74,873,1777,1936,2112,2208,2139,1835,1939,2135
451137,16588,-6516,22949,22949,211,200,22,-22,-21,269,429,3852,36,80,874,1777,1936,2112,2208,2139,1835,1939,2135
452138,16652,-6360,23014,23014,161,148,23,1,-16,405,352,3847,28,82,873,1777,1936,2112,2208,2139,1835,1939,2135
453139,16704,-6208,23079,23079,236,171,35,15,-5,226,252,4185,35,90,872,1777,1936,2112,2208,2139,1835,1939,2135
454140,16768,-6060,23144,23144,161,193,43,14,3,291,268,3824,37,76,874,1777,1936,2112,2208,2139,1835,1939,2135
455141,16804,-5892,23209,23209,337,66,49,20,2,146,295,4049,25,74,873,1777,1935,2113,2207,2142,1837,1939,2137
456142,16860,-5720,23274,23274,212,38,54,5,1,158,244,4001,36,85,874,1777,1935,2113,2207,2142,1837,1939,2137
457143,16924,-5568,23339,23339,162,161,54,-9,-7,127,423,3871,38,75,872,1777,1935,2113,2207,2142,1837,1939,2137
458144,16968,-5424,23404,23404,288,209,42,-8,-10,210,430,3934,39,79,874,1777,1935,2113,2207,2142,1837,1939,2137
459145,17028,-5284,23469,23469,188,232,38,6,-18,108,425,3810,33,77,874,1777,1935,2113,2207,2142,1837,1939,2137
460146,17076,-5120,23534,23534,263,80,34,1,-21,-56,333,3949,35,73,872,1783,1940,2116,2212,2140,1837,1941,2138
461147,17120,-4972,23599,23599,289,178,41,13,-20,454,328,3968,26,88,873,1783,1940,2116,2212,2140,1837,1941,2138
462148,17188,-4840,23664,23664,139,276,35,9,-12,515,316,3892,26,72,871,1783,1940,2116,2212,2140,1837,1941,2138
463149,17240,-4688,23729,23729,239,149,40,3,-7,-10,326,4101,31,83,869,1783,1940,2116,2212,2140,1837,1941,2138
464150,17288,-4576,23794,23794,264,398,42,1,-8,146,301,3785,24,80,873,1783,1940,2116,2212,2140,1837,1941,2138
465151,17352,-4416,23859,23859,164,96,50,-2,2,120,352,3976,26,80,873,1783,1940,2116,2212,2140,1837,1941,2138
466152,17392,-4256,23924,23924,315,93,43,-5,-7,274,416,3870,29,69,870,1784,1941,2119,2213,2145,1842,1944,2144
467153,17456,-4104,23989,23989,165,141,50,2,-11,26,337,4000,29,69,874,1784,1941,2119,2213,2145,1842,1944,2144
468154,17516,-3984,24054,24054,190,340,43,-5,1,179,344,3955,33,71,873,1784,1941,2119,2213,2145,1842,1944,2144
469155,17576,-3852,24119,24119,190,263,50,17,-18,342,395,3791,37,75,874,1784,1941,2119,2213,2145,1842,1944,2144
470156,17636,-3692,24184,24184,190,86,43,1,-12,-35,320,3992,27,66,872,1784,1941,2119,2213,2145,1842,1944,2144
471157,17696,-3580,24249,24249,190,385,47,-2,-10,180,429,3968,25,72,872,1781,1940,2116,2211,2144,1840,1945,2139
472158,17744,-3428,24314,24314,266,133,41,3,-6,328,407,3857,25,69,874,1781,1940,2116,2211,2144,1840,1945,2139
473159,17800,-3284,24379,24379,216,181,32,-16,-5,192,394,3971,24,70,871,1781,1940,2116,2211,2144,1840,1945,2139
474160,17856,-3164,24444,24444,216,330,32,-11,-4,16,321,3843,42,66,872,1781,1940,2116,2211,2144,1840,1945,2139
475161,17908,-3040,24509,24509,242,303,37,-7,-6,293,368,4017,29,78,871,1781,1940,2116,2211,2144,1840,1945,2139
476162,17952,-2896,24574,24574,292,176,38,-11,-4,375,278,3791,33,81,871,1781,1940,2116,2211,2144,1840,1945,2139
477163,18008,-2756,24639,24639,217,199,40,-10,-13,299,327,4031,32,67,872,1776,1935,2111,2204,2144,1838,1942,2142
478164,18084,-2612,24704,24704,92,172,43,-7,-14,254,325,4033,37,75,869,1776,1935,2111,2204,2144,1838,1942,2142
479165,18128,-2492,24769,24769,293,321,43,-6,-11,295,346,3733,28,79,870,1776,1935,2111,2204,2144,1838,1942,2142
480166,18192,-2344,24834,24834,168,144,46,6,-12,302,355,4022,32,78,870,1776,1935,2111,2204,2144,1838,1942,2142
481167,18232,-2208,24899,24899,318,217,42,10,-16,176,349,3954,39,77,874,1776,1935,2111,2204,2144,1838,1942,2142
482168,18284,-2100,24964,24964,244,391,45,10,-15,35,281,3857,25,62,871,1772,1933,2109,2203,2143,1835,1937,2139
483169,18340,-1952,25029,25029,219,139,45,8,-2,202,373,4014,37,76,870,1772,1933,2109,2203,2143,1835,1937,2139
484170,18396,-1824,25094,25094,219,263,49,25,-11,307,331,3851,30,78,873,1772,1933,2109,2203,2143,1835,1937,2139
485171,18464,-1692,25159,25159,144,236,49,7,-9,224,355,3971,26,73,871,1772,1933,2109,2203,2143,1835,1937,2139
486174,18520,-1580,25224,25224,219,360,45,-10,-12,247,477,4075,25,70,873,1772,1933,2109,2203,2143,1835,1937,2139
487173,18560,-1448,25289,25289,320,233,38,-10,-12,236,392,3768,26,62,871,1772,1933,2109,2203,2143,1835,1937,2139
488174,18624,-1312,25354,25354,170,207,34,-14,-13,107,437,3936,30,64,871,1777,1936,2115,2211,2143,1839,1943,2140
489175,18684,-1192,25419,25419,195,305,32,-9,-8,236,379,3962,46,67,872,1777,1936,2115,2211,2143,1839,1943,2140
490176,18736,-1052,25484,25484,245,178,31,1,-1,204,361,3938,35,65,871,1777,1936,2115,2211,2143,1839,1943,2140
491177,18776,-936,25549,25549,321,327,35,4,1,25,297,3862,33,61,872,1777,1936,2115,2211,2143,1839,1943,2140
492178,18832,-796,25614,25614,221,175,41,19,9,224,279,4026,26,70,870,1777,1936,2115,2211,2143,1839,1943,2140
493179,18892,-668,25679,25679,196,249,44,9,6,383,331,3886,39,68,872,1779,1939,2121,2216,2146,1840,1942,2139
494180,18948,-564,25744,25744,221,398,38,7,-3,155,377,3955,27,72,871,1779,1939,2121,2216,2146,1840,1942,2139
495181,18992,-448,25809,25809,297,322,40,-8,-12,388,423,3809,28,66,867,1779,1939,2121,2216,2146,1840,1942,2139
496182,19048,-312,25874,25874,222,195,26,-8,-18,400,433,3931,32,66,866,1779,1939,2121,2216,2146,1840,1942,2139
497183,19116,-184,25939,25939,147,243,25,-24,-23,61,370,3927,29,69,871,1779,1939,2121,2216,2146,1840,1942,2139
498184,19184,-68,26004,26004,147,317,29,-4,-36,267,305,3946,28,66,872,1779,1939,2121,2216,2146,1840,1942,2139
499185,19232,64,26069,26069,272,215,38,-9,-26,231,180,3909,31,60,871,1784,1940,2117,2211,2143,1839,1943,2143
500186,19288,184,26134,26134,223,289,59,19,-10,119,176,4208,29,69,871,1784,1940,2117,2211,2143,1839,1943,2143
501187,19356,288,26199,26199,148,388,68,24,5,254,176,3774,34,77,870,1784,1940,2117,2211,2143,1839,1943,2143
502188,19432,400,26264,26264,97,337,69,22,19,165,293,4099,44,62,870,1784,1940,2117,2211,2143,1839,1943,2143
503189,19460,540,26329,26329,398,160,66,13,24,43,409,3936,28,61,871,1784,1940,2117,2211,2143,1839,1943,2143
504190,19520,648,26394,26394,198,359,60,8,25,220,475,3778,24,61,869,1779,1937,2114,2210,2139,1836,1940,2137
505191,19580,792,26459,26459,198,132,40,-7,17,102,589,3882,39,62,870,1779,1937,2114,2210,2139,1836,1940,2137
506192,19652,908,26524,26524,123,306,23,-7,-1,186,540,3840,26,63,873,1779,1937,2114,2210,2139,1836,1940,2137
507193,19696,1032,26589,26589,299,254,11,-16,-13,230,500,3929,38,68,871,1779,1937,2114,2210,2139,1836,1940,2137
508194,19748,1180,26654,26654,249,102,6,-27,-26,180,401,3886,42,75,870,1779,1937,2114,2210,2139,1836,1940,2137
509195,19796,1300,26719,26719,275,276,15,-20,-31,360,346,3935,37,73,872,1779,1937,2114,2210,2139,1836,1940,2137
510196,19860,1416,26784,26784,175,300,23,-27,-16,372,223,4039,42,74,870,1778,1935,2112,2204,2144,1839,1941,2144
511197,19920,1540,26849,26849,200,248,39,-9,-19,330,205,3964,42,61,871,1778,1935,2112,2204,2144,1839,1941,2144
512198,19964,1668,26914,26914,300,222,56,4,-14,316,108,3903,35,73,868,1778,1935,2112,2204,2144,1839,1941,2144
513199,20028,1800,26979,26979,175,195,65,7,-1,379,224,4047,26,63,867,1778,1935,2112,2204,2144,1839,1941,2144
514200,20104,1912,27044,27044,100,319,63,14,2,419,367,3996,29,73,872,1778,1935,2112,2204,2144,1839,1941,2144
515201,20172,2032,27109,27109,150,268,63,39,-2,269,363,3879,42,72,871,1776,1936,2113,2208,2147,1842,1943,2144
516202,20228,2160,27174,27174,225,216,48,7,-1,40,404,3889,26,59,871,1776,1936,2113,2208,2147,1842,1943,2144
517203,20280,2268,27239,27239,250,340,47,19,-3,117,488,3935,37,63,871,1776,1936,2113,2208,2147,1842,1943,2144
518204,20336,2384,27304,27304,226,289,33,-10,-12,56,450,3935,24,72,869,1776,1936,2113,2208,2147,1842,1943,2144
519205,20396,2508,27369,27369,201,237,29,-14,-1,169,429,3813,36,78,870,1776,1936,2113,2208,2147,1842,1943,2144
520206,20452,2608,27434,27434,226,387,26,-14,-5,136,397,3937,26,67,871,1776,1936,2113,2208,2147,1842,1943,2144
521207,20496,2752,27499,27499,301,110,30,-12,2,38,291,3935,26,67,869,1775,1937,2118,2216,2149,1845,1947,2145
522208,20564,2892,27564,27564,151,133,32,-6,11,215,350,3935,34,71,871,1775,1937,2118,2216,2149,1845,1947,2145
523209,20620,3000,27629,27629,227,332,36,13,12,447,292,3836,45,70,873,1775,1937,2118,2216,2149,1845,1947,2145
524210,20684,3140,27694,27694,177,130,44,16,8,356,326,4051,38,76,870,1775,1937,2118,2216,2149,1845,1947,2145
525211,20748,3248,27759,27759,177,329,40,11,0,34,336,3893,38,75,872,1775,1937,2118,2216,2149,1845,1947,2145
526212,20788,3380,27824,27824,327,177,37,18,-10,307,373,3830,36,74,871,1779,1937,2115,2209,2146,1844,1944,2140
527213,20860,3496,27889,27889,127,276,38,15,-21,587,328,4022,35,61,871,1779,1937,2115,2209,2146,1844,1944,2140
528214,20920,3620,27954,27954,202,225,34,0,-30,299,353,3922,41,71,871,1779,1937,2115,2209,2146,1844,1944,2140
529215,20976,3744,28019,28019,227,223,32,-4,-27,123,341,3969,42,63,869,1779,1937,2115,2209,2146,1844,1944,2140
530216,21036,3876,28084,28084,203,172,32,3,-20,314,288,3867,25,62,867,1779,1937,2115,2209,2146,1844,1944,2140
531217,21088,3980,28149,28149,253,346,42,13,-13,362,276,4003,31,64,872,1779,1937,2115,2209,2146,1844,1944,2140
532218,21132,4112,28214,28214,303,169,45,5,-10,160,227,4011,27,64,869,1780,1937,2116,2210,2141,1838,1939,2138
533219,21204,4216,28279,28279,128,343,54,5,6,51,266,3988,31,63,870,1780,1937,2116,2210,2141,1838,1939,2138
534220,21252,4324,28344,28344,279,317,59,25,10,149,322,3910,41,64,870,1780,1937,2116,2210,2141,1838,1939,2138
535221,21304,4452,28409,28409,254,190,57,24,4,191,390,3957,43,70,869,1780,1937,2116,2210,2141,1838,1939,2138
536223,21368,4568,28474,28474,179,264,49,8,19,82,458,3908,28,64,871,1780,1937,2116,2210,2141,1838,1939,2138
537223,21416,4692,28539,28539,279,213,46,5,16,409,538,3939,36,74,871,1779,1937,2114,2211,2137,1836,1940,2136
538224,21472,4820,28604,28604,230,186,32,5,7,89,466,3832,34,62,870,1779,1937,2114,2211,2137,1836,1940,2136
539225,21532,4948,28669,28669,205,185,30,6,7,-25,399,3844,44,65,871,1779,1937,2114,2211,2137,1836,1940,2136
540226,21584,5040,28734,28734,255,409,23,-2,0,395,367,3851,32,66,871,1779,1937,2114,2211,2137,1836,1940,2136
541227,21656,5192,28799,28799,130,32,26,-9,-10,349,351,4078,32,64,868,1779,1937,2114,2211,2137,1836,1940,2136
542228,21716,5324,28864,28864,205,155,26,0,-10,82,324,3863,32,69,873,1779,1937,2114,2211,2137,1836,1940,2136
543229,21780,5480,28929,28929,180,3,27,11,-19,314,262,3935,43,79,871,1781,1938,2115,2210,2144,1839,1943,2142
544230,21832,5592,28994,28994,255,277,42,11,-13,402,170,4023,24,67,873,1781,1938,2115,2210,2144,1839,1943,2142
545231,21888,5684,29059,29059,231,401,49,4,-5,403,256,4013,29,63,870,1781,1938,2115,2210,2144,1839,1943,2142
546232,21932,5768,29124,29124,306,451,48,-2,-21,145,295,3854,34,63,867,1781,1938,2115,2210,2144,1839,1943,2142
547233,21996,5904,29189,29189,181,124,56,15,-3,138,239,4042,28,68,864,1781,1938,2115,2210,2144,1839,1943,2142
548234,22048,6056,29254,29254,256,22,50,19,3,164,411,3804,39,75,872,1778,1936,2116,2208,2151,1845,1948,2148
549235,22096,6168,29319,29319,282,271,54,27,10,116,359,4030,35,65,872,1778,1936,2116,2208,2151,1845,1948,2148
550236,22164,6304,29384,29384,157,119,54,12,14,315,383,3952,45,64,869,1778,1936,2116,2208,2151,1845,1948,2148
551237,22232,6428,29449,29449,157,193,56,15,18,63,386,3798,32,74,872,1778,1936,2116,2208,2151,1845,1948,2148
552238,22272,6532,29514,29514,332,317,54,14,25,309,455,4030,43,71,871,1778,1936,2116,2208,2151,1845,1948,2148
553239,22324,6644,29579,29579,258,265,46,4,9,390,490,3859,32,68,868,1778,1936,2116,2208,2151,1845,1948,2148
554240,22388,6776,29644,29644,183,139,32,6,11,278,527,3774,43,79,870,1775,1935,2116,2214,2150,1844,1947,2145
555241,22448,6900,29709,29709,208,187,11,1,-4,232,589,3791,31,64,871,1775,1935,2116,2214,2150,1844,1947,2145
556242,22504,7028,29774,29774,233,161,6,-4,-13,-25,439,3904,32,65,871,1775,1935,2116,2214,2150,1844,1947,2145
557243,22556,7152,29839,29839,258,184,5,-4,-15,377,267,3916,33,69,871,1775,1935,2116,2214,2150,1844,1947,2145
558244,22612,7296,29904,29904,234,57,15,-9,-16,516,187,3976,32,66,870,1775,1935,2116,2214,2150,1844,1947,2145
559245,22664,7400,29969,29969,259,307,36,8,-2,63,173,4043,37,71,872,1779,1937,2114,2206,2149,1842,1945,2148
560246,22720,7500,30034,30034,234,331,46,15,-1,62,157,3966,41,69,869,1779,1937,2114,2206,2149,1842,1945,2148
561247,22780,7608,30099,30099,209,280,57,22,-6,173,172,4022,36,75,869,1779,1937,2114,2206,2149,1842,1945,2148
562248,22824,7712,30164,30164,310,304,65,26,10,409,249,4008,29,76,870,1779,1937,2114,2206,2149,1842,1945,2148
563249,22872,7816,30229,30229,285,303,58,11,8,413,447,3824,27,79,867,1779,1937,2114,2206,2149,1842,1945,2148
564250,22936,7968,30294,30294,185,1,55,7,13,54,419,4109,38,73,866,1779,1937,2114,2206,2149,1842,1945,2148
565251,22996,8092,30359,30359,210,174,45,16,16,161,467,3727,28,72,873,1771,1932,2110,2203,2139,1835,1938,2135
566252,23068,8208,30424,30424,135,223,36,18,2,291,444,3836,34,78,871,1771,1932,2110,2203,2139,1835,1938,2135
567253,23116,8328,30489,30489,286,197,35,23,1,38,375,4167,30,75,871,1771,1932,2110,2203,2139,1835,1938,2135
568254,23168,8428,30554,30554,261,321,39,3,-3,191,401,3771,41,69,870,1771,1932,2110,2203,2139,1835,1938,2135
569255,23236,8556,30619,30619,161,144,36,0,-7,183,465,3839,33,70,869,1771,1932,2110,2203,2139,1835,1938,2135
570256,23288,8676,30684,30684,261,193,28,-7,-4,161,437,4015,39,64,871,1781,1938,2115,2213,2140,1836,1942,2140
571257,23340,8788,30749,30749,261,242,21,-6,2,265,406,3860,36,62,870,1781,1938,2115,2213,2140,1836,1942,2140
572258,23396,8908,30814,30814,237,190,19,-11,4,-7,310,3898,43,80,870,1781,1938,2115,2213,2140,1836,1942,2140
573259,23452,9024,30879,30879,237,214,35,1,-1,-12,293,4055,26,75,870,1781,1938,2115,2213,2140,1836,1942,2140
574260,23488,9148,30944,30944,363,163,32,10,-3,196,292,3901,28,63,869,1781,1938,2115,2213,2140,1836,1942,2140
575261,23560,9268,31009,31009,137,186,41,22,-4,154,200,3903,27,67,869,1781,1938,2115,2213,2140,1836,1942,2140
576262,23616,9392,31074,31074,238,160,48,7,-2,124,279,4026,47,73,871,1782,1940,2118,2213,2147,1843,1946,2146
577263,23664,9520,31139,31139,288,133,58,8,-1,182,262,3879,42,65,871,1782,1940,2118,2213,2147,1843,1946,2146
578264,23724,9648,31204,31204,213,132,57,22,3,287,358,3878,33,67,870,1782,1940,2118,2213,2147,1843,1946,2146
579265,23784,9772,31269,31269,213,155,59,33,5,282,333,3933,32,62,871,1782,1940,2118,2213,2147,1843,1946,2146
580266,23828,9888,31334,31334,314,204,51,27,8,197,371,3950,35,69,870,1782,1940,2118,2213,2147,1843,1946,2146
581267,23868,10032,31399,31399,339,27,45,19,1,95,403,3923,26,76,866,1782,1941,2120,2216,2145,1842,1944,2141
582268,23916,10136,31464,31464,290,276,42,27,-6,210,385,3754,44,67,871,1782,1941,2120,2216,2145,1842,1944,2141
583269,23980,10244,31529,31529,190,250,36,16,-19,390,415,3933,42,67,869,1782,1941,2120,2216,2145,1842,1944,2141
584270,24044,10368,31594,31594,190,149,32,5,-16,236,439,3990,44,79,871,1782,1941,2120,2216,2145,1842,1944,2141
585271,24116,10464,31659,31659,140,323,26,-9,-9,127,385,3924,41,74,872,1782,1941,2120,2216,2145,1842,1944,2141
586272,24176,10596,31724,31724,215,96,27,-5,-14,76,324,3868,33,65,870,1782,1941,2120,2216,2145,1842,1944,2141
587273,24232,10712,31789,31789,240,195,42,-3,-12,194,271,4077,40,61,872,1779,1934,2111,2210,2145,1842,1944,2140
588274,24288,10836,31854,31854,240,144,45,-2,-1,284,289,3906,32,78,871,1779,1934,2111,2210,2145,1842,1944,2140
589275,24348,10948,31919,31919,215,217,51,3,17,-109,273,3993,29,65,871,1779,1934,2111,2210,2145,1842,1944,2140
590276,24404,11052,31984,31984,241,267,46,8,13,-102,375,3932,27,65,871,1779,1934,2111,2210,2145,1842,1944,2140
591277,24460,11160,32049,32049,241,240,63,5,13,44,343,3896,37,61,870,1779,1934,2111,2210,2145,1842,1944,2140
592278,24516,11260,32114,32114,241,290,49,5,9,122,446,4031,28,72,870,1774,1931,2111,2205,2144,1839,1939,2139
593279,24584,11368,32179,32179,166,239,42,-12,0,161,417,3612,29,67,870,1774,1931,2111,2205,2144,1839,1939,2139
594280,24632,11472,32244,32244,291,263,26,-10,-8,219,494,4074,43,75,871,1774,1931,2111,2205,2144,1839,1939,2139
595281,24704,11572,32309,32309,141,287,14,-17,-14,70,450,3830,42,61,870,1774,1931,2111,2205,2144,1839,1939,2139
596282,24764,11668,32374,32374,216,311,14,-4,-11,302,358,3762,37,71,871,1774,1931,2111,2205,2144,1839,1939,2139
597283,24820,11776,32439,32439,242,235,9,-15,-15,470,304,4006,40,73,870,1774,1931,2111,2205,2144,1839,1939,2139
598284,24868,11888,32504,32504,292,209,20,5,-11,365,258,4160,25,70,867,1777,1935,2114,2208,2147,1843,1945,2146
599285,24920,11984,32569,32569,267,308,31,11,-1,287,116,3671,25,60,870,1777,1935,2114,2208,2147,1843,1945,2146
600286,24964,12088,32768,32768,321,260,52,26,-3,416,264,4230,28,75,870,1777,1935,2114,2208,2147,1843,1945,2146
601287,25020,12200,32833,32833,246,209,64,30,-1,313,217,3872,44,76,869,1777,1935,2114,2208,2147,1843,1945,2146
602288,25076,12304,32898,32898,246,258,73,31,11,338,274,3919,42,74,871,1777,1935,2114,2208,2147,1843,1945,2146
603289,25144,12412,32963,32963,171,232,61,31,2,298,455,4010,36,60,870,1775,1935,2115,2207,2148,1843,1945,2143
604290,25200,12504,33028,33028,247,332,56,14,-1,-22,477,3851,42,59,871,1775,1935,2115,2207,2148,1843,1945,2143
605291,25244,12620,33093,33093,322,180,39,17,-3,-1,493,3933,26,61,869,1775,1935,2115,2207,2148,1843,1945,2143
606292,25292,12724,33158,33158,298,254,22,-5,-5,84,440,3626,27,64,870,1775,1935,2115,2207,2148,1843,1945,2143
607293,25340,12808,33223,33223,298,379,15,0,-16,186,456,4089,33,62,870,1775,1935,2115,2207,2148,1843,1945,2143
608294,25392,12940,33288,33288,273,77,7,-17,-21,-32,325,3838,43,72,868,1775,1935,2115,2207,2148,1843,1945,2143
609295,25444,13060,33353,33353,274,151,15,-17,-9,45,287,3965,47,71,872,1784,1940,2117,2218,2144,1839,1943,2139
610296,25512,13164,33418,33418,174,250,22,-11,-2,280,287,4079,29,75,871,1784,1940,2117,2218,2144,1839,1943,2139
611297,25576,13280,33483,33483,199,174,28,-12,4,102,166,3906,31,61,871,1784,1940,2117,2218,2144,1839,1943,2139
612298,25644,13388,33548,33548,173,223,53,-2,14,311,246,4069,45,64,872,1784,1940,2117,2218,2144,1839,1943,2139
613299,25692,13480,33613,33613,299,322,61,16,18,337,301,4001,28,65,872,1784,1940,2117,2218,2144,1839,1943,2139
614300,25756,13596,33678,33678,199,171,59,4,7,-41,333,3865,33,57,870,1779,1935,2113,2211,2143,1840,1940,2137
615301,25796,13700,33743,33743,350,245,53,7,2,129,401,3955,36,59,869,1779,1935,2113,2211,2143,1840,1940,2137
616302,25868,13808,33808,33808,149,219,50,1,-8,461,486,3968,26,67,869,1779,1935,2113,2211,2143,1840,1940,2137
617303,25920,13892,33873,33873,275,368,29,-5,-19,284,426,3653,42,67,871,1779,1935,2113,2211,2143,1840,1940,2137
618304,25980,13996,33938,33938,225,242,28,2,-29,175,488,4084,43,62,869,1779,1935,2113,2211,2143,1840,1940,2137
619305,26036,14100,34003,34003,250,241,20,-1,-24,343,330,3882,44,63,871,1779,1935,2113,2211,2143,1840,1940,2137
620306,26108,14176,34068,34068,150,416,30,7,-25,612,371,3979,31,64,870,1779,1935,2114,2210,2139,1836,1939,2139
621307,26152,14300,34133,34133,325,115,33,7,-4,239,241,3950,36,68,869,1779,1935,2114,2210,2139,1836,1939,2139
622308,26224,14412,34198,34198,150,189,51,25,6,153,226,3939,42,57,870,1779,1935,2114,2210,2139,1836,1939,2139
623309,26264,14508,34263,34263,351,288,59,42,14,393,259,4062,26,67,872,1779,1935,2114,2210,2139,1836,1939,2139
624310,26328,14620,34328,34328,201,187,60,41,5,72,320,4010,38,57,869,1779,1935,2114,2210,2139,1836,1939,2139
625311,26388,14736,34393,34393,226,160,68,17,14,-97,268,3916,44,70,872,1777,1935,2112,2207,2143,1838,1941,2141
626312,26436,14840,34458,34458,301,234,66,36,6,229,483,3909,28,56,872,1777,1935,2112,2207,2143,1838,1941,2141
627313,26476,14916,34523,34523,352,409,52,11,-2,-275,412,3908,36,69,870,1777,1935,2112,2207,2143,1838,1941,2141
628314,26552,15032,34588,34588,127,158,35,-9,-17,-83,523,3981,45,56,868,1777,1935,2112,2207,2143,1838,1941,2141
629315,26624,15140,34653,34653,152,207,26,-19,-16,150,398,3749,46,65,872,1777,1935,2112,2207,2143,1838,1941,2141
630316,26688,15232,34718,34718,202,306,15,-37,-11,149,421,3945,32,62,872,1779,1939,2116,2213,2143,1838,1941,2141
631317,26748,15348,34783,34783,227,155,14,-24,-16,-34,411,3946,43,67,871,1779,1939,2116,2213,2147,1842,1946,2146
632318,26796,15448,34848,34848,302,254,14,-24,-5,261,250,3911,28,63,869,1779,1939,2116,2213,2147,1842,1946,2146
633319,26892,15548,34913,34913,1,253,28,-7,-8,742,353,3932,34,68,870,1779,1939,2116,2213,2147,1842,1946,2146
634320,26932,15672,34978,34978,352,102,36,7,-3,271,175,3874,30,54,873,1779,1939,2116,2213,2147,1842,1946,2146
635321,27008,15776,35043,35043,127,226,50,18,-3,637,216,4119,42,67,871,1779,1939,2116,2213,2147,1842,1946,2146
636322,27056,15876,35108,35108,302,250,61,32,1,575,195,3888,46,69,872,1782,1940,2118,2208,2153,1844,1949,2153
637323,27108,15984,35173,35173,277,199,71,35,3,68,291,3987,44,55,870,1782,1940,2118,2208,2153,1844,1949,2153
638324,27180,16084,35238,35238,152,248,69,33,2,283,406,3856,37,61,871,1782,1940,2118,2208,2153,1844,1949,2153
639325,27248,16172,35303,35303,177,323,59,28,-6,227,497,3900,45,55,872,1782,1940,2118,2208,2153,1844,1949,2153
640326,27284,16264,35368,35368,378,297,46,11,-5,-86,426,3794,43,66,871,1782,1940,2118,2208,2153,1844,1949,2153
641327,27352,16364,35433,35433,178,246,33,0,-4,146,536,3862,37,62,869,1783,1941,2115,2215,2146,1840,1944,2138
642328,27420,16476,35498,35498,178,170,27,-2,-4,6,459,3927,41,67,872,1783,1941,2115,2215,2146,1840,1944,2138
643329,27492,16560,35563,35563,153,344,17,-12,-3,93,434,3920,45,65,873,1783,1941,2115,2215,2146,1840,1944,2138
644330,27548,16668,35628,35628,253,193,17,-9,-11,211,346,3835,42,66,871,1783,1941,2115,2215,2146,1840,1944,2138
645331,27592,16772,35693,35693,328,217,26,-9,-11,-90,276,3997,44,67,872,1783,1941,2115,2215,2146,1840,1944,2138
646332,27672,16884,35758,35758,103,166,32,-3,-10,134,275,3856,28,56,871,1783,1941,2115,2215,2146,1840,1944,2138
647333,27704,16988,35823,35823,404,215,39,4,-7,294,288,3905,35,56,873,1779,1935,2115,2210,2136,1835,1933,2131
648334,27772,17112,35888,35888,179,89,49,22,-2,334,238,4042,43,53,869,1779,1935,2115,2210,2136,1835,1933,2131
649335,27836,17192,35953,35953,204,364,50,13,6,475,317,3926,42,53,869,1779,1935,2115,2210,2136,1835,1933,2131
650336,27880,17300,36018,36018,329,187,59,26,-1,169,328,3875,45,64,870,1779,1935,2115,2210,2136,1835,1933,2131
651337,27944,17400,36083,36083,204,237,50,12,-5,315,327,3967,29,64,870,1779,1935,2115,2210,2136,1835,1933,2131
652338,28000,17524,36148,36148,254,85,54,21,-10,387,366,3921,42,52,871,1782,1934,2114,2211,2135,1834,1937,2134
653339,28064,17612,36213,36213,204,310,45,21,-4,-51,388,3838,30,62,872,1782,1934,2114,2211,2135,1834,1937,2134
654340,28132,17708,36278,36278,179,259,39,12,-3,-48,359,3946,36,62,871,1782,1934,2114,2211,2135,1834,1937,2134
655341,28180,17796,36343,36343,305,308,37,-1,8,11,370,3816,43,63,871,1782,1934,2114,2211,2135,1834,1937,2134
656342,28264,17904,36408,36408,79,182,40,-16,14,-239,409,4044,40,52,869,1782,1934,2114,2211,2135,1834,1937,2134
657343,28320,18020,36473,36473,255,131,42,-1,3,-91,381,3813,36,62,873,1782,1934,2114,2211,2135,1834,1937,2134
658344,28396,18108,36538,36538,129,305,37,-8,-2,150,358,3926,28,52,872,1782,1938,2116,2214,2140,1838,1943,2141
659345,28456,18184,36603,36603,229,380,34,-10,-22,335,467,3847,37,46,871,1782,1938,2116,2214,2140,1838,1943,2141
660346,28540,18284,36668,36668,79,229,27,-12,-21,426,382,3943,40,53,870,1782,1938,2116,2214,2140,1838,1943,2141
661347,28592,18372,36733,36733,279,304,22,-3,-28,577,438,3800,35,52,873,1782,1938,2116,2214,2140,1838,1943,2141
662348,28664,18472,36798,36798,154,228,19,-4,-18,495,332,3976,39,45,870,1782,1938,2116,2214,2140,1838,1943,2141
663349,28732,18580,36863,36863,179,177,31,9,-3,378,276,4079,28,57,872,1784,1939,2117,2210,2150,1845,1949,2151
664350,28780,18672,36928,36928,304,276,35,12,11,307,272,3893,29,49,872,1784,1939,2117,2210,2150,1845,1949,2151
665351,28844,18744,36993,36993,204,401,52,20,16,216,209,4035,26,56,870,1784,1939,2117,2210,2150,1845,1949,2151
666352,28888,18840,37058,37058,330,250,58,16,13,196,279,3944,35,61,866,1784,1939,2117,2210,2150,1845,1949,2151
667353,28960,18924,37123,37123,155,325,65,22,9,42,298,3813,35,46,870,1784,1939,2117,2210,2150,1845,1949,2151
668354,29028,19036,37188,37188,180,149,57,18,-3,265,479,4042,42,57,871,1784,1939,2117,2210,2150,1845,1949,2151
669355,29052,19128,37253,37253,456,273,42,8,-15,40,407,3832,38,55,873,1775,1935,2114,2208,2148,1842,1943,2141
670356,29116,19232,37318,37318,206,197,29,-9,-20,162,471,3821,32,50,867,1775,1935,2114,2208,2148,1842,1943,2141
671357,29172,19336,37383,37383,256,196,24,-7,-32,74,412,3937,29,59,872,1775,1935,2114,2208,2148,1842,1943,2141
672358,29232,19444,37448,37448,231,170,17,-24,-34,-165,394,3957,26,56,871,1775,1935,2114,2208,2148,1842,1943,2141
673359,29304,19540,37513,37513,156,244,19,-15,-30,125,278,3744,35,44,872,1775,1935,2114,2208,2148,1842,1943,2141
674360,29356,19628,37578,37578,281,294,30,2,-18,411,207,4090,26,56,872,1779,1935,2117,2211,2143,1842,1941,2136
675361,29424,19736,37643,37643,181,168,40,-6,-15,295,230,3984,33,53,870,1779,1935,2117,2211,2143,1842,1941,2136
676362,29464,19824,37708,37708,357,292,47,-12,0,150,274,3950,27,48,872,1779,1935,2117,2211,2143,1842,1941,2136
677363,29540,19908,37773,37773,132,317,51,11,7,249,320,4000,25,51,869,1779,1935,2117,2211,2143,1842,1941,2136
678364,29608,19992,37838,37838,181,316,46,-2,8,291,380,3812,40,55,871,1779,1935,2117,2211,2143,1842,1941,2136
679365,29652,20084,37903,37903,332,266,50,10,6,387,423,3958,41,43,871,1779,1935,2117,2211,2143,1842,1941,2136
680366,29724,20164,37968,37968,157,340,41,4,13,250,457,3857,22,54,869,1781,1935,2117,2217,2136,1837,1935,2127
681367,29772,20240,38033,38033,307,365,34,1,11,475,531,3876,27,50,871,1781,1935,2117,2217,2136,1837,1935,2127
682368,29832,20340,38098,38098,232,214,19,-1,4,303,474,3848,22,55,869,1781,1935,2117,2217,2136,1837,1935,2127
683369,29884,20444,38163,38163,283,188,21,6,-1,114,369,3882,38,45,868,1781,1935,2117,2217,2136,1837,1935,2127
684370,29928,20528,38228,38228,333,313,28,3,-1,280,327,3882,28,41,871,1781,1935,2117,2217,2136,1837,1935,2127
685371,30004,20640,38293,38293,133,136,35,8,-10,140,282,4011,33,43,869,1785,1935,2117,2214,2135,1837,1937,2131
686372,30060,20732,38358,38358,258,261,40,5,-14,-21,208,3923,41,57,873,1785,1935,2117,2214,2135,1837,1937,2131
687373,30112,20812,38423,38423,283,335,46,24,-24,52,297,4021,37,51,871,1785,1935,2117,2214,2135,1837,1937,2131
688374,30164,20912,38488,38488,284,210,45,-1,-30,-9,222,3959,41,42,869,1785,1935,2117,2214,2135,1837,1937,2131
689375,30216,20988,38553,38553,284,359,53,-3,-30,150,283,4003,39,49,871,1785,1935,2117,2214,2135,1837,1937,2131
690376,30264,21100,38618,38618,309,133,48,7,-29,304,328,3927,26,41,869,1785,1935,2117,2214,2135,1837,1937,2131
691377,30328,21184,38683,38683,209,308,47,-3,-12,199,262,3923,25,54,871,1783,1935,2118,2218,2140,1839,1941,2135
692378,30376,21288,38748,38748,310,182,49,6,-2,301,400,4119,34,48,871,1783,1935,2118,2218,2140,1839,1941,2135
693379,30452,21376,38813,38813,135,281,41,3,17,223,319,3852,33,56,871,1783,1935,2118,2218,2140,1839,1941,2135
694380,30496,21452,38878,38878,335,356,42,2,23,266,377,3880,40,41,871,1783,1935,2118,2218,2140,1839,1941,2135
695381,30544,21532,38943,38943,311,331,49,3,24,224,426,3943,35,48,868,1783,1935,2118,2218,2140,1839,1941,2135
696382,30588,21624,39008,39008,336,255,42,-4,15,290,481,3876,42,44,869,1784,1938,2117,2216,2145,1844,1945,2140
697383,30660,21708,39073,39073,161,304,44,2,10,269,433,3843,36,52,869,1784,1938,2117,2216,2145,1844,1945,2140
698384,30688,21804,39138,39138,437,229,36,11,1,331,492,3921,38,57,871,1784,1938,2117,2216,2145,1844,1945,2140
699385,30732,21908,39203,39203,337,178,33,7,-13,202,380,3873,32,52,868,1784,1938,2117,2216,2145,1844,1945,2140
700386,30788,21976,39268,39268,263,403,29,-8,-17,222,377,3964,25,42,866,1784,1938,2117,2216,2145,1844,1945,2140
701387,30852,22088,39333,39333,213,127,34,7,-21,53,330,3966,44,47,868,1784,1938,2117,2216,2145,1844,1945,2140
702388,30900,22184,39398,39398,313,226,34,-7,-18,-176,194,3920,29,41,873,1779,1933,2113,2209,2146,1844,1940,2138
703389,30956,22268,39463,39463,263,300,45,12,-13,325,218,3927,29,48,870,1779,1933,2113,2209,2146,1844,1940,2138
704390,31028,22344,39528,39528,163,350,45,4,-2,132,226,4033,44,42,870,1779,1933,2113,2209,2146,1844,1940,2138
705391,31088,22420,39593,39593,238,350,46,-1,1,32,298,3994,36,55,870,1779,1933,2113,2209,2146,1844,1940,2138
706392,31144,22520,39658,39658,263,199,45,2,4,241,293,3751,35,43,870,1779,1933,2113,2209,2146,1844,1940,2138
707393,31216,22648,39723,39723,163,22,51,7,12,541,346,4024,34,50,871,1773,1927,2110,2206,2141,1840,1938,2133
708394,31284,22720,39788,39788,188,372,50,3,9,310,399,3907,25,49,874,1773,1927,2110,2206,2141,1840,1938,2133
709395,31328,22816,39853,39853,339,221,41,1,3,326,485,3947,29,47,870,1773,1927,2110,2206,2141,1840,1938,2133
710396,31372,22888,39918,39918,339,371,37,7,-6,348,434,3846,23,49,870,1773,1927,2110,2206,2141,1840,1938,2133
711399,31428,22996,39983,39983,264,145,36,4,-13,322,517,3908,43,44,868,1773,1927,2110,2206,2141,1840,1938,2133
712398,31500,23084,40048,40048,164,270,36,16,-21,189,423,3938,40,42,871,1773,1927,2110,2206,2141,1840,1938,2133
713399,31536,23180,40113,40113,390,219,32,18,-28,145,437,3894,42,50,871,1777,1929,2113,2212,2137,1837,1937,2130
714400,31608,23256,40178,40178,165,344,37,-3,-15,11,391,3797,36,49,869,1777,1929,2113,2212,2137,1837,1937,2130
715401,31676,23336,40243,40243,190,318,34,8,-9,152,418,4010,27,39,870,1777,1929,2113,2212,2137,1837,1937,2130
716402,31716,23416,40308,40308,365,318,31,-2,-7,-22,280,3910,30,48,870,1777,1929,2113,2212,2137,1837,1937,2130
717403,31792,23496,40373,40373,140,318,34,-7,2,-7,389,3891,37,54,865,1777,1929,2113,2212,2137,1837,1937,2130
718404,31840,23580,40438,40438,315,292,34,-7,7,139,301,3957,33,56,871,1780,1933,2116,2216,2137,1839,1938,2134
719405,31900,23668,40503,40503,241,267,35,-8,5,199,262,3886,34,48,870,1780,1933,2116,2216,2137,1839,1938,2134
720406,31968,23768,40568,40568,190,191,38,-8,2,217,308,4017,45,53,871,1780,1933,2116,2216,2137,1839,1938,2134
721407,32032,23832,40633,40633,215,416,40,-4,7,290,291,3994,26,45,872,1780,1933,2116,2216,2137,1839,1938,2134
722408,32072,23924,40698,40698,366,240,42,5,2,206,306,3898,40,51,869,1780,1933,2116,2216,2137,1839,1938,2134
723409,32128,24024,40763,40763,266,189,40,1,-4,225,303,3978,32,35,869,1780,1933,2116,2216,2137,1839,1938,2134
724410,32176,24128,40828,40828,317,163,50,14,-12,265,275,3765,25,43,871,1787,1939,2123,2219,2139,1842,1942,2138
725411,32252,24208,40893,40893,141,313,48,13,-8,409,379,4035,43,50,871,1787,1939,2123,2219,2139,1842,1942,2138
726412,32308,24284,40958,40958,267,338,49,18,-14,228,402,3961,36,42,871,1787,1939,2123,2219,2139,1842,1942,2138
727413,32364,24368,41023,41023,267,287,48,14,-16,219,448,3927,30,40,869,1787,1939,2123,2219,2139,1842,1942,2138
728414,32424,24460,41088,41088,242,236,46,21,-20,214,310,3898,41,51,870,1787,1939,2123,2219,2139,1842,1942,2138
729415,32488,24536,41153,41153,217,336,47,12,-13,339,353,4003,27,52,871,1784,1937,2117,2217,2139,1838,1939,2132
730416,32548,24628,41218,41218,242,236,44,0,2,43,356,3960,26,43,870,1784,1937,2117,2217,2139,1838,1939,2132
731417,32608,24704,41283,41283,242,335,46,7,3,102,445,3843,26,54,871,1784,1937,2117,2217,2139,1838,1939,2132
732418,32652,24800,41348,41348,343,210,37,2,-2,115,378,4077,28,42,870,1784,1937,2117,2217,2139,1838,1939,2132
733419,32724,24884,41413,41413,168,284,29,-3,0,87,375,3791,30,48,870,1784,1937,2117,2217,2139,1838,1939,2132
734420,32768,24976,41478,41478,343,233,35,1,-5,125,371,4013,43,43,868,1784,1937,2117,2217,2139,1838,1939,2132
735421,32840,25068,41543,41543,168,233,34,-4,-4,106,323,3946,38,52,869,1783,1935,2116,2214,2138,1836,1936,2131
736422,32896,25156,41608,41608,268,257,36,-10,-6,167,343,3843,41,41,872,1783,1935,2116,2214,2138,1836,1936,2131
737423,32944,25220,41673,41673,319,407,39,9,-6,308,291,4065,35,42,871,1783,1935,2116,2214,2138,1836,1936,2131
738424,33004,25324,41738,41738,244,156,39,1,-5,242,309,4030,26,50,868,1783,1935,2116,2214,2138,1836,1936,2131
739425,33072,25404,41803,41803,194,306,39,-2,-10,113,257,3816,44,38,872,1783,1935,2116,2214,2138,1836,1936,2131
740426,33136,25508,41868,41868,219,155,48,9,-12,285,265,3957,25,37,871,1777,1929,2112,2208,2140,1839,1937,2133
741427,33208,25604,41933,41933,169,204,51,5,-16,402,339,4031,25,40,872,1777,1929,2112,2208,2140,1839,1937,2133
742428,33264,25672,41998,41998,269,379,50,8,-14,213,396,3873,41,45,872,1777,1929,2112,2208,2140,1839,1937,2133
743429,33324,25760,42063,42063,244,254,42,3,-10,256,399,3848,24,38,869,1777,1929,2112,2208,2140,1839,1937,2133
744430,33384,25820,42128,42128,244,429,43,12,-8,283,393,4024,23,40,870,1777,1929,2112,2208,2140,1839,1937,2133
745431,33432,25932,42193,42193,319,102,39,8,-1,278,395,3836,32,42,868,1777,1929,2112,2208,2140,1839,1937,2133
746432,33504,26016,42258,42258,169,277,41,4,3,188,384,3909,32,38,871,1777,1929,2111,2213,2142,1842,1940,2134
747433,33560,26108,42323,42323,269,226,35,7,2,112,443,3957,39,41,871,1777,1929,2111,2213,2142,1842,1940,2134
748434,33608,26180,42388,42388,320,351,33,3,-1,166,419,3891,27,37,871,1777,1929,2111,2213,2142,1842,1940,2134
749435,33664,26252,42453,42453,270,351,34,6,-3,96,391,3888,31,36,868,1777,1929,2111,2213,2142,1842,1940,2134
750436,33724,26340,42518,42518,245,250,30,-1,-2,112,339,3860,39,36,869,1777,1929,2111,2213,2142,1842,1940,2134
751437,33780,26428,42583,42583,270,250,36,4,-4,161,305,4029,40,45,867,1781,1933,2117,2217,2142,1842,1937,2133
752438,33824,26528,42648,42648,346,174,34,4,-6,206,229,3981,40,37,870,1781,1933,2117,2217,2142,1842,1937,2133
753439,33904,26592,42713,42713,121,399,42,2,-11,249,287,3913,42,41,870,1781,1933,2117,2217,2142,1842,1937,2133
754440,33952,26656,42778,42778,321,399,40,3,-7,270,232,3996,41,44,870,1781,1933,2117,2217,2142,1842,1937,2133
755441,34000,26740,42843,42843,321,274,45,10,-7,240,286,3980,42,35,868,1781,1933,2117,2217,2142,1842,1937,2133
756442,34052,26824,42908,42908,297,273,46,9,3,189,281,3922,44,37,870,1781,1933,2117,2217,2142,1842,1937,2133
757443,34124,26916,42973,42973,172,223,49,8,-2,251,307,3934,43,43,870,1786,1936,2120,2221,2139,1840,1939,2132
758444,34180,26984,43038,43038,272,372,52,18,-1,226,311,3954,30,49,871,1786,1936,2120,2221,2139,1840,1939,2132
759445,34244,27052,43103,43103,222,372,50,14,-7,292,411,3962,29,36,869,1786,1936,2120,2221,2139,1840,1939,2132
760446,34308,27148,43168,43168,222,197,45,9,-13,123,400,3897,26,49,869,1786,1936,2120,2221,2139,1840,1939,2132
761447,34352,27240,43233,43233,347,221,41,13,-22,287,466,3920,29,45,871,1786,1936,2120,2221,2139,1840,1939,2132
762448,34408,27320,43298,43298,273,296,38,11,-17,264,406,3879,24,41,870,1790,1937,2121,2225,2134,1838,1936,2124
763449,34480,27392,43363,43363,172,345,37,10,-16,168,431,3970,45,42,870,1790,1937,2121,2225,2134,1838,1936,2124
764450,34520,27464,43428,43428,373,345,34,9,-14,176,374,3928,27,46,870,1790,1937,2121,2225,2134,1838,1936,2124
765451,34588,27548,43493,43493,198,270,36,-1,1,178,353,3959,43,49,868,1790,1937,2121,2225,2134,1838,1936,2124
766452,34660,27644,43558,43558,173,194,37,6,1,127,402,3908,35,38,871,1790,1937,2121,2225,2134,1838,1936,2124
767453,34732,27732,43623,43623,173,243,37,9,8,67,245,3968,28,47,872,1790,1937,2121,2225,2134,1838,1936,2124
768454,34784,27796,43688,43688,298,393,45,4,8,236,326,3939,38,34,868,1788,1935,2120,2218,2128,1831,1931,2125
769455,34852,27880,43753,43753,198,268,44,7,8,125,321,3952,37,43,868,1788,1935,2120,2218,2128,1831,1931,2125
770456,34900,27960,43818,43818,323,293,48,12,7,89,320,3987,37,38,871,1788,1935,2120,2218,2128,1831,1931,2125
771457,34968,28020,43883,43883,198,418,41,2,-2,152,324,3916,26,48,869,1788,1935,2120,2218,2128,1831,1931,2125
772458,35028,28124,43948,43948,248,142,52,10,-11,88,331,3905,46,49,869,1788,1935,2120,2218,2128,1831,1931,2125
773459,35096,28188,44013,44013,198,392,39,0,-13,277,304,3941,28,44,872,1784,1934,2115,2215,2140,1838,1936,2131
774460,35156,28264,44078,44078,248,317,48,2,-20,188,338,3945,28,44,869,1784,1934,2115,2215,2140,1838,1936,2131
775461,35200,28344,44143,44143,349,291,46,7,-20,128,339,4000,26,46,870,1784,1934,2115,2215,2140,1838,1936,2131
776462,35276,28412,44208,44208,149,366,42,-7,-24,205,374,3973,33,48,869,1784,1934,2115,2215,2140,1838,1936,2131
777463,35328,28496,44273,44273,299,266,42,0,-23,307,390,3891,43,46,870,1784,1934,2115,2215,2140,1838,1936,2131
778464,35392,28584,44338,44338,224,240,37,-1,-19,390,376,3981,30,47,870,1784,1934,2115,2215,2140,1838,1936,2131
779465,35448,28648,44403,44403,274,390,45,10,-9,291,399,3927,42,40,871,1785,1934,2120,2218,2143,1843,1942,2140
780466,35512,28728,44468,44468,224,290,49,18,0,459,393,4053,28,43,868,1785,1934,2120,2218,2143,1843,1942,2140
781467,35576,28808,44533,44533,224,289,41,14,0,391,477,3775,28,49,871,1785,1934,2120,2218,2143,1843,1942,2140
782468,35644,28880,44598,44598,199,339,44,19,10,245,354,3949,27,49,871,1785,1934,2120,2218,2143,1843,1942,2140
783469,35708,28956,44663,44663,224,314,44,17,19,213,417,4014,35,47,870,1785,1934,2120,2218,2143,1843,1942,2140
784470,35776,29028,44728,44728,199,339,42,25,10,79,381,3780,28,37,870,1788,1938,2120,2219,2143,1843,1941,2137
785471,35832,29112,44793,44793,274,263,36,10,13,120,356,3927,26,41,867,1788,1938,2120,2219,2143,1843,1941,2137
786472,35904,29184,44858,44858,174,338,36,4,9,331,390,3833,27,35,870,1788,1938,2120,2219,2143,1843,1941,2137
787473,35948,29260,44923,44923,350,313,32,5,2,13,340,4096,35,37,871,1788,1938,2120,2219,2143,1843,1941,2137
788474,36024,29340,44988,44988,149,288,27,3,-15,-85,320,3895,40,50,868,1788,1938,2120,2219,2143,1843,1941,2137
789475,36080,29412,45053,45053,275,337,31,-4,-20,133,248,3944,43,43,871,1788,1938,2120,2219,2143,1843,1941,2137
790476,36140,29464,45118,45118,250,463,44,-1,-14,305,200,4079,39,37,870,1787,1938,2121,2220,2142,1839,1937,2133
791477,36228,29552,45183,45183,74,237,48,3,-16,309,250,3936,29,41,868,1787,1938,2121,2220,2142,1839,1937,2133
792478,36292,29620,45248,45248,224,362,54,8,-8,246,231,3903,26,48,872,1787,1938,2121,2220,2142,1839,1937,2133
793479,36356,29700,45313,45313,224,287,58,14,-1,424,273,4009,32,33,870,1787,1938,2121,2220,2142,1839,1937,2133
794480,36408,29768,45378,45378,299,362,64,18,3,354,354,3908,33,50,871,1787,1938,2121,2220,2142,1839,1937,2133
795481,36460,29852,45443,45443,300,261,52,15,10,199,432,3982,28,45,869,1786,1936,2120,2220,2131,1835,1934,2124
796482,36540,29928,45508,45508,124,311,49,24,12,188,451,3884,33,35,870,1786,1936,2120,2220,2131,1835,1934,2124
797483,36596,30020,45573,45573,275,210,46,23,8,158,418,3967,40,46,871,1786,1936,2120,2220,2131,1835,1934,2124
798484,36672,30072,45638,45638,149,461,43,18,-16,76,488,4001,41,48,871,1786,1936,2120,2220,2131,1835,1934,2124
799485,36728,30160,45703,45703,275,235,35,13,-25,52,434,3880,31,33,869,1786,1936,2120,2220,2131,1835,1934,2124
800486,36784,30232,45768,45768,275,335,35,3,-22,194,409,3906,26,36,870,1786,1936,2120,2220,2131,1835,1934,2124
801487,36856,30320,45833,45833,175,234,36,3,-21,222,371,3920,24,35,869,1791,1940,2124,2228,2129,1834,1932,2123
802488,36916,30388,45898,45898,250,359,37,7,-8,122,303,4011,31,39,868,1791,1940,2124,2228,2129,1834,1932,2123
803489,36964,30448,45963,45963,325,409,33,8,7,208,281,3908,28,34,869,1791,1940,2124,2228,2129,1834,1932,2123
804490,37036,30536,46028,46028,175,234,41,5,13,315,265,3990,40,45,868,1791,1940,2124,2228,2129,1834,1932,2123
805491,37088,30612,46093,46093,300,308,43,9,16,216,195,4014,44,35,871,1791,1940,2124,2228,2129,1834,1932,2123
806492,37144,30680,46158,46158,276,358,51,14,16,402,238,3904,29,36,869,1791,1940,2124,2225,2137,1839,1934,2131
807493,37216,30724,46223,46223,175,509,59,22,15,286,249,4088,39,40,869,1791,1940,2124,2225,2137,1839,1934,2131
808494,37296,30808,46288,46288,125,258,55,14,-1,119,329,3917,24,35,868,1791,1940,2124,2225,2137,1839,1934,2131
809495,37336,30860,46353,46353,376,459,57,24,-10,158,313,3996,35,44,872,1791,1940,2124,2225,2137,1839,1934,2131
810496,37396,30948,46418,46418,251,233,58,22,-16,297,350,3893,33,44,866,1791,1940,2124,2225,2137,1839,1934,2131
811497,37464,31008,46483,46483,201,408,56,25,-27,144,392,3872,26,35,871,1791,1940,2124,2225,2137,1839,1934,2131
812498,37532,31084,46548,46548,201,308,49,15,-29,21,402,4006,32,29,869,1792,1936,2121,2224,2140,1843,1941,2135
813499,37588,31132,46613,46613,276,483,51,11,-23,73,393,3921,23,35,870,1792,1936,2121,2224,2140,1843,1941,2135
814500,37648,31220,46678,46678,251,233,54,8,-15,241,448,3913,25,45,867,1792,1936,2121,2224,2140,1843,1941,2135
815501,37708,31272,46743,46743,251,458,42,11,-8,120,420,3977,25,42,871,1792,1936,2121,2224,2140,1843,1941,2135
816502,37756,31340,46808,46808,326,358,42,-3,-1,85,345,3825,26,41,868,1792,1936,2121,2224,2140,1843,1941,2135
817503,37832,31412,46873,46873,151,333,41,-2,13,254,414,3876,42,46,868,1790,1937,2122,2222,2141,1842,1940,2134
818504,37892,31492,46938,46938,251,283,43,8,11,234,425,3987,42,43,871,1790,1937,2122,2222,2141,1842,1940,2134
819505,37956,31556,47003,47003,226,383,36,10,4,185,351,3938,29,47,867,1790,1937,2122,2222,2141,1842,1940,2134
820506,38016,31632,47068,47068,251,307,39,6,0,315,343,3843,31,41,869,1790,1937,2122,2222,2141,1842,1940,2134
821507,38088,31696,47133,47133,176,382,40,13,-8,399,318,3997,24,41,870,1790,1937,2122,2222,2141,1842,1940,2134
822508,38144,31780,47198,47198,277,257,40,7,-14,260,297,3914,26,33,870,1790,1937,2122,2222,2141,1842,1940,2134
823509,38212,31856,47263,47263,201,307,43,12,-9,243,318,3912,36,35,870,1783,1935,2121,2218,2140,1840,1936,2130
824510,38268,31908,47328,47328,277,457,44,13,-5,208,318,3933,29,44,870,1783,1935,2121,2218,2140,1840,1936,2130
825511,38332,31984,47393,47393,227,307,43,8,-3,186,324,3912,25,41,867,1783,1935,2121,2218,2140,1840,1936,2130
826512,38404,32064,47458,47458,177,281,44,5,-2,154,314,3953,26,41,870,1783,1935,2121,2218,2140,1840,1936,2130
827513,38456,32136,47523,47523,302,331,41,6,-3,36,356,3963,33,44,871,1783,1935,2121,2218,2140,1840,1936,2130
828514,38524,32220,47588,47588,202,256,42,1,-6,62,352,3855,27,42,869,1783,1931,2116,2215,2134,1836,1935,2130
829515,38580,32272,47653,47653,277,456,41,-1,-7,64,352,4011,39,41,871,1783,1931,2116,2215,2134,1836,1935,2130
830516,38636,32348,47718,47718,277,306,44,4,-10,165,414,3917,26,33,867,1783,1931,2116,2215,2134,1836,1935,2130
831517,38724,32416,47783,47783,77,356,37,3,-6,94,405,3934,44,35,870,1783,1931,2116,2215,2134,1836,1935,2130
832518,38760,32500,47848,47848,402,255,37,3,-8,220,414,3850,36,32,871,1783,1931,2116,2215,2134,1836,1935,2130
833519,38820,32568,47913,47913,252,355,32,-5,-5,211,392,3941,33,35,868,1783,1931,2116,2215,2134,1836,1935,2130
834520,38896,32628,47978,47978,152,405,36,-2,-2,336,404,3955,28,50,869,1787,1936,2120,2222,2135,1836,1936,2129
835521,38960,32716,48043,48043,227,230,26,-4,-2,260,371,3791,28,46,870,1787,1936,2120,2222,2135,1836,1936,2129
836522,39020,32780,48108,48108,252,380,28,4,3,399,388,4027,40,34,868,1787,1936,2120,2222,2135,1836,1936,2129
837523,39076,32848,48173,48173,278,355,34,8,10,436,292,3907,23,35,869,1787,1936,2120,2222,2135,1836,1936,2129
838524,39144,32924,48238,48238,203,304,38,7,11,300,321,3881,29,47,869,1787,1936,2120,2222,2135,1836,1936,2129
839525,39200,32992,48303,48303,278,354,43,10,14,258,288,3975,44,37,870,1794,1944,2126,2227,2139,1839,1939,2133
840526,39264,33052,48368,48368,228,404,46,14,2,229,334,4007,44,36,869,1794,1944,2126,2227,2139,1839,1939,2133
841527,39332,33136,48433,48433,203,254,42,16,0,-11,304,3951,40,42,869,1794,1944,2126,2227,2139,1839,1939,2133
842528,39396,33200,48498,48498,228,379,47,16,-7,234,346,3882,34,35,871,1794,1944,2126,2227,2139,1839,1939,2133
843529,39456,33296,48563,48563,253,178,49,17,-15,-44,342,4009,25,49,869,1794,1944,2126,2227,2139,1839,1939,2133
844530,39520,33352,48628,48628,228,428,48,3,-20,-108,349,3958,39,44,871,1794,1944,2126,2227,2139,1839,1939,2133
845531,39588,33408,48693,48693,203,429,46,1,-17,-27,374,3889,33,32,869,1792,1941,2125,2227,2137,1839,1938,2132
846532,39648,33480,48758,48758,253,328,40,-7,-10,114,348,4009,29,35,869,1792,1941,2125,2227,2137,1839,1938,2132
847533,39708,33560,48823,48823,253,278,41,-8,-4,241,324,3914,26,37,870,1792,1941,2125,2227,2137,1839,1938,2132
848534,39780,33628,48888,48888,178,353,42,-1,-2,170,374,3866,28,48,870,1792,1941,2125,2227,2137,1839,1938,2132
849535,39852,33704,48953,48953,178,303,34,2,1,212,358,3971,28,46,870,1792,1941,2125,2227,2137,1839,1938,2132
850536,39900,33764,49152,49152,331,406,45,3,3,447,366,3868,44,47,871,1786,1935,2118,2216,2133,1834,1932,2128
851537,39964,33844,49217,49217,231,281,41,6,10,462,434,3986,36,44,867,1786,1935,2118,2216,2133,1834,1932,2128
852538,40036,33924,49282,49282,181,280,36,1,7,198,402,3834,43,35,870,1786,1935,2118,2216,2133,1834,1932,2128
853539,40100,33996,49347,49347,231,330,39,13,2,233,352,4026,29,44,867,1786,1935,2118,2216,2133,1834,1932,2128
854540,40160,34068,49412,49412,256,330,37,7,1,239,390,3917,39,46,870,1786,1935,2118,2216,2133,1834,1932,2128
855541,40236,34136,49477,49477,156,355,36,6,-8,196,381,3895,43,46,870,1786,1935,2118,2216,2133,1834,1932,2128
856542,40300,34200,49542,49542,231,380,39,3,-14,100,337,3969,29,37,870,1782,1933,2116,2212,2138,1836,1931,2131
857543,40376,34272,49607,49607,156,330,37,-1,-16,324,337,3942,46,32,869,1782,1933,2116,2212,2138,1836,1931,2131
858544,40432,34348,49672,49672,281,305,45,2,-13,167,267,3971,33,44,870,1782,1933,2116,2212,2138,1836,1931,2131
859545,40496,34412,49737,49737,231,380,41,10,-12,82,287,4032,44,44,869,1782,1933,2116,2212,2138,1836,1931,2131
860546,40552,34456,49802,49802,281,505,44,-1,-8,213,281,3750,42,45,869,1782,1933,2116,2212,2138,1836,1931,2131
861547,40644,34532,49867,49867,56,305,45,7,1,234,354,3998,38,33,867,1779,1932,2115,2210,2140,1838,1938,2135
862548,40708,34596,49932,49932,231,380,45,7,5,127,347,3939,28,48,872,1779,1932,2115,2210,2140,1838,1938,2135
863549,40776,34676,49997,49997,206,280,41,5,2,43,403,3945,33,47,869,1779,1932,2115,2210,2140,1838,1938,2135
864550,40852,34724,50062,50062,155,480,36,-5,4,273,443,3859,41,44,871,1779,1932,2115,2210,2140,1838,1938,2135
865551,40912,34816,50127,50127,255,204,32,-2,4,189,453,3948,32,43,868,1779,1932,2115,2210,2140,1838,1938,2135
866552,40976,34888,50192,50192,231,329,27,-4,1,195,417,3978,42,47,871,1786,1938,2122,2221,2143,1842,1942,2138
867553,41036,34952,50257,50257,256,379,26,6,-10,189,367,3852,30,33,870,1786,1938,2122,2221,2143,1842,1942,2138
868554,41100,35020,50322,50322,231,354,25,-11,-4,209,336,3926,39,34,869,1786,1938,2122,2221,2143,1842,1942,2138
869555,41176,35080,50387,50387,155,404,32,2,-10,326,402,3934,44,44,870,1786,1938,2122,2221,2143,1842,1942,2138
870556,41240,35156,50452,50452,230,304,33,3,-13,158,289,3942,31,39,866,1786,1938,2122,2221,2143,1842,1942,2138
871557,41316,35236,50517,50517,155,279,36,8,-10,222,284,3979,34,34,870,1786,1938,2122,2221,2143,1842,1942,2138
872558,41368,35288,50582,50582,305,454,39,7,-1,303,287,3794,35,45,871,1787,1943,2127,2226,2145,1841,1940,2136
873559,41452,35352,50647,50647,105,379,45,5,8,133,265,4050,47,41,867,1787,1943,2127,2226,2145,1841,1940,2136
874560,41536,35432,50712,50712,105,279,46,4,10,217,320,3943,29,31,870,1787,1943,2127,2226,2145,1841,1940,2136
875561,41584,35488,50777,50777,330,429,41,12,11,222,330,3930,29,38,872,1787,1943,2127,2226,2145,1841,1940,2136
876562,41656,35548,50842,50842,180,404,36,4,8,151,361,3892,29,47,867,1787,1943,2127,2226,2145,1841,1940,2136
877563,41724,35628,50907,50907,205,279,37,-2,-6,174,351,3972,40,36,869,1791,1944,2124,2221,2136,1833,1931,2134
878564,41800,35688,50972,50972,154,404,44,9,-16,230,302,3868,40,34,871,1791,1944,2124,2221,2136,1833,1931,2134
879565,41876,35756,51037,51037,154,354,45,8,-27,365,331,3965,41,45,869,1791,1944,2124,2221,2136,1833,1931,2134
880566,41944,35824,51102,51102,204,353,50,24,-30,336,394,3979,34,36,870,1791,1944,2124,2221,2136,1833,1931,2134
881567,42048,35892,51167,51167,-22,353,44,5,-21,150,361,3934,42,33,870,1791,1944,2124,2221,2136,1833,1931,2134
882568,42124,35972,51232,51232,153,278,55,8,3,163,313,3945,42,37,871,1791,1944,2124,2221,2136,1833,1931,2134
883569,42184,36044,51297,51297,253,328,44,10,28,233,404,3916,29,31,871,1789,1942,2120,2217,2130,1829,1931,2127
884570,42252,36120,51362,51362,203,303,41,8,28,26,473,3815,46,41,870,1789,1942,2120,2217,2130,1829,1931,2127
885571,42324,36176,51427,51427,178,428,28,2,17,-89,449,3866,32,46,871,1789,1942,2120,2217,2130,1829,1931,2127
886572,42412,36244,51492,51492,77,353,30,4,-3,145,386,4028,45,48,869,1789,1942,2120,2217,2130,1829,1931,2127
887573,42472,36316,51557,51557,252,328,28,-3,-14,271,316,3794,36,45,868,1789,1942,2120,2217,2130,1829,1931,2127
888574,42560,36392,51622,51622,77,302,37,-9,-26,215,279,4026,44,39,870,1788,1943,2122,2218,2137,1833,1935,2135
889575,42624,36464,51687,51687,227,327,43,6,-24,95,260,3972,35,38,871,1788,1943,2122,2218,2137,1833,1935,2135
890576,42716,36536,51752,51752,51,327,49,5,-10,230,220,3908,31,50,870,1788,1943,2122,2218,2137,1833,1935,2135
891577,42788,36596,51817,51817,176,402,47,10,0,309,289,4009,46,49,872,1788,1943,2122,2218,2137,1833,1935,2135
892578,42856,36676,51882,51882,201,277,48,5,8,44,340,3919,38,54,870,1788,1943,2122,2218,2137,1833,1935,2135
893579,42936,36740,51947,51947,125,377,44,0,12,340,358,3918,38,40,871,1788,1943,2122,2218,2137,1833,1935,2135
894580,43032,36824,52012,52012,25,251,41,6,5,408,471,3860,48,54,870,1788,1944,2124,2216,2144,1838,1940,2144
895581,43108,36884,52077,52077,149,401,34,-3,-2,226,390,4013,52,41,873,1788,1944,2124,2216,2144,1838,1940,2144
896582,43192,36968,52142,52142,99,251,27,-3,-14,182,426,3893,31,53,870,1788,1944,2124,2216,2144,1838,1940,2144
897583,43280,37040,52207,52207,73,326,25,-13,-16,162,392,3904,31,42,872,1788,1944,2124,2216,2144,1838,1940,2144
898584,43372,37120,52272,52272,48,275,31,0,-18,167,385,4008,34,53,871,1788,1944,2124,2216,2144,1838,1940,2144
899585,43436,37216,52337,52337,223,175,33,-9,-4,4,335,3881,33,54,873,1789,1949,2125,2215,2151,1842,1946,2149
900586,43524,37292,52402,52402,72,299,39,-2,-1,161,333,3960,49,56,872,1789,1949,2125,2215,2151,1842,1946,2149
901587,43620,37364,52467,52467,21,324,40,-5,1,181,339,3898,49,44,872,1789,1949,2125,2215,2151,1842,1946,2149
902588,43716,37452,52532,52532,21,224,39,-2,16,115,376,3930,43,49,872,1789,1949,2125,2215,2151,1842,1946,2149
903589,43792,37520,52597,52597,145,349,34,-3,11,175,391,3897,33,48,873,1789,1949,2125,2215,2151,1842,1946,2149
904590,43836,37612,52662,52662,346,198,25,-14,-2,176,374,3879,40,41,867,1789,1949,2125,2215,2151,1842,1946,2149
905591,43936,37688,52727,52727,-5,298,25,-11,-2,214,382,3955,40,43,870,1786,1950,2126,2215,2149,1836,1940,2145
906592,44024,37760,52792,52792,70,322,26,-11,-10,239,349,3982,33,49,872,1786,1950,2126,2215,2149,1836,1940,2145
907593,44108,37840,52857,52857,94,272,28,-14,-9,233,290,3886,47,56,871,1786,1950,2126,2215,2149,1836,1940,2145
908594,44168,37920,52922,52922,244,272,26,-13,-14,488,370,3855,38,54,872,1786,1950,2126,2215,2149,1836,1940,2145
909595,44228,38008,52987,52987,244,221,30,-11,-10,63,258,4102,35,50,870,1786,1950,2126,2215,2149,1836,1940,2145
910596,44316,38100,53052,53052,69,196,30,-9,-1,61,273,4022,46,52,871,1786,1952,2127,2213,2141,1830,1936,2142
911597,44388,38192,53117,53117,169,195,32,-5,6,256,341,3819,35,46,873,1786,1952,2127,2213,2141,1830,1936,2142
912598,44448,38248,53182,53182,244,420,32,-7,-2,279,386,4028,38,46,872,1786,1952,2127,2213,2141,1830,1936,2142
913599,44540,38336,53247,53247,43,220,30,-17,8,203,361,3827,48,59,869,1786,1952,2127,2213,2141,1830,1936,2142
914600,44608,38428,53312,53312,193,194,22,-10,9,331,477,3945,53,60,873,1786,1952,2127,2213,2141,1830,1936,2142
915601,44676,38532,53377,53377,193,118,22,-6,-9,214,331,3927,49,46,872,1786,1952,2127,2213,2141,1830,1936,2142
916602,44748,38624,53442,53442,168,192,20,-18,-7,145,333,3872,48,49,873,1791,1960,2132,2218,2140,1826,1933,2141
917603,44824,38696,53507,53507,142,317,27,0,0,235,424,3924,52,61,872,1791,1960,2132,2218,2140,1826,1933,2141
918604,44908,38768,53572,53572,92,317,32,-7,2,182,336,4019,36,47,871,1791,1960,2132,2218,2140,1826,1933,2141
919605,44972,38868,53637,53637,217,141,31,-19,-1,129,358,3779,41,58,871,1791,1960,2132,2218,2140,1826,1933,2141
920606,45044,38948,53702,53702,167,266,35,-13,2,-46,274,4160,37,47,872,1791,1960,2132,2218,2140,1826,1933,2141
921607,45124,39040,53767,53767,117,190,36,-11,-3,149,324,3822,48,48,868,1790,1962,2135,2217,2141,1823,1935,2148
922608,45200,39132,53832,53832,141,189,28,-6,-9,121,427,3885,51,50,873,1790,1962,2135,2217,2141,1823,1935,2148
923609,45304,39196,53897,53897,-35,364,26,-11,-17,-10,325,4085,41,48,872,1790,1962,2135,2217,2141,1823,1935,2148
924610,45376,39284,53962,53962,165,214,25,-23,-18,227,304,3762,52,45,871,1790,1962,2135,2217,2141,1823,1935,2148
925611,45432,39380,54027,54027,265,163,32,-22,-14,384,269,4008,44,44,872,1790,1962,2135,2217,2141,1823,1935,2148
926612,45528,39448,54092,54092,15,338,35,-11,-3,99,275,4033,42,47,872,1790,1962,2135,2217,2141,1823,1935,2148
927613,45616,39536,54157,54157,64,212,35,-20,-1,184,361,3846,52,61,872,1789,1967,2134,2211,2146,1825,1938,2154
928614,45676,39628,54222,54222,239,187,36,-20,-3,262,323,4024,45,51,873,1789,1967,2134,2211,2146,1825,1938,2154
929615,45744,39712,54287,54287,189,236,34,-30,-4,125,354,3990,54,53,871,1789,1967,2134,2211,2146,1825,1938,2154
930616,45824,39800,54352,54352,114,211,35,-15,2,274,446,3791,51,51,871,1789,1967,2134,2211,2146,1825,1938,2154
931617,45936,39904,54417,54417,-87,110,25,-16,5,464,474,3874,46,52,873,1789,1967,2134,2211,2146,1825,1938,2154
932618,46016,39976,54482,54482,112,310,22,-24,-1,357,416,3972,39,49,867,1784,1967,2130,2202,2148,1820,1937,2159
933619,46096,40072,54547,54547,112,159,16,-26,5,225,349,3844,41,52,871,1784,1967,2130,2202,2148,1820,1937,2159
934620,46200,40152,54612,54612,-39,259,19,-20,14,300,333,3905,47,60,873,1784,1967,2130,2202,2148,1820,1937,2159
935621,46260,40244,54677,54677,236,183,24,-16,13,231,358,4060,47,51,873,1784,1967,2130,2202,2148,1820,1937,2159
936623,46352,40340,54742,54742,35,157,24,-20,2,-16,328,3904,51,59,872,1784,1967,2130,2202,2148,1820,1937,2159
937623,46420,40440,54807,54807,185,131,22,-17,-9,142,335,3860,52,48,874,1784,1967,2130,2202,2148,1820,1937,2159
938624,46492,40512,54872,54872,160,306,24,-20,-17,423,392,4017,45,47,869,1777,1967,2130,2198,2158,1827,1940,2163
939625,46580,40612,54937,54937,60,130,19,-18,-18,168,331,3910,41,64,871,1777,1967,2130,2198,2158,1827,1940,2163
940626,46668,40688,55002,55002,59,280,19,-23,-17,150,334,3966,44,53,874,1777,1967,2130,2198,2158,1827,1940,2163
941627,46756,40780,55067,55067,58,179,23,-20,-8,346,314,3960,53,57,872,1777,1967,2130,2198,2158,1827,1940,2163
942628,46828,40876,55132,55132,158,154,31,-18,4,161,266,4070,40,55,873,1777,1967,2130,2198,2158,1827,1940,2163
943629,46888,40964,55197,55197,233,203,37,-20,5,54,328,3989,52,49,872,1775,1965,2131,2200,2156,1825,1935,2162
944630,46976,41040,55262,55262,58,278,36,-15,10,0,363,3839,44,55,871,1775,1965,2131,2200,2156,1825,1935,2162
945631,47052,41116,55327,55327,133,277,34,-8,11,298,423,3931,42,63,872,1775,1965,2131,2200,2156,1825,1935,2162
946632,47120,41216,55392,55392,182,127,28,-16,4,405,387,3938,53,51,872,1775,1965,2131,2200,2156,1825,1935,2162
947633,47216,41296,55457,55457,7,251,28,-25,-2,132,466,3942,41,64,872,1775,1965,2131,2200,2156,1825,1935,2162
948634,47272,41364,55522,55522,257,326,26,-19,-6,91,369,3862,40,64,873,1775,1965,2131,2200,2156,1825,1935,2162
949635,47356,41456,55587,55587,81,175,34,1,2,653,387,3893,38,61,870,1783,1973,2137,2208,2154,1823,1939,2159
950636,47448,41548,55652,55652,31,175,24,-4,-12,282,392,4050,51,53,873,1783,1973,2137,2208,2154,1823,1939,2159
951637,47540,41628,55717,55717,30,249,31,-9,-17,-42,328,4000,41,52,874,1783,1973,2137,2208,2154,1823,1939,2159
952638,47624,41740,55782,55782,80,48,32,-3,-18,508,374,3812,48,52,873,1783,1973,2137,2208,2154,1823,1939,2159
953639,47704,41824,55847,55847,104,223,25,-4,-17,298,352,3986,52,49,875,1783,1973,2137,2208,2154,1823,1939,2159
954640,47776,41908,55912,55912,154,222,31,-1,-18,-7,331,4002,44,62,873,1789,1981,2145,2215,2153,1820,1937,2160
955641,47872,42000,55977,55977,3,172,34,-13,-9,1,297,3928,52,51,869,1789,1981,2145,2215,2153,1820,1937,2160
956642,47932,42104,56042,56042,228,96,38,-7,5,161,198,3890,37,51,874,1789,1981,2145,2215,2153,1820,1937,2160
957643,48000,42228,56107,56107,178,-31,42,-4,13,64,314,3986,38,49,873,1789,1981,2145,2215,2153,1820,1937,2160
958644,48092,42328,56172,56172,28,118,38,-15,12,-95,350,3969,51,55,874,1789,1981,2145,2215,2153,1820,1937,2160
959645,48168,42416,56237,56237,127,193,43,-10,12,142,357,3960,44,64,874,1789,1981,2145,2215,2153,1820,1937,2160
960646,48264,42496,56302,56302,2,243,36,-1,7,518,369,3857,37,66,873,1790,1986,2145,2211,2152,1817,1937,2163
961647,48332,42564,56367,56367,177,317,33,2,-1,358,449,3877,37,52,873,1790,1986,2145,2211,2152,1817,1937,2163
962648,48420,42640,56432,56432,51,267,21,-1,3,500,428,3900,39,62,871,1790,1986,2145,2211,2152,1817,1937,2163
963649,48488,42740,56497,56497,176,116,27,-5,5,435,277,4107,41,65,873,1790,1986,2145,2211,2152,1817,1937,2163
964650,48568,42888,56562,56562,101,-186,39,-18,-5,87,255,4065,35,56,873,1790,1986,2145,2211,2152,1817,1937,2163
965651,48636,42984,56627,56627,176,139,40,-13,-7,40,297,3846,42,65,873,1788,1985,2139,2203,2159,1822,1940,2169
966652,48728,43064,56692,56692,25,238,43,13,-24,-11,400,3881,42,54,872,1788,1985,2139,2203,2159,1822,1940,2169
967653,48796,43156,56757,56757,175,163,44,31,-24,496,331,3892,36,57,873,1788,1985,2139,2203,2159,1822,1940,2169
968654,48856,43228,56822,56822,225,287,45,8,-27,298,365,4000,37,61,872,1788,1985,2139,2203,2159,1822,1940,2169
969655,48960,43328,56887,56887,-51,112,37,-21,-15,-172,336,3922,36,54,871,1788,1985,2139,2203,2159,1822,1940,2169
970656,49024,43420,56952,56952,199,161,40,-13,-1,267,305,4075,40,67,875,1788,1985,2139,2203,2159,1822,1940,2169
971657,49100,43496,57017,57017,124,261,49,-4,17,359,271,3751,50,68,874,1780,1979,2137,2199,2162,1823,1943,2173
972658,49180,43568,57082,57082,98,285,46,2,23,113,391,4205,49,59,871,1780,1979,2137,2199,2162,1823,1943,2173
973659,49272,43676,57147,57147,23,59,32,-2,23,192,438,3621,38,66,874,1780,1979,2137,2199,2162,1823,1943,2173
974660,49336,43764,57212,57212,198,184,27,-17,14,171,397,4044,52,67,877,1780,1979,2137,2199,2162,1823,1943,2173
975661,49404,43844,57277,57277,173,233,23,-16,5,168,376,3950,38,68,874,1780,1979,2137,2199,2162,1823,1943,2173
976662,49500,43932,57342,57342,-3,183,26,-4,0,255,342,3693,53,54,874,1777,1978,2136,2197,2165,1822,1942,2173
977663,49572,44028,57407,57407,147,132,33,9,-10,419,281,4152,40,62,875,1777,1978,2136,2197,2165,1822,1942,2173
978664,49644,44148,57472,57472,147,-19,38,-16,-16,117,286,3976,43,56,875,1777,1978,2136,2197,2165,1822,1942,2173
979665,49712,44252,57537,57537,172,80,51,-10,-16,-6,285,4012,38,64,876,1777,1978,2136,2197,2165,1822,1942,2173
980666,49788,44336,57602,57602,121,204,47,13,-21,251,377,3861,36,58,875,1777,1978,2136,2197,2165,1822,1942,2173
981667,49872,44416,57667,57667,71,229,41,12,-17,352,381,3865,38,69,875,1777,1978,2136,2197,2165,1822,1942,2173
982668,49960,44508,57732,57732,45,153,38,11,-13,308,424,3936,40,52,875,1778,1982,2140,2197,2164,1820,1940,2171
983669,50052,44596,57797,57797,20,178,27,-27,-5,205,354,4013,35,59,876,1778,1982,2140,2197,2164,1820,1940,2171
984670,50140,44704,57862,57862,44,52,29,-19,-4,178,398,3934,32,63,876,1778,1982,2140,2197,2164,1820,1940,2171
985671,50208,44796,57927,57927,169,151,26,-9,5,329,344,3884,42,56,877,1778,1982,2140,2197,2164,1820,1940,2171
986672,50284,44904,57992,57992,119,50,28,1,3,48,344,4052,47,65,875,1778,1982,2140,2197,2164,1820,1940,2171
987673,50348,45000,58057,58057,194,124,25,-18,1,-170,372,3884,35,65,876,1783,1988,2145,2206,2161,1819,1942,2173
988674,50408,45080,58122,58122,219,224,35,-6,3,110,305,3827,34,59,875,1783,1988,2145,2206,2161,1819,1942,2173
989675,50468,45172,58187,58187,219,148,31,-24,2,137,436,4100,54,62,870,1783,1988,2145,2206,2161,1819,1942,2173
990676,50552,45268,58252,58252,68,122,26,-22,-5,45,402,3835,44,54,874,1783,1988,2145,2206,2161,1819,1942,2173
991677,50632,45368,58317,58317,93,97,24,-18,-4,296,360,3851,52,68,875,1783,1988,2145,2206,2161,1819,1942,2173
992678,50704,45456,58382,58382,143,171,22,-20,-5,509,446,4033,34,64,875,1783,1988,2145,2206,2161,1819,1942,2173
993679,50780,45536,58447,58447,118,221,24,-20,-4,381,336,3900,34,66,875,1785,1991,2149,2207,2161,1818,1939,2172
994680,50864,45632,58512,58512,67,120,29,0,-5,428,366,3910,45,64,875,1785,1991,2149,2207,2161,1818,1939,2172
995681,50964,45728,58577,58577,-34,119,27,6,-1,326,295,3967,37,52,875,1785,1991,2149,2207,2161,1818,1939,2172
996682,51020,45816,58642,58642,242,169,30,7,0,258,288,3962,43,64,876,1785,1991,2149,2207,2161,1818,1939,2172
997683,51128,45900,58707,58707,-84,193,40,11,2,253,251,3936,40,58,874,1785,1991,2149,2207,2161,1818,1939,2172
998684,51216,46004,58772,58772,40,67,45,8,4,240,293,4005,47,54,869,1784,1993,2147,2204,2166,1818,1940,2173
999685,51292,46080,58837,58837,115,242,50,7,2,58,343,3992,39,59,876,1784,1993,2147,2204,2166,1818,1940,2173
1000686,51360,46176,58902,58902,165,116,49,5,-2,-95,349,3911,43,58,874,1784,1993,2147,2204,2166,1818,1940,2173
1001687,51440,46272,58967,58967,89,115,42,-6,-7,133,429,3851,36,67,875,1784,1993,2147,2204,2166,1818,1940,2173
1002688,51512,46372,59032,59032,139,90,33,-14,-6,186,458,3896,54,65,876,1784,1993,2147,2204,2166,1818,1940,2173
1003689,51576,46464,59097,59097,189,139,27,-35,-7,-89,436,4072,34,63,875,1784,1993,2147,2204,2166,1818,1940,2173
1004690,51656,46560,59162,59162,89,113,23,-35,-5,-225,292,3699,47,63,875,1779,1994,2146,2202,2166,1817,1943,2177
1005691,51728,46644,59227,59227,139,188,27,-16,-6,375,408,3979,52,53,876,1779,1994,2146,2202,2166,1817,1943,2177
1006692,51824,46728,59292,59292,-12,187,25,-16,-5,304,343,3979,41,63,871,1779,1994,2146,2202,2166,1817,1943,2177
1007693,51896,46828,59357,59357,138,86,34,-12,-4,469,289,3945,36,52,875,1779,1994,2146,2202,2166,1817,1943,2177
1008694,51964,46916,59422,59422,163,161,41,-1,-7,599,291,3845,41,54,876,1779,1994,2146,2202,2166,1817,1943,2177
1009695,52052,46996,59487,59487,37,210,49,10,-14,251,327,4109,50,53,875,1780,1996,2146,2197,2169,1818,1944,2186
1010696,52128,47092,59552,59552,112,110,51,9,-12,278,261,3925,35,52,875,1780,1996,2146,2197,2169,1818,1944,2186
1011697,52188,47164,59617,59617,212,260,56,15,-14,401,338,3914,47,57,876,1780,1996,2146,2197,2169,1818,1944,2186
1012698,52244,47248,59682,59682,237,184,51,15,-7,220,364,3848,34,61,874,1780,1996,2146,2197,2169,1818,1944,2186
1013699,52332,47344,59747,59747,37,108,45,9,1,293,375,3927,51,64,874,1780,1996,2146,2197,2169,1818,1944,2186
1014700,52412,47440,59812,59812,86,108,36,-13,2,-72,396,4003,54,50,877,1780,1996,2146,2197,2169,1818,1944,2186
1015701,52464,47536,59877,59877,261,107,37,-23,5,-70,345,3800,52,57,876,1779,1999,2148,2196,2167,1811,1938,2182
1016702,52544,47608,59942,59942,86,257,34,-28,11,-37,385,4032,43,64,874,1779,1999,2148,2196,2167,1811,1938,2182
1017703,52616,47720,60007,60007,136,5,31,-8,8,-112,424,3850,53,64,874,1779,1999,2148,2196,2167,1811,1938,2182
1018704,52700,47812,60072,60072,60,130,22,-35,-7,345,382,3864,36,61,876,1779,1999,2148,2196,2167,1811,1938,2182
1019705,52780,47896,60137,60137,85,179,25,-39,-16,-65,393,4122,45,52,876,1779,1999,2148,2196,2167,1811,1938,2182
1020706,52844,47988,60202,60202,185,129,26,-16,-8,273,281,3612,34,56,875,1781,2002,2153,2198,2172,1814,1942,2189
1021707,52932,48108,60267,60267,35,-48,33,-7,-12,604,298,3923,47,56,875,1781,2002,2153,2198,2172,1814,1942,2189
1022708,53000,48204,60332,60332,160,102,42,-3,-9,510,380,4140,50,62,877,1781,2002,2153,2198,2172,1814,1942,2189
1023709,53076,48292,60397,60397,109,151,37,-8,0,339,341,3841,37,50,872,1781,2002,2153,2198,2172,1814,1942,2189
1024710,53168,48352,60462,60462,9,326,35,3,5,559,307,3809,37,60,875,1781,2002,2153,2198,2172,1814,1942,2189
1025711,53232,48440,60527,60527,184,151,34,18,1,451,409,4118,34,56,875,1781,2002,2153,2198,2172,1814,1942,2189
1026712,53316,48560,60592,60592,58,-51,26,-2,0,172,418,3814,35,50,875,1781,2006,2155,2198,2175,1814,1942,2187
1027713,53360,48656,60657,60657,309,98,23,-14,5,-32,345,4024,38,52,876,1781,2006,2155,2198,2175,1814,1942,2187
1028714,53448,48792,60722,60722,33,-153,28,-17,-8,8,358,3779,49,63,874,1781,2006,2155,2198,2175,1814,1942,2187
1029715,53504,48872,60787,60787,233,196,27,-26,-9,-393,322,3959,42,53,876,1781,2006,2155,2198,2175,1814,1942,2187
1030716,53568,48940,60852,60852,183,271,24,-22,-5,-124,376,3929,49,62,874,1781,2006,2155,2198,2175,1814,1942,2187
1031717,53660,49012,60917,60917,8,246,24,-23,-7,489,325,3764,46,62,874,1780,2008,2156,2200,2178,1815,1943,2189
1032718,53736,49076,60982,60982,107,296,37,-17,-3,397,286,4061,40,52,875,1780,2008,2156,2200,2178,1815,1943,2189
1033719,53836,49164,61047,61047,-43,146,30,-20,3,331,376,3956,34,62,874,1780,2008,2156,2200,2178,1815,1943,2189
1034720,53900,49272,61112,61112,182,20,30,-19,-5,296,366,3861,48,62,876,1780,2008,2156,2200,2178,1815,1943,2189
1035721,53968,49360,61177,61177,157,144,29,-7,-5,52,285,4057,54,49,876,1780,2008,2156,2200,2178,1815,1943,2189
1036722,54044,49480,61242,61242,106,-57,31,-23,-6,65,259,3875,51,61,875,1780,2008,2156,2200,2178,1815,1943,2189
1037723,54140,49608,61307,61307,-20,-109,34,-24,-2,-142,302,3968,37,54,875,1779,2009,2151,2198,2182,1818,1948,2194
1038724,54212,49696,61372,61372,130,141,36,-33,-9,11,358,3891,34,47,876,1779,2009,2151,2198,2182,1818,1948,2194
1039725,54276,49792,61437,61437,180,90,38,-22,-10,418,308,3862,43,49,875,1779,2009,2151,2198,2182,1818,1948,2194
1040726,54360,49900,61502,61502,55,14,34,-19,3,515,271,4031,34,48,872,1779,2009,2151,2198,2182,1818,1948,2194
1041727,54440,49984,61567,61567,79,163,32,-12,7,525,406,3839,37,57,877,1779,2009,2151,2198,2182,1818,1948,2194
1042728,54508,50084,61632,61632,154,62,29,7,4,577,420,3870,53,62,875,1780,2012,2157,2198,2178,1812,1943,2193
1043729,54612,50176,61697,61697,-72,112,28,10,12,697,338,3865,35,62,876,1780,2012,2157,2198,2178,1812,1943,2193
1044730,54696,50252,61762,61762,53,212,27,10,1,675,410,3867,33,57,872,1780,2012,2157,2198,2178,1812,1943,2193
1045731,54756,50348,61827,61827,203,86,29,17,-2,108,336,3956,49,54,875,1780,2012,2157,2198,2178,1812,1943,2193
1046732,54820,50452,61892,61892,178,35,39,0,-7,-199,298,3907,33,46,874,1780,2012,2157,2198,2178,1812,1943,2193
1047733,54900,50532,61957,61957,78,184,49,6,-8,-321,294,3993,45,61,876,1780,2012,2157,2198,2178,1812,1943,2193
1048734,54980,50616,62022,62022,77,159,48,-7,-14,-282,338,3987,49,51,875,1779,2015,2159,2196,2181,1810,1940,2191
1049735,55040,50700,62087,62087,203,159,48,-9,-18,-146,329,3895,37,45,876,1779,2015,2159,2196,2181,1810,1940,2191
1050736,55096,50816,62152,62152,228,-43,46,-35,-9,-59,338,3835,34,46,875,1779,2015,2159,2196,2181,1810,1940,2191
1051737,55172,50888,62217,62217,102,232,44,-32,-2,39,395,4179,40,46,875,1779,2015,2159,2196,2181,1810,1940,2191
1052738,55240,50980,62282,62282,152,106,30,-31,3,-68,389,3659,34,46,875,1779,2015,2159,2196,2181,1810,1940,2191
1053739,55324,51072,62347,62347,52,106,23,-46,4,670,339,4061,41,61,875,1776,2016,2160,2195,2178,1809,1942,2197
1054740,55388,51172,62412,62412,177,55,28,-27,7,747,376,3896,52,55,877,1776,2016,2160,2195,2178,1809,1942,2197
1055741,55468,51284,62477,62477,77,-21,23,-25,6,704,411,3774,38,54,876,1776,2016,2160,2195,2178,1809,1942,2197
1056742,55540,51368,62542,62542,126,153,23,-5,2,700,415,4058,43,50,877,1776,2016,2160,2195,2178,1809,1942,2197
1057743,55596,51484,62607,62607,227,-48,21,5,0,531,274,3810,34,58,872,1776,2016,2160,2195,2178,1809,1942,2197
1058744,55676,51568,62672,62672,76,152,42,31,-10,554,349,4046,41,43,875,1776,2016,2160,2195,2178,1809,1942,2197
1059745,55740,51680,62737,62737,176,-25,42,25,-6,275,311,3952,42,52,875,1779,2017,2155,2195,2190,1816,1948,2203
1060746,55816,51764,62802,62802,101,150,56,30,-14,182,322,4028,36,56,876,1779,2017,2155,2195,2190,1816,1948,2203
1061747,55868,51852,62867,62867,251,124,52,30,-7,131,301,3895,36,49,875,1779,2017,2155,2195,2190,1816,1948,2203
1062748,55944,51936,62932,62932,101,149,51,17,-4,118,374,3940,46,58,874,1779,2017,2155,2195,2190,1816,1948,2203
1063749,56024,52036,62997,62997,76,48,44,17,2,42,399,4002,38,55,875,1779,2017,2155,2195,2190,1816,1948,2203
1064750,56092,52092,63062,63062,151,323,37,4,-1,-55,366,3755,34,62,876,1776,2018,2160,2196,2190,1816,1947,2195
1065751,56168,52168,63127,63127,100,198,39,9,0,-94,332,4115,40,59,874,1776,2018,2160,2196,2190,1816,1947,2195
1066752,56244,52268,63192,63192,100,47,35,-10,-3,17,385,3929,42,51,875,1776,2018,2160,2196,2190,1816,1947,2195
1067753,56316,52368,63257,63257,125,46,33,-14,-5,19,299,3897,40,44,876,1776,2018,2160,2196,2190,1816,1947,2195
1068754,56392,52440,63322,63322,100,221,35,-18,-7,109,365,4032,34,46,876,1776,2018,2160,2196,2190,1816,1947,2195
1069755,56448,52528,63387,63387,225,121,36,-22,-8,-55,251,3974,38,44,875,1776,2018,2160,2196,2190,1816,1947,2195
1070756,56532,52624,63452,63452,49,70,38,-20,-3,14,293,3920,32,46,875,1778,2018,2163,2202,2187,1815,1947,2201
1071757,56596,52716,63517,63517,174,94,39,-9,-2,291,325,3954,48,61,876,1778,2018,2163,2202,2187,1815,1947,2201
1072758,56672,52816,63582,63582,99,43,40,-16,0,439,319,3875,31,56,875,1778,2018,2163,2202,2187,1815,1947,2201
1073759,56748,52908,63647,63647,99,93,39,-13,2,476,395,4034,46,60,876,1778,2018,2163,2202,2187,1815,1947,2201
1074760,56828,52996,63712,63712,74,117,34,-2,1,463,336,3788,35,52,872,1778,2018,2163,2202,2187,1815,1947,2201
1075761,56896,53100,63777,63777,148,16,39,11,-7,518,382,3885,49,58,875,1782,2022,2163,2198,2185,1812,1944,2201
1076762,56972,53208,63842,63842,98,-10,37,17,-6,448,382,3983,45,58,876,1782,2022,2163,2198,2185,1812,1944,2201
1077763,57032,53300,63907,63907,198,89,38,17,-13,314,382,3851,45,48,876,1782,2022,2163,2198,2185,1812,1944,2201
1078764,57084,53388,63972,63972,249,114,38,9,-8,218,317,3892,30,57,875,1782,2022,2163,2198,2185,1812,1944,2201
1079765,57156,53468,64037,64037,123,164,47,10,-8,80,377,4067,32,59,874,1782,2022,2163,2198,2185,1812,1944,2201
1080766,57216,53572,64102,64102,199,13,46,7,-1,-62,321,3793,41,59,875,1782,2022,2163,2198,2185,1812,1944,2201
1081767,57280,53660,64167,64167,174,112,47,3,-1,38,401,4106,30,46,876,1780,2028,2164,2192,2185,1807,1942,2201
1082768,57348,53736,64232,64232,149,187,41,-4,6,61,330,3841,48,55,875,1780,2028,2164,2192,2185,1807,1942,2201
1083769,57400,53840,64297,64297,249,11,38,-11,1,176,393,4067,44,43,875,1780,2028,2164,2192,2185,1807,1942,2201
1084770,57464,53904,64362,64362,174,261,41,3,4,-55,291,3876,36,57,875,1780,2028,2164,2192,2185,1807,1942,2201
1085771,57532,53992,64427,64427,149,110,39,-3,-1,264,353,3969,46,46,874,1780,2028,2164,2192,2185,1807,1942,2201
1086772,57584,54064,64492,64492,249,210,41,-12,-6,341,317,4077,42,60,875,1774,2022,2163,2191,2188,1810,1944,2202
1087773,57656,54144,64557,64557,124,160,41,-11,-4,136,313,3748,35,56,874,1774,2022,2163,2191,2188,1810,1944,2202
