%  Data file recorded 2017/4/24  11:21:7
%  Stride Frequency         = [1, 1]
%  Lead In /Lead Out        = 
%  Deltas (Fractional)      = [0.25, 0.25, 0.25],[0.25, 0.25, 0.25]
%  Phase                    = 32768
%  Experiment.py 
%  Motor Gains    = [100, 0, 100, 0, 0, 100, 0, 100, 0, 0]
% Columns: 
% time | Right Leg Pos | Left Leg Pos | Commanded Right Leg Pos | Commanded Left Leg Pos | DCR | DCL | GyroX | GyroY | GyroZ | AX | AY | AZ | RBEMF | LBEMF | VBatt | S1 | S2 | S3 | S4 | S5 | S6 | S7 | S8
443,-12252,-40292,0,0,149,983,-9,-4,0,211,376,3959,-6,-5,832,1834,1968,2139,2230,2145,1833,1930,2137
1444,-12260,-40304,0,0,349,1058,-12,-6,2,210,388,3941,-9,-7,831,1834,1968,2139,2230,2145,1833,1930,2137
2445,-12256,-40296,0,0,274,933,-13,-8,3,229,387,3960,9,-7,831,1834,1968,2139,2230,2145,1833,1930,2137
3446,-12268,-40304,0,0,374,1033,-15,-8,2,217,377,3984,-7,-6,831,1834,1968,2139,2230,2145,1833,1930,2137
4447,-12276,-40292,0,0,349,908,-15,-5,1,244,388,3952,-3,-7,832,1833,1966,2135,2227,2139,1828,1926,2131
5448,-12272,-40312,0,0,274,1109,-14,-1,2,235,388,3943,5,-7,831,1833,1966,2135,2227,2139,1828,1926,2131
6449,-12260,-40304,0,0,224,933,-12,-2,3,203,392,3927,-8,-7,831,1833,1966,2135,2227,2139,1828,1926,2131
7450,-12280,-40308,0,0,424,1009,-11,-2,1,225,384,3934,-8,-7,831,1833,1966,2135,2227,2139,1828,1926,2131
8451,-12260,-40308,0,0,174,984,-12,-2,-1,209,395,3944,4,-4,831,1833,1966,2135,2227,2139,1828,1926,2131
9452,-12276,-40308,0,0,399,984,-11,-1,1,189,386,3932,9,-5,832,1833,1966,2135,2227,2139,1828,1926,2131
10453,-12268,-40304,0,0,249,958,-10,-2,1,204,367,3922,6,-1,831,1830,1964,2132,2224,2138,1827,1927,2132
11454,-12268,-40288,0,0,299,883,-9,-3,3,190,387,3933,-5,4,831,1830,1964,2132,2224,2138,1827,1927,2132
12455,-12272,-40304,0,0,324,1083,-10,-2,2,180,388,3971,-9,5,832,1830,1964,2132,2224,2138,1827,1927,2132
13456,-12264,-40304,0,0,249,983,-12,-3,0,192,375,3954,-8,7,832,1830,1964,2132,2224,2138,1827,1927,2132
14457,-12264,-40300,0,0,299,958,-12,-2,0,192,388,3947,7,3,832,1830,1964,2132,2224,2138,1827,1927,2132
15458,-12260,-40300,0,0,274,983,-12,1,-1,195,351,3930,5,5,832,1831,1965,2134,2227,2141,1831,1930,2140
16459,-12264,-40296,0,0,324,958,-10,0,0,198,336,3958,-6,-1,832,1831,1965,2134,2227,2141,1831,1930,2140
17460,-12268,-40308,0,0,324,1059,-9,-2,1,193,352,3952,1,-5,832,1831,1965,2134,2227,2141,1831,1930,2140
18461,-12268,-40292,0,0,299,883,-9,-4,2,187,382,3951,8,-2,831,1831,1965,2134,2227,2141,1831,1930,2140
19462,-12268,-40312,0,0,299,1109,-9,-3,2,197,366,3907,-6,-8,827,1831,1965,2134,2227,2141,1831,1930,2140
20463,-12260,-40304,0,0,249,933,-7,-4,2,187,364,3928,6,0,832,1831,1965,2134,2227,2141,1831,1930,2140
21464,-12252,-40300,0,0,249,958,-7,-7,4,180,393,3934,-9,0,832,1833,1970,2140,2230,2147,1834,1932,2141
22465,-12268,-40300,0,0,399,983,-8,-9,3,162,387,3971,-9,7,832,1833,1970,2140,2230,2147,1834,1932,2141
23466,-12264,-40300,0,0,274,983,-11,-10,1,179,376,3941,2,5,832,1833,1970,2140,2230,2147,1834,1932,2141
24467,-12264,-40312,0,0,299,1059,-11,-9,-1,185,374,3969,7,6,832,1833,1970,2140,2230,2147,1834,1932,2141
25468,-12260,-40304,0,0,274,933,-10,-8,-2,186,347,3969,9,2,832,1833,1970,2140,2230,2147,1834,1932,2141
26469,-12264,-40304,0,0,324,983,-10,-5,-1,186,381,3945,5,-3,832,1832,1967,2139,2229,2147,1834,1932,2140
27470,-12256,-40304,0,0,249,983,-9,-6,1,197,380,3936,1,-1,832,1832,1967,2139,2229,2147,1834,1932,2140
28471,-12284,-40300,0,0,474,958,-11,-7,1,207,368,3950,-7,-5,832,1832,1967,2139,2229,2147,1834,1932,2140
29472,-12276,-40308,0,0,249,1034,-10,-5,1,210,375,3912,-5,-7,832,1832,1967,2139,2229,2147,1834,1932,2140
30473,-12252,-40292,0,0,149,883,-9,-3,0,235,386,3948,0,-7,832,1832,1967,2139,2229,2147,1834,1932,2140
31475,-12260,-40300,0,0,349,1033,-8,-2,0,221,407,3947,8,-5,832,1832,1967,2139,2229,2147,1834,1932,2140
32475,-12272,-40304,0,0,374,1008,-8,-5,-2,227,401,3914,5,-2,832,1830,1966,2134,2224,2140,1828,1925,2133
33476,-12264,-40316,0,0,249,1059,-7,-5,-4,243,396,3910,-6,-4,832,1830,1966,2134,2224,2140,1828,1925,2133
34477,-12272,-40312,0,0,349,959,-7,-4,-3,236,396,3934,-8,1,832,1830,1966,2134,2224,2140,1828,1925,2133
35478,-12264,-40304,0,0,249,933,-10,-1,-3,216,409,3946,8,5,832,1830,1966,2134,2224,2140,1828,1925,2133
36479,-12264,-40300,0,0,299,958,-12,-2,-2,201,400,3938,-6,4,828,1830,1966,2134,2224,2140,1828,1925,2133
37480,-12256,-40300,0,0,249,983,-9,-4,0,187,388,3952,-1,5,832,1828,1962,2130,2221,2139,1825,1925,2132
38481,-12252,-40300,0,0,274,983,-9,-3,1,187,373,3962,-9,3,832,1828,1962,2130,2221,2139,1825,1925,2132
39482,-12272,-40296,0,0,424,958,-10,-1,1,192,369,3944,4,6,832,1828,1962,2130,2221,2139,1825,1925,2132
40483,-12272,-40300,0,0,299,1008,-13,-3,-1,209,410,3916,1,4,832,1828,1962,2130,2221,2139,1825,1925,2132
41484,-12264,-40308,0,0,249,1034,-12,-4,-2,203,391,3922,-4,2,832,1828,1962,2130,2221,2139,1825,1925,2132
42485,-12272,-40308,0,0,349,984,-13,-3,0,201,368,3945,9,5,832,1828,1962,2130,2221,2139,1825,1925,2132
43486,-12264,-40292,0,0,249,883,-14,-3,0,198,366,3980,2,2,832,1824,1958,2129,2221,2138,1829,1926,2132
44487,-12264,-40304,0,0,299,1058,-15,-3,-1,166,382,3966,-6,-4,832,1824,1958,2129,2221,2138,1829,1926,2132
45488,-12260,-40312,0,0,274,1034,-13,-5,-1,174,354,3920,9,-2,832,1824,1958,2129,2221,2138,1829,1926,2132
46489,-12268,-40296,0,0,349,883,-11,-5,1,165,358,3936,4,-7,832,1824,1958,2129,2221,2138,1829,1926,2132
47490,-12252,-40304,0,0,199,1033,-11,-5,4,181,340,3933,-9,-7,832,1824,1958,2129,2221,2138,1829,1926,2132
48491,-12252,-40304,0,0,299,983,-12,-3,6,168,387,3930,-1,-7,832,1826,1960,2133,2224,2144,1834,1930,2136
49492,-12256,-40300,0,0,324,958,-12,-5,3,177,380,3951,9,-7,832,1826,1960,2133,2224,2144,1834,1930,2136
50493,-12264,-40304,0,0,349,1008,-12,-5,1,210,373,3929,-6,-7,832,1826,1960,2133,2224,2144,1834,1930,2136
51494,-12264,-40304,0,0,299,983,-13,-4,3,210,387,3886,-8,-7,832,1826,1960,2133,2224,2144,1834,1930,2136
52495,-12272,-40304,0,0,349,983,-13,-4,1,221,368,3897,3,-3,832,1826,1960,2133,2224,2144,1834,1930,2136
53496,-12260,-40304,0,0,224,983,-10,-3,0,239,377,3928,-5,3,827,1826,1960,2133,2224,2144,1834,1930,2136
54497,-12272,-40308,0,0,374,1009,-10,-4,2,252,366,3961,-3,7,832,1823,1962,2135,2228,2148,1836,1930,2137
55498,-12272,-40304,0,0,299,958,-10,-4,3,261,357,3973,8,7,832,1823,1962,2135,2228,2148,1836,1930,2137
56499,-12268,-40308,0,0,274,1009,-7,-3,2,246,372,3928,-9,5,832,1823,1962,2135,2228,2148,1836,1930,2137
57500,-12272,-40292,0,0,324,883,-7,2,1,238,385,3917,7,5,832,1823,1962,2135,2228,2148,1836,1930,2137
58501,-12276,-40304,0,0,324,1058,-8,3,1,225,404,3926,1,3,832,1823,1962,2135,2228,2148,1836,1930,2137
59502,-12272,-40292,0,0,274,908,-8,2,1,219,407,3925,-6,0,832,1827,1961,2131,2224,2143,1833,1931,2137
60503,-12272,-40296,0,0,299,1008,-8,3,0,217,423,3932,8,4,832,1827,1961,2131,2224,2143,1833,1931,2137
61504,-12256,-40300,0,0,199,1008,-7,1,-2,226,411,3930,2,-3,832,1827,1961,2131,2224,2143,1833,1931,2137
62505,-12264,-40292,0,0,349,933,-8,-2,0,220,406,3938,-7,-7,832,1827,1961,2131,2224,2143,1833,1931,2137
63506,-12256,-40300,0,0,249,1033,-8,-1,-1,204,400,3915,9,-7,832,1827,1961,2131,2224,2143,1833,1931,2137
64507,-12260,-40308,0,0,324,1034,-9,2,0,201,414,3916,-6,-7,832,1827,1961,2131,2224,2143,1833,1931,2137
65508,-12264,-40316,0,0,324,1034,-10,4,-2,209,400,3922,-2,-5,832,1829,1960,2131,2226,2138,1829,1925,2129
66509,-12256,-40300,0,0,249,883,-8,4,-1,215,385,3969,7,-7,832,1829,1960,2131,2226,2138,1829,1925,2129
67510,-12276,-40300,0,0,424,983,-8,4,0,199,371,3918,8,-5,832,1829,1960,2131,2226,2138,1829,1925,2129
68511,-12264,-40300,0,0,224,983,-8,3,-1,185,352,3920,-9,1,832,1829,1960,2131,2226,2138,1829,1925,2129
69512,-12268,-40292,0,0,324,933,-8,3,1,190,385,3946,-5,-4,832,1829,1960,2131,2226,2138,1829,1925,2129
70513,-12268,-40292,0,0,299,983,-6,4,1,162,381,3939,8,-1,828,1830,1960,2132,2225,2137,1829,1925,2129
71514,-12272,-40292,0,0,324,983,-7,3,0,166,373,3957,3,7,832,1830,1960,2132,2225,2137,1829,1925,2129
72515,-12272,-40320,0,0,299,1159,-6,2,-1,163,393,3923,9,3,832,1830,1960,2132,2225,2137,1829,1925,2129
73516,-12268,-40292,0,0,274,808,-8,2,-1,178,398,3943,-9,2,832,1830,1960,2132,2225,2137,1829,1925,2129
74517,-12264,-40304,0,0,274,1058,-9,3,-1,193,388,3960,9,1,832,1830,1960,2132,2225,2137,1829,1925,2129
75518,-12260,-40308,0,0,274,1009,-11,1,0,189,379,3922,-8,-5,832,1830,1960,2132,2225,2137,1829,1925,2129
76519,-12252,-40288,0,0,249,858,-11,-1,-1,203,354,3939,-4,-1,832,1828,1961,2131,2223,2139,1831,1930,2136
77520,-12260,-40304,0,0,349,1083,-8,0,-1,193,375,3936,8,2,832,1828,1961,2131,2223,2139,1831,1930,2136
78521,-12256,-40292,0,0,274,908,-6,1,-1,189,374,3920,-8,-4,832,1828,1961,2131,2223,2139,1831,1930,2136
79523,-12276,-40304,0,0,424,1058,-7,0,-1,206,374,3939,-3,-2,832,1828,1961,2131,2223,2139,1831,1930,2136
80523,-12268,-40304,0,0,249,983,-9,1,2,213,402,3917,3,-1,832,1828,1961,2131,2223,2139,1831,1930,2136
81524,-12272,-40312,0,0,324,1034,-8,2,1,203,408,3911,-10,-7,832,1829,1963,2133,2223,2145,1833,1931,2140
82525,-12260,-40304,0,0,224,933,-9,0,1,198,398,3930,1,-7,832,1829,1963,2133,2223,2145,1833,1931,2140
83526,-12256,-40304,0,0,274,983,-9,-2,-2,201,393,3932,1,-7,832,1829,1963,2133,2223,2145,1833,1931,2140
84527,-12256,-40300,0,0,299,958,-11,-4,-1,214,392,3897,-8,-7,832,1829,1963,2133,2223,2145,1833,1931,2140
85528,-12264,-40308,0,0,349,1034,-13,-3,1,202,402,3913,-5,-7,832,1829,1963,2133,2223,2145,1833,1931,2140
86529,-12276,-40304,0,0,374,958,-14,-2,1,206,388,3947,7,-6,832,1829,1963,2133,2223,2145,1833,1931,2140
87530,-12256,-40292,0,0,174,908,-11,-3,1,222,381,3970,-9,-4,828,1828,1964,2134,2225,2145,1834,1931,2138
88531,-12272,-40304,0,0,399,1058,-10,-2,2,205,391,3953,-7,7,832,1828,1964,2134,2225,2145,1834,1931,2138
89532,-12256,-40300,0,0,199,958,-10,-2,-2,183,373,3923,1,7,832,1828,1964,2134,2225,2145,1834,1931,2138
90533,-12252,-40304,0,0,274,1008,-11,-1,-3,199,379,3944,8,7,832,1828,1964,2134,2225,2145,1834,1931,2138
91534,-12264,-40296,0,0,374,933,-12,-4,-1,191,387,3963,-1,7,832,1828,1964,2134,2225,2145,1834,1931,2138
92535,-12260,-40292,0,0,274,958,-13,-6,1,199,376,3916,-7,7,832,1828,1960,2128,2224,2144,1832,1929,2134
93536,-12260,-40304,0,0,299,1058,-15,-5,1,193,397,3949,1,7,832,1828,1960,2128,2224,2144,1832,1929,2134
94537,-12272,-40292,0,0,374,908,-14,-5,0,194,412,3905,9,7,832,1828,1960,2128,2224,2144,1832,1929,2134
95538,-12248,-40308,0,0,149,1084,-12,-5,-3,205,357,3937,-5,7,832,1828,1960,2128,2224,2144,1832,1929,2134
96539,-12264,-40308,0,0,399,984,-9,-6,0,197,358,3966,-10,5,832,1828,1960,2128,2224,2144,1832,1929,2134
97540,-12264,-40316,0,0,299,1034,-10,-2,0,195,363,3917,-7,7,832,1828,1960,2128,2224,2144,1832,1929,2134
98541,-12264,-40304,0,0,299,908,-11,-1,-1,193,366,3912,5,4,832,1825,1957,2130,2224,2140,1830,1926,2131
99542,-12268,-40304,0,0,324,983,-11,-2,-1,204,383,3928,9,7,832,1825,1957,2130,2224,2140,1830,1926,2131
100543,-12268,-40292,16384,16384,1105,1714,-10,-4,1,183,371,3941,5,7,832,1825,1957,2130,2224,2140,1830,1926,2131
101544,-12264,-40292,16449,16449,1082,1791,-11,-1,2,214,369,3928,-5,7,793,1825,1957,2130,2224,2140,1830,1926,2131
102545,-12268,-40276,16514,16514,1133,1692,-13,0,-1,225,384,3961,25,27,794,1825,1957,2130,2224,2140,1830,1926,2131
103546,-12256,-40224,16579,16579,1034,1467,-13,3,-9,284,388,3911,29,33,797,1828,1960,2133,2228,2140,1803,1899,2095
104547,-12240,-40148,16644,16644,1011,1317,-11,7,-6,346,317,3874,27,47,801,1828,1960,2133,2228,2140,1803,1899,2095
105548,-12220,-40084,16709,16709,987,1392,-6,17,-2,586,380,3905,29,41,808,1828,1960,2133,2228,2140,1803,1899,2095
106549,-12172,-39992,16774,16774,812,1216,-7,16,-3,355,358,3987,34,42,808,1828,1960,2133,2228,2140,1803,1899,2095
107550,-12112,-39888,16839,16839,737,1140,3,22,-5,361,280,3988,50,49,814,1828,1960,2133,2228,2140,1803,1899,2095
108551,-12016,-39772,16904,16904,512,1064,8,28,-3,326,333,3929,55,59,818,1828,1960,2133,2228,2140,1803,1899,2095
109552,-11952,-39644,16969,16969,712,988,11,37,1,272,352,3936,47,70,823,1793,1922,2099,2192,2106,1803,1910,2113
110553,-11864,-39532,17034,17034,561,1087,10,40,-6,663,424,4129,56,66,821,1793,1922,2099,2192,2106,1803,1910,2113
111554,-11796,-39408,17099,17099,686,1010,16,43,-2,178,362,3805,47,72,822,1793,1922,2099,2192,2106,1803,1910,2113
112555,-11712,-39260,17164,17164,585,858,4,20,14,-170,441,3952,66,75,822,1793,1922,2099,2192,2106,1803,1910,2113
113556,-11616,-39116,17229,17229,510,881,9,12,10,-344,413,4030,70,84,826,1793,1922,2099,2192,2106,1803,1910,2113
114557,-11536,-38964,17294,17294,609,829,-1,-4,16,-455,415,3714,54,79,826,1834,1957,2125,2223,2132,1821,1920,2127
115558,-11412,-38828,17359,17359,333,927,-7,-2,13,-235,436,3926,57,87,826,1834,1957,2125,2223,2132,1821,1920,2127
116559,-11324,-38672,17424,17424,557,800,-10,-13,13,-49,461,4097,69,79,828,1834,1957,2125,2223,2132,1821,1920,2127
117560,-11192,-38512,17489,17489,281,773,-15,-28,2,-108,537,3804,69,89,828,1834,1957,2125,2223,2132,1821,1920,2127
118561,-11080,-38344,17554,17554,405,720,-23,-36,-11,128,422,3918,71,83,831,1834,1957,2125,2223,2132,1821,1920,2127
119562,-10960,-38168,17619,17619,353,667,-24,-43,-20,599,473,3954,62,79,830,1834,1957,2125,2223,2132,1821,1920,2127
120563,-10836,-37944,17684,17684,327,364,-30,-22,-18,160,387,3860,75,87,832,1829,1960,2134,2225,2141,1830,1930,2141
121564,-10764,-37792,17749,17749,652,811,-22,9,-22,609,239,3962,71,95,832,1829,1960,2134,2225,2141,1830,1930,2141
122565,-10652,-37616,17814,17814,400,659,-14,4,-10,988,137,3821,72,98,826,1829,1960,2134,2225,2141,1830,1930,2141
123566,-10512,-37440,17879,17879,224,656,5,14,13,406,204,4365,76,97,832,1829,1960,2134,2225,2141,1830,1930,2141
124567,-10376,-37280,17944,17944,247,754,9,10,11,94,293,3868,84,88,833,1829,1960,2134,2225,2141,1830,1930,2141
125568,-10252,-37080,18009,18009,320,500,12,9,17,-114,302,3782,69,92,832,1815,1951,2124,2204,2142,1834,1928,2139
126569,-10148,-36884,18074,18074,445,522,-7,4,21,384,436,4086,83,85,834,1815,1951,2124,2204,2142,1834,1928,2139
127570,-10068,-36696,18139,18139,594,569,-10,-4,8,446,497,3797,83,107,833,1815,1951,2124,2204,2142,1834,1928,2139
128571,-9948,-36512,18204,18204,343,591,-17,5,10,9,393,3854,83,103,830,1815,1951,2124,2204,2142,1834,1928,2139
129572,-9808,-36344,18269,18269,216,689,-24,-19,13,18,503,3923,81,93,833,1815,1951,2124,2204,2142,1834,1928,2139
130573,-9700,-36172,18334,18334,415,661,-23,-34,20,-218,495,3928,72,96,833,1815,1951,2124,2204,2142,1834,1928,2139
131574,-9568,-35980,18399,18399,263,533,-36,-44,15,162,472,3814,91,102,831,1817,1953,2124,2214,2147,1833,1931,2137
132575,-9468,-35796,18464,18464,462,580,-43,-35,3,32,586,3957,79,105,835,1817,1953,2124,2214,2147,1833,1931,2137
133576,-9324,-35612,18529,18529,186,577,-52,-40,-10,-317,429,3905,80,109,832,1817,1953,2124,2214,2147,1833,1931,2137
134577,-9196,-35412,18594,18594,284,474,-41,-40,-17,-5,300,3865,89,107,835,1817,1953,2124,2214,2147,1833,1931,2137
135578,-9068,-35232,18659,18659,282,596,-33,-14,-17,657,129,3957,76,92,835,1817,1953,2124,2214,2147,1833,1931,2137
136579,-8956,-35032,18724,18724,381,468,-1,-6,-6,924,146,3927,75,106,833,1824,1959,2132,2226,2150,1837,1932,2137
137580,-8820,-34852,18789,18789,230,590,5,-8,6,925,341,4145,84,92,834,1824,1959,2132,2226,2150,1837,1932,2137
138581,-8668,-34676,18854,18854,127,612,-12,-16,10,137,515,3813,78,90,832,1824,1959,2132,2226,2150,1837,1932,2137
139582,-8560,-34492,18919,18919,401,559,-21,-8,5,114,476,3948,79,92,834,1824,1959,2132,2226,2150,1837,1932,2137
140583,-8448,-34308,18984,18984,375,557,-21,-9,13,257,198,3675,91,89,833,1824,1959,2132,2226,2150,1837,1932,2137
141584,-8320,-34144,19049,19049,274,679,-2,31,33,504,202,4177,81,95,833,1824,1959,2132,2226,2150,1837,1932,2137
142585,-8176,-33956,19114,19114,172,526,6,20,27,762,393,3994,82,104,832,1823,1952,2136,2232,2132,1824,1920,2112
143586,-8056,-33768,19179,19179,320,523,8,15,6,-155,409,3753,81,97,835,1823,1952,2136,2232,2132,1824,1920,2112
144587,-7920,-33580,19244,19244,219,520,-4,16,-2,101,553,3995,80,95,834,1823,1952,2136,2232,2132,1824,1920,2112
145588,-7808,-33420,19309,19309,368,693,-19,-11,-11,294,580,3985,77,111,835,1823,1952,2136,2232,2132,1824,1920,2112
146589,-7684,-33240,19374,19374,291,565,-16,2,-34,-238,555,3858,80,89,832,1823,1952,2136,2232,2132,1824,1920,2112
147590,-7552,-33044,19439,19439,239,462,-21,5,-23,30,329,3982,81,95,834,1837,1972,2141,2239,2127,1823,1922,2124
148591,-7432,-32872,19504,19504,313,609,-5,10,-10,248,301,3951,91,99,835,1837,1972,2141,2239,2127,1823,1922,2124
149592,-7320,-32708,19569,19569,362,657,0,1,12,110,165,3925,80,102,833,1837,1972,2141,2239,2127,1823,1922,2124
150593,-7200,-32508,19634,19634,311,428,14,9,30,479,308,3978,93,92,832,1837,1972,2141,2239,2127,1823,1922,2124
151594,-7080,-32324,19699,19699,309,526,2,13,26,494,436,3830,89,112,835,1837,1972,2141,2239,2127,1823,1922,2124
152595,-6936,-32160,19764,19764,157,648,-6,14,2,41,392,3879,84,94,834,1837,1972,2141,2239,2127,1823,1922,2124
153596,-6812,-31964,19829,19829,281,445,-4,37,1,870,318,3890,83,99,835,1834,1970,2139,2232,2135,1827,1926,2133
154597,-6680,-31760,19894,19894,229,392,-3,21,-5,820,468,4082,88,107,835,1834,1970,2139,2232,2135,1827,1926,2133
155598,-6564,-31576,19959,19959,328,514,-3,29,-30,-297,438,4003,79,105,833,1834,1970,2139,2232,2135,1827,1926,2133
156599,-6428,-31408,20024,20024,201,611,1,15,-20,-368,198,3979,87,87,834,1834,1970,2139,2232,2135,1827,1926,2133
157600,-6296,-31232,20089,20089,225,558,20,25,-11,260,197,3805,77,97,834,1834,1970,2139,2232,2135,1827,1926,2133
158601,-6176,-31036,20154,20154,298,430,24,44,-7,-83,323,4036,77,102,835,1828,1963,2133,2220,2147,1835,1931,2143
159602,-6052,-30864,20219,20219,272,578,25,35,-6,285,396,3919,92,100,835,1828,1963,2133,2220,2147,1835,1931,2143
160603,-5920,-30692,20284,20284,220,575,25,24,-3,99,401,3738,72,89,834,1828,1963,2133,2220,2147,1835,1931,2143
161604,-5792,-30508,20349,20349,244,497,20,44,0,400,460,4160,88,93,834,1828,1963,2133,2220,2147,1835,1931,2143
162605,-5668,-30320,20414,20414,267,469,15,25,10,226,381,3843,84,99,835,1828,1963,2133,2220,2147,1835,1931,2143
163606,-5560,-30136,20479,20479,366,491,11,14,6,191,377,3801,89,97,835,1828,1963,2133,2220,2147,1835,1931,2143
164607,-5432,-29972,20544,20544,240,614,16,39,13,142,304,3956,72,107,834,1825,1961,2129,2219,2147,1836,1933,2140
165608,-5288,-29820,20609,20609,138,687,23,40,23,327,246,3961,82,99,834,1825,1961,2129,2219,2147,1836,1933,2140
166609,-5184,-29616,20674,20674,387,358,21,36,0,277,320,4028,87,93,833,1825,1961,2129,2219,2147,1836,1933,2140
167610,-5048,-29440,20739,20739,185,531,29,24,3,114,380,3762,71,102,835,1825,1961,2129,2219,2147,1836,1933,2140
168611,-4952,-29272,20804,20804,434,578,11,10,13,101,620,4054,74,98,836,1825,1961,2129,2219,2147,1836,1933,2140
169612,-4840,-29100,20869,20869,333,550,-11,-2,-10,-105,599,3710,73,95,832,1826,1963,2132,2225,2142,1830,1930,2137
170613,-4696,-28940,20934,20934,131,623,-17,13,-10,-381,452,4056,81,107,834,1826,1963,2132,2225,2142,1830,1930,2137
171614,-4596,-28780,20999,20999,405,621,-17,9,-16,107,415,3737,68,111,835,1826,1963,2132,2225,2142,1830,1930,2137
172615,-4500,-28600,21064,21064,430,493,-14,-14,-14,287,439,4084,65,95,829,1826,1963,2132,2225,2142,1830,1930,2137
173616,-4356,-28432,21129,21129,128,565,-9,-6,-21,278,397,4059,80,107,833,1826,1963,2132,2225,2142,1830,1930,2137
174617,-4240,-28252,21194,21194,301,488,-12,-15,-3,219,315,3775,78,113,835,1826,1963,2132,2225,2142,1830,1930,2137
175618,-4128,-28068,21259,21259,325,460,-12,0,-8,372,333,4063,66,95,835,1828,1965,2135,2221,2140,1828,1926,2139
176619,-4012,-27896,21324,21324,299,532,-5,14,2,174,282,3944,67,109,835,1828,1965,2135,2221,2140,1828,1926,2139
177620,-3904,-27720,21389,21389,348,504,3,21,1,341,354,3901,63,107,834,1828,1965,2135,2221,2140,1828,1926,2139
178621,-3784,-27552,21454,21454,272,552,7,12,2,532,321,3895,67,112,834,1828,1965,2135,2221,2140,1828,1926,2139
179622,-3696,-27372,21519,21519,471,474,11,15,13,168,351,4112,72,116,834,1828,1965,2135,2221,2140,1828,1926,2139
180623,-3572,-27172,21584,21584,245,346,4,5,14,14,476,3861,63,108,833,1830,1967,2138,2224,2142,1832,1929,2136
181624,-3480,-26972,21649,21649,444,343,10,13,17,-280,380,3949,64,111,837,1830,1967,2138,2224,2142,1832,1929,2136
182625,-3368,-26804,21714,21714,318,540,8,23,-14,239,424,3947,59,102,835,1830,1967,2138,2224,2142,1832,1929,2136
183626,-3252,-26620,21779,21779,292,437,15,7,-5,123,354,3887,71,112,834,1830,1967,2138,2224,2142,1832,1929,2136
184627,-3144,-26456,21844,21844,341,560,-1,4,-7,481,707,3969,73,117,835,1830,1967,2138,2224,2142,1832,1929,2136
185628,-3040,-26280,21909,21909,365,482,-16,-18,-25,-266,468,3646,60,113,834,1830,1967,2138,2224,2142,1832,1929,2136
186629,-2936,-26088,21974,21974,364,379,-28,-7,-24,710,532,4064,69,108,834,1829,1964,2138,2235,2140,1832,1927,2131
187630,-2844,-25924,22039,22039,438,551,-33,-13,-12,-118,334,3686,60,119,835,1829,1964,2138,2235,2140,1832,1927,2131
188631,-2736,-25736,22104,22104,337,398,-26,-24,13,96,336,4197,60,111,832,1829,1964,2138,2235,2140,1832,1927,2131
189632,-2640,-25532,22169,22169,411,295,-23,-24,1,-177,376,3920,56,109,832,1829,1964,2138,2235,2140,1832,1927,2131
190633,-2544,-25384,22234,22234,410,643,-28,-35,20,129,371,3804,76,103,835,1829,1964,2138,2235,2140,1832,1927,2131
191634,-2448,-25176,22299,22299,410,265,-27,-18,26,652,366,3888,62,114,832,1827,1962,2132,2223,2146,1833,1929,2139
192635,-2352,-25020,22364,22364,409,587,-29,-5,10,206,341,4008,61,104,835,1827,1962,2132,2223,2146,1833,1929,2139
193636,-2252,-24832,22429,22429,383,384,-11,-8,3,-170,92,3990,64,117,832,1827,1962,2132,2223,2146,1833,1929,2139
194637,-2160,-24636,22494,22494,432,331,9,8,8,859,314,3988,59,118,835,1827,1962,2132,2223,2146,1833,1929,2139
195638,-2052,-24500,22559,22559,331,704,22,4,4,646,262,4042,59,111,835,1827,1962,2132,2223,2146,1833,1929,2139
196639,-1944,-24332,22624,22624,330,502,16,28,-5,198,507,3866,60,115,832,1822,1960,2130,2218,2147,1833,1929,2139
197640,-1848,-24148,22689,22689,405,399,6,19,-10,104,396,3805,63,121,835,1822,1960,2130,2218,2147,1833,1929,2139
198641,-1748,-23964,22754,22754,379,396,-1,21,-14,190,380,3997,59,124,835,1822,1960,2130,2218,2147,1833,1929,2139
199642,-1656,-23764,22819,22819,428,293,4,5,-5,14,332,3926,56,110,835,1822,1960,2130,2218,2147,1833,1929,2139
200643,-1552,-23564,22884,22884,352,289,-4,-12,7,-132,462,3981,59,116,835,1822,1960,2130,2218,2147,1833,1929,2139
201644,-1464,-23396,22949,22949,452,487,-14,-22,14,-152,549,3831,75,111,836,1822,1960,2130,2218,2147,1833,1929,2139
202645,-1356,-23224,23014,23014,325,459,-27,-3,6,-126,443,3766,62,116,833,1823,1962,2133,2225,2141,1831,1927,2138
203646,-1260,-23012,23079,23079,400,206,-18,17,5,480,325,3906,62,128,835,1823,1962,2133,2225,2141,1831,1927,2138
204647,-1176,-22800,23144,23144,474,202,-14,-14,13,432,341,3938,63,117,836,1823,1962,2133,2225,2141,1831,1927,2138
205648,-1068,-22616,23209,23209,323,374,7,-5,14,256,379,4209,57,112,835,1823,1962,2133,2225,2141,1831,1927,2138
206651,-980,-22456,23274,23274,448,522,-3,-4,-1,225,379,3767,69,116,833,1823,1962,2133,2225,2141,1831,1927,2138
207650,-864,-22248,23339,23339,271,218,1,20,-21,445,336,3966,72,114,833,1830,1966,2137,2228,2139,1829,1927,2134
208651,-772,-22060,23404,23404,421,340,14,25,-15,590,334,4000,71,120,837,1830,1966,2137,2228,2139,1829,1927,2134
209652,-660,-21884,23469,23469,295,413,20,19,-22,175,454,4115,55,111,835,1830,1966,2137,2228,2139,1829,1927,2134
210653,-568,-21648,23534,23534,419,34,8,13,-3,30,369,3588,69,127,836,1830,1966,2137,2228,2139,1829,1927,2134
211654,-468,-21472,23599,23599,368,406,10,26,4,179,368,4095,74,120,837,1830,1966,2137,2228,2139,1829,1927,2134
212655,-388,-21284,23664,23664,493,328,5,28,11,-394,328,3778,71,115,835,1830,1966,2137,2228,2139,1829,1927,2134
213656,-284,-21084,23729,23729,342,250,1,28,31,-8,354,3957,59,119,834,1836,1972,2140,2232,2136,1827,1927,2130
214657,-188,-20920,23794,23794,391,472,3,22,27,529,545,3927,61,120,836,1836,1972,2140,2232,2136,1827,1927,2130
215658,-96,-20740,23859,23859,415,369,-4,7,15,432,586,3844,69,120,834,1836,1972,2140,2232,2136,1827,1927,2130
216659,-4,-20532,23924,23924,415,191,-16,-10,-6,70,591,3913,61,115,835,1836,1972,2140,2232,2136,1827,1927,2130
217660,96,-20340,23989,23989,364,288,-28,-5,-3,-176,339,3861,59,124,836,1836,1972,2140,2232,2136,1827,1927,2130
218661,216,-20180,24054,24054,237,485,-11,3,-18,370,338,4166,64,124,836,1834,1967,2137,2228,2142,1831,1930,2141
219662,312,-19952,24119,24119,387,56,-2,9,-14,41,234,3876,57,123,835,1834,1967,2137,2228,2142,1831,1930,2141
220663,404,-19788,24184,24184,411,454,3,-9,-12,238,301,4055,56,124,837,1834,1967,2137,2228,2142,1831,1930,2141
221664,496,-19604,24249,24249,410,326,4,-3,-6,-80,305,3897,68,123,834,1834,1967,2137,2228,2142,1831,1930,2141
222665,592,-19432,24314,24314,385,399,4,22,-1,-140,362,3971,61,121,835,1834,1967,2137,2228,2142,1831,1930,2141
223666,688,-19228,24379,24379,384,195,4,12,19,363,231,3623,58,125,832,1834,1967,2137,2228,2142,1831,1930,2141
224667,808,-19056,24444,24444,233,393,12,7,12,819,452,4269,59,112,836,1820,1959,2129,2208,2136,1827,1923,2120
225668,896,-18860,24509,24509,432,239,6,12,5,-45,486,4001,68,121,836,1820,1959,2129,2208,2136,1827,1923,2120
226669,976,-18680,24574,24574,482,337,-12,-20,9,81,420,3436,63,112,835,1820,1959,2129,2208,2136,1827,1923,2120
227670,1092,-18480,24639,24639,255,208,-11,8,2,179,468,4168,61,123,834,1820,1959,2129,2208,2136,1827,1923,2120
228671,1180,-18292,24704,24704,430,280,-18,-3,7,149,434,3903,66,120,837,1820,1959,2129,2208,2136,1827,1923,2120
229672,1280,-18104,24769,24769,354,277,-15,-12,6,133,399,3993,67,108,835,1823,1963,2134,2222,2152,1836,1934,2145
230673,1388,-17868,24834,24834,303,-27,-15,-29,7,-342,361,3838,71,125,836,1823,1963,2134,2222,2152,1836,1934,2145
231674,1476,-17720,24899,24899,427,521,-19,-34,9,-39,373,4031,66,120,838,1823,1963,2134,2222,2152,1836,1934,2145
232675,1576,-17528,24964,24964,351,243,-16,-12,0,129,460,4029,75,108,833,1823,1963,2134,2222,2152,1836,1934,2145
233676,1684,-17348,25029,25029,300,315,-23,-3,1,494,369,3602,61,126,836,1823,1963,2134,2222,2152,1836,1934,2145
234677,1788,-17148,25094,25094,324,187,-18,-10,-4,547,333,4280,67,113,837,1823,1963,2134,2222,2152,1836,1934,2145
235678,1900,-16960,25159,25159,273,259,-14,-21,-5,330,480,3871,74,119,837,1823,1960,2130,2220,2147,1836,1932,2141
236679,2016,-16756,25224,25224,247,155,-17,-19,0,274,427,3796,65,111,837,1823,1960,2130,2220,2147,1836,1932,2141
237680,2116,-16568,25289,25289,346,252,-27,3,5,327,379,3882,66,119,838,1823,1960,2130,2220,2147,1836,1932,2141
238681,2224,-16372,25354,25354,295,199,-19,5,-9,-85,295,4003,62,122,836,1823,1960,2130,2220,2147,1836,1932,2141
239682,2324,-16164,25419,25419,344,121,-18,-14,-3,307,360,4000,75,122,837,1823,1960,2130,2220,2147,1836,1932,2141
240683,2428,-15968,25484,25484,318,193,-20,-29,6,120,411,3760,75,103,835,1825,1961,2132,2226,2142,1830,1926,2132
241684,2532,-15768,25549,25549,317,164,-33,-29,11,3,475,4055,67,119,837,1825,1961,2132,2226,2142,1830,1926,2132
242685,2664,-15564,25614,25614,141,136,-26,-21,-2,-442,372,3930,65,111,837,1825,1961,2132,2226,2142,1830,1926,2132
243686,2740,-15388,25679,25679,491,308,-25,-14,-6,-14,314,3990,76,105,839,1825,1961,2132,2226,2142,1830,1926,2132
244687,2860,-15224,25744,25744,214,381,-17,-8,-3,675,356,3943,77,109,834,1825,1961,2132,2226,2142,1830,1926,2132
245688,2964,-15004,25809,25809,313,27,-17,-14,-2,413,398,4055,79,104,837,1825,1961,2132,2226,2142,1830,1926,2132
246689,3060,-14804,25874,25874,362,149,-21,-19,4,68,374,3701,65,108,839,1829,1966,2138,2232,2136,1828,1923,2130
247690,3168,-14592,25939,25939,286,70,-22,-14,5,330,448,4042,78,111,837,1829,1966,2138,2232,2136,1828,1923,2130
248691,3276,-14412,26004,26004,285,267,-26,-4,10,57,246,3900,81,116,838,1829,1966,2138,2232,2136,1828,1923,2130
249692,3384,-14236,26069,26069,284,290,-25,-9,-3,310,412,3908,69,114,837,1829,1966,2138,2232,2136,1828,1923,2130
250693,3504,-14008,26134,26134,208,-39,-23,-30,10,228,321,3985,65,115,837,1829,1966,2138,2232,2136,1828,1923,2130
251694,3600,-13836,26199,26199,357,308,-24,-26,2,510,505,3948,77,121,839,1830,1964,2136,2229,2136,1828,1927,2131
252695,3740,-13648,26264,26264,80,205,-34,-27,0,-331,382,3891,71,117,836,1830,1964,2136,2229,2136,1828,1927,2131
253696,3860,-13444,26329,26329,204,102,-22,-7,1,-126,259,4002,77,119,839,1830,1964,2136,2229,2136,1828,1927,2131
254697,3968,-13272,26394,26394,278,299,-6,5,-10,603,300,3848,63,100,839,1830,1964,2136,2229,2136,1828,1927,2131
255698,4096,-13076,26459,26459,151,146,0,-4,-2,235,304,4260,79,112,837,1830,1964,2136,2229,2136,1828,1927,2131
256699,4208,-12868,26524,26524,250,67,-1,-8,-1,176,322,3681,71,116,839,1830,1964,2136,2229,2136,1828,1927,2131
257700,4348,-12676,26589,26589,73,164,-5,-5,-2,321,534,4077,70,114,835,1828,1964,2134,2226,2141,1831,1928,2136
258701,4464,-12480,26654,26654,222,136,-21,-2,-4,-351,401,3880,67,116,839,1828,1964,2134,2226,2141,1831,1928,2136
259702,4576,-12312,26719,26719,246,308,-18,-9,2,179,463,3649,64,118,838,1828,1964,2134,2226,2141,1831,1928,2136
260703,4708,-12116,26784,26784,119,130,-27,-12,15,551,351,4206,85,111,837,1828,1964,2134,2226,2141,1831,1928,2136
261704,4812,-11928,26849,26849,294,177,-23,-34,15,156,407,3672,76,107,839,1828,1964,2134,2226,2141,1831,1928,2136
262705,4928,-11744,26914,26914,217,199,-32,-33,17,-162,405,4228,61,108,838,1830,1968,2136,2226,2146,1834,1932,2144
263706,5052,-11540,26979,26979,166,71,-25,-7,19,-24,290,3748,71,99,838,1830,1968,2136,2226,2146,1834,1932,2144
264707,5148,-11364,27044,27044,340,243,-12,1,0,441,328,3924,82,107,839,1830,1968,2136,2226,2146,1834,1932,2144
265708,5264,-11164,27109,27109,214,90,0,-8,-6,626,347,4055,69,112,836,1830,1968,2136,2226,2146,1834,1932,2144
266709,5364,-10976,27174,27174,313,162,-1,-3,-5,202,385,3925,66,102,839,1830,1968,2136,2226,2146,1834,1932,2144
267710,5472,-10784,27239,27239,262,134,-14,-28,-19,81,489,3951,80,98,838,1830,1968,2136,2226,2146,1834,1932,2144
268711,5580,-10612,27304,27304,261,256,-18,-16,-19,-136,441,3840,78,99,838,1820,1959,2130,2219,2146,1832,1931,2139
269712,5696,-10392,27369,27369,210,-48,-18,-15,-15,159,410,3954,70,100,837,1820,1959,2130,2219,2146,1832,1931,2139
270713,5832,-10212,27434,27434,83,200,-8,-6,-16,106,264,3841,67,104,839,1820,1959,2130,2219,2146,1832,1931,2139
271714,5956,-10020,27499,27499,156,121,-5,-24,-8,176,387,4245,68,102,839,1820,1959,2130,2219,2146,1832,1931,2139
272715,6076,-9820,27564,27564,180,68,2,-30,-6,20,320,3704,68,94,839,1820,1959,2130,2219,2146,1832,1931,2139
273716,6196,-9624,27629,27629,179,90,-5,-17,7,274,411,4017,70,112,839,1821,1961,2132,2220,2141,1827,1924,2135
274717,6308,-9424,27694,27694,228,62,-13,-8,7,507,396,3653,70,107,836,1821,1961,2132,2220,2141,1827,1924,2135
275718,6416,-9228,27759,27759,252,84,-14,-5,3,242,361,4005,68,110,839,1821,1961,2132,2220,2141,1827,1924,2135
276719,6544,-9068,27824,27824,125,306,-11,6,5,236,407,3970,81,105,839,1821,1961,2132,2220,2141,1827,1924,2135
277720,6668,-8864,27889,27889,149,28,-23,0,5,494,480,3717,64,97,838,1821,1961,2132,2220,2141,1827,1924,2135
278721,6788,-8712,27954,27954,172,351,-26,-13,1,302,424,4103,67,102,840,1821,1961,2132,2220,2141,1827,1924,2135
279722,6904,-8528,28019,28019,196,148,-25,-19,8,-4,448,3930,67,102,837,1829,1968,2136,2226,2137,1826,1923,2133
280723,7012,-8360,28084,28084,245,245,-24,-29,-13,-279,371,3914,71,92,839,1829,1968,2136,2226,2137,1826,1923,2133
281724,7128,-8168,28149,28149,194,92,-17,-14,-11,-48,228,3864,82,100,837,1829,1968,2136,2226,2137,1826,1923,2133
282725,7244,-7984,28214,28214,192,139,-9,-10,-19,466,406,4097,85,102,839,1829,1968,2136,2226,2137,1826,1923,2133
283726,7376,-7820,28279,28279,91,262,-10,-16,-10,188,421,3943,83,94,839,1829,1968,2136,2226,2137,1826,1923,2133
284727,7476,-7624,28344,28344,290,59,-17,-34,0,501,431,3821,64,96,839,1829,1966,2137,2228,2140,1829,1926,2140
285728,7580,-7456,28409,28409,264,231,-22,-23,-1,164,551,4034,62,102,838,1829,1966,2137,2228,2140,1829,1926,2140
286729,7692,-7256,28474,28474,213,28,-27,-15,1,-208,379,3970,72,90,837,1829,1966,2137,2228,2140,1829,1926,2140
287730,7808,-7100,28539,28539,187,301,-25,4,0,363,377,3810,69,98,839,1829,1966,2137,2228,2140,1829,1926,2140
288731,7920,-6928,28604,28604,210,198,-23,-1,-8,518,363,3878,80,102,838,1829,1966,2137,2228,2140,1829,1926,2140
289732,8044,-6768,28669,28669,134,271,-11,-17,-6,235,329,4201,81,92,838,1829,1966,2137,2228,2140,1829,1926,2140
290733,8168,-6572,28734,28734,133,42,-12,-34,-5,165,369,3848,69,100,838,1832,1969,2138,2227,2144,1831,1930,2140
291734,8264,-6392,28799,28799,307,140,-14,-22,-7,79,356,3781,68,89,837,1832,1969,2138,2227,2144,1831,1930,2140
292735,8380,-6208,28864,28864,181,112,-13,-12,-13,27,409,4118,69,87,837,1832,1969,2138,2227,2144,1831,1930,2140
293736,8508,-6060,28929,28929,104,335,-17,-9,-2,399,320,3714,69,100,839,1832,1969,2138,2227,2144,1831,1930,2140
294737,8600,-5896,28994,28994,328,232,-12,-16,-1,401,380,4170,78,95,838,1832,1969,2138,2227,2144,1831,1930,2140
295738,8732,-5716,29059,29059,77,129,-13,-14,-8,288,402,3798,68,98,837,1829,1968,2136,2226,2146,1833,1931,2140
296739,8824,-5536,29124,29124,326,127,-18,-16,-1,249,434,4016,80,88,840,1829,1968,2136,2226,2146,1833,1931,2140
297740,8960,-5356,29189,29189,49,124,-20,-14,0,205,374,3911,63,93,838,1829,1968,2136,2226,2146,1833,1931,2140
298741,9068,-5196,29254,29254,223,247,-22,-12,-9,143,298,3812,74,84,840,1829,1968,2136,2226,2146,1833,1931,2140
299742,9180,-5032,29319,29319,197,219,-7,-1,-14,220,262,4135,67,90,838,1829,1968,2136,2226,2146,1833,1931,2140
300743,9292,-4880,29384,29384,196,292,0,-7,-11,229,290,3681,79,92,838,1829,1968,2136,2226,2146,1833,1931,2140
301744,9420,-4732,29449,29449,94,315,-3,-9,-13,227,373,4180,76,91,837,1825,1963,2135,2226,2146,1833,1928,2137
302745,9536,-4568,29514,29514,168,213,-6,-11,-8,311,374,3866,65,77,838,1825,1963,2135,2226,2146,1833,1928,2137
303746,9632,-4412,29579,29579,292,260,-7,-19,-4,299,406,4019,60,93,838,1825,1963,2135,2226,2146,1833,1928,2137
304747,9752,-4244,29644,29644,141,183,-7,-8,-2,0,371,3898,64,91,837,1825,1963,2135,2226,2146,1833,1928,2137
305748,9856,-4112,29709,29709,240,406,-7,4,-3,-19,365,3960,65,91,839,1825,1963,2135,2226,2146,1833,1928,2137
306749,9964,-3928,29774,29774,214,78,1,17,4,288,314,4052,71,83,836,1824,1961,2131,2223,2139,1827,1923,2132
307750,10076,-3784,29839,29839,188,326,11,-2,9,68,287,3818,60,95,838,1824,1961,2131,2223,2139,1827,1923,2132
308751,10184,-3616,29904,29904,212,174,10,-13,4,228,442,3971,61,90,834,1824,1961,2131,2223,2139,1827,1923,2132
309752,10300,-3476,29969,29969,161,347,-1,-26,2,296,498,3937,77,87,838,1824,1961,2131,2223,2139,1827,1923,2132
310753,10424,-3328,30034,30034,109,295,-14,-25,-5,-84,496,3864,68,85,837,1824,1961,2131,2223,2139,1827,1923,2132
311754,10528,-3176,30099,30099,233,268,-20,-17,-12,229,472,3824,73,78,838,1824,1961,2131,2223,2139,1827,1923,2132
312755,10628,-3032,30164,30164,257,316,-18,-1,-18,557,433,3873,58,85,837,1829,1965,2135,2230,2138,1830,1925,2131
313756,10732,-2856,30229,30229,232,113,-24,-2,-9,460,385,3967,62,74,837,1829,1965,2135,2230,2138,1830,1925,2131
314757,10848,-2712,30294,30294,155,311,-13,-11,-7,481,349,3914,62,91,838,1829,1965,2135,2230,2138,1830,1925,2131
315758,10960,-2572,30359,30359,179,334,0,-1,2,336,280,4158,64,85,838,1829,1965,2135,2230,2138,1830,1925,2131
316759,11072,-2432,30424,30424,178,333,1,0,2,314,325,3807,62,83,837,1829,1965,2135,2230,2138,1830,1925,2131
317760,11176,-2296,30489,30489,227,356,10,18,-4,56,358,4060,69,87,837,1823,1963,2136,2226,2142,1832,1928,2134
318761,11288,-2144,30554,30554,176,254,5,21,-3,-148,357,3788,67,88,837,1823,1963,2136,2226,2142,1832,1928,2134
319762,11396,-1996,30619,30619,200,277,1,10,-3,185,469,3932,59,83,838,1823,1963,2136,2226,2142,1832,1928,2134
320763,11496,-1868,30684,30684,249,400,-6,20,-7,297,428,4005,74,84,837,1823,1963,2136,2226,2142,1832,1928,2134
321764,11604,-1724,30749,30749,198,298,-6,-4,-16,147,415,3708,54,75,836,1823,1963,2136,2226,2142,1832,1928,2134
322765,11720,-1588,30814,30814,147,347,-10,-6,-20,57,434,4004,57,68,837,1823,1963,2136,2226,2142,1832,1928,2134
323766,11820,-1440,30879,30879,246,270,-15,-14,-9,201,512,3864,53,74,837,1824,1959,2133,2224,2142,1833,1929,2135
324767,11924,-1288,30944,30944,220,242,-14,-13,2,95,413,4004,73,83,837,1824,1959,2133,2224,2142,1833,1929,2135
325768,12028,-1148,31009,31009,219,316,-14,-16,7,220,340,3811,70,71,834,1824,1959,2133,2224,2142,1833,1929,2135
326769,12148,-1008,31074,31074,118,314,-8,-6,2,241,379,3908,56,72,837,1824,1959,2133,2224,2142,1833,1929,2135
327770,12240,-876,31139,31139,292,362,-6,-2,-2,93,323,4023,57,81,837,1824,1959,2133,2224,2142,1833,1929,2135
328771,12344,-752,31204,31204,216,411,2,16,-1,425,306,3815,60,82,836,1823,1959,2132,2222,2145,1836,1931,2137
329772,12448,-608,31269,31269,215,284,-6,4,3,447,390,3966,62,67,836,1823,1959,2132,2222,2145,1836,1931,2137
330773,12556,-488,31334,31334,189,432,-8,-12,-8,418,420,3943,56,75,837,1823,1959,2132,2222,2145,1836,1931,2137
331774,12648,-344,31399,31399,288,280,-12,-13,-7,519,431,3842,62,79,836,1823,1959,2132,2222,2145,1836,1931,2137
332775,12748,-192,31464,31464,237,228,-13,-4,-14,-54,428,3934,53,79,837,1823,1959,2132,2222,2145,1836,1931,2137
333776,12852,-52,31529,31529,211,302,-20,-4,-15,82,358,3917,69,76,838,1823,1959,2132,2222,2145,1836,1931,2137
334777,12964,64,31594,31594,160,450,-8,5,-9,391,355,4030,63,69,837,1828,1960,2132,2224,2145,1836,1932,2137
335778,13056,208,31659,31659,285,273,1,5,-5,-59,342,3875,54,76,836,1828,1960,2132,2224,2145,1836,1932,2137
336779,13164,352,31724,31724,184,271,2,2,-8,-42,350,3974,52,79,836,1828,1960,2132,2224,2145,1836,1932,2137
337780,13268,476,31789,31789,208,395,6,4,-8,1,415,4025,63,76,838,1828,1960,2132,2224,2145,1836,1932,2137
338781,13356,624,31854,31854,307,243,3,-8,2,178,416,3833,51,73,836,1828,1960,2132,2224,2145,1836,1932,2137
339782,13472,764,31919,31919,131,291,-6,-10,1,291,462,3833,62,83,836,1827,1960,2135,2229,2139,1831,1927,2132
340783,13560,888,31984,31984,305,390,-15,-21,-6,93,452,3898,53,74,838,1827,1960,2135,2229,2139,1831,1927,2132
341784,13644,1060,32049,32049,330,87,-16,-5,-1,204,409,3832,65,83,835,1827,1960,2135,2229,2139,1831,1927,2132
342785,13752,1160,32114,32114,179,536,-22,-7,1,457,388,3899,60,79,834,1827,1960,2135,2229,2139,1831,1927,2132
343786,13856,1300,32179,32179,203,284,-23,-10,0,334,345,3972,57,85,835,1827,1960,2135,2229,2139,1831,1927,2132
344787,13948,1448,32244,32244,277,232,-18,-8,5,450,380,3951,53,87,837,1827,1960,2135,2229,2139,1831,1927,2132
345788,14040,1568,32309,32309,277,406,-12,-5,-5,231,377,3913,58,75,837,1832,1961,2136,2230,2139,1834,1927,2131
346789,14136,1724,32374,32374,251,179,0,-8,-4,-21,248,4022,64,72,835,1832,1961,2136,2230,2139,1834,1927,2131
347790,14216,1872,32439,32439,350,227,5,-3,5,372,376,4049,64,70,837,1832,1961,2136,2230,2139,1834,1927,2131
348791,14328,2020,32504,32504,149,225,0,6,4,193,341,3776,63,81,836,1832,1961,2136,2230,2139,1834,1927,2131
349792,14416,2144,32768,32768,304,378,2,-5,2,-67,369,3943,52,68,838,1832,1961,2136,2230,2139,1834,1927,2131
350793,14504,2272,32833,32833,303,352,-4,1,1,63,358,4006,57,70,835,1828,1960,2135,2227,2138,1834,1928,2132
351794,14612,2416,32898,32898,177,250,-6,5,-6,443,391,3773,65,82,836,1828,1960,2135,2227,2138,1834,1928,2132
352795,14704,2548,32963,32963,276,323,-7,2,-12,154,496,3928,63,71,838,1828,1960,2135,2227,2138,1834,1928,2132
353796,14800,2680,33028,33028,251,321,-11,-8,-8,234,449,3922,52,73,836,1828,1960,2135,2227,2138,1834,1928,2132
354797,14900,2808,33093,33093,225,345,-21,-15,-15,507,463,3870,67,77,836,1828,1960,2135,2227,2138,1834,1928,2132
355798,15008,2948,33158,33158,174,268,-18,-10,-4,270,313,3929,66,71,836,1828,1960,2135,2227,2138,1834,1928,2132
356799,15096,3084,33223,33223,298,291,-15,-11,-3,171,390,3954,64,80,838,1829,1959,2131,2226,2143,1838,1932,2137
357800,15188,3220,33288,33288,272,290,-11,0,5,24,284,3861,54,69,836,1829,1959,2131,2226,2143,1838,1932,2137
358801,15288,3348,33353,33353,222,338,-4,9,14,524,315,4006,58,81,836,1829,1959,2131,2226,2143,1838,1932,2137
359802,15376,3492,33418,33418,296,236,3,2,18,296,286,3874,63,83,833,1829,1959,2131,2226,2143,1838,1932,2137
360803,15484,3632,33483,33483,170,259,6,17,17,142,414,4014,58,87,836,1829,1959,2131,2226,2143,1838,1932,2137
361804,15568,3764,33548,33548,319,308,-8,-4,10,367,420,3837,49,70,838,1825,1957,2132,2227,2146,1839,1933,2137
362805,15652,3900,33613,33613,319,281,-9,-2,-3,287,485,3898,52,72,836,1825,1957,2132,2227,2146,1839,1933,2137
363806,15752,4044,33678,33678,218,229,-22,-8,-7,190,441,3957,53,79,836,1825,1957,2132,2227,2146,1839,1933,2137
364807,15836,4180,33743,33743,318,277,-23,-5,-11,190,467,3816,50,79,837,1825,1957,2132,2227,2146,1839,1933,2137
365808,15920,4308,33808,33808,317,326,-26,5,-12,30,390,3956,58,76,836,1825,1957,2132,2227,2146,1839,1933,2137
366809,16020,4432,33873,33873,216,349,-20,2,-11,234,330,3971,51,74,836,1825,1957,2132,2227,2146,1839,1933,2137
367810,16120,4568,33938,33938,216,273,-2,11,-10,191,290,3983,57,88,837,1826,1956,2131,2225,2147,1842,1934,2138
368811,16220,4708,34003,34003,215,246,1,5,-11,70,317,3995,64,84,837,1826,1956,2131,2225,2147,1842,1934,2138
369812,16316,4848,34068,34068,239,244,7,11,-2,186,333,4040,50,74,837,1826,1956,2131,2225,2147,1842,1934,2138
370813,16408,4980,34133,34133,263,292,2,17,19,382,344,3911,48,73,837,1826,1956,2131,2225,2147,1842,1934,2138
371814,16504,5108,34198,34198,237,316,8,27,8,22,425,3852,62,87,836,1826,1956,2131,2225,2147,1842,1934,2138
372815,16588,5256,34263,34263,312,189,1,7,20,49,322,3976,53,80,837,1827,1957,2133,2226,2143,1838,1930,2132
373816,16680,5424,34328,34328,261,61,-2,15,6,482,487,3838,65,88,837,1827,1957,2133,2226,2143,1838,1930,2132
374817,16796,5612,34393,34393,110,-67,-12,17,21,444,395,3741,54,82,838,1827,1957,2133,2226,2143,1838,1930,2132
375818,16860,5740,34458,34458,435,307,-13,14,17,516,488,4015,54,71,839,1827,1957,2133,2226,2143,1838,1930,2132
376819,16968,5876,34523,34523,159,255,-17,-7,12,291,447,3928,62,77,832,1827,1957,2133,2226,2143,1838,1930,2132
377820,17052,6036,34588,34588,309,103,-29,-32,-1,256,466,3882,50,81,838,1827,1957,2133,2226,2143,1838,1930,2132
378821,17140,6192,34653,34653,283,125,-24,0,-1,156,368,3794,57,84,837,1830,1958,2135,2232,2142,1837,1931,2135
379822,17228,6312,34718,34718,283,349,-25,9,4,101,371,3985,55,88,837,1830,1958,2135,2232,2142,1837,1931,2135
380823,17308,6468,34783,34783,332,122,-21,6,-12,115,330,4122,58,71,835,1830,1958,2135,2232,2142,1837,1931,2135
381826,17404,6632,34848,34848,231,69,-3,1,-16,202,217,3886,51,85,837,1830,1958,2135,2232,2142,1837,1931,2135
382825,17500,6768,34913,34913,231,243,-2,-1,-10,134,314,4030,49,92,838,1830,1958,2135,2232,2142,1837,1931,2135
383826,17596,6904,34978,34978,230,241,1,13,-8,67,343,3941,57,84,838,1829,1959,2136,2230,2145,1839,1933,2138
384827,17688,7036,35043,35043,254,264,-1,14,-1,235,341,3931,59,80,837,1829,1959,2136,2230,2145,1839,1933,2138
385828,17792,7168,35108,35108,178,263,-2,10,7,214,447,3860,55,83,837,1829,1959,2136,2230,2145,1839,1933,2138
386829,17880,7276,35173,35173,278,412,-2,1,6,201,480,3984,66,86,837,1829,1959,2136,2230,2145,1839,1933,2138
387830,17968,7404,35238,35238,277,285,-15,5,19,440,381,3845,51,84,835,1829,1959,2136,2230,2145,1839,1933,2138
388831,18060,7520,35303,35303,251,359,-14,9,23,343,428,3992,66,83,836,1829,1959,2136,2230,2145,1839,1933,2138
389832,18120,7604,35368,35368,452,558,-11,14,17,123,377,3940,66,94,836,1827,1962,2138,2232,2143,1840,1936,2136
390833,18232,7720,35433,35433,125,357,-3,10,22,275,287,3950,67,86,832,1827,1962,2138,2232,2143,1840,1936,2136
391834,18320,7856,35498,35498,275,230,-7,6,14,386,415,4076,54,79,837,1827,1962,2138,2232,2143,1840,1936,2136
392835,18408,8016,35563,35563,274,78,-6,-5,9,115,351,3789,63,83,837,1827,1962,2138,2232,2143,1840,1936,2136
393836,18488,8148,35628,35628,324,251,1,30,4,-170,457,3961,67,79,835,1827,1962,2138,2232,2143,1840,1936,2136
394837,18588,8288,35693,35693,198,200,-9,21,5,139,391,3903,58,84,836,1832,1963,2139,2233,2146,1840,1934,2138
395838,18680,8412,35758,35758,247,298,-5,11,5,716,414,4050,57,97,838,1832,1963,2139,2233,2146,1840,1934,2138
396839,18752,8580,35823,35823,372,21,-6,0,4,131,395,3778,58,94,837,1832,1963,2139,2233,2146,1840,1934,2138
397840,18844,8748,35888,35888,247,18,-2,7,-9,-54,426,4014,52,83,837,1832,1963,2139,2233,2146,1840,1934,2138
398841,18944,8876,35953,35953,196,267,-11,-7,1,269,428,3996,69,88,838,1832,1963,2139,2233,2146,1840,1934,2138
399842,19016,9000,36018,36018,371,290,-17,14,-1,472,481,3713,68,95,838,1832,1963,2139,2233,2146,1840,1934,2138
400843,19128,9132,36083,36083,119,238,-20,22,-6,47,387,3871,54,86,836,1831,1961,2138,2230,2143,1837,1931,2138
401844,19220,9264,36148,36148,244,237,-16,0,2,-219,228,4127,71,92,838,1831,1961,2138,2230,2143,1837,1931,2138
402845,19312,9416,36213,36213,243,110,-2,3,1,348,259,3845,58,83,837,1831,1961,2138,2230,2143,1837,1931,2138
403846,19388,9540,36278,36278,343,283,9,16,7,151,264,4094,66,78,838,1831,1961,2138,2230,2143,1837,1931,2138
404847,19492,9704,36343,36343,167,31,1,7,9,206,402,3990,67,92,836,1831,1961,2138,2230,2143,1837,1931,2138
405848,19588,9816,36408,36408,216,355,1,-2,6,66,389,3816,51,78,839,1829,1962,2138,2231,2144,1836,1930,2137
406849,19668,9936,36473,36473,316,303,-14,-16,15,60,512,4055,54,89,837,1829,1962,2138,2231,2144,1836,1930,2137
407850,19768,10100,36538,36538,190,26,-13,-5,11,120,433,3614,62,78,836,1829,1962,2138,2231,2144,1836,1930,2137
408851,19852,10220,36603,36603,289,300,-21,-3,15,200,395,4209,54,87,839,1829,1962,2138,2231,2144,1836,1930,2137
409852,19952,10352,36668,36668,189,223,-17,2,8,101,418,3699,59,83,836,1829,1962,2138,2231,2144,1836,1930,2137
410853,20044,10496,36733,36733,238,146,-23,-18,7,205,432,4076,68,91,835,1829,1962,2138,2231,2144,1836,1930,2137
411854,20132,10636,36798,36798,262,169,-20,-16,11,87,348,4025,56,78,838,1832,1964,2139,2232,2144,1837,1934,2141
412855,20236,10776,36863,36863,161,167,-14,-7,7,146,361,3677,69,76,838,1832,1964,2139,2232,2144,1837,1934,2141
413856,20336,10916,36928,36928,186,166,-7,19,10,463,309,4001,65,82,839,1832,1964,2139,2232,2144,1837,1934,2141
414857,20420,11048,36993,36993,285,214,3,23,11,570,287,3971,60,85,839,1832,1964,2139,2232,2144,1837,1934,2141
415858,20508,11180,37058,37058,260,212,10,34,12,272,328,4136,63,79,837,1832,1964,2139,2232,2144,1837,1934,2141
416859,20604,11312,37123,37123,209,211,8,33,16,285,303,3748,55,76,838,1834,1968,2144,2234,2144,1836,1932,2138
417860,20704,11440,37188,37188,183,234,9,24,12,174,511,4080,68,80,838,1834,1968,2144,2234,2144,1836,1932,2138
418861,20784,11564,37253,37253,308,258,-6,17,4,-150,511,3822,53,81,837,1834,1968,2144,2234,2144,1836,1932,2138
419862,20880,11676,37318,37318,207,332,-13,5,-6,-69,510,3815,60,70,837,1834,1968,2144,2234,2144,1836,1932,2138
420863,20960,11804,37383,37383,306,230,-20,-20,-15,-85,452,3817,56,75,837,1834,1968,2144,2234,2144,1836,1932,2138
421864,21052,11932,37448,37448,231,228,-26,-37,-21,140,487,4149,66,84,837,1841,1973,2146,2239,2142,1837,1934,2142
422865,21140,12060,37513,37513,255,227,-24,-29,-15,-54,386,3700,64,72,837,1841,1973,2146,2239,2142,1837,1934,2142
423866,21224,12192,37578,37578,280,200,-33,-29,-3,51,401,4090,57,76,838,1841,1973,2146,2239,2142,1837,1934,2142
424867,21320,12324,37643,37643,204,199,-22,-7,-4,294,259,3803,66,79,837,1841,1973,2146,2239,2142,1837,1934,2142
425868,21396,12440,37708,37708,329,297,-5,7,6,451,201,4122,67,72,838,1841,1973,2146,2239,2142,1837,1934,2142
426869,21496,12568,37773,37773,178,221,8,3,12,417,239,3939,52,86,836,1841,1973,2146,2239,2142,1837,1934,2142
427870,21584,12680,37838,37838,252,320,12,1,5,326,377,3849,51,89,834,1840,1973,2148,2238,2146,1839,1934,2143
428871,21676,12820,37903,37903,227,143,14,20,10,257,396,3845,54,72,836,1840,1973,2148,2238,2146,1839,1934,2143
429872,21780,12952,37968,37968,151,191,-8,39,5,388,407,3871,67,85,838,1840,1973,2148,2238,2146,1839,1934,2143
430873,21876,13100,38033,38033,200,89,2,25,-1,476,373,3821,59,74,838,1840,1973,2148,2238,2146,1839,1934,2143
431874,21952,13232,38098,38098,325,188,-6,21,10,78,387,3922,51,73,839,1840,1973,2148,2238,2146,1839,1934,2143
432875,22032,13368,38163,38163,299,161,2,22,10,242,431,3969,63,74,837,1844,1976,2150,2242,2145,1836,1933,2141
433876,22116,13492,38228,38228,274,234,-10,3,8,280,432,3816,54,71,837,1844,1976,2150,2242,2145,1836,1933,2141
434877,22216,13616,38293,38293,173,233,-3,-14,5,-144,441,3975,68,76,837,1844,1976,2150,2242,2145,1836,1933,2141
435878,22320,13752,38358,38358,147,156,-15,-13,2,-408,466,4042,67,72,837,1844,1976,2150,2242,2145,1836,1933,2141
436879,22392,13860,38423,38423,347,330,-12,-15,-9,-416,369,3812,51,68,838,1844,1976,2150,2242,2145,1836,1933,2141
437880,22488,13976,38488,38488,196,279,-12,-17,-15,132,378,3965,64,76,835,1844,1976,2150,2242,2145,1836,1933,2141
438881,22556,14092,38553,38553,371,278,-7,-24,-18,287,444,4009,59,82,837,1847,1979,2151,2246,2150,1840,1936,2148
439882,22648,14208,38618,38618,220,276,-16,-24,-15,142,427,3808,66,73,835,1847,1979,2151,2246,2150,1840,1936,2148
440883,22744,14348,38683,38683,195,125,-16,-10,-18,386,403,3907,63,69,837,1847,1979,2151,2246,2150,1840,1936,2148
441884,22832,14484,38748,38748,244,148,-14,-13,-2,680,347,3882,50,67,838,1847,1979,2151,2246,2150,1840,1936,2148
442885,22908,14620,38813,38813,319,146,-14,8,11,500,356,3875,54,84,838,1847,1979,2151,2246,2150,1840,1936,2148
443886,23012,14744,38878,38878,143,220,-2,19,20,384,259,3932,67,83,838,1847,1983,2156,2243,2151,1839,1937,2152
444887,23104,14860,38943,38943,217,268,2,15,20,436,352,3999,58,76,835,1847,1983,2156,2243,2151,1839,1937,2152
445888,23192,14972,39008,39008,242,292,7,35,23,-31,256,3793,53,71,837,1847,1983,2156,2243,2151,1839,1937,2152
446889,23280,15096,39073,39073,241,216,7,12,22,252,310,4012,60,69,837,1847,1983,2156,2243,2151,1839,1937,2152
447890,23376,15216,39138,39138,190,240,7,12,7,-19,419,4057,67,74,837,1847,1983,2156,2243,2151,1839,1937,2152
448891,23468,15320,39203,39203,215,339,6,1,-2,-322,438,3784,52,71,837,1847,1983,2156,2243,2151,1839,1937,2152
449892,23540,15456,39268,39268,339,137,-1,-16,-1,-26,428,4006,60,67,837,1846,1987,2159,2246,2146,1832,1930,2144
450893,23644,15584,39333,39333,139,185,-19,-26,-17,289,703,4096,68,83,837,1846,1987,2159,2246,2146,1832,1930,2144
451894,23716,15728,39398,39398,338,83,-34,-28,-9,-318,390,3481,54,68,838,1846,1987,2159,2246,2146,1832,1930,2144
452895,23804,15840,39463,39463,238,282,-29,-27,-2,357,520,4106,49,65,837,1846,1987,2159,2246,2146,1832,1930,2144
453896,23888,15952,39528,39528,262,281,-42,-28,2,177,328,4034,50,79,837,1846,1987,2159,2246,2146,1832,1930,2144
454897,23968,16068,39593,39593,287,255,-17,-11,6,198,232,3790,49,71,837,1850,1994,2164,2246,2152,1834,1933,2152
455898,24072,16180,39658,39658,136,279,-17,-3,5,307,262,4001,70,75,836,1850,1994,2164,2246,2152,1834,1933,2152
456899,24152,16300,39723,39723,286,227,-1,-16,12,381,278,4121,68,67,837,1850,1994,2164,2246,2152,1834,1933,2152
457900,24236,16432,39788,39788,260,151,1,-11,10,266,255,3837,52,64,837,1850,1994,2164,2246,2152,1834,1933,2152
458901,24332,16536,39853,39853,184,325,0,-7,2,306,368,3853,65,67,837,1850,1994,2164,2246,2152,1834,1933,2152
459902,24420,16664,39918,39918,234,173,0,-1,7,409,399,4060,52,77,837,1850,1994,2164,2246,2152,1834,1933,2152
460903,24500,16776,39983,39983,284,272,-9,4,3,248,454,3835,51,77,838,1848,1993,2165,2247,2152,1835,1937,2155
461904,24612,16904,40048,40048,82,171,-18,-9,5,241,440,3963,52,68,834,1848,1993,2165,2247,2152,1835,1937,2155
462905,24700,17040,40113,40113,232,119,-17,1,6,155,428,3930,63,66,838,1848,1993,2165,2247,2152,1835,1937,2155
463906,24776,17172,40178,40178,307,142,-15,-12,8,-102,455,3927,62,79,838,1848,1993,2165,2247,2152,1835,1937,2155
464907,24868,17304,40243,40243,206,141,-16,-11,4,94,488,3990,62,76,837,1848,1993,2165,2247,2152,1835,1937,2155
465908,24960,17444,40308,40308,205,89,-17,-26,6,-10,454,3848,50,73,838,1851,1999,2168,2250,2156,1836,1937,2158
466909,25036,17556,40373,40373,305,263,-20,-27,10,-40,405,3939,52,60,839,1851,1999,2168,2250,2156,1836,1937,2158
467910,25136,17684,40438,40438,154,161,-24,-12,1,231,390,3959,66,74,837,1851,1999,2168,2250,2156,1836,1937,2158
468911,25212,17792,40503,40503,304,285,-27,-33,-9,91,320,3907,48,75,838,1851,1999,2168,2250,2156,1836,1937,2158
469912,25292,17908,40568,40568,278,234,-19,-17,-10,194,334,3987,49,65,836,1851,1999,2168,2250,2156,1836,1937,2158
470913,25352,18032,40633,40633,404,182,-9,-14,-15,349,369,3957,49,65,837,1851,1999,2168,2250,2156,1836,1937,2158
471914,25440,18160,40698,40698,228,156,-11,-15,-12,376,371,3896,65,64,836,1855,2006,2176,2252,2160,1836,1936,2160
472915,25516,18264,40763,40763,303,305,-14,-16,-2,223,378,3948,62,60,838,1855,2006,2176,2252,2160,1836,1936,2160
473916,25636,18388,40828,40828,26,178,-10,-14,3,269,365,3899,48,59,836,1855,2006,2176,2252,2160,1836,1936,2160
474917,25732,18492,40893,40893,176,302,-5,-21,14,291,345,4087,50,74,839,1855,2006,2176,2252,2160,1836,1936,2160
475918,25796,18608,40958,40958,376,226,-10,-14,10,210,405,3772,57,69,838,1855,2006,2176,2252,2160,1836,1936,2160
476919,25892,18720,41023,41023,175,250,-12,1,11,137,377,3937,51,72,837,1854,2010,2179,2254,2163,1837,1939,2163
477920,25984,18852,41088,41088,199,123,-17,-14,12,381,422,3910,52,59,837,1854,2010,2179,2254,2163,1837,1939,2163
478921,26056,18968,41153,41153,324,222,-15,-15,20,227,405,3994,52,73,835,1854,2010,2179,2254,2163,1837,1939,2163
479922,26148,19100,41218,41218,198,120,-16,-12,18,-198,331,3840,64,67,837,1854,2010,2179,2254,2163,1837,1939,2163
480923,26244,19228,41283,41283,173,144,-10,-23,15,-177,333,4030,59,71,838,1854,2010,2179,2254,2163,1837,1939,2163
481924,26320,19348,41348,41348,297,193,-3,-20,8,168,314,3991,47,67,838,1854,2010,2179,2254,2163,1837,1939,2163
482925,26416,19476,41413,41413,172,141,-4,-20,7,170,394,3871,53,61,837,1854,2014,2180,2254,2163,1833,1935,2165
483926,26484,19608,41478,41478,347,114,-9,-18,4,389,467,3950,51,61,838,1854,2014,2180,2254,2163,1833,1935,2165
484927,26604,19748,41543,41543,20,63,-14,-27,-7,377,496,3867,50,75,837,1854,2014,2180,2254,2163,1833,1935,2165
485928,26668,19860,41608,41608,370,236,-19,-19,-17,163,499,3842,65,62,839,1854,2014,2180,2254,2163,1833,1935,2165
486929,26776,19972,41673,41673,94,235,-25,-11,-14,343,424,3759,49,59,837,1854,2014,2180,2254,2163,1833,1935,2165
487930,26864,20088,41738,41738,219,209,-29,-22,-12,411,386,4101,51,57,838,1860,2020,2184,2256,2163,1834,1938,2169
488931,26948,20212,41803,41803,243,158,-22,-13,-16,208,337,3881,64,66,838,1860,2020,2184,2256,2163,1834,1938,2169
489932,27036,20304,41868,41868,218,357,-23,-12,-9,193,317,3923,59,59,838,1860,2020,2184,2256,2163,1834,1938,2169
490933,27136,20428,41933,41933,142,156,-18,-7,8,305,343,4076,51,67,836,1860,2020,2184,2256,2163,1834,1938,2169
491934,27208,20532,41998,41998,317,280,-14,-14,16,247,259,4009,54,65,838,1860,2020,2184,2256,2163,1834,1938,2169
492935,27312,20648,42063,42063,116,203,-6,-6,17,186,384,3908,50,60,836,1860,2020,2184,2256,2163,1834,1938,2169
493936,27400,20752,42128,42128,215,277,-8,-9,21,259,365,3858,59,72,838,1854,2019,2183,2252,2167,1831,1939,2174
494937,27492,20860,42193,42193,189,251,-2,-9,19,135,402,4092,55,55,838,1854,2019,2183,2252,2167,1831,1939,2174
495938,27568,20996,42258,42258,289,75,-12,-5,9,56,521,3963,54,67,835,1854,2019,2183,2252,2167,1831,1939,2174
496939,27648,21116,42323,42323,264,173,-19,-19,10,82,446,3643,50,71,837,1854,2019,2183,2252,2167,1831,1939,2174
497940,27736,21220,42388,42388,213,272,-17,-15,9,157,517,4052,47,72,837,1854,2019,2183,2252,2167,1831,1939,2174
498941,27836,21332,42453,42453,137,221,-21,-20,14,37,377,3969,62,59,837,1853,2021,2184,2252,2170,1832,1937,2172
499942,27912,21464,42518,42518,287,95,-18,-20,8,55,377,3870,49,70,838,1853,2021,2184,2252,2170,1832,1937,2172
500943,27984,21580,42583,42583,312,193,-15,-13,14,3,304,3884,53,57,838,1853,2021,2184,2252,2170,1832,1937,2172
501944,28076,21712,42648,42648,186,92,-3,-17,0,506,381,4033,54,60,837,1853,2021,2184,2252,2170,1832,1937,2172
502945,28152,21836,42713,42713,286,140,-3,-20,-15,365,366,3922,48,61,838,1853,2021,2184,2252,2170,1832,1937,2172
503946,28260,21956,42778,42778,85,164,-11,-14,-22,179,444,3926,53,71,838,1853,2021,2184,2252,2170,1832,1937,2172
504947,28344,22072,42843,42843,234,188,-17,-1,-23,220,368,3911,61,65,839,1856,2025,2188,2256,2172,1835,1939,2176
505948,28448,22184,42908,42908,109,211,-17,-4,-21,324,386,3968,61,54,838,1856,2025,2188,2256,2172,1835,1939,2176
506949,28552,22280,42973,42973,108,311,-14,1,-10,148,323,3847,45,67,838,1856,2025,2188,2256,2172,1835,1939,2176
507950,28652,22400,43038,43038,132,159,-12,-9,8,258,387,3857,44,53,837,1856,2025,2188,2256,2172,1835,1939,2176
508951,28728,22528,43103,43103,281,108,-17,-21,13,19,465,4107,53,63,838,1856,2025,2188,2256,2172,1835,1939,2176
509952,28828,22628,43168,43168,131,282,-23,-23,17,-68,337,3789,46,53,838,1855,2026,2191,2255,2175,1839,1944,2180
510953,28912,22744,43233,43233,230,181,-26,-26,23,659,458,3806,46,53,838,1855,2026,2191,2255,2175,1839,1944,2180
511954,28996,22844,43298,43298,230,280,-30,-15,27,97,438,3985,57,50,837,1855,2026,2191,2255,2175,1839,1944,2180
512955,29076,22976,43363,43363,254,78,-30,-25,16,23,346,3885,61,52,834,1855,2026,2191,2255,2175,1839,1944,2180
513956,29148,23104,43428,43428,304,102,-25,-27,8,387,381,3982,57,55,837,1855,2026,2191,2255,2175,1839,1944,2180
514957,29248,23208,43493,43493,128,251,-17,-14,-5,46,362,3873,51,63,838,1855,2026,2191,2255,2175,1839,1944,2180
515958,29344,23312,43558,43558,153,250,-13,-12,-10,214,258,4050,58,55,838,1855,2027,2191,2259,2181,1839,1943,2179
516959,29428,23440,43623,43623,227,98,-5,-13,-11,250,322,3904,45,49,838,1855,2027,2191,2259,2181,1839,1943,2179
517960,29512,23564,43688,43688,227,122,-2,-10,-9,22,381,4009,62,60,838,1855,2027,2191,2259,2181,1839,1943,2179
518961,29584,23664,43753,43753,301,271,-3,-16,-6,268,422,3930,52,61,838,1855,2027,2191,2259,2181,1839,1943,2179
519962,29684,23772,43818,43818,126,220,-12,-13,0,269,470,3815,58,49,837,1855,2027,2191,2259,2181,1839,1943,2179
520963,29772,23876,43883,43883,200,244,-23,-19,1,78,505,3884,52,50,837,1856,2029,2193,2259,2176,1836,1939,2175
521964,29844,23980,43948,43948,300,243,-32,-23,-2,245,498,3938,47,51,838,1856,2029,2193,2259,2176,1836,1939,2175
522965,29932,24108,44013,44013,199,91,-32,-37,-1,295,385,3920,47,50,837,1856,2029,2193,2259,2176,1836,1939,2175
523966,30000,24184,44078,44078,324,416,-30,-28,-8,210,393,3872,59,49,837,1856,2029,2193,2259,2176,1836,1939,2175
524967,30072,24312,44143,44143,299,90,-27,-14,-5,244,334,3980,55,63,836,1856,2029,2193,2259,2176,1836,1939,2175
525968,30176,24400,44208,44208,98,339,-22,-7,3,306,252,4009,58,59,836,1856,2029,2193,2259,2176,1836,1939,2175
526969,30252,24520,44273,44273,273,138,-19,-10,9,232,291,3968,50,62,837,1855,2031,2191,2255,2178,1836,1940,2180
527970,30336,24608,44338,44338,222,337,-7,2,17,200,231,3870,49,55,837,1855,2031,2191,2255,2178,1836,1940,2180
528971,30412,24736,44403,44403,272,86,-1,-12,22,388,339,4002,48,57,837,1855,2031,2191,2255,2178,1836,1940,2180
529972,30492,24820,44468,44468,247,360,1,1,21,166,352,4092,44,62,834,1855,2031,2191,2255,2178,1836,1940,2180
530973,30568,24932,44533,44533,271,184,-4,-8,13,200,416,3711,42,57,836,1855,2031,2191,2255,2178,1836,1940,2180
531974,30640,25040,44598,44598,296,208,-9,-7,4,353,459,3863,48,63,837,1855,2033,2194,2258,2173,1830,1937,2176
532975,30704,25140,44663,44663,346,257,-16,-15,-6,276,517,4010,50,58,837,1855,2033,2194,2258,2173,1830,1937,2176
533976,30780,25244,44728,44728,271,231,-25,-9,-23,413,491,3821,54,48,836,1855,2033,2194,2258,2173,1830,1937,2176
534977,30848,25336,44793,44793,321,306,-29,-20,-25,120,437,3795,48,60,836,1855,2033,2194,2258,2173,1830,1937,2176
535978,30932,25476,44858,44858,220,4,-24,-13,-25,72,371,4090,60,46,836,1855,2033,2194,2258,2173,1830,1937,2176
536979,31040,25588,44923,44923,69,178,-23,-12,-17,147,274,3786,56,44,838,1855,2033,2194,2258,2173,1830,1937,2176
537980,31096,25680,44988,44988,395,302,-12,-6,13,24,282,3958,43,59,839,1859,2039,2198,2260,2180,1836,1942,2184
538981,31200,25788,45053,45053,94,201,-5,-1,19,56,313,4164,58,49,837,1859,2039,2198,2260,2180,1836,1942,2184
539982,31280,25904,45118,45118,243,150,-8,-11,24,23,264,3822,43,47,836,1859,2039,2198,2260,2180,1836,1942,2184
540983,31340,26012,45183,45183,368,199,-2,-12,30,254,366,3894,42,48,838,1859,2039,2198,2260,2180,1836,1942,2184
541984,31432,26100,45248,45248,168,323,1,6,29,485,404,3998,60,45,837,1859,2039,2198,2260,2180,1836,1942,2184
542985,31524,26200,45313,45313,167,247,-12,-10,9,388,557,3905,47,44,836,1858,2040,2200,2261,2184,1838,1945,2187
543986,31612,26280,45378,45378,192,372,-19,-15,-9,113,532,3887,58,55,837,1858,2040,2200,2261,2184,1838,1945,2187
544987,31680,26388,45443,45443,317,196,-22,-8,-26,210,375,3965,52,59,837,1858,2040,2200,2261,2184,1838,1945,2187
545988,31752,26508,45508,45508,291,119,-22,-17,-20,-35,316,3988,51,57,836,1858,2040,2200,2261,2184,1838,1945,2187
546989,31844,26592,45573,45573,166,344,-8,-11,-8,16,320,3872,42,52,834,1858,2040,2200,2261,2184,1838,1945,2187
547990,31924,26704,45638,45638,240,168,0,-9,11,174,231,3994,43,59,836,1858,2040,2200,2261,2184,1838,1945,2187
548991,32016,26780,45703,45703,165,392,4,-9,20,2,310,4106,43,59,837,1856,2038,2200,2258,2187,1837,1943,2190
549992,32088,26884,45768,45768,289,217,0,-24,18,-28,375,3862,58,59,837,1856,2038,2200,2258,2187,1837,1943,2190
550993,32136,26992,45833,45833,440,190,-4,-18,16,127,448,3953,49,45,836,1856,2038,2200,2258,2187,1837,1943,2190
551994,32244,27060,45898,45898,64,440,-14,-12,7,381,461,3797,46,58,835,1856,2038,2200,2258,2187,1837,1943,2190
552995,32324,27172,45963,45963,238,164,-22,-22,2,380,453,3945,47,50,835,1856,2038,2200,2258,2187,1837,1943,2190
553996,32388,27260,46028,46028,339,314,-26,-27,-13,440,429,3897,47,59,837,1852,2038,2198,2258,2184,1835,1941,2185
554997,32492,27360,46093,46093,88,238,-26,-20,-17,278,448,3980,58,45,836,1852,2038,2198,2258,2184,1835,1941,2185
555998,32564,27448,46158,46158,287,312,-32,-34,-9,236,360,3787,54,44,837,1852,2038,2198,2258,2184,1835,1941,2185
556999,32648,27580,46223,46223,212,36,-26,-29,7,254,380,4140,41,44,837,1852,2038,2198,2258,2184,1835,1941,2185
558000,32728,27664,46288,46288,237,335,-27,-24,22,159,314,3857,58,56,837,1852,2038,2198,2258,2184,1835,1941,2185
559003,32804,27760,46353,46353,261,259,-16,-29,31,2,335,4014,40,42,839,1852,2038,2198,2258,2184,1835,1941,2185
560002,32896,27856,46418,46418,161,259,-16,-34,31,4,286,3961,58,57,836,1851,2040,2198,2255,2188,1835,1943,2190
561003,32960,27952,46483,46483,336,258,-11,-30,27,90,400,3872,49,53,837,1851,2040,2198,2255,2188,1835,1943,2190
562004,33080,28068,46548,46548,-16,132,-13,-25,10,264,384,4079,56,44,836,1851,2040,2198,2255,2188,1835,1943,2190
563005,33152,28148,46613,46613,284,356,-14,-19,-11,38,398,3774,52,53,837,1851,2040,2198,2255,2188,1835,1943,2190
564006,33240,28212,46678,46678,184,456,-16,-23,-22,159,405,4017,42,55,837,1851,2040,2198,2255,2188,1835,1943,2190
565007,33316,28308,46743,46743,258,256,-18,-24,-34,339,513,3852,42,44,834,1848,2040,2199,2253,2187,1833,1944,2188
566008,33404,28392,46808,46808,183,330,-27,-42,-24,0,362,3830,47,47,835,1848,2040,2199,2253,2187,1833,1944,2188
567009,33480,28476,46873,46873,257,330,-30,-40,-14,284,432,3911,53,41,836,1848,2040,2199,2253,2187,1833,1944,2188
568010,33556,28576,46938,46938,257,229,-30,-29,-3,356,351,3846,41,43,836,1848,2040,2199,2253,2187,1833,1944,2188
569011,33636,28664,47003,47003,232,303,-32,-33,16,375,318,3953,50,49,836,1848,2040,2199,2253,2187,1833,1944,2188
570012,33700,28748,47068,47068,332,328,-33,-37,34,470,401,3969,43,49,837,1848,2040,2199,2253,2187,1833,1944,2188
571013,33780,28844,47133,47133,232,252,-29,-36,42,311,358,3888,56,42,836,1848,2043,2199,2253,2190,1835,1942,2191
572014,33856,28924,47198,47198,256,352,-34,-46,46,297,337,3870,48,40,835,1848,2043,2199,2253,2190,1835,1942,2191
573015,33936,29028,47263,47263,231,201,-28,-31,35,-51,434,3992,41,46,837,1848,2043,2199,2253,2190,1835,1942,2191
574016,34012,29104,47328,47328,256,375,-35,-27,28,79,347,3868,42,54,835,1848,2043,2199,2253,2190,1835,1942,2191
575017,34084,29200,47393,47393,280,250,-30,-27,5,357,321,3862,41,49,837,1848,2043,2199,2253,2190,1835,1942,2191
576018,34172,29248,47458,47458,180,550,-17,-11,-7,175,273,4107,41,42,835,1843,2040,2199,2250,2195,1835,1941,2193
577019,34240,29352,47523,47523,305,199,-7,-21,-23,253,350,3961,46,44,836,1843,2040,2199,2250,2195,1835,1941,2193
578020,34320,29432,47588,47588,229,349,-3,-23,-24,180,370,3852,52,52,833,1843,2040,2199,2250,2195,1835,1941,2193
579021,34416,29544,47653,47653,129,148,-3,-28,-19,275,405,4004,42,51,836,1843,2040,2199,2250,2195,1835,1941,2193
580022,34472,29608,47718,47718,379,448,-7,-11,-13,160,420,3888,58,45,835,1843,2040,2199,2250,2195,1835,1941,2193
581023,34552,29680,47783,47783,229,397,-20,-28,5,205,424,3856,57,50,835,1843,2040,2199,2250,2195,1835,1941,2193
582024,34624,29776,47848,47848,278,247,-24,-28,17,258,406,3984,40,41,832,1844,2044,2200,2256,2192,1832,1941,2186
583025,34712,29860,47913,47913,178,321,-25,-40,30,230,443,3926,43,41,835,1844,2044,2200,2256,2192,1832,1941,2186
584026,34796,29948,47978,47978,202,296,-32,-40,31,92,427,3930,56,45,836,1844,2044,2200,2256,2192,1832,1941,2186
585027,34880,30028,48043,48043,202,345,-31,-31,25,203,312,3798,38,38,836,1844,2044,2200,2256,2192,1832,1941,2186
586028,34948,30136,48108,48108,302,169,-26,-27,11,212,336,4097,42,48,837,1844,2044,2200,2256,2192,1832,1941,2186
587029,35028,30216,48173,48173,226,344,-15,-16,0,151,380,3902,50,51,836,1845,2048,2205,2259,2196,1836,1943,2191
588030,35120,30280,48238,48238,151,444,-18,-30,-11,273,396,4014,48,53,837,1845,2048,2205,2259,2196,1836,1943,2191
589031,35200,30368,48303,48303,225,293,-11,-25,-22,256,372,3891,56,36,836,1845,2048,2205,2259,2196,1836,1943,2191
590032,35268,30472,48368,48368,300,192,-13,-25,-23,363,386,3936,38,39,835,1845,2048,2205,2259,2196,1836,1943,2191
591033,35340,30544,48433,48433,275,392,-12,-21,-15,222,412,3877,53,42,836,1845,2048,2205,2259,2196,1836,1943,2191
592034,35432,30620,48498,48498,149,367,-17,-19,-4,204,358,3981,52,44,837,1845,2048,2205,2259,2196,1836,1943,2191
593035,35512,30684,48563,48563,224,442,-18,-21,9,368,308,3902,42,41,835,1841,2048,2201,2253,2196,1833,1942,2194
594036,35600,30760,48628,48628,174,367,-5,-7,25,382,344,4079,43,44,836,1841,2048,2201,2253,2196,1833,1942,2194
595037,35672,30828,48693,48693,273,417,-16,-21,36,158,361,3797,39,48,835,1841,2048,2201,2253,2196,1833,1942,2194
596038,35760,30912,48758,48758,173,316,-8,-6,33,389,346,3969,47,49,836,1841,2048,2201,2253,2196,1833,1942,2194
597039,35840,30988,48823,48823,222,366,-3,14,20,302,407,3950,53,41,834,1841,2048,2201,2253,2196,1833,1942,2194
598040,35916,31064,48888,48888,247,366,-7,0,8,123,364,3876,38,42,833,1844,2052,2208,2252,2201,1833,1943,2197
599041,35988,31136,48953,48953,272,390,3,-2,-8,84,386,4123,43,36,834,1844,2052,2208,2252,2201,1833,1943,2197
600042,36068,31192,49152,49152,225,494,1,13,-21,114,385,3890,44,48,835,1844,2052,2208,2252,2201,1833,1943,2197
601043,36144,31272,49217,49217,250,344,-1,-12,-22,62,372,3832,41,38,835,1844,2052,2208,2252,2201,1833,1943,2197
602044,36240,31356,49282,49282,124,318,2,-2,-21,253,390,4085,39,47,834,1844,2052,2208,2252,2201,1833,1943,2197
603045,36324,31424,49347,49347,198,418,-11,-18,-10,194,378,3794,48,36,835,1844,2052,2208,2252,2201,1833,1943,2197
604046,36408,31488,49412,49412,198,443,-9,-9,-3,142,412,3972,39,46,837,1839,2050,2204,2250,2200,1833,1943,2195
605047,36488,31564,49477,49477,223,368,-24,-11,14,234,385,3842,38,41,835,1839,2050,2204,2250,2200,1833,1943,2195
606048,36568,31648,49542,49542,222,317,-21,-25,26,435,420,3892,46,46,834,1839,2050,2204,2250,2200,1833,1943,2195
607051,36648,31716,49607,49607,222,417,-25,-24,28,234,430,3967,45,35,835,1839,2050,2204,2250,2200,1833,1943,2195
608050,36724,31800,49672,49672,247,317,-22,-20,32,154,309,3903,42,45,836,1839,2050,2204,2250,2200,1833,1943,2195
609051,36808,31880,49737,49737,196,341,-13,-20,25,195,374,3890,39,47,835,1837,2051,2204,2248,2205,1834,1944,2204
610052,36888,31956,49802,49802,221,366,-16,-11,16,101,355,3909,37,47,835,1837,2051,2204,2248,2205,1834,1944,2204
611053,36964,32024,49867,49867,246,416,-12,-7,9,171,306,3938,36,41,836,1837,2051,2204,2248,2205,1834,1944,2204
612054,37044,32112,49932,49932,220,291,-6,-3,-2,108,377,3940,49,47,836,1837,2051,2204,2248,2205,1834,1944,2204
613055,37116,32172,49997,49997,270,466,-7,0,-13,124,461,3974,40,38,835,1837,2051,2204,2248,2205,1834,1944,2204
614056,37196,32268,50062,50062,220,240,-13,-15,-21,38,415,3919,38,50,837,1837,2051,2204,2248,2205,1834,1944,2204
615057,37280,32332,50127,50127,194,440,-12,-9,-19,326,376,3993,45,40,831,1839,2056,2212,2256,2210,1837,1948,2205
616058,37340,32420,50192,50192,344,289,-13,-15,-8,327,415,3946,34,47,835,1839,2056,2212,2256,2210,1837,1948,2205
617059,37428,32472,50257,50257,169,515,-19,-19,-4,284,459,3846,47,40,835,1839,2056,2212,2256,2210,1837,1948,2205
618060,37500,32556,50322,50322,269,314,-22,-13,19,241,323,3921,53,45,835,1839,2056,2212,2256,2210,1837,1948,2205
619061,37576,32616,50387,50387,243,464,-25,-19,24,350,384,3938,37,37,834,1839,2056,2212,2256,2210,1837,1948,2205
620062,37660,32696,50452,50452,193,339,-24,-21,25,78,351,3911,39,39,836,1845,2061,2217,2262,2210,1839,1949,2207
621063,37744,32756,50517,50517,192,464,-22,-23,15,214,388,3980,43,49,834,1845,2061,2217,2262,2210,1839,1949,2207
622064,37824,32844,50582,50582,217,289,-19,-12,13,171,282,3960,39,34,836,1845,2061,2217,2262,2210,1839,1949,2207
623065,37908,32932,50647,50647,192,288,-9,-14,8,108,333,3998,52,39,835,1845,2061,2217,2262,2210,1839,1949,2207
624066,37964,33012,50712,50712,367,338,-13,-10,5,100,348,3896,45,39,837,1845,2061,2217,2262,2210,1839,1949,2207
625067,38052,33084,50777,50777,166,387,-13,-9,-3,86,342,3981,37,45,837,1845,2061,2217,2262,2210,1839,1949,2207
626068,38136,33160,50842,50842,191,362,-10,-9,-5,40,233,4071,54,52,834,1844,2062,2217,2260,2208,1834,1945,2202
627069,38212,33240,50907,50907,240,337,-2,-19,-5,161,383,3930,37,48,835,1844,2062,2217,2260,2208,1834,1945,2202
628070,38296,33304,50972,50972,190,437,-7,-9,-1,268,490,3821,38,45,835,1844,2062,2217,2260,2208,1834,1945,2202
629071,38388,33392,51037,51037,139,286,-13,-25,0,116,437,3945,39,36,835,1844,2062,2217,2260,2208,1834,1945,2202
630072,38452,33464,51102,51102,314,386,-25,-34,-1,316,455,3943,35,37,835,1844,2062,2217,2260,2208,1834,1945,2202
631073,38524,33536,51167,51167,264,386,-25,-34,0,341,409,3824,51,49,837,1844,2064,2216,2258,2204,1830,1943,2201
632074,38604,33608,51232,51232,214,386,-29,-30,5,348,344,3963,53,52,831,1844,2064,2216,2258,2204,1830,1943,2201
633075,38672,33684,51297,51297,289,361,-18,-17,4,363,286,3938,51,48,832,1844,2064,2216,2258,2204,1830,1943,2201
634076,38756,33788,51362,51362,188,185,-17,-14,5,320,336,3992,55,44,835,1844,2064,2216,2258,2204,1830,1943,2201
635077,38836,33852,51427,51427,213,435,-17,-7,10,258,345,3946,42,37,835,1844,2064,2216,2258,2204,1830,1943,2201
636078,38912,33920,51492,51492,238,410,-14,-8,15,197,268,3931,44,36,838,1844,2064,2216,2258,2204,1830,1943,2201
637079,38992,34020,51557,51557,212,209,-4,-6,21,251,304,4056,39,42,835,1839,2059,2211,2253,2210,1831,1943,2204
638080,39068,34104,51622,51622,237,308,-6,-15,15,58,416,3865,35,38,835,1839,2059,2211,2253,2210,1831,1943,2204
639081,39156,34168,51687,51687,161,433,-3,-13,7,-28,391,3981,50,44,837,1839,2059,2211,2253,2210,1831,1943,2204
640082,39204,34256,51752,51752,412,283,-10,-14,2,82,431,3879,54,45,836,1839,2059,2211,2253,2210,1831,1943,2204
641083,39296,34324,51817,51817,136,408,-6,-7,0,305,374,3909,42,47,835,1839,2059,2211,2253,2210,1831,1943,2204
642084,39380,34388,51882,51882,186,433,-15,-11,-7,225,365,3981,51,42,834,1836,2059,2212,2254,2214,1836,1947,2208
643085,39456,34448,51947,51947,235,458,-6,-16,-2,172,306,3907,37,51,836,1836,2059,2212,2254,2214,1836,1947,2208
644086,39524,34532,52012,52012,285,307,-4,-7,-1,305,441,3982,37,40,835,1836,2059,2212,2254,2214,1836,1947,2208
645087,39628,34612,52077,52077,59,332,-12,-14,-2,109,357,3800,54,40,834,1836,2059,2212,2254,2214,1836,1947,2208
646088,39700,34704,52142,52142,259,256,-13,-11,4,131,359,4060,53,46,835,1836,2059,2212,2254,2214,1836,1947,2208
647089,39772,34760,52207,52207,259,481,-17,-15,10,405,413,3801,56,49,837,1836,2059,2212,2254,2214,1836,1947,2208
648090,39848,34848,52272,52272,234,281,-18,-24,11,172,448,3876,56,36,836,1840,2064,2218,2258,2217,1839,1949,2211
649091,39940,34916,52337,52337,133,406,-20,-32,9,78,368,4108,38,50,830,1840,2064,2218,2258,2217,1839,1949,2211
650092,40008,34992,52402,52402,283,356,-11,-22,1,191,347,3806,54,42,833,1840,2064,2218,2258,2217,1839,1949,2211
651093,40076,35084,52467,52467,283,255,-15,-19,0,199,401,3969,38,49,836,1840,2064,2218,2258,2217,1839,1949,2211
652094,40180,35160,52532,52532,57,355,-14,-8,-7,70,432,3924,45,48,835,1840,2064,2218,2258,2217,1839,1949,2211
653095,40252,35228,52597,52597,257,405,-15,-16,-10,205,399,3994,45,40,836,1840,2068,2222,2263,2221,1839,1951,2215
654096,40328,35308,52662,52662,232,329,-15,-23,-3,443,336,3787,41,36,837,1840,2068,2222,2263,2221,1839,1951,2215
655097,40412,35364,52727,52727,181,479,-14,-29,8,232,380,4007,41,42,835,1840,2068,2222,2263,2221,1839,1951,2215
656098,40508,35464,52792,52792,105,204,-16,-27,16,71,391,3925,55,45,836,1840,2068,2222,2263,2221,1839,1951,2215
657099,40576,35528,52857,52857,280,429,-21,-21,19,343,395,3940,47,50,835,1840,2068,2222,2263,2221,1839,1951,2215
658100,40664,35596,52922,52922,155,403,-26,-14,17,465,426,3951,38,51,838,1842,2072,2224,2260,2219,1836,1947,2215
659101,40756,35668,52987,52987,129,378,-26,-25,12,216,297,3850,53,46,834,1842,2072,2224,2260,2219,1836,1947,2215
660102,40836,35752,53052,53052,204,303,-7,-6,-3,256,357,4049,56,52,836,1842,2072,2224,2260,2219,1836,1947,2215
661103,40912,35832,53117,53117,228,327,-14,-7,-16,452,479,3901,46,50,837,1842,2072,2224,2260,2219,1836,1947,2215
662104,40996,35888,53182,53182,178,478,-11,-11,-15,131,364,3959,39,39,836,1842,2072,2224,2260,2219,1836,1947,2215
663105,41084,35976,53247,53247,152,277,-12,-14,-9,120,368,3982,44,51,836,1842,2072,2224,2260,2219,1836,1947,2215
664106,41168,36060,53312,53312,177,302,-9,-14,4,172,365,3913,45,38,835,1846,2076,2226,2261,2220,1835,1948,2215
665107,41240,36132,53377,53377,252,377,-19,-21,15,46,431,3862,54,41,837,1846,2076,2226,2261,2220,1835,1948,2215
666108,41320,36204,53442,53442,201,376,-19,-18,20,-39,385,3967,46,46,834,1846,2076,2226,2261,2220,1835,1948,2215
667109,41396,36292,53507,53507,226,276,-25,-20,11,100,467,3842,47,55,832,1846,2076,2226,2261,2220,1835,1948,2215
668110,41484,36364,53572,53572,151,376,-29,-25,6,186,368,3898,42,40,836,1846,2076,2226,2261,2220,1835,1948,2215
669111,41576,36428,53637,53637,125,426,-22,-21,2,349,321,4103,55,49,837,1846,2082,2233,2268,2226,1839,1951,2223
670112,41652,36500,53702,53702,225,375,-19,-32,-4,337,328,3784,55,53,836,1846,2082,2233,2268,2226,1839,1951,2223
671113,41736,36588,53767,53767,174,275,-16,-18,-10,164,370,4074,51,55,835,1846,2082,2233,2268,2226,1839,1951,2223
672114,41824,36652,53832,53832,149,425,-13,-19,-10,235,323,3954,56,45,835,1846,2082,2233,2268,2226,1839,1951,2223
673115,41920,36740,53897,53897,98,274,-16,-19,-2,280,334,3718,58,57,837,1846,2082,2233,2268,2226,1839,1951,2223
674116,42020,36824,53962,53962,72,299,-11,-3,7,467,308,4161,43,49,835,1846,2082,2233,2268,2226,1839,1951,2223
675117,42108,36904,54027,54027,146,324,-8,-12,6,314,335,3787,41,42,838,1848,2082,2232,2268,2226,1837,1952,2223
676118,42216,36992,54092,54092,20,273,-11,-21,11,72,458,3954,56,50,837,1848,2082,2232,2268,2226,1837,1952,2223
677119,42316,37072,54157,54157,70,323,-15,-13,11,295,415,3917,42,44,836,1848,2082,2232,2268,2226,1837,1952,2223
678120,42404,37172,54222,54222,144,197,-15,-13,9,234,395,3909,46,46,838,1848,2082,2232,2268,2226,1837,1952,2223
679121,42528,37252,54287,54287,-82,321,-20,-13,3,103,427,3873,59,54,837,1848,2082,2232,2268,2226,1837,1952,2223
680122,42636,37336,54352,54352,17,296,-15,-17,0,110,310,3990,44,43,838,1852,2090,2240,2273,2231,1839,1954,2225
681123,42716,37444,54417,54417,191,145,-11,-20,-8,203,408,3978,42,53,834,1852,2090,2240,2273,2231,1839,1954,2225
682124,42792,37504,54482,54482,216,445,-15,-19,-10,-116,462,3755,38,45,838,1852,2090,2240,2273,2231,1839,1954,2225
683125,42884,37596,54547,54547,115,244,-13,-12,-6,118,346,4052,39,44,835,1852,2090,2240,2273,2231,1839,1954,2225
684126,42968,37680,54612,54612,165,294,-10,-17,-2,309,321,4001,40,47,832,1852,2090,2240,2273,2231,1839,1954,2225
685127,43040,37760,54677,54677,240,319,-10,-24,4,296,406,3826,44,55,838,1852,2090,2240,2273,2231,1839,1954,2225
686128,43128,37844,54742,54742,139,293,-20,-30,6,62,452,3930,47,55,837,1849,2090,2240,2271,2230,1839,1956,2228
687129,43200,37936,54807,54807,239,242,-27,-28,7,189,423,3953,54,57,836,1849,2090,2240,2271,2230,1839,1956,2228
688130,43288,38008,54872,54872,138,367,-35,-36,6,395,471,3856,41,46,837,1849,2090,2240,2271,2230,1839,1956,2228
689131,43376,38104,54937,54937,138,216,-33,-38,13,195,387,3851,42,56,837,1849,2090,2240,2271,2230,1839,1956,2228
690132,43468,38188,55002,55002,112,291,-32,-29,8,210,364,3995,44,59,836,1849,2090,2240,2271,2230,1839,1956,2228
691133,43548,38284,55067,55067,187,215,-28,-30,8,503,293,3912,45,53,838,1848,2089,2241,2269,2235,1841,1954,2232
692134,43660,38372,55132,55132,-14,265,-16,-13,5,444,313,3970,54,56,837,1848,2089,2241,2269,2235,1841,1954,2232
693135,43732,38468,55197,55197,235,214,-14,-12,-2,195,304,3966,46,53,838,1848,2089,2241,2269,2235,1841,1954,2232
694136,43820,38548,55262,55262,135,314,-5,-10,-9,360,320,3937,42,50,838,1848,2089,2241,2269,2235,1841,1954,2232
695137,43896,38644,55327,55327,210,213,-3,-7,-10,233,368,3991,45,54,837,1848,2089,2241,2269,2235,1841,1954,2232
696138,43984,38752,55392,55392,134,137,-7,-16,-9,108,404,3951,49,62,837,1848,2089,2241,2269,2235,1841,1954,2232
697139,44084,38844,55457,55457,58,236,-14,-21,-3,206,372,3962,52,58,837,1848,2093,2244,2272,2240,1843,1958,2234
698140,44172,38928,55522,55522,133,286,-21,-27,2,105,425,3729,59,49,839,1848,2093,2244,2272,2240,1843,1958,2234
699141,44260,39016,55587,55587,132,260,-27,-16,16,162,478,3976,43,50,838,1848,2093,2244,2272,2240,1843,1958,2234
700142,44360,39112,55652,55652,56,209,-35,-30,18,231,484,3809,44,64,834,1848,2093,2244,2272,2240,1843,1958,2234
701143,44420,39180,55717,55717,306,384,-37,-36,13,-11,459,3919,50,60,834,1848,2093,2244,2272,2240,1843,1958,2234
702144,44508,39284,55782,55782,131,158,-33,-28,8,18,360,3907,58,57,839,1853,2099,2247,2282,2244,1845,1961,2237
703145,44616,39372,55847,55847,5,258,-23,-27,-1,308,294,3964,49,50,834,1853,2099,2247,2282,2244,1845,1961,2237
704146,44680,39460,55912,55912,280,257,-17,-19,-13,501,367,4028,58,59,838,1853,2099,2247,2282,2244,1845,1961,2237
705147,44776,39540,55977,55977,79,307,-11,-11,-19,333,245,3857,44,65,838,1853,2099,2247,2282,2244,1845,1961,2237
706148,44860,39632,56042,56042,153,231,-13,-23,-12,212,343,4040,44,61,836,1853,2099,2247,2282,2244,1845,1961,2237
707149,44956,39716,56107,56107,78,281,-8,-14,-9,298,354,3870,45,64,838,1853,2099,2247,2282,2244,1845,1961,2237
708150,45048,39820,56172,56172,102,155,-14,-12,6,462,306,3977,51,52,838,1856,2102,2253,2279,2239,1841,1956,2232
709151,45112,39912,56237,56237,277,229,-20,-20,16,375,425,3871,49,63,838,1856,2102,2253,2279,2239,1841,1956,2232
710152,45212,39988,56302,56302,51,329,-26,-25,25,6,448,3864,61,48,839,1856,2102,2253,2279,2239,1841,1956,2232
711153,45308,40104,56367,56367,75,78,-34,-27,22,129,475,3853,51,59,837,1856,2102,2253,2279,2239,1841,1956,2232
712154,45392,40188,56432,56432,150,277,-40,-23,16,334,398,3922,50,62,838,1856,2102,2253,2279,2239,1841,1956,2232
713155,45496,40280,56497,56497,24,226,-34,-20,13,187,339,3874,49,49,839,1859,2106,2254,2281,2238,1839,1955,2233
714156,45572,40364,56562,56562,199,276,-26,-21,1,248,341,4016,56,62,837,1859,2106,2254,2281,2238,1839,1955,2233
715157,45664,40452,56627,56627,98,250,-16,-17,-9,245,303,3981,64,51,838,1859,2106,2254,2281,2238,1839,1955,2233
716158,45760,40548,56692,56692,72,200,-10,-8,-15,356,264,4001,57,54,837,1859,2106,2254,2281,2238,1839,1955,2233
717159,45860,40632,56757,56757,47,274,-5,-5,-21,92,313,3900,58,56,835,1859,2106,2254,2281,2238,1839,1955,2233
718160,45940,40732,56822,56822,171,173,-4,-9,-14,181,329,4003,47,49,835,1859,2106,2254,2281,2238,1839,1955,2233
719161,46040,40820,56887,56887,45,248,-7,-13,-7,255,360,3865,51,61,838,1858,2104,2256,2280,2240,1842,1957,2236
720162,46144,40928,56952,56952,19,122,-12,-20,-1,84,412,3928,54,50,838,1858,2104,2256,2280,2240,1842,1957,2236
721163,46232,41012,57017,57017,119,271,-22,-30,12,43,505,3859,62,64,839,1858,2104,2256,2280,2240,1842,1957,2236
722164,46316,41100,57082,57082,143,246,-32,-40,22,191,411,3879,62,55,840,1858,2104,2256,2280,2240,1842,1957,2236
723165,46408,41212,57147,57147,93,95,-34,-41,17,55,439,3941,53,51,838,1858,2104,2256,2280,2240,1842,1957,2236
724166,46484,41308,57212,57212,192,194,-37,-23,14,106,446,3848,47,59,838,1858,2107,2257,2283,2243,1841,1959,2242
725167,46580,41384,57277,57277,67,319,-33,-27,7,306,385,3984,56,66,839,1858,2107,2257,2283,2243,1841,1959,2242
726168,46664,41452,57342,57342,141,368,-25,-29,1,435,370,3949,63,64,838,1858,2107,2257,2283,2243,1841,1959,2242
727169,46756,41548,57407,57407,91,193,-17,-12,0,522,343,3984,58,67,837,1858,2107,2257,2283,2243,1841,1959,2242
728170,46852,41664,57472,57472,65,66,-8,-19,-8,261,284,4018,58,54,836,1858,2107,2257,2283,2243,1841,1959,2242
729171,46936,41768,57537,57537,139,140,-5,-6,-18,90,318,4030,56,52,838,1858,2107,2257,2283,2243,1841,1959,2242
730172,47012,41852,57602,57602,189,265,-3,1,-17,309,352,3790,61,67,839,1859,2108,2256,2280,2247,1845,1961,2244
731173,47108,41936,57667,57667,63,265,-2,5,-10,566,357,3897,50,55,839,1859,2108,2256,2280,2247,1845,1961,2244
732174,47204,42028,57732,57732,63,214,-2,17,-18,207,438,4030,60,55,837,1859,2108,2256,2280,2247,1845,1961,2244
733175,47276,42112,57797,57797,212,263,-16,-19,-11,-46,408,3847,56,52,838,1859,2108,2256,2280,2247,1845,1961,2244
734176,47384,42200,57862,57862,-14,238,-11,-23,-3,170,382,3969,60,65,835,1859,2108,2256,2280,2247,1845,1961,2244
735177,47480,42288,57927,57927,61,237,-12,-9,5,215,363,3843,47,52,834,1858,2112,2258,2282,2247,1843,1961,2243
736178,47576,42380,57992,57992,60,212,-9,-6,5,205,378,3976,50,54,839,1858,2112,2258,2282,2247,1843,1961,2243
737179,47656,42468,58057,58057,159,236,-15,-7,12,38,402,3925,45,54,838,1858,2112,2258,2282,2247,1843,1961,2243
738180,47740,42572,58122,58122,134,135,-17,-13,15,-149,379,3877,47,57,839,1858,2112,2258,2282,2247,1843,1961,2243
739181,47848,42680,58187,58187,-17,109,-20,-13,10,-8,372,3968,50,66,838,1858,2112,2258,2282,2247,1843,1961,2243
740182,47912,42764,58252,58252,258,259,-19,-15,8,301,351,3935,60,63,839,1858,2112,2258,2282,2247,1843,1961,2243
741183,47996,42888,58317,58317,132,7,-15,-32,17,199,307,3963,43,68,840,1861,2113,2259,2283,2247,1844,1960,2244
742184,48088,42976,58382,58382,82,232,-15,-37,9,200,396,4098,54,55,837,1861,2113,2259,2283,2247,1844,1960,2244
743185,48184,43060,58447,58447,56,256,-11,-33,-1,165,323,3787,44,53,840,1861,2113,2259,2283,2247,1844,1960,2244
744186,48280,43156,58512,58512,55,180,-8,-3,1,464,342,3988,60,65,838,1861,2113,2259,2283,2247,1844,1960,2244
745187,48376,43264,58577,58577,55,104,-8,-2,2,594,400,3832,49,64,838,1861,2113,2259,2283,2247,1844,1960,2244
746188,48448,43372,58642,58642,204,103,-11,-16,-6,399,469,4053,53,62,839,1863,2117,2265,2285,2247,1842,1959,2245
747189,48524,43448,58707,58707,179,303,-17,-23,3,180,384,3701,44,55,839,1863,2117,2265,2285,2247,1842,1959,2245
748190,48620,43552,58772,58772,53,127,-16,-12,4,164,470,4009,59,66,838,1863,2117,2265,2285,2247,1842,1959,2245
749191,48688,43652,58837,58837,228,151,-26,-17,-1,166,423,3892,45,68,836,1863,2117,2265,2285,2247,1842,1959,2245
750192,48788,43748,58902,58902,27,175,-25,-27,-1,128,316,3994,53,69,839,1863,2117,2265,2285,2247,1842,1959,2245
751193,48860,43848,58967,58967,202,150,-23,-22,1,286,392,3921,62,71,834,1863,2117,2265,2285,2247,1842,1959,2245
752194,48960,43968,59032,59032,26,23,-16,-23,0,-52,308,3944,50,59,836,1863,2119,2266,2285,2252,1842,1963,2251
753195,49024,44068,59097,59097,251,147,-12,-19,-5,-67,332,4035,56,54,838,1863,2119,2266,2285,2252,1842,1963,2251
754196,49088,44144,59162,59162,251,297,-9,-41,-1,243,318,3850,58,68,840,1863,2119,2266,2285,2252,1842,1963,2251
755197,49188,44248,59227,59227,26,121,-2,-17,3,-115,392,4074,50,60,837,1863,2119,2266,2285,2252,1842,1963,2251
756198,49300,44344,59292,59292,-51,170,-11,-26,1,251,414,3791,48,67,836,1863,2119,2266,2285,2252,1842,1963,2251
757199,49408,44448,59357,59357,-27,119,-16,-35,-2,362,425,3944,46,66,840,1857,2119,2267,2284,2254,1839,1960,2252
758200,49508,44536,59422,59422,23,219,-27,-52,7,342,465,3924,42,67,840,1857,2119,2267,2284,2254,1839,1960,2252
759201,49564,44624,59487,59487,298,218,-27,-31,11,206,349,3886,57,67,840,1857,2119,2267,2284,2254,1839,1960,2252
760202,49660,44704,59552,59552,47,268,-29,-31,14,333,316,3910,47,66,839,1857,2119,2267,2284,2254,1839,1960,2252
761203,49728,44820,59617,59617,222,42,-28,-27,16,375,399,3895,58,55,836,1857,2119,2267,2284,2254,1839,1960,2252
762204,49820,44904,59682,59682,71,241,-23,-26,12,143,301,4012,59,52,839,1857,2119,2267,2284,2254,1839,1960,2252
763205,49920,44976,59747,59747,20,316,-18,-35,4,328,272,3900,46,57,839,1860,2126,2270,2284,2256,1841,1961,2253
764206,50004,45084,59812,59812,120,90,-5,-17,-8,237,293,4081,42,56,838,1860,2126,2270,2284,2256,1841,1961,2253
765207,50076,45176,59877,59877,195,189,-4,-13,-4,214,321,3858,40,60,838,1860,2126,2270,2284,2256,1841,1961,2253
766208,50164,45276,59942,59942,94,139,3,-26,-10,220,399,4065,53,61,839,1860,2126,2270,2284,2256,1841,1961,2253
767209,50248,45376,60007,60007,119,138,-5,-21,0,279,463,3797,58,66,838,1860,2126,2270,2284,2256,1841,1961,2253
768210,50328,45468,60072,60072,143,187,-9,-34,9,-105,412,3886,46,65,836,1856,2124,2272,2285,2256,1841,1960,2251
769211,50428,45568,60137,60137,18,136,-17,-35,8,-15,474,3962,44,59,835,1856,2124,2272,2285,2256,1841,1960,2251
770212,50484,45668,60202,60202,293,135,-25,-44,12,42,449,3960,41,61,838,1856,2124,2272,2285,2256,1841,1960,2251
771213,50576,45764,60267,60267,67,160,-25,-46,12,237,474,3800,53,55,839,1856,2124,2272,2285,2256,1841,1960,2251
772214,50660,45856,60332,60332,117,184,-29,-44,11,310,426,3988,44,64,837,1856,2124,2272,2285,2256,1841,1960,2251
773215,50732,45944,60397,60397,191,208,-34,-38,0,241,324,3870,43,62,839,1856,2124,2272,2285,2256,1841,1960,2251
774216,50812,46024,60462,60462,141,258,-28,-43,-4,489,297,3916,44,63,838,1858,2127,2275,2288,2259,1839,1958,2254
775217,50892,46116,60527,60527,141,182,-21,-33,-4,423,327,3972,61,62,838,1858,2127,2275,2288,2259,1839,1958,2254
776218,51000,46224,60592,60592,-35,81,-9,-26,-12,308,301,3981,42,57,838,1858,2127,2275,2288,2259,1839,1958,2254
777219,51100,46316,60657,60657,14,181,-8,-23,-10,375,335,4047,58,54,838,1858,2127,2275,2288,2259,1839,1958,2254
778220,51168,46404,60722,60722,214,205,-5,-10,-7,395,343,3844,58,55,840,1858,2127,2275,2288,2259,1839,1958,2254
779221,51252,46504,60787,60787,113,129,-11,-19,4,266,373,3819,41,56,839,1854,2128,2274,2283,2262,1840,1960,2255
780222,51324,46588,60852,60852,188,229,-14,-12,3,-103,464,4080,51,65,838,1854,2128,2274,2283,2262,1840,1960,2255
781223,51420,46676,60917,60917,37,203,-21,-35,12,-70,365,3855,52,67,838,1854,2128,2274,2283,2262,1840,1960,2255
782224,51496,46780,60982,60982,162,102,-21,-33,18,186,385,3953,54,61,837,1854,2128,2274,2283,2262,1840,1960,2255
786228,51844,47184,61242,61242,60,174,-22,-26,-1,520,359,3726,42,65,836,1854,2130,2276,2284,2266,1841,1963,2260
787229,51948,47280,61307,61307,-16,148,-21,-21,-7,343,386,4102,44,63,839,1854,2130,2276,2284,2266,1841,1963,2260
788230,52012,47360,61372,61372,234,248,-18,-30,-6,309,356,3957,46,65,839,1854,2130,2276,2284,2266,1841,1963,2260
789231,52080,47444,61437,61437,209,222,-12,-20,-3,363,301,3859,40,51,839,1854,2130,2276,2284,2266,1841,1963,2260
790232,52164,47544,61502,61502,108,121,-14,-16,3,343,330,4051,45,66,837,1854,2135,2278,2286,2270,1842,1963,2263
791233,52240,47616,61567,61567,158,296,-16,-13,-1,444,406,3844,47,65,837,1854,2135,2278,2286,2270,1842,1963,2263
792234,52316,47700,61632,61632,158,221,-14,-11,2,278,432,3905,49,61,839,1854,2135,2278,2286,2270,1842,1963,2263
793235,52388,47788,61697,61697,183,195,-13,9,-1,275,310,4054,59,62,837,1854,2135,2278,2286,2270,1842,1963,2263
794236,52460,47868,61762,61762,183,245,-16,-33,0,-19,379,3817,54,52,838,1854,2135,2278,2286,2270,1842,1963,2263
795237,52540,47956,61827,61827,132,194,-12,-15,-1,164,437,4236,51,56,838,1854,2135,2278,2286,2270,1842,1963,2263
796238,52604,48060,61892,61892,232,93,-10,-19,-2,194,287,3682,48,58,838,1857,2140,2282,2290,2270,1840,1961,2261
797239,52688,48148,61957,61957,107,193,-11,-28,2,-90,402,3985,56,54,838,1857,2140,2282,2290,2270,1840,1961,2261
798240,52772,48208,62022,62022,106,368,-8,-16,-1,190,486,4144,49,59,838,1857,2140,2282,2290,2270,1840,1961,2261
799241,52856,48328,62087,62087,106,-9,-20,-34,2,361,363,3597,44,65,838,1857,2140,2282,2290,2270,1840,1961,2261
800242,52920,48424,62152,62152,231,141,-21,-28,7,245,362,4117,44,61,836,1857,2140,2282,2290,2270,1840,1961,2261
801243,53008,48536,62217,62217,80,40,-17,-20,11,162,357,4028,55,66,840,1860,2143,2288,2296,2268,1840,1962,2264
802244,53096,48656,62282,62282,80,-12,-19,-27,12,200,317,3813,40,57,835,1860,2143,2288,2296,2268,1840,1962,2264
803245,53176,48760,62347,62347,129,87,-13,-25,10,407,336,3981,48,58,837,1860,2143,2288,2296,2268,1840,1962,2264
804246,53248,48860,62412,62412,179,111,-6,-19,5,441,395,3983,51,49,840,1860,2143,2288,2296,2268,1840,1962,2264
805247,53324,48964,62477,62477,154,85,-8,-16,9,194,336,3916,45,54,839,1860,2143,2288,2296,2268,1840,1962,2264
806248,53400,49068,62542,62542,154,84,-13,-11,4,340,389,3808,61,54,838,1860,2143,2288,2296,2268,1840,1962,2264
807249,53480,49156,62607,62607,128,184,-13,-7,5,275,353,3967,54,50,839,1858,2144,2287,2291,2271,1841,1961,2261
808250,53584,49256,62672,62672,-23,108,-13,-7,-1,542,397,4001,54,57,839,1858,2144,2287,2291,2271,1841,1961,2261
809251,53656,49324,62737,62737,177,308,-15,-5,-7,606,417,3788,46,51,838,1858,2144,2287,2291,2271,1841,1961,2261
810252,53732,49416,62802,62802,152,157,-19,-13,-3,53,344,3878,55,53,840,1858,2144,2287,2291,2271,1841,1961,2261
811253,53812,49516,62867,62867,127,106,-18,-12,-1,-106,404,4126,58,62,837,1858,2144,2287,2291,2271,1841,1961,2261
812254,53896,49616,62932,62932,101,106,-14,2,4,-213,345,3768,51,54,839,1857,2143,2286,2289,2273,1840,1963,2265
813255,53968,49700,62997,62997,176,205,-20,-13,0,-70,317,4025,52,50,839,1857,2143,2286,2289,2273,1840,1963,2265
814256,54056,49808,63062,63062,75,54,-19,-47,3,226,338,3970,41,59,839,1857,2143,2286,2289,2273,1840,1963,2265
815257,54116,49904,63127,63127,250,128,-1,-38,8,-109,379,3980,49,60,838,1857,2143,2286,2289,2273,1840,1963,2265
816258,54224,50000,63192,63192,-51,128,-7,-50,4,165,456,3927,40,51,839,1857,2143,2286,2289,2273,1840,1963,2265
817259,54296,50104,63257,63257,174,77,-11,-24,3,531,429,3911,56,64,838,1857,2143,2286,2289,2273,1840,1963,2265
818260,54372,50196,63322,63322,149,151,-18,-7,7,660,424,3806,41,61,839,1853,2140,2282,2286,2273,1841,1964,2267
819261,54456,50316,63387,63387,99,-25,-20,-15,9,455,456,3916,46,58,836,1853,2140,2282,2286,2273,1841,1964,2267
820262,54532,50384,63452,63452,148,300,-20,-7,3,404,375,4036,53,61,835,1853,2140,2282,2286,2273,1841,1964,2267
821263,54612,50484,63517,63517,123,99,-24,-14,4,431,279,3870,52,61,840,1853,2140,2282,2286,2273,1841,1964,2267
822264,54680,50588,63582,63582,198,73,-17,-12,7,153,296,3917,56,56,837,1853,2140,2282,2286,2273,1841,1964,2267
823265,54752,50656,63647,63647,173,298,-9,-8,9,259,331,4020,50,49,839,1853,2137,2279,2284,2273,1841,1961,2261
824266,54832,50776,63712,63712,122,-29,-6,-8,2,3,286,3923,41,58,839,1853,2137,2279,2284,2273,1841,1961,2261
825267,54904,50868,63777,63777,172,146,-2,-19,3,-54,355,3956,55,55,837,1853,2137,2279,2284,2273,1841,1961,2261
826268,54984,50960,63842,63842,122,145,-3,-16,7,6,352,4050,56,56,839,1853,2137,2279,2284,2273,1841,1961,2261
827269,55060,51064,63907,63907,146,69,-3,-21,-3,79,473,3823,53,49,838,1853,2137,2279,2284,2273,1841,1961,2261
828270,55128,51164,63972,63972,196,93,-6,-19,4,228,418,3949,54,50,839,1853,2137,2279,2284,2273,1841,1961,2261
829271,55216,51260,64037,64037,71,117,-13,-25,2,463,503,3913,37,46,839,1849,2136,2281,2286,2269,1836,1959,2257
830272,55288,51372,64102,64102,171,16,-23,-26,-1,108,465,3980,40,55,838,1849,2136,2281,2286,2269,1836,1959,2257
831273,55368,51476,64167,64167,120,65,-30,-27,3,290,421,3844,44,47,839,1849,2136,2281,2286,2269,1836,1959,2257
832275,55436,51552,64232,64232,195,240,-38,-27,2,506,373,3946,54,49,839,1849,2136,2281,2286,2269,1836,1959,2257
833275,55520,51664,64297,64297,95,14,-22,-19,3,358,294,3922,54,49,839,1849,2136,2281,2286,2269,1836,1959,2257
834276,55600,51748,64362,64362,119,188,-18,-11,1,187,307,4150,38,58,838,1852,2138,2280,2284,2268,1837,1958,2261
835277,55668,51832,64427,64427,194,188,-9,-23,2,266,279,3810,41,57,840,1852,2138,2280,2284,2268,1837,1958,2261
836278,55728,51928,64492,64492,244,112,-5,2,3,353,308,4070,38,47,835,1852,2138,2280,2284,2268,1837,1958,2261
837279,55820,52020,64557,64557,44,137,-3,-9,5,36,330,3921,48,46,835,1852,2138,2280,2284,2268,1837,1958,2261
838280,55888,52108,64622,64622,194,161,-4,-11,8,162,391,3944,41,61,838,1852,2138,2280,2284,2268,1837,1958,2261
839281,55972,52200,64687,64687,93,135,-4,-13,9,144,420,3835,51,60,839,1852,2138,2280,2284,2268,1837,1958,2261
840282,56052,52292,64752,64752,118,135,-13,-23,5,179,500,4001,45,60,838,1843,2131,2274,2278,2267,1834,1957,2255
841283,56124,52376,64817,64817,168,184,-14,-22,7,171,424,3893,53,61,839,1843,2131,2274,2278,2267,1834,1957,2255
842284,56192,52468,64882,64882,193,134,-22,-33,6,173,437,3785,49,48,838,1843,2131,2274,2278,2267,1834,1957,2255
843285,56272,52564,64947,64947,117,108,-14,-24,4,205,400,3982,44,64,838,1843,2131,2274,2278,2267,1834,1957,2255
844286,56348,52664,65012,65012,142,82,-22,-25,2,475,389,3891,40,50,838,1843,2131,2274,2278,2267,1834,1957,2255
845287,56432,52740,65077,65077,92,232,-20,-16,4,307,295,3937,50,59,839,1845,2135,2277,2280,2273,1838,1961,2265
846288,56492,52836,65142,65142,242,106,-17,-17,0,277,334,3910,44,60,839,1845,2135,2277,2280,2273,1838,1961,2265
847289,56552,52936,65207,65207,242,80,-11,-14,-3,56,273,4030,40,48,837,1845,2135,2277,2280,2273,1838,1961,2265
848290,56632,53008,65272,65272,116,255,-8,-21,5,323,355,3930,39,57,838,1845,2135,2277,2280,2273,1838,1961,2265
849291,56724,53112,65337,65337,41,54,-4,-8,2,123,361,3981,43,46,838,1845,2135,2277,2280,2273,1838,1961,2265
850292,56792,53216,65536,65536,194,56,-5,-26,-8,267,389,3843,50,56,838,1845,2135,2277,2280,2273,1838,1961,2265
851293,56848,53304,65601,65601,269,156,-5,-28,2,343,379,4003,50,47,840,1843,2136,2278,2277,2276,1837,1962,2268
852294,56924,53396,65666,65666,144,130,-11,-21,9,233,433,3944,54,48,839,1843,2136,2278,2277,2276,1837,1962,2268
853295,56996,53468,65731,65731,169,255,-13,-15,2,96,373,3828,43,60,834,1843,2136,2278,2277,2276,1837,1962,2268
854296,57076,53572,65796,65796,118,54,-11,-16,5,153,326,4042,37,51,835,1843,2136,2278,2277,2276,1837,1962,2268
855297,57116,53672,65861,65861,369,78,-17,-23,4,451,436,3825,36,59,837,1843,2136,2278,2277,2276,1837,1962,2268
856298,57196,53740,65926,65926,119,278,-11,-17,12,142,336,3974,38,49,840,1843,2141,2281,2278,2276,1835,1961,2267
857299,57272,53832,65991,65991,143,127,-21,-11,-3,180,389,3867,45,55,837,1843,2141,2281,2278,2276,1835,1961,2267
858300,57332,53924,66056,66056,243,127,-14,-12,3,336,346,3902,43,54,837,1843,2141,2281,2278,2276,1835,1961,2267
859301,57412,53996,66121,66121,118,252,-15,-13,0,433,427,4014,37,57,838,1843,2141,2281,2278,2276,1835,1961,2267
860302,57484,54100,66186,66186,168,51,-7,-9,5,177,319,3913,44,54,838,1843,2141,2281,2278,2276,1835,1961,2267
861303,57544,54192,66251,66251,243,125,-9,-3,3,378,380,3876,51,50,837,1843,2141,2281,2278,2276,1835,1961,2267
862304,57604,54276,66316,66316,243,174,-6,-13,7,208,350,4140,36,50,839,1845,2146,2286,2283,2277,1835,1960,2267
863305,57680,54360,66381,66381,143,174,-8,-12,9,145,428,3926,40,50,838,1845,2146,2286,2283,2277,1835,1960,2267
864306,57740,54464,66446,66446,243,48,-8,-21,-2,270,393,3806,50,57,837,1845,2146,2286,2283,2277,1835,1960,2267
865307,57812,54544,66511,66511,168,198,-7,-12,10,-79,326,3993,36,46,838,1845,2146,2286,2283,2277,1835,1960,2267
866308,57888,54668,66576,66576,143,-79,-15,-21,7,322,425,3965,52,53,839,1845,2146,2286,2283,2277,1835,1960,2267
867309,57948,54744,66641,66641,243,221,-17,-24,-2,163,365,3859,39,53,838,1850,2152,2292,2288,2280,1834,1961,2272
868310,58020,54844,66706,66706,168,70,-16,-31,0,274,385,3960,33,42,839,1850,2152,2292,2288,2280,1834,1961,2272
869311,58084,54936,66771,66771,218,119,-14,-25,5,132,393,3955,49,42,836,1850,2152,2292,2288,2280,1834,1961,2272
870312,58144,55036,66836,66836,243,69,-17,-29,1,182,399,4001,35,52,835,1850,2152,2292,2288,2280,1834,1961,2272
871313,58204,55160,66901,66901,243,-83,-16,-25,-2,255,371,3817,33,54,838,1850,2152,2292,2288,2280,1834,1961,2272
872314,58264,55296,66966,66966,243,-160,-13,-21,2,259,365,4014,51,46,838,1850,2152,2292,2288,2280,1834,1961,2272
873315,58320,55408,67031,67031,268,-11,-12,-23,6,237,346,3950,45,42,837,1848,2153,2292,2286,2286,1838,1965,2278
874316,58380,55496,67096,67096,243,139,-12,-19,6,119,326,3952,49,43,838,1848,2153,2292,2286,2286,1838,1965,2278
875317,58448,55580,67161,67161,193,163,-15,-7,-4,500,327,3850,37,49,837,1848,2153,2292,2286,2286,1838,1965,2278
876318,58512,55672,67226,67226,218,113,-10,9,-4,700,321,3870,44,51,838,1848,2153,2292,2286,2286,1838,1965,2278
877319,58584,55776,67291,67291,168,37,-9,10,-4,447,380,4076,47,56,838,1848,2153,2292,2286,2286,1838,1965,2278
878320,58640,55852,67356,67356,268,211,-14,5,-5,152,397,3860,45,43,839,1845,2153,2291,2283,2291,1839,1967,2279
879321,58708,55948,67421,67421,193,86,-9,-2,-3,98,347,4032,33,48,836,1845,2153,2291,2283,2291,1839,1967,2279
880322,58776,56016,67486,67486,193,261,-3,0,-1,48,342,4087,39,55,838,1845,2153,2291,2283,2291,1839,1967,2279
881323,58832,56100,67551,67551,268,160,-3,-15,4,-165,349,3831,48,55,837,1845,2153,2291,2283,2291,1839,1967,2279
882324,58904,56172,67616,67616,168,235,5,-16,12,-114,343,4066,48,55,837,1845,2153,2291,2283,2291,1839,1967,2279
883325,58964,56212,67681,67681,243,436,2,-27,9,-68,414,3983,31,47,837,1841,2153,2291,2279,2287,1838,1966,2278
884326,59020,56288,67746,67746,269,210,-2,-34,7,256,403,3763,44,54,834,1841,2153,2291,2279,2287,1838,1966,2278
885327,59080,56368,67811,67811,244,185,-12,-35,3,466,531,4003,45,51,836,1841,2153,2291,2279,2287,1838,1966,2278
886328,59140,56460,67876,67876,244,109,-23,-50,13,64,493,4006,28,51,834,1841,2153,2291,2279,2287,1838,1966,2278
887329,59212,56572,67941,67941,169,-17,-30,-27,6,444,428,3709,38,42,835,1841,2153,2291,2279,2287,1838,1966,2278
888330,59260,56664,68006,68006,319,107,-22,-28,6,620,340,4025,46,48,839,1841,2153,2291,2279,2287,1838,1966,2278
889331,59324,56736,68071,68071,219,232,-22,-27,11,533,319,3976,28,47,837,1843,2154,2291,2281,2286,1834,1960,2278
890332,59360,56832,68136,68136,395,81,-13,-28,8,305,313,3970,33,58,837,1843,2154,2291,2281,2286,1834,1960,2278
891333,59444,56924,68201,68201,94,106,-13,-24,6,153,259,3917,26,56,835,1843,2154,2291,2281,2286,1834,1960,2278
892334,59484,57012,68266,68266,370,130,-2,-27,-1,73,308,4055,41,52,839,1843,2154,2291,2281,2286,1834,1960,2278
893335,59548,57104,68331,68331,220,105,-6,-21,3,285,357,3841,32,55,836,1843,2154,2291,2281,2286,1834,1960,2278
894336,59600,57200,68396,68396,295,79,-8,-24,-10,393,416,3884,42,42,838,1840,2153,2293,2282,2292,1838,1963,2279
895337,59648,57280,68461,68461,321,178,-5,-11,-10,-92,405,4055,32,55,837,1840,2153,2293,2282,2292,1838,1963,2279
896338,59720,57384,68526,68526,170,28,-14,-25,-5,307,441,3832,29,58,836,1840,2153,2293,2282,2292,1838,1963,2279
897339,59772,57464,68591,68591,296,177,-11,-11,-9,394,405,3893,40,43,839,1840,2153,2293,2282,2292,1838,1963,2279
898340,59824,57552,68656,68656,296,127,-16,-12,-1,124,377,3922,43,53,836,1840,2153,2293,2282,2292,1838,1963,2279
899341,59880,57636,68721,68721,271,151,-20,-4,4,520,377,3799,41,52,837,1840,2153,2293,2282,2292,1838,1963,2279
900342,59944,57736,68786,68786,221,50,-21,9,11,316,322,3923,31,47,837,1841,2157,2297,2286,2293,1838,1965,2279
901343,60004,57820,68851,68851,246,150,-14,4,11,174,312,4027,34,45,838,1841,2157,2297,2286,2293,1838,1965,2279
902344,60048,57904,68916,68916,347,149,-11,-3,15,138,298,3940,36,43,837,1841,2157,2297,2286,2293,1838,1965,2279
903345,60112,58008,68981,68981,222,23,-7,-2,18,134,321,4062,32,50,833,1841,2157,2297,2286,2293,1838,1965,2279
904346,60156,58120,69046,69046,348,-28,-3,7,13,246,318,3825,37,41,835,1841,2157,2297,2286,2293,1838,1965,2279
905347,60208,58188,69111,69111,298,247,3,0,7,269,369,4029,38,54,837,1841,2156,2297,2287,2295,1838,1964,2279
906348,60280,58276,69176,69176,173,122,0,-4,5,172,404,3943,42,42,835,1841,2156,2297,2287,2295,1838,1964,2279
907349,60320,58340,69241,69241,373,272,-3,-6,-1,126,447,3932,38,52,838,1841,2156,2297,2287,2295,1838,1964,2279
908350,60372,58420,69306,69306,299,171,-11,-14,-8,226,428,3869,29,52,835,1841,2156,2297,2287,2295,1838,1964,2279
909351,60436,58520,69371,69371,224,45,-12,-28,-12,230,426,4044,37,44,836,1841,2156,2297,2287,2295,1838,1964,2279
910352,60488,58612,69436,69436,299,95,-17,-22,-4,169,393,3882,39,49,838,1841,2156,2297,2287,2295,1838,1964,2279
911353,60528,58688,69501,69501,375,194,-19,-24,-12,369,383,3826,36,39,837,1846,2162,2301,2292,2296,1840,1968,2284
912354,60568,58756,69566,69566,375,244,-15,-10,-11,125,313,4021,39,42,835,1846,2162,2301,2292,2296,1840,1968,2284
913355,60608,58836,69631,69631,376,169,-9,-11,-3,369,281,3850,27,50,834,1846,2162,2301,2292,2296,1840,1968,2284
914356,60672,58928,69696,69696,226,93,-4,6,2,485,337,4057,40,46,835,1846,2162,2301,2292,2296,1840,1968,2284
915357,60716,59032,69761,69761,351,17,-3,12,4,215,333,3853,38,40,838,1846,2162,2301,2292,2296,1840,1968,2284
916358,60772,59116,69826,69826,277,142,-1,16,13,281,323,4009,24,49,837,1846,2166,2303,2289,2295,1837,1965,2286
917359,60816,59192,69891,69891,352,192,3,28,15,407,333,3987,34,38,836,1846,2166,2303,2289,2295,1837,1965,2286
918360,60860,59268,69956,69956,353,191,4,20,11,181,323,3944,34,49,835,1846,2166,2303,2289,2295,1837,1965,2286
919361,60912,59348,70021,70021,303,166,3,10,1,208,349,3943,37,49,835,1846,2166,2303,2289,2295,1837,1965,2286
920362,60968,59416,70086,70086,278,241,1,7,1,92,392,3969,30,47,834,1846,2166,2303,2289,2295,1837,1965,2286
921363,61016,59496,70151,70151,329,166,0,-14,0,89,390,3932,24,47,833,1846,2166,2303,2289,2295,1837,1965,2286
922364,61064,59576,70216,70216,329,165,3,3,-10,75,379,3943,27,37,835,1848,2165,2304,2291,2293,1834,1962,2284
923365,61108,59652,70281,70281,354,190,0,-4,-13,301,429,3935,32,46,836,1848,2165,2304,2291,2293,1834,1962,2284
924366,61164,59744,70346,70346,280,89,-5,-16,-7,136,439,3960,37,51,835,1848,2165,2304,2291,2293,1834,1962,2284
925367,61208,59828,70411,70411,355,139,-3,-14,-3,186,442,3817,28,38,837,1848,2165,2304,2291,2293,1834,1962,2284
926368,61256,59916,70476,70476,331,113,-7,-5,-3,278,420,3925,24,38,835,1848,2165,2304,2291,2293,1834,1962,2284
927369,61308,60004,70541,70541,306,113,-12,-7,9,287,390,3909,22,37,836,1852,2171,2310,2297,2298,1839,1968,2290
928370,61352,60084,70606,70606,356,162,-14,-9,7,256,413,3981,21,42,837,1852,2171,2310,2297,2298,1839,1968,2290
929371,61392,60144,70671,70671,382,288,-17,-13,7,186,397,3886,30,47,835,1852,2171,2310,2297,2298,1839,1968,2290
930372,61456,60224,70736,70736,232,162,-16,-9,2,372,424,3883,23,39,834,1852,2171,2310,2297,2298,1839,1968,2290
931373,61484,60292,70801,70801,458,237,-12,-5,1,198,356,4025,29,49,837,1852,2171,2310,2297,2298,1839,1968,2290
932374,61536,60364,70866,70866,308,212,-9,-3,-5,297,356,3928,32,42,833,1852,2171,2310,2297,2298,1839,1968,2290
933375,61572,60444,70931,70931,409,162,-5,1,-5,337,342,4005,22,41,835,1850,2169,2305,2291,2301,1842,1969,2292
934376,61620,60528,70996,70996,334,136,-1,-3,-6,189,292,3884,20,40,835,1850,2169,2305,2291,2301,1842,1969,2292
935377,61676,60600,71061,71061,285,211,1,-6,-3,227,357,4017,21,49,835,1850,2169,2305,2291,2301,1842,1969,2292
936378,61716,60644,71126,71126,385,386,3,-1,1,236,338,3842,30,46,835,1850,2169,2305,2291,2301,1842,1969,2292
937379,61764,60740,71191,71191,336,61,-1,5,3,189,420,3995,33,42,830,1850,2169,2305,2291,2301,1842,1969,2292
938380,61812,60804,71256,71256,336,261,-5,-5,1,78,393,3835,34,33,834,1848,2167,2305,2291,2304,1841,1968,2288
939381,61856,60872,71321,71321,362,236,-8,-11,1,187,423,3973,28,45,835,1848,2167,2305,2291,2304,1841,1968,2288
940382,61896,60940,71386,71386,387,236,-11,-12,11,154,389,3841,29,40,834,1848,2167,2305,2291,2304,1841,1968,2288
941383,61956,60992,71451,71451,262,336,-13,-15,5,116,426,3903,23,35,834,1848,2167,2305,2291,2304,1841,1968,2288
942384,61988,61056,71516,71516,438,261,-16,-19,-2,148,337,3941,23,41,834,1848,2167,2305,2291,2304,1841,1968,2288
943385,62044,61148,71581,71581,288,85,-14,-27,-3,162,406,3982,17,46,833,1848,2167,2305,2291,2304,1841,1968,2288
944386,62072,61228,71646,71646,464,160,-19,-25,1,105,337,3882,22,32,836,1847,2167,2308,2292,2302,1841,1968,2289
945387,62124,61296,71711,71711,315,235,-18,-24,5,369,347,3954,27,36,833,1847,2167,2308,2292,2302,1841,1968,2289
946388,62172,61356,71776,71776,340,285,-17,-10,-4,412,409,3958,32,44,834,1847,2167,2308,2292,2302,1841,1968,2289
947389,62212,61432,71841,71841,391,185,-13,-15,2,128,282,3824,20,31,834,1847,2167,2308,2292,2302,1841,1968,2289
948390,62268,61512,71906,71906,291,159,-5,-21,-5,365,367,3989,20,44,834,1847,2167,2308,2292,2302,1841,1968,2289
949391,62316,61568,71971,71971,341,309,-2,-13,-4,323,333,3907,27,45,836,1847,2171,2309,2291,2300,1836,1964,2291
950392,62348,61636,72036,72036,442,234,-1,-7,0,234,336,3955,31,33,834,1847,2171,2309,2291,2300,1836,1964,2291
951393,62400,61700,72101,72101,317,259,-3,-2,6,101,357,3863,26,46,833,1847,2171,2309,2291,2300,1836,1964,2291
952394,62424,61768,72166,72166,493,234,-6,-3,10,260,390,3960,35,39,834,1847,2171,2309,2291,2300,1836,1964,2291
953395,62476,61840,72231,72231,319,209,-8,-9,10,220,416,3849,34,36,832,1847,2171,2309,2291,2300,1836,1964,2291
954396,62524,61920,72296,72296,344,159,-13,-21,13,138,380,3912,19,45,833,1847,2171,2309,2291,2300,1836,1964,2291
955397,62564,61996,72361,72361,395,184,-14,-18,11,212,413,3960,28,45,832,1851,2177,2313,2297,2301,1836,1966,2291
956398,62608,62044,72426,72426,370,359,-19,-22,4,183,396,3821,26,42,834,1851,2177,2313,2297,2301,1836,1966,2291
957399,62640,62092,72491,72491,446,359,-19,-17,0,181,377,3944,18,40,833,1851,2177,2313,2297,2301,1836,1966,2291
958400,62692,62172,72556,72556,321,159,-17,-21,-4,265,412,4023,26,35,831,1851,2177,2313,2297,2301,1836,1966,2291
959401,62736,62248,72621,72621,372,184,-12,-25,-9,178,368,3954,18,35,835,1851,2177,2313,2297,2301,1836,1966,2291
960402,62764,62316,72686,72686,473,234,-13,-24,-10,287,336,3941,21,40,834,1847,2175,2311,2285,2304,1840,1968,2292
961403,62804,62380,72751,72751,398,259,-13,-20,-2,121,315,3932,17,36,832,1847,2175,2311,2285,2304,1840,1968,2292
962404,62848,62444,72816,72816,374,259,-7,-11,-5,240,365,4001,22,34,833,1847,2175,2311,2285,2304,1840,1968,2292
963405,62896,62484,72881,72881,349,409,-12,-17,-3,261,353,3894,21,45,834,1847,2175,2311,2285,2304,1840,1968,2292
964406,62960,62568,72946,72946,249,134,-7,-14,1,205,352,3963,22,30,832,1847,2175,2311,2285,2304,1840,1968,2292
965407,62992,62640,73011,73011,450,209,-7,-18,7,235,360,3906,30,33,836,1847,2175,2311,2285,2304,1840,1968,2292
966408,63032,62708,73076,73076,401,234,-4,-14,4,354,368,3937,35,33,833,1850,2178,2317,2298,2311,1843,1969,2298
967409,63092,62772,73141,73141,276,259,-5,-9,5,204,326,3906,19,39,833,1850,2178,2317,2298,2311,1843,1969,2298
968410,63120,62840,73206,73206,477,234,-7,-10,6,244,399,3933,22,36,834,1850,2178,2317,2298,2311,1843,1969,2298
969411,63168,62904,73271,73271,352,259,-11,-15,4,211,372,3923,21,37,832,1850,2178,2317,2298,2311,1843,1969,2298
970412,63220,62968,73336,73336,327,259,-12,-12,3,268,415,3853,35,33,833,1850,2178,2317,2298,2311,1843,1969,2298
971413,63248,63020,73401,73401,478,334,-14,-13,0,345,425,3869,22,29,834,1850,2179,2317,2299,2313,1842,1971,2298
972414,63316,63092,73466,73466,228,209,-13,-14,-5,225,390,3905,35,34,828,1850,2179,2317,2299,2313,1842,1971,2298
973415,63344,63152,73531,73531,479,284,-13,-15,1,137,366,3961,26,25,835,1850,2179,2317,2299,2313,1842,1971,2298
974416,63392,63212,73596,73596,355,284,-12,-15,0,256,380,3805,20,41,832,1850,2179,2317,2299,2313,1842,1971,2298
975417,63436,63260,73661,73661,380,359,-14,-8,0,262,343,4025,33,36,834,1850,2179,2317,2299,2313,1842,1971,2298
976418,63484,63340,73726,73726,356,159,-11,-17,-2,215,370,3770,21,39,833,1850,2179,2317,2299,2313,1842,1971,2298
977419,63524,63384,73791,73791,406,385,-6,-10,-2,216,407,4072,36,27,835,1851,2179,2318,2299,2316,1842,1970,2299
978420,63576,63444,73856,73856,331,285,-10,-11,5,143,356,3842,19,38,832,1851,2179,2318,2299,2316,1842,1970,2299
979421,63628,63504,73921,73921,332,285,-10,-9,-2,359,426,3901,20,33,834,1851,2179,2318,2299,2316,1842,1970,2299
980422,63668,63556,73986,73986,407,335,-12,-13,0,293,404,3987,35,28,834,1851,2179,2318,2299,2316,1842,1970,2299
981423,63716,63628,74051,74051,358,210,-15,-10,6,290,371,3935,34,29,832,1851,2179,2318,2299,2316,1842,1970,2299
982424,63760,63676,74116,74116,383,360,-12,-13,1,276,359,3851,18,28,835,1852,2185,2321,2299,2312,1839,1969,2299
983425,63804,63732,74181,74181,384,311,-11,-4,1,253,345,3997,22,33,833,1852,2185,2321,2299,2312,1839,1969,2299
984426,63844,63804,74246,74246,409,210,-11,-1,11,233,353,3912,34,28,834,1852,2185,2321,2299,2312,1839,1969,2299
985427,63904,63876,74311,74311,285,210,-8,-2,10,258,379,3889,35,28,834,1852,2185,2321,2299,2312,1839,1969,2299
986428,63932,63928,74376,74376,485,336,-11,-7,4,212,386,3963,21,38,836,1852,2185,2321,2299,2312,1839,1969,2299
987429,63992,63988,74441,74441,286,286,-14,-12,3,159,386,3957,22,34,832,1852,2185,2321,2299,2312,1839,1969,2299
988430,64040,64056,74506,74506,361,236,-12,-11,3,206,390,3845,21,29,835,1856,2191,2325,2302,2315,1841,1971,2304
989431,64080,64096,74571,74571,412,411,-11,-12,0,291,364,3952,33,39,832,1856,2191,2325,2302,2315,1841,1971,2304
990432,64132,64176,74636,74636,337,161,-11,-7,-6,208,380,3982,36,36,832,1856,2191,2325,2302,2315,1841,1971,2304
991433,64176,64232,74701,74701,387,311,-15,-14,2,160,331,3889,19,32,835,1856,2191,2325,2302,2315,1841,1971,2304
992434,64236,64296,74766,74766,288,261,-10,-6,0,262,377,3977,34,42,833,1856,2191,2325,2302,2315,1841,1971,2304
993435,64272,64352,74831,74831,438,311,-6,-11,2,206,350,3952,37,36,835,1856,2193,2329,2306,2320,1844,1976,2308
994436,64332,64428,74896,74896,288,186,-6,-9,1,227,381,3867,37,38,833,1856,2193,2329,2306,2320,1844,1976,2308
995437,64368,64500,74961,74961,439,211,-9,-15,0,280,378,3960,35,37,836,1856,2193,2329,2306,2320,1844,1976,2308
996438,64416,64552,75026,75026,365,336,-10,-8,2,251,385,3915,37,34,834,1856,2193,2329,2306,2320,1844,1976,2308
997439,64468,64612,75091,75091,340,286,-12,-7,6,145,375,3938,28,38,833,1856,2193,2329,2306,2320,1844,1976,2308
998440,64504,64692,75156,75156,441,161,-12,-15,2,193,384,3891,36,31,834,1856,2193,2329,2306,2320,1844,1976,2308
999441,64552,64748,75221,75221,366,311,-11,-23,8,350,365,4017,38,34,834,1855,2191,2330,2310,2324,1848,1978,2312
1000442,64612,64812,75286,75286,291,261,-18,-14,2,295,435,3854,26,46,834,1855,2191,2330,2310,2324,1848,1978,2312
1001443,64660,64876,75351,75351,367,261,-18,-10,-3,216,337,3889,25,38,835,1855,2191,2330,2310,2324,1848,1978,2312
1002444,64724,64932,75416,75416,267,311,-14,-12,3,337,378,3993,36,31,834,1855,2191,2330,2310,2324,1848,1978,2312
1003445,64764,64996,75481,75481,417,261,-11,-8,-3,201,383,3920,28,41,835,1855,2191,2330,2310,2324,1848,1978,2312
1004446,64796,65060,75546,75546,468,262,-10,-16,1,117,318,3896,19,30,833,1856,2193,2329,2305,2323,1845,1975,2307
1005447,64856,65128,75611,75611,293,236,-7,-13,8,343,363,3946,20,39,832,1856,2193,2329,2305,2323,1845,1975,2307
1006448,64896,65180,75676,75676,419,337,-9,-12,10,211,396,3924,39,44,833,1856,2193,2329,2305,2323,1845,1975,2307
1007449,64956,65248,75741,75741,294,237,-10,-12,7,189,392,3941,22,30,833,1856,2193,2329,2305,2323,1845,1975,2307
1008450,65004,65324,75806,75806,369,186,-13,-11,5,86,395,3930,34,32,835,1856,2193,2329,2305,2323,1845,1975,2307
1009452,65056,65392,75871,75871,345,236,-14,-14,4,224,372,3966,35,36,835,1856,2193,2329,2305,2323,1845,1975,2307
1010452,65092,65460,75936,75936,445,236,-14,-18,1,365,383,3887,28,40,835,1853,2191,2328,2303,2320,1843,1973,2307
1011453,65152,65544,76001,76001,295,136,-11,-6,3,286,393,3990,35,44,833,1853,2191,2328,2303,2320,1843,1973,2307
1012454,65188,65596,76066,76066,446,336,-12,-13,6,188,354,3893,31,38,836,1853,2191,2328,2303,2320,1843,1973,2307
1013455,65240,65660,76131,76131,346,261,-11,-12,-6,269,373,3890,38,43,832,1853,2191,2328,2303,2320,1843,1973,2307
1014456,65296,65716,76196,76196,322,311,-12,-15,-6,291,346,3912,35,32,835,1853,2191,2328,2303,2320,1843,1973,2307
1015457,65348,65788,76261,76261,347,211,-13,-18,-5,336,407,3925,38,34,835,1855,2193,2329,2304,2319,1841,1971,2305
1016458,65400,65860,76326,76326,347,211,-12,-14,-3,233,363,3897,37,33,835,1855,2193,2329,2304,2319,1841,1971,2305
1017459,65440,65932,76391,76391,423,211,-18,-10,-2,220,383,3924,36,34,835,1855,2193,2329,2304,2319,1841,1971,2305
1018460,65504,65976,76456,76456,273,386,-16,-10,3,173,334,4005,36,45,834,1855,2193,2329,2304,2319,1841,1971,2305
1019461,65560,66044,76521,76521,323,236,-13,-15,10,252,369,3899,25,47,834,1855,2193,2329,2304,2319,1841,1971,2305
1020462,65604,66108,76586,76586,399,261,-14,-12,11,71,386,3949,31,36,835,1855,2193,2329,2304,2319,1841,1971,2305
1021463,65656,66196,76651,76651,349,111,-16,-11,19,133,343,3865,27,43,834,1855,2194,2331,2303,2319,1844,1974,2308
1022464,65720,66268,76716,76716,274,211,-11,-17,17,372,410,3983,37,34,837,1855,2194,2331,2303,2319,1844,1974,2308
1023465,65768,66328,76781,76781,374,286,-10,-17,17,89,378,3882,31,40,833,1855,2194,2331,2303,2319,1844,1974,2308
1024466,65824,66412,76846,76846,325,135,-9,-11,14,203,376,3993,29,45,834,1855,2194,2331,2303,2319,1844,1974,2308
1025467,65872,66468,76911,76911,375,310,-7,-8,9,322,423,3949,37,35,836,1855,2194,2331,2303,2319,1844,1974,2308
1026468,65920,66532,76976,76976,375,260,-12,-12,3,219,346,3870,36,45,834,1853,2192,2329,2305,2323,1845,1974,2308
1027469,65972,66632,77041,77041,351,35,-17,-25,-6,392,395,3979,38,36,835,1853,2192,2329,2305,2323,1845,1974,2308
1028470,66012,66692,77106,77106,426,285,-15,-16,-3,280,338,3964,34,47,837,1853,2192,2329,2305,2323,1845,1974,2308
1029471,66080,66764,77171,77171,251,210,-16,-13,-8,393,333,3885,41,44,834,1853,2192,2329,2305,2323,1845,1974,2308
1030472,66140,66844,77236,77236,301,159,-11,-17,-17,135,322,4029,39,32,837,1853,2192,2329,2305,2323,1845,1974,2308
1031473,66192,66908,77301,77301,352,259,-7,-13,-4,128,328,4009,32,49,837,1853,2192,2329,2305,2323,1845,1974,2308
1032474,66244,66972,77366,77366,352,259,-11,-8,-4,441,410,3871,32,49,835,1854,2192,2330,2306,2325,1845,1974,2309
1033475,66292,67056,77431,77431,377,134,-12,-13,-3,-55,309,3951,41,43,835,1854,2192,2330,2306,2325,1845,1974,2309
1034476,66348,67128,77496,77496,328,209,-11,-19,3,13,358,3868,41,34,836,1854,2192,2330,2306,2325,1845,1974,2309
1035477,66408,67188,77561,77561,303,284,-8,-13,5,348,421,4036,42,49,836,1854,2192,2330,2306,2325,1845,1974,2309
1036478,66460,67276,77626,77626,353,108,-12,-12,5,150,391,3838,29,38,836,1854,2192,2330,2306,2325,1845,1974,2309
1037479,66524,67340,77691,77691,278,258,-16,-20,7,128,382,3968,43,36,837,1855,2198,2333,2309,2325,1843,1973,2312
1038480,66576,67416,77756,77756,353,183,-18,-14,11,260,405,3967,44,40,836,1855,2198,2333,2309,2325,1843,1973,2312
1039481,66632,67492,77821,77821,329,183,-15,-13,13,302,359,3875,28,35,835,1855,2198,2333,2309,2325,1843,1973,2312
1040482,66696,67564,77886,77886,279,208,-19,-9,11,432,347,3876,26,41,833,1855,2198,2333,2309,2325,1843,1973,2312
1041483,66740,67632,77951,77951,404,232,-16,-22,13,268,376,3942,37,46,837,1855,2198,2333,2309,2325,1843,1973,2312
1042484,66808,67704,78016,78016,254,207,-12,-3,13,382,387,3988,27,39,835,1855,2198,2333,2309,2325,1843,1973,2312
1043485,66860,67760,78081,78081,354,307,-10,-7,1,321,363,3857,42,37,837,1853,2194,2329,2304,2319,1839,1971,2309
1044486,66916,67832,78146,78146,330,207,-11,-6,-15,132,402,3971,27,38,835,1853,2194,2329,2304,2319,1839,1971,2309
1045487,66996,67916,78211,78211,179,132,-12,-10,-6,312,404,3897,44,40,836,1853,2194,2329,2304,2319,1839,1971,2309
1046488,67056,67976,78276,78276,304,282,-12,-3,-9,315,385,3936,31,46,838,1853,2194,2329,2304,2319,1839,1971,2309
1047489,67128,68044,78341,78341,229,232,-7,-16,-10,-75,341,3932,45,42,836,1853,2194,2329,2304,2319,1839,1971,2309
1048490,67184,68104,78406,78406,329,282,-9,-17,-7,210,386,4004,33,40,837,1856,2200,2336,2307,2323,1841,1972,2310
1049491,67232,68164,78471,78471,380,282,-7,-17,1,138,355,3906,44,41,835,1856,2200,2336,2307,2323,1841,1972,2310
1050492,67300,68232,78536,78536,255,232,-7,-14,7,148,448,3917,29,36,834,1856,2200,2336,2307,2323,1841,1972,2310
1051493,67368,68316,78601,78601,255,132,-14,-16,12,210,427,3947,29,36,837,1856,2200,2336,2307,2323,1841,1972,2310
1052494,67420,68388,78666,78666,355,206,-18,-17,13,206,370,3823,31,35,838,1856,2200,2336,2307,2323,1841,1972,2310
1053495,67504,68464,78731,78731,155,181,-18,-21,22,392,414,3987,39,49,836,1856,2200,2336,2307,2323,1841,1972,2310
1054496,67560,68540,78796,78796,330,181,-20,-22,16,220,401,3840,38,46,838,1858,2204,2339,2307,2326,1843,1975,2318
1055497,67636,68620,78861,78861,205,156,-19,-18,10,210,327,3995,38,37,836,1858,2204,2339,2307,2326,1843,1975,2318
1056498,67704,68680,78926,78926,254,281,-18,-17,11,234,335,3924,31,35,838,1858,2204,2339,2307,2326,1843,1975,2318
1057500,67760,68768,78991,78991,330,105,-17,-24,4,360,372,3940,47,49,833,1858,2204,2339,2307,2326,1843,1975,2318
1058500,67820,68832,79056,79056,305,255,-19,-18,-6,216,308,3914,47,38,837,1858,2204,2339,2307,2326,1843,1975,2318
1059501,67884,68904,79121,79121,280,205,-12,-16,-1,43,362,4022,34,37,836,1856,2202,2339,2308,2333,1846,1977,2320
1060502,67956,68976,79186,79186,230,205,-16,-18,-5,229,354,3847,32,38,837,1856,2202,2339,2308,2333,1846,1977,2320
1061503,68028,69056,79251,79251,229,154,-13,-22,-4,313,377,3998,51,50,837,1856,2202,2339,2308,2333,1846,1977,2320
1062504,68112,69132,79316,79316,154,179,-10,-21,0,124,402,3957,34,35,838,1856,2202,2339,2308,2333,1846,1977,2320
1063505,68176,69204,79381,79381,279,204,-13,-18,6,179,393,3904,39,47,838,1856,2202,2339,2308,2333,1846,1977,2320
1064506,68240,69272,79446,79446,279,229,-16,-23,2,185,371,3976,32,46,836,1856,2202,2339,2308,2333,1846,1977,2320
1065507,68300,69356,79511,79511,304,128,-17,-22,7,124,419,3975,45,38,836,1856,2204,2340,2309,2336,1844,1975,2317
1066508,68356,69432,79576,79576,329,178,-17,-25,12,327,416,3915,51,44,837,1856,2204,2340,2309,2336,1844,1975,2317
1067509,68436,69516,79641,79641,179,128,-23,-28,19,275,387,3921,38,52,837,1856,2204,2340,2309,2336,1844,1975,2317
1068510,68528,69584,79706,79706,103,228,-29,-32,15,278,450,3934,37,51,839,1856,2204,2340,2309,2336,1844,1975,2317
1069511,68576,69668,79771,79771,379,127,-29,-30,11,207,405,3959,37,49,838,1856,2204,2340,2309,2336,1844,1975,2317
1070512,68648,69740,79836,79836,229,202,-31,-31,9,161,367,3929,53,49,836,1855,2206,2343,2310,2333,1843,1974,2318
1071513,68728,69816,79901,79901,178,177,-31,-33,3,282,358,3917,36,52,837,1855,2206,2343,2310,2333,1843,1974,2318
1072514,68824,69888,79966,79966,78,202,-23,-30,-2,352,380,3987,48,50,838,1855,2206,2343,2310,2333,1843,1974,2318
1073515,68872,69956,80031,80031,378,226,-21,-30,-11,227,358,3934,36,48,838,1855,2206,2343,2310,2333,1843,1974,2318
1074516,68936,70024,80096,80096,278,226,-20,-27,-13,168,309,3955,49,46,832,1855,2206,2343,2310,2333,1843,1974,2318
1075517,69024,70096,80161,80161,127,201,-17,-24,-7,271,362,3991,41,47,836,1855,2206,2343,2310,2333,1843,1974,2318
1076518,69092,70172,80226,80226,252,176,-17,-22,-2,215,437,3865,53,47,838,1852,2204,2341,2307,2333,1844,1975,2319
1077519,69164,70224,80291,80291,227,326,-19,-22,3,225,304,3924,54,37,837,1852,2204,2341,2307,2333,1844,1975,2319
1078520,69244,70292,80356,80356,177,226,-15,-19,11,263,374,4083,38,52,835,1852,2204,2341,2307,2333,1844,1975,2319
1079521,69344,70380,80421,80421,51,101,-15,-26,20,252,383,3791,50,42,838,1852,2204,2341,2307,2333,1844,1975,2319
