%  Data file recorded 2017/4/24  11:26:37
%  Stride Frequency         = [1, 1]
%  Lead In /Lead Out        = 
%  Deltas (Fractional)      = [0.25, 0.25, 0.25],[0.25, 0.25, 0.25]
%  Phase                    = 32768
%  Experiment.py 
%  Motor Gains    = [100, 0, 100, 0, 0, 100, 0, 100, 0, 0]
% Columns: 
% time | Right Leg Pos | Left Leg Pos | Commanded Right Leg Pos | Commanded Left Leg Pos | DCR | DCL | GyroX | GyroY | GyroZ | AX | AY | AZ | RBEMF | LBEMF | VBatt | S1 | S2 | S3 | S4 | S5 | S6 | S7 | S8
154,10716,-54344,0,0,-312,1501,-9,-2,0,177,356,3906,2,-2,838,1810,1925,2085,2204,2144,1839,1929,2123
1155,10712,-54336,0,0,-237,1276,-10,-1,0,194,378,3943,-8,-2,838,1810,1925,2085,2204,2144,1839,1929,2123
2156,10724,-54320,0,0,-337,1226,-8,2,1,225,363,3941,-5,-7,838,1810,1925,2085,2204,2144,1839,1929,2123
3157,10708,-54328,0,0,-162,1376,-9,2,1,219,352,3912,5,-8,839,1810,1925,2085,2204,2144,1839,1929,2123
4158,10720,-54328,0,0,-337,1326,-9,0,4,207,358,3937,6,-8,838,1810,1925,2085,2204,2144,1839,1929,2123
5159,10708,-54332,0,0,-187,1351,-13,-1,3,206,378,3917,8,-3,838,1810,1928,2086,2203,2139,1839,1933,2126
6160,10712,-54332,0,0,-287,1326,-12,1,0,216,374,3911,-1,-1,838,1810,1928,2086,2203,2139,1839,1933,2126
7161,10708,-54328,0,0,-237,1301,-15,3,0,203,355,3911,-9,2,838,1810,1928,2086,2203,2139,1839,1933,2126
8162,10712,-54324,0,0,-287,1301,-15,4,0,223,363,3935,-9,7,838,1810,1928,2086,2203,2139,1839,1933,2126
9163,10720,-54324,0,0,-312,1326,-14,2,0,254,354,3918,5,7,838,1810,1928,2086,2203,2139,1839,1933,2126
10164,10716,-54328,0,0,-237,1351,-11,2,2,233,364,3921,9,7,838,1812,1929,2088,2207,2143,1841,1932,2126
11165,10716,-54328,0,0,-262,1326,-9,7,3,235,373,3946,-7,7,838,1812,1929,2088,2207,2143,1841,1932,2126
12166,10712,-54324,0,0,-237,1301,-12,7,2,222,375,3960,-8,6,838,1812,1929,2088,2207,2143,1841,1932,2126
13167,10708,-54316,0,0,-237,1276,-14,8,1,218,350,3934,-6,5,838,1812,1929,2088,2207,2143,1841,1932,2126
14168,10708,-54336,0,0,-262,1451,-14,7,2,223,366,3947,2,7,838,1812,1929,2088,2207,2143,1841,1932,2126
15169,10708,-54328,0,0,-262,1276,-13,7,2,194,382,3954,9,5,838,1812,1929,2088,2207,2143,1841,1932,2126
16170,10708,-54332,0,0,-262,1351,-13,6,1,191,362,3932,6,5,838,1813,1931,2089,2208,2141,1839,1931,2125
17171,10712,-54328,0,0,-287,1301,-12,7,2,205,371,3937,-8,7,838,1813,1931,2089,2208,2141,1839,1931,2125
18172,10708,-54332,0,0,-237,1351,-14,9,2,203,353,3915,-7,7,838,1813,1931,2089,2208,2141,1839,1931,2125
19173,10716,-54324,0,0,-312,1276,-14,9,2,188,330,3935,-9,5,835,1813,1931,2089,2208,2141,1839,1931,2125
20176,10708,-54324,0,0,-212,1326,-15,7,1,197,353,3943,4,1,838,1813,1931,2089,2208,2141,1839,1931,2125
21175,10712,-54328,0,0,-287,1351,-14,7,2,210,361,3968,-5,-3,838,1815,1932,2089,2209,2139,1839,1934,2126
22176,10704,-54324,0,0,-212,1301,-15,8,4,221,366,3938,-4,-5,838,1815,1932,2089,2209,2139,1839,1934,2126
23177,10708,-54336,0,0,-287,1401,-14,8,4,237,344,3936,6,0,838,1815,1932,2089,2209,2139,1839,1934,2126
24178,10708,-54324,0,0,-262,1251,-15,6,3,231,324,3938,8,-1,838,1815,1932,2089,2209,2139,1839,1934,2126
25179,10712,-54312,0,0,-287,1250,-17,7,3,193,352,3940,7,-4,838,1815,1932,2089,2209,2139,1839,1934,2126
26180,10712,-54336,0,0,-262,1476,-15,8,2,189,372,3932,-3,-1,838,1815,1932,2089,2209,2139,1839,1934,2126
27181,10712,-54332,0,0,-262,1301,-13,9,2,176,361,3954,-9,-5,838,1813,1929,2088,2208,2142,1840,1933,2127
28182,10716,-54324,0,0,-287,1276,-13,8,3,188,357,3936,-8,-7,838,1813,1929,2088,2208,2142,1840,1933,2127
29183,10712,-54320,0,0,-237,1301,-13,7,5,208,355,3943,2,-7,838,1813,1929,2088,2208,2142,1840,1933,2127
30184,10704,-54328,0,0,-212,1376,-13,5,2,200,353,3935,7,-8,838,1813,1929,2088,2208,2142,1840,1933,2127
31185,10720,-54328,0,0,-362,1326,-14,6,1,184,341,3949,9,-8,838,1813,1929,2088,2208,2142,1840,1933,2127
32186,10712,-54328,0,0,-212,1326,-14,6,-1,155,323,3891,1,-8,838,1813,1931,2089,2209,2142,1842,1934,2126
33187,10724,-54336,0,0,-337,1376,-15,3,1,166,325,3917,-10,-5,838,1813,1931,2089,2209,2142,1842,1934,2126
34188,10708,-54328,0,0,-162,1276,-14,1,0,176,320,3939,-7,2,838,1813,1931,2089,2209,2142,1842,1934,2126
35189,10704,-54340,0,0,-237,1401,-14,1,0,167,312,3942,7,3,838,1813,1931,2089,2209,2142,1842,1934,2126
36190,10712,-54336,0,0,-312,1301,-14,-2,1,181,317,3963,2,6,835,1813,1931,2089,2209,2142,1842,1934,2126
37191,10724,-54328,0,0,-337,1276,-13,-1,-2,181,327,3935,-9,-5,838,1813,1931,2089,2209,2142,1842,1934,2126
38192,10716,-54336,0,0,-212,1376,-13,-1,-2,196,326,3922,-10,-5,838,1814,1933,2092,2212,2144,1842,1933,2125
39193,10720,-54328,0,0,-287,1276,-12,-2,0,153,316,3972,-4,-8,838,1814,1933,2092,2212,2144,1842,1933,2125
40194,10708,-54320,0,0,-187,1276,-13,-3,0,165,291,3976,2,-7,838,1814,1933,2092,2212,2144,1842,1933,2125
41195,10708,-54332,0,0,-262,1401,-15,-3,0,175,294,3928,8,-8,838,1814,1933,2092,2212,2144,1842,1933,2125
42196,10704,-54316,0,0,-237,1226,-14,-6,-2,148,305,3921,0,-6,838,1814,1933,2092,2212,2144,1842,1933,2125
43197,10716,-54328,0,0,-337,1401,-13,-8,-1,166,304,3923,-6,-5,838,1812,1928,2087,2207,2140,1840,1931,2122
44198,10712,-54324,0,0,-237,1301,-11,-9,1,167,312,3924,-10,-7,838,1812,1928,2087,2207,2140,1840,1931,2122
45199,10712,-54328,0,0,-262,1351,-10,-10,0,169,344,3932,-6,-5,838,1812,1928,2087,2207,2140,1840,1931,2122
46200,10720,-54328,0,0,-312,1326,-12,-9,-1,173,299,3927,-6,-2,838,1812,1928,2087,2207,2140,1840,1931,2122
47201,10720,-54324,0,0,-262,1301,-11,-9,0,156,295,3918,4,-6,838,1812,1928,2087,2207,2140,1840,1931,2122
48202,10712,-54324,0,0,-212,1326,-8,-11,-1,146,324,3935,6,-4,838,1812,1928,2087,2207,2140,1840,1931,2122
49203,10712,-54332,0,0,-262,1376,-6,-11,-1,171,289,3926,-3,0,838,1811,1927,2086,2206,2137,1838,1928,2119
50204,10716,-54332,0,0,-287,1326,-8,-12,0,164,312,3925,-9,-4,838,1811,1927,2086,2206,2137,1838,1928,2119
51205,10716,-54336,0,0,-262,1351,-10,-11,-1,171,342,3929,0,-2,838,1811,1927,2086,2206,2137,1838,1928,2119
52206,10712,-54336,0,0,-237,1326,-9,-12,-1,185,355,3905,3,2,838,1811,1927,2086,2206,2137,1838,1928,2119
53207,10716,-54336,0,0,-287,1326,-7,-13,-2,188,365,3936,8,2,835,1811,1927,2086,2206,2137,1838,1928,2119
54208,10712,-54324,0,0,-237,1251,-5,-13,-3,195,321,3957,-6,4,838,1812,1928,2088,2209,2137,1838,1928,2117
55209,10720,-54328,0,0,-312,1351,-5,-14,1,198,310,3916,1,-4,838,1812,1928,2088,2209,2137,1838,1928,2117
56210,10712,-54324,0,0,-212,1301,-5,-14,1,204,322,3905,-9,-1,838,1812,1928,2088,2209,2137,1838,1928,2117
57211,10712,-54320,0,0,-262,1301,-3,-11,-1,186,341,3965,0,-3,838,1812,1928,2088,2209,2137,1838,1928,2117
58212,10708,-54328,0,0,-237,1376,-2,-11,-1,187,319,3952,7,-6,838,1812,1928,2088,2209,2137,1838,1928,2117
59213,10712,-54332,0,0,-287,1351,-2,-12,-1,217,336,3969,2,-4,838,1812,1928,2088,2209,2137,1838,1928,2117
60214,10704,-54324,0,0,-212,1276,-1,-12,-1,220,323,3966,-10,-7,838,1812,1926,2088,2211,2138,1841,1929,2119
61215,10716,-54336,0,0,-337,1401,-1,-12,1,181,353,3933,-7,-7,838,1812,1926,2088,2211,2138,1841,1929,2119
62216,10712,-54324,0,0,-237,1251,-2,-11,1,215,353,3939,5,1,838,1812,1926,2088,2211,2138,1841,1929,2119
63217,10716,-54328,0,0,-287,1351,-2,-11,-1,203,355,3942,6,-1,838,1812,1926,2088,2211,2138,1841,1929,2119
64218,10716,-54340,0,0,-262,1401,0,-10,-2,205,351,3944,-7,-4,838,1812,1926,2088,2211,2138,1841,1929,2119
65219,10708,-54328,0,0,-212,1251,-2,-9,0,207,360,3941,-6,0,838,1812,1926,2088,2210,2140,1841,1928,2118
66220,10712,-54332,0,0,-287,1351,-3,-11,1,198,359,3949,8,-2,838,1812,1926,2088,2210,2140,1841,1928,2118
67221,10708,-54332,0,0,-237,1326,-2,-9,1,205,353,3957,8,-5,838,1812,1926,2088,2210,2140,1841,1928,2118
68222,10720,-54328,0,0,-337,1301,-2,-10,1,225,332,3937,-2,-1,838,1812,1926,2088,2210,2140,1841,1928,2118
69223,10708,-54328,0,0,-187,1326,-2,-10,2,232,324,3916,-10,-5,838,1812,1926,2088,2210,2140,1841,1928,2118
70224,10712,-54328,0,0,-287,1326,-3,-9,0,223,358,3954,-9,-7,836,1812,1926,2088,2210,2140,1841,1928,2118
71225,10712,-54328,0,0,-262,1326,-5,-7,1,229,374,3943,8,-6,838,1812,1925,2088,2208,2140,1841,1928,2119
72226,10724,-54332,0,0,-337,1351,-2,-5,1,210,368,3949,7,-6,838,1812,1925,2088,2208,2140,1841,1928,2119
73227,10700,-54328,0,0,-112,1301,-2,-7,-1,206,346,3896,8,-4,838,1812,1925,2088,2208,2140,1841,1928,2119
74228,10716,-54332,0,0,-362,1351,-3,-6,-2,238,359,3930,4,-8,838,1812,1925,2088,2208,2140,1841,1928,2119
75229,10716,-54328,0,0,-262,1301,-2,-6,1,262,369,3932,-7,-7,838,1812,1925,2088,2208,2140,1841,1928,2119
76230,10720,-54328,0,0,-287,1326,-4,-6,0,243,377,3949,-9,-7,838,1805,1920,2083,2204,2139,1841,1929,2117
77231,10712,-54328,0,0,-212,1326,-4,-4,1,234,384,3916,-4,-4,838,1805,1920,2083,2204,2139,1841,1929,2117
78232,10708,-54320,0,0,-237,1276,-7,-4,1,220,409,3899,8,-1,838,1805,1920,2083,2204,2139,1841,1929,2117
79233,10708,-54332,0,0,-262,1401,-8,-4,3,224,398,3941,8,3,838,1805,1920,2083,2204,2139,1841,1929,2117
80234,10708,-54324,0,0,-262,1276,-6,-4,2,197,368,3955,-3,7,838,1805,1920,2083,2204,2139,1841,1929,2117
81235,10716,-54332,0,0,-312,1376,-6,-4,1,190,364,3907,-9,7,838,1805,1920,2083,2204,2139,1841,1929,2117
82236,10712,-54332,0,0,-237,1326,-10,-3,0,200,362,3896,-5,7,838,1805,1919,2083,2204,2139,1840,1927,2117
83237,10696,-54336,0,0,-162,1351,-12,-4,1,223,344,3941,7,4,838,1805,1919,2083,2204,2139,1840,1927,2117
84238,10712,-54332,0,0,-362,1301,-13,-3,2,263,359,3914,2,6,838,1805,1919,2083,2204,2139,1840,1927,2117
85239,10712,-54328,0,0,-262,1301,-12,-2,1,250,361,3912,-7,7,838,1805,1919,2083,2204,2139,1840,1927,2117
86240,10712,-54324,0,0,-262,1301,-15,1,1,251,362,3940,-9,4,838,1805,1919,2083,2204,2139,1840,1927,2117
87241,10716,-54328,0,0,-287,1351,-14,1,1,220,366,3905,5,6,835,1807,1924,2088,2208,2141,1842,1929,2120
88242,10704,-54320,0,0,-187,1276,-11,0,3,245,358,3948,7,7,838,1807,1924,2088,2208,2141,1842,1929,2120
89243,10712,-54340,0,0,-312,1451,-12,2,1,248,373,3919,8,3,838,1807,1924,2088,2208,2141,1842,1929,2120
90244,10720,-54328,0,0,-312,1251,-14,4,0,226,386,3895,5,2,838,1807,1924,2088,2208,2141,1842,1929,2120
91245,10716,-54328,0,0,-237,1326,-17,5,-1,230,374,3948,-8,1,838,1807,1924,2088,2208,2141,1842,1929,2120
92246,10712,-54328,0,0,-237,1326,-16,2,1,208,389,3923,-3,-6,838,1807,1924,2088,2208,2141,1842,1929,2120
93247,10712,-54324,0,0,-262,1301,-15,0,1,190,375,3913,9,-6,838,1810,1924,2088,2209,2142,1843,1933,2121
94248,10716,-54328,0,0,-287,1351,-13,4,0,216,369,3923,-1,-6,838,1810,1924,2088,2209,2142,1843,1933,2121
95249,10712,-54328,0,0,-237,1326,-17,5,-2,223,377,3937,-10,-8,838,1810,1924,2088,2209,2142,1843,1933,2121
96250,10708,-54328,0,0,-237,1326,-19,4,-2,229,371,3935,-6,-7,838,1810,1924,2088,2209,2142,1843,1933,2121
97251,10708,-54332,0,0,-262,1351,-19,4,-3,217,364,3921,-5,-7,838,1810,1924,2088,2209,2142,1843,1933,2121
98252,10720,-54340,0,0,-337,1376,-17,6,-1,251,340,3922,2,-7,838,1812,1926,2089,2211,2140,1840,1930,2120
99253,10712,-54328,0,0,-212,1251,-18,9,-3,274,354,3924,9,-7,838,1812,1926,2089,2211,2140,1840,1930,2120
100254,10708,-54336,65,65,-173,1440,-16,8,0,273,331,3914,8,-8,838,1812,1926,2089,2211,2140,1840,1930,2120
101255,10716,-54336,130,130,-247,1391,-16,7,1,240,343,3914,-7,-4,799,1812,1926,2089,2211,2140,1840,1930,2120
102256,10712,-54320,195,195,-170,1292,-16,12,2,234,350,3962,13,5,815,1812,1926,2089,2211,2140,1840,1930,2120
103257,10716,-54280,260,260,-219,1143,-19,18,5,256,330,3908,12,8,824,1812,1926,2089,2211,2140,1840,1930,2120
104258,10716,-54264,325,325,-192,1294,-17,19,2,354,360,3935,-5,31,804,1814,1928,2088,2209,2103,1795,1903,2135
105259,10708,-54224,390,390,-140,1145,-13,18,4,317,341,3917,18,36,806,1814,1928,2088,2209,2103,1795,1903,2135
106260,10708,-54156,455,455,-189,970,-10,19,18,181,319,3976,14,38,815,1814,1928,2088,2209,2103,1795,1903,2135
107261,10716,-54104,520,520,-237,1070,-10,16,15,271,343,3902,2,33,812,1814,1928,2088,2209,2103,1795,1903,2135
108262,10704,-54032,585,585,-111,945,-7,22,12,203,317,3906,-2,36,828,1814,1928,2088,2209,2103,1795,1903,2135
109263,10708,-53960,650,650,-209,945,-12,25,14,286,367,3914,-2,41,824,1760,1872,2048,2176,2112,1792,1880,2080
110264,10716,-53888,715,715,-233,945,-17,19,9,190,369,3966,3,44,811,1760,1872,2048,2176,2112,1792,1880,2080
111265,10716,-53772,780,780,-181,668,-14,10,2,108,339,3895,16,52,831,1760,1872,2048,2176,2112,1792,1880,2080
112266,10712,-53700,845,845,-154,943,-20,10,-8,201,404,4036,4,56,835,1760,1872,2048,2176,2112,1792,1880,2080
113267,10716,-53588,910,910,-203,692,-27,6,-5,107,312,3808,1,62,818,1760,1872,2048,2176,2112,1792,1880,2080
114268,10708,-53488,975,975,-126,766,-19,11,-8,151,277,4028,10,61,815,1760,1872,2048,2176,2112,1792,1880,2080
115269,10720,-53376,1040,1040,-250,690,-17,11,-14,258,296,3961,6,61,824,1919,2047,2040,2431,2140,1842,2047,2239
116270,10716,-53280,1105,1105,-148,789,-5,24,-1,204,237,3957,14,72,834,1919,2047,2040,2431,2140,1842,2047,2239
117271,10712,-53168,1170,1170,-146,688,-2,26,4,270,346,3999,13,58,833,1919,2047,2040,2431,2140,1842,2047,2239
118272,10712,-53068,1235,1235,-170,762,-10,14,-2,87,314,3945,-1,69,823,1919,2047,2040,2431,2140,1842,2047,2239
119273,10716,-52956,1300,1300,-193,686,-13,-12,-2,42,381,3981,8,61,818,1919,2047,2040,2431,2140,1842,2047,2239
120274,10712,-52836,1365,1365,-142,635,-6,0,9,-98,377,3767,8,72,816,1803,1916,2091,2209,2142,1843,1912,2094
121275,10716,-52740,1430,1430,-190,784,-13,2,9,34,356,4002,11,75,821,1803,1916,2091,2209,2142,1843,1912,2094
122276,10708,-52600,1495,1495,-113,507,-15,2,2,-93,320,3948,7,70,816,1803,1916,2091,2209,2142,1843,1912,2094
123277,10720,-52476,1560,1560,-237,606,-15,-7,7,210,261,3887,7,84,828,1803,1916,2091,2209,2142,1843,1912,2094
124278,10720,-52336,1625,1625,-161,504,-3,0,16,365,296,3993,-1,70,832,1803,1916,2091,2209,2142,1843,1912,2094
125279,10724,-52168,1690,1690,-184,326,-3,13,17,269,294,3949,-1,82,836,1791,1909,2045,2209,2142,1843,1912,2094
126280,10716,-52048,1755,1755,-107,625,-7,-12,8,252,385,3970,0,71,821,1791,1909,2045,2160,2125,1833,1882,2124
127281,10716,-51900,1820,1820,-156,448,-17,-5,8,61,369,3982,12,74,828,1791,1909,2045,2160,2125,1833,1882,2124
128282,10712,-51748,1885,1885,-129,421,-17,1,1,94,446,3893,4,66,823,1791,1909,2045,2160,2125,1833,1882,2124
129283,10716,-51592,1950,1950,-178,394,-28,-12,-1,35,317,3918,-2,81,827,1791,1909,2045,2160,2125,1833,1882,2124
130284,10720,-51460,2015,2015,-176,542,-14,-24,-7,38,295,4044,7,80,820,1791,1909,2045,2160,2125,1833,1882,2124
131285,10716,-51360,2080,2080,-124,741,-15,-30,-17,63,258,3863,6,88,819,1778,1912,2082,2184,2108,1822,1914,2083
132286,10708,-51232,2145,2145,-98,565,-14,-25,-36,135,365,3827,1,85,825,1778,1912,2082,2184,2108,1822,1914,2083
133287,10716,-51072,2210,2210,-196,362,-22,-35,-16,348,360,4046,-1,69,829,1778,1912,2082,2184,2108,1822,1914,2083
134288,10712,-50912,2275,2275,-119,360,-19,-5,-13,719,336,3714,-5,78,819,1778,1912,2082,2184,2108,1822,1914,2083
135289,10712,-50776,2340,2340,-143,508,-15,9,-5,885,186,3938,15,84,829,1778,1912,2082,2184,2108,1822,1914,2083
136290,10716,-50640,2405,2405,-166,507,6,29,6,410,142,4054,2,76,824,1781,1906,2073,2201,2102,1792,1904,2106
137291,10712,-50512,2470,2470,-115,555,17,24,13,55,232,3962,0,82,821,1781,1906,2073,2201,2102,1792,1904,2106
138292,10716,-50376,2535,2535,-163,503,11,-1,13,-412,282,4063,9,89,825,1781,1906,2073,2201,2102,1792,1904,2106
139293,10720,-50240,2600,2600,-162,502,15,-18,3,-487,380,3846,0,80,822,1781,1906,2073,2201,2102,1792,1904,2106
140294,10716,-50112,2665,2665,-110,550,3,-34,13,-317,372,3798,7,88,822,1781,1906,2073,2201,2102,1792,1904,2106
141295,10724,-49956,2730,2730,-184,373,-11,-45,12,-173,479,4031,12,79,828,1781,1906,2073,2201,2102,1792,1904,2106
142296,10724,-49800,2795,2795,-132,371,-23,-50,-1,-68,406,3714,-4,72,819,1776,1904,2076,2171,2090,1797,1888,2091
143297,10724,-49636,2860,2860,-130,318,-11,-48,11,390,318,3988,8,79,827,1776,1904,2076,2171,2090,1797,1888,2091
144298,10712,-49520,2925,2925,-54,617,-12,-19,7,783,388,3965,1,87,827,1776,1904,2076,2171,2090,1797,1888,2091
145299,10716,-49356,2990,2990,-152,314,-11,-26,4,357,217,3837,-3,89,834,1776,1904,2076,2171,2090,1797,1888,2091
146300,10728,-49236,3055,3055,-201,588,-5,-9,-12,708,494,4120,-3,83,825,1776,1904,2076,2171,2090,1797,1888,2091
147301,10724,-49064,3120,3120,-99,261,-12,-18,-1,337,301,3648,-3,87,816,1783,1909,2072,2196,2132,1842,1916,2087
148302,10720,-48924,3185,3185,-97,459,-7,-17,-8,291,397,4111,10,92,832,1783,1909,2072,2196,2132,1842,1916,2087
149303,10724,-48772,3250,3250,-146,382,-9,-21,-16,40,203,3779,14,82,831,1783,1909,2072,2196,2132,1842,1916,2087
150304,10720,-48612,3315,3315,-94,329,4,1,-5,131,260,4146,1,72,825,1783,1909,2072,2196,2132,1842,1916,2087
151305,10720,-48460,3380,3380,-118,377,10,-5,-2,229,223,3829,0,88,831,1783,1909,2072,2196,2132,1842,1916,2087
152306,10716,-48312,3445,3445,-91,400,19,0,-14,137,309,4204,-4,87,828,1783,1909,2072,2196,2132,1842,1916,2087
153307,10720,-48152,3510,3510,-140,323,14,-4,-9,342,315,3782,12,76,832,1792,1920,2080,2256,2176,1800,1904,2120
154308,10724,-48000,3575,3575,-138,371,12,-3,-2,383,457,3934,14,75,825,1792,1920,2080,2256,2176,1800,1904,2120
155309,10732,-47864,3640,3640,-162,469,7,-3,11,118,423,3854,9,93,824,1792,1920,2080,2256,2176,1800,1904,2120
156310,10720,-47720,3705,3705,-35,417,1,5,3,-56,455,4062,5,71,822,1792,1920,2080,2256,2176,1800,1904,2120
157311,10724,-47592,3770,3770,-133,515,4,11,12,-11,311,3681,15,80,836,1792,1920,2080,2256,2176,1800,1904,2120
158312,10720,-47416,3835,3835,-82,213,-7,-12,18,341,422,4087,-2,75,825,1809,1912,2071,2190,2117,1814,1904,2116
159313,10720,-47252,3900,3900,-105,285,1,-16,16,129,355,3740,12,76,834,1809,1912,2071,2190,2117,1814,1904,2116
160314,10728,-47100,3965,3965,-154,358,3,-12,16,153,444,4015,12,79,831,1809,1912,2071,2190,2117,1814,1904,2116
161315,10720,-46948,4030,4030,-52,356,-8,-22,16,177,357,3882,-3,90,823,1809,1912,2071,2190,2117,1814,1904,2116
162316,10724,-46784,4095,4095,-125,279,-8,-13,-3,94,401,3935,3,91,837,1809,1912,2071,2190,2117,1814,1904,2116
163317,10720,-46624,4160,4160,-74,301,-12,-17,-12,186,288,3897,13,76,829,1809,1912,2071,2190,2117,1814,1904,2116
164318,10712,-46452,4225,4225,-47,224,-9,-4,-6,399,374,3968,-3,78,835,1806,1921,2080,2199,2113,1818,1926,2118
165319,10728,-46312,4290,4290,-196,422,-10,-6,-11,388,357,3818,11,71,838,1806,1921,2080,2199,2113,1818,1926,2118
166320,10728,-46156,4355,4355,-94,320,-4,-2,-21,220,375,4100,-1,72,818,1806,1921,2080,2199,2113,1818,1926,2118
167321,10724,-45984,4420,4420,-67,217,-11,-15,-14,330,353,3737,18,86,832,1806,1921,2080,2199,2113,1818,1926,2118
168322,10732,-45828,4485,4485,-141,315,-12,-11,-5,321,453,4042,-1,87,836,1806,1921,2080,2199,2113,1818,1926,2118
169323,10724,-45664,4550,4550,-39,262,-20,3,-1,401,365,3788,-4,71,825,1804,1921,2085,2150,2094,1843,1931,2126
170324,10728,-45508,4615,4615,-113,310,-10,0,5,344,385,3921,4,86,838,1804,1921,2085,2150,2094,1843,1931,2126
171325,10724,-45376,4680,4680,-61,459,-14,9,17,173,384,4017,10,81,829,1804,1921,2085,2150,2094,1843,1931,2126
172326,10720,-45236,4745,4745,-59,407,-10,10,11,283,421,3868,-3,68,834,1804,1921,2085,2150,2094,1843,1931,2126
173327,10728,-45080,4810,4810,-133,305,-12,1,11,87,322,3865,7,82,835,1804,1921,2085,2150,2094,1843,1931,2126
174328,10720,-44956,4875,4875,-31,503,-6,4,13,379,361,3956,0,79,827,1804,1921,2085,2150,2094,1843,1931,2126
175329,10728,-44788,4940,4940,-130,226,-11,-2,13,121,356,3843,11,87,836,1806,1923,2082,2198,2146,1844,1932,2123
176330,10728,-44632,5005,5005,-78,298,-17,0,13,210,447,3942,6,76,828,1806,1923,2082,2198,2146,1844,1932,2123
177331,10724,-44476,5070,5070,-52,296,-23,2,4,106,381,3829,5,74,834,1806,1923,2082,2198,2146,1844,1932,2123
178332,10728,-44320,5135,5135,-100,294,-23,13,-4,143,347,3971,-1,70,838,1806,1923,2082,2198,2146,1844,1932,2123
179333,10728,-44168,5200,5200,-73,317,-13,12,-4,387,311,3825,7,83,832,1806,1923,2082,2198,2146,1844,1932,2123
180334,10724,-44012,5265,5265,-47,290,-8,3,-10,173,360,4082,13,76,834,1812,1916,2078,2212,2144,1842,1932,2116
181335,10732,-43832,5330,5330,-120,137,-16,-5,-13,119,442,3841,-2,82,838,1812,1916,2078,2212,2144,1842,1932,2116
182336,10732,-43692,5395,5395,-69,385,-23,-13,-5,258,371,3958,-3,72,830,1812,1916,2078,2212,2144,1842,1932,2116
183337,10728,-43540,5460,5460,-42,308,-25,2,-5,176,423,3857,4,84,835,1812,1916,2078,2212,2144,1842,1932,2116
184338,10728,-43408,5525,5525,-66,431,-28,-1,-1,43,338,3982,-2,73,838,1812,1916,2078,2212,2144,1842,1932,2116
185339,10736,-43264,5590,5590,-114,354,-25,9,-1,309,320,3864,3,67,835,1812,1916,2078,2212,2144,1842,1932,2116
186340,10724,-43088,5655,5655,13,152,-24,5,-4,428,345,3944,-1,70,830,1813,1930,2081,2198,2137,1838,1928,2119
187341,10740,-42964,5720,5720,-161,475,-19,5,0,179,324,3995,-1,79,838,1813,1930,2081,2198,2137,1838,1928,2119
188342,10728,-42792,5785,5785,16,172,-15,13,4,505,325,3835,-2,67,822,1813,1930,2081,2198,2137,1838,1928,2119
189343,10728,-42656,5850,5850,-58,396,-16,12,7,575,335,3951,11,71,836,1813,1930,2081,2198,2137,1838,1928,2119
190344,10732,-42500,5915,5915,-81,269,-18,14,12,3,393,4019,9,81,836,1813,1930,2081,2198,2137,1838,1928,2119
191345,10740,-42368,5980,5980,-105,417,-18,14,5,-107,344,3849,10,73,834,1792,1930,2090,2136,2066,1838,1928,2122
192346,10724,-42200,6045,6045,47,189,-17,23,5,193,328,3884,-1,71,830,1792,1930,2090,2136,2066,1838,1928,2122
193347,10724,-42048,6110,6110,-51,287,-15,21,6,206,301,4037,12,72,838,1792,1930,2090,2136,2066,1838,1928,2122
194348,10724,-41904,6175,6175,-50,335,-9,20,-2,138,339,3869,11,79,838,1792,1930,2090,2136,2066,1838,1928,2122
195349,10724,-41760,6240,6240,-48,333,-9,16,-8,237,345,3992,-4,74,837,1792,1930,2090,2136,2066,1838,1928,2122
196350,10740,-41616,6305,6305,-147,331,-15,10,-10,72,399,3823,0,71,838,1792,1930,2090,2136,2066,1838,1928,2122
197351,10740,-41448,6370,6370,-45,179,-18,4,-10,88,398,4033,9,66,825,1855,1975,2090,2206,2138,1837,1931,2124
198352,10732,-41324,6435,6435,7,452,-19,10,-16,116,348,3935,13,72,838,1855,1975,2090,2206,2138,1837,1931,2124
199353,10740,-41192,6500,6500,-92,401,-19,8,-10,232,327,3742,1,63,836,1855,1975,2090,2206,2138,1837,1931,2124
200354,10736,-41044,6565,6565,-15,299,-19,9,10,430,388,4069,-5,60,832,1855,1975,2090,2206,2138,1837,1931,2124
201355,10740,-40884,6630,6630,-64,222,-20,15,6,-11,306,3933,-4,65,837,1855,1975,2090,2206,2138,1837,1931,2124
202356,10728,-40740,6695,6695,38,320,-13,13,6,282,220,3896,5,80,837,1794,1930,2094,2210,2148,1844,1934,2130
203357,10740,-40588,6760,6760,-111,267,-9,7,12,281,323,4082,-6,61,838,1794,1930,2094,2210,2148,1844,1934,2130
204358,10732,-40456,6825,6825,16,391,-8,5,4,-32,356,3887,12,73,831,1794,1930,2094,2210,2148,1844,1934,2130
205359,10728,-40324,6890,6890,-7,389,-14,10,-9,23,374,3901,-2,64,837,1794,1930,2094,2210,2148,1844,1934,2130
206360,10728,-40164,6955,6955,-31,212,-18,6,-14,328,307,3787,-5,65,834,1794,1930,2094,2210,2148,1844,1934,2130
207361,10736,-40012,7020,7020,-79,260,-17,2,-11,222,290,4088,-5,73,838,1794,1930,2094,2210,2148,1844,1934,2130
208362,10728,-39880,7085,7085,23,383,-12,9,-16,94,259,3918,-4,61,835,1813,1932,2088,2200,2143,1842,1934,2129
209363,10728,-39708,7150,7150,-26,130,-10,11,2,274,259,3896,9,77,837,1813,1932,2088,2200,2143,1842,1934,2129
210364,10732,-39572,7215,7215,-49,354,-4,6,11,157,343,4003,7,72,839,1813,1932,2088,2200,2143,1842,1934,2129
211365,10728,-39440,7280,7280,2,377,-6,-2,15,29,307,3941,12,59,837,1813,1932,2088,2200,2143,1842,1934,2129
212366,10736,-39304,7345,7345,-71,350,-8,-6,18,220,332,3845,13,61,837,1813,1932,2088,2200,2143,1842,1934,2129
213367,10728,-39168,7410,7410,30,349,-12,-5,21,122,382,3975,-4,67,836,1815,1933,2094,2211,2139,1837,1929,2122
214368,10732,-39016,7475,7475,-43,247,-16,-8,10,2,397,4046,3,70,837,1815,1933,2094,2211,2139,1837,1929,2122
215369,10732,-38892,7540,7540,-16,420,-18,-21,0,-98,360,3800,-5,68,838,1815,1933,2094,2211,2139,1837,1929,2122
216370,10728,-38756,7605,7605,10,343,-14,-14,-6,94,331,4045,2,58,837,1815,1933,2094,2211,2139,1837,1929,2122
217371,10724,-38608,7670,7670,12,266,-8,-12,-10,138,225,3880,-4,69,837,1815,1933,2094,2211,2139,1837,1929,2122
218372,10740,-38504,7735,7735,-112,540,5,-7,-12,127,245,4009,12,74,838,1815,1933,2094,2211,2139,1837,1929,2122
219373,10736,-38352,7800,7800,15,238,5,-13,-12,229,290,3877,4,60,827,1814,1932,2092,2208,2135,1834,1927,2119
220374,10736,-38188,7865,7865,-9,161,7,-7,-13,82,320,4016,5,73,838,1814,1932,2092,2208,2135,1834,1927,2119
221375,10740,-38072,7930,7930,-32,460,1,-9,-5,556,360,3752,-5,59,839,1814,1932,2092,2208,2135,1834,1927,2119
222376,10736,-37940,7995,7995,20,358,-3,-7,-2,441,341,3973,9,66,836,1814,1932,2092,2208,2135,1834,1927,2119
223377,10740,-37800,8060,8060,-29,306,-3,-2,-3,377,345,3861,9,55,835,1814,1932,2092,2208,2135,1834,1927,2119
224378,10736,-37676,8125,8125,23,405,-7,-7,10,452,333,3918,-2,57,837,1806,1931,2091,2207,2133,1834,1929,2119
225379,10740,-37544,8190,8190,-26,353,1,-2,19,270,338,3965,4,68,837,1806,1931,2091,2207,2133,1834,1929,2119
226380,10740,-37408,8255,8255,1,326,-5,-13,19,57,341,3998,11,71,837,1806,1931,2091,2207,2133,1834,1929,2119
227381,10740,-37316,8320,8320,2,601,3,-14,16,-18,289,3913,-2,62,837,1806,1931,2091,2207,2133,1834,1929,2119
228382,10748,-37176,8385,8385,-46,299,4,-20,23,11,323,3933,-5,59,835,1806,1931,2091,2207,2133,1834,1929,2119
229383,10740,-37040,8450,8450,56,322,2,-29,22,-165,378,4014,-6,65,838,1806,1931,2091,2207,2133,1834,1929,2119
230384,10736,-36924,8515,8515,32,446,1,-27,2,-170,389,3807,-4,61,838,1812,1931,2092,2208,2142,1839,1932,2125
231385,10740,-36792,8580,8580,-16,344,1,-19,-14,12,361,3864,-5,68,836,1812,1931,2092,2208,2142,1839,1932,2125
232386,10752,-36672,8645,8645,-65,418,-4,-12,-18,297,400,3972,-6,54,837,1812,1931,2092,2208,2142,1839,1932,2125
233387,10748,-36544,8710,8710,37,366,-2,-33,-24,334,394,3852,2,69,836,1812,1931,2092,2208,2142,1839,1932,2125
234388,10740,-36424,8775,8775,64,415,-4,-47,-9,23,400,4011,-3,68,837,1812,1931,2092,2208,2142,1839,1932,2125
235389,10748,-36300,8840,8840,-35,389,-16,-39,10,549,393,3726,6,68,836,1810,1930,2092,2208,2146,1844,1936,2131
236390,10740,-36168,8905,8905,67,337,-22,-31,20,410,434,3887,-2,68,837,1810,1930,2092,2208,2146,1844,1936,2131
237391,10748,-36044,8970,8970,-32,385,-30,-27,21,254,400,3943,13,60,837,1810,1930,2092,2208,2146,1844,1936,2131
238392,10740,-35916,9035,9035,70,359,-24,-37,30,511,296,3878,7,66,837,1810,1930,2092,2208,2146,1844,1936,2131
239393,10744,-35800,9100,9100,-4,433,-13,-18,26,552,311,4081,4,64,837,1810,1930,2092,2208,2146,1844,1936,2131
240394,10728,-35672,9165,9165,123,356,-4,-9,18,150,243,3951,-4,69,834,1810,1930,2092,2208,2146,1844,1936,2131
241395,10740,-35544,9230,9230,-50,355,10,10,5,365,182,3948,-6,67,837,1806,1926,2091,2201,2151,1843,1934,2132
242396,10756,-35432,9295,9295,-74,453,26,25,-13,369,201,4053,-1,57,837,1806,1926,2091,2201,2151,1843,1934,2132
243397,10736,-35308,9360,9360,153,377,36,38,-35,136,225,3957,-1,64,834,1806,1926,2091,2201,2151,1843,1934,2132
244398,10744,-35192,9425,9425,-21,426,39,33,-38,266,338,3922,-2,60,836,1806,1926,2091,2201,2151,1843,1934,2132
245401,10740,-35084,9490,9490,56,475,26,8,-33,194,492,4009,9,59,836,1806,1926,2091,2201,2151,1843,1934,2132
246400,10740,-34980,9555,9555,33,499,13,-3,-25,15,575,3795,-3,62,836,1808,1928,2090,2208,2131,1831,1923,2109
247401,10744,-34852,9620,9620,9,347,-12,-20,1,101,561,3861,11,57,836,1808,1928,2090,2208,2131,1831,1923,2109
248402,10748,-34740,9685,9685,11,446,-21,-10,22,104,506,3802,0,47,837,1808,1928,2090,2208,2131,1831,1923,2109
249403,10732,-34640,9750,9750,138,520,-30,-27,45,-76,478,4001,7,61,836,1808,1928,2090,2208,2131,1831,1923,2109
250404,10744,-34512,9815,9815,-36,344,-32,-29,50,-15,468,3844,9,49,835,1808,1928,2090,2208,2131,1831,1923,2109
251405,10740,-34400,9880,9880,66,443,-34,-25,45,129,408,3849,9,58,837,1808,1928,2090,2208,2131,1831,1923,2109
252406,10744,-34292,9945,9945,17,467,-34,-23,24,183,369,3998,11,63,836,1810,1929,2093,2210,2131,1833,1925,2117
253407,10748,-34172,10010,10010,18,390,-24,-5,-11,225,371,3973,12,50,836,1810,1929,2093,2210,2131,1833,1925,2117
254408,10740,-34064,10075,10075,95,464,-18,-11,-28,337,240,3860,8,52,837,1810,1929,2093,2210,2131,1833,1925,2117
255409,10732,-33948,10140,10140,97,413,-7,8,-53,547,270,4067,11,48,835,1810,1929,2093,2210,2131,1833,1925,2117
256410,10752,-33824,10205,10205,-77,361,2,5,-48,326,183,3835,-5,52,836,1810,1929,2093,2210,2131,1833,1925,2117
257411,10740,-33700,10270,10270,125,360,6,24,-33,708,325,4097,-5,56,832,1807,1926,2094,2206,2140,1840,1928,2124
258412,10744,-33580,10335,10335,27,384,4,10,-10,493,260,3770,-5,48,836,1807,1926,2094,2206,2140,1840,1928,2124
259413,10740,-33488,10400,10400,78,558,2,29,15,473,368,3993,-3,64,837,1807,1926,2094,2206,2140,1840,1928,2124
260414,10740,-33368,10465,10465,55,382,-6,20,35,348,404,3771,-6,61,835,1807,1926,2094,2206,2140,1840,1928,2124
261415,10740,-33272,10530,10530,56,531,-13,22,38,44,497,3976,-1,49,837,1807,1926,2094,2206,2140,1840,1928,2124
262416,10744,-33148,10595,10595,33,354,-24,12,27,25,508,3830,9,57,835,1807,1926,2094,2206,2140,1840,1928,2124
263417,10748,-33044,10660,10660,34,478,-28,9,18,96,450,3809,6,63,837,1810,1931,2095,2207,2146,1843,1933,2130
264418,10752,-32920,10725,10725,36,352,-25,8,4,59,385,3971,-2,58,836,1810,1931,2095,2207,2146,1843,1933,2130
265419,10748,-32804,10790,10790,88,401,-24,6,-10,-92,376,3995,-2,53,837,1810,1931,2095,2207,2146,1843,1933,2130
266420,10748,-32692,10855,10855,64,425,-18,1,-19,-197,352,3889,12,67,836,1810,1931,2095,2207,2146,1843,1933,2130
267421,10752,-32580,10920,10920,41,424,-17,3,-16,-15,310,3992,13,54,836,1810,1931,2095,2207,2146,1843,1933,2130
268422,10740,-32452,10985,10985,142,322,-18,4,-12,302,313,3909,0,61,837,1807,1928,2092,2205,2150,1844,1935,2130
269423,10740,-32324,11050,11050,69,320,-17,7,-5,124,314,3984,12,60,837,1807,1928,2092,2205,2150,1844,1935,2130
270424,10740,-32224,11115,11115,71,495,-17,9,-1,321,310,3907,13,65,837,1807,1928,2092,2205,2150,1844,1935,2130
271425,10756,-32116,11180,11180,-28,444,-16,12,8,503,366,3921,-6,63,835,1807,1928,2092,2205,2150,1844,1935,2130
272426,10764,-31996,11245,11245,23,367,-23,11,9,399,445,3966,9,51,836,1807,1928,2092,2205,2150,1844,1935,2130
273427,10748,-31900,11310,11310,175,516,-28,-6,-4,164,377,3832,-1,50,837,1807,1928,2092,2205,2150,1844,1935,2130
274428,10740,-31768,11375,11375,127,290,-27,-5,1,243,263,3924,-4,52,833,1810,1930,2092,2202,2140,1836,1929,2123
275429,10740,-31636,11440,11440,79,288,-27,10,-2,434,377,3892,-2,67,837,1810,1930,2092,2202,2140,1836,1929,2123
276430,10756,-31528,11505,11505,-20,437,-27,22,8,204,293,4015,1,54,837,1810,1930,2092,2202,2140,1836,1929,2123
277431,10756,-31420,11570,11570,81,436,-28,4,6,252,296,3944,-2,66,837,1810,1930,2092,2202,2140,1836,1929,2123
278432,10748,-31308,11635,11635,133,410,-17,13,-2,4,304,4013,11,54,836,1810,1930,2092,2202,2140,1836,1929,2123
279433,10748,-31204,11700,11700,85,459,-17,5,-7,116,315,3908,5,60,836,1811,1930,2091,2205,2136,1833,1923,2118
280434,10752,-31092,11765,11765,61,408,-12,9,-4,220,230,3900,0,62,835,1811,1930,2091,2205,2136,1833,1923,2118
281435,10760,-30976,11830,11830,38,382,-3,21,5,208,268,4024,-3,53,836,1811,1930,2091,2205,2136,1833,1923,2118
282436,10764,-30868,11895,11895,64,431,-10,12,13,126,363,3930,13,67,837,1811,1930,2091,2205,2136,1833,1923,2118
283437,10764,-30744,11960,11960,91,329,-13,4,11,-33,407,3872,6,58,836,1811,1930,2091,2205,2136,1833,1923,2118
284438,10756,-30628,12025,12025,142,378,-19,3,9,173,415,3884,-2,59,837,1811,1930,2091,2205,2136,1833,1923,2118
285439,10760,-30516,12090,12090,69,402,-28,-9,6,280,416,3890,-2,63,836,1814,1934,2094,2211,2130,1831,1926,2119
286440,10760,-30400,12155,12155,96,375,-32,-6,0,32,377,3881,4,61,836,1814,1934,2094,2211,2130,1831,1926,2119
287441,10764,-30268,12220,12220,72,274,-31,-11,-9,29,352,3951,-4,68,836,1814,1934,2094,2211,2130,1831,1926,2119
288442,10772,-30172,12285,12285,48,498,-29,-11,-14,9,230,3931,-2,64,837,1814,1934,2094,2211,2130,1831,1926,2119
289443,10768,-30064,12350,12350,125,422,-17,-7,-5,152,193,3968,-5,60,836,1814,1934,2094,2211,2130,1831,1926,2119
290444,10764,-29952,12415,12415,127,396,-7,1,-3,336,273,3955,-1,54,836,1817,1936,2096,2211,2138,1837,1931,2126
291445,10768,-29820,12480,12480,78,269,0,0,-2,232,224,4052,5,57,834,1817,1936,2096,2211,2138,1837,1931,2126
292446,10772,-29724,12545,12545,80,493,3,1,-16,227,240,3899,13,58,837,1817,1936,2096,2211,2138,1837,1931,2126
293447,10768,-29608,12610,12610,131,367,4,12,-5,367,295,3915,2,51,836,1817,1936,2096,2211,2138,1837,1931,2126
294448,10772,-29512,12675,12675,83,491,-2,18,8,474,392,3961,14,49,836,1817,1936,2096,2211,2138,1837,1931,2126
295450,10768,-29396,12740,12740,135,365,-3,5,-2,108,332,3902,-2,59,836,1817,1936,2096,2211,2138,1837,1931,2126
296450,10780,-29308,12805,12805,36,540,-3,7,4,299,349,3903,6,53,836,1817,1939,2095,2211,2142,1840,1934,2128
297451,10776,-29164,12870,12870,138,188,-11,-5,12,-39,371,3933,9,56,835,1817,1939,2095,2211,2142,1840,1934,2128
298452,10772,-29072,12935,12935,139,512,-6,5,-2,-246,305,3941,10,59,837,1817,1939,2095,2211,2142,1840,1934,2128
299453,10776,-28968,13000,13000,91,436,-7,-12,1,253,279,3929,8,70,835,1817,1939,2095,2211,2142,1840,1934,2128
300454,10784,-28868,13065,13065,67,460,-2,-8,-3,326,372,4032,8,60,836,1817,1939,2095,2211,2142,1840,1934,2128
301455,10792,-28752,13130,13130,69,359,2,-9,-5,-309,258,3974,2,59,836,1813,1933,2093,2207,2143,1840,1933,2128
302456,10784,-28632,13195,13195,170,333,4,-4,-10,142,318,3968,0,55,837,1813,1933,2093,2207,2143,1840,1933,2128
303457,10800,-28504,13260,13260,22,281,2,-10,-4,402,358,3912,14,67,836,1813,1933,2093,2207,2143,1840,1933,2128
304458,10800,-28392,13325,13325,123,380,-1,-9,-6,115,396,3966,2,71,838,1813,1933,2093,2207,2143,1840,1933,2128
305459,10800,-28272,13390,13390,125,329,-7,-18,-12,104,361,3794,11,65,836,1813,1933,2093,2207,2143,1840,1933,2128
306460,10800,-28176,13455,13455,126,478,-5,-16,-11,242,368,3981,-3,69,837,1813,1933,2093,2207,2143,1840,1933,2128
307461,10812,-28060,13520,13520,53,352,-5,-14,1,319,268,3951,8,70,835,1810,1931,2091,2204,2139,1836,1928,2123
308462,10816,-27948,13585,13585,104,375,0,-7,3,222,342,3865,12,58,835,1810,1931,2091,2204,2139,1836,1928,2123
309463,10824,-27832,13650,13650,80,349,-1,-7,12,59,241,3893,-3,62,837,1810,1931,2091,2204,2139,1836,1928,2123
310464,10812,-27716,13715,13715,207,348,1,-11,13,277,381,3901,-1,74,837,1810,1931,2091,2204,2139,1836,1928,2123
311465,10828,-27592,13780,13780,34,297,1,-17,11,162,363,3954,-3,67,836,1810,1931,2091,2204,2139,1836,1928,2123
312466,10816,-27480,13845,13845,210,370,4,-14,10,65,387,3866,12,72,838,1810,1931,2092,2204,2139,1836,1928,2122
313467,10824,-27356,13910,13910,87,294,-6,-18,0,173,421,3923,12,62,836,1810,1931,2092,2204,2139,1836,1928,2122
314468,10836,-27212,13975,13975,63,167,-7,-16,-7,99,375,3906,11,68,837,1810,1931,2092,2204,2139,1836,1928,2122
315469,10832,-27088,14040,14040,165,291,-9,-13,-10,245,321,3956,-3,76,838,1810,1931,2092,2204,2139,1836,1928,2122
316470,10844,-26968,14105,14105,66,314,-9,-16,-33,173,346,3916,15,75,837,1810,1931,2092,2204,2139,1836,1928,2122
317471,10848,-26848,14170,14170,118,313,-1,-7,-23,223,297,4024,1,69,837,1810,1931,2092,2204,2139,1836,1928,2122
318472,10844,-26716,14235,14235,169,236,-1,-16,-5,345,396,3924,1,70,837,1807,1926,2091,2204,2139,1839,1927,2119
319473,10844,-26592,14300,14300,146,285,-4,-21,-2,-111,396,3994,-3,72,837,1807,1926,2091,2204,2139,1839,1927,2119
320474,10860,-26476,14365,14365,47,334,-11,-32,11,9,396,3881,-3,64,837,1807,1926,2091,2204,2139,1839,1927,2119
321475,10860,-26372,14430,14430,149,408,-16,-19,22,235,437,3808,8,75,838,1807,1926,2091,2204,2139,1839,1927,2119
322476,10864,-26240,14495,14495,125,231,-19,-13,22,381,391,3884,4,67,836,1807,1926,2091,2204,2139,1839,1927,2119
323477,10864,-26128,14560,14560,152,355,-14,-6,8,327,338,3966,8,78,837,1813,1932,2096,2209,2145,1841,1933,2127
324478,10876,-25980,14625,14625,78,128,-12,-17,-2,262,310,3910,-1,63,837,1813,1932,2096,2209,2145,1841,1933,2127
325479,10872,-25872,14690,14690,180,377,-7,-15,-15,296,314,4012,-2,62,836,1813,1932,2096,2209,2145,1841,1933,2127
326480,10872,-25744,14755,14755,156,250,-2,-15,-27,73,327,3973,-2,77,836,1813,1932,2096,2209,2145,1841,1933,2127
327481,10896,-25616,14820,14820,7,249,-6,-10,-22,406,318,3781,-1,78,837,1813,1932,2096,2209,2145,1841,1933,2127
328482,10900,-25492,14885,14885,134,272,-3,-8,-1,643,352,3948,4,64,838,1813,1932,2096,2209,2145,1841,1933,2127
329483,10896,-25372,14950,14950,185,296,-13,-9,10,154,388,3957,3,67,837,1814,1936,2096,2209,2145,1840,1932,2127
330484,10892,-25240,15015,15015,187,219,-13,-6,7,-179,344,3898,1,66,837,1814,1936,2096,2209,2145,1840,1932,2127
331485,10908,-25144,15080,15080,63,444,-17,-9,21,523,289,3893,8,72,837,1814,1936,2096,2209,2145,1840,1932,2127
332486,10912,-25016,15145,15145,140,242,-9,-4,11,348,407,3986,12,68,836,1814,1936,2096,2209,2145,1840,1932,2127
333487,10916,-24888,15210,15210,141,240,-10,6,9,68,356,3854,4,67,837,1814,1936,2096,2209,2145,1840,1932,2127
334488,10932,-24760,15275,15275,68,239,-11,-2,-1,331,485,3819,3,69,837,1809,1930,2093,2203,2137,1835,1927,2126
335489,10944,-24636,15340,15340,94,262,-7,-2,-10,407,401,4025,5,66,838,1809,1930,2093,2203,2137,1835,1927,2126
336490,10940,-24504,15405,15405,196,211,-16,-6,-15,97,458,3930,-2,74,837,1809,1930,2093,2203,2137,1835,1927,2126
337491,10952,-24380,15470,15470,97,259,-21,-3,-14,-22,374,3836,-2,68,838,1809,1930,2093,2203,2137,1835,1927,2126
338492,10960,-24292,15535,15535,123,484,-21,-3,-4,386,324,3997,9,67,838,1809,1930,2093,2203,2137,1835,1927,2126
339493,10964,-24172,15600,15600,150,282,-5,0,5,383,255,3960,12,66,836,1809,1930,2093,2203,2137,1835,1927,2126
340494,10976,-24072,15665,15665,101,407,-1,7,16,187,357,3909,-1,70,837,1806,1928,2090,2201,2135,1835,1926,2120
341495,10984,-23924,15730,15730,127,105,-9,9,21,202,315,3937,15,69,836,1806,1928,2090,2201,2135,1835,1926,2120
342496,10984,-23808,15795,15795,179,303,-7,-10,15,223,376,3981,16,74,836,1806,1928,2090,2201,2135,1835,1926,2120
343497,10984,-23672,15860,15860,181,177,-13,-4,6,241,431,3911,3,77,837,1806,1928,2090,2201,2135,1835,1926,2120
344498,10996,-23564,15925,15925,107,351,-16,8,-13,209,435,3792,1,81,838,1806,1928,2090,2201,2135,1835,1926,2120
345499,11004,-23448,15990,15990,133,299,-25,7,-18,319,378,3969,14,79,837,1809,1930,2093,2206,2139,1836,1928,2123
346500,11016,-23336,16055,16055,110,323,-14,7,-18,259,339,3973,15,74,837,1809,1930,2093,2206,2139,1836,1928,2123
347501,11024,-23196,16120,16120,136,146,-7,18,-17,132,292,3938,0,84,837,1809,1930,2093,2206,2139,1836,1928,2123
348502,11036,-23036,16185,16185,112,19,0,16,-4,176,263,3904,11,83,838,1809,1930,2093,2206,2139,1836,1928,2123
349503,11044,-22912,16384,16384,486,590,1,21,4,227,376,4047,0,75,839,1809,1930,2093,2206,2139,1836,1928,2123
350504,11052,-22788,16449,16449,487,588,-8,-3,12,95,420,3859,4,80,832,1812,1934,2096,2210,2140,1840,1932,2127
351505,11052,-22652,16514,16514,539,512,-19,4,5,94,518,3858,7,87,831,1812,1934,2096,2210,2140,1840,1932,2127
352506,11080,-22520,16579,16579,365,535,-29,0,-5,147,442,3828,18,71,831,1812,1934,2096,2210,2140,1840,1932,2127
353507,11100,-22384,16644,16644,416,508,-31,7,-14,241,369,3962,21,80,833,1812,1934,2096,2210,2140,1840,1932,2127
354508,11124,-22232,16709,16709,392,406,-25,-2,-11,334,267,3846,16,72,833,1812,1934,2096,2210,2140,1840,1932,2127
355509,11152,-22080,16774,16774,368,404,-14,5,-4,300,263,4088,21,79,834,1812,1934,2096,2210,2140,1840,1932,2127
356510,11176,-21952,16839,16839,394,553,-12,1,-2,304,312,3946,22,80,834,1824,1952,2112,2192,2128,1824,1920,2111
357511,11212,-21832,16904,16904,319,601,-7,3,-2,202,329,3946,12,91,833,1824,1952,2112,2192,2128,1824,1920,2111
358512,11248,-21664,16969,16969,320,299,-14,3,0,75,383,4010,16,85,833,1824,1952,2112,2192,2128,1824,1920,2111
359513,11272,-21536,17034,17034,396,547,-27,-2,-7,387,391,3626,15,81,833,1824,1952,2112,2192,2128,1824,1920,2111
360514,11316,-21372,17099,17099,272,320,-19,15,-10,15,232,4151,20,79,833,1824,1952,2112,2192,2128,1824,1920,2111
361515,11348,-21236,17164,17164,347,493,-22,9,-6,271,320,3907,29,94,836,1812,1931,2094,2204,2143,1838,1930,2126
362516,11396,-21104,17229,17229,248,516,-17,9,4,282,226,3902,28,94,834,1812,1931,2094,2204,2143,1838,1930,2126
363517,11428,-20920,17294,17294,349,188,-8,13,4,169,420,4042,19,94,834,1812,1931,2094,2204,2143,1838,1930,2126
364518,11468,-20772,17359,17359,299,411,-19,-17,6,68,399,3920,33,89,835,1812,1931,2094,2204,2143,1838,1930,2126
365519,11524,-20612,17424,17424,200,334,-23,-5,6,-97,363,3727,22,86,835,1812,1931,2094,2204,2143,1838,1930,2126
366520,11556,-20468,17489,17489,350,432,-24,-7,5,222,334,3905,29,85,836,1812,1931,2094,2204,2143,1838,1930,2126
367521,11600,-20312,17554,17554,276,355,-21,10,5,272,272,3963,19,87,835,1809,1929,2091,2203,2140,1837,1930,2124
368522,11652,-20148,17619,17619,226,303,-12,1,1,-117,264,4017,26,88,835,1809,1929,2091,2203,2140,1837,1930,2124
369523,11704,-19984,17684,17684,226,300,-10,0,-4,219,344,3938,22,101,836,1809,1929,2091,2203,2140,1837,1930,2124
370524,11744,-19812,17749,17749,302,248,-14,-18,-6,328,417,3853,33,93,836,1809,1929,2091,2203,2140,1837,1930,2124
371525,11780,-19672,17814,17814,328,446,-22,0,-7,127,343,3962,23,97,836,1809,1929,2091,2203,2140,1837,1930,2124
372526,11828,-19544,17879,17879,253,519,-22,0,-4,248,259,3844,39,96,835,1811,1929,2091,2210,2140,1838,1930,2122
373527,11896,-19384,17944,17944,128,317,-12,23,-3,232,298,4025,42,97,835,1811,1929,2091,2210,2140,1838,1930,2122
374528,11956,-19188,18009,18009,178,89,-11,1,7,571,246,3910,41,103,837,1811,1929,2091,2210,2140,1838,1930,2122
375529,12000,-19028,18074,18074,279,311,5,-2,0,209,313,3972,42,89,838,1811,1929,2091,2210,2140,1838,1930,2122
376530,12052,-18868,18139,18139,229,309,-5,-20,2,-491,328,4181,26,90,834,1811,1929,2091,2210,2140,1838,1930,2122
377531,12100,-18700,18204,18204,255,256,-16,-8,4,-134,362,3667,26,93,836,1811,1929,2091,2210,2140,1838,1930,2122
378532,12164,-18536,18269,18269,155,279,-13,-6,1,245,305,3929,27,102,837,1814,1934,2097,2213,2138,1838,1931,2123
379533,12216,-18352,18334,18334,230,151,-13,-3,1,267,350,4019,34,103,837,1814,1934,2097,2213,2138,1838,1931,2123
380534,12268,-18188,18399,18399,230,274,-11,-14,6,367,288,3871,29,99,837,1814,1934,2097,2213,2138,1838,1931,2123
381535,12324,-18016,18464,18464,205,221,-10,-16,2,296,356,3900,25,86,837,1814,1934,2097,2213,2138,1838,1931,2123
382536,12368,-17864,18529,18529,281,344,-11,-7,4,499,381,3976,25,108,837,1814,1934,2097,2213,2138,1838,1931,2123
383537,12420,-17696,18594,18594,231,241,-11,8,8,506,388,3846,34,89,836,1815,1935,2095,2211,2140,1838,1931,2126
384538,12480,-17540,18659,18659,181,314,-8,5,7,8,248,3947,34,88,837,1815,1935,2095,2211,2140,1838,1931,2126
385539,12544,-17380,18724,18724,156,287,-7,9,4,83,216,3986,31,109,837,1815,1935,2095,2211,2140,1838,1931,2126
386540,12600,-17216,18789,18789,207,260,11,11,2,44,222,3872,36,105,837,1815,1935,2095,2211,2140,1838,1931,2126
387541,12652,-17044,18854,18854,232,207,20,15,8,238,277,3868,32,103,837,1815,1935,2095,2211,2140,1838,1931,2126
388542,12692,-16848,18919,18919,308,54,14,-9,-4,-8,429,4196,39,100,837,1815,1935,2095,2211,2140,1838,1931,2126
389543,12764,-16684,18984,18984,107,251,-2,-21,-9,-356,406,3816,36,91,837,1809,1930,2095,2207,2140,1836,1929,2122
390544,12800,-16540,19049,19049,333,374,-6,-10,-4,-73,329,3892,41,92,838,1809,1930,2095,2207,2140,1836,1929,2122
391545,12848,-16360,19114,19114,258,147,0,-5,-17,209,384,3949,26,102,835,1809,1930,2095,2207,2140,1836,1929,2122
392546,12908,-16212,19179,19179,184,345,-14,-12,-4,452,347,3891,44,92,837,1809,1930,2095,2207,2140,1836,1929,2122
393547,12968,-16028,19244,19244,184,117,-3,-13,-4,580,410,3851,36,95,834,1809,1930,2095,2207,2140,1836,1929,2122
394548,13024,-15856,19309,19309,209,189,-14,-23,1,448,365,3974,45,96,838,1811,1931,2095,2207,2141,1839,1927,2125
395549,13080,-15680,19374,19374,209,161,-8,-19,-5,63,431,4006,42,101,837,1811,1931,2095,2207,2141,1839,1927,2125
396550,13128,-15500,19439,19439,260,134,-5,-3,-3,-47,224,3921,35,99,838,1811,1931,2095,2207,2141,1839,1927,2125
397551,13188,-15340,19504,19504,185,256,2,9,-8,592,304,3864,45,100,837,1811,1931,2095,2207,2141,1839,1927,2125
398552,13240,-15160,19569,19569,235,128,10,8,-1,482,315,4077,32,104,837,1811,1931,2095,2207,2141,1839,1927,2125
399553,13304,-14984,19634,19634,160,151,3,-10,0,218,425,3843,34,89,838,1811,1931,2095,2207,2141,1839,1927,2125
400554,13360,-14792,19699,19699,210,48,-10,-19,10,-8,344,3878,27,91,838,1807,1926,2091,2201,2137,1835,1928,2123
401555,13424,-14624,19764,19764,160,195,-8,11,4,121,432,3940,44,100,838,1807,1926,2091,2201,2137,1835,1928,2123
402556,13468,-14464,19829,19829,286,243,-14,-17,12,74,314,4011,31,102,838,1807,1926,2091,2201,2137,1835,1928,2123
403557,13520,-14276,19894,19894,236,65,-5,7,0,266,397,3922,39,94,837,1807,1926,2091,2201,2137,1835,1928,2123
404558,13572,-14084,19959,19959,236,37,-15,-10,-1,487,343,3842,30,103,837,1807,1926,2091,2201,2137,1835,1928,2123
405559,13636,-13956,20024,20024,161,435,-7,-19,8,208,427,4072,31,103,838,1809,1929,2093,2205,2141,1839,1930,2124
406560,13696,-13788,20089,20089,187,183,-16,-25,4,-266,512,3921,29,93,836,1809,1929,2093,2205,2141,1839,1930,2124
407561,13744,-13620,20154,20154,262,180,-13,1,-11,-57,272,3782,44,92,838,1809,1929,2093,2205,2141,1839,1930,2124
408562,13788,-13424,20219,20219,288,2,-1,8,-9,608,252,4050,32,100,837,1809,1929,2093,2205,2141,1839,1930,2124
409563,13852,-13252,20284,20284,163,149,1,-4,-4,252,465,3995,45,93,838,1809,1929,2093,2205,2141,1839,1930,2124
410564,13904,-13064,20349,20349,238,46,3,0,11,-2,340,3879,45,89,835,1809,1929,2093,2205,2141,1839,1930,2124
411565,13972,-12896,20414,20414,138,169,-6,-23,-1,80,468,3895,43,91,838,1808,1929,2091,2207,2140,1839,1929,2121
412566,14012,-12724,20479,20479,313,141,-19,-25,1,50,371,3886,33,88,838,1808,1929,2091,2207,2140,1839,1929,2121
413567,14084,-12532,20544,20544,113,13,-20,-2,1,373,398,3822,41,89,837,1808,1929,2091,2207,2140,1839,1929,2121
414568,14124,-12392,20609,20609,314,336,-21,-3,6,522,364,3969,47,107,839,1808,1929,2091,2207,2140,1839,1929,2121
415569,14184,-12188,20674,20674,189,-67,-23,-8,5,304,341,3998,33,85,836,1808,1929,2091,2207,2140,1839,1929,2121
416570,14232,-12024,20739,20739,264,180,-17,-8,-6,490,366,3797,28,94,838,1810,1928,2093,2205,2136,1836,1928,2123
417571,14296,-11840,20804,20804,164,52,-23,-6,6,584,342,4145,31,92,837,1810,1928,2093,2205,2136,1836,1928,2123
418572,14356,-11652,20869,20869,190,24,-17,5,3,21,355,3861,45,86,838,1810,1928,2093,2205,2136,1836,1928,2123
419573,14400,-11460,20934,20934,290,-4,-15,6,-4,-140,250,3789,44,94,838,1810,1928,2093,2205,2136,1836,1928,2123
420574,14464,-11296,20999,20999,165,169,4,32,2,409,310,4189,38,102,838,1810,1928,2093,2205,2136,1836,1928,2123
421575,14512,-11124,21064,21064,265,116,-4,5,3,195,420,3888,45,96,838,1810,1928,2093,2205,2136,1836,1928,2123
422576,14564,-10976,21129,21129,241,264,-4,1,-6,-133,411,3796,36,85,837,1809,1927,2093,2206,2137,1836,1926,2120
423577,14620,-10812,21194,21194,216,162,-15,-5,-7,300,453,3901,47,100,837,1809,1927,2093,2206,2137,1836,1926,2120
424578,14676,-10644,21259,21259,216,134,-19,-8,-3,196,419,4003,33,94,837,1809,1927,2093,2206,2137,1836,1926,2120
425579,14740,-10492,21324,21324,166,232,-25,1,-8,107,458,3733,28,94,838,1809,1927,2093,2206,2137,1836,1926,2120
426580,14812,-10296,21389,21389,116,-46,-22,10,6,133,248,3998,28,87,838,1809,1927,2093,2206,2137,1836,1926,2120
427581,14856,-10128,21454,21454,292,127,-20,2,-3,687,293,3978,40,97,836,1807,1930,2095,2210,2140,1840,1930,2121
428582,14908,-9992,21519,21519,242,325,-6,-4,9,-16,245,4099,28,95,837,1807,1930,2095,2210,2140,1840,1930,2121
429583,14972,-9788,21584,21584,167,-104,-7,-2,18,70,407,3940,44,96,836,1807,1930,2095,2210,2140,1840,1930,2121
430584,15020,-9640,21649,21649,267,244,-9,-6,3,462,336,3737,38,100,838,1807,1930,2095,2210,2140,1840,1930,2121
431585,15088,-9456,21714,21714,142,16,-14,-2,9,78,323,4117,40,95,837,1807,1930,2095,2210,2140,1840,1930,2121
432586,15144,-9304,21779,21779,217,214,-16,12,-5,256,376,3778,32,97,838,1807,1930,2095,2210,2140,1840,1930,2121
433587,15188,-9152,21844,21844,293,212,-18,13,-7,484,304,3881,28,82,837,1811,1928,2095,2211,2140,1841,1930,2123
434588,15252,-8984,21909,21909,168,110,-14,2,-16,288,403,4152,28,84,837,1811,1928,2095,2211,2140,1841,1930,2123
435589,15312,-8816,21974,21974,193,107,-25,-15,-25,-6,316,3734,42,85,838,1811,1928,2095,2211,2140,1841,1930,2123
436590,15352,-8644,22039,22039,319,80,-18,-7,-11,90,339,4095,36,84,838,1811,1928,2095,2211,2140,1841,1930,2123
437591,15416,-8488,22104,22104,169,177,-19,4,1,133,338,3887,42,87,837,1811,1928,2095,2211,2140,1841,1930,2123
438592,15480,-8336,22169,22169,169,200,-12,3,1,-246,276,3949,44,82,838,1811,1927,2094,2209,2139,1841,1931,2121
439593,15540,-8168,22234,22234,194,98,-5,4,6,207,292,3961,44,78,838,1811,1927,2094,2209,2139,1841,1931,2121
440594,15584,-7996,22299,22299,294,70,1,10,10,338,284,3772,37,93,838,1811,1927,2094,2209,2139,1841,1931,2121
441595,15636,-7844,22364,22364,245,193,-4,8,15,78,388,4101,30,83,838,1811,1927,2094,2209,2139,1841,1931,2121
442596,15700,-7668,22429,22429,170,40,-13,-4,7,401,474,3790,31,84,837,1811,1927,2094,2209,2139,1841,1931,2121
443597,15748,-7472,22494,22494,270,-88,-22,12,8,120,422,3874,41,80,838,1811,1927,2094,2209,2139,1841,1931,2121
444598,15788,-7332,22559,22559,321,260,-30,-2,3,229,377,3908,44,90,835,1809,1927,2095,2212,2138,1840,1928,2119
445599,15840,-7172,22624,22624,246,133,-18,7,10,220,247,4119,46,90,836,1809,1927,2095,2212,2138,1840,1928,2119
446600,15916,-7004,22689,22689,96,80,-16,7,3,430,268,3813,27,76,837,1809,1927,2095,2212,2138,1840,1928,2119
447601,15980,-6848,22754,22754,171,153,-6,-5,0,170,258,4028,45,86,838,1809,1927,2095,2212,2138,1840,1928,2119
448602,16020,-6700,22819,22819,321,201,-7,-8,3,152,355,4017,41,92,838,1809,1927,2095,2212,2138,1840,1928,2119
449603,16076,-6540,22884,22884,222,124,-13,-8,-9,149,296,3685,45,80,837,1808,1923,2090,2206,2135,1837,1927,2117
450604,16132,-6376,22949,22949,222,96,-10,-1,-20,201,328,4120,38,81,837,1808,1923,2090,2206,2135,1837,1927,2117
451605,16208,-6216,23014,23014,97,119,-9,-1,-17,-37,374,3915,30,73,838,1808,1923,2090,2206,2135,1837,1927,2117
452606,16256,-6080,23079,23079,272,267,-14,0,-21,-83,306,3827,42,87,839,1808,1923,2090,2206,2135,1837,1927,2117
453607,16316,-5928,23144,23144,197,165,-5,16,-27,31,325,4074,28,87,837,1808,1923,2090,2206,2135,1837,1927,2117
454608,16380,-5768,23209,23209,172,113,-7,-19,-15,72,286,3841,27,80,837,1808,1923,2090,2206,2135,1837,1927,2117
455609,16440,-5620,23274,23274,197,186,-9,-42,-6,180,421,3949,40,74,838,1809,1925,2091,2208,2135,1839,1928,2118
456610,16484,-5472,23339,23339,298,184,-10,-30,12,285,416,3862,41,74,838,1809,1925,2091,2208,2135,1839,1928,2118
457611,16536,-5304,23404,23404,248,56,-17,-20,26,86,331,3862,27,72,837,1809,1925,2091,2208,2135,1839,1928,2118
458612,16592,-5164,23469,23469,223,230,-9,-2,18,159,253,3981,32,82,838,1809,1925,2091,2208,2135,1839,1928,2118
459613,16648,-5020,23534,23534,224,203,-5,5,11,389,223,3830,35,73,837,1809,1925,2091,2208,2135,1839,1928,2118
460614,16704,-4884,23599,23599,224,251,0,8,3,353,372,4055,38,69,837,1807,1923,2094,2212,2140,1842,1930,2120
461615,16764,-4740,23664,23664,199,199,-3,16,-2,254,349,3919,30,81,835,1807,1923,2094,2212,2140,1842,1930,2120
462616,16828,-4600,23729,23729,174,222,-12,-17,-18,292,399,3840,39,73,837,1807,1923,2094,2212,2140,1842,1930,2120
463617,16872,-4468,23794,23794,299,270,-17,-14,-29,225,371,3971,38,70,838,1807,1923,2094,2212,2140,1842,1930,2120
464618,16928,-4296,23859,23859,225,18,-14,-21,-22,29,268,4056,28,69,836,1807,1923,2094,2212,2140,1842,1930,2120
465619,16968,-4196,23924,23924,325,467,-15,-6,-26,82,228,3680,28,81,838,1807,1923,2094,2212,2140,1842,1930,2120
466620,17044,-4040,23989,23989,100,115,-4,-7,-6,38,217,4190,37,73,835,1810,1923,2091,2207,2136,1840,1927,2117
467621,17088,-3908,24054,24054,301,263,4,12,-5,293,265,3931,30,84,837,1810,1923,2091,2207,2136,1840,1927,2117
468622,17136,-3764,24119,24119,276,186,22,-6,4,-68,266,3866,29,71,837,1810,1923,2091,2207,2136,1840,1927,2117
469623,17196,-3620,24184,24184,201,184,19,4,12,126,452,4183,37,65,837,1810,1923,2091,2207,2136,1840,1927,2117
470625,17252,-3500,24249,24249,226,333,15,1,8,379,414,3582,27,67,837,1810,1923,2091,2207,2136,1840,1927,2117
471625,17300,-3364,24314,24314,277,231,3,-3,7,204,515,4102,34,76,837,1809,1922,2090,2209,2130,1836,1924,2111
472626,17360,-3224,24379,24379,202,204,-7,-8,0,32,458,3808,44,63,836,1809,1922,2090,2209,2130,1836,1924,2111
473627,17404,-3096,24444,24444,302,278,-13,-18,-3,162,426,3873,37,64,837,1809,1922,2090,2209,2130,1836,1924,2111
474628,17468,-2964,24509,24509,177,251,-19,-20,-5,306,349,3932,36,78,836,1809,1922,2090,2209,2130,1836,1924,2111
475629,17540,-2828,24574,24574,127,224,-17,-17,-10,381,290,3905,43,80,837,1809,1922,2090,2209,2130,1836,1924,2111
476630,17584,-2704,24639,24639,303,298,-10,-24,-14,320,321,4099,29,75,838,1809,1922,2090,2209,2130,1836,1924,2111
477631,17648,-2576,24704,24704,178,272,-12,-28,0,151,250,3773,32,75,837,1809,1919,2090,2208,2135,1841,1927,2116
478632,17708,-2456,24769,24769,203,320,-11,-24,-4,413,344,4091,41,60,834,1809,1919,2090,2208,2135,1841,1927,2116
479633,17756,-2312,24834,24834,278,168,-9,-21,-10,92,283,3919,26,79,836,1809,1919,2090,2208,2135,1841,1927,2116
480634,17820,-2176,24899,24899,178,217,-1,-13,-8,99,344,3888,29,74,837,1809,1919,2090,2208,2135,1841,1927,2116
481635,17876,-2048,24964,24964,229,265,-4,7,2,396,344,3981,37,61,837,1809,1919,2090,2208,2135,1841,1927,2116
482636,17924,-1932,25029,25029,279,339,0,1,5,427,324,3982,32,64,837,1805,1916,2089,2203,2135,1845,1931,2116
483637,17992,-1792,25094,25094,154,187,-1,1,6,201,386,3873,28,72,836,1805,1916,2089,2203,2135,1845,1931,2116
484638,18048,-1656,25159,25159,229,210,4,8,3,146,399,3881,32,60,837,1805,1916,2089,2203,2135,1845,1931,2116
485639,18104,-1540,25224,25224,229,334,0,5,5,354,461,3903,30,72,837,1805,1916,2089,2203,2135,1845,1931,2116
486640,18156,-1420,25289,25289,255,308,-14,-3,-1,285,514,3848,32,72,836,1805,1916,2089,2203,2135,1845,1931,2116
487641,18216,-1292,25354,25354,205,256,-22,-13,-5,105,411,3837,41,67,836,1805,1916,2089,2203,2135,1845,1931,2116
488642,18260,-1184,25419,25419,305,380,-26,-21,-5,322,434,4032,33,61,836,1808,1917,2090,2211,2139,1847,1931,2117
489643,18320,-1060,25484,25484,205,279,-24,-21,-8,150,343,3879,28,62,836,1808,1917,2090,2211,2139,1847,1931,2117
490644,18368,-920,25549,25549,281,177,-18,-6,-15,140,293,4047,27,69,836,1808,1917,2090,2211,2139,1847,1931,2117
491645,18416,-804,25614,25614,281,325,-5,0,-12,145,184,3959,43,67,837,1808,1917,2090,2211,2139,1847,1931,2117
492646,18480,-672,25679,25679,181,224,4,11,-3,329,302,3953,30,76,836,1808,1917,2090,2211,2139,1847,1931,2117
493647,18540,-564,25744,25744,206,373,-5,10,-3,217,366,4054,41,69,836,1805,1913,2087,2209,2138,1847,1930,2113
494648,18592,-448,25809,25809,257,322,-5,6,1,176,386,3913,30,67,837,1805,1913,2087,2209,2138,1847,1930,2113
495649,18648,-324,25874,25874,232,270,-7,1,-4,295,420,3872,30,72,834,1805,1913,2087,2209,2138,1847,1930,2113
496650,18692,-184,25939,25939,307,168,-13,1,-1,154,486,3998,40,68,836,1805,1913,2087,2209,2138,1847,1930,2113
497651,18752,-64,26004,26004,208,292,-19,0,-3,448,463,3817,44,71,837,1805,1913,2087,2209,2138,1847,1930,2113
498652,18792,52,26069,26069,333,316,-20,-5,6,357,377,3903,32,64,837,1805,1913,2087,2209,2138,1847,1930,2113
499653,18856,168,26134,26134,183,314,-19,1,5,107,369,4038,41,61,836,1805,1914,2088,2212,2132,1842,1926,2112
500654,18924,292,26199,26199,158,263,-16,1,0,346,314,3809,44,60,836,1805,1914,2088,2212,2132,1842,1926,2112
501655,18964,436,26264,26264,334,136,-12,15,-1,338,293,4050,28,59,837,1805,1914,2088,2212,2132,1842,1926,2112
502656,19024,540,26329,26329,209,385,-10,35,-5,276,361,3885,39,62,837,1805,1914,2088,2212,2132,1842,1926,2112
503657,19076,664,26394,26394,259,259,-18,24,1,151,308,3857,41,71,836,1805,1914,2088,2212,2132,1842,1926,2112
504658,19132,792,26459,26459,234,232,-19,17,-4,257,477,4134,47,68,836,1807,1911,2087,2210,2130,1842,1925,2107
505659,19212,884,26524,26524,84,456,-24,-3,-1,-27,355,3780,38,62,837,1807,1911,2087,2210,2130,1842,1925,2107
506660,19256,1032,26589,26589,310,104,-22,-9,-1,224,405,3994,42,57,836,1807,1911,2087,2210,2130,1842,1925,2107
507661,19316,1152,26654,26654,210,278,-26,-2,-6,-6,324,3849,35,71,836,1807,1911,2087,2210,2130,1842,1925,2107
508662,19368,1264,26719,26719,260,327,-19,-2,-5,194,357,3983,39,65,837,1807,1911,2087,2210,2130,1842,1925,2107
509663,19428,1380,26784,26784,210,301,-12,2,2,269,342,3865,35,71,836,1807,1911,2087,2210,2130,1842,1925,2107
510664,19488,1492,26849,26849,210,325,-13,0,-1,262,404,3959,41,73,836,1805,1909,2086,2211,2134,1848,1930,2112
511665,19552,1624,26914,26914,185,198,-16,-4,-5,297,336,3906,32,67,836,1805,1909,2086,2211,2134,1848,1930,2112
512666,19608,1764,26979,26979,235,146,-15,22,7,255,347,3859,45,59,834,1805,1909,2086,2211,2134,1848,1930,2112
513667,19660,1888,27044,27044,261,245,-24,21,3,259,339,4028,42,62,837,1805,1909,2086,2211,2134,1848,1930,2112
514668,19720,1996,27109,27109,211,344,-22,12,4,261,303,3896,32,59,837,1805,1909,2086,2211,2134,1848,1930,2112
515669,19768,2124,27174,27174,286,217,-18,10,7,186,287,3961,36,70,836,1807,1911,2088,2213,2136,1849,1930,2109
516670,19828,2232,27239,27239,211,341,-18,11,1,122,316,3938,27,59,836,1807,1911,2088,2213,2136,1849,1930,2109
517671,19880,2360,27304,27304,262,214,-14,22,-6,84,255,3919,31,74,836,1807,1911,2088,2213,2136,1849,1930,2109
518672,19932,2484,27369,27369,262,238,-9,6,-4,51,264,3948,29,63,837,1807,1911,2088,2213,2136,1849,1930,2109
519673,19992,2608,27434,27434,212,237,-7,2,-9,324,331,3964,28,61,836,1807,1911,2088,2213,2136,1849,1930,2109
520674,20040,2744,27499,27499,288,160,-9,2,-9,411,340,3874,37,61,837,1807,1911,2088,2213,2136,1849,1930,2109
521675,20104,2856,27564,27564,188,309,-11,6,2,35,348,3916,30,72,837,1802,1902,2079,2210,2129,1845,1923,2101
522676,20172,2964,27629,27629,163,333,-19,8,-5,26,385,3944,46,73,837,1802,1902,2079,2210,2129,1845,1923,2101
523677,20224,3084,27694,27694,263,256,-20,2,-8,137,271,3868,41,71,837,1802,1902,2079,2210,2129,1845,1923,2101
524678,20284,3208,27759,27759,213,230,-12,4,7,421,307,3992,40,75,836,1802,1902,2079,2210,2129,1845,1923,2101
525679,20336,3308,27824,27824,263,379,-15,10,12,285,307,3880,35,62,837,1802,1902,2079,2210,2129,1845,1923,2101
526680,20396,3420,27889,27889,213,303,-14,8,6,115,287,4104,28,73,837,1805,1903,2082,2214,2123,1845,1925,2099
527681,20468,3552,27954,27954,138,176,-10,6,7,150,298,3859,38,77,835,1805,1903,2082,2214,2123,1845,1925,2099
528682,20520,3668,28019,28019,264,275,-6,11,21,355,297,3945,37,60,836,1805,1903,2082,2214,2123,1845,1925,2099
529683,20556,3772,28084,28084,364,349,-9,7,14,347,390,3976,38,62,835,1805,1903,2082,2214,2123,1845,1925,2099
530684,20620,3904,28149,28149,189,172,-13,3,-2,57,356,3917,43,79,835,1805,1903,2082,2214,2123,1845,1925,2099
531685,20688,4036,28214,28214,164,171,-11,7,8,167,325,3895,47,78,835,1805,1903,2082,2214,2123,1845,1925,2099
532686,20736,4136,28279,28279,290,370,-15,1,3,186,418,3897,44,65,837,1808,1901,2082,2216,2123,1846,1924,2098
533687,20792,4268,28344,28344,240,168,-17,7,-9,58,265,4025,29,75,838,1808,1901,2082,2216,2123,1846,1924,2098
534688,20872,4388,28409,28409,90,242,-8,11,-2,382,245,3795,36,71,835,1808,1901,2082,2216,2123,1846,1924,2098
535689,20908,4516,28474,28474,365,190,-7,12,-3,37,322,4028,30,74,837,1808,1901,2082,2216,2123,1846,1924,2098
536690,20980,4648,28539,28539,140,164,-1,4,-1,-134,294,4059,38,62,838,1808,1901,2082,2216,2123,1846,1924,2098
537691,21016,4772,28604,28604,366,212,-1,12,4,498,310,3787,40,74,836,1809,1902,2083,2215,2127,1852,1928,2102
538692,21072,4896,28669,28669,241,211,-3,-6,10,392,317,3767,45,69,838,1809,1902,2083,2215,2127,1852,1928,2102
539693,21128,5028,28734,28734,241,159,-7,4,0,-19,422,4209,35,80,836,1809,1902,2083,2215,2127,1852,1928,2102
540694,21200,5180,28799,28799,141,32,-3,15,-4,77,287,3675,42,72,837,1809,1902,2083,2215,2127,1852,1928,2102
541695,21244,5324,28864,28864,317,80,-8,11,3,451,358,3945,45,60,837,1809,1902,2083,2215,2127,1852,1928,2102
542696,21280,5480,28929,28929,367,3,-3,20,-1,346,281,4053,46,78,839,1809,1902,2083,2215,2127,1852,1928,2102
543697,21352,5592,28994,28994,142,277,8,8,15,287,344,3919,41,73,837,1808,1898,2083,2219,2129,1853,1931,2103
544698,21396,5704,29059,29059,318,276,-6,2,3,233,355,3894,31,68,837,1808,1898,2083,2219,2129,1853,1931,2103
545699,21464,5816,29124,29124,168,275,-7,-18,1,204,289,3854,45,62,837,1808,1898,2083,2219,2129,1853,1931,2103
546700,21520,5948,29189,29189,243,148,-3,7,6,133,385,4165,47,65,834,1808,1898,2083,2219,2129,1853,1931,2103
547701,21588,6072,29254,29254,168,196,-14,-10,5,33,355,3539,35,69,836,1808,1898,2083,2219,2129,1853,1931,2103
548702,21636,6184,29319,29319,293,270,-12,6,-1,121,354,4152,38,64,837,1804,1895,2078,2217,2128,1852,1928,2099
549703,21700,6296,29384,29384,193,269,-9,-6,0,260,263,3915,30,74,838,1804,1895,2078,2217,2128,1852,1928,2099
550704,21756,6396,29449,29449,243,343,-2,-12,1,57,271,3928,39,63,836,1804,1895,2078,2217,2128,1852,1928,2099
551705,21812,6480,29514,29514,244,443,-9,5,1,227,397,4008,28,82,837,1804,1895,2078,2217,2128,1852,1928,2099
552706,21860,6596,29579,29579,294,242,-5,2,-5,130,307,3907,33,68,835,1804,1895,2078,2217,2128,1852,1928,2099
553707,21920,6712,29644,29644,219,240,7,7,20,138,243,3907,40,78,835,1804,1895,2078,2217,2128,1852,1928,2099
554708,21972,6840,29709,29709,269,164,2,15,21,640,510,4045,40,73,836,1804,1894,2078,2216,2128,1851,1927,2099
555709,22024,6940,29774,29774,270,338,4,13,31,-110,249,3798,31,80,837,1804,1894,2078,2216,2128,1851,1927,2099
556710,22080,7072,29839,29839,245,136,0,0,27,551,374,4015,33,78,837,1804,1894,2078,2216,2128,1851,1927,2099
557711,22152,7192,29904,29904,145,210,7,20,18,307,282,3853,32,66,836,1804,1894,2078,2216,2128,1851,1927,2099
558712,22208,7312,29969,29969,245,209,9,32,11,104,390,3898,43,61,837,1804,1894,2078,2216,2128,1851,1927,2099
559713,22268,7448,30034,30034,220,107,-1,15,-3,354,428,3883,36,73,838,1805,1893,2079,2220,2123,1853,1930,2100
560714,22324,7572,30099,30099,245,180,-13,4,-6,303,492,3963,29,79,837,1805,1893,2079,2220,2123,1853,1930,2100
561715,22380,7680,30164,30164,246,279,-27,-2,-20,154,447,3816,29,65,837,1805,1893,2079,2220,2123,1853,1930,2100
562716,22424,7808,30229,30229,321,153,-29,-7,-21,199,329,3938,32,70,837,1805,1893,2079,2220,2123,1853,1930,2100
563717,22488,7952,30294,30294,196,51,-22,-13,-10,299,303,4103,36,74,834,1805,1893,2079,2220,2123,1853,1930,2100
564718,22536,8092,30359,30359,296,74,-14,-1,-1,69,268,3858,49,68,835,1810,1896,2083,2223,2127,1853,1930,2100
565719,22600,8224,30424,30424,197,122,-1,13,7,206,194,4012,32,74,838,1810,1896,2083,2223,2127,1855,1930,2102
566720,22668,8324,30489,30489,171,322,11,20,18,354,283,4035,46,80,838,1810,1896,2083,2223,2127,1855,1930,2102
567721,22720,8400,30554,30554,272,471,9,15,15,274,348,3810,40,81,838,1810,1896,2083,2223,2127,1855,1930,2102
568722,22776,8532,30619,30619,247,120,9,21,8,53,387,4002,40,65,836,1810,1896,2083,2223,2127,1855,1930,2102
569723,22828,8664,30684,30684,272,118,4,29,24,193,481,3879,31,67,834,1810,1896,2083,2223,2127,1855,1930,2102
570724,22876,8780,30749,30749,298,217,-12,16,19,370,533,3627,31,81,838,1811,1900,2087,2228,2127,1855,1931,2099
571725,22940,8880,30814,30814,198,316,-22,19,9,204,437,4135,30,69,837,1811,1900,2087,2228,2127,1855,1931,2099
572726,22996,8988,30879,30879,248,265,-25,11,13,96,316,3818,48,79,836,1811,1900,2087,2228,2127,1855,1931,2099
573727,23060,9128,30944,30944,198,63,-21,18,13,169,343,3735,34,71,836,1811,1900,2087,2228,2127,1855,1931,2099
574728,23108,9244,31009,31009,298,212,-13,17,10,16,346,4065,42,79,837,1811,1900,2087,2228,2127,1855,1931,2099
575729,23172,9368,31074,31074,198,160,-9,23,5,131,331,4070,36,81,838,1814,1896,2084,2224,2126,1856,1931,2100
576730,23216,9500,31139,31139,324,109,-5,21,0,260,331,3672,47,70,836,1814,1896,2084,2224,2126,1856,1931,2100
577731,23292,9612,31204,31204,124,233,-7,18,-1,324,395,4144,47,71,838,1814,1896,2084,2224,2126,1856,1931,2100
578732,23336,9720,31269,31269,324,257,-11,19,-1,475,427,3882,29,67,837,1814,1896,2084,2224,2126,1856,1931,2100
579733,23412,9840,31334,31334,124,180,-7,21,3,348,347,3911,31,68,837,1814,1896,2084,2224,2126,1856,1931,2100
580734,23460,9956,31399,31399,299,204,-6,39,9,195,307,3983,29,76,833,1814,1896,2084,2224,2126,1856,1931,2100
581735,23500,10056,31464,31464,350,303,1,44,5,359,363,4025,30,76,836,1807,1888,2075,2219,2121,1854,1928,2092
582736,23568,10172,31529,31529,175,202,-2,29,7,108,334,3973,39,80,836,1807,1888,2075,2219,2121,1854,1928,2092
583737,23624,10268,31594,31594,250,326,-3,20,10,-62,474,3960,45,67,835,1807,1888,2075,2219,2121,1854,1928,2092
584738,23676,10412,31659,31659,275,24,-11,21,5,-199,446,3813,32,78,837,1807,1888,2075,2219,2121,1854,1928,2092
585739,23732,10524,31724,31724,251,223,-16,21,10,-26,474,3940,42,60,836,1807,1888,2075,2219,2121,1854,1928,2092
586740,23796,10656,31789,31789,201,96,-29,6,12,253,432,3871,30,63,838,1806,1885,2074,2221,2119,1853,1925,2090
587741,23844,10800,31854,31854,301,20,-30,-7,0,85,417,3846,30,72,837,1806,1885,2074,2221,2119,1853,1925,2090
588742,23888,10928,31919,31919,327,118,-32,9,3,225,382,3941,37,62,838,1806,1885,2074,2221,2119,1853,1925,2090
589743,23956,11048,31984,31984,176,167,-34,8,-3,366,351,3898,32,74,837,1806,1885,2074,2221,2119,1853,1925,2090
590744,24008,11160,32049,32049,277,215,-29,8,-6,488,302,3935,43,62,836,1806,1885,2074,2221,2119,1853,1925,2090
591745,24080,11268,32114,32114,152,239,-20,18,-11,254,342,4014,31,60,838,1806,1885,2074,2221,2119,1853,1925,2090
592746,24116,11376,32179,32179,377,238,-23,18,-3,69,297,3981,45,59,837,1808,1883,2077,2224,2123,1860,1930,2095
593747,24188,11464,32244,32244,152,363,-25,13,0,412,327,3956,36,63,837,1808,1883,2077,2224,2123,1860,1930,2095
594748,24232,11556,32309,32309,328,337,-21,9,-4,95,337,4100,30,61,835,1808,1883,2077,2224,2123,1860,1930,2095
595749,24300,11652,32374,32374,178,311,-28,7,-4,-77,280,3892,31,76,836,1808,1883,2077,2224,2123,1860,1930,2095
596750,24372,11752,32439,32439,152,286,-20,0,1,176,269,3871,40,64,835,1808,1883,2077,2224,2123,1860,1930,2095
597751,24416,11848,32504,32504,328,310,-14,14,4,-53,314,4145,45,70,835,1809,1883,2077,2227,2125,1865,1932,2092
598752,24488,11956,32569,32569,153,234,-20,1,-5,198,357,3790,32,67,835,1809,1883,2077,2227,2125,1865,1932,2092
599753,24536,12056,32768,32768,306,286,-13,14,4,82,298,4008,31,66,836,1809,1883,2077,2227,2125,1865,1932,2092
600754,24592,12168,32833,32833,257,210,-18,18,11,286,433,3886,33,68,837,1809,1883,2077,2227,2125,1865,1932,2092
601755,24676,12276,32898,32898,81,234,-10,20,17,234,303,3969,39,74,836,1809,1883,2077,2227,2125,1865,1932,2092
602756,24716,12368,32963,32963,357,333,-20,9,23,15,363,4030,30,63,837,1809,1883,2077,2227,2125,1865,1932,2092
603757,24776,12476,33028,33028,232,232,-18,8,25,-22,313,3787,45,73,838,1808,1880,2075,2229,2113,1859,1925,2080
604758,24840,12584,33093,33093,207,231,-20,8,23,208,414,4056,27,58,835,1808,1880,2075,2229,2113,1859,1925,2080
605759,24896,12696,33158,33158,257,205,-29,10,11,119,322,3838,30,72,837,1808,1880,2075,2229,2113,1859,1925,2080
606760,24944,12804,33223,33223,308,229,-27,-10,-2,241,288,3932,29,70,837,1808,1880,2075,2229,2113,1859,1925,2080
607761,25004,12920,33288,33288,233,178,-22,-2,-17,325,292,3921,38,68,837,1808,1880,2075,2229,2113,1859,1925,2080
608762,25056,13044,33353,33353,283,126,-22,-2,-31,196,382,4016,35,65,836,1812,1875,2073,2236,2113,1859,1924,2080
609763,25128,13176,33418,33418,158,75,-24,9,-24,462,250,3871,31,72,837,1812,1875,2073,2236,2113,1859,1924,2080
610764,25164,13284,33483,33483,384,224,-12,22,-19,607,257,4098,46,60,837,1812,1875,2073,2236,2113,1859,1924,2080
611765,25216,13388,33548,33548,284,248,-7,24,-14,370,257,4035,39,68,838,1812,1875,2073,2236,2113,1859,1924,2080
612766,25264,13492,33613,33613,309,247,1,30,-4,96,187,3866,31,53,835,1812,1875,2073,2236,2113,1859,1924,2080
613767,25324,13592,33678,33678,234,271,7,29,11,-20,229,4116,43,58,837,1812,1875,2073,2236,2113,1859,1924,2080
614768,25380,13696,33743,33743,260,245,13,23,15,-230,245,3903,34,56,833,1811,1873,2075,2234,2112,1857,1923,2080
615769,25416,13792,33808,33808,385,294,8,15,12,-5,399,4000,31,57,834,1811,1873,2075,2234,2112,1857,1923,2080
616770,25484,13888,33873,33873,185,293,4,16,7,16,361,3800,46,70,836,1811,1873,2075,2234,2112,1857,1923,2080
617771,25552,13972,33938,33938,185,368,4,2,13,-40,372,3943,48,62,835,1811,1873,2075,2234,2112,1857,1923,2080
618772,25608,14092,34003,34003,260,142,-3,6,3,92,446,4019,46,65,836,1811,1873,2075,2234,2112,1857,1923,2080
619773,25660,14172,34068,34068,286,391,-9,-2,0,198,399,3773,32,59,836,1816,1881,2078,2240,2112,1856,1927,2084
620774,25716,14276,34133,34133,261,240,-13,-1,4,348,411,3949,33,56,837,1816,1881,2078,2240,2112,1856,1927,2084
621775,25788,14396,34198,34198,161,139,-16,-3,4,141,339,3911,35,55,835,1816,1881,2078,2240,2112,1856,1927,2084
622776,25840,14516,34263,34263,286,138,-24,10,7,525,299,3886,34,55,836,1816,1881,2078,2240,2112,1856,1927,2084
623777,25900,14632,34328,34328,236,161,-5,27,5,503,210,3904,33,56,838,1816,1881,2078,2240,2112,1856,1927,2084
624778,25952,14728,34393,34393,287,286,3,19,1,261,188,4238,40,61,837,1816,1881,2078,2240,2112,1856,1927,2084
625779,26016,14828,34458,34458,212,260,18,26,-6,52,198,3869,31,56,837,1819,1883,2079,2235,2123,1864,1933,2097
626780,26068,14924,34523,34523,287,284,26,23,-3,140,229,3938,47,67,836,1819,1883,2079,2235,2123,1864,1933,2097
627781,26124,15024,34588,34588,262,258,18,21,-6,219,358,4087,33,63,837,1819,1883,2079,2235,2123,1864,1933,2097
628782,26188,15120,34653,34653,212,282,21,10,-9,-138,361,3834,29,64,836,1819,1883,2079,2235,2123,1864,1933,2097
629783,26264,15224,34718,34718,137,231,8,2,-6,-17,404,3886,30,54,836,1819,1883,2079,2235,2123,1864,1933,2097
630784,26304,15304,34783,34783,363,381,1,-6,-1,55,385,3890,32,49,837,1815,1882,2079,2236,2124,1864,1931,2091
631785,26372,15412,34848,34848,187,205,-7,-16,5,59,402,3916,38,63,835,1815,1882,2079,2236,2124,1864,1931,2091
632786,26412,15520,34913,34913,363,204,-12,-10,-2,213,434,3873,46,56,832,1815,1882,2079,2236,2124,1864,1931,2091
633787,26484,15616,34978,34978,163,278,-12,-5,3,269,362,3838,32,53,837,1815,1882,2079,2236,2124,1864,1931,2091
634788,26536,15716,35043,35043,288,252,-6,11,6,569,321,4125,31,49,836,1815,1882,2079,2236,2124,1864,1931,2091
635789,26588,15816,35108,35108,289,251,-3,-9,5,380,318,3748,30,50,837,1815,1882,2079,2236,2124,1864,1931,2091
636790,26672,15900,35173,35173,88,351,10,21,6,-8,280,4084,30,55,836,1816,1883,2076,2229,2121,1861,1929,2091
637791,26720,15992,35238,35238,313,300,4,13,6,178,338,3893,32,61,836,1816,1883,2076,2229,2121,1861,1929,2091
638792,26788,16080,35303,35303,188,325,8,13,2,65,411,4095,32,64,837,1816,1883,2076,2229,2121,1861,1929,2091
639793,26860,16192,35368,35368,163,174,0,-14,10,109,317,3707,31,59,835,1816,1883,2076,2229,2121,1861,1929,2091
640794,26912,16280,35433,35433,289,323,5,-11,15,84,379,4054,49,62,836,1816,1883,2076,2229,2121,1861,1929,2091
641795,26968,16376,35498,35498,264,272,-11,-11,17,128,416,3977,31,60,838,1812,1879,2075,2230,2115,1855,1924,2086
642796,27044,16464,35563,35563,138,322,-13,-23,16,-10,342,3845,31,51,836,1812,1879,2075,2230,2115,1855,1924,2086
643797,27100,16560,35628,35628,264,271,-14,-12,8,165,398,4006,35,56,836,1812,1879,2075,2230,2115,1855,1924,2086
644798,27156,16664,35693,35693,264,220,-12,-11,-2,285,369,3896,27,52,837,1812,1879,2075,2230,2115,1855,1924,2086
645801,27216,16776,35758,35758,239,169,-6,-9,-9,447,303,3893,47,66,836,1812,1879,2075,2230,2115,1855,1924,2086
646800,27276,16888,35823,35823,239,168,-1,0,-11,353,354,3859,42,56,837,1812,1879,2075,2230,2115,1855,1924,2086
647801,27344,17004,35888,35888,189,142,3,16,-11,205,303,4060,28,51,837,1811,1879,2078,2236,2118,1860,1928,2085
648802,27412,17080,35953,35953,189,391,-12,5,-6,429,398,3886,47,58,835,1811,1879,2078,2236,2118,1860,1928,2085
649803,27440,17204,36018,36018,440,90,-9,9,-2,260,382,3814,33,62,835,1811,1879,2078,2236,2118,1860,1928,2085
650804,27524,17324,36083,36083,89,113,-10,10,6,311,420,3925,37,63,836,1811,1879,2078,2236,2118,1860,1928,2085
651805,27600,17440,36148,36148,139,137,-9,5,16,163,314,3914,31,56,835,1811,1879,2078,2236,2118,1860,1928,2085
652806,27628,17548,36213,36213,440,186,-8,0,12,-19,360,4018,45,51,839,1817,1881,2080,2238,2118,1862,1928,2087
653807,27692,17648,36278,36278,215,235,-12,-2,4,-99,347,3976,44,50,838,1817,1881,2080,2238,2118,1862,1928,2087
654808,27764,17748,36343,36343,165,234,-14,-12,-1,17,304,3806,30,47,835,1817,1881,2080,2238,2118,1862,1928,2087
655809,27824,17844,36408,36408,240,259,-9,-6,-4,212,318,4159,32,49,837,1817,1881,2080,2238,2118,1862,1928,2087
656810,27864,17932,36473,36473,366,308,-6,-4,-4,-17,321,3859,39,49,837,1817,1881,2080,2238,2118,1862,1928,2087
657811,27916,18004,36538,36538,291,408,-10,-5,-13,140,409,3921,32,52,836,1817,1881,2080,2238,2118,1862,1928,2087
658812,27972,18104,36603,36603,266,232,-8,-9,-18,418,338,3961,39,61,835,1817,1881,2079,2240,2121,1865,1931,2088
659813,28040,18216,36668,36668,191,156,-8,-8,-21,511,389,3966,34,49,835,1817,1881,2079,2240,2121,1865,1931,2088
660814,28100,18320,36733,36733,241,205,-10,16,-13,276,369,3900,48,62,836,1817,1881,2079,2240,2121,1865,1931,2088
661815,28164,18412,36798,36798,216,279,-15,14,-2,344,377,3824,36,52,838,1817,1881,2079,2240,2121,1865,1931,2088
662816,28240,18516,36863,36863,141,203,-12,7,8,283,328,3944,34,48,837,1817,1881,2079,2240,2121,1865,1931,2088
663817,28308,18608,36928,36928,191,278,-11,13,15,279,377,4081,32,62,836,1815,1879,2079,2239,2120,1865,1929,2086
664818,28360,18692,36993,36993,291,327,-8,4,16,19,328,3763,48,45,837,1815,1879,2079,2239,2120,1865,1929,2086
665819,28432,18800,37058,37058,166,176,-11,10,14,67,386,4102,31,52,834,1815,1879,2079,2239,2120,1865,1929,2086
666820,28492,18900,37123,37123,241,225,-5,10,4,219,364,3866,37,50,833,1815,1879,2079,2239,2120,1865,1929,2086
667821,28576,18988,37188,37188,91,300,-10,0,3,154,338,3878,27,48,838,1815,1879,2079,2239,2120,1865,1929,2086
668822,28636,19088,37253,37253,241,224,-8,12,0,59,338,3993,39,57,837,1815,1879,2079,2239,2120,1865,1929,2086
669823,28688,19180,37318,37318,291,273,-13,7,-15,174,461,4004,30,49,837,1813,1875,2075,2235,2121,1864,1930,2086
670824,28764,19280,37383,37383,141,222,-11,3,-17,344,363,3684,37,46,837,1813,1875,2075,2235,2121,1864,1930,2086
671825,28816,19400,37448,37448,291,96,-17,6,-14,352,398,4095,44,52,836,1813,1875,2075,2235,2121,1864,1930,2086
672826,28860,19512,37513,37513,342,145,-14,19,-17,216,404,4046,35,59,837,1813,1875,2075,2235,2121,1864,1930,2086
673827,28920,19624,37578,37578,242,144,-13,22,-18,284,380,3783,38,60,837,1813,1875,2075,2235,2121,1864,1930,2086
674828,28992,19728,37643,37643,167,193,-11,13,-14,225,321,4014,33,60,837,1815,1877,2076,2235,2119,1864,1930,2090
675829,29048,19808,37708,37708,267,343,-6,15,-10,106,314,4080,44,44,837,1815,1877,2076,2235,2119,1864,1930,2090
676830,29096,19900,37773,37773,317,267,-8,16,-11,250,390,3827,27,53,837,1815,1877,2076,2235,2119,1864,1930,2090
677831,29148,19992,37838,37838,293,266,-15,19,-3,122,335,3817,27,43,835,1815,1877,2076,2235,2119,1864,1930,2090
678832,29200,20080,37903,37903,293,291,-9,16,6,312,292,4072,31,51,835,1815,1877,2076,2235,2119,1864,1930,2090
679833,29276,20164,37968,37968,143,315,-6,12,12,255,320,3915,42,49,836,1815,1877,2076,2235,2119,1864,1930,2090
680834,29340,20248,38033,38033,218,315,-10,8,22,-24,308,3865,27,59,836,1819,1883,2082,2242,2122,1864,1932,2092
681835,29396,20340,38098,38098,268,264,-9,16,22,315,372,4127,40,50,836,1819,1883,2082,2242,2122,1864,1932,2092
682836,29468,20436,38163,38163,168,238,-15,15,21,104,418,3791,28,49,833,1819,1883,2082,2242,2122,1864,1932,2092
683837,29524,20536,38228,38228,268,212,-15,4,17,-34,374,3793,41,44,833,1819,1883,2082,2242,2122,1864,1932,2092
684838,29564,20632,38293,38293,369,237,-16,-5,12,254,326,4074,28,44,837,1819,1883,2082,2242,2122,1864,1932,2092
685839,29620,20728,38358,38358,269,236,-15,7,1,137,468,3949,38,45,836,1821,1884,2080,2237,2114,1859,1928,2087
686840,29684,20824,38423,38423,219,235,-19,7,-13,22,363,3782,41,44,835,1821,1884,2080,2237,2114,1859,1928,2087
687841,29744,20924,38488,38488,244,209,-15,6,-26,124,317,4142,39,42,836,1821,1884,2080,2237,2114,1859,1928,2087
688842,29788,21032,38553,38553,344,158,-13,8,-37,191,294,3932,31,48,837,1821,1884,2080,2237,2114,1859,1928,2087
689843,29860,21136,38618,38618,169,182,-11,11,-30,169,266,3745,42,43,837,1821,1884,2080,2237,2114,1859,1928,2087
690844,29920,21224,38683,38683,244,282,-10,11,-24,322,287,4104,41,44,836,1821,1884,2080,2237,2114,1859,1928,2087
691845,29968,21316,38748,38748,320,256,-10,4,-11,301,297,3844,27,42,837,1822,1885,2081,2236,2114,1858,1927,2088
692846,30032,21404,38813,38813,220,281,-8,0,3,290,316,4026,38,54,836,1822,1885,2081,2236,2114,1858,1927,2088
693847,30084,21512,38878,38878,295,154,-13,3,13,291,273,3848,42,52,836,1822,1885,2081,2236,2114,1858,1927,2088
694848,30120,21592,38943,38943,396,329,-11,6,25,279,365,4068,42,50,836,1822,1885,2081,2236,2114,1858,1927,2088
695850,30192,21664,39008,39008,171,379,-19,6,31,171,353,3842,40,46,837,1822,1885,2081,2236,2114,1858,1927,2088
696850,30244,21752,39073,39073,296,278,-13,6,31,113,307,3878,43,53,835,1819,1881,2075,2234,2114,1858,1928,2088
697851,30300,21836,39138,39138,271,303,-7,10,23,143,326,4094,40,50,836,1819,1881,2075,2234,2114,1858,1928,2088
698852,30372,21924,39203,39203,171,277,-8,-5,17,-42,326,3767,42,53,836,1819,1881,2075,2234,2114,1858,1928,2088
699853,30400,22044,39268,39268,447,76,-3,2,7,37,372,4075,43,43,834,1819,1881,2075,2234,2114,1858,1928,2088
700854,30480,22120,39333,39333,122,351,-5,-1,-14,24,364,3813,34,49,834,1819,1881,2075,2234,2114,1858,1928,2088
701855,30524,22208,39398,39398,347,275,-7,-6,-21,117,371,3996,35,50,836,1819,1881,2075,2234,2114,1858,1928,2088
702856,30576,22288,39463,39463,297,325,-5,-12,-24,209,357,3934,26,40,836,1816,1880,2075,2233,2116,1859,1928,2087
703857,30632,22356,39528,39528,273,400,-6,-7,-26,181,417,4048,37,46,835,1816,1880,2075,2233,2116,1859,1928,2087
704858,30684,22456,39593,39593,298,199,-19,-13,-22,296,331,3835,29,56,835,1816,1880,2075,2233,2116,1859,1928,2087
705859,30720,22556,39658,39658,399,198,-13,2,-12,318,330,4074,38,48,835,1816,1880,2075,2233,2116,1859,1928,2087
706860,30760,22636,39723,39723,374,323,-14,1,3,512,310,3886,33,55,836,1816,1880,2075,2233,2116,1859,1928,2087
707861,30828,22732,39788,39788,199,222,-8,-2,14,432,314,4005,43,41,836,1819,1883,2077,2236,2117,1863,1931,2090
708862,30872,22820,39853,39853,350,271,-6,7,22,144,323,4032,33,52,835,1819,1883,2077,2236,2117,1863,1931,2090
709863,30936,22904,39918,39918,225,296,-2,11,25,204,287,3887,40,42,837,1819,1883,2077,2236,2117,1863,1931,2090
710864,31004,23008,39983,39983,200,170,1,3,22,82,246,3801,31,48,835,1819,1883,2077,2236,2117,1863,1931,2090
711865,31056,23088,40048,40048,300,320,11,2,5,60,304,4143,33,52,836,1819,1883,2077,2236,2117,1863,1931,2090
712866,31132,23172,40113,40113,150,294,6,11,1,38,368,3838,31,39,837,1819,1883,2077,2236,2117,1863,1931,2090
713867,31192,23256,40178,40178,250,294,7,-2,-7,-1,400,3919,44,45,835,1823,1883,2079,2239,2119,1866,1933,2090
714868,31252,23356,40243,40243,250,193,-5,-2,-13,188,425,4060,30,42,837,1823,1883,2079,2239,2119,1866,1933,2090
715869,31296,23424,40308,40308,351,393,-4,-16,-7,146,406,3847,26,49,836,1823,1883,2079,2239,2119,1866,1933,2090
716870,31364,23508,40373,40373,200,292,-12,-7,-9,174,475,3954,39,50,835,1823,1883,2079,2239,2119,1866,1933,2090
717871,31416,23608,40438,40438,301,191,-16,-12,-6,43,352,3967,45,43,832,1823,1883,2079,2239,2119,1866,1933,2090
718872,31488,23672,40503,40503,176,416,-19,-6,-12,196,407,4005,42,49,837,1826,1885,2083,2245,2117,1864,1931,2088
719873,31528,23776,40568,40568,376,165,-14,-5,-4,164,362,3836,29,46,836,1826,1885,2083,2245,2117,1864,1931,2088
720874,31596,23848,40633,40633,201,365,-14,-9,-1,307,318,3932,38,38,835,1826,1885,2083,2245,2117,1864,1931,2088
721875,31636,23924,40698,40698,377,340,-9,5,-3,278,304,4061,29,47,836,1826,1885,2083,2245,2117,1864,1931,2088
722876,31704,24032,40763,40763,202,139,-9,-1,-7,99,324,3932,45,52,835,1826,1885,2083,2245,2117,1864,1931,2088
723877,31772,24112,40828,40828,202,314,2,3,-7,308,301,3744,29,49,834,1826,1885,2083,2245,2117,1864,1931,2088
724878,31832,24172,40893,40893,252,439,6,15,-1,504,290,4143,27,39,837,1824,1881,2080,2240,2117,1863,1927,2079
725879,31884,24276,40958,40958,302,163,3,1,11,302,292,3897,28,40,836,1824,1881,2080,2240,2117,1863,1927,2079
726880,31960,24348,41023,41023,152,363,6,20,10,105,343,4036,29,50,835,1824,1881,2080,2240,2117,1863,1927,2079
727881,32016,24448,41088,41088,277,187,0,10,14,250,317,3809,34,48,836,1824,1881,2080,2240,2117,1863,1927,2079
728882,32072,24536,41153,41153,277,261,6,7,20,228,350,4007,44,44,836,1824,1881,2080,2240,2117,1863,1927,2079
729883,32116,24596,41218,41218,353,436,3,22,14,2,422,3964,42,36,836,1822,1883,2079,2239,2119,1863,1929,2090
730884,32184,24680,41283,41283,203,286,-6,3,5,24,411,3801,25,50,836,1822,1883,2079,2239,2119,1863,1929,2090
731885,32232,24756,41348,41348,328,336,-10,1,-6,86,436,3914,42,45,834,1822,1883,2079,2239,2119,1863,1929,2090
732886,32292,24856,41413,41413,253,185,-12,-7,-13,22,412,3930,38,50,836,1822,1883,2079,2239,2119,1863,1929,2090
733887,32332,24932,41478,41478,379,334,-12,-4,-25,43,408,4029,35,37,832,1822,1883,2079,2239,2119,1863,1929,2090
734888,32404,25000,41543,41543,179,384,-19,-8,-24,188,381,3753,30,38,834,1822,1883,2079,2239,2119,1863,1929,2090
735889,32460,25064,41608,41608,279,409,-18,-10,-14,247,319,4012,46,45,834,1821,1884,2081,2242,2121,1866,1934,2094
736890,32528,25160,41673,41673,204,209,-19,-5,-4,148,364,3997,45,42,835,1821,1884,2081,2242,2121,1866,1934,2094
737891,32596,25232,41738,41738,204,358,-18,-13,10,299,300,3790,39,42,835,1821,1884,2081,2242,2121,1866,1934,2094
738892,32660,25320,41803,41803,229,258,-15,-3,16,453,340,4022,37,47,837,1821,1884,2081,2242,2121,1866,1934,2094
739893,32700,25416,41868,41868,379,207,-15,9,22,274,340,3959,34,39,836,1821,1884,2081,2242,2121,1866,1934,2094
740894,32768,25492,41933,41933,204,332,-12,8,17,420,378,3805,27,51,836,1821,1886,2085,2242,2126,1868,1936,2098
741895,32800,25588,41998,41998,430,206,-10,6,15,398,268,4011,42,42,835,1821,1886,2085,2242,2126,1868,1936,2098
742896,32872,25676,42063,42063,180,256,-7,14,5,322,401,4089,25,38,836,1821,1886,2085,2242,2126,1868,1936,2098
743897,32948,25756,42128,42128,155,305,-13,19,1,113,363,3839,40,38,835,1821,1886,2085,2242,2126,1868,1936,2098
744898,32992,25844,42193,42193,355,255,-9,15,-9,113,341,3979,44,40,837,1821,1886,2085,2242,2126,1868,1936,2098
745899,33068,25932,42258,42258,155,254,-8,19,-12,119,304,3962,42,37,837,1821,1886,2085,2242,2126,1868,1936,2098
746900,33132,26008,42323,42323,230,329,-9,6,-4,-34,320,3853,43,38,835,1825,1888,2083,2240,2121,1862,1931,2091
747901,33176,26100,42388,42388,355,228,-8,0,-3,-1,328,4017,39,42,837,1825,1888,2083,2240,2121,1862,1931,2091
748902,33248,26172,42453,42453,180,353,-10,-6,-4,41,342,3858,24,46,835,1825,1888,2083,2240,2121,1862,1931,2091
749903,33304,26268,42518,42518,280,202,-14,-1,-6,150,383,4051,36,47,835,1825,1888,2083,2240,2121,1862,1931,2091
750904,33368,26348,42583,42583,230,302,-15,1,-7,263,377,3808,38,44,833,1825,1888,2083,2240,2121,1862,1931,2091
751905,33416,26428,42648,42648,331,301,-16,-3,-14,240,434,3962,31,48,834,1825,1888,2082,2240,2113,1857,1929,2088
752906,33464,26508,42713,42713,331,301,-22,-2,-14,156,402,3894,26,47,836,1825,1888,2082,2240,2113,1857,1929,2088
753907,33532,26580,42778,42778,206,351,-19,8,-6,355,377,3953,27,48,835,1825,1888,2082,2240,2113,1857,1929,2088
754908,33572,26648,42843,42843,382,376,-19,15,-2,305,307,3890,28,37,835,1825,1888,2082,2240,2113,1857,1929,2088
755909,33656,26724,42908,42908,106,326,-17,12,3,295,339,3951,42,40,835,1825,1888,2082,2240,2113,1857,1929,2088
756910,33688,26796,42973,42973,432,350,-19,5,14,201,296,3955,36,42,834,1825,1888,2082,2240,2113,1857,1929,2088
757911,33752,26892,43038,43038,232,200,-14,3,12,106,287,3834,42,52,837,1825,1885,2078,2237,2114,1860,1930,2090
758912,33820,26940,43103,43103,207,500,-10,8,14,259,287,4023,28,50,834,1825,1885,2078,2237,2114,1860,1930,2090
759913,33864,27032,43168,43168,358,224,-13,6,13,206,263,3960,43,36,837,1825,1885,2078,2237,2114,1860,1930,2090
760914,33928,27124,43233,43233,233,224,-5,1,6,149,290,3970,27,49,834,1825,1885,2078,2237,2114,1860,1930,2090
761915,33984,27220,43298,43298,283,198,-3,18,-8,219,315,3907,45,35,835,1825,1885,2078,2237,2114,1860,1930,2090
762916,34036,27308,43363,43363,308,247,-6,9,-14,156,326,3924,39,43,837,1832,1886,2081,2239,2117,1863,1932,2092
763917,34088,27384,43428,43428,309,322,-2,11,-17,184,376,4060,45,35,836,1832,1886,2081,2239,2117,1863,1932,2092
764918,34148,27468,43493,43493,259,272,-7,19,-17,222,363,3922,37,36,836,1832,1886,2081,2239,2117,1863,1932,2092
765919,34208,27556,43558,43558,259,246,-6,8,-7,185,350,3876,28,38,835,1832,1886,2081,2239,2117,1863,1932,2092
766920,34268,27616,43623,43623,259,421,-13,4,3,190,343,3984,32,37,836,1832,1886,2081,2239,2117,1863,1932,2092
767921,34316,27712,43688,43688,334,196,-9,8,8,112,351,3962,35,46,834,1832,1886,2081,2239,2117,1863,1932,2092
768922,34396,27812,43753,43753,134,170,-16,0,15,213,363,3873,32,43,833,1828,1888,2087,2248,2116,1864,1932,2090
769923,34432,27876,43818,43818,410,395,-17,7,11,143,345,3959,42,44,836,1828,1888,2087,2248,2116,1864,1932,2090
770924,34504,27952,43883,43883,184,319,-11,14,10,94,344,3951,43,44,837,1828,1888,2087,2248,2116,1864,1932,2090
771925,34572,28036,43948,43948,209,269,-19,2,9,174,349,3932,44,42,834,1828,1888,2087,2248,2116,1864,1932,2090
772926,34628,28108,44013,44013,285,344,-14,7,3,212,291,3970,41,36,836,1828,1888,2087,2248,2116,1864,1932,2090
773927,34692,28188,44078,44078,235,293,-10,7,0,138,295,3894,27,42,837,1829,1886,2085,2243,2119,1870,1935,2092
774928,34748,28260,44143,44143,285,343,-9,5,-1,183,311,3945,27,45,835,1829,1886,2085,2243,2119,1870,1935,2092
775929,34812,28332,44208,44208,235,343,-12,10,-1,146,337,3867,29,36,836,1829,1886,2085,2243,2119,1870,1935,2092
776930,34876,28412,44273,44273,235,293,-6,-2,-4,174,289,4028,33,49,835,1829,1886,2085,2243,2119,1870,1935,2092
777931,34932,28488,44338,44338,285,317,-6,14,-7,358,364,4040,35,45,835,1829,1886,2085,2243,2119,1870,1935,2092
778932,34984,28556,44403,44403,310,367,-9,0,-1,354,325,3865,35,42,836,1829,1886,2085,2243,2119,1870,1935,2092
779933,35048,28632,44468,44468,235,317,-7,12,-2,279,351,3980,29,48,835,1829,1882,2081,2246,2115,1866,1931,2087
780934,35112,28732,44533,44533,236,166,-9,10,7,313,363,3908,34,39,835,1829,1882,2081,2246,2115,1866,1931,2087
781935,35168,28796,44598,44598,286,391,-14,21,7,347,412,3922,27,49,836,1829,1882,2081,2246,2115,1866,1931,2087
782936,35228,28864,44663,44663,261,366,-16,14,13,193,335,3900,27,43,837,1829,1882,2081,2246,2115,1866,1931,2087
783937,35276,28952,44728,44728,336,241,-13,10,18,81,464,3869,44,44,835,1829,1882,2081,2246,2115,1866,1931,2087
784938,35356,29028,44793,44793,136,315,-23,10,27,55,418,3895,27,33,833,1828,1879,2081,2247,2113,1866,1931,2087
785939,35420,29092,44858,44858,236,390,-30,10,15,141,430,3918,37,35,833,1828,1879,2081,2247,2113,1866,1931,2087
786940,35472,29188,44923,44923,311,190,-30,-6,8,35,332,3800,34,44,836,1828,1879,2081,2247,2113,1866,1931,2087
787941,35544,29232,44988,44988,186,515,-27,9,-7,112,380,4037,31,45,835,1828,1879,2081,2247,2113,1866,1931,2087
788942,35608,29320,45053,45053,236,240,-23,12,-12,159,300,3927,31,34,836,1828,1879,2081,2247,2113,1866,1931,2087
789943,35664,29376,45118,45118,286,440,-13,12,-12,302,263,3961,44,35,834,1828,1879,2081,2247,2113,1866,1931,2087
790944,35724,29452,45183,45183,261,315,-3,9,-14,374,286,3848,30,45,836,1827,1879,2079,2243,2118,1871,1934,2088
791945,35780,29528,45248,45248,287,314,2,19,-17,374,285,4049,28,37,834,1827,1879,2079,2243,2118,1871,1934,2088
792946,35868,29596,45313,45313,86,364,0,26,-10,265,268,3800,29,37,835,1827,1879,2079,2243,2118,1871,1934,2088
793947,35912,29680,45378,45378,362,264,8,32,3,345,246,4037,28,46,835,1827,1879,2079,2243,2118,1871,1934,2088
794948,35960,29740,45443,45443,337,414,14,40,11,227,341,4012,31,34,836,1827,1879,2079,2243,2118,1871,1934,2088
795949,36032,29820,45508,45508,187,289,6,30,15,-24,400,3789,31,38,835,1831,1881,2082,2251,2113,1867,1931,2083
796950,36088,29900,45573,45573,287,288,0,29,16,131,331,3954,47,41,834,1831,1881,2082,2251,2113,1867,1931,2083
797951,36168,29960,45638,45638,137,413,-1,28,9,143,371,3929,46,33,836,1831,1881,2082,2251,2113,1867,1931,2083
798952,36228,30036,45703,45703,262,313,-5,31,-4,-95,412,3935,31,44,835,1831,1881,2082,2251,2113,1867,1931,2083
799953,36292,30108,45768,45768,237,338,-13,16,-21,42,459,3735,42,35,835,1831,1881,2082,2251,2113,1867,1931,2083
800954,36364,30200,45833,45833,187,212,-14,13,-17,134,357,3968,29,46,835,1837,1883,2085,2257,2111,1867,1932,2083
801955,36428,30252,45898,45898,237,462,-17,11,-15,328,411,3922,29,41,833,1837,1883,2085,2257,2111,1867,1932,2083
802956,36504,30336,45963,45963,161,262,-10,11,-6,254,362,3935,36,43,834,1837,1883,2085,2257,2111,1867,1932,2083
803957,36564,30396,46028,46028,262,412,-17,15,5,333,367,4051,32,35,834,1837,1883,2085,2257,2111,1867,1932,2083
804958,36612,30460,46093,46093,337,387,-11,23,15,261,331,3804,43,39,837,1837,1883,2085,2257,2111,1867,1932,2083
805959,36684,30528,46158,46158,187,362,-13,16,20,228,339,3908,29,43,835,1837,1883,2085,2257,2111,1867,1932,2083
806960,36764,30600,46223,46223,136,337,-4,29,13,376,291,3995,30,36,834,1836,1881,2084,2254,2110,1864,1924,2074
807961,36812,30656,46288,46288,337,437,-2,23,14,287,216,3901,35,41,836,1836,1881,2084,2254,2110,1864,1924,2074
808962,36872,30700,46353,46353,262,513,6,27,5,199,354,4057,42,28,836,1836,1881,2084,2254,2110,1864,1924,2074
809963,36936,30768,46418,46418,237,363,6,28,-3,-70,345,3900,34,39,834,1836,1881,2084,2254,2110,1864,1924,2074
810964,36992,30832,46483,46483,287,388,1,19,-8,-22,276,3933,28,42,833,1836,1881,2084,2254,2110,1864,1924,2074
811965,37052,30908,46548,46548,262,312,10,28,-10,263,323,3981,30,39,835,1835,1880,2082,2252,2111,1867,1931,2083
812966,37120,30972,46613,46613,212,387,4,15,-14,153,301,3907,31,32,835,1835,1880,2082,2252,2111,1867,1931,2083
813967,37176,31012,46678,46678,287,538,2,12,-15,72,345,3947,37,41,835,1835,1880,2082,2252,2111,1867,1931,2083
814968,37248,31092,46743,46743,187,288,8,17,-4,156,349,3921,41,28,835,1835,1880,2082,2252,2111,1867,1931,2083
815969,37304,31152,46808,46808,288,413,-1,25,-1,250,434,3944,27,34,833,1835,1880,2082,2252,2111,1867,1931,2083
816970,37384,31228,46873,46873,137,312,-9,7,7,201,363,3771,36,39,836,1835,1880,2082,2252,2111,1867,1931,2083
817971,37416,31280,46938,46938,438,463,-6,33,4,293,431,4130,32,39,834,1837,1880,2081,2252,2109,1866,1932,2085
818972,37500,31336,47003,47003,113,438,-17,23,9,143,382,3849,41,39,834,1837,1880,2081,2252,2109,1866,1932,2085
819973,37560,31404,47068,47068,263,363,-22,19,7,280,371,3840,31,30,830,1837,1880,2081,2252,2109,1866,1932,2085
820974,37612,31464,47133,47133,313,413,-12,21,-2,264,305,4093,29,40,835,1837,1880,2081,2252,2109,1866,1932,2085
821975,37672,31540,47198,47198,263,313,-11,19,-10,102,374,3843,34,44,835,1837,1880,2081,2252,2109,1866,1932,2085
822976,37736,31600,47263,47263,238,413,-9,12,-6,108,265,3793,47,37,834,1838,1880,2081,2253,2113,1871,1934,2087
823977,37804,31684,47328,47328,213,262,-7,14,-6,82,322,4275,27,42,835,1838,1880,2081,2253,2113,1871,1934,2087
824978,37860,31744,47393,47393,288,413,-3,7,5,72,252,3815,29,30,834,1838,1880,2081,2253,2113,1871,1934,2087
825979,37932,31816,47458,47458,188,337,1,5,12,110,343,3936,40,42,836,1838,1880,2081,2253,2113,1871,1934,2087
826980,37992,31888,47523,47523,263,337,-6,4,17,27,325,3916,43,30,834,1838,1880,2081,2253,2113,1871,1934,2087
827981,38056,31968,47588,47588,238,287,-3,10,8,185,351,3955,33,46,835,1838,1880,2081,2253,2113,1871,1934,2087
828982,38128,32028,47653,47653,188,412,0,10,5,286,385,3970,41,41,835,1838,1881,2085,2255,2115,1873,1934,2088
829983,38200,32084,47718,47718,188,437,-8,-2,-1,83,332,3790,34,35,836,1838,1881,2085,2255,2115,1873,1934,2088
830984,38260,32148,47783,47783,263,387,-6,4,-12,338,400,4010,46,40,835,1838,1881,2085,2255,2115,1873,1934,2088
831986,38316,32224,47848,47848,288,312,-5,10,-8,247,312,3967,45,45,835,1838,1881,2085,2255,2115,1873,1934,2088
832986,38392,32296,47913,47913,163,337,-4,15,-12,309,359,3912,31,39,835,1838,1881,2085,2255,2115,1873,1934,2088
833987,38460,32372,47978,47978,213,312,-10,15,-5,292,320,3911,34,46,836,1840,1879,2083,2259,2109,1869,1932,2083
834988,38508,32432,48043,48043,338,412,-10,9,4,105,326,3968,44,36,834,1840,1879,2083,2259,2109,1869,1932,2083
835989,38576,32500,48108,48108,213,362,-11,1,6,160,387,3862,27,40,832,1840,1879,2083,2259,2109,1869,1932,2083
836990,38644,32568,48173,48173,213,361,-13,10,10,280,341,3983,33,40,835,1840,1879,2083,2259,2109,1869,1932,2083
837991,38700,32644,48238,48238,288,311,-12,11,9,203,309,3921,44,48,835,1840,1879,2083,2259,2109,1869,1932,2083
838992,38752,32716,48303,48303,314,336,-13,5,13,73,385,3921,31,35,836,1840,1879,2083,2259,2109,1869,1932,2083
839993,38812,32784,48368,48368,264,361,-16,-1,9,135,308,3944,30,45,835,1841,1879,2084,2260,2109,1868,1931,2081
840994,38864,32868,48433,48433,314,261,-16,11,3,191,321,4043,39,36,835,1841,1879,2084,2260,2109,1868,1931,2081
841995,38944,32932,48498,48498,139,386,-6,10,3,191,312,3806,30,35,835,1841,1879,2084,2260,2109,1868,1931,2081
842996,39020,33012,48563,48563,163,285,-8,-3,6,25,339,3877,29,42,836,1841,1879,2084,2260,2109,1868,1931,2081
843997,39068,33092,48628,48628,339,285,-5,11,-4,121,350,4087,41,37,837,1841,1879,2084,2260,2109,1868,1931,2081
844998,39140,33152,48693,48693,189,410,-1,16,-11,274,322,3915,39,40,835,1839,1879,2086,2264,2112,1873,1934,2083
845999,39204,33240,48758,48758,239,234,-7,6,-9,282,371,3896,36,47,835,1839,1879,2086,2264,2112,1873,1934,2083
847000,39276,33304,48823,48823,189,384,-2,12,-18,297,390,3946,39,39,836,1839,1879,2086,2264,2112,1873,1934,2083
848001,39328,33380,48888,48888,314,309,-1,17,-11,312,299,4088,44,47,835,1839,1879,2086,2264,2112,1873,1934,2083
849002,39408,33444,48953,48953,139,384,5,18,-9,367,350,3785,43,37,835,1839,1879,2086,2264,2112,1873,1934,2083
850003,39456,33508,49152,49152,342,387,2,13,6,164,303,3890,44,44,836,1839,1879,2086,2264,2112,1873,1934,2083
851004,39532,33576,49217,49217,167,362,0,19,18,134,391,3994,30,37,834,1841,1877,2084,2262,2109,1872,1935,2083
852005,39592,33652,49282,49282,267,312,-4,17,27,117,385,3843,39,50,834,1841,1877,2084,2262,2109,1872,1935,2083
853006,39660,33740,49347,49347,217,237,-7,22,27,123,390,3920,29,42,833,1841,1877,2084,2262,2109,1872,1935,2083
854007,39728,33800,49412,49412,217,412,-8,19,14,117,356,3902,35,33,836,1841,1877,2084,2262,2109,1872,1935,2083
855008,39784,33880,49477,49477,292,286,-2,19,-4,198,413,3935,34,46,835,1841,1877,2084,2262,2109,1872,1935,2083
856009,39844,33940,49542,49542,267,411,-11,6,-19,7,409,3875,48,43,835,1845,1879,2086,2266,2110,1872,1933,2082
857010,39920,34016,49607,49607,167,311,-10,12,-27,76,355,4062,30,48,834,1845,1879,2086,2266,2110,1872,1933,2082
858011,39992,34112,49672,49672,192,185,-9,10,-27,186,365,3907,30,41,836,1845,1879,2086,2266,2110,1872,1933,2082
859012,40040,34164,49737,49737,342,461,-6,12,-20,300,312,3848,37,38,837,1845,1879,2086,2266,2110,1872,1933,2082
860013,40124,34232,49802,49802,117,361,-6,14,-7,201,361,4064,43,47,833,1845,1879,2086,2266,2110,1872,1933,2082
861014,40180,34312,49867,49867,292,285,-8,13,9,215,236,3927,38,45,836,1845,1879,2086,2266,2110,1872,1933,2082
862015,40264,34384,49932,49932,117,335,-5,25,14,347,363,3960,33,40,835,1846,1881,2087,2266,2109,1872,1932,2081
863016,40308,34436,49997,49997,367,460,-3,18,26,122,295,3812,41,48,836,1846,1881,2087,2266,2109,1872,1932,2081
864017,40400,34528,50062,50062,66,210,-9,11,15,203,422,3967,31,46,833,1846,1881,2087,2266,2109,1872,1932,2081
865018,40456,34588,50127,50127,292,410,-10,24,1,235,333,3903,32,40,837,1846,1881,2087,2266,2109,1872,1932,2081
866019,40516,34680,50192,50192,267,209,-13,20,-7,209,375,3970,36,45,834,1846,1881,2087,2266,2109,1872,1932,2081
867020,40584,34752,50257,50257,217,334,-13,20,-18,229,411,3829,33,42,836,1844,1875,2082,2260,2107,1871,1932,2083
868021,40664,34840,50322,50322,141,233,-19,6,-18,-46,342,3885,41,47,835,1844,1875,2082,2260,2107,1871,1932,2083
869022,40736,34900,50387,50387,191,409,-17,17,-13,98,352,4144,49,37,835,1844,1875,2082,2260,2107,1871,1932,2083
870023,40796,34988,50452,50452,266,233,-19,13,-8,96,358,3830,34,46,833,1844,1875,2082,2260,2107,1871,1932,2083
871026,40860,35044,50517,50517,241,433,-21,4,9,5,361,3859,46,36,836,1844,1875,2082,2260,2107,1871,1932,2083
872025,40940,35120,50582,50582,141,308,-24,-2,14,137,356,3982,45,47,835,1844,1875,2082,2260,2107,1871,1932,2083
873026,41008,35196,50647,50647,216,308,-25,1,15,120,312,3968,50,40,836,1843,1875,2082,2262,2110,1873,1933,2083
874027,41068,35276,50712,50712,266,282,-19,3,8,256,331,3796,42,40,835,1843,1875,2082,2262,2110,1873,1933,2083
875028,41164,35344,50777,50777,40,357,-14,16,-1,312,363,3964,37,35,835,1843,1875,2082,2262,2110,1873,1933,2083
876029,41232,35428,50842,50842,215,257,-12,2,-9,128,280,4030,39,46,837,1843,1875,2082,2262,2110,1873,1933,2083
877030,41276,35504,50907,50907,366,307,-10,15,-15,202,380,4061,45,41,836,1843,1875,2082,2262,2110,1873,1933,2083
878031,41344,35572,50972,50972,216,356,-10,4,-13,217,357,3807,52,39,835,1844,1878,2085,2264,2112,1875,1936,2083
879032,41420,35644,51037,51037,165,331,-7,-1,-4,-12,295,3837,35,51,835,1844,1878,2085,2264,2112,1875,1936,2083
880033,41496,35720,51102,51102,165,306,-7,9,0,68,234,4098,34,45,836,1844,1878,2085,2264,2112,1875,1936,2083
881034,41572,35780,51167,51167,165,406,-7,13,4,458,344,3915,42,43,836,1844,1878,2085,2264,2112,1875,1936,2083
882035,41632,35860,51232,51232,265,281,-10,3,3,388,396,3779,46,39,835,1844,1878,2085,2264,2112,1875,1936,2083
883036,41716,35940,51297,51297,114,280,-13,-3,3,-148,368,4041,33,38,835,1844,1878,2085,2264,2112,1875,1936,2083
884037,41784,36012,51362,51362,214,330,-18,10,7,106,366,4077,47,39,836,1849,1880,2086,2269,2105,1870,1933,2079
885038,41852,36064,51427,51427,214,456,-10,9,10,356,364,3779,46,46,835,1849,1880,2086,2269,2105,1870,1933,2079
886039,41928,36148,51492,51492,164,255,-22,1,3,205,434,3858,41,37,832,1849,1880,2086,2269,2105,1870,1933,2079
887040,42004,36220,51557,51557,164,330,-20,1,-4,161,367,3955,37,48,834,1849,1880,2086,2269,2105,1870,1933,2079
888041,42088,36288,51622,51622,113,355,-24,3,-2,227,382,3946,42,51,836,1849,1880,2086,2269,2105,1870,1933,2079
889042,42176,36352,51687,51687,88,380,-24,10,-3,153,260,3951,34,50,836,1851,1877,2085,2266,2102,1868,1929,2075
890043,42236,36432,51752,51752,263,280,-14,7,1,286,357,3903,47,49,836,1851,1877,2085,2266,2102,1868,1929,2075
891044,42296,36500,51817,51817,263,354,-10,1,0,109,335,3897,43,36,835,1851,1877,2085,2266,2102,1868,1929,2075
892045,42380,36576,51882,51882,112,304,-5,-1,1,-84,272,3960,53,49,835,1851,1877,2085,2266,2102,1868,1929,2075
893046,42460,36644,51947,51947,137,354,1,14,4,128,279,4047,47,39,837,1851,1877,2085,2266,2102,1868,1929,2075
894047,42540,36712,52012,52012,137,354,1,10,8,285,272,3821,52,52,836,1851,1877,2085,2266,2102,1868,1929,2075
895048,42612,36784,52077,52077,187,329,2,-2,10,211,386,3827,37,50,836,1850,1881,2088,2269,2108,1872,1932,2080
896049,42688,36864,52142,52142,161,278,-3,-11,-1,-22,377,3948,33,47,835,1850,1881,2088,2269,2108,1872,1932,2080
897050,42768,36940,52207,52207,136,303,-5,-4,-2,16,313,4022,51,46,836,1850,1881,2088,2269,2108,1872,1932,2080
898051,42856,37004,52272,52272,85,378,-7,7,-7,335,426,3953,36,49,836,1850,1881,2088,2269,2108,1872,1932,2080
899052,42932,37092,52337,52337,160,228,-13,-6,-7,346,348,3764,42,38,836,1850,1881,2088,2269,2108,1872,1932,2080
900053,43028,37184,52402,52402,34,202,-8,-6,-7,274,335,4087,52,46,836,1850,1879,2086,2269,2106,1872,1934,2083
901054,43128,37260,52467,52467,9,302,-9,2,-4,308,295,3936,43,49,838,1850,1879,2086,2269,2106,1872,1934,2083
902055,43228,37344,52532,52532,8,251,-11,12,1,370,377,3963,51,46,837,1850,1879,2086,2269,2106,1872,1934,2083
903056,43292,37408,52597,52597,233,376,-13,4,2,236,324,3748,34,49,836,1850,1879,2086,2269,2106,1872,1934,2083
904057,43392,37476,52662,52662,7,351,-5,9,4,0,372,4025,48,54,832,1850,1879,2086,2269,2106,1872,1934,2083
905058,43492,37564,52727,52727,6,226,-6,10,9,198,316,4029,52,47,836,1850,1879,2086,2269,2106,1872,1934,2083
906059,43560,37644,52792,52792,206,275,-3,13,1,-23,396,3919,53,56,837,1850,1879,2086,2267,2111,1875,1936,2084
907060,43628,37716,52857,52857,206,325,-3,-1,3,92,342,3771,46,51,836,1850,1879,2086,2267,2111,1875,1936,2084
908061,43696,37792,52922,52922,206,300,-2,-2,1,26,347,3938,41,49,835,1850,1879,2086,2267,2111,1875,1936,2084
909062,43768,37876,52987,52987,181,249,-4,1,-10,21,338,4011,42,54,835,1850,1879,2086,2267,2111,1875,1936,2084
910063,43852,37960,53052,53052,105,249,0,-5,-13,125,374,3864,34,50,836,1850,1879,2086,2267,2111,1875,1936,2084
911064,43936,38036,53117,53117,105,299,-3,-9,-11,217,351,3925,48,43,836,1847,1879,2090,2270,2112,1874,1936,2083
912065,44016,38108,53182,53182,129,324,-1,-6,-9,190,327,3945,45,57,836,1847,1879,2090,2270,2112,1874,1936,2083
913066,44096,38188,53247,53247,129,273,-7,-3,2,288,354,3961,51,52,836,1847,1879,2090,2270,2112,1874,1936,2083
914067,44152,38268,53312,53312,279,273,-17,-8,8,226,463,3774,49,46,836,1847,1879,2090,2270,2112,1874,1936,2083
915068,44232,38360,53377,53377,129,197,-19,-8,12,192,316,4116,50,45,835,1847,1879,2090,2270,2112,1874,1936,2083
916069,44304,38440,53442,53442,179,272,-19,2,2,304,387,3942,41,45,837,1847,1879,2090,2270,2112,1874,1936,2083
917070,44380,38520,53507,53507,153,271,-21,4,-2,225,344,3789,35,47,836,1851,1880,2087,2267,2108,1873,1931,2083
918071,44476,38608,53572,53572,28,221,-18,9,0,411,385,3962,37,46,836,1851,1880,2087,2267,2108,1873,1931,2083
919072,44544,38696,53637,53637,202,220,-19,1,-2,351,357,3952,37,45,837,1851,1880,2087,2267,2108,1873,1931,2083
920073,44616,38772,53702,53702,177,295,-16,-1,-1,173,321,3967,54,49,836,1851,1880,2087,2267,2108,1873,1931,2083
921074,44692,38860,53767,53767,152,219,-17,5,6,-20,358,3932,40,55,834,1851,1880,2087,2267,2108,1873,1931,2083
922075,44756,38944,53832,53832,227,244,-16,10,8,60,336,4008,52,42,836,1849,1880,2086,2264,2110,1873,1934,2085
923076,44844,39016,53897,53897,77,319,-16,8,0,217,333,3898,37,47,835,1849,1880,2086,2264,2110,1873,1934,2085
924077,44912,39084,53962,53962,201,344,-14,-3,-2,262,347,3867,43,52,836,1849,1880,2086,2264,2110,1873,1934,2085
925078,44968,39172,54027,54027,277,218,-13,-6,-1,5,345,3946,47,58,835,1849,1880,2086,2264,2110,1873,1934,2085
926079,45048,39240,54092,54092,126,343,-18,-10,-12,-64,353,3961,38,59,836,1849,1880,2086,2264,2110,1873,1934,2085
927080,45148,39324,54157,54157,0,243,-17,-10,-11,268,308,3878,54,45,835,1849,1880,2086,2264,2110,1873,1934,2085
928081,45212,39400,54222,54222,225,292,-15,-1,-2,463,353,4048,41,57,837,1850,1882,2088,2267,2112,1874,1937,2087
929082,45316,39492,54287,54287,-25,192,-18,-7,-2,189,371,3844,47,43,835,1850,1882,2088,2267,2112,1874,1937,2087
930083,45392,39564,54352,54352,149,317,-24,-15,-3,-23,407,3850,43,53,838,1850,1882,2088,2267,2112,1874,1937,2087
931084,45476,39656,54417,54417,99,191,-21,-7,5,90,412,4028,48,48,835,1850,1882,2088,2267,2112,1874,1937,2087
932085,45540,39748,54482,54482,224,190,-32,-7,8,206,381,3875,41,50,836,1850,1882,2088,2267,2112,1874,1937,2087
933086,45628,39844,54547,54547,73,164,-28,-13,6,309,391,3872,54,46,836,1852,1884,2089,2269,2107,1870,1936,2088
934087,45712,39932,54612,54612,98,214,-28,1,15,381,407,4054,41,48,837,1852,1884,2089,2269,2107,1870,1936,2088
935088,45800,40020,54677,54677,72,213,-32,-1,10,382,372,3839,41,42,837,1852,1884,2089,2269,2107,1870,1936,2088
936089,45880,40124,54742,54742,122,112,-36,-2,4,258,395,3981,55,55,837,1852,1884,2089,2269,2107,1870,1936,2088
937090,45972,40192,54807,54807,46,337,-37,1,-2,103,338,3938,41,50,837,1852,1884,2089,2269,2107,1870,1936,2088
938091,46048,40280,54872,54872,146,212,-29,4,-5,131,311,3970,54,56,834,1852,1884,2089,2269,2107,1870,1936,2088
939092,46124,40360,54937,54937,146,261,-29,2,-6,333,301,3851,42,61,837,1854,1883,2089,2270,2111,1875,1935,2086
940093,46212,40440,55002,55002,70,261,-21,6,-12,140,299,3912,57,62,836,1854,1883,2089,2270,2111,1875,1935,2086
941094,46288,40536,55067,55067,145,160,-21,1,-7,291,266,3967,56,56,837,1854,1883,2089,2270,2111,1875,1935,2086
942095,46388,40620,55132,55132,-6,235,-21,-3,-10,298,309,3936,54,59,837,1854,1883,2089,2270,2111,1875,1935,2086
943096,46452,40720,55197,55197,219,134,-18,-1,-2,98,302,3951,46,57,838,1854,1883,2089,2270,2111,1875,1935,2086
944097,46528,40804,55262,55262,144,233,-20,1,4,258,358,3834,42,47,837,1853,1881,2089,2270,2109,1873,1934,2084
945098,46608,40908,55327,55327,118,108,-17,-2,11,-66,294,4003,40,60,837,1853,1881,2089,2270,2109,1873,1934,2084
946099,46684,40988,55392,55392,143,257,-22,-9,9,-42,421,4008,54,49,838,1853,1881,2089,2270,2109,1873,1934,2084
947100,46772,41080,55457,55457,68,182,-17,1,7,-48,356,3956,50,62,837,1853,1881,2089,2270,2109,1873,1934,2084
948101,46848,41164,55522,55522,142,231,-20,12,5,368,403,3895,53,49,837,1853,1881,2089,2270,2109,1873,1934,2084
949102,46904,41252,55587,55587,267,205,-21,-7,5,225,388,3866,47,48,837,1853,1881,2089,2270,2109,1873,1934,2084
950103,46988,41348,55652,55652,92,155,-21,0,10,118,308,3953,48,45,836,1853,1879,2087,2272,2106,1872,1933,2081
951104,47088,41412,55717,55717,-9,355,-19,-2,2,14,313,3958,40,63,837,1853,1879,2087,2272,2106,1872,1933,2081
952105,47176,41476,55782,55782,66,355,-9,12,1,105,257,3965,54,62,837,1853,1879,2087,2272,2106,1872,1933,2081
953106,47256,41576,55847,55847,115,129,-6,8,2,711,321,3904,44,49,836,1853,1879,2087,2272,2106,1872,1933,2081
954107,47328,41664,55912,55912,165,203,-4,6,-9,330,390,3919,46,54,837,1853,1879,2087,2272,2106,1872,1933,2081
955108,47416,41760,55977,55977,65,153,-6,8,-14,31,287,4093,39,59,834,1855,1881,2088,2271,2105,1871,1933,2081
956109,47500,41856,56042,56042,89,152,-4,13,-11,242,331,3912,47,62,838,1855,1881,2088,2271,2105,1871,1933,2081
957110,47596,41928,56107,56107,13,302,-13,-3,-12,-47,381,3883,42,58,838,1855,1881,2088,2271,2105,1871,1933,2081
958111,47644,42008,56172,56172,314,251,-9,16,-19,52,332,4212,50,63,837,1855,1881,2088,2271,2105,1871,1933,2081
959112,47736,42112,56237,56237,38,100,-9,15,-5,62,317,3719,44,59,835,1855,1881,2088,2271,2105,1871,1933,2081
960113,47840,42204,56302,56302,-38,175,-8,-9,-1,-6,367,3864,58,54,838,1855,1881,2088,2271,2105,1871,1933,2081
961114,47924,42284,56367,56367,87,249,-6,11,-2,-54,333,4049,40,60,838,1856,1883,2090,2276,2108,1874,1936,2083
962115,48000,42400,56432,56432,136,23,-3,-17,6,309,313,3812,54,59,837,1856,1883,2090,2276,2108,1874,1936,2083
963116,48092,42524,56497,56497,36,-28,4,-1,10,24,340,4059,40,55,838,1856,1883,2090,2276,2108,1874,1936,2083
964117,48160,42616,56562,56562,186,171,-2,-8,-1,-4,426,3818,49,55,839,1856,1883,2090,2276,2108,1874,1936,2083
965118,48232,42684,56627,56627,160,321,-2,-2,-3,283,358,3886,38,52,837,1856,1883,2090,2276,2108,1874,1936,2083
966119,48300,42780,56692,56692,185,145,-7,0,8,592,415,3734,42,62,836,1860,1884,2092,2276,2108,1875,1935,2085
967120,48384,42872,56757,56757,85,169,-13,5,9,620,380,4003,58,60,837,1860,1884,2092,2276,2108,1875,1935,2085
968121,48492,42980,56822,56822,-66,68,-6,-1,0,135,323,4059,56,61,838,1860,1884,2092,2276,2108,1875,1935,2085
969122,48564,43084,56887,56887,159,92,-3,-2,1,-162,360,3976,39,60,837,1860,1884,2092,2276,2108,1875,1935,2085
970123,48636,43164,56952,56952,159,242,-3,20,7,399,313,3745,43,62,838,1860,1884,2092,2276,2108,1875,1935,2085
971124,48708,43236,57017,57017,158,292,-7,28,2,439,377,4035,47,59,838,1860,1884,2092,2276,2108,1875,1935,2085
972125,48776,43300,57082,57082,183,342,-8,23,8,374,353,3827,57,49,834,1858,1882,2087,2271,2110,1877,1935,2086
973126,48856,43396,57147,57147,108,141,-10,8,12,106,362,3851,57,64,836,1858,1882,2087,2271,2110,1877,1935,2086
974127,48936,43488,57212,57212,108,166,-7,0,8,72,277,3879,46,64,838,1858,1882,2087,2271,2110,1877,1935,2086
975128,49008,43600,57277,57277,157,39,2,14,-4,222,295,4269,45,62,838,1858,1882,2087,2271,2110,1877,1935,2086
976129,49100,43696,57342,57342,32,139,3,5,5,-69,321,3850,54,64,838,1858,1882,2087,2271,2110,1877,1935,2086
977130,49180,43784,57407,57407,106,188,5,34,-5,111,476,3938,42,54,838,1853,1877,2086,2272,2110,1877,1936,2083
978131,49280,43864,57472,57472,-19,238,-8,14,-13,37,353,3662,37,60,838,1853,1877,2086,2272,2110,1877,1936,2083
979132,49352,43948,57537,57537,155,212,-11,-1,-18,48,462,4319,47,50,838,1853,1877,2086,2272,2110,1877,1936,2083
980133,49420,44048,57602,57602,180,111,-7,-1,-13,226,323,3764,41,56,837,1853,1877,2086,2272,2110,1877,1936,2083
981134,49484,44132,57667,57667,205,211,-5,-14,-6,81,328,3715,41,50,838,1853,1877,2086,2272,2110,1877,1936,2083
982135,49552,44212,57732,57732,180,236,-1,11,-2,-3,332,4087,41,58,837,1853,1877,2086,2272,2110,1877,1936,2083
983136,49648,44320,57797,57797,4,60,-8,-2,4,343,333,3887,44,53,837,1856,1879,2088,2274,2107,1875,1935,2082
984137,49736,44400,57862,57862,54,234,-5,9,4,510,431,4082,43,48,839,1856,1879,2088,2274,2107,1875,1935,2082
985138,49812,44480,57927,57927,129,234,-17,1,3,255,382,3789,43,57,838,1856,1879,2088,2274,2107,1875,1935,2082
986139,49892,44572,57992,57992,103,158,-20,6,5,196,363,3790,45,47,837,1856,1879,2088,2274,2107,1875,1935,2082
987140,49960,44652,58057,58057,178,233,-26,22,7,542,351,4136,54,49,838,1856,1879,2088,2274,2107,1875,1935,2082
988141,50028,44756,58122,58122,178,82,-23,26,4,268,369,3948,54,64,837,1859,1883,2093,2276,2106,1874,1936,2085
989142,50132,44864,58187,58187,-48,56,-27,-6,7,-218,336,3776,43,51,836,1859,1883,2093,2276,2106,1874,1936,2085
990143,50196,44968,58252,58252,202,80,-20,7,2,62,321,4171,37,64,839,1859,1883,2093,2276,2106,1874,1936,2085
991144,50276,45068,58317,58317,102,104,-18,7,1,164,298,3878,45,59,838,1859,1883,2093,2276,2106,1874,1936,2085
992145,50356,45136,58382,58382,101,304,-12,0,1,56,284,3766,42,58,839,1859,1883,2093,2276,2106,1874,1936,2085
993146,50428,45216,58447,58447,151,229,-10,3,2,265,401,3873,56,66,837,1859,1883,2093,2276,2106,1874,1936,2085
994147,50480,45308,58512,58512,277,153,-9,-4,2,195,313,4035,42,56,837,1858,1880,2090,2275,2110,1878,1939,2085
995148,50588,45408,58577,58577,-74,102,-9,-4,0,108,320,3937,37,50,837,1858,1880,2090,2275,2110,1878,1939,2085
996149,50648,45500,58642,58642,226,151,-15,-1,1,90,432,3831,44,57,837,1858,1880,2090,2275,2110,1878,1939,2085
997150,50720,45592,58707,58707,150,151,-17,20,4,278,387,4093,47,62,838,1858,1880,2090,2275,2110,1878,1939,2085
998151,50816,45688,58772,58772,0,125,-17,17,2,246,353,3845,40,67,838,1858,1880,2090,2275,2110,1878,1939,2085
999152,50892,45800,58837,58837,124,24,-21,8,-3,280,407,3887,49,67,839,1858,1880,2088,2274,2106,1874,1934,2081
1000153,50984,45888,58902,58902,24,173,-20,9,-6,244,370,4026,47,59,839,1858,1880,2088,2274,2106,1874,1934,2081
1001154,51064,45956,58967,58967,98,298,-20,2,-4,132,249,4004,56,62,839,1858,1880,2088,2274,2106,1874,1934,2081
1002155,51152,46052,59032,59032,48,122,-8,11,-5,119,281,3895,51,55,837,1858,1880,2088,2274,2106,1874,1934,2081
1003156,51236,46132,59097,59097,72,222,-11,13,-4,112,342,4000,53,65,839,1858,1880,2088,2274,2106,1874,1934,2081
1004157,51308,46232,59162,59162,147,96,-10,10,0,76,281,3899,46,67,838,1858,1880,2088,2274,2106,1874,1934,2081
1005158,51380,46352,59227,59227,147,-30,-5,-2,1,354,312,3813,44,50,838,1860,1880,2089,2277,2106,1875,1935,2081
1006159,51468,46444,59292,59292,47,144,0,-2,2,143,347,4057,48,65,836,1860,1880,2089,2277,2106,1875,1935,2081
1007160,51540,46508,59357,59357,146,319,-11,3,2,55,361,3863,39,53,839,1860,1880,2089,2277,2106,1875,1935,2081
1008161,51624,46612,59422,59422,71,68,-9,6,-5,259,404,3871,54,60,837,1860,1880,2089,2277,2106,1875,1935,2081
1009162,51696,46732,59487,59487,146,-33,-11,5,-2,530,374,4070,45,65,839,1860,1880,2089,2277,2106,1875,1935,2081
1010163,51752,46828,59552,59552,246,116,-13,8,-6,319,404,3982,37,52,839,1866,1884,2093,2279,2103,1878,1940,2086
1011164,51848,46912,59617,59617,-5,191,-17,15,-6,73,379,3702,36,55,838,1866,1884,2093,2279,2103,1878,1940,2086
1012165,51920,47012,59682,59682,145,90,-14,22,-4,427,339,3971,41,61,839,1866,1884,2093,2279,2103,1878,1940,2086
1013166,52004,47112,59747,59747,70,89,-16,13,-4,256,322,4032,40,48,838,1866,1884,2093,2279,2103,1878,1940,2086
1014167,52068,47184,59812,59812,195,264,-13,20,0,-42,295,4077,41,60,839,1866,1884,2093,2279,2103,1878,1940,2086
1015168,52132,47260,59877,59877,195,239,-8,24,2,147,292,3752,52,62,837,1866,1884,2093,2279,2103,1878,1940,2086
1016169,52216,47344,59942,59942,69,188,-5,6,8,48,325,3843,40,55,837,1866,1885,2094,2282,2106,1876,1936,2082
1017170,52304,47420,60007,60007,44,238,-13,10,6,-59,354,4090,51,59,838,1866,1885,2094,2282,2106,1876,1936,2082
1018171,52368,47536,60072,60072,194,-13,-6,22,0,379,293,4000,52,48,838,1866,1885,2094,2282,2106,1876,1936,2082
1019172,52440,47632,60137,60137,143,111,-5,-8,3,173,322,3786,39,52,839,1866,1885,2094,2282,2106,1876,1936,2082
1020173,52520,47732,60202,60202,93,85,-4,-12,-4,-123,354,3820,41,58,838,1866,1885,2094,2282,2106,1876,1936,2082
1021174,52584,47816,60267,60267,193,184,0,11,-5,25,363,4010,49,63,839,1865,1881,2091,2279,2107,1878,1936,2081
1022175,52660,47908,60332,60332,118,134,-7,3,-14,221,338,3933,47,49,838,1865,1881,2091,2279,2107,1878,1936,2081
1023176,52736,48012,60397,60397,118,58,-5,1,-8,433,335,3876,47,63,836,1865,1881,2091,2279,2107,1878,1936,2081
1024177,52812,48100,60462,60462,117,157,-2,-1,-1,252,371,3942,38,65,839,1865,1881,2091,2279,2107,1878,1936,2081
1025178,52888,48192,60527,60527,117,132,0,3,2,248,346,3794,53,56,838,1865,1881,2091,2279,2107,1878,1936,2081
1026179,52960,48272,60592,60592,142,206,-3,12,5,438,332,4023,43,63,838,1862,1880,2088,2277,2104,1877,1935,2080
1027180,53044,48368,60657,60657,66,106,0,21,7,331,334,4038,54,59,838,1862,1880,2088,2277,2104,1877,1935,2080
1028181,53120,48484,60722,60722,116,-21,-5,24,6,304,373,3857,42,53,839,1862,1880,2088,2277,2104,1877,1935,2080
1029182,53216,48588,60787,60787,-10,53,-7,35,1,65,387,3952,44,54,839,1862,1880,2088,2277,2104,1877,1935,2080
1030183,53276,48692,60852,60852,215,52,-19,22,-1,-13,398,3919,50,61,840,1862,1880,2088,2277,2104,1877,1935,2080
1031184,53344,48780,60917,60917,165,152,-16,19,-9,9,344,4226,44,62,838,1862,1880,2088,2277,2104,1877,1935,2080
1032185,53428,48872,60982,60982,65,126,-14,1,-2,-36,355,3328,41,49,838,1862,1877,2088,2279,2105,1877,1933,2078
1033186,53500,48956,61047,61047,140,176,-14,-15,-3,96,323,4281,58,63,838,1862,1877,2088,2279,2105,1877,1933,2078
1034187,53572,49040,61112,61112,140,175,-6,5,-2,-91,273,4033,44,63,838,1862,1877,2088,2279,2105,1877,1933,2078
1035188,53648,49116,61177,61177,114,225,1,0,1,110,308,3816,46,62,838,1862,1877,2088,2279,2105,1877,1933,2078
1036189,53720,49196,61242,61242,139,200,-3,13,6,523,381,3949,38,47,838,1862,1877,2088,2279,2105,1877,1933,2078
1037190,53800,49304,61307,61307,89,24,1,16,4,51,303,4101,48,47,838,1865,1881,2093,2283,2106,1878,1937,2083
1038191,53852,49388,61372,61372,264,173,-8,-6,-3,407,506,3891,59,57,839,1865,1881,2093,2283,2106,1878,1937,2083
1039192,53968,49468,61437,61437,-137,198,-15,-9,3,85,317,3571,41,52,837,1865,1881,2093,2283,2106,1878,1937,2083
1040193,54036,49556,61502,61502,163,147,-10,22,-4,264,459,4354,52,63,825,1865,1881,2093,2283,2106,1878,1937,2083
1041194,54108,49652,61567,61567,138,96,-8,15,-5,257,363,3843,41,65,838,1865,1881,2093,2283,2106,1878,1937,2083
1042195,54196,49748,61632,61632,37,96,-9,-2,1,246,253,3754,41,55,838,1865,1881,2093,2283,2106,1878,1937,2083
1043196,54268,49844,61697,61697,137,95,-7,1,-3,224,288,3950,40,59,839,1869,1883,2096,2272,2088,1873,1939,2085
1044197,54348,49932,61762,61762,87,144,-4,17,-3,211,355,4056,41,60,838,1869,1883,2096,2272,2088,1873,1939,2085
1045198,54444,50032,61827,61827,-14,68,-11,25,0,319,318,3875,56,58,839,1869,1883,2096,2272,2088,1873,1939,2085
1046199,54516,50100,61892,61892,136,268,-11,18,2,234,398,3865,44,64,839,1869,1883,2096,2272,2088,1873,1939,2085
1047200,54604,50184,61957,61957,35,168,-8,35,8,208,372,4062,54,50,838,1869,1883,2096,2272,2088,1873,1939,2085
1048201,54696,50276,62022,62022,9,117,-18,6,10,43,418,3783,43,48,839,1869,1883,2093,2285,2103,1877,1935,2078
1049202,54752,50388,62087,62087,235,-9,-20,23,3,87,404,4124,37,50,839,1869,1883,2093,2285,2103,1877,1935,2078
1050203,54844,50476,62152,62152,9,141,-24,16,2,-63,377,3816,54,60,838,1869,1883,2093,2285,2103,1877,1935,2078
1051204,54912,50580,62217,62217,159,40,-19,3,8,-71,345,3901,45,51,839,1869,1883,2093,2285,2103,1877,1935,2078
1052205,54984,50680,62282,62282,134,64,-23,2,1,1,335,4010,52,52,839,1869,1883,2093,2285,2103,1877,1935,2078
1053206,55080,50784,62347,62347,-17,38,-19,-8,2,-3,263,3670,40,59,839,1869,1883,2093,2285,2103,1877,1935,2078
1054207,55156,50896,62412,62412,108,-13,-10,1,-6,142,320,4177,46,51,839,1864,1877,2088,2279,2103,1876,1933,2079
1055208,55224,50976,62477,62477,158,186,-4,-5,-3,214,204,3852,37,59,839,1864,1877,2088,2279,2103,1876,1933,2079
1056209,55304,51072,62542,62542,82,86,0,-6,-9,515,329,3841,46,47,838,1864,1877,2088,2279,2103,1876,1933,2079
1057210,55380,51152,62607,62607,107,185,2,13,-10,439,303,4037,45,50,836,1864,1877,2088,2279,2103,1876,1933,2079
1058211,55468,51240,62672,62672,31,135,3,10,-8,476,305,3812,51,57,838,1864,1877,2088,2279,2103,1876,1933,2079
1059212,55528,51336,62737,62737,207,84,-3,15,-7,421,450,3997,40,47,839,1864,1876,2088,2279,2100,1875,1935,2079
1060213,55580,51428,62802,62802,257,108,-12,28,-4,353,374,3928,52,49,838,1864,1876,2088,2279,2100,1875,1935,2079
1061214,55660,51508,62867,62867,81,183,-26,12,-2,-29,393,3913,42,61,838,1864,1876,2088,2279,2100,1875,1935,2079
1062215,55748,51600,62932,62932,31,107,-26,18,3,-133,334,3768,54,60,838,1864,1876,2088,2279,2100,1875,1935,2079
1063216,55816,51688,62997,62997,156,132,-23,24,1,399,361,4087,48,47,839,1864,1876,2088,2279,2100,1875,1935,2079
1064217,55900,51764,63062,63062,55,206,-23,-6,4,30,365,3876,52,50,838,1864,1876,2088,2279,2100,1875,1935,2079
1065218,55964,51844,63127,63127,180,181,-21,10,10,-477,242,3894,39,45,838,1869,1877,2087,2285,2106,1880,1938,2081
1066219,56024,51936,63192,63192,206,105,-6,7,-3,309,327,3996,49,53,837,1869,1877,2087,2285,2106,1880,1938,2081
1067220,56092,52012,63257,63257,155,205,0,5,-1,142,271,3971,36,61,838,1869,1877,2087,2285,2106,1880,1938,2081
1068221,56164,52120,63322,63322,130,4,7,0,-1,-23,365,3922,43,55,838,1869,1877,2087,2285,2106,1880,1938,2081
1069222,56220,52200,63387,63387,230,179,5,0,-1,153,330,3834,37,52,839,1869,1877,2087,2285,2106,1880,1938,2081
1070223,56296,52284,63452,63452,105,153,2,-15,-2,193,413,4017,35,48,837,1870,1883,2094,2290,2105,1881,1938,2081
1071224,56368,52416,63517,63517,130,-148,-6,-11,2,118,382,3777,49,51,838,1870,1883,2094,2290,2105,1881,1938,2081
1072225,56452,52496,63582,63582,55,176,-7,10,-5,439,430,4182,39,59,838,1870,1883,2094,2290,2105,1881,1938,2081
1073226,56528,52600,63647,63647,104,25,-7,7,-6,267,311,3802,47,56,839,1870,1883,2094,2290,2105,1881,1938,2081
1074227,56568,52664,63712,63712,330,275,-18,-6,-7,289,405,3776,53,49,836,1870,1883,2094,2290,2105,1881,1938,2081
1075228,56648,52784,63777,63777,80,-76,-18,10,-4,610,355,4093,52,44,836,1870,1883,2094,2290,2105,1881,1938,2081
1076229,56728,52860,63842,63842,79,199,-15,33,-1,432,292,4041,54,48,838,1874,1883,2095,2289,2100,1878,1936,2080
1077230,56772,52932,63907,63907,305,223,-16,22,-3,152,281,3902,52,45,838,1874,1883,2095,2289,2100,1878,1936,2080
1078231,56840,53012,63972,63972,155,173,-9,23,4,131,272,3807,56,45,836,1874,1883,2095,2289,2100,1878,1936,2080
1079232,56928,53092,64037,64037,29,173,-1,30,0,210,348,4102,52,48,838,1874,1883,2095,2289,2100,1878,1936,2080
1080233,57016,53188,64102,64102,28,72,-2,18,6,110,310,3830,45,48,839,1874,1883,2095,2289,2100,1878,1936,2080
1081234,57072,53288,64167,64167,229,46,1,21,3,223,374,4031,49,54,839,1870,1880,2091,2285,2102,1878,1934,2077
1082235,57144,53376,64232,64232,129,121,-2,12,7,-274,349,4000,49,58,838,1870,1880,2091,2285,2102,1878,1934,2077
1083236,57220,53472,64297,64297,103,70,-4,15,2,-87,341,3731,52,58,838,1870,1880,2091,2285,2102,1878,1934,2077
1084237,57284,53572,64362,64362,178,44,3,7,-2,316,350,3954,38,44,838,1870,1880,2091,2285,2102,1878,1934,2077
1085238,57348,53680,64427,64427,178,-7,-2,-1,2,-63,337,4011,48,55,839,1870,1880,2091,2285,2102,1878,1934,2077
1086239,57404,53784,64492,64492,229,17,1,-6,1,-71,374,3840,39,42,839,1870,1880,2091,2285,2102,1878,1934,2077
