%  Data file recorded 2017/5/3  11:16:0
%  Stride Frequency         = [1, 1]
%  Lead In /Lead Out        = 
%  Deltas (Fractional)      = [0.25, 0.25, 0.25],[0.25, 0.25, 0.25]
%  Phase                    = 32768
%  Experiment.py 
%  Motor Gains    = [100, 0, 100, 0, 0, 100, 0, 100, 0, 0]
% Columns: 
% time | Right Leg Pos | Left Leg Pos | Commanded Right Leg Pos | Commanded Left Leg Pos | DCR | DCL | GyroX | GyroY | GyroZ | AX | AY | AZ | RBEMF | LBEMF | VBatt | S1 | S2 | S3 | S4 | S5 | S6 | S7 | S8
807,-4944,-5540,0,0,95,-15,-22,-5,0,257,263,3975,9,-6,812,1786,1908,2113,2267,2100,1835,1899,2054
1808,-4948,-5552,0,0,145,210,-22,-5,1,239,262,3958,-2,-5,811,1786,1908,2113,2267,2100,1835,1899,2054
2809,-4948,-5552,0,0,120,135,-20,-7,1,254,263,3930,4,-4,811,1786,1908,2113,2267,2100,1835,1899,2054
3810,-4940,-5544,0,0,70,85,-21,-4,4,218,253,3929,-5,-1,811,1786,1908,2113,2267,2100,1835,1899,2054
4811,-4952,-5552,0,0,195,185,-22,-6,4,243,252,3926,10,6,811,1787,1910,2113,2267,2100,1835,1902,2054
5812,-4944,-5548,0,0,70,110,-23,-8,4,250,233,3934,-6,6,811,1787,1910,2113,2267,2100,1835,1902,2054
6813,-4944,-5544,0,0,120,110,-21,-9,2,249,242,3910,10,8,812,1787,1910,2113,2267,2100,1835,1902,2054
7814,-4948,-5556,0,0,145,210,-18,-10,2,232,268,3944,-4,4,811,1787,1910,2113,2267,2100,1835,1902,2054
8815,-4944,-5552,0,0,95,110,-19,-7,3,234,254,3944,1,6,811,1787,1910,2113,2267,2100,1835,1902,2054
9816,-4940,-5544,0,0,95,85,-21,-5,3,247,257,3960,-1,2,811,1787,1908,2113,2267,2099,1836,1903,2055
10817,-4948,-5560,0,0,170,235,-22,-6,3,247,272,3951,0,-1,811,1787,1908,2113,2267,2099,1836,1903,2055
11818,-4956,-5540,0,0,170,10,-21,-9,2,232,245,3903,5,3,811,1787,1908,2113,2267,2099,1836,1903,2055
12819,-4952,-5544,0,0,95,160,-20,-10,2,248,249,3929,-7,-1,811,1787,1908,2113,2267,2099,1836,1903,2055
13820,-4944,-5548,0,0,70,160,-19,-10,2,264,250,3940,10,-6,811,1787,1908,2113,2267,2099,1836,1903,2055
14821,-4940,-5560,0,0,95,210,-18,-9,3,247,253,3942,-8,-5,811,1787,1908,2113,2267,2099,1836,1903,2055
15822,-4952,-5544,0,0,195,35,-17,-8,2,247,251,3920,4,-6,811,1783,1910,2116,2270,2102,1836,1904,2053
16823,-4924,-5548,0,0,-55,160,-17,-6,1,234,237,3966,-2,-6,811,1783,1910,2116,2270,2102,1836,1904,2053
17824,-4956,-5548,0,0,320,135,-18,-10,-1,244,231,3905,-3,-6,811,1783,1910,2116,2270,2102,1836,1904,2053
18825,-4936,-5540,0,0,-5,85,-16,-12,1,260,246,3925,9,-1,811,1783,1910,2116,2270,2102,1836,1904,2053
19826,-4940,-5552,0,0,145,210,-15,-11,1,245,261,3949,6,6,806,1783,1910,2116,2270,2102,1836,1904,2053
20827,-4940,-5544,0,0,120,85,-15,-10,2,224,268,3941,-7,8,811,1785,1908,2112,2266,2100,1835,1901,2051
21828,-4952,-5564,0,0,195,260,-17,-9,4,241,235,3927,-5,7,811,1785,1908,2112,2266,2100,1835,1901,2051
22829,-4944,-5540,0,0,70,-15,-17,-10,5,255,254,3942,-3,6,811,1785,1908,2112,2266,2100,1835,1901,2051
23830,-4936,-5548,0,0,70,185,-16,-10,5,243,258,3924,5,8,811,1785,1908,2112,2266,2100,1835,1901,2051
24831,-4952,-5556,0,0,220,185,-16,-12,3,242,229,3940,-4,7,811,1785,1908,2112,2266,2100,1835,1901,2051
25832,-4936,-5540,0,0,20,35,-15,-10,0,237,234,3950,10,7,811,1785,1908,2112,2266,2100,1835,1901,2051
26833,-4952,-5544,0,0,220,160,-12,-9,1,253,263,3904,-6,8,812,1786,1908,2112,2267,2100,1835,1902,2054
27834,-4940,-5556,0,0,45,210,-14,-9,4,268,279,3881,5,8,811,1786,1908,2112,2267,2100,1835,1902,2054
28835,-4944,-5548,0,0,145,85,-15,-9,3,275,279,3899,-7,5,811,1786,1908,2112,2267,2100,1835,1902,2054
29836,-4944,-5548,0,0,120,135,-17,-8,0,289,270,3894,9,7,811,1786,1908,2112,2267,2100,1835,1902,2054
30837,-4948,-5552,0,0,145,160,-19,-9,0,273,251,3892,-8,4,811,1786,1908,2112,2267,2100,1835,1902,2054
31838,-4944,-5552,0,0,95,135,-18,-11,1,290,270,3927,10,-2,811,1788,1909,2114,2268,2100,1835,1901,2053
32839,-4940,-5544,0,0,95,85,-18,-11,2,275,280,3964,-8,-3,811,1788,1909,2114,2268,2100,1835,1901,2053
33840,-4948,-5548,0,0,170,160,-17,-9,1,273,280,3925,8,-6,811,1788,1909,2114,2268,2100,1835,1901,2053
34841,-4944,-5552,0,0,95,160,-17,-8,1,265,248,3939,-7,-5,811,1788,1909,2114,2268,2100,1835,1901,2053
35842,-4940,-5552,0,0,95,135,-19,-6,2,278,263,3943,1,-7,811,1788,1909,2114,2268,2100,1835,1901,2053
36843,-4952,-5548,0,0,195,110,-19,-8,3,280,275,3988,-3,-3,807,1788,1909,2114,2268,2100,1835,1901,2053
37844,-4956,-5540,0,0,145,85,-18,-9,1,275,279,3965,9,7,811,1785,1908,2114,2265,2102,1838,1903,2056
38845,-4932,-5552,0,0,-30,210,-14,-8,1,266,266,3934,-5,4,811,1785,1908,2114,2265,2102,1838,1903,2056
39846,-4948,-5552,0,0,220,135,-13,-7,1,232,270,3912,6,8,811,1785,1908,2114,2265,2102,1838,1903,2056
40847,-4932,-5540,0,0,20,60,-16,-9,0,248,274,3947,-8,6,811,1785,1908,2114,2265,2102,1838,1903,2056
41848,-4932,-5544,0,0,120,160,-20,-7,2,281,258,3949,10,6,811,1785,1908,2114,2265,2102,1838,1903,2056
42849,-4948,-5556,0,0,220,210,-20,-5,3,266,268,3939,-7,2,811,1785,1907,2111,2266,2101,1836,1902,2055
43850,-4944,-5556,0,0,95,135,-20,-4,0,275,264,3912,10,-2,811,1785,1907,2111,2266,2101,1836,1902,2055
44851,-4932,-5548,0,0,45,85,-21,-6,-1,275,266,3935,-8,-1,811,1785,1907,2111,2266,2101,1836,1902,2055
45852,-4940,-5536,0,0,170,60,-22,-5,2,255,277,3933,10,-6,811,1785,1907,2111,2266,2101,1836,1902,2055
46853,-4948,-5552,0,0,170,235,-20,-5,2,274,266,3920,-7,-4,811,1785,1907,2111,2266,2101,1836,1902,2055
47854,-4956,-5548,0,0,170,110,-20,-4,3,252,280,3910,9,-3,811,1785,1907,2111,2266,2101,1836,1902,2055
48855,-4944,-5544,0,0,45,110,-21,-5,0,275,297,3897,-7,4,811,1785,1906,2112,2265,2102,1837,1903,2054
49856,-4932,-5540,0,0,45,110,-21,-3,-1,284,301,3933,10,8,811,1785,1906,2112,2265,2102,1837,1903,2054
50857,-4936,-5544,0,0,145,160,-21,-1,0,294,269,3903,-7,7,811,1785,1906,2112,2265,2102,1837,1903,2054
51858,-4944,-5544,0,0,170,135,-22,-1,1,261,229,3946,9,8,811,1785,1906,2112,2265,2102,1837,1903,2054
52859,-4944,-5552,0,0,120,185,-22,-2,5,250,259,3982,-8,5,811,1785,1906,2112,2265,2102,1837,1903,2054
53860,-4960,-5556,0,0,221,160,-22,-3,5,256,268,3908,8,1,807,1783,1907,2114,2268,2104,1837,1904,2054
54861,-4944,-5548,0,0,20,85,-23,-4,3,261,260,3888,0,-4,811,1783,1907,2114,2268,2104,1837,1904,2054
55862,-4944,-5548,0,0,120,135,-22,-6,3,266,262,3905,10,4,811,1783,1907,2114,2268,2104,1837,1904,2054
56863,-4940,-5560,0,0,95,210,-22,-7,3,271,287,3928,-8,4,811,1783,1907,2114,2268,2104,1837,1904,2054
57864,-4940,-5560,0,0,120,135,-22,-6,2,270,268,3905,10,7,811,1783,1907,2114,2268,2104,1837,1904,2054
58865,-4952,-5548,0,0,195,60,-23,-4,4,247,272,3913,-4,8,811,1783,1907,2114,2268,2104,1837,1904,2054
59866,-4952,-5540,0,0,120,85,-21,-3,3,234,263,3902,4,8,811,1785,1907,2112,2266,2101,1837,1901,2053
60867,-4956,-5544,0,0,145,160,-21,-3,2,252,251,3917,-1,8,811,1785,1907,2112,2266,2101,1837,1901,2053
61868,-4952,-5556,0,0,95,210,-22,-4,1,228,255,3979,-4,3,811,1785,1907,2112,2266,2101,1837,1901,2053
62869,-4956,-5552,0,0,145,110,-25,-6,0,234,256,3958,9,5,811,1785,1907,2112,2266,2101,1837,1901,2053
63871,-4932,-5548,0,0,-30,110,-23,-8,0,233,259,3938,-6,-1,811,1785,1907,2112,2266,2101,1837,1901,2053
64871,-4940,-5548,0,0,170,135,-22,-5,1,232,254,3914,10,-6,812,1788,1910,2113,2267,2100,1835,1902,2054
65872,-4944,-5548,0,0,145,135,-22,-4,2,227,248,3934,-1,-6,811,1788,1910,2113,2267,2100,1835,1902,2054
66873,-4932,-5548,0,0,45,135,-21,-6,2,212,270,3924,-6,0,811,1788,1910,2113,2267,2100,1835,1902,2054
67874,-4936,-5552,0,0,145,160,-20,-8,1,246,262,3968,3,8,811,1788,1910,2113,2267,2100,1835,1902,2054
68875,-4944,-5540,0,0,170,60,-21,-9,0,227,275,3946,-7,8,811,1788,1910,2113,2267,2100,1835,1902,2054
69876,-4944,-5552,0,0,120,210,-21,-5,1,235,285,3904,10,5,811,1788,1910,2113,2267,2100,1835,1902,2054
70877,-4944,-5552,0,0,120,135,-20,-7,1,248,256,3938,-3,-2,806,1788,1910,2113,2268,2101,1835,1903,2054
71878,-4944,-5544,0,0,120,85,-21,-10,0,232,263,3921,1,-4,811,1788,1910,2113,2268,2101,1835,1903,2054
72879,-4948,-5564,0,0,145,260,-21,-9,1,258,242,3924,-8,-6,811,1788,1910,2113,2268,2101,1835,1903,2054
73880,-4944,-5552,0,0,95,60,-19,-7,3,263,245,3935,10,-6,811,1788,1910,2113,2268,2101,1835,1903,2054
74881,-4936,-5552,0,0,70,135,-18,-9,2,238,255,3920,-7,-6,811,1788,1910,2113,2268,2101,1835,1903,2054
75882,-4948,-5552,0,0,195,135,-17,-8,2,227,234,3939,4,-6,811,1787,1909,2113,2267,2099,1835,1903,2056
76883,-4940,-5548,0,0,70,110,-18,-7,4,240,241,3941,-2,-5,811,1787,1909,2113,2267,2099,1835,1903,2056
77884,-4940,-5564,0,0,120,235,-19,-9,4,217,256,3949,1,-6,811,1787,1909,2113,2267,2099,1835,1903,2056
78885,-4948,-5548,0,0,170,35,-16,-11,5,232,255,3933,5,-6,811,1787,1909,2113,2267,2099,1835,1903,2056
79886,-4940,-5560,0,0,70,210,-17,-10,0,258,253,3921,2,-4,811,1787,1909,2113,2267,2099,1835,1903,2056
80887,-4944,-5540,0,0,145,10,-18,-10,-1,244,229,3901,5,-5,811,1787,1909,2113,2267,2099,1835,1903,2056
81888,-4952,-5556,0,0,170,235,-17,-12,0,255,252,3933,-6,-1,811,1788,1909,2112,2266,2099,1834,1901,2053
82889,-4940,-5552,0,0,45,110,-15,-13,2,234,261,3919,-4,4,811,1788,1909,2112,2266,2099,1834,1901,2053
83890,-4936,-5544,0,0,95,85,-15,-14,2,256,241,3918,7,2,811,1788,1909,2112,2266,2099,1834,1901,2053
84891,-4944,-5552,0,0,170,185,-17,-12,2,283,263,3930,-8,7,811,1788,1909,2112,2266,2099,1834,1901,2053
85892,-4940,-5556,0,0,95,160,-16,-12,1,271,243,3965,7,8,811,1788,1909,2112,2266,2099,1834,1901,2053
86893,-4956,-5544,0,0,220,60,-17,-11,1,231,248,3940,-4,8,811,1786,1908,2112,2267,2100,1835,1902,2053
87894,-4944,-5540,0,0,45,110,-18,-10,1,238,244,3936,-1,7,806,1786,1908,2112,2267,2100,1835,1902,2053
88895,-4948,-5552,0,0,145,210,-18,-11,2,250,224,3922,7,-6,811,1786,1908,2112,2267,2100,1835,1902,2053
89896,-4952,-5544,0,0,145,85,-16,-10,1,252,239,3943,-8,-7,811,1786,1908,2112,2267,2100,1835,1902,2053
90897,-4936,-5544,0,0,20,135,-16,-10,3,237,269,3951,10,-3,811,1786,1908,2112,2267,2100,1835,1902,2053
91898,-4944,-5544,0,0,170,135,-14,-10,1,258,235,3925,2,6,811,1786,1908,2112,2267,2100,1835,1902,2053
92899,-4928,-5548,0,0,20,160,-15,-8,2,257,248,3943,0,6,811,1783,1910,2114,2268,2102,1836,1904,2056
93900,-4940,-5560,0,0,195,210,-16,-10,2,257,258,3916,-3,8,811,1783,1910,2114,2268,2102,1836,1904,2056
94901,-4944,-5536,0,0,145,-15,-16,-10,1,285,253,3893,3,6,811,1783,1910,2114,2268,2102,1836,1904,2056
95902,-4944,-5552,0,0,120,235,-16,-9,2,263,247,3905,-5,6,811,1783,1910,2114,2268,2102,1836,1904,2056
96903,-4940,-5548,0,0,95,110,-16,-9,3,255,270,3903,10,-3,811,1783,1910,2114,2268,2102,1836,1904,2056
97904,-4952,-5548,0,0,195,135,-15,-10,3,268,276,3923,-3,-6,811,1787,1909,2113,2268,2101,1836,1903,2053
98905,-4936,-5544,0,0,20,110,-14,-8,3,258,274,3922,9,-6,811,1787,1909,2113,2268,2101,1836,1903,2053
99906,-4948,-5540,0,0,195,110,-17,-7,3,259,293,3918,-8,-6,811,1787,1909,2113,2268,2101,1836,1903,2053
100907,-4940,-5552,65,65,134,274,-17,-7,1,276,272,3930,7,-3,812,1787,1909,2113,2268,2101,1836,1903,2053
101908,-4948,-5540,130,130,235,125,-18,-10,-1,289,282,3918,-7,-1,806,1787,1909,2113,2268,2101,1836,1903,2053
102909,-4952,-5540,195,195,212,202,-16,-9,-2,267,284,3961,-6,-3,807,1787,1909,2113,2268,2101,1836,1903,2053
103910,-4936,-5532,260,260,88,153,-16,-7,2,278,306,3961,2,7,806,1787,1908,2112,2266,2103,1837,1890,2048
104911,-4944,-5540,325,325,240,255,-18,-6,5,275,296,3947,6,8,804,1787,1908,2112,2266,2103,1837,1890,2048
105912,-4940,-5544,390,390,167,231,-17,-6,5,263,272,3916,10,0,805,1787,1908,2112,2266,2103,1837,1890,2048
106913,-4936,-5532,455,455,168,133,-18,-7,1,260,258,3931,13,8,806,1787,1908,2112,2266,2103,1837,1890,2048
107914,-4936,-5528,520,520,195,184,-18,-6,4,247,276,3938,1,2,808,1787,1908,2112,2266,2103,1837,1890,2048
108915,-4932,-5532,585,585,171,236,-19,-5,2,268,247,3915,-3,-1,807,1808,1912,2116,2293,2133,1852,1916,2060
109916,-4936,-5516,650,650,223,112,-19,-4,1,279,236,3915,14,-3,806,1808,1912,2116,2293,2133,1852,1916,2060
110917,-4916,-5524,715,715,74,264,-19,-5,0,265,264,3908,13,11,807,1808,1912,2116,2293,2133,1852,1916,2060
111918,-4916,-5536,780,780,201,291,-21,-6,2,270,256,3937,-1,7,807,1808,1912,2116,2293,2133,1852,1916,2060
112919,-4912,-5524,845,845,177,142,-22,-9,0,272,261,3924,11,11,805,1808,1912,2116,2293,2133,1852,1916,2060
113920,-4912,-5520,910,910,204,193,-22,-7,-1,272,245,3930,-3,3,807,1808,1912,2116,2293,2133,1852,1916,2060
114921,-4904,-5516,975,975,155,195,-21,-4,2,256,266,3915,-2,-2,806,1786,1907,2111,2265,2102,1835,1901,2054
115922,-4904,-5500,1040,1040,207,121,-20,-3,3,242,278,3954,14,11,807,1786,1907,2111,2265,2102,1835,1901,2054
116923,-4896,-5500,1105,1105,158,223,-20,-3,1,234,267,3956,15,1,807,1786,1907,2111,2265,2102,1835,1901,2054
117924,-4880,-5504,1170,1170,109,249,-21,-3,0,244,284,3895,-2,12,806,1786,1907,2111,2265,2102,1835,1901,2054
118925,-4888,-5484,1235,1235,261,101,-24,-3,2,268,262,3904,12,-4,807,1786,1907,2111,2265,2102,1835,1901,2054
119926,-4872,-5476,1300,1300,112,177,-25,3,1,304,249,3893,13,9,807,1785,1906,2112,2265,2101,1836,1903,2055
120927,-4880,-5488,1365,1365,264,304,-25,3,1,294,225,3915,-2,12,808,1785,1906,2112,2265,2101,1836,1903,2055
121928,-4868,-5492,1430,1430,140,255,-22,-1,5,185,253,3943,13,11,799,1785,1906,2112,2265,2101,1836,1903,2055
122929,-4868,-5488,1495,1495,217,207,-22,-5,4,130,252,3932,14,3,806,1785,1906,2112,2265,2101,1836,1903,2055
123930,-4856,-5484,1560,1560,143,208,-23,-7,2,219,257,3954,14,11,806,1785,1906,2112,2265,2101,1836,1903,2055
124931,-4848,-5472,1625,1625,170,160,-24,-7,2,314,260,3931,13,13,807,1785,1906,2112,2265,2101,1836,1903,2055
125932,-4844,-5472,1690,1690,196,236,-23,-5,3,316,225,3938,12,2,807,1787,1907,2103,2257,2099,1834,1902,2058
126933,-4844,-5456,1755,1755,223,138,-21,-2,2,281,242,3931,1,9,806,1787,1907,2103,2257,2099,1834,1902,2058
127934,-4840,-5460,1820,1820,199,264,-19,-2,0,264,252,3934,-3,12,807,1787,1907,2103,2257,2099,1834,1902,2058
128935,-4824,-5440,1885,1885,125,115,-20,-4,0,260,257,3922,13,10,806,1787,1907,2103,2257,2099,1834,1902,2058
129936,-4820,-5440,1950,1950,202,242,-21,-9,-1,259,260,3923,15,7,808,1787,1907,2103,2257,2099,1834,1902,2058
130937,-4820,-5424,2015,2015,228,143,-21,-7,-3,239,276,3902,14,12,806,1789,1910,2113,2268,2100,1834,1901,2055
131938,-4804,-5432,2080,2080,130,295,-21,-6,-1,230,263,3917,-1,8,807,1789,1910,2113,2268,2100,1834,1901,2055
132939,-4792,-5416,2145,2145,156,146,-19,-7,-1,220,268,3914,-1,12,806,1789,1910,2113,2268,2100,1834,1901,2055
133940,-4796,-5404,2210,2210,258,172,-22,-8,-1,227,260,3891,15,-2,807,1789,1910,2113,2268,2100,1834,1901,2055
134941,-4776,-5420,2275,2275,109,349,-21,-9,-2,208,259,3933,10,-2,806,1789,1910,2113,2268,2100,1834,1901,2055
135942,-4772,-5396,2340,2340,210,100,-21,-11,2,189,258,3947,-1,10,805,1789,1910,2113,2268,2100,1834,1901,2055
136943,-4776,-5396,2405,2405,262,252,-21,-10,0,238,236,3914,4,-2,807,1790,1911,2116,2270,2102,1836,1904,2056
137944,-4764,-5388,2470,2470,163,203,-19,-10,0,259,211,3947,-1,1,805,1790,1911,2116,2270,2102,1836,1904,2056
138945,-4768,-5380,2535,2535,265,205,-18,-10,4,286,214,3912,-3,11,802,1790,1911,2116,2270,2102,1836,1904,2056
139946,-4756,-5388,2600,2600,166,307,-16,-10,4,257,237,3969,14,7,805,1790,1911,2116,2270,2102,1836,1904,2056
140947,-4756,-5384,2665,2665,243,233,-16,-11,1,268,233,3957,1,0,805,1790,1911,2116,2270,2102,1836,1904,2056
141948,-4752,-5364,2730,2730,219,134,-16,-11,0,267,227,3940,15,8,805,1787,1896,2096,2258,2090,1824,1889,2037
142949,-4728,-5368,2795,2795,95,286,-13,-9,2,237,246,3967,11,-2,807,1787,1896,2096,2258,2090,1824,1889,2037
143950,-4728,-5352,2860,2860,247,162,-12,-9,0,241,254,3950,13,-1,806,1787,1896,2096,2258,2090,1824,1889,2037
144951,-4728,-5332,2925,2925,248,138,-12,-8,-2,254,260,3889,14,13,806,1787,1896,2096,2258,2090,1824,1889,2037
145952,-4712,-5328,2990,2990,150,240,-14,-9,-2,234,254,3897,2,3,807,1787,1896,2096,2258,2090,1824,1889,2037
146953,-4716,-5336,3055,3055,276,316,-15,-8,0,232,248,3903,0,13,806,1787,1896,2096,2258,2090,1824,1889,2037
147954,-4696,-5328,3120,3120,127,218,-16,-9,-1,253,261,3905,11,-3,803,1782,1903,2112,2264,2096,1832,1896,2048
148955,-4688,-5324,3185,3185,204,244,-16,-10,-1,250,249,3934,16,2,807,1782,1903,2112,2264,2096,1832,1896,2048
149956,-4676,-5308,3250,3250,180,170,-14,-10,1,250,249,3930,14,6,805,1782,1903,2112,2264,2096,1832,1896,2048
150957,-4680,-5312,3315,3315,282,297,-14,-11,5,247,253,3915,1,9,807,1782,1903,2112,2264,2096,1832,1896,2048
151958,-4668,-5300,3380,3380,183,198,-16,-10,3,285,264,3926,14,-3,804,1782,1903,2112,2264,2096,1832,1896,2048
152959,-4656,-5308,3445,3445,184,325,-16,-11,4,278,271,3901,9,12,807,1783,1907,2112,2267,2099,1835,1902,2051
153960,-4648,-5292,3510,3510,211,176,-16,-12,5,304,259,3885,0,8,805,1783,1907,2112,2267,2099,1835,1902,2051
154961,-4648,-5300,3575,3575,262,328,-17,-11,4,309,250,3925,11,8,806,1783,1907,2112,2267,2099,1835,1902,2051
155962,-4644,-5292,3640,3640,239,230,-15,-8,4,307,244,3933,3,11,799,1783,1907,2112,2267,2099,1835,1902,2051
156963,-4632,-5304,3705,3705,190,356,-13,-6,4,278,264,3958,14,1,805,1783,1907,2112,2267,2099,1835,1902,2051
157964,-4612,-5308,3770,3770,141,308,-11,-6,3,251,254,3962,3,4,804,1783,1907,2112,2267,2099,1835,1902,2051
158965,-4616,-5288,3835,3835,293,159,-10,-8,0,268,263,3955,16,-3,805,1788,1908,2116,2268,2096,1832,1903,2056
159966,-4596,-5296,3900,3900,144,336,-11,-11,2,279,290,3926,15,-2,806,1788,1908,2116,2268,2096,1832,1903,2056
160967,-4588,-5280,3965,3965,220,187,-13,-11,4,259,257,3936,10,13,805,1788,1908,2116,2268,2096,1832,1903,2056
161968,-4580,-5272,4030,4030,222,239,-13,-7,2,251,281,3949,13,10,806,1788,1908,2116,2268,2096,1832,1903,2056
162969,-4580,-5272,4095,4095,273,290,-12,-6,1,235,292,3933,-1,9,806,1788,1908,2116,2268,2096,1832,1903,2056
163970,-4564,-5268,4160,4160,174,267,-15,-5,3,247,296,3911,16,2,804,1788,1910,2113,2266,2101,1836,1903,2054
164971,-4544,-5248,4225,4225,151,168,-18,-6,5,262,301,3885,15,-1,806,1788,1910,2113,2266,2101,1836,1903,2054
165972,-4548,-5256,4290,4290,302,345,-18,-5,1,280,271,3911,9,0,807,1788,1910,2113,2266,2101,1836,1903,2054
166973,-4536,-5236,4355,4355,204,171,-19,-5,2,274,259,3943,10,14,802,1788,1910,2113,2266,2101,1836,1903,2054
167974,-4528,-5224,4420,4420,230,222,-18,-8,6,262,271,3973,0,2,806,1788,1910,2113,2266,2101,1836,1903,2054
168975,-4512,-5220,4485,4485,181,273,-20,-8,4,278,279,3951,10,5,806,1788,1910,2113,2266,2101,1836,1903,2054
169976,-4512,-5216,4550,4550,283,275,-18,-6,1,272,234,3928,15,0,805,1789,1910,2116,2268,2096,1832,1904,2056
170977,-4496,-5200,4615,4615,184,201,-16,-5,3,228,254,3933,13,11,804,1789,1910,2116,2268,2096,1832,1904,2056
171978,-4480,-5204,4680,4680,185,328,-18,-5,2,268,273,3960,2,2,806,1789,1910,2116,2268,2096,1832,1904,2056
172979,-4464,-5204,4745,4745,186,304,-19,-5,2,261,271,3936,14,14,800,1789,1910,2116,2268,2096,1832,1904,2056
173980,-4456,-5184,4810,4810,238,180,-20,-7,4,275,277,3949,17,10,805,1789,1910,2116,2268,2096,1832,1904,2056
174981,-4432,-5168,4875,4875,139,207,-21,-7,4,260,302,3947,10,15,806,1785,1903,2105,2265,2099,1830,1895,2051
175982,-4444,-5160,4940,4940,366,258,-20,-7,-1,227,292,3925,14,12,807,1785,1903,2105,2265,2099,1830,1895,2051
176983,-4424,-5140,5005,5005,167,184,-20,-5,0,254,273,3914,16,6,803,1785,1903,2105,2265,2099,1830,1895,2051
177984,-4416,-5128,5070,5070,243,235,-21,-6,3,254,255,3947,15,8,807,1785,1903,2105,2265,2099,1830,1895,2051
178985,-4392,-5124,5135,5135,144,287,-22,-6,4,273,287,3939,18,1,805,1785,1903,2105,2265,2099,1830,1895,2051
179986,-4388,-5120,5200,5200,271,288,-22,-6,2,274,308,3942,5,15,806,1785,1903,2105,2265,2099,1830,1895,2051
180987,-4380,-5100,5265,5265,247,190,-25,-7,0,280,291,3922,15,5,804,1788,1912,2104,2254,2104,1838,1904,2056
181988,-4368,-5080,5330,5330,223,191,-25,-6,0,287,261,3905,17,3,806,1788,1912,2104,2254,2104,1838,1904,2056
182989,-4356,-5076,5395,5395,225,292,-23,-7,-2,241,257,3958,3,4,806,1788,1912,2104,2254,2104,1838,1904,2056
183990,-4340,-5052,5460,5460,201,168,-22,-4,-3,245,266,3954,12,2,805,1788,1912,2104,2254,2104,1838,1904,2056
184991,-4332,-5052,5525,5525,252,320,-22,-3,0,268,261,3922,15,5,807,1788,1912,2104,2254,2104,1838,1904,2056
185992,-4308,-5032,5590,5590,153,196,-22,-6,0,244,258,3939,10,17,804,1772,1893,2096,2252,2088,1824,1888,2048
186993,-4312,-5020,5655,5655,330,247,-21,-6,-2,235,255,3926,7,4,807,1772,1893,2096,2252,2088,1824,1888,2048
187994,-4292,-4996,5720,5720,181,173,-21,-3,-2,248,258,3914,18,2,804,1772,1893,2096,2252,2088,1824,1888,2048
188995,-4284,-4992,5785,5785,257,300,-20,-4,2,256,273,3905,11,18,807,1772,1893,2096,2252,2088,1824,1888,2048
189996,-4268,-4968,5850,5850,209,176,-20,-3,3,226,248,3936,15,7,799,1772,1893,2096,2252,2088,1824,1888,2048
190997,-4256,-4960,5915,5915,235,277,-21,-4,3,236,258,3919,19,3,807,1772,1893,2096,2252,2088,1824,1888,2048
191998,-4244,-4948,5980,5980,236,253,-24,-2,1,245,264,3941,17,6,805,1800,1922,2135,2295,2114,1852,1919,2079
192999,-4228,-4936,6045,6045,212,255,-26,-7,0,227,249,3925,11,3,805,1800,1922,2135,2295,2114,1852,1919,2079
194000,-4220,-4920,6110,6110,264,231,-23,-9,0,233,269,3874,18,17,805,1800,1922,2135,2295,2114,1852,1919,2079
195001,-4204,-4916,6175,6175,215,307,-22,-7,-1,262,270,3927,5,3,805,1800,1922,2135,2295,2114,1852,1919,2079
196002,-4196,-4900,6240,6240,266,233,-20,-6,-1,243,244,3925,3,6,804,1800,1922,2135,2295,2114,1852,1919,2079
197003,-4192,-4884,6305,6305,293,235,-21,-8,-1,266,246,3942,20,3,805,1787,1908,2111,2265,2098,1833,1899,2051
198004,-4164,-4872,6370,6370,144,261,-22,-7,0,248,222,3935,6,8,804,1787,1908,2111,2265,2098,1833,1899,2051
199005,-4148,-4844,6435,6435,220,162,-20,-4,1,249,216,3941,14,3,806,1787,1908,2111,2265,2098,1833,1899,2051
200006,-4140,-4840,6500,6500,271,313,-17,-5,0,224,216,3951,15,3,806,1787,1908,2111,2265,2098,1833,1899,2051
201007,-4128,-4824,6565,6565,248,240,-17,-6,0,231,257,3958,17,18,803,1787,1908,2111,2265,2098,1833,1899,2051
202008,-4116,-4816,6630,6630,249,291,-17,-4,4,241,242,3919,18,4,805,1787,1908,2111,2265,2098,1833,1899,2051
203009,-4080,-4804,6695,6695,100,267,-18,-5,7,243,259,3898,12,5,804,1788,1908,2114,2268,2100,1836,1900,2050
204010,-4080,-4780,6760,6760,326,193,-17,-8,2,244,235,3941,13,16,807,1788,1908,2114,2268,2100,1836,1900,2050
205011,-4048,-4760,6825,6825,127,219,-16,-12,2,227,234,3902,2,16,804,1788,1908,2114,2268,2100,1836,1900,2050
206012,-4052,-4736,6890,6890,354,195,-17,-8,4,231,242,3919,15,6,807,1788,1908,2114,2268,2100,1836,1900,2050
207013,-4032,-4712,6955,6955,205,196,-16,-9,8,231,224,3957,18,13,800,1788,1908,2114,2268,2100,1836,1900,2050
208014,-4012,-4696,7020,7020,206,248,-17,-11,2,254,243,3929,21,18,806,1787,1908,2112,2265,2097,1834,1902,2048
209015,-3996,-4684,7085,7085,232,274,-17,-13,0,259,238,3912,20,13,805,1787,1908,2112,2265,2097,1834,1902,2048
210016,-3984,-4656,7150,7150,258,175,-17,-9,0,256,251,3963,20,19,805,1787,1908,2112,2265,2097,1834,1902,2048
211017,-3952,-4624,7215,7215,134,151,-18,-9,-1,256,247,3916,19,5,806,1787,1908,2112,2265,2097,1834,1902,2048
212018,-3956,-4608,7280,7280,361,252,-18,-9,-2,283,243,3980,11,9,808,1787,1908,2112,2265,2097,1834,1902,2048
213019,-3920,-4596,7345,7345,112,278,-15,-7,-2,297,269,3933,20,15,803,1789,1909,2111,2267,2102,1839,1905,2057
214020,-3928,-4572,7410,7410,388,204,-13,-8,0,227,236,3914,18,13,806,1789,1909,2111,2267,2102,1839,1905,2057
215021,-3892,-4560,7475,7475,114,280,-9,-9,1,239,244,3945,5,5,803,1789,1909,2111,2267,2102,1839,1905,2057
216022,-3892,-4540,7540,7540,341,231,-10,-8,2,217,230,3926,8,20,806,1789,1909,2111,2267,2102,1839,1905,2057
217023,-3872,-4536,7605,7605,217,333,-12,-6,4,273,260,3937,3,7,804,1789,1909,2111,2267,2102,1839,1905,2057
218024,-3860,-4508,7670,7670,268,184,-11,-5,3,246,261,3892,5,10,804,1789,1909,2111,2267,2102,1839,1905,2057
219025,-3836,-4496,7735,7735,194,285,-10,-7,3,186,265,3936,17,8,805,1788,1904,2108,2264,2100,1833,1899,2050
220026,-3832,-4472,7800,7800,320,211,-10,-9,6,235,274,3909,16,20,805,1788,1904,2108,2264,2100,1833,1899,2050
221027,-3804,-4444,7865,7865,171,187,-10,-10,8,268,271,3906,19,16,804,1788,1904,2108,2264,2100,1833,1899,2050
222028,-3792,-4420,7930,7930,273,213,-10,-9,4,230,287,3931,18,12,806,1788,1904,2108,2264,2100,1833,1899,2050
223029,-3772,-4384,7995,7995,224,139,-12,-8,5,197,252,3954,17,18,805,1788,1904,2108,2264,2100,1833,1899,2050
224030,-3760,-4364,8060,8060,275,240,-14,-8,5,250,244,3971,20,10,802,1775,1895,2095,2247,2102,1838,1895,2047
225031,-3752,-4340,8125,8125,301,216,-15,-11,6,318,266,3958,5,19,805,1775,1895,2095,2247,2102,1838,1895,2047
226032,-3728,-4336,8190,8190,202,342,-17,-8,1,312,303,3869,19,16,805,1775,1895,2095,2247,2102,1838,1895,2047
227033,-3700,-4292,8255,8255,178,93,-19,-7,-1,271,279,3908,19,15,804,1775,1895,2095,2247,2102,1838,1895,2047
228034,-3688,-4268,8320,8320,280,219,-18,-5,-2,299,309,3956,21,23,808,1775,1895,2095,2247,2102,1838,1895,2047
229035,-3688,-4240,8385,8385,356,195,-17,-3,-4,286,264,3923,18,21,805,1775,1895,2095,2247,2102,1838,1895,2047
230036,-3648,-4232,8450,8450,107,321,-14,-5,-4,262,266,3890,18,9,804,1792,1920,2120,2280,2116,1828,1896,2056
231037,-3624,-4192,8515,8515,208,122,-12,-5,-2,279,246,3897,23,10,806,1792,1920,2120,2280,2116,1828,1896,2056
232038,-3608,-4156,8580,8580,259,147,-12,-4,0,303,252,3951,21,10,807,1792,1920,2120,2280,2116,1828,1896,2056
233039,-3604,-4140,8645,8645,336,274,-13,-3,0,204,255,3897,20,18,806,1792,1920,2120,2280,2116,1828,1896,2056
234040,-3572,-4108,8710,8710,161,174,-14,2,2,229,284,3923,19,16,803,1792,1920,2120,2280,2116,1828,1896,2056
235041,-3560,-4088,8775,8775,288,251,-15,-3,3,274,290,3928,6,12,807,1783,1906,2111,2268,2104,1838,1904,2054
236042,-3548,-4056,8840,8840,289,176,-17,-7,3,198,299,3944,11,13,805,1783,1906,2111,2268,2104,1838,1904,2054
237043,-3536,-4048,8905,8905,290,328,-18,-5,6,180,308,3906,21,16,805,1783,1906,2111,2268,2104,1838,1904,2054
238044,-3516,-3996,8970,8970,241,53,-20,-7,4,226,297,3895,12,20,803,1783,1906,2111,2268,2104,1838,1904,2054
239045,-3488,-3988,9035,9035,192,329,-19,-1,5,242,283,3949,21,16,808,1783,1906,2111,2268,2104,1838,1904,2054
240046,-3472,-3952,9100,9100,268,155,-23,-7,2,283,274,3914,18,9,805,1783,1906,2111,2268,2104,1838,1904,2054
241047,-3464,-3924,9165,9165,320,206,-23,-7,0,269,292,3943,9,12,801,1786,1906,2112,2266,2097,1832,1902,2054
242048,-3440,-3892,9230,9230,221,182,-23,-4,-3,296,293,3930,13,12,804,1786,1906,2112,2266,2097,1832,1902,2054
243049,-3412,-3864,9295,9295,197,208,-23,-4,-3,287,271,3976,14,10,806,1786,1906,2112,2266,2097,1832,1902,2054
244050,-3400,-3852,9360,9360,298,309,-25,-2,-5,303,270,3978,20,12,806,1786,1906,2112,2266,2097,1832,1902,2054
245051,-3376,-3812,9425,9425,224,135,-21,-4,-3,251,272,3922,21,23,803,1786,1906,2112,2266,2097,1832,1902,2054
246052,-3360,-3800,9490,9490,275,311,-18,-4,-5,264,250,3951,21,9,807,1787,1906,2111,2270,2106,1838,1904,2052
247053,-3344,-3788,9555,9555,276,312,-20,-4,-4,213,237,3955,15,16,803,1787,1906,2111,2270,2106,1838,1904,2052
248054,-3332,-3748,9620,9620,303,138,-19,-2,-2,245,263,3919,21,24,804,1787,1906,2111,2270,2106,1838,1904,2052
249055,-3300,-3716,9685,9685,179,189,-18,-4,0,277,257,3947,21,9,806,1787,1906,2111,2270,2106,1838,1904,2052
250056,-3296,-3688,9750,9750,355,215,-18,-5,-1,198,244,3913,4,21,807,1787,1906,2111,2270,2106,1838,1904,2052
251057,-3280,-3656,9815,9815,281,190,-18,-2,0,204,255,3881,5,22,804,1787,1906,2111,2270,2106,1838,1904,2052
252058,-3268,-3632,9880,9880,307,241,-20,-1,4,219,261,3933,19,13,805,1784,1903,2106,2259,2100,1835,1901,2054
253059,-3244,-3612,9945,9945,233,267,-21,-4,1,263,271,3961,8,8,804,1784,1903,2106,2259,2100,1835,1901,2054
254060,-3224,-3596,10010,10010,260,294,-24,-6,-2,283,249,3918,21,11,805,1784,1903,2106,2259,2100,1835,1901,2054
255061,-3204,-3556,10075,10075,261,144,-23,-8,2,241,263,3961,22,12,804,1784,1903,2106,2259,2100,1835,1901,2054
256062,-3192,-3548,10140,10140,312,346,-23,-12,1,285,252,4002,18,20,806,1784,1903,2106,2259,2100,1835,1901,2054
257063,-3180,-3524,10205,10205,313,247,-21,-11,-4,266,253,3934,21,10,803,1787,1908,2110,2266,2100,1832,1900,2056
258064,-3160,-3488,10270,10270,264,172,-22,-10,-3,231,239,3921,17,12,800,1787,1908,2110,2266,2100,1832,1900,2056
259065,-3140,-3468,10335,10335,265,273,-21,-7,1,262,253,3930,10,22,806,1787,1908,2110,2266,2100,1832,1900,2056
260066,-3124,-3448,10400,10400,292,275,-21,-8,2,230,251,3944,22,18,804,1787,1908,2110,2266,2100,1832,1900,2056
261067,-3104,-3412,10465,10465,268,175,-21,-9,0,241,258,3942,22,22,804,1787,1908,2110,2266,2100,1832,1900,2056
262068,-3080,-3392,10530,10530,244,276,-22,-12,1,268,239,3922,22,10,806,1787,1908,2110,2266,2100,1832,1900,2056
263069,-3064,-3364,10595,10595,295,227,-18,-8,2,222,245,3923,18,11,805,1776,1897,2113,2265,2096,1829,1893,2048
264070,-3052,-3344,10660,10660,321,278,-14,-6,-1,234,233,3872,22,11,805,1776,1897,2113,2265,2096,1829,1893,2048
265071,-3032,-3304,10725,10725,272,154,-15,-7,-3,242,245,3929,22,24,803,1776,1897,2113,2265,2096,1829,1893,2048
266072,-3012,-3276,10790,10790,273,230,-16,-11,2,225,224,3912,23,21,806,1776,1897,2113,2265,2096,1829,1893,2048
267073,-2988,-3236,10855,10855,249,156,-18,-8,3,242,245,3875,19,18,805,1776,1897,2113,2265,2096,1829,1893,2048
268074,-2960,-3224,10920,10920,225,332,-18,-8,2,279,260,3939,22,24,806,1779,1895,2102,2256,2089,1823,1894,2048
269075,-2948,-3192,10985,10985,327,208,-16,-7,3,238,270,3957,23,23,804,1779,1895,2102,2256,2089,1823,1894,2048
270076,-2936,-3160,11050,11050,328,208,-17,-10,2,223,265,3885,19,23,804,1779,1895,2102,2256,2089,1823,1894,2048
271077,-2920,-3152,11115,11115,304,360,-17,-8,-1,234,252,3914,16,18,804,1779,1895,2102,2256,2089,1823,1894,2048
272078,-2896,-3124,11180,11180,255,236,-15,-9,0,265,233,3939,24,23,803,1779,1895,2102,2256,2089,1823,1894,2048
273079,-2876,-3100,11245,11245,281,262,-14,-10,2,291,250,3942,23,21,805,1779,1895,2102,2256,2089,1823,1894,2048
274080,-2860,-3088,11310,11310,307,338,-15,-11,2,297,241,3988,12,10,804,1803,1919,2127,2287,2111,1851,1911,2063
275081,-2836,-3048,11375,11375,258,164,-12,-10,2,259,249,3962,23,25,798,1803,1919,2127,2287,2111,1851,1911,2063
276082,-2808,-3016,11440,11440,234,214,-13,-9,6,279,260,3939,8,14,805,1803,1919,2127,2287,2111,1851,1911,2063
277083,-2784,-2988,11505,11505,260,240,-12,-6,8,272,249,3966,11,25,806,1803,1919,2127,2287,2111,1851,1911,2063
278084,-2780,-2976,11570,11570,387,342,-11,-6,5,284,252,3899,6,13,805,1803,1919,2127,2287,2111,1851,1911,2063
279085,-2756,-2940,11635,11635,263,192,-10,-4,4,210,244,3971,11,25,801,1787,1902,2105,2269,2101,1835,1899,2051
280086,-2724,-2916,11700,11700,214,268,-11,-6,7,188,281,3955,19,15,805,1787,1902,2105,2269,2101,1835,1899,2051
281087,-2704,-2880,11765,11765,290,194,-11,-7,2,285,327,3892,10,25,805,1787,1902,2105,2269,2101,1835,1899,2051
282088,-2672,-2868,11830,11830,216,345,-14,-4,-1,266,301,3950,22,11,805,1787,1902,2105,2269,2101,1835,1899,2051
283089,-2668,-2836,11895,11895,392,221,-15,-7,1,278,283,3926,25,11,804,1787,1902,2105,2269,2101,1835,1899,2051
284090,-2648,-2808,11960,11960,293,247,-15,-7,2,254,262,3969,11,12,803,1787,1902,2105,2269,2101,1835,1899,2051
285091,-2616,-2780,12025,12025,219,248,-15,-8,-4,254,284,3902,26,18,804,1789,1908,2112,2266,2100,1834,1899,2052
286092,-2592,-2756,12090,12090,270,274,-12,-8,-8,268,265,3913,26,21,805,1789,1908,2112,2266,2100,1834,1899,2052
287093,-2568,-2724,12155,12155,271,225,-13,-8,-3,254,256,3897,14,19,804,1789,1908,2112,2266,2100,1834,1899,2052
288094,-2540,-2712,12220,12220,247,351,-15,-7,-1,249,243,3905,16,17,805,1789,1908,2112,2266,2100,1834,1899,2052
289096,-2524,-2696,12285,12285,323,327,-15,-7,-3,292,266,3932,8,8,803,1789,1908,2112,2266,2100,1834,1899,2052
290096,-2492,-2672,12350,12350,224,278,-10,-5,0,294,271,3935,10,6,802,1785,1906,2110,2261,2097,1834,1900,2047
291097,-2484,-2648,12415,12415,375,279,-11,-5,4,269,262,3938,17,15,805,1785,1906,2110,2261,2097,1834,1900,2047
292098,-2464,-2636,12480,12480,301,356,-14,-5,3,246,239,3955,10,6,798,1785,1906,2110,2261,2097,1834,1900,2047
293099,-2432,-2616,12545,12545,227,307,-15,-7,3,274,271,3950,25,7,802,1785,1906,2110,2261,2097,1834,1900,2047
294100,-2412,-2604,12610,12610,303,358,-16,-3,6,257,252,3962,25,18,804,1785,1906,2110,2261,2097,1834,1900,2047
295101,-2384,-2572,12675,12675,254,234,-17,-4,4,278,268,3899,13,9,803,1785,1906,2110,2261,2097,1834,1900,2047
296102,-2356,-2568,12740,12740,255,410,-17,-4,4,258,274,3932,17,7,805,1788,1905,2104,2255,2098,1832,1902,2054
297103,-2336,-2548,12805,12805,306,311,-18,-5,5,269,279,3888,18,20,802,1788,1905,2104,2255,2098,1832,1902,2054
298104,-2328,-2532,12870,12870,383,338,-20,-4,3,246,274,3950,24,6,803,1788,1905,2104,2255,2098,1832,1902,2054
299105,-2296,-2504,12935,12935,233,263,-20,-6,-1,244,274,3922,25,6,801,1788,1905,2104,2255,2098,1832,1902,2054
300106,-2276,-2492,13000,13000,309,365,-19,-7,-1,219,282,3916,26,11,805,1788,1905,2104,2255,2098,1832,1902,2054
301107,-2244,-2468,13065,13065,235,291,-21,-7,2,274,286,3916,21,12,802,1785,1896,2100,2258,2096,1825,1890,2054
302108,-2224,-2436,13130,13130,311,242,-21,-5,-2,278,243,3875,16,11,805,1785,1896,2100,2258,2096,1825,1890,2054
303109,-2196,-2436,13195,13195,262,443,-19,-5,-5,246,257,3901,9,20,804,1785,1896,2100,2258,2096,1825,1890,2054
304110,-2172,-2404,13260,13260,288,244,-17,-3,-4,253,256,3889,12,21,802,1785,1896,2100,2258,2096,1825,1890,2054
305111,-2140,-2384,13325,13325,239,320,-18,-4,0,297,255,3954,9,12,804,1785,1896,2100,2258,2096,1825,1890,2054
306112,-2108,-2348,13390,13390,240,221,-18,-2,1,269,287,3865,9,9,804,1785,1896,2100,2258,2096,1825,1890,2054
307113,-2100,-2324,13455,13455,391,297,-20,-3,4,260,293,3927,24,9,805,1774,1892,2096,2246,2080,1812,1888,2037
308114,-2084,-2300,13520,13520,342,298,-20,-2,4,244,277,3882,19,11,803,1774,1892,2096,2246,2080,1812,1888,2037
309115,-2052,-2284,13585,13585,243,349,-20,0,2,277,251,3950,25,15,798,1774,1892,2096,2246,2080,1812,1888,2037
310116,-2040,-2264,13650,13650,370,325,-19,0,2,228,252,3856,24,16,803,1774,1892,2096,2246,2080,1812,1888,2037
311117,-2008,-2232,13715,13715,245,251,-19,-5,4,240,274,3944,10,14,802,1774,1892,2096,2246,2080,1812,1888,2037
312118,-1976,-2200,13780,13780,246,252,-18,-6,0,251,264,3960,22,12,805,1794,1944,2160,2316,2148,1864,1932,2104
313119,-1960,-2176,13845,13845,347,303,-20,-5,-1,234,245,3920,25,11,805,1794,1944,2160,2316,2148,1864,1932,2104
314120,-1932,-2140,13910,13910,273,228,-19,-3,-3,232,242,3943,20,12,802,1794,1944,2160,2316,2148,1864,1932,2104
315121,-1888,-2112,13975,13975,174,279,-21,-4,-1,187,257,3963,26,16,804,1794,1944,2160,2316,2148,1864,1932,2104
316122,-1884,-2084,14040,14040,425,280,-21,-11,-1,228,248,3993,19,15,806,1794,1944,2160,2316,2148,1864,1932,2104
317123,-1848,-2080,14105,14105,226,432,-22,-6,-2,268,282,3930,25,12,802,1794,1944,2160,2316,2148,1864,1932,2104
318124,-1828,-2036,14170,14170,327,182,-22,-7,0,266,224,3908,27,13,802,1787,1906,2106,2259,2098,1833,1901,2054
319125,-1796,-2008,14235,14235,253,283,-21,-6,3,281,282,4006,26,14,804,1787,1906,2106,2259,2098,1833,1901,2054
320126,-1772,-1984,14300,14300,304,309,-20,-8,3,220,242,3845,22,12,804,1787,1906,2106,2259,2098,1833,1901,2054
321127,-1740,-1964,14365,14365,255,335,-22,-6,4,251,254,3961,10,12,803,1787,1906,2106,2259,2098,1833,1901,2054
322128,-1736,-1920,14430,14430,431,186,-19,-7,1,270,266,3911,27,13,803,1787,1906,2106,2259,2098,1833,1901,2054
323129,-1704,-1896,14495,14495,257,312,-18,-3,2,243,262,3954,9,12,803,1784,1907,2110,2265,2098,1831,1898,2050
324130,-1676,-1860,14560,14560,283,237,-18,-6,3,284,256,3942,28,25,804,1784,1907,2110,2265,2098,1831,1898,2050
325131,-1648,-1824,14625,14625,284,238,-18,-5,3,241,279,3967,23,14,805,1784,1907,2110,2265,2098,1831,1898,2050
326132,-1624,-1788,14690,14690,310,239,-16,-1,1,203,270,4014,14,18,800,1784,1907,2110,2265,2098,1831,1898,2050
327133,-1596,-1756,14755,14755,286,265,-19,-7,-1,210,252,3875,11,15,804,1784,1907,2110,2265,2098,1831,1898,2050
328134,-1568,-1724,14820,14820,287,265,-18,-10,2,267,252,3977,11,17,805,1784,1907,2110,2265,2098,1831,1898,2050
329135,-1536,-1688,14885,14885,262,241,-19,-7,2,268,260,3903,16,23,804,1787,1907,2114,2267,2099,1834,1902,2054
330136,-1512,-1660,14950,14950,313,292,-18,-9,3,169,225,3924,27,17,805,1787,1907,2114,2267,2099,1834,1902,2054
331137,-1484,-1640,15015,15015,289,343,-18,-9,0,293,271,3937,26,16,803,1787,1907,2114,2267,2099,1834,1902,2054
332138,-1448,-1600,15080,15080,240,219,-18,-12,3,256,253,3894,13,27,803,1787,1907,2114,2267,2099,1834,1902,2054
333139,-1432,-1572,15145,15145,366,295,-18,-11,4,275,271,3944,11,13,806,1787,1907,2114,2267,2099,1834,1902,2054
334140,-1404,-1536,15210,15210,292,245,-18,-13,1,222,236,3943,15,26,803,1787,1907,2112,2261,2095,1829,1896,2054
335141,-1372,-1496,15275,15275,268,221,-16,-10,0,267,260,3930,28,14,805,1787,1907,2112,2261,2095,1829,1896,2054
336142,-1344,-1468,15340,15340,294,297,-17,-12,1,248,257,3899,11,17,805,1787,1907,2112,2261,2095,1829,1896,2054
337143,-1312,-1460,15405,15405,270,423,-15,-10,3,220,242,3932,14,26,803,1787,1907,2112,2261,2095,1829,1896,2054
338144,-1284,-1408,15470,15470,296,149,-14,-9,1,263,263,3953,17,14,802,1787,1907,2112,2261,2095,1829,1896,2054
339145,-1260,-1372,15535,15535,322,249,-15,-11,7,210,269,3864,13,22,806,1787,1907,2112,2261,2095,1829,1896,2054
340146,-1228,-1328,15600,15600,272,200,-14,-9,7,250,275,3937,26,26,804,1787,1906,2111,2264,2094,1831,1893,2043
341147,-1200,-1284,15665,15665,298,200,-15,-10,6,276,249,3926,27,19,805,1787,1906,2111,2264,2094,1831,1893,2043
342148,-1176,-1248,15730,15730,324,251,-18,-10,6,250,281,3846,27,19,805,1787,1906,2111,2264,2094,1831,1893,2043
343149,-1144,-1228,15795,15795,275,352,-16,-11,7,256,276,3944,19,28,799,1787,1906,2111,2264,2094,1831,1893,2043
344150,-1124,-1196,15860,15860,351,278,-16,-10,2,275,282,3929,15,22,803,1787,1906,2111,2264,2094,1831,1893,2043
345151,-1084,-1156,15925,15925,227,229,-17,-15,-2,317,274,3865,19,18,803,1782,1908,2110,2265,2092,1824,1890,2042
346152,-1064,-1124,15990,15990,353,279,-17,-16,1,263,259,3954,24,25,806,1782,1908,2110,2265,2092,1824,1890,2042
347153,-1032,-1080,16055,16055,279,205,-16,-10,-2,294,268,3975,21,16,803,1782,1908,2110,2265,2092,1824,1890,2042
348154,-1008,-1048,16120,16120,330,281,-17,-9,-4,292,229,3899,26,17,805,1782,1908,2110,2265,2092,1824,1890,2042
349155,-972,-1012,16185,16185,255,256,-12,-7,-3,398,259,3955,20,30,803,1782,1908,2110,2265,2092,1824,1890,2042
350156,-936,-980,16384,16384,603,629,-11,-1,-3,284,243,3918,17,21,805,1782,1908,2110,2265,2092,1824,1890,2042
351157,-896,-932,16449,16449,579,530,-13,-9,-2,81,237,3824,29,16,792,1776,1896,2112,2264,2092,1824,1896,2048
352158,-860,-892,16514,16514,605,580,-14,-11,4,324,271,3942,19,25,794,1776,1896,2112,2264,2092,1824,1896,2048
353159,-824,-844,16579,16579,605,531,-12,-1,4,327,295,3872,18,30,793,1776,1896,2112,2264,2092,1824,1896,2048
354160,-792,-812,16644,16644,631,632,-15,-10,4,142,247,3862,36,28,794,1776,1896,2112,2264,2092,1824,1896,2048
355161,-744,-740,16709,16709,532,382,-12,-3,3,212,318,4002,28,41,791,1776,1896,2112,2264,2092,1824,1896,2048
356162,-696,-688,16774,16774,532,507,-17,-14,8,210,270,3856,34,38,798,1775,1895,2097,2249,2085,1823,1891,2035
357163,-660,-628,16839,16839,608,457,-15,-8,6,291,323,3947,24,28,796,1775,1895,2097,2249,2085,1823,1891,2035
358164,-608,-576,16904,16904,508,507,-20,-5,0,236,284,3857,36,29,795,1775,1895,2097,2249,2085,1823,1891,2035
359165,-560,-520,16969,16969,533,482,-18,-5,-4,198,318,3972,29,43,797,1775,1895,2097,2249,2085,1823,1891,2035
360166,-508,-468,17034,17034,509,508,-17,-7,0,411,314,3903,35,30,792,1775,1895,2097,2249,2085,1823,1891,2035
361167,-440,-404,17099,17099,409,433,-20,-14,-5,331,280,3912,35,44,796,1775,1895,2097,2249,2085,1823,1891,2035
362168,-392,-352,17164,17164,534,508,-20,-5,-7,294,257,4038,32,32,799,1773,1889,2091,2244,2084,1815,1882,2030
363169,-336,-272,17229,17229,484,333,-15,-6,-4,320,238,3916,40,45,796,1773,1889,2091,2244,2084,1815,1882,2030
364170,-264,-196,17294,17294,384,358,-14,-9,-4,226,248,4033,50,39,799,1773,1889,2091,2244,2084,1815,1882,2030
365171,-208,-128,17359,17359,484,407,-13,3,-5,252,261,3923,49,47,801,1773,1889,2091,2244,2084,1815,1882,2030
366172,-136,-64,17424,17424,384,432,-14,-6,-3,339,226,3912,43,37,799,1773,1889,2091,2244,2084,1815,1882,2030
367173,-84,12,17489,17489,510,357,-10,0,4,169,267,3896,45,43,800,1775,1884,2087,2251,2087,1827,1893,2036
368174,-16,92,17554,17554,409,332,-20,-2,5,101,276,4031,40,48,800,1775,1884,2087,2251,2087,1827,1893,2036
369175,44,160,17619,17619,460,407,-14,-6,0,150,256,3844,39,41,802,1775,1884,2087,2251,2087,1827,1893,2036
370176,132,224,17684,17684,284,432,-23,-14,0,338,336,3942,38,37,799,1775,1884,2087,2251,2087,1827,1893,2036
371177,192,296,17749,17749,459,382,-28,-13,-5,272,323,4035,52,49,802,1775,1884,2087,2251,2087,1827,1893,2036
372178,256,368,17814,17814,434,381,-33,-17,-6,103,260,3791,50,38,800,1775,1884,2087,2251,2087,1827,1893,2036
373179,336,440,17879,17879,334,381,-30,-9,-2,425,263,4081,47,54,801,1775,1893,2101,2253,2083,1820,1896,2046
374180,400,516,17944,17944,434,356,-29,-4,-3,266,173,3927,53,49,802,1775,1893,2101,2253,2083,1820,1896,2046
375181,448,596,18009,18009,534,331,-17,-11,-2,264,224,3995,53,51,801,1775,1893,2101,2253,2083,1820,1896,2046
376182,536,676,18074,18074,284,330,-19,-7,8,189,174,3815,47,55,799,1775,1893,2101,2253,2083,1820,1896,2046
377183,612,748,18139,18139,358,380,-13,-2,6,391,285,4031,44,41,799,1775,1893,2101,2253,2083,1820,1896,2046
378184,684,816,18204,18204,383,405,-18,0,12,171,174,3867,51,50,802,1773,1899,2101,2250,2089,1824,1888,2050
379185,748,904,18269,18269,433,279,-15,-2,3,258,255,3954,47,42,801,1773,1899,2101,2250,2089,1824,1888,2050
380186,824,992,18334,18334,358,279,-15,0,5,77,247,3930,46,52,802,1773,1899,2101,2250,2089,1824,1888,2050
381187,904,1092,18399,18399,333,203,-13,-2,5,289,276,3931,56,45,803,1773,1899,2101,2250,2089,1824,1888,2050
382188,976,1152,18464,18464,382,453,-13,-5,1,243,245,3913,48,42,805,1773,1899,2101,2250,2089,1824,1888,2050
383189,1064,1248,18529,18529,282,227,-16,-3,3,140,282,3950,53,45,801,1773,1899,2101,2250,2089,1824,1888,2050
384190,1124,1332,18594,18594,457,302,-17,-9,5,323,273,3965,61,52,804,1776,1892,2098,2252,2096,1831,1899,2049
385191,1196,1412,18659,18659,382,327,-21,-13,2,213,301,3783,50,43,802,1776,1892,2098,2252,2096,1831,1899,2049
386192,1264,1496,18724,18724,407,301,-24,-22,7,308,300,3932,52,59,802,1776,1892,2098,2252,2096,1831,1899,2049
387193,1364,1580,18789,18789,206,301,-28,-11,-2,423,296,3932,54,53,802,1776,1892,2098,2252,2096,1831,1899,2049
388194,1436,1660,18854,18854,381,325,-29,-15,-7,242,279,3832,55,51,805,1776,1892,2098,2252,2096,1831,1899,2049
389195,1504,1744,18919,18919,406,300,-19,-7,1,198,187,3947,48,55,802,1778,1888,2096,2248,2080,1816,1888,2048
390196,1600,1824,18984,18984,230,324,-21,-8,-7,408,255,3973,63,57,802,1778,1888,2096,2248,2080,1816,1888,2048
391197,1664,1908,19049,19049,430,299,-12,-7,2,141,92,3952,55,55,804,1778,1888,2096,2248,2080,1816,1888,2048
392198,1760,2008,19114,19114,229,198,-7,3,4,110,224,3908,46,56,803,1778,1888,2096,2248,2080,1816,1888,2048
393199,1856,2068,19179,19179,228,448,-5,-4,7,98,172,3957,60,43,806,1778,1888,2096,2248,2080,1816,1888,2048
394200,1932,2164,19244,19244,353,222,-4,0,1,402,309,3954,48,55,798,1778,1888,2096,2248,2080,1816,1888,2048
395201,2012,2236,19309,19309,328,372,-7,-10,7,19,268,3884,57,55,804,1823,1935,2142,2298,2138,1871,1912,2072
396202,2116,2320,19374,19374,177,297,-14,-9,8,152,334,3885,66,43,803,1823,1935,2142,2298,2138,1871,1912,2072
397203,2184,2416,19439,19439,402,221,-19,-18,4,351,323,3940,51,41,805,1823,1935,2142,2298,2138,1871,1912,2072
398204,2280,2480,19504,19504,226,421,-25,-20,7,328,329,3868,52,43,804,1823,1935,2142,2298,2138,1871,1912,2072
399205,2360,2544,19569,19569,326,421,-30,-22,2,306,307,3885,63,46,803,1823,1935,2142,2298,2138,1871,1912,2072
400206,2444,2624,19634,19634,300,321,-26,-16,-4,187,259,3929,51,45,802,1789,1904,2104,2266,2098,1832,1897,2049
401207,2536,2724,19699,19699,250,195,-26,-24,4,222,248,3960,62,58,803,1789,1904,2104,2266,2098,1832,1897,2049
402208,2620,2844,19764,19764,299,69,-23,-14,6,419,274,3938,59,58,806,1789,1904,2104,2266,2098,1832,1897,2049
403209,2700,2924,19829,19829,324,318,-19,-13,9,295,162,3955,58,42,806,1789,1904,2104,2266,2098,1832,1897,2049
404210,2788,3008,19894,19894,273,293,-12,-5,5,393,207,3985,63,59,804,1789,1904,2104,2266,2098,1832,1897,2049
405211,2876,3096,19959,19959,273,267,-11,-10,6,-22,183,3834,63,56,805,1789,1904,2104,2266,2098,1832,1897,2049
406212,2944,3180,20024,20024,397,292,-5,-13,2,130,250,4049,52,60,805,1785,1903,2109,2262,2102,1837,1899,2050
407213,3032,3264,20089,20089,272,291,-8,-6,-4,421,289,3760,56,53,803,1785,1903,2109,2262,2102,1837,1899,2050
408214,3136,3344,20154,20154,171,316,-16,-5,1,254,306,3922,68,56,804,1785,1903,2109,2262,2102,1837,1899,2050
409215,3236,3444,20219,20219,195,190,-19,-7,-2,71,336,4005,67,47,806,1785,1903,2109,2262,2102,1837,1899,2050
410216,3316,3548,20284,20284,320,164,-23,-16,-8,234,338,3827,59,57,806,1785,1903,2109,2262,2102,1837,1899,2050
411217,3412,3636,20349,20349,219,264,-27,-18,-4,360,315,3905,57,50,801,1788,1904,2108,2266,2101,1838,1904,2056
412218,3504,3716,20414,20414,243,313,-31,-17,4,345,234,3908,58,55,805,1788,1904,2108,2266,2101,1838,1904,2056
413219,3604,3812,20479,20479,192,212,-26,-17,0,178,255,3872,60,59,805,1788,1904,2108,2266,2101,1838,1904,2056
414220,3704,3904,20544,20544,192,237,-21,-13,1,83,251,3911,54,50,806,1788,1904,2108,2266,2101,1838,1904,2056
415221,3796,4000,20609,20609,241,211,-23,-16,-1,451,279,4014,58,59,807,1788,1904,2108,2266,2101,1838,1904,2056
416228,3904,4092,20674,20674,140,235,-19,-8,2,398,253,3981,67,58,806,1788,1904,2108,2266,2101,1838,1904,2056
417223,4028,4184,20739,20739,38,235,-19,-8,5,193,249,3832,53,51,807,1788,1906,2111,2263,2102,1837,1902,2055
418224,4120,4268,20804,20804,238,284,-23,-10,6,269,247,4003,65,52,808,1788,1906,2111,2263,2102,1837,1902,2055
419225,4236,4360,20869,20869,87,234,-22,-11,9,316,259,3971,60,57,806,1788,1906,2111,2263,2102,1837,1902,2055
420226,4328,4428,20934,20934,236,383,-23,-20,15,287,256,3971,53,63,807,1788,1906,2111,2263,2102,1837,1902,2055
421227,4412,4504,20999,20999,285,333,-19,-15,6,132,305,3889,68,53,805,1788,1906,2111,2263,2102,1837,1902,2055
422228,4504,4608,21064,21064,235,157,-27,-19,10,77,216,3952,64,65,804,1791,1910,2116,2266,2100,1836,1902,2051
423229,4604,4692,21129,21129,184,282,-24,-6,15,499,344,4128,59,66,806,1791,1910,2116,2266,2100,1836,1902,2051
424230,4724,4792,21194,21194,58,181,-29,-17,15,333,302,3729,66,63,806,1791,1910,2116,2266,2100,1836,1902,2051
425231,4820,4892,21259,21259,207,180,-31,-22,8,130,302,4037,55,52,808,1791,1910,2116,2266,2100,1836,1902,2051
426232,4904,5004,21324,21324,281,104,-25,-13,4,207,223,3930,60,54,807,1791,1910,2116,2266,2100,1836,1902,2051
427233,4988,5096,21389,21389,281,228,-23,6,9,304,216,3990,58,66,807,1791,1910,2116,2266,2100,1836,1902,2051
428234,5084,5236,21454,21454,205,-74,-27,-16,-9,491,225,3759,63,61,801,1789,1907,2111,2261,2101,1836,1903,2055
429235,5164,5336,21519,21519,305,176,-20,-6,-6,372,350,4084,62,67,807,1789,1907,2111,2261,2101,1836,1903,2055
430236,5268,5444,21584,21584,154,125,-27,-16,17,182,304,4020,59,59,806,1789,1907,2111,2261,2101,1836,1903,2055
431237,5348,5560,21649,21649,303,73,-42,-11,-11,197,356,3732,70,53,808,1789,1907,2111,2261,2101,1836,1903,2055
432238,5436,5648,21714,21714,253,248,-32,-20,-4,266,176,3925,72,55,807,1789,1907,2111,2261,2101,1836,1903,2055
433239,5568,5748,21779,21779,-24,172,-32,-12,-7,444,379,4083,64,51,806,1792,1904,2106,2264,2096,1832,1897,2048
434240,5668,5820,21844,21844,175,347,-29,-9,-20,51,170,3795,60,50,808,1792,1904,2106,2264,2096,1832,1897,2048
435241,5780,5916,21909,21909,99,196,-28,-15,-10,221,241,4136,73,63,806,1792,1904,2106,2264,2096,1832,1897,2048
436242,5888,5964,21974,21974,123,496,-20,-1,-16,383,241,3851,56,63,807,1792,1904,2106,2264,2096,1832,1897,2048
437243,5976,6056,22039,22039,248,221,-24,-13,-11,50,136,3956,57,52,804,1792,1904,2106,2264,2096,1832,1897,2048
438244,6064,6136,22104,22104,247,295,-13,5,-8,202,205,4161,60,61,806,1787,1911,2119,2271,2107,1839,1905,2055
439245,6176,6236,22169,22169,96,169,-13,5,8,289,196,3714,69,53,806,1787,1911,2119,2271,2107,1839,1905,2055
440246,6288,6324,22234,22234,95,244,-19,-7,23,349,325,4093,70,56,807,1787,1911,2119,2271,2107,1839,1905,2055
441247,6384,6432,22299,22299,194,118,-23,-3,26,158,343,3728,68,65,807,1787,1911,2119,2271,2107,1839,1905,2055
442248,6464,6524,22364,22364,294,217,-25,-9,32,192,272,4050,72,61,808,1787,1911,2119,2271,2107,1839,1905,2055
443249,6564,6636,22429,22429,168,91,-34,-7,40,388,293,3762,62,52,806,1787,1911,2119,2271,2107,1839,1905,2055
444250,6676,6724,22494,22494,92,241,-28,-10,29,419,321,3858,63,52,808,1788,1907,2112,2267,2099,1836,1903,2054
445251,6768,6840,22559,22559,216,64,-28,-8,18,450,307,4133,64,56,803,1788,1907,2112,2267,2099,1836,1903,2054
446252,6852,6932,22624,22624,266,214,-29,-8,1,42,281,3797,66,65,807,1788,1907,2112,2267,2099,1836,1903,2054
447253,6976,7024,22689,22689,14,213,-30,-17,-1,138,247,3860,61,53,806,1788,1907,2112,2267,2099,1836,1903,2054
448254,7068,7136,22754,22754,213,87,-27,8,-27,678,350,4050,72,56,808,1788,1907,2112,2267,2099,1836,1903,2054
449255,7180,7228,22819,22819,87,211,-21,-9,-31,105,204,3929,63,66,808,1790,1906,2112,2266,2101,1835,1902,2053
450256,7272,7308,22884,22884,212,286,-27,-10,-34,41,285,3882,63,52,808,1790,1906,2112,2266,2101,1835,1902,2053
451257,7352,7396,22949,22949,286,235,-26,-11,-28,368,201,3930,70,67,806,1790,1906,2112,2266,2101,1835,1902,2053
452258,7476,7500,23014,23014,10,134,-20,-4,-20,346,280,4181,55,57,805,1790,1906,2112,2266,2101,1835,1902,2053
453259,7560,7584,23079,23079,259,259,-20,-10,-7,144,209,3769,57,52,808,1790,1906,2112,2266,2101,1835,1902,2053
454260,7652,7680,23144,23144,209,183,-17,-1,6,326,222,3940,57,61,806,1790,1906,2112,2266,2101,1835,1902,2053
455261,7752,7764,23209,23209,158,258,-19,-13,21,377,179,3956,70,53,807,1787,1910,2116,2268,2102,1837,1904,2056
456262,7860,7852,23274,23274,107,232,-16,-16,22,379,265,3932,63,58,807,1787,1910,2116,2268,2102,1837,1904,2056
457263,7948,7944,23339,23339,231,206,-22,-17,24,199,207,3856,71,57,807,1787,1910,2116,2268,2102,1837,1904,2056
458264,8048,8036,23404,23404,155,206,-22,-5,27,145,282,3971,61,54,807,1787,1910,2116,2268,2102,1837,1904,2056
459265,8144,8140,23469,23469,180,130,-22,-6,24,343,212,3817,73,67,807,1787,1910,2116,2268,2102,1837,1904,2056
460266,8236,8244,23534,23534,204,129,-20,-16,16,482,304,4003,67,63,808,1790,1910,2113,2268,2102,1835,1904,2057
461267,8352,8328,23599,23599,53,253,-22,-15,8,162,294,3902,62,69,808,1790,1910,2113,2268,2102,1835,1904,2057
462268,8432,8420,23664,23664,277,203,-22,-16,7,16,321,3904,67,69,804,1790,1910,2113,2268,2102,1835,1904,2057
463269,8540,8520,23729,23729,101,152,-30,-16,-4,302,284,3905,55,68,805,1790,1910,2113,2268,2102,1835,1904,2057
464272,8628,8624,23794,23794,226,126,-22,-19,-5,245,259,4018,64,63,807,1790,1910,2113,2268,2102,1835,1904,2057
465271,8724,8728,23859,23859,175,125,-24,-23,-13,140,308,3960,60,53,807,1790,1910,2113,2268,2102,1835,1904,2057
466272,8820,8804,23924,23924,174,300,-18,-19,-15,67,205,3865,55,59,808,1792,1910,2112,2265,2102,1837,1903,2057
467273,8900,8904,23989,23989,274,149,-13,-6,-8,321,169,4005,70,68,807,1792,1910,2112,2265,2102,1837,1903,2057
468274,9020,8980,24054,24054,23,299,-6,-14,1,470,147,4046,60,60,806,1792,1910,2112,2265,2102,1837,1903,2057
469275,9120,9068,24119,24119,147,223,-6,-6,-4,430,298,4075,67,60,807,1792,1910,2112,2265,2102,1837,1903,2057
470276,9200,9152,24184,24184,271,247,-6,-8,0,11,136,3615,68,54,807,1792,1910,2112,2265,2102,1837,1903,2057
471277,9324,9244,24249,24249,-5,197,-5,0,12,229,359,4265,53,60,806,1787,1895,2103,2262,2095,1836,1902,2052
472278,9408,9336,24314,24314,244,196,-16,-4,4,505,339,3789,68,55,807,1787,1895,2103,2262,2095,1836,1902,2052
473279,9500,9432,24379,24379,194,170,-8,5,21,119,231,3896,53,51,808,1787,1895,2103,2262,2095,1836,1902,2052
474280,9592,9532,24444,24444,193,145,-15,-2,26,387,291,3922,51,63,807,1787,1895,2103,2262,2095,1836,1902,2052
475281,9688,9632,24509,24509,167,144,-13,-8,19,309,312,4049,58,65,807,1787,1895,2103,2262,2095,1836,1902,2052
476282,9780,9716,24574,24574,192,243,-19,-11,15,-32,290,3843,54,60,808,1787,1895,2103,2262,2095,1836,1902,2052
477283,9876,9812,24639,24639,166,167,-19,-18,5,77,274,3865,52,55,807,1792,1908,2130,2288,2104,1842,1904,2056
478284,9952,9924,24704,24704,291,66,-23,-9,-1,468,320,4005,67,59,807,1792,1908,2130,2288,2104,1842,1904,2056
479285,10060,9996,24769,24769,90,316,-30,-2,-10,191,317,3710,52,60,803,1792,1908,2130,2288,2104,1842,1904,2056
480286,10148,10080,24834,24834,214,241,-27,0,-13,267,290,4013,61,53,806,1792,1908,2130,2288,2104,1842,1904,2056
481287,10232,10148,24899,24899,239,341,-29,-13,-15,599,224,3905,64,55,806,1792,1908,2130,2288,2104,1842,1904,2056
482288,10320,10220,24964,24964,213,315,-22,-6,-6,538,224,4118,62,55,806,1790,1908,2112,2265,2100,1835,1901,2055
483289,10424,10312,25029,25029,112,190,-19,-8,-8,140,217,3863,49,65,805,1790,1908,2112,2265,2100,1835,1901,2055
484290,10532,10392,25094,25094,86,264,-4,10,-6,304,206,3942,62,50,806,1790,1908,2112,2265,2100,1835,1901,2055
485291,10608,10476,25159,25159,286,239,-6,10,5,65,212,4103,48,54,807,1790,1908,2112,2265,2100,1835,1901,2055
486292,10708,10552,25224,25224,135,289,-4,4,11,46,224,3934,52,59,806,1790,1908,2112,2265,2100,1835,1901,2055
487293,10780,10640,25289,25289,310,213,-2,-4,14,157,271,3861,66,52,806,1790,1908,2112,2265,2100,1835,1901,2055
488294,10884,10740,25354,25354,109,137,-5,-5,16,170,308,3966,62,53,806,1787,1907,2112,2264,2103,1835,1901,2053
489295,10968,10844,25419,25419,233,111,-5,-2,23,89,316,3905,62,49,807,1787,1907,2112,2264,2103,1835,1901,2053
490296,11076,10932,25484,25484,82,211,-16,-8,28,48,290,3852,65,51,808,1787,1907,2112,2264,2103,1835,1901,2053
491297,11168,11004,25549,25549,182,311,-18,-1,14,252,327,3899,60,46,808,1787,1907,2112,2264,2103,1835,1901,2053
492298,11256,11096,25614,25614,206,185,-29,-13,4,438,395,3794,54,58,807,1787,1907,2112,2264,2103,1835,1901,2053
493299,11328,11188,25679,25679,306,184,-36,-18,-2,249,358,4061,51,48,807,1789,1909,2112,2267,2100,1834,1902,2056
494300,11420,11284,25744,25744,180,159,-46,-24,-9,183,355,3733,63,49,806,1789,1909,2112,2267,2100,1834,1902,2056
495301,11520,11356,25809,25809,129,308,-50,-30,-18,624,396,3952,48,47,806,1789,1909,2112,2267,2100,1834,1902,2056
496302,11584,11432,25874,25874,354,283,-50,-15,-24,451,320,3922,49,52,802,1789,1909,2112,2267,2100,1834,1902,2056
497303,11680,11520,25939,25939,154,208,-41,-32,-20,256,176,4008,53,60,803,1789,1909,2112,2267,2100,1834,1902,2056
498304,11784,11584,26004,26004,103,358,-30,-1,-21,345,126,3956,55,42,806,1789,1909,2112,2267,2100,1834,1902,2056
499305,11868,11652,26069,26069,227,332,-17,4,-11,500,93,3897,52,59,807,1791,1909,2113,2264,2108,1840,1900,2056
500306,11952,11732,26134,26134,227,257,-2,15,-5,403,115,4068,47,47,805,1791,1909,2113,2264,2108,1840,1900,2056
501307,12044,11816,26199,26199,176,232,5,27,2,136,122,4069,49,53,805,1791,1909,2113,2264,2108,1840,1900,2056
502308,12128,11884,26264,26264,226,332,9,21,18,195,150,3734,50,53,806,1791,1909,2113,2264,2108,1840,1900,2056
503309,12220,11964,26329,26329,175,256,8,42,17,337,312,4154,54,61,806,1791,1909,2113,2264,2108,1840,1900,2056
504310,12300,12052,26394,26394,250,206,-7,17,23,257,321,3782,46,48,805,1785,1903,2109,2265,2095,1833,1899,2045
505311,12400,12132,26459,26459,124,255,-12,5,22,115,427,3971,50,50,806,1785,1903,2109,2265,2095,1833,1899,2045
506312,12492,12228,26524,26524,173,155,-32,-4,27,-19,403,3851,63,46,806,1785,1903,2109,2265,2095,1833,1899,2045
507313,12564,12312,26589,26589,298,229,-44,-20,19,-61,394,3916,46,57,807,1785,1903,2109,2265,2095,1833,1899,2045
508314,12652,12392,26654,26654,197,254,-55,-32,6,67,360,3906,59,43,806,1785,1903,2109,2265,2095,1833,1899,2045
509315,12748,12472,26719,26719,147,253,-52,-34,-4,220,302,3930,57,45,806,1785,1903,2109,2265,2095,1833,1899,2045
510316,12832,12556,26784,26784,221,228,-49,-46,-14,211,231,3909,46,46,806,1791,1908,2112,2272,2096,1832,1896,2046
511317,12904,12628,26849,26849,296,303,-46,-30,-25,77,155,3927,49,51,806,1791,1908,2112,2272,2096,1832,1896,2046
512318,12976,12716,26914,26914,296,202,-36,-19,-25,295,187,4010,61,52,805,1791,1908,2112,2272,2096,1832,1896,2046
513319,13060,12788,26979,26979,220,302,-27,-10,-19,558,131,4032,51,49,799,1791,1908,2112,2272,2096,1832,1896,2046
514321,13144,12880,27044,27044,220,176,-10,-1,-10,483,110,3833,49,58,804,1791,1908,2112,2272,2096,1832,1896,2046
515321,13244,12944,27109,27109,119,351,-4,10,-2,300,135,4025,49,49,805,1784,1904,2104,2272,2116,1840,1904,2057
516322,13312,13036,27174,27174,319,176,7,15,8,395,134,3924,61,61,807,1784,1904,2104,2272,2116,1840,1904,2057
517323,13392,13140,27239,27239,244,100,2,9,24,433,238,3919,63,50,805,1784,1904,2104,2272,2116,1840,1904,2057
518324,13476,13216,27304,27304,218,274,4,27,24,283,275,3779,56,54,805,1784,1904,2104,2272,2116,1840,1904,2057
519325,13564,13296,27369,27369,193,249,-10,4,21,388,328,3956,55,50,807,1784,1904,2104,2272,2116,1840,1904,2057
520326,13640,13392,27434,27434,267,148,-11,2,19,65,338,3955,46,42,806,1784,1904,2104,2272,2116,1840,1904,2057
521327,13736,13452,27499,27499,142,373,-27,-14,12,116,407,3763,46,46,806,1793,1913,2113,2269,2098,1832,1901,2053
522328,13816,13540,27564,27564,241,198,-28,-14,-2,67,345,3976,54,57,806,1793,1913,2113,2269,2098,1832,1901,2053
523329,13900,13620,27629,27629,216,248,-34,-19,-9,18,311,3924,55,57,805,1793,1913,2113,2269,2098,1832,1901,2053
524330,13984,13696,27694,27694,215,272,-31,-24,-16,146,276,3943,54,42,806,1793,1913,2113,2269,2098,1832,1901,2053
525331,14048,13772,27759,27759,340,272,-34,-26,-16,105,218,3955,53,48,806,1793,1913,2113,2269,2098,1832,1901,2053
526332,14124,13848,27824,27824,265,272,-29,-27,-21,187,190,4025,60,47,806,1792,1911,2111,2263,2102,1836,1903,2056
527333,14212,13912,27889,27889,189,347,-19,-21,-11,212,147,3968,45,42,804,1792,1911,2111,2263,2102,1836,1903,2056
528334,14292,13992,27954,27954,239,246,-11,-18,-8,289,219,4017,44,46,805,1792,1911,2111,2263,2102,1836,1903,2056
529335,14368,14052,28019,28019,264,371,-12,-23,-1,304,115,3859,56,51,805,1792,1911,2111,2263,2102,1836,1903,2056
530336,14440,14116,28084,28084,289,347,-5,-9,3,474,221,4087,59,42,801,1792,1911,2111,2263,2102,1836,1903,2056
531337,14528,14184,28149,28149,188,321,-13,-12,10,463,245,3805,61,43,801,1792,1911,2111,2263,2102,1836,1903,2056
532338,14612,14260,28214,28214,213,271,-6,-17,17,233,282,3953,62,47,803,1788,1906,2110,2264,2099,1833,1895,2048
533339,14700,14364,28279,28279,187,95,-11,2,17,138,299,4001,57,45,805,1788,1906,2110,2264,2099,1833,1895,2048
534340,14780,14456,28344,28344,237,170,-15,-4,19,584,208,3707,45,52,805,1788,1906,2110,2264,2099,1833,1895,2048
535341,14840,14536,28409,28409,362,244,-11,-1,18,628,320,4055,54,46,808,1788,1906,2110,2264,2099,1833,1895,2048
536342,14952,14628,28474,28474,36,169,-10,-1,16,-45,220,3911,49,44,806,1788,1906,2110,2264,2099,1833,1895,2048
537343,15012,14716,28539,28539,361,193,-4,-6,0,74,309,3994,59,54,804,1787,1907,2111,2269,2103,1837,1904,2048
538344,15100,14788,28604,28604,185,293,-10,-8,-7,113,287,3719,57,44,809,1787,1907,2111,2269,2103,1837,1904,2048
539345,15176,14868,28669,28669,260,242,-13,-6,-5,184,348,4054,44,45,804,1787,1907,2111,2269,2103,1837,1904,2048
540346,15264,14964,28734,28734,184,142,-15,-12,-15,133,323,3952,55,45,805,1787,1907,2111,2269,2103,1837,1904,2048
541347,15344,15032,28799,28799,234,317,-19,-21,-11,-32,276,3854,47,43,805,1787,1907,2111,2269,2103,1837,1904,2048
542348,15428,15108,28864,28864,209,266,-23,-27,-9,287,293,4022,43,53,807,1787,1907,2111,2269,2103,1837,1904,2048
543349,15504,15176,28929,28929,258,316,-24,-23,-5,395,321,3928,45,44,804,1789,1906,2111,2267,2096,1833,1901,2054
544350,15580,15240,28994,28994,258,341,-22,-20,-1,371,304,3980,61,51,806,1789,1906,2111,2267,2096,1833,1901,2054
545351,15644,15308,29059,29059,333,316,-25,-16,3,372,249,3904,61,44,804,1789,1906,2111,2267,2096,1833,1901,2054
546352,15740,15392,29124,29124,132,216,-16,-10,8,562,203,4015,60,46,804,1789,1906,2111,2267,2096,1833,1901,2054
547353,15808,15468,29189,29189,307,265,-20,-15,11,412,228,3774,53,46,798,1789,1906,2111,2267,2096,1833,1901,2054
548354,15892,15556,29254,29254,207,190,-10,15,16,245,212,4123,54,45,805,1791,1910,2111,2262,2096,1829,1890,2056
549355,15968,15644,29319,29319,256,189,-9,14,23,467,167,3843,42,42,804,1791,1910,2111,2262,2096,1829,1890,2056
550356,16036,15728,29384,29384,306,214,8,16,14,300,236,3879,61,53,806,1791,1910,2111,2262,2096,1829,1890,2056
551357,16124,15808,29449,29449,181,239,1,15,11,196,292,4002,56,45,806,1791,1910,2111,2262,2096,1829,1890,2056
552358,16212,15896,29514,29514,180,188,2,15,-1,76,302,3859,46,46,805,1791,1910,2111,2262,2096,1829,1890,2056
553359,16292,15972,29579,29579,230,263,-11,-9,1,25,323,3858,50,48,807,1791,1910,2111,2262,2096,1829,1890,2056
554360,16376,16048,29644,29644,204,262,-18,-2,-11,118,420,4081,42,48,807,1783,1901,2098,2251,2084,1818,1888,2040
555361,16448,16112,29709,29709,279,337,-29,-20,-9,199,354,3701,51,41,805,1783,1901,2098,2251,2084,1818,1888,2040
556362,16508,16188,29774,29774,354,262,-39,-28,-9,193,400,4004,58,52,806,1783,1901,2098,2251,2084,1818,1888,2040
557363,16600,16272,29839,29839,154,212,-42,-24,-5,407,332,3871,56,41,804,1783,1901,2098,2251,2084,1818,1888,2040
558364,16668,16364,29904,29904,304,161,-42,-17,-5,355,266,4009,48,56,803,1783,1901,2098,2251,2084,1818,1888,2040
559365,16744,16432,29969,29969,253,311,-36,-18,-1,219,161,3745,55,41,807,1807,1919,2127,2287,2119,1855,1919,2067
560366,16840,16508,30034,30034,128,261,-27,-5,-2,414,211,4169,43,42,806,1807,1919,2127,2287,2119,1855,1919,2067
561367,16900,16572,30099,30099,353,336,-17,4,0,332,159,3893,42,46,805,1807,1919,2127,2287,2119,1855,1919,2067
562368,17000,16660,30164,30164,102,185,-18,0,-2,371,249,3974,58,50,807,1807,1919,2127,2287,2119,1855,1919,2067
563369,17064,16752,30229,30229,327,160,-13,14,1,316,218,3917,45,43,803,1807,1919,2127,2287,2119,1855,1919,2067
564370,17140,16828,30294,30294,252,259,-13,5,2,229,227,4051,61,48,803,1807,1919,2127,2287,2119,1855,1919,2067
565371,17216,16912,30359,30359,251,209,-11,13,3,452,263,3855,54,44,802,1785,1902,2109,2261,2100,1834,1903,2056
566372,17276,16976,30424,30424,351,334,-14,11,6,359,293,3810,57,49,805,1785,1902,2109,2261,2100,1834,1903,2056
567373,17364,17072,30489,30489,176,133,-17,11,9,135,342,4055,56,42,806,1785,1902,2109,2261,2100,1834,1903,2056
568374,17440,17140,30554,30554,251,308,-26,-1,6,238,329,3877,43,40,802,1785,1902,2109,2261,2100,1834,1903,2056
569375,17516,17224,30619,30619,250,208,-29,1,1,132,294,3772,49,39,807,1785,1902,2109,2261,2100,1834,1903,2056
570376,17600,17308,30684,30684,200,207,-36,1,-1,45,316,4019,60,45,805,1789,1908,2112,2264,2096,1836,1904,2053
571377,17696,17392,30749,30749,124,207,-35,-2,1,121,238,3944,51,41,806,1789,1908,2112,2264,2096,1836,1904,2053
572378,17760,17468,30814,30814,324,256,-32,-22,-5,262,251,3964,41,48,807,1789,1908,2112,2264,2096,1836,1904,2053
573379,17840,17536,30879,30879,224,306,-31,-12,-9,147,203,3871,55,38,807,1789,1908,2112,2264,2096,1836,1904,2053
574380,17908,17624,30944,30944,299,181,-29,1,-11,184,212,4103,44,42,804,1789,1908,2112,2264,2096,1836,1904,2053
575381,17984,17684,31009,31009,248,356,-35,-15,-6,253,154,3865,59,45,805,1789,1908,2112,2264,2096,1836,1904,2053
576382,18076,17756,31074,31074,148,281,-26,-19,1,345,285,3940,50,45,806,1791,1909,2113,2267,2097,1831,1901,2053
577383,18140,17840,31139,31139,323,205,-26,-13,7,117,290,3899,48,46,804,1791,1909,2113,2267,2097,1831,1901,2053
578384,18224,17904,31204,31204,197,330,-24,-7,15,219,221,3995,60,41,806,1791,1909,2113,2267,2097,1831,1901,2053
579385,18284,17976,31269,31269,348,280,-22,3,9,392,177,3924,56,46,805,1791,1909,2113,2267,2097,1831,1901,2053
580386,18376,18052,31334,31334,147,255,-14,-2,18,341,160,3858,57,41,805,1791,1909,2113,2267,2097,1831,1901,2053
581387,18448,18128,31399,31399,272,254,-13,9,8,337,266,4037,59,49,800,1791,1913,2114,2266,2096,1830,1899,2048
582388,18516,18216,31464,31464,297,179,-14,0,3,305,270,3879,57,40,802,1791,1913,2114,2266,2096,1830,1899,2048
583389,18580,18300,31529,31529,322,203,-17,2,3,333,267,3986,48,39,804,1791,1913,2114,2266,2096,1830,1899,2048
584390,18668,18368,31594,31594,171,303,-20,-8,0,169,315,3805,46,49,806,1791,1913,2114,2266,2096,1830,1899,2048
585391,18728,18448,31659,31659,346,228,-20,-4,-4,196,327,4054,45,38,805,1791,1913,2114,2266,2096,1830,1899,2048
586392,18816,18536,31724,31724,171,177,-25,-7,-1,188,250,3890,58,52,806,1791,1913,2114,2266,2096,1830,1899,2048
587393,18880,18624,31789,31789,321,177,-24,-5,4,36,228,3921,45,45,804,1793,1911,2114,2269,2094,1831,1900,2050
588394,18968,18704,31854,31854,170,227,-22,-9,-1,123,236,3939,60,42,807,1793,1911,2114,2269,2094,1831,1900,2050
589395,19060,18780,31919,31919,144,251,-23,-14,1,247,206,3954,49,42,805,1793,1911,2114,2269,2094,1831,1900,2050
590396,19128,18844,31984,31984,294,326,-18,-15,-2,250,170,3942,59,51,807,1793,1911,2114,2269,2094,1831,1900,2050
591397,19192,18932,32049,32049,319,176,-14,-4,2,162,188,3994,60,40,807,1793,1911,2114,2269,2094,1831,1900,2050
592398,19288,18996,32114,32114,119,326,-15,-12,0,322,259,3932,46,52,804,1791,1903,2106,2268,2098,1835,1901,2040
593399,19352,19076,32179,32179,319,225,-13,-8,-4,242,241,3946,61,54,805,1791,1903,2106,2268,2098,1835,1901,2040
594400,19428,19144,32244,32244,243,300,-15,-12,2,203,235,3962,60,41,806,1791,1903,2106,2268,2098,1835,1901,2040
595401,19516,19220,32309,32309,168,250,-13,-11,8,314,243,3936,60,38,804,1791,1903,2106,2268,2098,1835,1901,2040
596402,19604,19300,32374,32374,167,225,-14,-12,10,239,279,3832,46,40,804,1791,1903,2106,2268,2098,1835,1901,2040
597403,19668,19388,32439,32439,317,174,-16,-19,9,99,236,4029,47,39,807,1791,1903,2106,2268,2098,1835,1901,2040
598404,19752,19480,32504,32504,192,148,-14,-16,9,283,264,3851,47,49,802,1792,1908,2116,2276,2112,1840,1896,2048
599405,19816,19544,32569,32569,317,323,-17,-14,9,450,249,3793,51,43,801,1792,1908,2116,2276,2112,1840,1896,2048
600406,19908,19628,32768,32768,144,201,-16,-6,8,380,311,4095,48,43,807,1792,1908,2116,2276,2112,1840,1896,2048
601407,19980,19712,32833,32833,269,201,-20,-11,1,198,260,3900,53,42,803,1792,1908,2116,2276,2112,1840,1896,2048
602408,20052,19784,32898,32898,269,276,-16,-3,4,158,229,3905,62,47,807,1792,1908,2116,2276,2112,1840,1896,2048
603409,20140,19876,32963,32963,169,150,-13,0,-4,416,287,3935,63,40,806,1788,1908,2112,2260,2100,1836,1904,2056
604410,20224,19948,33028,33028,193,275,-9,0,0,207,197,3981,56,52,805,1788,1908,2112,2260,2100,1836,1904,2056
605411,20304,20024,33093,33093,218,250,-1,5,7,183,196,4079,54,44,807,1788,1908,2112,2260,2100,1836,1904,2056
606412,20380,20104,33158,33158,242,224,0,4,0,224,279,3823,48,40,806,1788,1908,2112,2260,2100,1836,1904,2056
607413,20456,20176,33223,33223,242,274,-3,-1,-3,328,304,3905,48,39,806,1788,1908,2112,2260,2100,1836,1904,2056
608414,20540,20252,33288,33288,192,249,-13,-13,-3,405,347,3957,62,40,806,1788,1908,2112,2260,2100,1836,1904,2056
609415,20612,20336,33353,33353,267,198,-20,-12,-2,309,374,3804,50,42,805,1789,1907,2112,2264,2098,1832,1900,2052
610416,20688,20420,33418,33418,241,198,-27,-9,1,209,279,3894,49,42,806,1789,1907,2112,2264,2098,1832,1900,2052
611417,20772,20500,33483,33483,191,222,-28,-15,0,183,352,3983,59,42,806,1789,1907,2112,2264,2098,1832,1900,2052
612418,20852,20584,33548,33548,215,197,-28,-14,6,239,270,3935,56,39,806,1789,1907,2112,2264,2098,1832,1900,2052
613419,20928,20652,33613,33613,240,297,-25,-18,8,304,260,3863,45,48,806,1789,1907,2112,2264,2098,1832,1900,2052
614420,21004,20748,33678,33678,240,121,-25,-13,11,303,187,4004,50,40,806,1792,1910,2113,2266,2098,1834,1900,2053
615421,21072,20816,33743,33743,290,296,-17,-3,8,219,279,3983,48,53,800,1792,1910,2113,2266,2098,1834,1900,2053
616422,21148,20904,33808,33808,240,171,-19,-8,10,159,206,3854,52,46,802,1792,1910,2113,2266,2098,1834,1900,2053
617423,21220,21000,33873,33873,264,120,-17,-8,-2,360,278,3966,49,46,804,1792,1910,2113,2266,2098,1834,1900,2053
618424,21304,21068,33938,33938,189,295,-9,11,-10,360,278,3911,57,49,806,1792,1910,2113,2266,2098,1834,1900,2053
619425,21364,21152,34003,34003,339,194,-16,5,-5,272,267,3899,44,42,806,1792,1910,2113,2266,2098,1834,1900,2053
620426,21444,21236,34068,34068,214,194,-11,-2,2,364,276,4018,57,54,805,1790,1907,2110,2262,2099,1834,1901,2052
621427,21544,21308,34133,34133,88,269,-19,-12,-7,269,421,3888,59,40,805,1790,1907,2110,2262,2099,1834,1901,2052
622428,21596,21412,34198,34198,388,68,-24,-9,6,-88,262,3789,61,37,806,1790,1907,2110,2262,2099,1834,1901,2052
623429,21684,21472,34263,34263,163,343,-32,-2,7,382,339,3968,49,52,807,1790,1907,2110,2262,2099,1834,1901,2052
624430,21772,21552,34328,34328,162,217,-32,-12,2,276,229,3938,54,45,805,1790,1907,2110,2262,2099,1834,1901,2052
625431,21848,21628,34393,34393,237,242,-32,-16,-1,45,314,3894,44,39,805,1789,1907,2112,2265,2099,1834,1901,2053
626432,21904,21720,34458,34458,362,141,-32,-15,1,194,268,3861,58,39,807,1789,1907,2112,2265,2099,1834,1901,2053
627433,22004,21780,34523,34523,86,342,-33,-20,2,454,271,3970,45,52,805,1789,1907,2112,2265,2099,1834,1901,2053
628434,22060,21860,34588,34588,361,216,-31,-5,-5,303,261,3937,50,52,805,1789,1907,2112,2265,2099,1834,1901,2053
629435,22148,21940,34653,34653,161,216,-28,0,-1,157,201,3969,63,45,806,1789,1907,2112,2265,2099,1834,1901,2053
630436,22224,22024,34718,34718,236,190,-19,5,-6,417,205,3949,54,39,804,1789,1907,2112,2265,2099,1834,1901,2053
631437,22288,22104,34783,34783,311,215,-18,4,0,325,159,3922,42,40,807,1788,1907,2107,2255,2099,1837,1895,2047
632438,22380,22164,34848,34848,135,340,-15,12,6,325,241,4068,55,50,802,1788,1907,2107,2255,2099,1837,1895,2047
633439,22464,22244,34913,34913,184,215,-19,3,6,248,276,3776,50,44,800,1788,1907,2107,2255,2099,1837,1895,2047
634440,22520,22292,34978,34978,360,415,-19,4,7,179,268,3961,51,40,805,1788,1907,2107,2255,2099,1837,1895,2047
635441,22580,22388,35043,35043,335,114,-26,4,7,302,281,3928,63,44,806,1788,1907,2107,2255,2099,1837,1895,2047
636442,22676,22468,35108,35108,109,214,-24,0,4,270,307,3926,59,52,801,1780,1896,2104,2256,2090,1824,1892,2048
637443,22752,22564,35173,35173,234,113,-26,0,-1,223,267,3869,60,42,806,1780,1896,2104,2256,2090,1824,1892,2048
638444,22828,22640,35238,35238,233,238,-30,-5,5,278,211,3947,58,51,807,1780,1896,2104,2256,2090,1824,1892,2048
639445,22884,22708,35303,35303,359,288,-30,-1,3,140,297,4004,60,37,807,1780,1896,2104,2256,2090,1824,1892,2048
640446,22968,22788,35368,35368,183,213,-30,-9,3,17,246,3909,61,43,805,1780,1896,2104,2256,2090,1824,1892,2048
641453,23048,22888,35433,35433,208,87,-27,-15,7,289,200,3881,47,49,803,1780,1896,2104,2256,2090,1824,1892,2048
642448,23116,22944,35498,35498,283,362,-19,-10,6,164,233,4024,45,42,806,1801,1918,2125,2283,2119,1851,1915,2067
643449,23208,23044,35563,35563,132,86,-22,-8,9,26,160,3918,49,51,807,1801,1918,2125,2283,2119,1851,1915,2067
644450,23276,23104,35628,35628,282,336,-11,0,0,143,209,3929,50,47,803,1801,1918,2125,2283,2119,1851,1915,2067
645451,23364,23188,35693,35693,157,186,-12,-3,2,411,214,3924,57,45,808,1801,1918,2125,2283,2119,1851,1915,2067
646452,23420,23268,35758,35758,357,210,-14,-2,0,343,303,3918,57,36,803,1801,1918,2125,2283,2119,1851,1915,2067
647453,23496,23332,35823,35823,231,310,-22,-11,1,253,259,3938,59,49,807,1793,1908,2109,2268,2095,1828,1897,2050
648454,23596,23412,35888,35888,81,210,-18,-11,-2,261,256,3882,46,44,804,1793,1908,2109,2268,2095,1828,1897,2050
649455,23652,23496,35953,35953,356,185,-24,-8,0,313,299,4024,59,36,800,1793,1908,2109,2268,2095,1828,1897,2050
650456,23716,23580,36018,36018,306,184,-24,-6,4,116,232,3857,53,51,803,1793,1908,2109,2268,2095,1828,1897,2050
651457,23788,23628,36083,36083,256,410,-26,-14,6,222,240,3890,58,38,804,1793,1908,2109,2268,2095,1828,1897,2050
652458,23880,23712,36148,36148,130,184,-21,-13,5,388,219,3984,51,36,805,1795,1912,2114,2272,2096,1832,1900,2052
653459,23916,23780,36213,36213,481,284,-21,-11,6,265,247,3911,44,37,802,1795,1912,2114,2272,2096,1832,1900,2052
654460,24000,23872,36278,36278,180,133,-16,-12,4,144,234,3991,48,39,807,1795,1912,2114,2272,2096,1832,1900,2052
655461,24096,23924,36343,36343,104,384,-20,-7,-4,189,289,3900,54,49,801,1795,1912,2114,2272,2096,1832,1900,2052
656462,24184,24004,36408,36408,154,208,-17,-15,-4,108,172,3921,54,36,807,1795,1912,2114,2272,2096,1832,1900,2052
657463,24252,24080,36473,36473,279,233,-10,-3,-7,366,216,4020,47,46,805,1795,1912,2114,2272,2096,1832,1900,2052
658464,24324,24148,36538,36538,254,283,-8,-2,-6,323,260,3888,41,43,807,1790,1902,2099,2264,2098,1831,1899,2051
659465,24412,24200,36603,36603,153,383,-9,-7,2,423,274,3964,43,37,805,1790,1902,2099,2264,2098,1831,1899,2051
660466,24476,24284,36668,36668,303,183,-17,-15,12,223,336,3923,49,42,805,1790,1902,2099,2264,2098,1831,1899,2051
661467,24560,24352,36733,36733,178,283,-22,-10,12,138,248,3889,61,36,804,1790,1902,2099,2264,2098,1831,1899,2051
662468,24632,24428,36798,36798,253,233,-20,-8,17,420,204,3825,54,37,805,1790,1902,2099,2264,2098,1831,1899,2051
663469,24708,24500,36863,36863,227,257,-15,-10,22,169,252,4146,43,35,805,1790,1910,2110,2264,2100,1833,1900,2054
664470,24792,24584,36928,36928,177,182,-12,-9,18,-5,332,3891,51,36,805,1790,1910,2110,2264,2100,1833,1900,2054
665471,24872,24652,36993,36993,201,282,-16,-18,13,165,245,3927,55,44,805,1790,1910,2110,2264,2100,1833,1900,2054
666472,24932,24752,37058,37058,327,81,-15,-15,4,300,298,3952,49,41,802,1790,1910,2110,2264,2100,1833,1900,2054
667473,25004,24820,37123,37123,251,281,-17,-12,-6,212,246,3975,60,39,801,1790,1910,2110,2264,2100,1833,1900,2054
668474,25096,24908,37188,37188,126,155,-10,-13,-16,281,274,3967,59,35,806,1790,1910,2110,2264,2100,1833,1900,2054
669475,25148,24984,37253,37253,376,230,-7,-7,-22,240,244,3904,43,32,805,1787,1905,2110,2259,2097,1834,1901,2053
670476,25216,25048,37318,37318,276,305,-6,-5,-23,356,285,3943,55,33,808,1787,1905,2110,2259,2097,1834,1901,2053
671477,25284,25100,37383,37383,276,380,-8,-4,-23,540,282,3913,57,33,803,1787,1905,2110,2259,2097,1834,1901,2053
672478,25352,25176,37448,37448,276,230,-13,-4,-14,342,304,3890,55,40,803,1787,1905,2110,2259,2097,1834,1901,2053
673479,25404,25252,37513,37513,376,230,-20,-10,-5,358,287,3957,60,35,803,1787,1905,2110,2259,2097,1834,1901,2053
674480,25472,25312,37578,37578,276,330,-16,-1,-1,295,279,3942,56,37,805,1780,1896,2100,2256,2084,1818,1892,2044
675481,25572,25376,37643,37643,75,305,-21,-8,12,375,217,3839,45,36,803,1780,1896,2100,2256,2084,1818,1892,2044
676482,25640,25468,37708,37708,275,129,-17,-1,16,282,256,3947,58,32,803,1780,1896,2100,2256,2084,1818,1892,2044
677483,25720,25532,37773,37773,200,304,-20,2,21,174,223,3955,59,47,806,1780,1896,2100,2256,2084,1818,1892,2044
678484,25780,25612,37838,37838,325,204,-10,1,20,219,245,3950,58,31,806,1780,1896,2100,2256,2084,1818,1892,2044
679485,25852,25684,37903,37903,250,254,-10,-5,22,249,317,3905,59,41,805,1780,1896,2100,2256,2084,1818,1892,2044
680486,25948,25752,37968,37968,99,279,-14,-3,15,169,292,3869,48,34,805,1816,1912,2120,2272,2100,1848,1912,2068
681487,26012,25820,38033,38033,299,279,-22,-9,14,17,317,3918,58,42,805,1816,1912,2120,2272,2100,1848,1912,2068
682488,26080,25900,38098,38098,274,203,-13,-5,7,130,285,4065,56,33,807,1816,1912,2120,2272,2100,1848,1912,2068
683489,26184,25984,38163,38163,48,178,-21,-4,-2,192,297,3857,52,32,800,1816,1912,2120,2272,2100,1848,1912,2068
684490,26260,26040,38228,38228,223,353,-17,-8,-16,240,329,3971,45,37,801,1816,1912,2120,2272,2100,1848,1912,2068
685491,26316,26116,38293,38293,348,228,-25,-15,-15,274,310,3947,44,36,809,1790,1908,2112,2264,2097,1834,1901,2056
686492,26384,26176,38358,38358,273,328,-25,-15,-18,344,306,3817,50,39,804,1790,1908,2112,2264,2097,1834,1901,2056
687493,26472,26244,38423,38423,147,278,-30,-7,-18,315,287,3997,52,35,804,1790,1908,2112,2264,2097,1834,1901,2056
688494,26536,26316,38488,38488,297,253,-29,-13,-19,320,251,3947,47,40,804,1790,1908,2112,2264,2097,1834,1901,2056
689497,26608,26388,38553,38553,247,252,-26,-10,-18,386,256,3775,58,40,806,1790,1908,2112,2264,2097,1834,1901,2056
690496,26680,26460,38618,38618,247,252,-25,-8,-3,252,225,4108,50,35,804,1790,1908,2112,2264,2097,1834,1901,2056
691497,26764,26528,38683,38683,171,277,-25,-11,-1,254,271,3883,53,45,805,1787,1906,2109,2259,2100,1836,1901,2056
692498,26864,26588,38748,38748,71,327,-19,-3,3,246,220,3847,58,32,805,1787,1906,2109,2259,2100,1836,1901,2056
693499,26924,26664,38813,38813,321,227,-22,-5,20,481,217,4089,60,33,806,1787,1906,2109,2259,2100,1836,1901,2056
694500,27008,26728,38878,38878,170,302,-20,-5,25,347,293,3927,49,37,806,1787,1906,2109,2259,2100,1836,1901,2056
695501,27080,26784,38943,38943,245,352,-25,5,27,149,284,3887,49,39,804,1787,1906,2109,2259,2100,1836,1901,2056
696502,27144,26852,39008,39008,295,277,-26,-4,25,159,306,3940,57,31,805,1788,1908,2112,2262,2100,1833,1900,2054
697503,27232,26928,39073,39073,145,227,-27,-4,17,172,252,3954,58,42,804,1788,1908,2112,2262,2100,1833,1900,2054
698504,27308,26992,39138,39138,219,302,-26,-7,4,267,304,3890,57,36,804,1788,1908,2112,2262,2100,1833,1900,2054
699505,27396,27072,39203,39203,144,202,-19,-5,-3,204,266,3946,49,41,807,1788,1908,2112,2262,2100,1833,1900,2054
700506,27460,27136,39268,39268,294,302,-24,-7,-17,170,285,4011,49,36,801,1788,1908,2112,2262,2100,1833,1900,2054
701507,27532,27208,39333,39333,244,252,-25,-6,-29,221,317,3882,51,31,802,1788,1908,2112,2262,2100,1833,1900,2054
702508,27600,27288,39398,39398,269,201,-29,-16,-19,341,258,3793,57,46,804,1787,1903,2109,2265,2097,1831,1899,2053
703509,27680,27364,39463,39463,193,226,-23,4,-15,370,252,4074,54,32,805,1787,1903,2109,2265,2097,1831,1899,2053
704510,27756,27428,39528,39528,218,301,-29,-9,-6,204,217,3894,42,31,805,1787,1903,2109,2265,2097,1831,1899,2053
705511,27832,27500,39593,39593,218,251,-29,-6,-3,113,220,3874,54,38,806,1787,1903,2109,2265,2097,1831,1899,2053
706512,27900,27584,39658,39658,268,175,-29,-6,6,245,224,3953,46,31,805,1787,1903,2109,2265,2097,1831,1899,2053
707513,27996,27636,39723,39723,92,376,-20,-5,15,370,212,3931,47,44,806,1789,1907,2112,2265,2095,1830,1897,2049
708514,28056,27708,39788,39788,317,250,-24,-4,22,299,173,3860,55,43,806,1789,1907,2112,2265,2095,1830,1897,2049
709515,28124,27784,39853,39853,267,225,-16,2,22,194,168,4085,43,44,805,1789,1907,2112,2265,2095,1830,1897,2049
710516,28216,27836,39918,39918,116,375,-22,-2,20,231,252,3794,55,32,804,1789,1907,2112,2265,2095,1830,1897,2049
711517,28300,27908,39983,39983,166,250,-8,6,16,173,186,4009,59,44,805,1789,1907,2112,2265,2095,1830,1897,2049
712518,28380,27992,40048,40048,190,175,-19,-6,11,153,278,4043,61,39,805,1789,1907,2112,2265,2095,1830,1897,2049
713519,28484,28060,40113,40113,39,275,-14,-10,2,135,321,3859,45,35,806,1783,1903,2111,2255,2095,1833,1899,2047
714520,28572,28132,40178,40178,139,250,-24,-14,4,163,257,3991,43,40,807,1783,1903,2111,2255,2095,1833,1899,2047
715521,28652,28196,40243,40243,188,300,-24,-7,-1,199,268,3949,57,31,808,1783,1903,2111,2255,2095,1833,1899,2047
716522,28728,28252,40308,40308,213,350,-32,-20,-3,281,336,3942,48,29,806,1783,1903,2111,2255,2095,1833,1899,2047
717523,28808,28300,40373,40373,188,400,-33,-28,-1,340,333,3862,42,32,800,1783,1903,2111,2255,2095,1833,1899,2047
718524,28876,28368,40438,40438,263,275,-39,-34,1,312,282,3921,48,42,799,1792,1906,2106,2256,2086,1824,1892,2052
719525,28972,28448,40503,40503,87,200,-36,-23,-4,238,284,3969,51,32,804,1792,1906,2106,2256,2086,1824,1892,2052
720526,29036,28492,40568,40568,287,425,-35,-15,1,259,185,3865,55,44,805,1792,1906,2106,2256,2086,1824,1892,2052
721527,29104,28572,40633,40633,262,200,-21,-1,3,243,99,4042,52,30,807,1792,1906,2106,2256,2086,1824,1892,2052
722528,29168,28632,40698,40698,287,325,-9,0,2,502,117,4025,59,41,801,1792,1906,2106,2256,2086,1824,1892,2052
723529,29276,28704,40763,40763,11,250,1,-1,2,510,150,3943,56,37,805,1792,1906,2106,2256,2086,1824,1892,2052
724530,29352,28756,40828,40828,211,375,7,10,1,266,220,4046,53,31,803,1791,1915,2118,2269,2103,1839,1911,2063
725531,29424,28828,40893,40893,236,250,6,18,6,333,216,3858,53,36,808,1791,1915,2118,2269,2103,1839,1911,2063
726532,29512,28912,40958,40958,135,175,5,21,2,353,335,4072,45,32,804,1791,1915,2118,2269,2103,1839,1911,2063
727533,29596,28952,41023,41023,159,450,-9,8,4,38,300,3817,53,37,805,1791,1915,2118,2269,2103,1839,1911,2063
728534,29672,29028,41088,41088,209,225,-9,-5,13,163,312,3813,50,40,807,1791,1915,2118,2269,2103,1839,1911,2063
729535,29776,29096,41153,41153,33,275,-17,-2,13,66,369,4077,42,30,803,1790,1907,2108,2265,2095,1830,1898,2043
730536,29824,29148,41218,41218,384,375,-22,-16,8,34,301,3732,56,32,806,1790,1907,2108,2265,2095,1830,1898,2043
731537,29916,29216,41283,41283,108,275,-25,-20,-3,212,344,3936,41,42,807,1790,1907,2108,2265,2095,1830,1898,2043
732538,29968,29276,41348,41348,358,325,-25,-25,-1,29,232,4007,45,36,802,1790,1907,2108,2265,2095,1830,1898,2043
733539,30056,29336,41413,41413,133,325,-29,-24,-6,182,276,3984,47,39,806,1790,1907,2108,2265,2095,1830,1898,2043
734540,30136,29396,41478,41478,182,325,-22,-14,-13,105,201,3844,60,30,797,1790,1907,2108,2265,2095,1830,1898,2043
735541,30216,29460,41543,41543,182,300,-15,-12,-7,331,186,4059,42,42,801,1790,1908,2104,2256,2096,1832,1896,2044
736542,30280,29536,41608,41608,282,225,-13,-8,-15,514,243,3988,43,30,805,1790,1908,2104,2256,2096,1832,1896,2044
737543,30364,29600,41673,41673,157,300,-11,-7,-9,278,224,3876,56,32,805,1790,1908,2104,2256,2096,1832,1896,2044
738544,30444,29652,41738,41738,181,376,-13,-11,-6,456,262,3887,59,31,805,1790,1908,2104,2256,2096,1832,1896,2044
739546,30512,29724,41803,41803,256,250,-11,0,-2,460,257,3922,47,44,805,1790,1908,2104,2256,2096,1832,1896,2044
740546,30564,29792,41868,41868,356,275,-12,-5,-1,385,282,3925,47,42,804,1788,1906,2109,2261,2094,1831,1898,2051
741547,30660,29848,41933,41933,81,351,-19,-5,5,352,330,3795,53,35,805,1788,1906,2109,2261,2094,1831,1898,2051
742548,30704,29920,41998,41998,406,250,-19,4,10,350,279,3919,55,44,803,1788,1906,2109,2261,2094,1831,1898,2051
743549,30772,29980,42063,42063,256,325,-19,3,10,350,263,3957,44,31,805,1788,1906,2109,2261,2094,1831,1898,2051
744550,30836,30060,42128,42128,281,200,-15,1,12,22,267,3831,48,31,802,1788,1906,2109,2261,2094,1831,1898,2051
745551,30932,30112,42193,42193,80,375,-14,7,11,47,260,3954,51,29,804,1788,1906,2109,2261,2094,1831,1898,2051
746552,30996,30168,42258,42258,280,351,-13,6,7,233,238,3881,55,42,805,1788,1907,2114,2268,2096,1830,1900,2052
747553,31080,30224,42323,42323,155,351,-12,-2,0,98,300,3966,59,31,805,1788,1907,2114,2268,2096,1830,1900,2052
748554,31152,30280,42388,42388,230,351,-15,-5,-9,43,349,3929,59,33,803,1788,1907,2114,2268,2096,1830,1900,2052
749555,31232,30340,42453,42453,179,326,-23,-16,-12,127,349,3869,45,33,805,1788,1907,2114,2268,2096,1830,1900,2052
750556,31312,30404,42518,42518,179,301,-25,-23,-12,236,300,3980,52,42,804,1788,1907,2114,2268,2096,1830,1900,2052
751557,31400,30460,42583,42583,129,351,-24,-16,-4,333,323,3907,56,35,801,1789,1902,2104,2261,2097,1830,1897,2051
752558,31460,30536,42648,42648,304,226,-29,-25,4,353,315,3913,48,27,801,1789,1902,2104,2261,2097,1830,1897,2051
753559,31564,30588,42713,42713,28,377,-37,-17,11,386,300,3987,44,25,805,1789,1902,2104,2261,2097,1830,1897,2051
754560,31636,30632,42778,42778,228,427,-36,-10,9,464,233,3914,59,39,804,1789,1902,2104,2261,2097,1830,1897,2051
755561,31696,30656,42843,42843,303,553,-29,-8,20,252,202,3981,40,31,805,1789,1902,2104,2261,2097,1830,1897,2051
756562,31780,30724,42908,42908,152,278,-22,-8,19,330,247,3937,51,25,802,1789,1902,2104,2261,2097,1830,1897,2051
757563,31852,30780,42973,42973,227,353,-18,-8,15,268,268,3956,55,27,799,1781,1895,2095,2252,2093,1826,1885,2037
758564,31952,30836,43038,43038,51,353,-16,3,9,235,244,3936,45,31,806,1781,1895,2095,2252,2093,1826,1885,2037
759565,32008,30888,43103,43103,326,379,-13,4,9,147,273,3932,55,30,804,1781,1895,2095,2252,2093,1826,1885,2037
760566,32080,30944,43168,43168,226,354,-15,5,-1,267,334,3967,39,40,806,1781,1895,2095,2252,2093,1826,1885,2037
761567,32172,30996,43233,43233,101,379,-17,-1,-9,235,262,3872,58,39,802,1781,1895,2095,2252,2093,1826,1885,2037
762568,32240,31036,43298,43298,250,455,-20,0,-6,228,341,4023,46,24,803,1800,1927,2135,2274,2107,1855,1935,2077
763569,32300,31104,43363,43363,301,280,-27,-8,-3,181,322,3806,56,34,805,1800,1927,2135,2274,2107,1855,1935,2077
764570,32384,31152,43428,43428,150,405,-31,-1,-8,187,371,3965,55,28,801,1800,1927,2135,2274,2107,1855,1935,2077
765571,32460,31216,43493,43493,200,305,-35,-20,4,327,190,3815,59,32,804,1800,1927,2135,2274,2107,1855,1935,2077
766572,32540,31256,43558,43558,174,456,-28,-15,2,292,285,4009,44,35,803,1800,1927,2135,2274,2107,1855,1935,2077
767573,32620,31304,43623,43623,174,406,-36,-12,9,251,232,3876,53,34,805,1800,1927,2135,2274,2107,1855,1935,2077
768574,32700,31368,43688,43688,174,306,-37,-16,13,280,191,3910,43,40,798,1785,1901,2108,2262,2090,1827,1896,2048
769575,32788,31440,43753,43753,123,256,-29,-4,14,351,229,3966,40,29,799,1785,1901,2108,2262,2090,1827,1896,2048
770576,32844,31492,43818,43818,323,381,-32,-12,13,219,176,3953,55,27,805,1785,1901,2108,2262,2090,1827,1896,2048
771577,32920,31528,43883,43883,198,482,-21,-5,4,91,200,3927,50,33,806,1785,1901,2108,2262,2090,1827,1896,2048
772578,32984,31612,43948,43948,273,182,-19,3,4,311,198,4064,51,40,801,1785,1901,2108,2262,2090,1827,1896,2048
773579,33100,31664,44013,44013,-53,382,-16,-1,6,323,219,3930,57,27,802,1786,1908,2110,2264,2096,1824,1892,2044
774580,33176,31724,44078,44078,197,332,-18,-7,0,162,261,3857,44,41,805,1786,1908,2110,2264,2096,1824,1892,2044
775581,33260,31768,44143,44143,146,433,-15,-7,-1,105,249,4017,45,39,805,1786,1908,2110,2264,2096,1824,1892,2044
776582,33320,31840,44208,44208,296,257,-21,-9,0,336,301,3889,44,27,804,1786,1908,2110,2264,2096,1824,1892,2044
777583,33404,31888,44273,44273,146,408,-25,-9,0,317,273,3887,40,40,803,1786,1908,2110,2264,2096,1824,1892,2044
778584,33460,31952,44338,44338,321,308,-24,-8,-3,269,248,3820,43,44,804,1786,1908,2110,2264,2096,1824,1892,2044
779585,33548,32012,44403,44403,121,333,-24,-7,-4,282,249,3986,49,33,804,1793,1910,2109,2263,2092,1828,1898,2050
780586,33624,32072,44468,44468,195,333,-24,-12,-5,218,278,3862,59,44,803,1793,1910,2109,2263,2092,1828,1898,2050
781587,33692,32144,44533,44533,245,258,-24,-13,-1,174,219,4014,44,31,805,1793,1910,2109,2263,2092,1828,1898,2050
782588,33768,32180,44598,44598,195,484,-19,-10,-4,293,204,3910,53,31,804,1793,1910,2109,2263,2092,1828,1898,2050
783589,33836,32240,44663,44663,245,334,-19,-12,-3,166,238,3959,55,32,804,1793,1910,2109,2263,2092,1828,1898,2050
784590,33900,32308,44728,44728,270,284,-15,-7,-1,278,213,3959,43,43,802,1790,1910,2110,2262,2096,1832,1898,2044
785591,33976,32364,44793,44793,195,359,-16,-13,-1,275,214,3878,48,44,799,1790,1910,2110,2262,2096,1832,1898,2044
786592,34064,32420,44858,44858,119,359,-13,-1,-1,229,244,4026,48,29,800,1790,1910,2110,2262,2096,1832,1898,2044
787593,34128,32500,44923,44923,269,209,-15,-10,1,339,220,3873,42,38,804,1790,1910,2110,2262,2096,1832,1898,2044
788594,34224,32548,44988,44988,68,409,-10,-5,1,377,225,3970,43,41,805,1790,1910,2110,2262,2096,1832,1898,2044
789595,34276,32616,45053,45053,344,284,-13,-4,1,341,232,3933,56,40,805,1790,1910,2110,2262,2096,1832,1898,2044
790596,34364,32692,45118,45118,118,234,-15,-2,2,186,258,3896,49,42,804,1785,1902,2105,2259,2091,1827,1895,2048
791597,34440,32736,45183,45183,193,434,-15,-9,3,214,262,3944,50,31,803,1785,1902,2105,2259,2091,1827,1895,2048
792598,34504,32804,45248,45248,268,284,-16,-15,8,256,231,3891,47,44,806,1785,1902,2105,2259,2091,1827,1895,2048
793599,34592,32868,45313,45313,117,309,-16,-11,6,292,284,3973,57,36,802,1785,1902,2105,2259,2091,1827,1895,2048
794600,34676,32936,45378,45378,142,284,-14,-7,12,228,244,3858,58,43,804,1785,1902,2105,2259,2091,1827,1895,2048
795601,34744,32992,45443,45443,242,359,-13,-6,9,143,249,4004,39,31,806,1775,1908,2111,2252,2079,1823,1887,2047
796602,34824,33060,45508,45508,166,284,-16,-5,3,150,218,3866,41,38,806,1775,1908,2111,2252,2079,1823,1887,2047
797603,34896,33128,45573,45573,216,284,-17,-9,-2,261,307,3887,46,37,804,1775,1908,2111,2252,2079,1823,1887,2047
798604,34980,33208,45638,45638,141,209,-11,-8,1,244,270,3915,46,32,806,1775,1908,2111,2252,2079,1823,1887,2047
799605,35048,33268,45703,45703,241,334,-13,-5,-6,309,282,3943,42,31,805,1775,1908,2111,2252,2079,1823,1887,2047
800606,35128,33320,45768,45768,165,384,-11,-9,-8,76,325,3905,49,40,806,1775,1908,2111,2252,2079,1823,1887,2047
801607,35208,33380,45833,45833,165,335,-19,-2,0,338,273,3893,50,45,804,1792,1904,2096,2252,2084,1824,1888,2038
802608,35272,33440,45898,45898,265,335,-3,6,3,416,186,4061,40,33,801,1792,1904,2096,2252,2084,1824,1888,2038
803609,35348,33520,45963,45963,190,209,1,10,-2,234,324,4016,42,30,800,1792,1904,2096,2252,2084,1824,1888,2038
804610,35432,33584,46028,46028,139,309,-6,-2,4,203,298,3751,57,33,803,1792,1904,2096,2252,2084,1824,1888,2038
805611,35516,33636,46093,46093,139,385,-3,6,5,370,328,4068,47,44,806,1792,1904,2096,2252,2084,1824,1888,2038
806612,35576,33692,46158,46158,289,360,-7,12,-3,307,269,3941,48,46,806,1791,1911,2111,2263,2095,1834,1903,2055
807613,35664,33768,46223,46223,113,235,-4,7,-8,197,254,3930,58,35,804,1791,1911,2111,2263,2095,1834,1903,2055
808614,35744,33844,46288,46288,163,234,-4,2,1,417,280,3951,55,39,803,1791,1911,2111,2263,2095,1834,1903,2055
809615,35832,33916,46353,46353,112,259,-7,-1,-2,237,322,3962,42,33,807,1791,1911,2111,2263,2095,1834,1903,2055
810616,35892,33968,46418,46418,287,384,-7,4,1,99,262,4005,41,31,806,1791,1911,2111,2263,2095,1834,1903,2055
811617,35972,34032,46483,46483,162,309,-10,-2,1,163,304,3857,52,30,806,1791,1911,2111,2263,2095,1834,1903,2055
812618,36060,34088,46548,46548,112,360,-12,3,7,242,282,3919,53,40,803,1783,1901,2107,2259,2095,1829,1897,2050
813619,36128,34160,46613,46613,236,260,-6,9,11,299,200,3899,44,44,805,1783,1901,2107,2259,2095,1829,1897,2050
814620,36200,34224,46678,46678,211,310,-9,3,4,230,309,3965,50,33,805,1783,1901,2107,2259,2095,1829,1897,2050
815621,36300,34288,46743,46743,35,310,-11,-2,5,233,281,3844,56,33,805,1783,1901,2107,2259,2095,1829,1897,2050
816622,36364,34356,46808,46808,260,285,-13,0,1,319,297,3900,51,33,805,1783,1901,2107,2259,2095,1829,1897,2050
817623,36456,34424,46873,46873,85,284,-11,6,-7,353,324,3982,38,36,807,1788,1904,2108,2258,2092,1827,1893,2046
818624,36524,34460,46938,46938,235,485,-17,1,3,304,276,3770,55,35,804,1788,1904,2108,2258,2092,1827,1893,2046
819625,36588,34536,47003,47003,260,235,-18,4,-1,282,290,4077,54,46,802,1788,1904,2108,2258,2092,1827,1893,2046
820626,36668,34608,47068,47068,159,260,-16,10,-5,319,247,3876,57,37,797,1788,1904,2108,2258,2092,1827,1893,2046
821627,36740,34672,47133,47133,209,310,-23,-10,-1,268,257,3800,51,32,805,1788,1904,2108,2258,2092,1827,1893,2046
822628,36816,34744,47198,47198,184,260,-21,3,4,150,295,4014,44,41,804,1788,1904,2108,2258,2092,1827,1893,2046
823629,36892,34804,47263,47263,184,335,-28,3,-3,171,276,3891,45,38,805,1786,1903,2091,2242,2090,1825,1893,2045
824630,36968,34880,47328,47328,183,234,-28,-12,-5,147,319,3842,47,45,805,1786,1903,2091,2242,2090,1825,1893,2045
825631,37040,34936,47393,47393,208,360,-28,-6,2,197,300,3931,38,33,806,1786,1903,2091,2242,2090,1825,1893,2045
826632,37116,35004,47458,47458,183,285,-24,-1,6,143,201,3911,57,44,804,1786,1903,2091,2242,2090,1825,1893,2045
827633,37188,35064,47523,47523,208,335,-21,-1,9,117,256,3973,57,34,805,1786,1903,2091,2242,2090,1825,1893,2045
828634,37268,35140,47588,47588,157,234,-24,-10,6,243,247,3875,52,40,805,1785,1901,2104,2256,2089,1824,1890,2044
829635,37340,35216,47653,47653,207,234,-20,-13,3,229,238,3990,55,33,806,1785,1901,2104,2256,2089,1824,1890,2044
830636,37412,35276,47718,47718,207,334,-16,3,3,286,258,3909,51,34,806,1785,1901,2104,2256,2089,1824,1890,2044
831637,37480,35340,47783,47783,232,309,-21,3,3,415,257,3909,42,32,804,1785,1901,2104,2256,2089,1824,1890,2044
832638,37560,35412,47848,47848,157,259,-19,4,6,387,282,3921,52,35,804,1785,1901,2104,2256,2089,1824,1890,2044
833639,37644,35464,47913,47913,131,384,-24,-11,8,370,318,3970,41,35,806,1785,1901,2104,2256,2089,1824,1890,2044
834640,37700,35520,47978,47978,306,360,-22,1,5,352,226,3947,40,35,804,1785,1901,2100,2253,2079,1815,1886,2035
835641,37776,35596,48043,48043,181,234,-27,-6,4,324,298,3938,48,42,798,1785,1901,2100,2253,2079,1815,1886,2035
836642,37848,35668,48108,48108,206,259,-30,-8,4,235,278,3886,48,35,802,1785,1901,2100,2253,2079,1815,1886,2035
837643,37932,35724,48173,48173,131,359,-24,-2,-3,301,244,3962,38,33,805,1785,1901,2100,2253,2079,1815,1886,2035
838644,37992,35796,48238,48238,281,259,-22,9,-7,208,173,4038,52,40,804,1785,1901,2100,2253,2079,1815,1886,2035
839645,38072,35844,48303,48303,155,410,-15,3,-4,243,236,3911,44,42,804,1774,1888,2084,2244,2072,1808,1878,2024
840646,38136,35916,48368,48368,255,260,-19,-7,0,135,244,3943,55,44,803,1774,1888,2084,2244,2072,1808,1878,2024
841647,38228,35980,48433,48433,80,310,-11,-7,-2,84,206,4019,54,33,805,1774,1888,2084,2244,2072,1808,1878,2024
842648,38288,36040,48498,48498,280,335,-16,-7,3,120,212,3968,57,46,805,1774,1888,2084,2244,2072,1808,1878,2024
843649,38364,36108,48563,48563,179,285,-13,-1,13,205,219,3856,38,36,803,1774,1888,2084,2244,2072,1808,1878,2024
844650,38440,36148,48628,48628,179,460,-16,-1,6,192,282,3971,50,40,805,1774,1888,2084,2244,2072,1808,1878,2024
845651,38516,36224,48693,48693,179,235,-14,-6,-5,213,265,3855,53,32,802,1791,1915,2123,2271,2085,1819,1903,2047
846652,38592,36288,48758,48758,179,310,-14,1,-7,384,249,3911,38,37,806,1791,1915,2123,2271,2085,1819,1903,2047
847653,38656,36344,48823,48823,254,360,-19,-6,-4,308,250,4001,52,35,805,1791,1915,2123,2271,2085,1819,1903,2047
848654,38728,36408,48888,48888,204,310,-16,0,-6,168,268,3923,45,36,803,1791,1915,2123,2271,2085,1819,1903,2047
849655,38764,36468,48953,48953,429,335,-19,-21,-2,273,266,3853,55,34,805,1791,1915,2123,2271,2085,1819,1903,2047
850656,38876,36524,49152,49152,-44,364,-8,-1,-2,305,337,3989,52,47,801,1778,1897,2094,2246,2066,1804,1874,2024
851657,38944,36592,49217,49217,231,289,-25,-14,2,185,244,3925,40,49,806,1778,1897,2094,2246,2066,1804,1874,2024
852658,39032,36648,49282,49282,106,364,-18,-11,2,315,264,3920,42,44,801,1778,1897,2094,2246,2066,1804,1874,2024
853659,39092,36712,49347,49347,281,314,-20,0,11,255,228,3998,41,43,800,1778,1897,2094,2246,2066,1804,1874,2024
854660,39156,36780,49412,49412,256,289,-17,-7,12,158,238,3950,44,47,803,1778,1897,2094,2246,2066,1804,1874,2024
855661,39228,36848,49477,49477,206,289,-20,-13,7,265,247,3813,58,37,804,1778,1897,2094,2246,2066,1804,1874,2024
856662,39308,36932,49542,49542,155,188,-18,-13,6,281,276,4033,41,38,805,1776,1892,2086,2235,2059,1798,1870,2016
857663,39388,36988,49607,49607,155,364,-15,-5,4,275,231,3969,44,49,806,1776,1892,2086,2235,2059,1798,1870,2016
858664,39464,37060,49672,49672,180,263,-13,-7,-1,251,264,3908,53,46,804,1776,1892,2086,2235,2059,1798,1870,2016
859665,39528,37124,49737,49737,255,313,-13,-1,-10,319,249,3984,42,42,805,1776,1892,2086,2235,2059,1798,1870,2016
860666,39592,37204,49802,49802,255,213,-11,-5,-9,190,255,3931,52,41,804,1776,1892,2086,2235,2059,1798,1870,2016
861667,39676,37288,49867,49867,129,188,-10,-6,-6,202,293,3902,50,52,805,1771,1887,2083,2234,2056,1796,1872,2016
862668,39752,37352,49932,49932,179,313,-16,-6,-4,204,296,3875,57,39,806,1771,1887,2083,2234,2056,1796,1872,2016
863669,39824,37428,49997,49997,204,237,-18,-4,1,228,340,3952,41,40,805,1771,1887,2083,2234,2056,1796,1872,2016
864670,39892,37504,50062,50062,229,237,-24,-12,2,364,295,3804,44,37,805,1771,1887,2083,2234,2056,1796,1872,2016
865671,39948,37564,50127,50127,304,337,-22,-13,-3,154,325,3910,52,46,805,1771,1887,2083,2234,2056,1796,1872,2016
866677,40032,37644,50192,50192,129,212,-22,-9,7,119,231,4002,39,47,803,1771,1887,2083,2234,2056,1796,1872,2016
867673,40092,37704,50257,50257,279,337,-20,-4,9,457,264,3874,44,42,806,1769,1885,2077,2226,2049,1789,1863,2009
868674,40168,37760,50322,50322,178,362,-24,-8,6,331,265,3979,40,38,803,1769,1885,2077,2226,2049,1789,1863,2009
869675,40252,37832,50387,50387,128,262,-16,-6,-2,301,218,3979,43,52,800,1769,1885,2077,2226,2049,1789,1863,2009
870676,40332,37904,50452,50452,153,262,-14,-10,5,359,234,3902,41,49,801,1769,1885,2077,2226,2049,1789,1863,2009
871677,40408,37992,50517,50517,177,161,-16,-2,2,150,287,4055,55,42,806,1769,1885,2077,2226,2049,1789,1863,2009
872678,40484,38080,50582,50582,177,161,-15,0,3,232,219,3904,45,42,806,1768,1880,2072,2224,2042,1786,1860,2005
873679,40556,38148,50647,50647,202,286,-16,-7,2,340,266,3893,51,53,806,1768,1880,2072,2224,2042,1786,1860,2005
874680,40636,38216,50712,50712,151,286,-17,-5,3,100,302,4000,46,50,804,1768,1880,2072,2224,2042,1786,1860,2005
875681,40720,38284,50777,50777,126,286,-16,-9,8,314,302,3903,55,44,805,1768,1880,2072,2224,2042,1786,1860,2005
876682,40796,38376,50842,50842,176,135,-25,-14,5,358,318,3970,42,45,805,1768,1880,2072,2224,2042,1786,1860,2005
877683,40864,38436,50907,50907,226,335,-26,-8,-2,194,238,3886,41,39,807,1764,1880,2072,2224,2042,1786,1860,2005
878684,40932,38520,50972,50972,226,185,-23,-5,-5,261,280,3968,44,42,803,1764,1877,2064,2210,2041,1778,1859,1997
879685,41020,38600,51037,51037,100,209,-26,-9,4,218,252,3896,48,45,806,1764,1877,2064,2210,2041,1778,1859,1997
880686,41080,38680,51102,51102,275,209,-24,-10,0,354,296,3907,56,42,807,1764,1877,2064,2210,2041,1778,1859,1997
881687,41164,38760,51167,51167,125,208,-25,-9,-2,177,252,4012,41,40,805,1764,1877,2064,2210,2041,1778,1859,1997
882688,41224,38816,51232,51232,275,359,-25,-15,4,239,247,3864,57,42,806,1764,1877,2064,2210,2041,1778,1859,1997
883689,41288,38924,51297,51297,250,33,-26,-15,2,240,278,3989,47,55,802,1772,1872,2066,2216,2036,1780,1856,1996
884690,41384,39008,51362,51362,49,182,-28,-10,3,164,333,3891,59,42,807,1772,1872,2066,2216,2036,1780,1856,1996
885691,41464,39084,51427,51427,149,232,-29,-12,-1,141,238,3940,56,45,808,1772,1872,2066,2216,2036,1780,1856,1996
886692,41532,39152,51492,51492,224,282,-21,-3,-1,314,219,3944,57,49,803,1772,1872,2066,2216,2036,1780,1856,1996
887693,41620,39244,51557,51557,98,131,-17,0,1,321,279,3896,44,46,799,1772,1872,2066,2216,2036,1780,1856,1996
888694,41688,39316,51622,51622,223,256,-21,-12,0,251,286,3938,48,44,807,1759,1878,2070,2217,2040,1780,1856,2000
889695,41760,39376,51687,51687,198,331,-23,-5,1,373,241,4044,55,47,804,1759,1878,2070,2217,2040,1780,1856,2000
890696,41852,39460,51752,51752,72,181,-22,-9,11,351,259,3848,51,50,803,1759,1878,2070,2217,2040,1780,1856,2000
891697,41928,39536,51817,51817,172,230,-29,-3,8,206,282,3898,47,42,807,1759,1878,2070,2217,2040,1780,1856,2000
892698,42020,39604,51882,51882,71,280,-28,-6,1,181,270,4021,59,46,805,1759,1878,2070,2217,2040,1780,1856,2000
893699,42104,39684,51947,51947,121,205,-21,-2,1,385,224,4021,42,56,806,1759,1878,2070,2217,2040,1780,1856,2000
894700,42180,39764,52012,52012,171,205,-24,-10,-6,384,261,3898,58,43,806,1757,1872,2063,2211,2035,1777,1854,1997
895701,42272,39844,52077,52077,70,204,-28,-8,-13,241,336,3924,46,54,806,1757,1872,2063,2211,2035,1777,1854,1997
896702,42356,39920,52142,52142,119,229,-32,-10,-4,222,304,3995,49,44,806,1757,1872,2063,2211,2035,1777,1854,1997
897703,42448,40000,52207,52207,69,204,-34,-12,-5,105,298,4076,55,42,806,1757,1872,2063,2211,2035,1777,1854,1997
898704,42564,40092,52272,52272,-82,128,-36,-18,4,170,243,3893,55,51,807,1757,1872,2063,2211,2035,1777,1854,1997
899705,42656,40160,52337,52337,67,278,-38,-11,15,402,209,4064,50,46,801,1757,1873,2063,2211,2031,1774,1851,1996
900706,42752,40236,52402,52402,41,228,-35,-11,19,68,185,3937,45,45,805,1757,1873,2063,2211,2031,1774,1851,1996
901707,42820,40316,52467,52467,216,202,-33,-11,17,70,230,3849,56,54,807,1757,1873,2063,2211,2031,1774,1851,1996
902708,42908,40392,52532,52532,90,227,-31,-17,14,234,237,3859,49,46,805,1757,1873,2063,2211,2031,1774,1851,1996
903709,42980,40472,52597,52597,190,202,-24,-15,10,350,263,3963,47,49,804,1757,1873,2063,2211,2031,1774,1851,1996
904710,43056,40552,52662,52662,165,201,-22,-10,-2,347,229,3968,58,45,802,1757,1873,2063,2211,2031,1774,1851,1996
905711,43128,40628,52727,52727,190,226,-16,-10,-9,269,235,3877,46,50,805,1758,1873,2063,2211,2027,1771,1850,1993
906712,43224,40732,52792,52792,39,50,-19,-19,-8,260,268,3919,47,47,805,1758,1873,2063,2211,2027,1771,1850,1993
907713,43288,40816,52857,52857,239,174,-14,-14,-13,270,229,3956,49,48,809,1758,1873,2063,2211,2027,1771,1850,1993
908714,43364,40876,52922,52922,164,325,-19,-15,-17,306,299,4003,48,47,805,1758,1873,2063,2211,2027,1771,1850,1993
909715,43444,40956,52987,52987,138,199,-27,-17,-12,282,295,3803,58,56,804,1758,1873,2063,2211,2027,1771,1850,1993
910716,43536,41036,53052,53052,63,199,-31,-9,-5,343,285,3992,59,59,806,1755,1869,2057,2207,2019,1764,1841,1983
911717,43632,41120,53117,53117,37,173,-37,-11,-2,285,302,3994,43,50,806,1755,1869,2057,2207,2019,1764,1841,1983
912718,43720,41196,53182,53182,87,223,-43,-17,5,246,240,3917,59,54,807,1755,1869,2057,2207,2019,1764,1841,1983
913719,43776,41264,53247,53247,287,273,-40,-16,16,460,245,3872,43,45,806,1755,1869,2057,2207,2019,1764,1841,1983
914721,43856,41364,53312,53312,136,72,-32,-6,24,282,224,3962,51,46,803,1755,1869,2057,2207,2019,1764,1841,1983
915721,43920,41456,53377,53377,236,122,-32,-6,28,113,230,3997,59,57,807,1755,1869,2057,2207,2019,1764,1841,1983
916722,44008,41524,53442,53442,86,271,-25,-11,12,7,228,3934,43,50,805,1750,1864,2049,2196,2016,1760,1836,1977
917723,44092,41608,53507,53507,110,171,-17,-9,15,35,145,4007,54,58,805,1750,1864,2049,2196,2016,1760,1836,1977
918724,44172,41704,53572,53572,135,95,-14,-5,4,729,289,3878,63,58,807,1750,1864,2049,2196,2016,1760,1836,1977
919725,44252,41752,53637,53637,135,396,-21,-29,-1,183,336,3559,51,48,807,1750,1864,2049,2196,2016,1760,1836,1977
920726,44344,41832,53702,53702,59,195,-25,-25,-13,58,344,4238,45,61,802,1750,1864,2049,2196,2016,1760,1836,1977
921727,44416,41916,53767,53767,184,170,-26,-8,-6,240,140,3913,53,50,803,1737,1848,2034,2187,2007,1753,1831,1961
922728,44488,42004,53832,53832,184,144,-18,-18,-12,364,346,3793,51,49,806,1737,1848,2034,2187,2007,1753,1831,1961
923729,44588,42084,53897,53897,8,194,-20,-13,-10,255,227,4149,46,55,806,1737,1848,2034,2187,2007,1753,1831,1961
924730,44656,42156,53962,53962,208,244,-28,-14,-3,157,272,3832,52,50,807,1737,1848,2034,2187,2007,1753,1831,1961
925731,44720,42244,54027,54027,233,143,-24,3,-9,352,318,3900,47,46,805,1737,1848,2034,2187,2007,1753,1831,1961
926732,44816,42324,54092,54092,32,193,-32,-10,-2,266,277,3907,53,49,806,1737,1848,2034,2187,2007,1753,1831,1961
927733,44908,42416,54157,54157,56,117,-26,-17,1,127,276,4025,48,50,807,1751,1866,2050,2200,2006,1753,1847,1983
928734,44952,42512,54222,54222,357,91,-28,-12,8,174,229,3947,59,52,808,1751,1866,2050,2200,2006,1753,1847,1983
929735,45036,42624,54287,54287,106,-10,-25,-14,9,403,238,3793,60,61,804,1751,1866,2050,2200,2006,1753,1847,1983
930736,45120,42716,54352,54352,106,115,-26,-21,19,87,237,3938,55,55,808,1751,1866,2050,2200,2006,1753,1847,1983
931737,45228,42812,54417,54417,-45,89,-25,5,9,148,293,4140,62,48,807,1751,1866,2050,2200,2006,1753,1847,1983
932738,45292,42908,54482,54482,230,88,-30,-12,6,367,324,3846,62,61,809,1737,1854,2038,2185,2000,1746,1824,1962
933739,45384,42980,54547,54547,54,238,-42,-18,-1,507,423,3942,54,57,806,1737,1854,2038,2185,2000,1746,1824,1962
934740,45452,43048,54612,54612,204,263,-48,-21,5,203,211,3729,56,62,807,1737,1854,2038,2185,2000,1746,1824,1962
935741,45552,43144,54677,54677,3,87,-43,-21,-1,304,309,4217,47,54,805,1737,1854,2038,2185,2000,1746,1824,1962
936742,45644,43220,54742,54742,53,212,-40,0,-2,345,202,4027,48,52,809,1737,1854,2038,2185,2000,1746,1824,1962
937743,45728,43300,54807,54807,102,186,-40,-5,5,394,224,3859,48,47,806,1737,1854,2038,2185,2000,1746,1824,1962
938744,45804,43392,54872,54872,152,111,-39,-12,3,417,239,3892,45,53,802,1732,1845,2028,2171,1990,1738,1815,1954
939745,45884,43468,54937,54937,127,211,-34,-7,6,237,224,3973,46,50,807,1732,1845,2028,2171,1990,1738,1815,1954
940746,45952,43556,55002,55002,201,135,-32,-14,9,198,269,4004,45,51,806,1732,1845,2028,2171,1990,1738,1815,1954
941747,46060,43664,55067,55067,-50,9,-35,-8,8,-59,297,4010,60,53,806,1732,1845,2028,2171,1990,1738,1815,1954
942748,46148,43740,55132,55132,75,209,-34,-12,10,259,234,3970,48,51,809,1732,1845,2028,2171,1990,1738,1815,1954
943749,46232,43820,55197,55197,99,183,-42,-12,-4,339,331,3979,55,62,807,1722,1834,2016,2160,1978,1726,1807,1944
944750,46292,43884,55262,55262,249,283,-46,-27,-3,79,230,3469,61,51,807,1722,1834,2016,2160,1978,1726,1807,1944
945751,46368,43960,55327,55327,149,208,-49,-26,3,396,259,4070,60,52,804,1722,1834,2016,2160,1978,1726,1807,1944
946752,46476,44052,55392,55392,-52,107,-39,-4,2,365,298,4174,53,63,806,1722,1834,2016,2160,1978,1726,1807,1944
947753,46556,44156,55457,55457,123,31,-41,-13,1,-20,196,3846,48,56,809,1722,1834,2016,2160,1978,1726,1807,1944
948754,46624,44232,55522,55522,198,206,-30,-19,-8,184,295,3994,54,60,809,1722,1834,2016,2160,1978,1726,1807,1944
949755,46712,44308,55587,55587,72,206,-49,-22,-4,215,309,3781,56,62,806,1715,1827,2007,2154,1972,1722,1802,1938
950756,46784,44396,55652,55652,172,130,-42,-5,-6,270,269,3797,50,55,807,1715,1827,2007,2154,1972,1722,1802,1938
951757,46848,44488,55717,55717,222,105,-42,-5,-2,425,244,4050,62,52,807,1715,1827,2007,2154,1972,1722,1802,1938
952758,46920,44580,55782,55782,172,104,-34,-22,-2,363,225,3995,44,51,806,1715,1827,2007,2154,1972,1722,1802,1938
953759,47016,44660,55847,55847,21,179,-34,-17,0,96,232,3802,53,55,807,1715,1827,2007,2154,1972,1722,1802,1938
954760,47128,44736,55912,55912,-80,203,-31,-4,2,271,199,4008,52,63,808,1715,1829,2009,2153,1967,1718,1800,1936
955761,47192,44808,55977,55977,220,228,-36,6,6,563,286,3940,53,50,796,1715,1829,2009,2153,1967,1718,1800,1936
956762,47272,44896,56042,56042,120,128,-36,-7,4,273,310,3938,59,59,805,1715,1829,2009,2153,1967,1718,1800,1936
957763,47356,44988,56107,56107,94,102,-34,-1,4,23,247,3876,48,50,807,1715,1829,2009,2153,1967,1718,1800,1936
958764,47452,45072,56172,56172,18,151,-35,-7,-2,250,336,4042,55,54,808,1715,1829,2009,2153,1967,1718,1800,1936
959765,47560,45164,56237,56237,-58,101,-39,-12,2,93,208,3848,55,47,809,1715,1829,2009,2153,1967,1718,1800,1936
960766,47632,45256,56302,56302,167,100,-35,-6,-2,232,246,3878,55,58,808,1700,1808,2010,2154,1968,1718,1800,1935
961767,47712,45328,56367,56367,117,225,-36,-16,-2,195,314,3968,52,61,808,1700,1808,2010,2154,1968,1718,1800,1935
962768,47788,45400,56432,56432,142,225,-42,-12,-2,273,194,3903,55,61,807,1700,1808,2010,2154,1968,1718,1800,1935
963769,47872,45484,56497,56497,91,149,-36,-12,-2,374,220,3984,62,49,807,1700,1808,2010,2154,1968,1718,1800,1935
964770,47932,45592,56562,56562,241,-2,-30,-15,-2,297,225,3801,60,49,808,1700,1808,2010,2154,1968,1718,1800,1935
965771,48004,45676,56627,56627,166,148,-32,-14,5,326,220,4024,61,50,807,1713,1820,2001,2145,1961,1714,1796,1931
966772,48076,45760,56692,56692,166,147,-32,-9,7,143,191,4013,60,64,807,1713,1820,2001,2145,1961,1714,1796,1931
967773,48168,45840,56757,56757,40,172,-31,0,5,348,247,3848,53,47,807,1713,1820,2001,2145,1961,1714,1796,1931
968774,48264,45912,56822,56822,14,222,-27,4,3,485,247,3888,46,49,809,1713,1820,2001,2145,1961,1714,1796,1931
969775,48364,46012,56887,56887,-11,46,-30,-9,3,256,212,3824,52,55,808,1713,1820,2001,2145,1961,1714,1796,1931
970776,48448,46084,56952,56952,88,221,-24,-7,6,268,217,4072,57,47,810,1713,1820,2001,2145,1961,1714,1796,1931
971777,48508,46156,57017,57017,238,221,-26,10,-5,254,273,4135,50,60,807,1710,1822,2001,2144,1960,1711,1793,1927
972778,48592,46252,57082,57082,88,70,-24,-3,3,-77,181,3583,56,55,801,1710,1822,2001,2144,1960,1711,1793,1927
973779,48704,46336,57147,57147,-88,144,-19,-9,1,281,256,4000,45,48,809,1710,1822,2001,2144,1960,1711,1793,1927
974780,48752,46424,57212,57212,312,119,-21,-2,1,-102,301,4179,62,60,800,1710,1822,2001,2144,1960,1711,1793,1927
975781,48828,46524,57277,57277,137,43,-32,-17,-11,-163,271,3787,55,60,806,1710,1822,2001,2144,1960,1711,1793,1927
976782,48924,46624,57342,57342,11,42,-32,-32,3,181,164,3639,58,47,809,1708,1818,1997,2144,1958,1706,1785,1929
977783,49012,46680,57407,57407,60,317,-25,-27,3,457,294,4096,44,53,811,1708,1818,1997,2144,1958,1706,1785,1929
978784,49092,46768,57472,57472,110,117,-23,-21,1,196,183,3975,44,43,806,1708,1818,1997,2144,1958,1706,1785,1929
979785,49188,46824,57537,57537,9,317,-21,-23,0,539,211,3765,48,52,808,1708,1818,1997,2144,1958,1706,1785,1929
980786,49256,46904,57602,57602,184,167,-9,2,7,661,141,4117,57,45,807,1708,1818,1997,2144,1958,1706,1785,1929
981787,49308,47012,57667,57667,285,-9,-6,10,2,775,243,3961,44,59,807,1708,1818,1997,2144,1958,1706,1785,1929
982788,49388,47088,57732,57732,109,190,-5,2,6,351,190,3885,47,57,808,1711,1822,2002,2145,1959,1711,1798,1934
983789,49480,47176,57797,57797,34,115,-13,6,7,108,255,3908,50,53,808,1711,1822,2002,2145,1959,1711,1798,1934
984790,49576,47248,57862,57862,8,215,-13,22,5,289,248,4131,59,49,810,1711,1822,2002,2145,1959,1711,1798,1934
985791,49648,47348,57927,57927,158,39,-21,-1,3,90,388,3750,41,46,809,1711,1822,2002,2145,1959,1711,1798,1934
986792,49740,47436,57992,57992,32,113,-30,-11,1,34,285,3974,53,46,810,1711,1822,2002,2145,1959,1711,1798,1934
987793,49804,47536,58057,58057,207,37,-32,-15,5,-45,264,3862,47,45,810,1714,1827,2006,2151,1963,1716,1798,1932
988794,49896,47616,58122,58122,31,162,-29,-16,4,61,266,3935,60,57,808,1714,1827,2006,2151,1963,1716,1798,1932
989795,49984,47704,58187,58187,56,111,-26,-13,6,108,130,3874,44,48,804,1714,1827,2006,2151,1963,1716,1798,1932
990796,50056,47792,58252,58252,156,111,-17,-25,12,337,233,3949,50,48,809,1714,1827,2006,2151,1963,1716,1798,1932
991797,50128,47872,58317,58317,155,161,-11,-12,4,267,267,3995,58,47,808,1714,1827,2006,2151,1963,1716,1798,1932
992798,50200,47964,58382,58382,155,85,-12,-28,5,364,161,3923,45,56,808,1714,1827,2006,2151,1963,1716,1798,1932
993799,50268,48032,58447,58447,180,235,4,-5,5,509,221,4150,50,54,809,1712,1824,2004,2148,1966,1718,1799,1934
994800,50336,48104,58512,58512,180,210,2,-8,6,346,244,3697,45,52,807,1712,1824,2004,2148,1966,1718,1799,1934
995801,50420,48200,58577,58577,80,59,7,-5,5,275,229,4052,46,46,807,1712,1824,2004,2148,1966,1718,1799,1934
996802,50504,48284,58642,58642,79,133,4,-7,-3,373,329,3968,46,48,809,1712,1824,2004,2148,1966,1718,1799,1934
997803,50600,48364,58707,58707,3,158,-3,-8,-4,142,350,4009,54,47,809,1712,1824,2004,2148,1966,1718,1799,1934
998804,50684,48468,58772,58772,78,7,-15,-5,-7,126,385,3909,53,60,809,1711,1823,2003,2150,1964,1716,1796,1929
999805,50740,48548,58837,58837,253,157,-18,-3,-12,190,304,3900,43,53,810,1711,1823,2003,2150,1964,1716,1796,1929
1000806,50832,48656,58902,58902,28,-19,-21,-17,-14,229,317,3846,62,57,807,1711,1823,2003,2150,1964,1716,1796,1929
1001807,50904,48736,58967,58967,152,155,-20,-17,-13,158,263,3955,47,59,811,1711,1823,2003,2150,1964,1716,1796,1929
1002808,50980,48804,59032,59032,127,230,-20,-12,-13,181,243,3893,47,54,808,1711,1823,2003,2150,1964,1716,1796,1929
1003809,51080,48892,59097,59097,-24,105,-15,-9,-5,403,169,3874,47,59,807,1711,1823,2003,2150,1964,1716,1796,1929
1004810,51160,48960,59162,59162,101,230,-13,-6,3,522,257,4075,54,47,810,1709,1821,1988,2130,1960,1712,1791,1925
1005811,51260,49044,59227,59227,-25,129,-14,-3,-1,404,221,3951,46,61,807,1709,1821,1988,2130,1960,1712,1791,1925
1006812,51324,49136,59292,59292,200,78,-8,6,6,343,208,3897,44,49,805,1709,1821,1988,2130,1960,1712,1791,1925
1007813,51412,49224,59357,59357,49,103,-4,-1,14,319,260,4029,53,55,808,1709,1821,1988,2130,1960,1712,1791,1925
1008814,51488,49296,59422,59422,124,203,-8,-2,14,-109,305,4006,54,57,810,1709,1821,1988,2130,1960,1712,1791,1925
1009815,51564,49368,59487,59487,124,203,-19,-12,18,71,308,3813,52,55,808,1705,1823,2003,2141,1961,1713,1791,1926
1010816,51632,49480,59552,59552,174,-49,-18,-15,18,227,278,3835,43,48,808,1705,1823,2003,2141,1961,1713,1791,1926
1011817,51724,49556,59617,59617,23,176,-21,-24,11,135,363,4060,50,58,809,1705,1823,2003,2141,1961,1713,1791,1926
1012818,51784,49632,59682,59682,223,176,-23,-30,5,130,264,3814,43,58,809,1705,1823,2003,2141,1961,1713,1791,1926
1013819,51876,49744,59747,59747,23,-50,-24,-24,2,329,295,3909,57,45,807,1705,1823,2003,2141,1961,1713,1791,1926
1014820,51936,49828,59812,59812,223,124,-23,-11,-2,551,268,3812,55,48,811,1705,1823,2003,2141,1961,1713,1791,1926
1015821,52032,49912,59877,59877,-3,124,-23,-4,-6,355,298,4192,43,56,807,1702,1812,1992,2130,1954,1704,1786,1920
1016822,52108,49992,59942,59942,122,148,-19,13,-7,576,211,3905,56,52,809,1702,1812,1992,2130,1954,1704,1786,1920
1017823,52176,50072,60007,60007,172,148,-14,12,-5,543,276,3838,46,48,808,1702,1812,1992,2130,1954,1704,1786,1920
1018824,52252,50144,60072,60072,121,198,-19,15,3,306,294,3968,46,55,807,1702,1812,1992,2130,1954,1704,1786,1920
1019825,52320,50224,60137,60137,171,148,-24,11,-1,86,313,3895,55,59,808,1702,1812,1992,2130,1954,1704,1786,1920
1020826,52388,50316,60202,60202,171,72,-34,0,1,79,256,3998,57,44,808,1695,1807,1985,2125,1947,1699,1781,1909
1021827,52468,50384,60267,60267,96,222,-33,1,4,113,346,3927,51,53,808,1695,1807,1985,2125,1947,1699,1781,1909
1022828,52544,50492,60332,60332,121,-29,-36,-12,8,133,296,3845,43,55,807,1695,1807,1985,2125,1947,1699,1781,1909
1023829,52632,50572,60397,60397,45,145,-38,-30,1,-6,321,3943,56,48,806,1695,1807,1985,2125,1947,1699,1781,1909
1024830,52696,50664,60462,60462,195,70,-45,-23,-2,88,374,4003,57,59,809,1695,1807,1985,2125,1947,1699,1781,1909
1025831,52768,50752,60527,60527,145,94,-46,-4,-7,270,242,4049,44,52,808,1695,1807,1985,2125,1947,1699,1781,1909
1026832,52840,50852,60592,60592,145,18,-46,-20,2,331,184,3722,52,45,808,1691,1803,1978,2118,1937,1691,1774,1905
1027833,52936,50936,60657,60657,-6,118,-44,-34,7,307,339,3955,60,45,810,1691,1803,1978,2118,1937,1691,1774,1905
1028834,53004,51024,60722,60722,169,92,-44,-16,6,147,227,4063,59,45,810,1691,1803,1978,2118,1937,1691,1774,1905
1029835,53088,51100,60787,60787,68,167,-38,-11,6,406,174,3843,44,59,808,1691,1803,1978,2118,1937,1691,1774,1905
1030836,53160,51168,60852,60852,143,217,-39,-9,9,795,213,3916,44,57,808,1691,1803,1978,2118,1937,1691,1774,1905
1031837,53236,51260,60917,60917,118,66,-36,6,5,429,250,3848,57,50,807,1688,1798,1972,2112,1929,1684,1767,1897
1032838,53324,51340,60982,60982,42,141,-37,5,10,372,255,3893,55,44,809,1688,1798,1972,2112,1929,1684,1767,1897
1033839,53400,51460,61047,61047,117,-110,-38,2,6,437,285,4112,60,54,809,1688,1798,1972,2112,1929,1684,1767,1897
1034840,53464,51564,61112,61112,192,-11,-43,-1,8,201,269,3918,54,44,808,1688,1798,1972,2112,1929,1684,1767,1897
1035841,53552,51660,61177,61177,42,38,-47,10,3,-4,328,3945,47,48,809,1688,1798,1972,2112,1929,1684,1767,1897
1036842,53620,51760,61242,61242,167,12,-50,16,-4,164,286,3783,44,46,811,1688,1798,1972,2112,1929,1684,1767,1897
1037843,53676,51864,61307,61307,242,-14,-56,-4,1,201,269,3850,42,55,809,1680,1792,1964,2105,1919,1675,1762,1890
1038844,53760,51972,61372,61372,66,-40,-54,-28,1,-30,274,3871,43,54,808,1680,1792,1964,2105,1919,1675,1762,1890
1039845,53836,52040,61437,61437,116,210,-46,-17,-4,-117,261,4048,58,41,810,1680,1792,1964,2105,1919,1675,1762,1890
1040846,53936,52100,61502,61502,-35,260,-45,-15,-10,106,171,3857,54,56,803,1680,1792,1964,2105,1919,1675,1762,1890
1041849,54028,52204,61567,61567,15,-16,-33,-19,-10,220,190,3891,60,44,808,1680,1792,1964,2105,1919,1675,1762,1890
1042848,54096,52276,61632,61632,164,184,-30,1,-8,413,184,4199,55,45,811,1674,1785,1956,2096,1912,1667,1751,1883
1043849,54180,52360,61697,61697,64,108,-27,4,-8,476,209,3941,53,41,807,1674,1785,1956,2096,1912,1667,1751,1883
1044850,54248,52432,61762,61762,164,183,-31,-7,2,245,175,3773,57,41,809,1674,1785,1956,2096,1912,1667,1751,1883
1045851,54332,52500,61827,61827,63,208,-24,6,8,459,210,4125,57,46,807,1674,1785,1956,2096,1912,1667,1751,1883
1046852,54428,52588,61892,61892,-12,83,-29,8,7,464,225,3804,50,45,808,1674,1785,1956,2096,1912,1667,1751,1883
1047853,54476,52660,61957,61957,288,182,-28,-3,10,84,277,3911,50,50,810,1674,1785,1956,2096,1912,1667,1751,1883
1048854,54580,52748,62022,62022,-63,82,-40,-1,14,144,266,4050,57,55,806,1676,1792,1954,2096,1908,1668,1754,1880
1049855,54668,52848,62087,62087,37,6,-39,-3,12,152,247,3881,59,42,807,1676,1792,1954,2096,1908,1668,1754,1880
1050856,54724,52936,62152,62152,237,81,-31,-5,-1,224,331,3937,52,55,811,1676,1792,1954,2096,1908,1668,1754,1880
1051857,54788,53028,62217,62217,187,55,-29,-17,-2,331,177,3891,58,55,808,1676,1792,1954,2096,1908,1668,1754,1880
1052858,54896,53100,62282,62282,-89,180,-32,-28,-1,132,195,3909,59,46,809,1676,1792,1954,2096,1908,1668,1754,1880
1053859,54992,53180,62347,62347,-15,129,-27,-13,-4,357,272,3905,55,59,802,1678,1785,1955,2099,1911,1670,1756,1882
1054860,55052,53268,62412,62412,210,79,-21,-3,-15,283,279,4093,52,51,809,1678,1785,1955,2099,1911,1670,1756,1882
1055861,55128,53340,62477,62477,110,179,-24,-1,-10,58,156,3910,47,44,808,1678,1785,1955,2099,1911,1670,1756,1882
1056862,55208,53424,62542,62542,85,103,-16,4,-1,422,154,4022,60,44,808,1678,1785,1955,2099,1911,1670,1756,1882
1057863,55292,53512,62607,62607,59,78,-13,-7,4,279,242,3706,58,44,804,1678,1785,1955,2099,1911,1670,1756,1882
1058864,55352,53584,62672,62672,209,177,-15,-16,4,41,216,4051,56,46,810,1678,1785,1955,2099,1911,1670,1756,1882
1059865,55464,53644,62737,62737,-117,252,-15,-13,7,283,207,3973,55,57,807,1673,1783,1955,2093,1905,1664,1749,1876
1060866,55536,53744,62802,62802,133,2,-9,-10,13,240,249,3984,51,53,793,1673,1783,1955,2093,1905,1664,1749,1876
1061867,55596,53816,62867,62867,208,176,-14,-2,3,303,260,3901,60,56,809,1673,1783,1955,2093,1905,1664,1749,1876
1062868,55676,53912,62932,62932,83,26,-12,-9,4,387,217,3700,42,44,807,1673,1783,1955,2093,1905,1664,1749,1876
1063869,55744,53984,62997,62997,158,176,-3,-5,4,346,255,4144,44,58,810,1673,1783,1955,2093,1905,1664,1749,1876
1064870,55836,54076,63062,63062,7,50,-6,3,-1,174,257,3973,53,54,807,1671,1751,1914,2085,1903,1662,1748,1874
1065871,55888,54144,63127,63127,257,200,-2,5,-4,276,284,3851,49,55,811,1671,1751,1914,2085,1903,1662,1748,1874
1066872,55964,54212,63192,63192,107,200,-3,0,-11,418,275,3876,43,41,806,1671,1751,1914,2085,1903,1662,1748,1874
1067873,56032,54324,63257,63257,157,-76,-3,-16,-3,121,207,3883,61,56,807,1671,1751,1914,2085,1903,1662,1748,1874
1068874,56108,54412,63322,63322,107,73,-5,-16,-3,213,309,3959,55,55,808,1671,1751,1914,2085,1903,1662,1748,1874
1069875,56192,54516,63387,63387,56,-28,-9,-4,5,108,261,3965,42,56,809,1671,1751,1914,2085,1903,1662,1748,1874
1070876,56284,54612,63452,63452,6,21,-7,3,7,265,306,3994,45,57,810,1667,1777,1949,2089,1906,1666,1752,1879
1071877,56316,54700,63517,63517,381,71,-11,-11,7,318,253,3647,48,44,811,1667,1777,1949,2089,1906,1666,1752,1879
1072878,56400,54764,63582,63582,56,221,-7,-27,13,54,233,3982,51,51,805,1667,1777,1949,2089,1906,1666,1752,1879
1073879,56480,54844,63647,63647,80,120,-4,-14,13,274,212,3919,49,50,808,1667,1777,1949,2089,1906,1666,1752,1879
1074880,56520,54912,63712,63712,331,195,-5,-1,3,583,318,4095,55,41,805,1667,1777,1949,2089,1906,1666,1752,1879
1075881,56632,55004,63777,63777,-120,45,-4,-10,-2,108,191,3580,48,50,805,1669,1780,1955,2095,1916,1674,1758,1886
1076882,56692,55084,63842,63842,205,119,-7,-13,0,142,260,4105,61,41,795,1669,1780,1955,2095,1916,1674,1758,1886
1077883,56748,55176,63907,63907,230,44,-5,4,-12,713,393,4231,61,45,807,1669,1780,1955,2095,1916,1674,1758,1886
1078884,56840,55252,63972,63972,5,143,-13,-1,-10,335,280,3786,55,53,809,1669,1780,1955,2095,1916,1674,1758,1886
1079885,56916,55328,64037,64037,104,143,-17,-12,-7,45,262,3852,47,54,810,1669,1780,1955,2095,1916,1674,1758,1886
1080886,56996,55400,64102,64102,79,168,-13,-5,-8,182,276,4023,50,40,809,1669,1780,1955,2095,1916,1674,1758,1886
1081887,57068,55492,64167,64167,129,42,-9,-3,-7,124,236,3974,52,39,809,1636,1744,1954,2094,1917,1674,1758,1886
1082888,57164,55584,64232,64232,-22,42,-10,-12,-2,172,249,4030,47,42,810,1636,1744,1954,2094,1917,1674,1758,1886
1083889,57224,55672,64297,64297,203,66,-5,-14,12,78,194,3829,52,48,811,1636,1744,1954,2094,1917,1674,1758,1886
1084890,57284,55760,64362,64362,203,66,-6,-3,8,317,386,3819,48,42,808,1636,1744,1954,2094,1917,1674,1758,1886
1085891,57364,55852,64427,64427,78,40,-11,-20,18,144,127,3808,49,43,808,1636,1744,1954,2094,1917,1674,1758,1886
1086892,57444,55940,64492,64492,78,64,-13,-15,20,512,338,4137,57,52,810,1665,1779,1955,2095,1916,1670,1753,1882
1087893,57524,56048,64557,64557,77,-62,-10,-2,14,345,222,3841,60,40,810,1665,1779,1955,2095,1916,1670,1753,1882
