%  Data file recorded 2016/12/5  1:36:33
%  Stride Frequency         = [1, 1]
%  Lead In /Lead Out        = 
%  Deltas (Fractional)      = [0.25, 0.25, 0.25],[0.25, 0.25, 0.25]
%  Phase                    = 32768
%  Experiment.py 
%  Motor Gains    = [5000, 400, 200, 0, 300, 5000, 400, 200, 0, 300]
% Columns: 
% time | Right Leg Pos | Left Leg Pos | Commanded Right Leg Pos | Commanded Left Leg Pos | DCR | DCL | GyroX | GyroY | GyroZ | AX | AY | AZ | RBEMF | LBEMF | VBatt | S1 | S2 | S3 | S4 | S5 | S6 | S7 | S8
630,18652,-16036,17698,-15070,3800,-3800,7,2,-113,-24,81,3974,-8,9,792,1798,1896,2102,2276,2073,1803,1868,2010
1631,18668,-16032,17698,-15070,3800,-3800,7,4,-112,-14,85,3982,10,9,792,1798,1896,2102,2276,2073,1803,1868,2010
2632,18644,-16032,17698,-15070,3800,-3800,8,6,-113,-38,85,3952,0,9,792,1798,1896,2102,2276,2073,1803,1868,2010
3633,18664,-16044,17698,-15070,3800,-3800,8,6,-116,-40,87,3946,-5,6,792,1798,1896,2102,2276,2073,1803,1868,2010
4634,18664,-16024,17698,-15070,3800,-3800,7,7,-116,-23,79,3944,10,9,792,1798,1896,2101,2277,2073,1803,1870,2013
5635,18656,-16032,17698,-15070,3800,-3800,7,5,-114,-23,86,3934,-8,6,792,1798,1896,2101,2277,2073,1803,1870,2013
6636,18664,-16032,17698,-15070,3800,-3800,9,5,-111,-25,77,3933,9,7,792,1798,1896,2101,2277,2073,1803,1870,2013
7637,18652,-16028,17698,-15070,3800,-3800,7,5,-111,-28,59,3949,-4,3,792,1798,1896,2101,2277,2073,1803,1870,2013
8638,18652,-16028,17698,-15070,3800,-3800,7,5,-110,-32,72,3970,-3,1,792,1798,1896,2101,2277,2073,1803,1870,2013
9639,18656,-16028,17698,-15070,3800,-3800,6,4,-110,-14,68,3948,9,6,792,1799,1897,2102,2277,2072,1803,1868,2009
10640,18660,-16028,17698,-15070,3800,-3800,4,3,-111,-17,84,3945,-7,4,792,1799,1897,2102,2277,2072,1803,1868,2009
11641,18652,-16024,17698,-15070,3800,-3800,2,5,-114,-25,81,3952,-3,2,792,1799,1897,2102,2277,2072,1803,1868,2009
12642,18656,-16028,17698,-15070,3800,-3800,3,6,-114,-50,96,3973,10,9,792,1799,1897,2102,2277,2072,1803,1868,2009
13643,18652,-16020,17698,-15070,3800,-3800,7,5,-111,-34,62,3987,-4,9,792,1799,1897,2102,2277,2072,1803,1868,2009
14644,18660,-16016,17698,-15070,3800,-3800,7,5,-110,-45,71,3952,-8,8,792,1799,1897,2102,2277,2072,1803,1868,2009
15645,18664,-16032,17698,-15070,3800,-3800,6,3,-113,-19,84,3965,5,3,792,1800,1898,2104,2280,2073,1803,1868,2009
16646,18648,-16036,17698,-15070,3800,-3800,5,5,-114,-40,80,3984,4,2,792,1800,1898,2104,2280,2073,1803,1868,2009
17647,18660,-16024,17698,-15070,3800,-3800,7,5,-115,-35,88,3963,-6,3,792,1800,1898,2104,2280,2073,1803,1868,2009
18648,18660,-16040,17698,-15070,3800,-3800,11,5,-113,-24,65,3967,4,-4,792,1800,1898,2104,2280,2073,1803,1868,2009
19649,18656,-16028,17698,-15070,3800,-3800,9,2,-112,-13,74,3975,9,-5,791,1800,1898,2104,2280,2073,1803,1868,2009
20650,18660,-16028,17698,-15070,3800,-3800,7,3,-112,-39,73,4011,10,1,792,1798,1896,2101,2277,2071,1803,1868,2009
21651,18648,-16032,17698,-15070,3800,-3800,7,6,-111,-37,66,3985,6,-1,792,1798,1896,2101,2277,2071,1803,1868,2009
22652,18648,-16040,17698,-15070,3800,-3800,6,8,-111,-47,55,4001,-8,-2,792,1798,1896,2101,2277,2071,1803,1868,2009
23653,18660,-16040,17698,-15070,3800,-3800,3,6,-112,-44,62,3971,-3,-4,792,1798,1896,2101,2277,2071,1803,1868,2009
24654,18660,-16032,17698,-15070,3800,-3800,4,4,-113,-8,67,3961,9,-5,792,1798,1896,2101,2277,2071,1803,1868,2009
25657,18656,-16040,17698,-15070,3800,-3800,9,3,-115,-7,70,3989,-7,-6,792,1798,1896,2101,2277,2071,1803,1868,2009
26656,18660,-16040,17698,-15070,3800,-3800,10,5,-113,-26,78,3970,4,-5,792,1798,1897,2102,2277,2072,1804,1868,2009
27657,18652,-16036,17698,-15070,3800,-3800,6,7,-113,-29,63,3949,-2,-5,792,1798,1897,2102,2277,2072,1804,1868,2009
28658,18656,-16040,17698,-15070,3800,-3800,5,7,-115,-37,54,3973,-2,-5,792,1798,1897,2102,2277,2072,1804,1868,2009
29659,18656,-16028,17698,-15070,3800,-3800,5,6,-115,-45,68,3975,10,-5,792,1798,1897,2102,2277,2072,1804,1868,2009
30660,18672,-16028,17698,-15070,3800,-3800,7,6,-115,-23,94,3998,-5,-5,792,1798,1897,2102,2277,2072,1804,1868,2009
31661,18652,-16040,17698,-15070,3800,-3800,8,4,-113,-29,79,4001,6,-5,792,1799,1899,2106,2282,2076,1806,1872,2012
32662,18660,-16020,17698,-15070,3800,-3800,9,1,-114,-42,83,3950,5,-4,792,1799,1899,2106,2282,2076,1806,1872,2012
33663,18664,-16020,17698,-15070,3800,-3800,11,3,-115,-47,55,3937,-5,5,792,1799,1899,2106,2282,2076,1806,1872,2012
34664,18656,-16032,17698,-15070,3800,-3800,8,3,-115,-49,49,3949,10,4,792,1799,1899,2106,2282,2076,1806,1872,2012
35665,18668,-16032,17698,-15070,3800,-3800,9,3,-114,-40,62,3963,-3,5,792,1799,1899,2106,2282,2076,1806,1872,2012
36666,18652,-16048,17698,-15070,3800,-3800,6,5,-116,-40,68,4003,0,8,791,1799,1899,2106,2282,2076,1806,1872,2012
37667,18656,-16032,17698,-15070,3800,-3800,7,8,-114,-36,79,4002,10,-3,792,1798,1897,2101,2277,2071,1803,1869,2010
38668,18648,-16020,17698,-15070,3800,-3800,8,6,-115,-52,67,3972,10,-5,792,1798,1897,2101,2277,2071,1803,1869,2010
39669,18656,-16032,17698,-15070,3800,-3800,10,2,-113,-60,59,3961,-7,-5,792,1798,1897,2101,2277,2071,1803,1869,2010
40670,18664,-16036,17698,-15070,3800,-3800,10,3,-116,-59,38,3989,8,-5,792,1798,1897,2101,2277,2071,1803,1869,2010
41671,18652,-16040,17698,-15070,3800,-3800,11,5,-118,-43,56,3983,4,-3,792,1798,1897,2101,2277,2071,1803,1869,2010
42672,18668,-16028,17698,-15070,3800,-3800,9,5,-117,-36,85,3987,-4,-5,792,1800,1898,2102,2277,2073,1804,1869,2009
43673,18660,-16036,17698,-15070,3800,-3800,8,1,-113,-34,67,3963,9,-2,792,1800,1898,2102,2277,2073,1804,1869,2009
44674,18652,-16032,17698,-15070,3800,-3800,9,3,-113,-45,101,3976,-7,4,792,1800,1898,2102,2277,2073,1804,1869,2009
45675,18668,-16032,17698,-15070,3800,-3800,10,5,-114,-30,89,4002,-5,3,792,1800,1898,2102,2277,2073,1804,1869,2009
46676,18656,-16044,17698,-15070,3800,-3800,10,4,-112,-30,89,3961,10,8,792,1800,1898,2102,2277,2073,1804,1869,2009
47677,18656,-16028,17698,-15070,3800,-3800,12,4,-114,-44,81,3940,4,9,792,1800,1898,2102,2277,2073,1804,1869,2009
48678,18660,-16028,17698,-15070,3800,-3800,9,6,-113,-22,76,3973,-7,9,792,1799,1898,2104,2278,2073,1805,1867,2007
49679,18652,-16028,17698,-15070,3800,-3800,4,6,-110,-38,70,3955,9,9,792,1799,1898,2104,2278,2073,1805,1867,2007
50680,18656,-16036,17698,-15070,3800,-3800,7,4,-112,-46,78,3934,9,4,793,1799,1898,2104,2278,2073,1805,1867,2007
51681,18664,-16020,17698,-15070,3800,-3800,8,6,-113,-34,63,3950,-6,5,792,1799,1898,2104,2278,2073,1805,1867,2007
52682,18664,-16032,17698,-15070,3800,-3800,6,7,-112,-30,55,3969,-4,0,792,1799,1898,2104,2278,2073,1805,1867,2007
53683,18660,-16040,17698,-15070,3800,-3800,7,7,-112,-22,60,3979,10,-6,791,1799,1897,2102,2277,2072,1803,1869,2009
54684,18668,-16024,17698,-15070,3800,-3800,8,6,-112,-44,73,3952,8,-1,792,1799,1897,2102,2277,2072,1803,1869,2009
55685,18660,-16036,17698,-15070,3800,-3800,8,1,-113,-35,80,3947,9,7,792,1799,1897,2102,2277,2072,1803,1869,2009
56686,18668,-16028,17698,-15070,3800,-3800,6,2,-111,-39,84,3940,-8,9,792,1799,1897,2102,2277,2072,1803,1869,2009
57687,18656,-16028,17698,-15070,3800,-3800,7,3,-109,-45,68,3913,8,9,792,1799,1897,2102,2277,2072,1803,1869,2009
58688,18652,-16024,17698,-15070,3800,-3800,12,6,-112,-56,88,3954,-6,8,792,1799,1897,2102,2277,2072,1803,1869,2009
59689,18660,-16036,17698,-15070,3800,-3800,12,6,-114,-42,84,3943,2,3,792,1799,1900,2106,2278,2072,1804,1868,2008
60690,18656,-16032,17698,-15070,3800,-3800,10,4,-111,-8,91,3982,-1,7,792,1799,1900,2106,2278,2072,1804,1868,2008
61691,18668,-16028,17698,-15070,3800,-3800,9,8,-111,-17,88,3969,0,1,792,1799,1900,2106,2278,2072,1804,1868,2008
62692,18656,-16028,17698,-15070,3800,-3800,7,8,-111,-33,81,3941,7,-5,792,1799,1900,2106,2278,2072,1804,1868,2008
63693,18648,-16028,17698,-15070,3800,-3800,7,6,-110,-44,77,3959,-5,-3,792,1799,1900,2106,2278,2072,1804,1868,2008
64694,18656,-16036,17698,-15070,3800,-3800,6,2,-109,-16,75,3964,10,-5,792,1797,1895,2103,2276,2072,1804,1868,2008
65695,18664,-16036,17698,-15070,3800,-3800,7,1,-110,-26,96,3948,-7,-5,792,1797,1895,2103,2276,2072,1804,1868,2008
66696,18656,-16032,17698,-15070,3800,-3800,9,3,-112,-28,92,4002,10,-6,792,1797,1895,2103,2276,2072,1804,1868,2008
67697,18648,-16032,17698,-15070,3800,-3800,13,5,-114,-42,78,4002,-8,-1,792,1797,1895,2103,2276,2072,1804,1868,2008
68698,18668,-16024,17698,-15070,3800,-3800,13,6,-112,-40,69,3962,10,3,792,1797,1895,2103,2276,2072,1804,1868,2008
69699,18652,-16020,17698,-15070,3800,-3800,8,6,-112,-24,91,3971,-7,-1,792,1797,1895,2103,2276,2072,1804,1868,2008
70700,18656,-16040,17698,-15070,3800,-3800,7,5,-113,-27,71,3991,10,6,790,1797,1896,2103,2276,2072,1804,1869,2009
71701,18656,-16024,17698,-15070,3800,-3800,8,6,-114,-40,86,3973,7,7,792,1797,1896,2103,2276,2072,1804,1869,2009
72702,18652,-16028,17698,-15070,3800,-3800,11,6,-112,-23,89,3962,-5,3,792,1797,1896,2103,2276,2072,1804,1869,2009
73704,18656,-16032,17698,-15070,3800,-3800,10,4,-112,-23,86,3955,7,-5,792,1797,1896,2103,2276,2072,1804,1869,2009
74704,18656,-16036,17698,-15070,3800,-3800,8,4,-110,-18,86,3940,3,-6,792,1797,1896,2103,2276,2072,1804,1869,2009
75705,18656,-16032,17698,-15070,3800,-3800,7,5,-113,-41,87,3942,-2,-6,792,1799,1897,2103,2275,2071,1805,1870,2012
76706,18652,-16044,17698,-15070,3800,-3800,7,7,-115,-25,84,3961,2,-2,792,1799,1897,2103,2275,2071,1805,1870,2012
77707,18652,-16028,17698,-15070,3800,-3800,10,6,-115,-16,65,3974,-4,6,792,1799,1897,2103,2275,2071,1805,1870,2012
78708,18652,-16032,17698,-15070,3800,-3800,9,4,-115,-5,81,3961,4,4,792,1799,1897,2103,2275,2071,1805,1870,2012
79709,18664,-16040,17698,-15070,3800,-3800,8,2,-115,-9,58,3985,-3,8,792,1799,1897,2103,2275,2071,1805,1870,2012
80710,18652,-16036,17698,-15070,3800,-3800,6,3,-115,-27,80,3979,8,9,792,1799,1897,2103,2275,2071,1805,1870,2012
81711,18652,-16032,17698,-15070,3800,-3800,7,4,-115,-28,75,3961,2,8,792,1798,1896,2104,2277,2073,1805,1869,2009
82712,18664,-16036,17698,-15070,3800,-3800,5,4,-116,-30,61,3966,-5,2,792,1798,1896,2104,2277,2073,1805,1869,2009
83713,18656,-16028,17698,-15070,3800,-3800,6,1,-116,-12,59,3979,9,-2,792,1798,1896,2104,2277,2073,1805,1869,2009
84714,18660,-16024,17698,-15070,3800,-3800,6,5,-117,-20,77,3985,-5,1,792,1798,1896,2104,2277,2073,1805,1869,2009
85715,18660,-16032,17698,-15070,3800,-3800,8,7,-117,-30,54,3995,-2,-1,792,1798,1896,2104,2277,2073,1805,1869,2009
86716,18656,-16020,17698,-15070,3800,-3800,7,5,-116,-14,40,4012,11,0,792,1800,1898,2104,2278,2073,1805,1869,2010
87717,18664,-16028,17698,-15070,3800,-3800,9,3,-113,-16,66,3966,-8,6,791,1800,1898,2104,2278,2073,1805,1869,2010
88718,18660,-16028,17698,-15070,3800,-3800,8,4,-113,-31,74,3982,3,-5,792,1800,1898,2104,2278,2073,1805,1869,2010
89719,18660,-16032,17698,-15070,3800,-3800,5,3,-115,-34,76,3976,-4,-4,792,1800,1898,2104,2278,2073,1805,1869,2010
90720,18660,-16024,17698,-15070,3800,-3800,4,2,-114,-33,53,3951,10,-4,792,1800,1898,2104,2278,2073,1805,1869,2010
91721,18668,-16036,17698,-15070,3800,-3800,5,3,-114,-48,51,3950,-8,-1,792,1800,1898,2104,2278,2073,1805,1869,2010
92722,18660,-16036,17698,-15070,3800,-3800,6,5,-112,-35,56,3956,0,6,792,1798,1897,2104,2278,2073,1805,1869,2009
93723,18664,-16044,17698,-15070,3800,-3800,6,7,-112,-30,62,3961,6,6,792,1798,1897,2104,2278,2073,1805,1869,2009
94724,18652,-16020,17698,-15070,3800,-3800,8,7,-115,-37,67,3981,-7,9,792,1798,1897,2104,2278,2073,1805,1869,2009
95725,18660,-16024,17698,-15070,3800,-3800,8,6,-116,-8,57,3940,3,7,792,1798,1897,2104,2278,2073,1805,1869,2009
96726,18656,-16024,17698,-15070,3800,-3800,6,9,-115,-45,75,3957,1,7,792,1798,1897,2104,2278,2073,1805,1869,2009
97727,18652,-16032,17698,-15070,3800,-3800,9,7,-112,-57,74,3944,-2,1,792,1798,1896,2104,2277,2073,1805,1869,2009
98728,18656,-16028,17698,-15070,3800,-3800,9,7,-114,-48,69,3945,10,-4,792,1798,1896,2104,2277,2073,1805,1869,2009
99729,18656,-16028,17698,-15070,3800,-3800,8,4,-113,-39,79,3958,-6,-3,792,1798,1896,2104,2277,2073,1805,1869,2009
100730,18652,-16032,17698,-15070,3800,-3800,9,5,-113,-27,98,3988,-5,-5,792,1798,1896,2104,2277,2073,1805,1869,2009
101731,18640,-16020,17698,-15070,3800,-3800,9,10,-113,-13,96,3993,-1,-6,792,1798,1896,2104,2277,2073,1805,1869,2009
102732,18656,-16028,17698,-15070,3800,-3800,8,11,-114,-46,108,3948,10,-6,793,1798,1896,2104,2277,2073,1805,1869,2009
103733,18656,-16036,17698,-15070,3800,-3800,8,8,-112,-58,79,3951,-8,-5,792,1797,1895,2103,2278,2074,1806,1870,2010
104734,18652,-16036,17698,-15070,3800,-3800,7,5,-115,-44,78,3938,4,-1,791,1797,1895,2103,2278,2074,1806,1870,2010
105735,18656,-16040,17698,-15070,3800,-3800,5,4,-115,-45,97,3960,9,4,792,1797,1895,2103,2278,2074,1806,1870,2010
106736,18656,-16036,17698,-15070,3800,-3800,5,6,-116,-56,87,3967,8,8,792,1797,1895,2103,2278,2074,1806,1870,2010
107737,18656,-16028,17698,-15070,3800,-3800,8,7,-115,-37,85,3932,-6,3,792,1797,1895,2103,2278,2074,1806,1870,2010
108738,18664,-16032,17698,-15070,3800,-3800,7,6,-113,-40,92,3945,1,3,792,1799,1897,2103,2277,2071,1803,1868,2009
109739,18656,-16036,17698,-15070,3800,-3800,6,5,-109,-44,69,3982,6,2,792,1799,1897,2103,2277,2071,1803,1868,2009
110740,18668,-16024,17698,-15070,3800,-3800,7,5,-108,-39,53,3983,-6,-3,792,1799,1897,2103,2277,2071,1803,1868,2009
111741,18656,-16032,17698,-15070,3800,-3800,10,5,-108,-37,47,3960,2,-1,792,1799,1897,2103,2277,2071,1803,1868,2009
112742,18672,-16032,17698,-15070,3800,-3800,11,7,-110,-30,69,3946,9,-5,792,1799,1897,2103,2277,2071,1803,1868,2009
113743,18660,-16032,17698,-15070,3800,-3800,9,8,-112,-13,69,3951,-1,-5,792,1799,1897,2103,2277,2071,1803,1868,2009
114744,18660,-16040,17698,-15070,3800,-3800,10,7,-110,-26,59,3956,-2,-3,792,1798,1897,2104,2278,2072,1804,1869,2009
115745,18660,-16028,17698,-15070,3800,-3800,9,6,-110,-11,65,3956,10,1,792,1798,1897,2104,2278,2072,1804,1869,2009
116746,18664,-16028,17698,-15070,3800,-3800,10,5,-111,-16,56,3967,-2,7,792,1798,1897,2104,2278,2072,1804,1869,2009
117747,18660,-16040,17698,-15070,3800,-3800,11,3,-113,-21,61,3992,-7,6,792,1798,1897,2104,2278,2072,1804,1869,2009
118748,18660,-16020,17698,-15070,3800,-3800,10,4,-111,-28,63,3963,8,8,792,1798,1897,2104,2278,2072,1804,1869,2009
119749,18648,-16028,17698,-15070,3800,-3800,8,4,-110,-35,94,3968,10,1,792,1799,1897,2104,2279,2071,1802,1871,2012
120750,18656,-16032,17698,-15070,3800,-3800,9,4,-110,-49,83,3985,-6,-1,792,1799,1897,2104,2279,2071,1802,1871,2012
121751,18644,-16024,17698,-15070,3800,-3800,11,5,-112,-49,91,3948,4,-6,790,1799,1897,2104,2279,2071,1802,1871,2012
122752,18652,-16040,17698,-15070,3800,-3800,11,6,-114,-51,85,3965,9,8,792,1799,1897,2104,2279,2071,1802,1871,2012
123753,18664,-16044,17698,-15070,3800,-3800,7,2,-113,-27,67,3976,5,9,792,1799,1897,2104,2279,2071,1802,1871,2012
124754,18660,-16020,17698,-15070,3800,-3800,9,4,-113,-8,94,3941,9,3,792,1799,1897,2104,2279,2071,1802,1871,2012
125755,18652,-16040,17698,-15070,3800,-3800,12,5,-111,-44,81,3959,-5,-6,792,1798,1898,2102,2277,2072,1805,1868,2009
126756,18652,-16028,17698,-15070,3800,-3800,10,6,-109,-41,65,3973,-4,-5,792,1798,1898,2102,2277,2072,1805,1868,2009
127757,18652,-16028,17698,-15070,3800,-3800,9,6,-110,-29,60,3940,10,-4,792,1798,1898,2102,2277,2072,1805,1868,2009
128758,18652,-16028,17698,-15070,3800,-3800,9,3,-113,-37,79,3966,4,7,792,1798,1898,2102,2277,2072,1805,1868,2009
129759,18656,-16028,17698,-15070,3800,-3800,9,2,-113,-35,99,3968,-7,7,792,1798,1898,2102,2277,2072,1805,1868,2009
130760,18664,-16020,17698,-15070,3800,-3800,12,1,-114,-27,78,3962,8,9,792,1800,1897,2104,2277,2073,1806,1869,2010
131761,18648,-16028,17698,-15070,3800,-3800,11,3,-115,-41,82,3973,7,7,792,1800,1897,2104,2277,2073,1806,1869,2010
132762,18660,-16036,17698,-15070,3800,-3800,8,7,-116,-27,70,3993,-7,9,792,1800,1897,2104,2277,2073,1806,1869,2010
133763,18652,-16036,17698,-15070,3800,-3800,7,7,-114,-24,101,4007,10,7,792,1800,1897,2104,2277,2073,1806,1869,2010
134764,18660,-16028,17698,-15070,3800,-3800,5,7,-114,-42,93,3963,3,1,792,1800,1897,2104,2277,2073,1806,1869,2010
135765,18652,-16036,17698,-15070,3800,-3800,6,7,-115,-30,73,3958,-5,6,792,1800,1897,2104,2277,2073,1806,1869,2010
136766,18660,-16040,17698,-15070,3800,-3800,8,6,-115,-33,61,3961,9,-3,792,1797,1896,2102,2276,2073,1803,1867,2011
137767,18660,-16036,17698,-15070,3800,-3800,8,6,-115,-34,84,3961,8,-5,792,1797,1896,2102,2276,2073,1803,1867,2011
138768,18660,-16028,17698,-15070,3800,-3800,7,5,-115,-20,84,3984,-5,-4,791,1797,1896,2102,2276,2073,1803,1867,2011
139769,18660,-16032,17698,-15070,3800,-3800,6,6,-117,-23,88,3998,-7,-3,792,1797,1896,2102,2276,2073,1803,1867,2011
140770,18668,-16012,17698,-15070,3800,-3800,6,7,-114,-45,72,3938,1,5,792,1797,1896,2102,2276,2073,1803,1867,2011
141771,18652,-16028,17698,-15070,3800,-3800,3,5,-115,-46,81,3968,-7,6,792,1798,1898,2103,2277,2072,1806,1868,2009
142772,18648,-16028,17698,-15070,3800,-3800,4,4,-113,-44,81,3987,-7,9,792,1798,1898,2103,2277,2072,1806,1868,2009
143773,18648,-16040,17698,-15070,3800,-3800,6,2,-113,-53,86,4004,9,5,792,1798,1898,2103,2277,2072,1806,1868,2009
144774,18656,-16028,17698,-15070,3800,-3800,4,3,-115,-34,50,3998,-8,2,792,1798,1898,2103,2277,2072,1806,1868,2009
145775,18648,-16028,17698,-15070,3800,-3800,5,4,-115,-28,73,3971,1,-2,792,1798,1898,2103,2277,2072,1806,1868,2009
146776,18660,-16032,17698,-15070,3800,-3800,5,4,-113,-33,90,3967,7,-2,792,1798,1898,2103,2277,2072,1806,1868,2009
147777,18660,-16040,17698,-15070,3800,-3800,4,3,-113,-18,71,3968,-6,-5,792,1800,1898,2104,2280,2074,1808,1870,2010
148778,18656,-16024,17698,-15070,3800,-3800,7,5,-112,-23,82,3951,5,-4,792,1800,1898,2104,2280,2074,1808,1870,2010
149779,18652,-16032,17698,-15070,3800,-3800,10,6,-115,-35,82,3941,4,-4,792,1800,1898,2104,2280,2074,1808,1870,2010
150780,18648,-16036,17698,-15070,3800,-3800,8,6,-116,-20,60,3967,-7,4,792,1800,1898,2104,2280,2074,1808,1870,2010
151781,18656,-16032,17698,-15070,3800,-3800,6,6,-115,-29,52,3956,0,8,793,1800,1898,2104,2280,2074,1808,1870,2010
152782,18664,-16032,17698,-15070,3800,-3800,6,5,-114,-45,54,3960,7,9,792,1798,1896,2101,2277,2071,1805,1868,2009
153783,18640,-16036,17698,-15070,3800,-3800,5,3,-114,-20,58,3954,-5,7,792,1798,1896,2101,2277,2071,1805,1868,2009
154784,18656,-16044,17698,-15070,3800,-3800,7,2,-113,-30,66,3961,9,-2,792,1798,1896,2101,2277,2071,1805,1868,2009
155785,18648,-16044,17698,-15070,3800,-3800,9,5,-113,-32,61,3963,5,-5,790,1798,1896,2101,2277,2071,1805,1868,2009
156786,18672,-16036,17698,-15070,3800,-3800,8,7,-115,-28,64,3965,3,5,792,1798,1896,2101,2277,2071,1805,1868,2009
157787,18648,-16044,17698,-15070,3800,-3800,9,8,-112,-32,45,3955,-7,9,792,1798,1896,2101,2277,2071,1805,1868,2009
158788,18660,-16032,17698,-15070,3800,-3800,8,6,-111,-34,62,3951,5,9,792,1798,1898,2103,2278,2071,1806,1868,2008
159789,18664,-16040,17698,-15070,3800,-3800,9,2,-112,-31,79,3990,4,8,792,1798,1898,2103,2278,2071,1806,1868,2008
160790,18668,-16032,17698,-15070,3800,-3800,9,2,-111,-28,96,3990,-6,4,792,1798,1898,2103,2278,2071,1806,1868,2008
161791,18660,-16044,17698,-15070,3800,-3800,11,4,-109,-35,72,3955,3,6,792,1798,1898,2103,2278,2071,1806,1868,2008
162792,18656,-16032,17698,-15070,3800,-3800,11,5,-111,-57,58,3951,9,3,792,1798,1898,2103,2278,2071,1806,1868,2008
163793,18652,-16040,17698,-15070,3800,-3800,9,7,-111,-35,78,3962,1,0,792,1799,1900,2104,2280,2072,1808,1869,2010
164794,18656,-16028,17698,-15070,3800,-3800,6,5,-113,0,99,3982,-3,1,792,1799,1900,2104,2280,2072,1808,1869,2010
165795,18644,-16024,17698,-15070,3800,-3800,6,7,-111,-25,67,4020,10,-5,792,1799,1900,2104,2280,2072,1808,1869,2010
166796,18660,-16032,17698,-15070,3800,-3800,8,7,-111,-23,85,3966,-3,-5,793,1799,1900,2104,2280,2072,1808,1869,2010
167797,18660,-16036,17698,-15070,3800,-3800,10,7,-112,-30,75,3964,0,-5,792,1799,1900,2104,2280,2072,1808,1869,2010
168798,18652,-16028,17698,-15070,3800,-3800,8,5,-110,-44,85,3962,10,-5,792,1799,1900,2104,2280,2072,1808,1869,2010
169799,18656,-16028,17698,-15070,3800,-3800,7,6,-109,-38,59,3935,-1,-1,792,1798,1896,2100,2277,2071,1806,1868,2009
170800,18648,-16040,17698,-15070,3800,-3800,9,5,-112,-35,67,3944,-6,-3,792,1798,1896,2100,2277,2071,1806,1868,2009
171801,18664,-16028,17698,-15070,3800,-3800,9,5,-114,-31,51,3959,10,3,792,1798,1896,2100,2277,2071,1806,1868,2009
172802,18656,-16028,17698,-15070,3800,-3800,8,5,-113,-46,55,3958,11,9,790,1798,1896,2100,2277,2071,1806,1868,2009
173803,18660,-16044,17698,-15070,3800,-3800,10,5,-110,-15,48,3991,10,9,792,1798,1896,2100,2277,2071,1806,1868,2009
174804,18656,-16028,17698,-15070,3800,-3800,9,4,-109,-14,52,3996,5,4,792,1797,1896,2101,2277,2072,1806,1869,2009
175805,18660,-16024,17698,-15070,3800,-3800,9,4,-111,-43,44,3959,1,-1,792,1797,1896,2101,2277,2072,1806,1869,2009
176806,18660,-16032,17698,-15070,3800,-3800,7,6,-113,-75,52,3962,-7,0,792,1797,1896,2101,2277,2072,1806,1869,2009
177807,18652,-16040,17698,-15070,3800,-3800,7,4,-113,-42,63,3953,-3,-3,792,1797,1896,2101,2277,2072,1806,1869,2009
178808,18648,-16032,17698,-15070,3800,-3800,8,3,-113,-38,60,3952,5,-6,792,1797,1896,2101,2277,2072,1806,1869,2009
179809,18656,-16040,17698,-15070,3800,-3800,9,6,-114,-32,89,3978,8,-6,792,1797,1896,2101,2277,2072,1806,1869,2009
180810,18652,-16028,17698,-15070,3800,-3800,10,6,-114,-37,105,3984,-7,-6,792,1795,1895,2102,2279,2076,1808,1872,2012
181811,18652,-16028,17698,-15070,3800,-3800,8,4,-113,-37,90,4002,0,-5,792,1795,1895,2102,2279,2076,1808,1872,2012
182812,18656,-16024,17698,-15070,3800,-3800,8,4,-112,-47,95,3968,9,-5,792,1795,1895,2102,2279,2076,1808,1872,2012
183813,18664,-16028,17698,-15070,3800,-3800,10,3,-114,-30,66,3979,-8,-6,792,1795,1895,2102,2279,2076,1808,1872,2012
184814,18660,-16032,17698,-15070,3800,-3800,9,3,-116,-50,72,3960,2,-3,792,1795,1895,2102,2279,2076,1808,1872,2012
185815,18656,-16032,17698,-15070,3800,-3800,8,4,-115,-43,77,3967,5,-5,792,1797,1896,2100,2276,2072,1805,1868,2009
186816,18656,-16020,17698,-15070,3800,-3800,8,4,-115,-42,73,3959,-8,-2,792,1797,1896,2100,2276,2072,1805,1868,2009
187817,18660,-16016,17698,-15070,3800,-3800,7,6,-114,-36,73,3960,5,5,792,1797,1896,2100,2276,2072,1805,1868,2009
188818,18664,-16028,17698,-15070,3800,-3800,6,8,-113,-46,78,3971,1,3,792,1797,1896,2100,2276,2072,1805,1868,2009
189819,18660,-16020,17698,-15070,3800,-3800,8,6,-115,-48,89,3991,-7,9,791,1797,1896,2100,2276,2072,1805,1868,2009
190820,18656,-16020,17698,-15070,3800,-3800,6,3,-115,-26,56,4000,-8,7,792,1797,1896,2100,2276,2072,1805,1868,2009
191821,18660,-16028,17698,-15070,3800,-3800,7,3,-114,-28,71,3990,3,7,792,1798,1897,2104,2277,2073,1806,1869,2009
192822,18656,-16036,17698,-15070,3800,-3800,8,5,-114,-27,88,3959,6,0,793,1798,1897,2104,2277,2073,1806,1869,2009
193823,18660,-16024,17698,-15070,3800,-3800,6,5,-114,-6,89,3972,-8,-4,792,1798,1897,2104,2277,2073,1806,1869,2009
194824,18660,-16048,17698,-15070,3800,-3800,6,4,-113,-14,69,3987,8,-3,792,1798,1897,2104,2277,2073,1806,1869,2009
195825,18656,-16020,17698,-15070,3800,-3800,6,4,-113,-50,74,3967,2,-6,792,1798,1897,2104,2277,2073,1806,1869,2009
196826,18660,-16020,17698,-15070,3800,-3800,6,3,-113,-34,79,3947,-7,-4,792,1798,1897,2103,2275,2071,1807,1871,2012
197827,18668,-16024,17698,-15070,3800,-3800,9,4,-115,-22,79,3961,10,-2,792,1798,1897,2103,2275,2071,1807,1871,2012
198828,18660,-16040,17698,-15070,3800,-3800,7,3,-114,-46,83,4002,-4,2,792,1798,1897,2103,2275,2071,1807,1871,2012
199829,18660,-16032,17698,-15070,3800,-3800,6,5,-114,-55,87,4002,-5,2,792,1798,1897,2103,2275,2071,1807,1871,2012
200833,18660,-16032,17763,-15005,-670,1678,6,4,-112,-69,92,3988,8,-3,792,1798,1897,2103,2275,2071,1807,1871,2012
201831,18660,-16024,17828,-14940,-592,1648,5,2,-113,-44,82,4012,3,6,778,1798,1897,2103,2275,2071,1807,1871,2012
202832,18652,-16028,17893,-14875,-403,1882,9,4,-114,-36,93,3990,-1,9,779,1798,1897,2102,2277,2071,1806,1868,2009
203833,18648,-16020,17958,-14810,-369,1803,11,6,-115,-23,76,3904,13,20,777,1798,1897,2102,2277,2071,1806,1868,2009
204834,18660,-15968,18023,-14745,-505,1268,9,4,-117,-84,74,4106,10,28,777,1798,1897,2102,2277,2071,1806,1868,2009
205835,18664,-15880,18088,-14680,-331,791,1,-8,-115,-308,86,4018,3,41,780,1798,1897,2102,2277,2071,1806,1868,2009
206836,18648,-15780,18153,-14615,18,599,-1,-34,-115,-154,134,4184,15,48,777,1798,1897,2102,2277,2071,1806,1868,2009
207837,18672,-15716,18218,-14550,-432,1051,7,-68,-112,-183,93,4079,11,44,787,1763,1845,2048,2228,2032,1794,1856,2002
208838,18648,-15620,18283,-14485,276,613,10,-81,-124,-15,3,4181,15,56,780,1763,1845,2048,2228,2032,1794,1856,2002
209839,18656,-15528,18348,-14420,-54,630,10,-77,-130,145,-51,3924,-3,58,787,1763,1845,2048,2228,2032,1794,1856,2002
210840,18668,-15444,18413,-14355,-40,708,12,-48,-137,145,5,4133,-3,63,789,1763,1845,2048,2228,2032,1794,1856,2002
211841,18648,-15340,18478,-14290,464,410,11,-12,-153,73,-46,3879,8,61,788,1763,1845,2048,2228,2032,1794,1856,2002
212842,18656,-15248,18543,-14225,184,528,7,2,-159,-141,-38,4034,17,53,788,1763,1845,2048,2228,2032,1794,1856,2002
213843,18664,-15148,18608,-14160,253,386,12,-8,-162,-85,-29,3948,3,63,788,1787,1894,2109,2283,2077,1811,1877,2018
214844,18656,-15032,18673,-14095,542,123,18,-37,-159,-187,19,4024,7,49,789,1787,1894,2109,2283,2077,1811,1877,2018
215845,18660,-14920,18738,-14030,467,117,7,-93,-153,-382,-36,4124,16,66,789,1787,1894,2109,2283,2077,1811,1877,2018
216846,18672,-14832,18803,-13965,431,389,1,-135,-159,-429,7,4071,17,63,789,1787,1894,2109,2283,2077,1811,1877,2018
217847,18680,-14716,18868,-13900,551,-23,-4,-164,-158,-245,8,4217,13,51,789,1787,1894,2109,2283,2077,1811,1877,2018
218848,18692,-14616,18933,-13835,566,135,-5,-173,-161,-62,-65,4033,25,61,789,1807,1910,2111,2288,2077,1813,1880,2018
219849,18704,-14532,18998,-13770,630,312,-11,-163,-163,-129,-21,4107,21,61,789,1807,1910,2111,2288,2077,1813,1880,2018
220850,18708,-14444,19063,-13705,805,234,-9,-132,-170,-13,-39,3991,17,56,788,1807,1910,2111,2288,2077,1813,1880,2018
221851,18736,-14336,19128,-13640,550,-68,-8,-107,-168,142,-18,4063,30,59,788,1807,1910,2111,2288,2077,1813,1880,2018
222852,18748,-14252,19193,-13575,816,209,-2,-91,-171,-3,-78,4106,20,60,788,1807,1910,2111,2288,2077,1813,1880,2018
223853,18776,-14176,19258,-13510,661,295,15,-84,-168,-147,-60,4308,23,52,786,1807,1910,2111,2288,2077,1813,1880,2018
224854,18820,-14072,19323,-13445,487,-102,34,-109,-177,-214,57,4053,29,52,787,1808,1904,2116,2288,2090,1819,1872,2016
225855,18856,-13988,19388,-13380,622,126,52,-156,-170,-483,-144,4240,37,59,788,1808,1904,2116,2288,2090,1819,1872,2016
226856,18892,-13916,19453,-13315,657,267,59,-177,-170,-276,-65,4095,33,51,788,1808,1904,2116,2288,2090,1819,1872,2016
227857,18928,-13832,19518,-13250,694,94,60,-206,-178,-313,34,3929,38,42,788,1808,1904,2116,2288,2090,1819,1872,2016
228858,18980,-13768,19583,-13185,510,345,53,-210,-185,-249,-44,4007,27,57,788,1808,1904,2116,2288,2090,1819,1872,2016
229859,19016,-13684,19648,-13120,745,73,38,-201,-190,-209,10,3975,29,42,788,1811,1913,2119,2299,2079,1811,1879,2015
230860,19064,-13620,19713,-13055,616,324,27,-209,-186,-187,-71,3881,28,40,788,1811,1913,2119,2299,2079,1811,1879,2015
231861,19100,-13528,19778,-12990,801,-59,24,-196,-193,-291,-41,4035,34,38,788,1811,1913,2119,2299,2079,1811,1879,2015
232862,19144,-13464,19843,-12925,728,292,25,-189,-198,-71,27,3962,48,39,787,1811,1913,2119,2299,2079,1811,1879,2015
233863,19200,-13408,19908,-12860,589,403,30,-195,-182,-296,-111,3953,53,39,788,1811,1913,2119,2299,2079,1811,1879,2015
234864,19252,-13336,19973,-12795,655,196,32,-193,-185,-233,-28,4077,36,46,788,1807,1903,2103,2279,2059,1799,1866,2002
235865,19324,-13268,20038,-12730,397,242,39,-181,-182,-242,-101,4014,40,48,787,1807,1903,2103,2279,2059,1799,1866,2002
236866,19368,-13208,20103,-12665,773,348,53,-158,-184,-23,-8,4024,50,31,788,1807,1903,2103,2279,2059,1799,1866,2002
237867,19440,-13164,20168,-12600,414,574,68,-156,-170,-158,-125,4035,38,36,789,1807,1903,2103,2279,2059,1799,1866,2002
238868,19492,-13084,20233,-12535,680,106,72,-130,-161,-284,-107,4015,38,45,787,1807,1903,2103,2279,2059,1799,1866,2002
239869,19572,-13028,20298,-12470,313,418,83,-128,-148,-173,-26,4025,41,46,787,1807,1903,2103,2279,2059,1799,1866,2002
240870,19624,-12964,20363,-12405,679,319,98,-129,-141,-173,4,4016,48,30,787,1805,1900,2105,2278,2057,1796,1858,1995
241871,19688,-12924,20428,-12340,530,649,110,-147,-139,-422,-7,3806,43,36,788,1805,1900,2105,2278,2057,1796,1858,1995
242872,19748,-12860,20493,-12275,586,351,111,-169,-131,-288,-35,3966,41,41,787,1805,1900,2105,2278,2057,1796,1858,1995
243873,19800,-12808,20558,-12210,703,516,120,-183,-125,-254,46,3795,51,31,786,1805,1900,2105,2278,2057,1796,1858,1995
244874,19880,-12756,20623,-12145,334,533,116,-190,-120,-285,-22,3862,56,42,787,1805,1900,2105,2278,2057,1796,1858,1995
245875,19940,-12704,20688,-12080,591,549,125,-185,-113,-138,64,3860,38,28,786,1802,1895,2095,2274,2054,1794,1854,1986
246876,19992,-12656,20753,-12015,707,620,124,-156,-107,-68,65,3995,56,43,788,1802,1895,2095,2274,2054,1794,1854,1986
247877,20060,-12596,20818,-11950,504,476,138,-91,-115,133,187,4406,53,37,786,1802,1895,2095,2274,2054,1794,1854,1986
248878,20112,-12532,20883,-11885,720,428,144,-93,-109,-47,-45,3615,58,34,785,1802,1895,2095,2274,2054,1794,1854,1986
249879,20192,-12484,20948,-11820,351,649,149,-82,-97,-155,29,4106,45,35,787,1802,1895,2095,2274,2054,1794,1854,1986
250882,20268,-12440,21013,-11755,389,725,156,-61,-93,-40,134,3950,57,45,787,1802,1895,2095,2274,2054,1794,1854,1986
251881,20328,-12368,21078,-11690,595,366,161,-74,-87,-299,23,3734,38,30,787,1794,1885,2085,2266,2049,1786,1850,1986
252882,20408,-12328,21143,-11625,327,798,165,-96,-86,-259,47,3796,52,46,786,1794,1885,2085,2266,2049,1786,1850,1986
253883,20464,-12268,21208,-11560,639,554,165,-109,-75,-210,-25,3716,49,30,787,1794,1885,2085,2266,2049,1786,1850,1986
254884,20532,-12216,21273,-11495,485,670,173,-123,-57,-82,-64,3897,48,42,786,1794,1885,2085,2266,2049,1786,1850,1986
255885,20604,-12136,21338,-11430,426,301,183,-131,-51,-88,-65,3840,54,47,786,1794,1885,2085,2266,2049,1786,1850,1986
256886,20684,-12092,21403,-11365,308,778,194,-124,-39,-153,-120,3915,51,33,786,1794,1892,2087,2255,2047,1784,1849,1987
257887,20728,-12032,21468,-11300,785,584,203,-109,-33,1,-66,3916,39,35,787,1794,1892,2087,2255,2047,1784,1849,1987
258888,20804,-11976,21533,-11235,371,645,215,-91,-32,13,-100,3956,40,46,785,1794,1892,2087,2255,2047,1784,1849,1987
259889,20864,-11932,21598,-11170,577,822,216,-81,-33,19,-118,3971,52,46,784,1794,1892,2087,2255,2047,1784,1849,1987
260890,20920,-11864,21663,-11105,639,518,228,-64,-36,104,-49,4046,35,38,786,1794,1892,2087,2255,2047,1784,1849,1987
261891,20980,-11792,21728,-11040,596,459,229,-61,-33,-16,-92,3866,38,49,785,1794,1892,2087,2255,2047,1784,1849,1987
262892,21036,-11740,21793,-10975,657,725,226,-66,-27,-222,-19,4079,43,47,786,1792,1874,2080,2241,2031,1792,1856,1967
263893,21096,-11688,21858,-10910,613,742,220,-77,-16,-274,40,3924,49,45,787,1792,1874,2080,2241,2031,1792,1856,1967
264894,21160,-11624,21923,-10845,565,593,216,-85,-16,-57,82,4029,53,48,785,1792,1874,2080,2241,2031,1792,1856,1967
265895,21204,-11568,21988,-10780,841,704,203,-103,-12,-75,82,3962,54,45,785,1792,1874,2080,2241,2031,1792,1856,1967
266896,21280,-11496,22053,-10715,427,497,199,-123,-8,-120,58,3914,39,48,786,1792,1874,2080,2241,2031,1792,1856,1967
267897,21324,-11432,22118,-10650,854,598,199,-161,-6,-169,63,3912,52,32,784,1823,1919,2123,2303,2095,1831,1899,2039
268898,21388,-11372,22183,-10585,605,654,194,-182,-3,-266,10,3887,37,35,787,1823,1919,2123,2303,2095,1831,1899,2039
269899,21428,-11336,22248,-10520,935,990,183,-180,-4,-80,-9,3976,51,38,785,1823,1919,2123,2303,2095,1831,1899,2039
270900,21492,-11256,22313,-10455,637,422,178,-185,0,128,-24,3919,46,35,785,1823,1919,2123,2303,2095,1831,1899,2039
271901,21552,-11208,22378,-10390,694,843,190,-166,3,207,-6,4161,42,45,780,1823,1919,2123,2303,2095,1831,1899,2039
272902,21612,-11140,22443,-10325,700,589,198,-160,-2,63,-70,4029,42,44,786,1823,1919,2123,2303,2095,1831,1899,2039
273903,21680,-11076,22508,-10260,596,642,211,-167,-8,120,-99,4040,51,33,783,1786,1888,2090,2258,2068,1804,1880,2029
274904,21740,-11024,22573,-10195,703,807,218,-164,1,166,-170,4134,56,44,783,1786,1888,2090,2258,2068,1804,1880,2029
275905,21800,-10976,22638,-10130,709,878,226,-159,6,-2,-74,4089,54,47,784,1786,1888,2090,2258,2068,1804,1880,2029
276906,21864,-10880,22703,-10065,661,241,224,-149,7,-39,-52,4035,43,36,784,1786,1888,2090,2258,2068,1804,1880,2029
277907,21940,-10840,22768,-10000,498,972,215,-138,16,-17,-59,4045,52,38,783,1786,1888,2090,2258,2068,1804,1880,2029
278908,21992,-10812,22833,-9935,814,1167,209,-146,25,-70,-49,4036,48,37,787,1784,1888,2089,2253,2073,1804,1866,2023
279909,22056,-10732,22898,-9870,665,500,196,-133,7,-26,-77,3824,42,37,783,1784,1888,2089,2253,2073,1804,1866,2023
280910,22128,-10660,22963,-9805,558,591,182,-131,28,-244,103,4279,47,48,780,1784,1888,2089,2253,2073,1804,1866,2023
281911,22176,-10612,23028,-9740,879,912,181,-142,52,-173,249,3803,49,40,786,1784,1888,2089,2253,2073,1804,1866,2023
282912,22232,-10540,23093,-9675,790,604,163,-182,38,-247,112,3978,40,46,785,1784,1888,2089,2253,2073,1804,1866,2023
283913,22316,-10476,23158,-9610,417,706,161,-195,28,-223,91,4193,43,42,781,1784,1888,2089,2253,2073,1804,1866,2023
284914,22364,-10416,23223,-9545,888,762,155,-208,37,-149,100,4030,52,42,784,1770,1872,2092,2266,2071,1804,1843,1985
285915,22416,-10364,23288,-9480,854,879,151,-196,46,-63,46,4271,36,47,786,1770,1872,2092,2266,2071,1804,1843,1985
286916,22476,-10324,23353,-9415,761,1059,146,-155,36,113,198,4095,42,46,783,1770,1872,2092,2266,2071,1804,1843,1985
287917,22540,-10248,23418,-9350,712,596,145,-118,30,155,96,4247,50,35,782,1770,1872,2092,2266,2071,1804,1843,1985
288918,22600,-10172,23483,-9285,768,583,154,-95,20,276,97,4148,44,44,781,1770,1872,2092,2266,2071,1804,1843,1985
289919,22664,-10120,23548,-9220,720,899,170,-83,14,132,83,4168,42,43,785,1786,1876,2079,2247,2049,1789,1846,1997
290920,22720,-10080,23613,-9155,832,1080,180,-79,8,180,97,4105,49,31,785,1786,1876,2079,2247,2049,1789,1846,1997
291921,22764,-10012,23678,-9090,1007,727,195,-77,7,128,142,4116,43,33,782,1786,1876,2079,2247,2049,1789,1846,1997
292922,22828,-9948,23743,-9025,759,778,204,-76,6,40,174,3913,47,45,779,1786,1876,2079,2247,2049,1789,1846,1997
293923,22904,-9900,23808,-8960,596,999,211,-65,-5,23,199,4060,47,42,782,1786,1876,2079,2247,2049,1789,1846,1997
294924,22960,-9844,23873,-8895,857,911,224,-54,-13,-136,173,3849,56,43,783,1786,1876,2079,2247,2049,1789,1846,1997
295925,23016,-9792,23938,-8830,869,977,239,-68,-27,5,344,3705,47,47,782,1782,1875,2067,2239,2043,1783,1848,1984
296926,23092,-9724,24003,-8765,606,773,255,-82,-39,68,374,3872,44,36,782,1782,1875,2067,2239,2043,1783,1848,1984
297927,23164,-9684,24068,-8700,647,1155,257,-70,-42,-106,443,4008,44,42,781,1782,1875,2067,2239,2043,1783,1848,1984
298929,23220,-9616,24133,-8635,859,801,250,-65,-38,48,464,3799,42,44,784,1782,1875,2067,2239,2043,1783,1848,1984
299929,23272,-9572,24198,-8570,925,1127,242,-56,-30,19,324,4030,42,32,780,1782,1875,2067,2239,2043,1783,1848,1984
300930,23348,-9508,24263,-8505,611,879,247,-40,-34,-82,361,3999,50,35,782,1760,1872,2080,2256,2016,1776,1842,1940
301931,23428,-9464,24328,-8440,544,1155,268,-25,-30,137,228,4155,45,33,779,1760,1872,2080,2256,2016,1776,1842,1940
302932,23480,-9396,24393,-8375,910,852,295,-23,-30,12,276,4053,39,31,783,1760,1872,2080,2256,2016,1776,1842,1940
303933,23548,-9352,24458,-8310,706,1177,295,-25,-16,-336,310,3959,42,48,781,1760,1872,2080,2256,2016,1776,1842,1940
304934,23628,-9280,24523,-8245,539,819,285,-43,-9,-116,377,4080,61,35,781,1760,1872,2080,2256,2016,1776,1842,1940
305935,23684,-9212,24588,-8180,850,866,280,-45,3,327,321,3975,45,45,780,1760,1872,2080,2256,2016,1776,1842,1940
306936,23728,-9168,24653,-8115,1026,1192,280,-37,9,480,281,4171,52,42,784,1833,1936,2136,2320,2079,1811,1875,2015
307937,23816,-9104,24718,-8050,449,944,292,-11,8,155,345,4075,45,46,781,1833,1936,2136,2320,2079,1811,1875,2015
308938,23868,-9036,24783,-7985,914,890,310,-3,-15,85,304,3703,57,44,776,1833,1936,2136,2320,2079,1811,1875,2015
309939,23904,-9000,24848,-7920,1150,1326,326,14,-54,172,371,4131,42,33,782,1833,1936,2136,2320,2079,1811,1875,2015
310940,23980,-8936,24913,-7855,637,978,336,3,-78,236,304,3739,46,49,781,1833,1936,2136,2320,2079,1811,1875,2015
311941,24048,-8860,24978,-7790,734,815,349,16,-116,231,454,4148,49,40,776,1791,1885,2079,2271,2063,1791,1853,1983
312942,24116,-8812,25043,-7725,730,1186,350,-4,-137,250,464,3804,46,31,782,1791,1885,2079,2271,2063,1791,1853,1983
313943,24184,-8764,25108,-7660,727,1207,345,-16,-150,214,434,4007,60,38,783,1791,1885,2079,2271,2063,1791,1853,1983
314944,24260,-8700,25173,-7595,614,1008,339,-36,-161,180,377,3937,60,34,780,1791,1885,2079,2271,2063,1791,1853,1983
315945,24324,-8648,25238,-7530,765,1175,337,-80,-154,-108,362,3774,58,44,779,1791,1885,2079,2271,2063,1791,1853,1983
316946,24376,-8580,25303,-7465,932,972,351,-116,-143,-65,447,4064,56,33,781,1791,1885,2079,2271,2063,1791,1853,1983
317947,24452,-8516,25368,-7400,619,1024,379,-101,-129,283,405,4065,41,45,779,1780,1882,2077,2245,2058,1793,1859,2005
318948,24520,-8448,25433,-7335,716,970,408,-90,-103,335,358,4005,55,33,780,1780,1882,2077,2245,2058,1793,1859,2005
319949,24584,-8396,25498,-7270,767,1187,429,-72,-66,106,298,3842,57,38,781,1780,1882,2077,2245,2058,1793,1859,2005
320950,24640,-8348,25563,-7205,878,1258,448,-29,-64,322,333,3912,51,32,781,1780,1882,2077,2245,2058,1793,1859,2005
321951,24716,-8312,25628,-7140,616,1443,453,-7,-66,251,310,3949,47,35,779,1780,1882,2077,2245,2058,1793,1859,2005
322952,24788,-8252,25693,-7075,657,1150,442,-24,-72,98,589,3986,57,46,778,1765,1877,2080,2245,2053,1784,1846,1975
323953,24852,-8180,25758,-7010,758,992,425,-59,-60,130,481,4012,49,44,778,1765,1877,2080,2245,2053,1784,1846,1975
324954,24892,-8128,25823,-6945,1090,1259,399,-120,-54,33,599,4033,51,46,780,1765,1877,2080,2245,2053,1784,1846,1975
325955,24952,-8060,25888,-6880,846,1055,372,-160,-59,-114,578,4212,48,39,779,1765,1877,2080,2245,2053,1784,1846,1975
326956,25016,-8008,25953,-6815,797,1272,357,-168,-91,204,531,4129,47,35,775,1765,1877,2080,2245,2053,1784,1846,1975
327957,25076,-7952,26018,-6750,854,1233,337,-152,-118,220,407,4300,48,42,780,1765,1877,2080,2245,2053,1784,1846,1975
328958,25140,-7896,26083,-6685,806,1245,344,-141,-132,372,399,4191,51,45,778,1768,1871,2073,2233,2024,1760,1836,1990
329959,25216,-7832,26148,-6620,642,1146,344,-159,-136,202,248,4312,48,43,778,1768,1871,2073,2233,2024,1760,1836,1990
330960,25256,-7788,26213,-6555,1124,1422,348,-155,-153,11,247,4462,42,33,778,1768,1871,2073,2233,2024,1760,1836,1990
331961,25320,-7744,26278,-6490,825,1448,345,-141,-162,278,216,4142,46,48,779,1768,1871,2073,2233,2024,1760,1836,1990
332962,25376,-7684,26343,-6425,936,1254,342,-102,-162,408,194,4363,47,48,775,1768,1871,2073,2233,2024,1760,1836,1990
333963,25432,-7624,26408,-6360,948,1261,339,-79,-150,332,279,4053,44,46,776,1751,1855,2063,2237,2064,1768,1834,1998
334964,25472,-7584,26473,-6295,1178,1542,350,-123,-131,180,219,4128,44,33,777,1751,1855,2063,2237,2064,1768,1834,1998
335965,25556,-7512,26538,-6230,606,1134,355,-150,-117,-72,299,4081,59,42,777,1751,1855,2063,2237,2064,1768,1834,1998
336966,25616,-7444,26603,-6165,912,1181,346,-157,-105,4,342,3984,62,33,773,1751,1855,2063,2237,2064,1768,1834,1998
337967,25688,-7408,26668,-6100,754,1617,342,-155,-91,128,320,3943,54,34,780,1751,1855,2063,2237,2064,1768,1834,1998
338968,25752,-7344,26733,-6035,856,1268,329,-169,-72,-56,289,3818,56,31,778,1751,1855,2063,2237,2064,1768,1834,1998
339969,25820,-7300,26798,-5970,802,1545,320,-185,-71,-167,511,3912,42,41,775,1760,1856,2096,2260,2080,1796,1848,1990
340970,25872,-7228,26863,-5905,1018,1186,307,-220,-69,115,547,3856,51,42,778,1760,1856,2096,2260,2080,1796,1848,1990
341971,25948,-7180,26928,-5840,706,1508,288,-201,-64,-75,485,4052,52,46,775,1760,1856,2096,2260,2080,1796,1848,1990
342972,25992,-7112,26993,-5775,1131,1255,279,-174,-61,75,545,4022,60,43,776,1760,1856,2096,2260,2080,1796,1848,1990
343973,26068,-7068,27058,-5710,719,1581,280,-179,-59,139,562,4306,48,42,774,1760,1856,2096,2260,2080,1796,1848,1990
344974,26116,-6992,27123,-5645,1090,1168,277,-165,-57,26,526,4268,54,38,776,1812,1904,2106,2283,2117,1808,1876,2045
345975,26204,-6936,27188,-5580,562,1430,269,-134,-64,182,448,4295,47,50,775,1812,1904,2106,2283,2117,1808,1876,2045
346976,26256,-6856,27253,-5515,1029,1111,265,-121,-85,60,450,4169,47,38,777,1812,1904,2106,2283,2117,1808,1876,2045
347977,26308,-6804,27318,-5450,1044,1478,280,-107,-95,-62,350,4208,40,40,777,1812,1904,2106,2283,2117,1808,1876,2045
348978,26356,-6760,27383,-5385,1115,1604,292,-155,-96,130,346,4082,55,37,778,1812,1904,2106,2283,2117,1808,1876,2045
349979,26424,-6684,27448,-5320,863,1192,302,-188,-89,-232,282,4293,54,42,774,1812,1904,2106,2283,2117,1808,1876,2045
350980,26484,-6620,27513,-5255,969,1343,304,-182,-95,50,284,4120,48,42,772,1775,1871,2087,2251,2079,1815,1855,2007
351981,26560,-6568,27578,-5190,756,1510,294,-151,-80,111,199,4073,49,48,778,1775,1871,2087,2251,2079,1815,1855,2007
352982,26604,-6516,27643,-5125,1182,1525,286,-139,-74,93,317,4026,61,34,776,1775,1871,2087,2251,2079,1815,1855,2007
353983,26668,-6444,27708,-5060,933,1268,274,-147,-66,-8,282,3829,47,52,775,1775,1871,2087,2251,2079,1815,1855,2007
354984,26724,-6404,27773,-4995,1045,1698,267,-164,-54,71,257,3783,58,49,773,1775,1871,2087,2251,2079,1815,1855,2007
355985,26796,-6344,27838,-4930,836,1456,253,-162,-39,-3,302,3827,47,34,777,1764,1860,2067,2237,2030,1763,1818,1976
356986,26872,-6300,27903,-4865,774,1682,246,-165,-20,92,289,3606,50,48,771,1764,1860,2067,2237,2030,1763,1818,1976
357987,26936,-6236,27968,-4800,925,1433,237,-189,7,59,331,3723,60,40,775,1764,1860,2067,2237,2030,1763,1818,1976
358988,27004,-6180,28033,-4735,872,1545,222,-215,26,-73,362,3684,47,45,773,1764,1860,2067,2237,2030,1763,1818,1976
359989,27076,-6128,28098,-4670,814,1611,210,-209,44,-151,402,3719,59,32,774,1764,1860,2067,2237,2030,1763,1818,1976
360990,27136,-6076,28163,-4605,970,1628,205,-196,52,167,318,3731,47,35,773,1764,1860,2067,2237,2030,1763,1818,1976
361991,27192,-6028,28228,-4540,1032,1699,216,-152,62,51,329,3935,44,44,774,1769,1865,2063,2226,2036,1775,1828,1971
362992,27268,-5972,28293,-4475,769,1611,225,-150,60,217,364,3816,47,41,772,1769,1865,2063,2226,2036,1775,1828,1971
363993,27332,-5936,28358,-4410,920,1896,238,-152,47,275,328,3903,48,38,771,1769,1865,2063,2226,2036,1775,1828,1971
364994,27384,-5876,28423,-4345,1087,1603,241,-188,35,191,400,3857,47,32,773,1769,1865,2063,2226,2036,1775,1828,1971
365995,27456,-5820,28488,-4280,828,1665,244,-207,29,79,413,4112,52,29,770,1769,1865,2063,2226,2036,1775,1828,1971
366996,27512,-5804,28553,-4215,1039,2225,238,-236,24,84,485,3947,48,26,772,1744,1831,2027,2191,2028,1752,1799,1951
367997,27568,-5772,28618,-4150,1051,2066,237,-231,17,-39,429,3982,47,26,772,1744,1831,2027,2191,2028,1752,1799,1951
368998,27632,-5688,28683,-4085,952,1393,235,-250,7,77,409,3808,50,32,765,1744,1831,2027,2191,2028,1752,1799,1951
369999,27688,-5652,28748,-4020,1064,2030,239,-283,0,14,347,3976,59,35,766,1744,1831,2027,2191,2028,1752,1799,1951
371000,27752,-5588,28813,-3955,966,1682,239,-320,1,-82,324,4036,52,45,773,1744,1831,2027,2191,2028,1752,1799,1951
372001,27800,-5536,28878,-3890,1186,1848,252,-285,-19,-132,209,4179,56,41,767,1744,1831,2027,2191,2028,1752,1799,1951
373002,27856,-5488,28943,-3825,1098,1920,270,-277,-34,142,352,4067,54,49,772,1735,1830,2016,2176,2031,1755,1800,1952
374003,27912,-5416,29008,-3760,1109,1612,288,-281,-28,221,282,4131,57,47,769,1735,1830,2016,2176,2031,1755,1800,1952
375004,27956,-5368,29073,-3695,1286,1933,307,-294,-25,-57,301,4111,57,44,768,1735,1830,2016,2176,2031,1755,1800,1952
376005,28012,-5312,29138,-3630,1147,1845,315,-320,-27,-235,324,4190,67,46,771,1735,1830,2016,2176,2031,1755,1800,1952
377006,28084,-5236,29203,-3565,939,1581,330,-321,-21,239,351,4138,70,56,765,1735,1830,2016,2176,2031,1755,1800,1952
378007,28136,-5168,29268,-3500,1205,1679,335,-306,-7,260,202,4198,64,47,767,1746,1854,2066,2224,2032,1754,1824,1972
379008,28200,-5104,29333,-3435,1057,1731,325,-276,8,-76,260,4223,64,46,773,1746,1854,2066,2224,2032,1754,1824,1972
380009,28264,-5072,29398,-3370,1059,2171,314,-245,17,-90,213,4061,54,53,771,1746,1854,2066,2224,2032,1754,1824,1972
381010,28328,-4980,29463,-3305,1060,1389,301,-248,24,74,219,4007,62,39,771,1746,1854,2066,2224,2032,1754,1824,1972
382011,28404,-4912,29528,-3240,898,1687,292,-272,32,-56,339,4022,66,55,766,1746,1854,2066,2224,2032,1754,1824,1972
383012,28472,-4860,29593,-3175,994,1902,289,-296,28,-220,346,4043,53,39,773,1746,1854,2066,2224,2032,1754,1824,1972
384013,28524,-4792,29658,-3110,1211,1700,275,-309,11,-105,357,4028,49,41,772,1823,1936,2144,2320,2064,1808,1886,2020
385014,28592,-4740,29723,-3045,1007,1917,268,-320,-14,-45,436,4203,51,54,769,1823,1936,2144,2320,2064,1808,1886,2020
386015,28652,-4660,29788,-2980,1113,1548,265,-312,-26,55,445,4161,51,50,770,1823,1936,2144,2320,2064,1808,1886,2020
387016,28720,-4600,29853,-2915,1011,1805,267,-344,-56,170,397,4229,59,40,768,1823,1936,2144,2320,2064,1808,1886,2020
388017,28800,-4540,29918,-2850,842,1811,277,-380,-74,-224,376,4424,61,42,771,1823,1936,2144,2320,2064,1808,1886,2020
389018,28848,-4476,29983,-2785,1264,1764,292,-441,-117,140,589,4225,51,47,770,1832,1919,2127,2303,2096,1839,1895,2031
390019,28920,-4436,30048,-2720,955,2095,331,-499,-133,66,431,4464,50,47,771,1832,1919,2127,2303,2096,1839,1895,2031
391020,28972,-4364,30113,-2655,1222,1687,345,-531,-152,-22,449,4559,54,48,769,1832,1919,2127,2303,2096,1839,1895,2031
392021,29032,-4292,30178,-2590,1128,1679,372,-399,-171,-229,441,4978,56,52,767,1832,1919,2127,2303,2096,1839,1895,2031
393022,29080,-4228,30243,-2525,1299,1781,373,-312,-189,402,466,4214,62,37,769,1832,1919,2127,2303,2096,1839,1895,2031
394023,29144,-4192,30308,-2460,1101,2167,394,-261,-183,613,518,4824,48,50,769,1832,1919,2127,2303,2096,1839,1895,2031
395024,29196,-4132,30373,-2395,1267,1874,401,-285,-189,320,458,4062,65,33,766,1755,1857,2059,2219,2041,1779,1843,1983
396025,29252,-4076,30438,-2330,1229,1936,411,-294,-195,-278,683,4733,57,47,765,1755,1857,2059,2219,2041,1779,1843,1983
397026,29312,-4016,30503,-2265,1185,1892,405,-319,-177,-153,643,4031,49,45,767,1755,1857,2059,2219,2041,1779,1843,1983
398027,29356,-3948,30568,-2200,1412,1789,407,-345,-150,12,588,4450,48,50,767,1755,1857,2059,2219,2041,1779,1843,1983
399028,29436,-3896,30633,-2135,944,2006,406,-357,-138,-336,617,4583,51,46,768,1755,1857,2059,2219,2041,1779,1843,1983
400029,29508,-3828,30698,-2070,1036,1802,415,-381,-131,-545,523,4283,60,50,767,1755,1857,2060,2224,2023,1768,1826,1959
401030,29568,-3752,30763,-2005,1192,1690,422,-359,-128,-304,378,4447,50,41,767,1755,1857,2060,2224,2023,1768,1826,1959
402031,29628,-3708,30828,-1940,1198,2117,431,-358,-150,-34,578,3990,59,41,769,1755,1857,2060,2224,2023,1768,1826,1959
403032,29684,-3656,30893,-1875,1260,2033,457,-391,-158,16,837,4418,54,45,770,1755,1857,2060,2224,2023,1768,1826,1959
404033,29748,-3596,30958,-1810,1162,1940,474,-426,-176,208,719,4018,58,55,764,1755,1857,2060,2224,2023,1768,1826,1959
405034,29820,-3512,31023,-1745,1054,1617,489,-431,-192,100,852,4459,52,47,765,1755,1857,2060,2224,2023,1768,1826,1959
406035,29880,-3460,31088,-1680,1210,2033,505,-425,-212,170,878,4138,59,55,767,1770,1865,2071,2240,2014,1737,1804,1948
407036,29924,-3412,31153,-1615,1437,2105,513,-400,-223,228,718,4509,49,51,771,1770,1865,2071,2240,2014,1737,1804,1948
408037,29988,-3340,31218,-1550,1188,1798,515,-374,-240,196,731,4359,45,45,766,1770,1865,2071,2240,2014,1737,1804,1948
409038,30044,-3280,31283,-1485,1300,1954,521,-339,-247,-35,779,4427,48,57,763,1770,1865,2071,2240,2014,1737,1804,1948
410039,30112,-3208,31348,-1420,1146,1796,511,-284,-235,338,743,4252,52,41,768,1770,1865,2071,2240,2014,1737,1804,1948
411040,30172,-3140,31413,-1355,1253,1843,519,-274,-226,493,864,4074,62,51,765,1776,1839,2048,2200,1967,1729,1792,1912
412041,30224,-3104,31478,-1290,1369,2279,527,-315,-207,163,943,4128,60,54,768,1776,1839,2048,2200,1967,1729,1792,1912
413042,30280,-3024,31543,-1225,1331,1712,531,-344,-205,-104,790,4245,48,40,767,1776,1839,2048,2200,1967,1729,1792,1912
414043,30344,-2952,31608,-1160,1232,1804,531,-347,-206,-258,1004,4418,50,52,762,1776,1839,2048,2200,1967,1729,1792,1912
415044,30412,-2888,31673,-1095,1179,1905,534,-315,-190,-5,966,4273,64,57,768,1776,1839,2048,2200,1967,1729,1792,1912
416045,30476,-2804,31738,-1030,1231,1633,534,-293,-172,69,894,4406,47,51,768,1776,1839,2048,2200,1967,1729,1792,1912
417046,30536,-2756,31803,-965,1287,2105,546,-322,-169,-185,1033,4274,47,40,767,1768,1848,2060,2229,1984,1728,1808,1952
418047,30592,-2680,31868,-900,1349,1742,564,-346,-178,-75,1086,4211,66,50,770,1768,1848,2060,2229,1984,1728,1808,1952
419048,30652,-2644,31933,-835,1305,2278,579,-352,-180,47,824,4406,52,54,764,1768,1848,2060,2229,1984,1728,1808,1952
420049,30704,-2552,31998,-770,1422,1546,622,-356,-155,-30,943,4391,60,44,769,1768,1848,2060,2229,1984,1728,1808,1952
421050,30764,-2480,32063,-705,1328,1788,647,-339,-125,-74,990,4159,54,58,762,1768,1848,2060,2229,1984,1728,1808,1952
422051,30836,-2436,32128,-640,1171,2164,646,-315,-129,102,1116,4353,60,40,770,1780,1872,2100,2271,2083,1802,1852,2018
423052,30888,-2360,32193,-575,1437,1751,651,-286,-134,-131,1099,4168,60,39,767,1780,1872,2100,2271,2083,1802,1852,2018
424053,30952,-2308,32258,-510,1289,2068,649,-236,-137,199,1015,4207,71,42,765,1780,1872,2100,2271,2083,1802,1852,2018
425054,31012,-2244,32323,-445,1345,1920,647,-209,-127,290,1097,4166,58,50,767,1780,1872,2100,2271,2083,1802,1852,2018
426057,31116,-2180,32388,-380,748,1922,645,-228,-116,72,1063,3762,69,52,765,1780,1872,2100,2271,2083,1802,1852,2018
427056,31180,-2108,32453,-315,1249,1814,639,-246,-118,-46,930,3913,62,44,766,1780,1872,2100,2271,2083,1802,1852,2018
428057,31256,-2064,32518,-250,1087,2190,651,-275,-114,-113,986,4051,61,54,768,1799,1908,2127,2283,2089,1823,1871,2019
429058,31328,-1996,32583,-185,1128,1887,664,-287,-114,145,1082,4046,56,40,766,1799,1908,2127,2283,2089,1823,1871,2019
430059,31412,-1936,32648,-120,956,1994,661,-304,-114,28,1044,4077,61,55,765,1799,1908,2127,2283,2089,1823,1871,2019
431060,31472,-1880,32713,-55,1262,2055,652,-304,-111,4,1176,4088,53,36,767,1799,1908,2127,2283,2089,1823,1871,2019
432061,31540,-1796,32778,10,1160,1683,653,-298,-106,217,1196,4101,51,51,767,1799,1908,2127,2283,2089,1823,1871,2019
433062,31608,-1728,32843,75,1156,1880,659,-298,-106,222,1065,4053,68,51,765,1783,1867,2087,2251,2047,1791,1839,1983
434063,31680,-1684,32908,140,1099,2206,661,-308,-101,145,1242,4218,54,34,770,1783,1867,2087,2251,2047,1791,1839,1983
435064,31744,-1648,32973,205,1200,2342,650,-316,-96,239,1118,3944,66,30,767,1783,1867,2087,2251,2047,1791,1839,1983
436065,31820,-1576,33038,270,1037,1885,628,-331,-103,254,1006,4045,55,35,764,1783,1867,2087,2251,2047,1791,1839,1983
437066,31876,-1516,33103,335,1298,2042,600,-328,-97,56,1075,4121,71,44,761,1783,1867,2087,2251,2047,1791,1839,1983
438067,31940,-1472,33168,400,1201,2268,591,-335,-81,89,1050,4101,51,34,767,1783,1867,2087,2251,2047,1791,1839,1983
439068,31996,-1408,33233,465,1312,2020,599,-382,-89,203,914,4198,62,36,764,1738,1839,2031,2180,2004,1739,1805,1963
440069,32072,-1348,33298,530,1048,2077,627,-424,-79,-381,897,4420,66,39,762,1738,1839,2031,2180,2004,1739,1805,1963
441070,32156,-1304,33363,595,926,2303,623,-451,-80,-127,1178,4132,72,39,764,1738,1839,2031,2180,2004,1739,1805,1963
442071,32216,-1232,33428,660,1232,1945,597,-431,-77,296,1028,3938,63,40,766,1738,1839,2031,2180,2004,1739,1805,1963
443072,32292,-1180,33493,725,1020,2212,567,-441,-51,187,977,3927,52,48,763,1738,1839,2031,2180,2004,1739,1805,1963
444073,32364,-1112,33558,790,1061,2009,544,-449,-38,-119,1150,4066,63,36,766,1711,1813,2026,2171,2022,1762,1807,1967
445074,32436,-1052,33623,855,1053,2115,525,-433,-46,-87,1122,4046,66,54,763,1711,1813,2026,2171,2022,1762,1807,1967
446075,32500,-976,33688,920,1155,1903,522,-456,-52,278,1104,3870,52,40,765,1711,1813,2026,2171,2022,1762,1807,1967
447076,32568,-916,33753,985,1102,2110,525,-503,-63,67,1085,4045,54,57,765,1711,1813,2026,2171,2022,1762,1807,1967
448077,32616,-848,33818,1050,1373,2006,530,-526,-86,-198,1162,4021,68,56,767,1711,1813,2026,2171,2022,1762,1807,1967
449078,32688,-764,33883,1115,1065,1784,514,-544,-104,-19,1159,3872,62,59,765,1711,1813,2026,2171,2022,1762,1807,1967
450079,32756,-684,34082,1314,1962,2667,495,-582,-113,176,1045,3706,57,57,765,1697,1808,2007,2148,2052,1790,1812,1976
451080,32808,-612,34147,1379,2178,2760,482,-632,-119,-44,1060,3968,67,47,769,1697,1808,2007,2148,2052,1790,1812,1976
452081,32896,-544,34212,1444,1701,2806,458,-648,-134,-143,1080,3941,67,54,753,1697,1808,2007,2148,2052,1790,1812,1976
453082,32984,-444,34277,1509,1674,2365,424,-652,-155,105,1066,3858,72,50,752,1697,1808,2007,2148,2052,1790,1812,1976
454083,33060,-324,34342,1574,1810,2048,387,-642,-161,224,1100,4000,82,78,755,1697,1808,2007,2148,2052,1790,1812,1976
455084,33168,-216,34407,1639,1358,2147,350,-646,-158,146,1248,3955,83,83,759,1696,1816,2024,2179,2069,1755,1810,1973
456085,33252,-108,34472,1704,1636,2094,321,-634,-145,242,1208,4176,78,74,763,1696,1816,2024,2179,2069,1755,1810,1973
457086,33364,28,34537,1769,1228,1659,310,-624,-148,517,1109,3863,72,70,765,1696,1816,2024,2179,2069,1755,1810,1973
458087,33484,144,34602,1834,1062,1847,266,-630,-164,176,1050,4045,84,69,763,1696,1816,2024,2179,2069,1755,1810,1973
459088,33584,244,34667,1899,1270,2005,209,-610,-138,-541,944,4052,71,78,770,1696,1816,2024,2179,2069,1755,1810,1973
460089,33672,352,34732,1964,1392,1853,161,-595,-124,83,994,3808,71,73,770,1712,1812,2068,2203,2074,1755,1810,1973
461090,33788,472,34797,2029,980,1637,133,-615,-111,158,1243,4181,90,77,767,1712,1812,2068,2203,2074,1801,1843,2012
462091,33884,580,34862,2094,1192,1735,122,-656,-111,-328,1255,3950,84,77,767,1712,1812,2068,2203,2074,1801,1843,2012
463092,33968,688,34927,2159,1320,1683,123,-673,-106,-169,1446,4209,73,82,771,1712,1812,2068,2203,2074,1801,1843,2012
464093,34076,788,34992,2224,968,1740,128,-712,-128,282,1485,3666,71,77,770,1712,1812,2068,2203,2074,1801,1843,2012
465094,34180,896,35057,2289,971,1589,130,-718,-145,-28,1494,4155,74,78,770,1712,1812,2068,2203,2074,1801,1843,2012
466095,34264,996,35122,2354,1198,1646,116,-710,-141,-76,1427,3928,80,64,772,1735,1832,2072,2216,2142,1847,1878,2036
467096,34348,1108,35187,2419,1175,1440,95,-706,-141,149,1357,3794,83,69,773,1735,1832,2072,2216,2142,1847,1878,2036
468097,34464,1212,35252,2484,713,1492,83,-688,-131,112,1456,4091,74,63,771,1735,1832,2072,2216,2142,1847,1878,2036
469098,34544,1304,35317,2549,1145,1610,75,-638,-115,307,1507,3718,81,57,773,1735,1832,2072,2216,2142,1847,1878,2036
470099,34632,1396,35382,2614,1017,1577,55,-626,-124,623,1554,3552,69,53,775,1735,1832,2072,2216,2142,1847,1878,2036
471100,34736,1472,35447,2679,769,1765,47,-628,-132,94,1648,3614,85,67,772,1759,1855,2095,2251,2126,1847,1871,2023
472101,34828,1564,35512,2744,887,1532,16,-615,-139,-20,1822,3633,65,46,773,1759,1855,2095,2251,2126,1847,1871,2023
473102,34916,1652,35577,2809,909,1555,-20,-561,-141,397,1706,3558,76,60,772,1759,1855,2095,2251,2126,1847,1871,2023
474103,35004,1724,35642,2874,881,1746,-63,-539,-112,465,1725,3468,66,58,774,1759,1855,2095,2251,2126,1847,1871,2023
475104,35088,1820,35707,2939,908,1409,-93,-516,-96,185,1720,3324,73,61,773,1759,1855,2095,2251,2126,1847,1871,2023
476106,35188,1900,35772,3004,666,1591,-121,-502,-88,68,1660,3553,66,50,772,1759,1855,2095,2251,2126,1847,1871,2023
477106,35268,1972,35837,3069,898,1683,-133,-495,-81,134,1619,3289,77,52,775,1739,1835,2062,2212,2027,1770,1799,1945
478107,35352,2048,35902,3134,825,1620,-155,-482,-72,258,1563,3527,65,46,775,1739,1835,2062,2212,2027,1770,1799,1945
479108,35436,2124,35967,3199,802,1607,-164,-451,-58,262,1593,3462,64,49,771,1739,1835,2062,2212,2027,1770,1799,1945
480109,35552,2204,36032,3264,339,1539,-175,-426,-46,176,1588,3479,73,55,771,1739,1835,2062,2212,2027,1770,1799,1945
481110,35596,2264,36097,3329,1266,1796,-178,-397,-33,268,1499,3554,67,49,773,1739,1835,2062,2212,2027,1770,1799,1945
482111,35672,2348,36162,3394,853,1472,-183,-384,-17,325,1465,3311,50,49,776,1716,1808,2031,2170,2007,1754,1788,1944
483112,35760,2404,36227,3459,675,1834,-176,-370,-6,319,1483,3461,64,53,769,1716,1808,2031,2170,2007,1754,1788,1944
484113,35828,2484,36292,3524,921,1516,-181,-355,10,231,1468,3304,65,49,775,1716,1808,2031,2170,2007,1754,1788,1944
485114,35900,2576,36357,3589,862,1334,-189,-348,27,321,1409,3340,70,49,772,1716,1808,2031,2170,2007,1754,1788,1944
486115,36004,2664,36422,3654,416,1356,-205,-318,37,416,1588,3538,58,63,774,1716,1808,2031,2170,2007,1754,1788,1944
487116,36080,2768,36487,3719,752,1108,-205,-280,73,420,1721,3186,57,59,776,1716,1808,2031,2170,2007,1754,1788,1944
488117,36152,2848,36552,3784,794,1391,-210,-263,97,633,1566,3172,60,44,778,1692,1788,2004,2144,2012,1750,1789,1942
489118,36228,2928,36617,3849,730,1373,-220,-273,101,356,1538,3073,64,41,779,1692,1788,2004,2144,2012,1750,1789,1942
490119,36308,3012,36682,3914,662,1300,-229,-266,104,176,1597,3241,62,53,776,1692,1788,2004,2144,2012,1750,1789,1942
491120,36376,3076,36747,3979,808,1552,-264,-241,117,435,1614,3140,64,52,777,1692,1788,2004,2144,2012,1750,1789,1942
492121,36456,3156,36812,4044,640,1333,-289,-206,140,720,1650,3202,59,54,778,1692,1788,2004,2144,2012,1750,1789,1942
493122,36524,3228,36877,4109,787,1425,-315,-189,164,679,1638,3049,64,40,774,1691,1787,2003,2146,2030,1770,1803,1941
494123,36596,3308,36942,4174,729,1308,-322,-183,181,278,1482,3045,61,52,777,1691,1787,2003,2146,2030,1770,1803,1941
495124,36688,3376,37007,4239,446,1454,-339,-179,184,324,1464,2955,51,51,776,1691,1787,2003,2146,2030,1770,1803,1941
496125,36756,3432,37072,4304,742,1615,-358,-179,195,328,1399,2864,61,57,776,1691,1787,2003,2146,2030,1770,1803,1941
497126,36848,3512,37137,4369,409,1298,-373,-171,211,377,1336,3040,44,49,776,1691,1787,2003,2146,2030,1770,1803,1941
498127,36916,3592,37202,4434,706,1279,-393,-165,234,335,1301,2876,53,56,774,1691,1787,2003,2146,2030,1770,1803,1941
499128,36988,3672,37267,4499,647,1261,-407,-164,240,350,1323,2930,44,47,779,1664,1772,2002,2144,2031,1755,1792,1952
500129,37052,3740,37332,4564,748,1408,-421,-178,240,387,1348,2954,51,49,778,1664,1772,2002,2144,2031,1755,1792,1952
501130,37132,3836,37397,4629,531,1021,-439,-188,252,332,1200,2924,49,65,778,1664,1772,2002,2144,2031,1755,1792,1952
502131,37204,3936,37462,4694,622,928,-461,-178,250,435,1198,3075,50,48,777,1664,1772,2002,2144,2031,1755,1792,1952
503132,37276,4020,37527,4759,614,1106,-493,-175,268,363,1096,3025,46,59,781,1664,1772,2002,2144,2031,1755,1792,1952
504133,37340,4120,37592,4824,715,863,-508,-153,310,427,1096,3157,56,49,782,1706,1812,2040,2167,2060,1759,1799,1947
505134,37412,4212,37657,4889,607,930,-527,-148,321,694,941,2849,54,54,780,1706,1812,2040,2167,2060,1759,1799,1947
506135,37476,4288,37722,4954,708,1116,-551,-160,329,391,981,3284,62,53,781,1706,1812,2040,2167,2060,1759,1799,1947
507136,37556,4368,37787,5019,489,1049,-598,-172,358,120,983,2989,46,47,781,1706,1812,2040,2167,2060,1759,1799,1947
508137,37636,4456,37852,5084,471,921,-632,-160,375,575,1073,3191,63,46,780,1706,1812,2040,2167,2060,1759,1799,1947
509138,37708,4532,37917,5149,563,1058,-677,-145,394,571,1020,3245,49,62,781,1706,1812,2040,2167,2060,1759,1799,1947
510139,37784,4616,37982,5214,499,934,-703,-151,414,517,1205,3012,54,56,783,1744,1852,2064,2196,2100,1820,1840,1999
511140,37864,4700,38047,5279,431,912,-726,-157,426,239,1135,3212,63,47,781,1744,1852,2064,2196,2100,1820,1840,1999
512141,37936,4784,38112,5344,522,889,-746,-172,425,334,1178,2992,62,60,782,1744,1852,2064,2196,2100,1820,1840,1999
513142,38016,4856,38177,5409,405,1031,-761,-168,436,409,1075,3090,46,53,782,1744,1852,2064,2196,2100,1820,1840,1999
514143,38084,4936,38242,5474,551,912,-788,-153,446,527,1039,3143,56,44,782,1744,1852,2064,2196,2100,1820,1840,1999
515144,38172,5028,38307,5539,273,729,-805,-142,454,441,1017,3121,48,62,782,1711,1823,2039,2175,2095,1815,1855,2015
516145,38252,5116,38372,5604,355,752,-825,-137,453,359,940,3080,66,53,783,1711,1823,2039,2175,2095,1815,1855,2015
517146,38340,5212,38437,5669,227,614,-841,-133,459,382,913,3114,62,47,785,1711,1823,2039,2175,2095,1815,1855,2015
518147,38404,5284,38502,5734,528,906,-846,-103,483,414,871,3165,46,54,785,1711,1823,2039,2175,2095,1815,1855,2015
519148,38488,5384,38567,5799,255,513,-838,-80,482,618,857,3044,50,59,786,1711,1823,2039,2175,2095,1815,1855,2015
520149,38552,5464,38632,5864,506,745,-842,-91,478,404,732,3042,62,44,783,1711,1823,2039,2175,2095,1815,1855,2015
521150,38640,5552,38697,5929,178,617,-850,-99,482,136,756,3152,56,53,787,1710,1818,2036,2181,2079,1806,1838,1982
522151,38716,5640,38762,5994,315,590,-857,-88,490,434,764,3121,57,50,784,1710,1818,2036,2181,2079,1806,1838,1982
523152,38780,5716,38827,6059,466,726,-870,-67,503,480,628,3110,61,43,787,1710,1818,2036,2181,2079,1806,1838,1982
524154,38852,5792,38892,6124,357,713,-889,-78,517,423,732,3241,54,49,786,1710,1818,2036,2181,2079,1806,1838,1982
525154,38948,5872,38957,6189,19,644,-896,-94,529,187,681,3138,46,57,785,1710,1818,2036,2181,2079,1806,1838,1982
526155,39016,5948,39022,6254,366,681,-923,-104,535,324,526,3230,48,44,785,1731,1845,2061,2217,2039,1775,1819,1959
527156,39108,6020,39087,6319,33,722,-927,-90,550,465,518,3401,45,47,787,1731,1845,2061,2217,2039,1775,1819,1959
528157,39180,6108,39152,6384,274,494,-942,-72,566,486,576,3317,49,58,785,1731,1845,2061,2217,2039,1775,1819,1959
529158,39256,6184,39217,6449,211,631,-951,-46,573,495,485,3375,57,59,787,1731,1845,2061,2217,2039,1775,1819,1959
530159,39332,6276,39282,6514,197,399,-957,-27,575,544,441,3397,64,52,786,1731,1845,2061,2217,2039,1775,1819,1959
531160,39404,6348,39347,6579,239,640,-955,-23,577,587,482,3563,52,46,785,1731,1845,2061,2217,2039,1775,1819,1959
532161,39492,6436,39412,6644,11,412,-942,-2,563,582,401,3517,55,59,788,1760,1861,2076,2240,2022,1768,1824,1956
533162,39572,6532,39477,6709,93,275,-929,33,555,575,277,3615,61,62,787,1760,1861,2076,2240,2022,1768,1824,1956
534163,39660,6608,39542,6774,-36,511,-892,68,565,758,409,3545,44,48,789,1760,1861,2076,2240,2022,1768,1824,1956
535164,39740,6696,39607,6839,46,333,-862,68,566,573,358,3340,61,48,789,1760,1861,2076,2240,2022,1768,1824,1956
536165,39852,6784,39672,6904,-411,305,-835,58,560,326,416,3374,56,45,788,1760,1861,2076,2240,2022,1768,1824,1956
537166,39976,6872,39737,6969,-633,277,-823,40,550,365,296,3248,59,55,789,1777,1884,2090,2265,2026,1775,1835,1960
538167,40104,6964,39802,7034,-761,194,-809,25,549,382,310,3450,52,47,789,1777,1884,2090,2265,2026,1775,1835,1960
539168,40200,7052,39867,7099,-399,216,-791,4,561,367,348,3441,58,50,789,1777,1884,2090,2265,2026,1775,1835,1960
540169,40248,7160,39932,7164,222,-87,-765,-35,568,268,387,3248,40,45,790,1777,1884,2090,2265,2026,1775,1835,1960
541170,40344,7228,39997,7229,-416,410,-725,-77,548,110,499,3479,57,59,790,1777,1884,2090,2265,2026,1775,1835,1960
542171,40404,7296,40062,7294,40,406,-680,-80,523,268,359,3462,46,47,790,1777,1884,2090,2265,2026,1775,1835,1960
543173,40476,7392,40127,7359,-119,18,-638,-90,499,601,333,3588,54,57,789,1806,1909,2106,2290,2018,1768,1836,1956
544173,40552,7476,40192,7424,-182,145,-601,-81,476,646,499,3368,53,49,786,1806,1909,2106,2290,2018,1768,1836,1956
545174,40612,7568,40257,7489,24,12,-563,-84,467,438,398,3438,52,60,781,1806,1909,2106,2290,2018,1768,1836,1956
546175,40684,7664,40322,7554,-135,-76,-534,-65,448,482,85,3435,46,49,789,1806,1909,2106,2290,2018,1768,1836,1956
547176,40752,7796,40387,7619,-89,-608,-506,-85,451,642,121,3315,48,47,783,1806,1909,2106,2290,2018,1768,1836,1956
548177,40824,7948,40452,7684,-148,-964,-482,-103,467,297,287,3532,48,57,783,1826,1907,2096,2248,1944,1746,1817,1912
549178,40908,8028,40517,7749,-321,-82,-453,-85,500,185,192,3473,54,39,776,1826,1907,2096,2248,1944,1746,1817,1912
550179,40980,8100,40582,7814,-179,9,-431,-89,515,565,18,3441,43,46,789,1826,1907,2096,2248,1944,1746,1817,1912
551180,41048,8180,40647,7879,-133,-109,-419,-150,472,307,-226,3462,44,37,781,1826,1907,2096,2248,1944,1746,1817,1912
552181,41104,8240,40712,7944,28,146,-403,-164,470,39,-211,3640,49,47,784,1826,1907,2096,2248,1944,1746,1817,1912
553182,41176,8300,40777,8009,-182,152,-372,-164,492,372,14,3743,58,46,790,1826,1907,2096,2248,1944,1746,1817,1912
554183,41240,8380,40842,8074,-80,-116,-350,-143,477,276,-100,3384,47,37,780,1856,1952,2116,2296,2048,1824,1808,1936
555184,41324,8424,40907,8139,-354,360,-327,-128,436,653,-145,3601,44,40,788,1856,1952,2116,2296,2048,1824,1808,1936
556185,41404,8504,40972,8204,-322,-109,-307,-118,403,312,-223,3474,58,48,787,1856,1952,2116,2296,2048,1824,1808,1936
557186,41468,8568,41037,8269,-121,93,-300,-111,380,140,-172,3457,49,46,790,1856,1952,2116,2296,2048,1824,1808,1936
558187,41532,8624,41102,8334,-119,203,-292,-93,355,302,-144,3270,57,39,790,1856,1952,2116,2296,2048,1824,1808,1936
559188,41596,8696,41167,8399,-119,-5,-274,-113,325,-104,-102,3291,50,37,785,1787,1905,2095,2283,2015,1774,1839,1959
560189,41680,8756,41232,8464,-392,151,-252,-151,287,-135,-311,3523,58,45,785,1787,1905,2095,2283,2015,1774,1839,1959
561190,41756,8828,41297,8529,-306,-8,-219,-184,265,-22,-410,3306,48,39,790,1787,1905,2095,2283,2015,1774,1839,1959
562191,41832,8892,41362,8594,-319,93,-183,-213,229,118,-223,3314,59,36,790,1787,1905,2095,2283,2015,1774,1839,1959
563192,41908,8972,41427,8659,-333,-126,-142,-236,207,-47,-243,3181,60,47,790,1787,1905,2095,2283,2015,1774,1839,1959
564193,41984,9040,41492,8724,-346,21,-117,-281,203,-195,-283,3462,48,42,789,1787,1905,2095,2283,2015,1774,1839,1959
565194,42080,9104,41557,8789,-635,72,-105,-294,186,-129,-310,3315,57,46,791,1773,1870,2074,2263,2046,1801,1862,1980
566195,42144,9180,41622,8854,-234,-91,-101,-280,175,98,-413,3400,59,39,790,1773,1870,2074,2263,2046,1801,1862,1980
567196,42212,9252,41687,8919,-287,-50,-92,-241,161,285,-321,3457,58,38,790,1773,1870,2074,2263,2046,1801,1862,1980
568197,42300,9340,41752,8984,-565,-278,-85,-235,166,-86,-561,2999,59,51,790,1773,1870,2074,2263,2046,1801,1862,1980
569198,42384,9436,41817,9049,-539,-417,-76,-206,167,228,-691,3686,50,41,789,1773,1870,2074,2263,2046,1801,1862,1980
570199,42452,9480,41882,9114,-343,259,-67,-194,171,585,-833,3233,48,41,788,1741,1876,2066,2247,2033,1788,1852,1970
571200,42552,9560,41947,9179,-786,-210,-69,-169,162,42,-942,3641,56,42,790,1741,1876,2066,2247,2033,1788,1852,1970
572201,42616,9620,42012,9244,-335,47,-90,-99,159,57,-1022,3821,53,50,789,1741,1876,2066,2247,2033,1788,1852,1970
573202,42716,9704,42077,9309,-828,-277,-121,-60,155,481,-1085,3656,49,45,791,1741,1876,2066,2247,2033,1788,1852,1970
574203,42792,9768,42142,9374,-542,-25,-145,-43,155,223,-909,3819,59,55,790,1741,1876,2066,2247,2033,1788,1852,1970
575204,42868,9856,42207,9439,-555,-354,-192,7,122,-433,-643,3963,57,49,791,1741,1876,2066,2247,2033,1788,1852,1970
576205,42964,9936,42272,9504,-843,-273,-207,63,159,-333,-383,3874,49,43,789,1778,1871,2067,2253,2031,1783,1851,1975
577206,43040,9992,42337,9569,-607,38,-256,92,170,216,-254,3543,51,42,782,1778,1871,2067,2253,2031,1783,1851,1975
578207,43128,10080,42402,9634,-786,-390,-306,27,113,-375,-811,3141,64,55,791,1778,1871,2067,2253,2031,1783,1851,1975
579208,43200,10144,42467,9699,-594,-89,-318,-72,114,-774,-690,4071,51,43,789,1778,1871,2067,2253,2031,1783,1851,1975
580209,43300,10228,42532,9764,-987,-362,-323,-186,83,-284,-967,2995,57,53,789,1778,1871,2067,2253,2031,1783,1851,1975
581210,43372,10324,42597,9829,-647,-550,-307,-238,51,-621,-1042,3882,62,41,781,1773,1866,2077,2263,2105,1849,1897,1992
582211,43484,10372,42662,9894,-1204,70,-286,-251,11,-707,-935,3739,56,42,787,1773,1866,2077,2263,2105,1849,1897,1992
583212,43564,10440,42727,9959,-822,-184,-273,-275,-4,-61,-1018,3599,63,48,790,1773,1866,2077,2263,2105,1849,1897,1992
584213,43660,10508,42792,10024,-1060,-187,-276,-282,-31,258,-1046,3982,52,43,790,1773,1866,2077,2263,2105,1849,1897,1992
585214,43756,10588,42857,10089,-1099,-356,-271,-282,-51,128,-894,3591,59,43,786,1773,1866,2077,2263,2105,1849,1897,1992
586215,43840,10648,42922,10154,-972,-100,-296,-164,-85,278,-1006,4286,62,39,789,1773,1866,2077,2263,2105,1849,1897,1992
587216,43940,10732,42987,10219,-1215,-424,-326,-31,-83,855,-1026,3953,54,45,790,1771,1875,2093,2269,2107,1862,1921,2057
588217,44020,10792,43052,10284,-984,-118,-372,-26,-50,654,-866,3718,69,37,788,1771,1875,2093,2269,2107,1862,1921,2057
589218,44136,10872,43117,10349,-1496,-386,-411,-93,-52,-59,-991,3672,56,45,789,1771,1875,2093,2269,2107,1862,1921,2057
590219,44208,10936,43182,10414,-956,-185,-456,-139,-46,-212,-1317,3986,67,33,789,1771,1875,2093,2269,2107,1862,1921,2057
591220,44312,10996,43247,10479,-1404,-129,-509,-178,-19,69,-1084,3846,69,47,790,1771,1875,2093,2269,2107,1862,1921,2057
592221,44396,11064,43312,10544,-1177,-233,-571,-271,-15,49,-937,3873,56,46,790,1795,1864,2080,2278,2109,1836,1904,2045
593222,44496,11128,43377,10609,-1420,-182,-624,-355,-8,-768,-1380,4122,58,35,789,1795,1864,2080,2278,2109,1836,1904,2045
594223,44568,11196,43442,10674,-1079,-236,-659,-393,-5,-42,-1211,4606,66,42,790,1795,1864,2080,2278,2109,1836,1904,2045
595224,44672,11264,43507,10739,-1528,-239,-668,-461,12,43,-1319,4104,62,50,790,1795,1864,2080,2278,2109,1836,1904,2045
596225,44764,11340,43572,10804,-1411,-353,-685,-497,17,353,-1537,4840,57,37,789,1795,1864,2080,2278,2109,1836,1904,2045
597226,44844,11400,43637,10869,-1280,-148,-685,-510,36,179,-2035,4565,64,36,787,1795,1864,2080,2278,2109,1836,1904,2045
598227,44948,11464,43702,10934,-1627,-196,-693,-475,69,-149,-2245,4498,68,48,788,1783,1895,2086,2267,2133,1865,1932,2075
599228,45052,11556,43767,10999,-1676,-579,-687,-466,68,311,-1881,4498,62,41,790,1783,1895,2086,2267,2133,1865,1932,2075
600229,45132,11608,43832,11064,-1394,-64,-651,-488,67,198,-1613,4516,54,44,787,1783,1895,2086,2267,2133,1865,1932,2075
601233,45240,11660,43897,11129,-1798,-48,-649,-625,112,-723,-382,3888,54,38,790,1783,1895,2086,2267,2133,1865,1932,2075
602231,45308,11712,43962,11194,-1302,-33,-769,-801,84,-1025,-636,4887,66,42,791,1783,1895,2086,2267,2133,1865,1932,2075
603232,45400,11788,44027,11259,-1636,-346,-863,-891,30,382,-1070,4213,68,46,790,1807,1919,2115,2303,2143,1878,1951,2095
604233,45512,11848,44092,11324,-1943,-140,-876,-928,51,635,-861,4961,71,39,789,1807,1919,2115,2303,2143,1878,1951,2095
605234,45600,11928,44157,11389,-1672,-408,-870,-962,27,-385,-1939,3764,69,50,789,1807,1919,2115,2303,2143,1878,1951,2095
606235,45688,11972,44222,11454,-1700,66,-811,-929,-3,578,-1401,4789,62,48,789,1807,1919,2115,2303,2143,1878,1951,2095
607236,45800,12064,44287,11519,-2058,-567,-745,-762,-174,275,-1355,5150,51,47,790,1807,1919,2115,2303,2143,1878,1951,2095
608237,45912,12140,44352,11584,-2116,-380,-648,-833,-247,-408,-1153,4102,51,52,788,1807,1919,2115,2303,2143,1878,1951,2095
609238,46004,12200,44417,11649,-1900,-174,-611,-1074,-227,2089,-2154,4000,67,38,788,1856,1966,2164,2360,2157,1870,1948,2076
610239,46116,12256,44482,11714,-2208,-113,-486,-1331,-252,883,-2255,3358,62,48,783,1856,1966,2164,2360,2157,1870,1948,2076
611240,46188,12320,44547,11779,-1717,-213,-319,-1374,-210,-1801,-2564,4555,53,49,790,1856,1966,2164,2360,2157,1870,1948,2076
612241,46264,12396,44612,11844,-1781,-376,-200,-1328,-125,-296,-3113,4421,48,48,790,1856,1966,2164,2360,2157,1870,1948,2076
613242,46340,12452,44677,11909,-1795,-115,-144,-1170,-11,759,-2426,4994,57,35,788,1856,1966,2164,2360,2157,1870,1948,2076
614243,46464,12512,44742,11974,-2468,-159,-227,-870,54,1503,-1543,6158,63,39,782,1911,2022,2191,2435,1988,1747,1847,1911
615244,46524,12576,44807,12039,-1662,-208,-422,-521,112,2658,-1061,6298,51,48,789,1911,2022,2191,2435,1988,1747,1847,1911
616245,46620,12628,44872,12104,-2150,-43,-678,-293,181,2915,-980,6544,48,50,790,1911,2022,2191,2435,1988,1747,1847,1911
617246,46712,12696,44937,12169,-2134,-247,-910,-188,215,729,-375,6472,51,42,790,1911,2022,2191,2435,1988,1747,1847,1911
618247,46808,12736,45002,12234,-2223,134,-1072,-211,219,-2312,-299,5390,47,35,786,1911,2022,2191,2435,1988,1747,1847,1911
619248,46872,12808,45067,12299,-1822,-275,-1126,-369,211,-2508,-1216,5484,50,44,790,1911,2022,2191,2435,1988,1747,1847,1911
620249,46944,12872,45132,12364,-1931,-174,-1091,-634,226,-1392,-2372,4622,42,39,789,1949,2014,2186,2479,1992,1839,1912,2001
621250,47012,12928,45197,12429,-1886,-64,-999,-1003,259,-1709,-2620,4286,42,47,790,1949,2014,2186,2479,1992,1839,1912,2001
622251,47088,13000,45262,12494,-2001,-272,-871,-1298,242,-1256,-2103,4712,54,37,788,1949,2014,2186,2479,1992,1839,1912,2001
623252,47148,13052,45327,12559,-1794,-6,-734,-1326,173,-261,-2361,6091,48,32,789,1949,2014,2186,2479,1992,1839,1912,2001
624253,47224,13112,45392,12624,-2009,-100,-553,-1091,74,1062,-1893,6713,36,37,791,1949,2014,2186,2479,1992,1839,1912,2001
625254,47276,13192,45457,12689,-1694,-369,-339,-808,-1,2094,-2256,6060,45,39,790,1855,1897,2186,2406,2319,2043,2067,2221
626255,47336,13256,45522,12754,-1788,-168,-116,-491,-58,3095,-2559,6694,43,32,788,1855,1897,2186,2406,2319,2043,2067,2221
627256,47380,13300,45587,12819,-1563,107,71,-206,-109,2561,-2299,5290,30,46,790,1855,1897,2186,2406,2319,2043,2067,2221
628257,47448,13368,45652,12884,-1868,-196,187,57,-105,1714,-2252,5010,47,39,790,1855,1897,2186,2406,2319,2043,2067,2221
629258,47500,13440,45717,12949,-1652,-255,221,315,-89,2059,-1763,4771,30,42,789,1855,1897,2186,2406,2319,2043,2067,2221
630259,47548,13492,45782,13014,-1582,11,195,481,-32,1829,-1618,4373,39,45,789,1855,1897,2186,2406,2319,2043,2067,2221
631260,47592,13540,45847,13079,-1508,82,103,587,35,1281,-1120,4441,42,42,790,1914,2016,2245,2502,2177,1907,1960,2018
632261,47636,13616,45912,13144,-1482,-283,-33,625,94,624,-877,4108,42,43,789,1914,2016,2245,2502,2177,1907,1960,2018
633262,47692,13680,45977,13209,-1622,-131,-199,575,159,29,-876,4125,36,42,789,1914,2016,2245,2502,2177,1907,1960,2018
634263,47724,13740,46042,13274,-1283,-75,-362,472,216,-227,-879,4093,20,31,789,1914,2016,2245,2502,2177,1907,1960,2018
635264,47760,13784,46107,13339,-1297,150,-485,348,280,-377,-1144,4223,32,37,790,1914,2016,2245,2502,2177,1907,1960,2018
636265,47800,13852,46172,13404,-1318,-153,-564,221,328,-385,-1307,4589,15,41,790,1952,2018,2181,2476,1968,1739,1814,1879
637266,47836,13900,46237,13469,-1233,116,-590,73,339,-214,-1576,4753,28,29,790,1952,2018,2181,2476,1968,1739,1814,1879
638267,47856,13968,46302,13534,-978,-137,-575,-40,350,-153,-2107,5176,27,41,790,1952,2018,2181,2476,1968,1739,1814,1879
639268,47880,14004,46367,13599,-979,298,-507,-70,336,689,-2158,5457,20,40,790,1952,2018,2181,2476,1968,1739,1814,1879
640269,47904,14084,46432,13664,-929,-270,-408,-4,300,1213,-2408,5648,7,28,790,1952,2018,2181,2476,1968,1739,1814,1879
641270,47912,14124,46497,13729,-661,260,-273,139,249,1780,-2534,5768,21,32,789,1952,2018,2181,2476,1968,1739,1814,1879
642271,47940,14156,46562,13794,-867,401,-120,316,197,2375,-2606,5599,2,30,789,1782,1875,2062,2243,2034,1763,1853,2005
643272,47960,14208,46627,13859,-712,165,36,470,148,2439,-2487,5421,19,27,788,1782,1875,2062,2243,2034,1763,1853,2005
644273,47956,14284,46692,13924,-328,-148,169,588,107,2258,-2308,4749,1,38,790,1782,1875,2062,2243,2034,1763,1853,2005
645274,47972,14352,46757,13989,-519,-52,264,651,63,2395,-1944,4034,13,31,790,1782,1875,2062,2243,2034,1763,1853,2005
646275,47980,14428,46822,14054,-350,-165,321,729,37,1974,-1678,3761,10,37,791,1782,1875,2062,2243,2034,1763,1853,2005
647276,47980,14468,46887,14119,-171,315,350,728,32,1703,-1229,2957,13,39,783,1800,1922,2089,2328,2110,1844,1934,2045
648277,47972,14516,46952,14184,18,236,339,651,30,1269,-917,2636,-4,37,789,1800,1922,2089,2328,2110,1844,1934,2045
649278,47980,14524,47017,14249,-113,806,278,513,29,766,-541,2004,-2,36,788,1800,1922,2089,2328,2110,1844,1934,2045
650279,47972,14524,47082,14314,176,985,198,353,58,385,-256,1943,-6,31,782,1800,1922,2089,2328,2110,1844,1934,2045
651282,47972,14572,47147,14379,155,405,122,193,83,368,-219,1923,1,31,784,1800,1922,2089,2328,2110,1844,1934,2045
652281,47968,14644,47212,14444,289,96,57,70,90,305,-160,2350,6,46,788,1800,1922,2089,2328,2110,1844,1934,2045
653282,47972,14704,47277,14509,263,252,15,-25,114,786,-266,2117,-2,46,789,1920,2021,2184,2435,2022,1779,1880,1960
654283,47980,14780,47342,14574,283,39,9,-77,134,1269,-320,2633,14,45,789,1920,2021,2184,2435,2022,1779,1880,1960
655284,47968,14840,47407,14639,626,245,30,-82,133,1060,-624,3082,15,34,790,1920,2021,2184,2435,2022,1779,1880,1960
656285,47984,14908,47472,14704,336,141,72,-90,126,811,-918,3412,12,37,787,1920,2021,2184,2435,2022,1779,1880,1960
657286,47976,14964,47537,14769,725,302,152,-57,113,1140,-1167,4047,11,48,789,1920,2021,2184,2435,2022,1779,1880,1960
658287,47984,15024,47602,14834,594,259,238,-19,89,1472,-1389,4253,14,34,786,1803,1895,2059,2230,1971,1716,1776,1901
659288,47992,15088,47667,14899,664,210,344,15,58,1667,-1534,4521,20,35,787,1803,1895,2059,2230,1971,1716,1776,1901
660289,48008,15132,47732,14964,624,485,441,9,24,1509,-1577,4585,13,39,787,1803,1895,2059,2230,1971,1716,1776,1901
661290,48016,15208,47797,15029,792,72,532,11,-17,1217,-1548,4552,9,35,785,1803,1895,2059,2230,1971,1716,1776,1901
662291,48044,15280,47862,15094,587,113,589,-1,-55,1370,-1347,4467,10,44,786,1803,1895,2059,2230,1971,1716,1776,1901
663292,48056,15324,47927,15159,852,489,634,-16,-88,1408,-1149,4047,14,52,788,1803,1895,2059,2230,1971,1716,1776,1901
664293,48068,15392,47992,15224,917,184,648,-14,-121,1251,-865,4018,20,50,784,1704,1808,2012,2185,1932,1696,1768,1889
665294,48116,15456,48057,15289,487,236,636,-54,-155,943,-587,3299,29,48,785,1704,1808,2012,2185,1932,1696,1768,1889
666295,48132,15528,48122,15354,947,127,604,-60,-174,737,-345,3354,31,38,786,1704,1808,2012,2185,1932,1696,1768,1889
667296,48176,15608,48187,15419,623,9,568,-67,-181,1126,-37,2851,31,35,786,1704,1808,2012,2185,1932,1696,1768,1889
668297,48224,15664,48252,15484,594,320,530,-28,-190,1030,1,2761,27,37,787,1704,1808,2012,2185,1932,1696,1768,1889
669298,48256,15736,48317,15549,834,111,489,-8,-207,958,190,2527,27,48,787,1796,1920,2128,2368,2015,1792,1872,1979
670299,48304,15800,48382,15614,655,212,474,22,-217,808,232,2515,33,47,786,1796,1920,2128,2368,2015,1792,1872,1979
671300,48340,15868,48447,15679,840,159,461,25,-211,655,216,2450,42,47,787,1796,1920,2128,2368,2015,1792,1872,1979
672301,48396,15920,48512,15744,601,375,472,44,-207,720,186,2589,45,49,786,1796,1920,2128,2368,2015,1792,1872,1979
673302,48436,15980,48577,15809,832,281,490,62,-199,607,95,2753,42,49,786,1796,1920,2128,2368,2015,1792,1872,1979
674303,48484,16032,48642,15874,752,397,540,75,-185,675,-48,3154,34,47,785,1796,1920,2128,2368,2015,1792,1872,1979
675304,48556,16100,48707,15939,444,193,613,80,-180,628,-84,3289,41,49,786,1892,1982,2186,2411,2126,1877,1928,2048
676305,48608,16152,48772,16004,710,409,694,92,-177,627,-231,3740,36,37,788,1892,1982,2186,2411,2126,1877,1928,2048
677306,48660,16212,48837,16069,726,315,784,142,-174,776,-438,4111,44,45,786,1892,1982,2186,2411,2126,1877,1928,2048
678307,48728,16264,48902,16134,523,431,866,173,-172,878,-424,4319,37,35,786,1892,1982,2186,2411,2126,1877,1928,2048
679308,48772,16324,48967,16199,849,336,948,219,-182,867,-469,4546,40,38,786,1892,1982,2186,2411,2126,1877,1928,2048
680309,48848,16380,49032,16264,435,397,1010,268,-180,783,-537,4668,44,39,785,1779,1871,2083,2263,2031,1779,1815,1921
681310,48900,16440,49097,16329,751,353,1055,333,-179,794,-397,4719,51,38,787,1779,1871,2083,2263,2031,1779,1815,1921
682311,48956,16508,49162,16394,712,249,1078,394,-202,996,-218,4789,49,46,787,1779,1871,2083,2263,2031,1779,1815,1921
683312,49032,16564,49227,16459,449,410,1084,464,-213,651,-373,4769,42,42,785,1779,1871,2083,2263,2031,1779,1815,1921
684313,49100,16632,49292,16524,545,257,1058,524,-224,790,-110,4668,44,43,787,1779,1871,2083,2263,2031,1779,1815,1921
685314,49172,16708,49357,16589,486,143,1025,576,-236,680,-23,4516,54,46,787,1788,1874,2092,2303,1952,1726,1790,1898
686315,49224,16780,49422,16654,752,185,971,582,-253,527,105,4227,44,37,788,1788,1874,2092,2303,1952,1726,1790,1898
687316,49304,16852,49487,16719,384,176,914,571,-264,257,197,4013,38,50,787,1788,1874,2092,2303,1952,1726,1790,1898
688317,49364,16912,49552,16784,640,332,853,535,-251,213,213,3784,52,46,789,1788,1874,2092,2303,1952,1726,1790,1898
689318,49412,16976,49617,16849,811,283,808,537,-244,366,294,4111,51,41,787,1788,1874,2092,2303,1952,1726,1790,1898
690319,49464,17048,49682,16914,777,175,775,518,-224,189,168,3686,36,50,786,1788,1874,2092,2303,1952,1726,1790,1898
691320,49540,17124,49747,16979,463,111,770,492,-205,327,237,3874,43,39,787,1877,1963,2182,2403,2071,1838,1903,2046
692321,49600,17188,49812,17044,670,263,780,466,-183,203,191,3884,46,48,789,1877,1963,2182,2403,2071,1838,1903,2046
693322,49668,17244,49877,17109,567,374,816,467,-162,418,119,4009,54,49,787,1877,1963,2182,2403,2071,1838,1903,2046
694323,49724,17308,49942,17174,728,275,871,476,-137,433,22,4011,43,47,787,1877,1963,2182,2403,2071,1838,1903,2046
695324,49804,17352,50007,17239,409,551,927,471,-112,498,80,3913,54,41,787,1877,1963,2182,2403,2071,1838,1903,2046
696325,49880,17428,50072,17304,446,137,995,458,-90,610,94,3917,41,37,787,1869,1974,2194,2366,2210,1931,1974,2138
697326,49940,17492,50137,17369,652,288,1054,431,-67,486,111,4077,46,34,788,1869,1974,2194,2366,2210,1931,1974,2138
698327,49992,17568,50202,17434,768,125,1105,418,-57,452,316,3949,47,40,787,1869,1974,2194,2366,2210,1931,1974,2138
699328,50056,17628,50267,17499,619,330,1130,414,-39,338,227,4136,46,36,787,1869,1974,2194,2366,2210,1931,1974,2138
700329,50100,17684,50466,17698,1058,555,1140,413,-46,759,382,4275,46,38,785,1869,1974,2194,2366,2210,1931,1974,2138
701330,50160,17744,50531,17763,864,511,1129,398,-47,366,445,4347,50,39,783,1869,1974,2194,2366,2210,1931,1974,2138
702331,50244,17816,50596,17828,541,352,1096,368,-47,153,724,4481,48,39,784,1823,1925,2133,2296,2131,1843,1889,2021
703332,50304,17876,50661,17893,848,508,1043,376,-75,152,835,4965,58,51,787,1823,1925,2133,2296,2131,1843,1889,2021
704333,50368,17940,50726,17958,800,459,971,362,-97,197,882,4677,47,42,785,1823,1925,2133,2296,2131,1843,1889,2021
705334,50428,18008,50791,18023,856,406,883,329,-109,233,847,4830,53,38,785,1823,1925,2133,2296,2131,1843,1889,2021
706335,50508,18076,50856,18088,587,402,800,244,-110,-54,712,4439,47,38,785,1823,1925,2133,2296,2131,1843,1889,2021
707336,50576,18140,50921,18153,734,453,717,153,-125,-96,515,4670,45,52,787,1785,1889,2081,2239,2039,1787,1835,1989
708337,50640,18228,50986,18218,785,125,662,80,-129,-55,536,4734,56,45,786,1785,1889,2081,2239,2039,1787,1835,1989
709338,50712,18296,51051,18283,676,372,618,43,-121,-58,631,4697,52,42,787,1785,1889,2081,2239,2039,1787,1835,1989
710339,50800,18368,51116,18348,448,313,558,56,-117,-189,579,4402,52,43,786,1785,1889,2081,2239,2039,1787,1835,1989
711340,50876,18436,51181,18413,586,359,515,128,-115,135,379,4056,59,42,788,1785,1889,2081,2239,2039,1787,1835,1989
712341,50944,18504,51246,18478,682,356,491,103,-103,416,73,3967,50,39,787,1785,1889,2081,2239,2039,1787,1835,1989
713342,51028,18564,51311,18543,459,462,493,73,-81,-6,171,3942,57,42,786,1768,1888,2132,2264,2160,1888,1920,2100
714343,51108,18640,51376,18608,491,248,505,98,-60,-184,178,3800,53,38,787,1768,1888,2132,2264,2160,1888,1920,2100
715344,51188,18716,51441,18673,472,235,516,176,-55,450,337,4099,59,36,788,1768,1888,2132,2264,2160,1888,1920,2100
716345,51264,18772,51506,18738,509,496,528,216,-46,410,411,3478,46,43,788,1768,1888,2132,2264,2160,1888,1920,2100
717346,51336,18852,51571,18803,550,178,520,190,-49,18,773,3490,59,36,785,1768,1888,2132,2264,2160,1888,1920,2100
718347,51416,18912,51636,18868,432,434,495,144,-41,-510,796,3246,54,49,788,1791,1903,2157,2315,2251,1965,1983,2135
719348,51492,18984,51701,18933,469,275,445,121,-30,-475,1051,3493,58,45,787,1791,1903,2157,2315,2251,1965,1983,2135
720349,51540,19032,51766,18998,839,596,381,99,-45,-269,1431,3408,48,35,787,1791,1903,2157,2315,2251,1965,1983,2135
721350,51616,19092,51831,19063,477,452,309,76,-65,-504,1507,3425,51,40,784,1791,1903,2157,2315,2251,1965,1983,2135
722351,51684,19172,51896,19128,573,184,248,54,-83,-458,1584,3873,47,37,787,1791,1903,2157,2315,2251,1965,1983,2135
723352,51736,19240,51961,19193,789,330,175,20,-94,-402,1520,3610,52,43,787,1791,1903,2157,2315,2251,1965,1983,2135
724353,51812,19288,52026,19258,476,601,117,11,-112,-253,1419,4013,50,38,786,1766,1860,2090,2260,2122,1853,1884,2022
725354,51872,19348,52091,19323,682,457,70,29,-126,-133,1238,3803,43,47,786,1766,1860,2090,2260,2122,1853,1884,2022
726355,51932,19432,52156,19388,688,134,28,56,-140,46,1031,4094,39,46,786,1766,1860,2090,2260,2122,1853,1884,2022
727356,52008,19508,52221,19453,475,220,-18,81,-161,16,961,4218,47,47,787,1766,1860,2090,2260,2122,1853,1884,2022
728357,52068,19572,52286,19518,681,372,-60,123,-157,20,834,4034,56,41,788,1766,1860,2090,2260,2122,1853,1884,2022
729358,52124,19640,52351,19583,742,318,-81,169,-142,325,601,4209,52,43,786,1730,1820,2051,2203,2065,1813,1839,1998
730359,52176,19700,52416,19648,807,424,-90,199,-133,232,536,4011,43,34,786,1730,1820,2051,2203,2065,1813,1839,1998
731360,52228,19760,52481,19713,823,430,-93,236,-126,-41,429,4371,57,35,785,1730,1820,2051,2203,2065,1813,1839,1998
732361,52300,19804,52546,19778,565,656,-90,285,-117,-114,560,4122,56,37,785,1730,1820,2051,2203,2065,1813,1839,1998
733362,52364,19876,52611,19843,667,297,-81,305,-123,-38,657,4067,41,34,785,1730,1820,2051,2203,2065,1813,1839,1998
734363,52428,19936,52676,19908,668,453,-76,300,-112,-202,399,3949,48,44,785,1730,1820,2051,2203,2065,1813,1839,1998
735364,52488,19976,52741,19973,724,734,-79,263,-95,-390,604,3599,39,48,785,1743,1845,2085,2242,2073,1821,1847,1999
736365,52556,20056,52806,20038,621,216,-86,208,-78,-544,760,3362,43,39,783,1743,1845,2085,2242,2073,1821,1847,1999
737366,52608,20132,52871,20103,837,252,-114,146,-79,-586,906,3125,38,48,787,1743,1845,2085,2242,2073,1821,1847,1999
738367,52680,20168,52936,20168,578,788,-144,102,-76,-580,985,3094,38,36,786,1743,1845,2085,2242,2073,1821,1847,1999
739368,52728,20244,53001,20233,899,274,-189,63,-65,-405,1195,3022,53,32,784,1743,1845,2085,2242,2073,1821,1847,1999
740369,52784,20300,53066,20298,810,535,-225,62,-64,-235,1210,3218,54,47,785,1814,1899,2131,2337,2087,1829,1879,2007
741370,52836,20356,53131,20363,876,546,-263,61,-68,-47,1365,3171,46,32,785,1814,1899,2131,2337,2087,1829,1879,2007
742371,52908,20408,53196,20428,617,612,-276,80,-84,80,1336,3437,36,47,783,1814,1899,2131,2337,2087,1829,1879,2007
743372,52976,20480,53261,20493,664,353,-289,100,-93,177,1340,3569,50,32,785,1814,1899,2131,2337,2087,1829,1879,2007
744373,53036,20524,53326,20558,771,729,-286,124,-111,301,1279,3694,50,42,786,1814,1899,2131,2337,2087,1829,1879,2007
745374,53088,20592,53391,20623,886,425,-275,152,-118,345,1069,3902,39,35,783,1814,1899,2131,2337,2087,1829,1879,2007
746375,53156,20660,53456,20688,683,422,-255,162,-117,261,1012,3906,38,35,784,1828,1916,2124,2300,2066,1814,1865,1999
747376,53188,20716,53521,20753,1173,583,-216,160,-115,99,870,4037,41,33,786,1828,1916,2124,2300,2066,1814,1865,1999
748377,53268,20760,53586,20818,555,758,-180,143,-115,118,707,4109,37,31,782,1828,1916,2124,2300,2066,1814,1865,1999
749378,53332,20820,53651,20883,756,564,-136,113,-108,96,572,4254,37,49,784,1828,1916,2124,2300,2066,1814,1865,1999
750379,53376,20884,53716,20948,1032,516,-106,63,-91,32,483,4218,51,36,784,1828,1916,2124,2300,2066,1814,1865,1999
751380,53436,20936,53781,21013,838,681,-67,25,-83,-68,320,4343,36,41,781,1776,1866,2088,2282,2028,1752,1800,1930
752381,53488,21000,53846,21078,955,533,-46,-15,-70,57,347,4242,49,46,783,1776,1866,2088,2282,2028,1752,1800,1930
753382,53556,21064,53911,21143,751,534,-32,-38,-45,74,288,4311,39,34,783,1776,1866,2088,2282,2028,1752,1800,1930
754383,53604,21136,53976,21208,1022,425,-30,-44,-29,127,385,4315,52,45,785,1776,1866,2088,2282,2028,1752,1800,1930
755384,53656,21188,54041,21273,987,691,-34,-10,-17,130,342,4229,43,46,783,1776,1866,2088,2282,2028,1752,1800,1930
756385,53720,21256,54106,21338,839,488,-42,2,-1,311,380,4122,36,37,781,1776,1866,2088,2282,2028,1752,1800,1930
757386,53768,21324,54171,21403,1059,484,-56,17,14,210,425,4256,40,35,784,1855,1951,2175,2379,2063,1823,1869,2004
758387,53832,21360,54236,21468,861,919,-69,25,27,212,464,4015,39,44,782,1855,1951,2175,2379,2063,1823,1869,2004
759388,53888,21408,54301,21533,973,790,-79,23,26,333,466,3945,47,44,781,1855,1951,2175,2379,2063,1823,1869,2004
760389,53948,21468,54366,21598,929,646,-78,5,24,313,494,3892,42,46,781,1855,1951,2175,2379,2063,1823,1869,2004
761390,53992,21544,54431,21663,1154,433,-73,-15,32,316,459,3759,48,47,782,1855,1951,2175,2379,2063,1823,1869,2004
762391,54044,21588,54496,21728,1070,858,-61,-42,40,429,462,3895,38,34,782,1860,1952,2167,2360,2076,1831,1885,2022
763392,54108,21636,54561,21793,921,829,-41,-47,45,432,484,4025,48,36,780,1860,1952,2167,2360,2076,1831,1885,2022
764393,54156,21708,54626,21858,1142,522,-15,-54,42,466,543,3886,42,41,781,1860,1952,2167,2360,2076,1831,1885,2022
765394,54232,21764,54691,21923,780,733,15,-44,41,583,386,4007,45,49,782,1860,1952,2167,2360,2076,1831,1885,2022
766395,54284,21828,54756,21988,1096,634,41,-49,36,907,514,3942,58,48,782,1860,1952,2167,2360,2076,1831,1885,2022
767396,54352,21896,54821,22053,892,580,65,-37,41,744,454,4144,42,41,781,1860,1952,2167,2360,2076,1831,1885,2022
768397,54420,21956,54886,22118,888,686,89,-20,35,653,280,4180,42,41,781,1837,1931,2145,2337,2103,1844,1888,2018
769398,54476,22032,54951,22183,1049,473,130,-5,46,577,139,4340,41,49,782,1837,1931,2145,2337,2103,1844,1888,2018
770399,54552,22076,55016,22248,786,898,158,15,59,710,168,4466,48,47,782,1837,1931,2145,2337,2103,1844,1888,2018
771400,54616,22156,55081,22313,938,430,183,40,68,856,144,4451,40,36,781,1837,1931,2145,2337,2103,1844,1888,2018
772401,54680,22216,55146,22378,939,686,185,57,75,735,80,4467,42,37,784,1837,1931,2145,2337,2103,1844,1888,2018
773402,54732,22264,55211,22443,1105,857,189,42,90,491,96,4474,41,50,782,1813,1906,2120,2314,2054,1799,1843,1974
774403,54820,22320,55276,22508,627,768,186,42,110,437,-19,4497,56,48,779,1813,1906,2120,2314,2054,1799,1843,1974
775404,54876,22392,55341,22573,1038,559,193,38,125,580,-26,4598,58,51,783,1813,1906,2120,2314,2054,1799,1843,1974
776405,54916,22460,55406,22638,1270,606,189,28,137,437,-50,4454,52,40,782,1813,1906,2120,2314,2054,1799,1843,1974
777406,54980,22524,55471,22703,971,657,182,12,161,419,125,4549,48,36,780,1813,1906,2120,2314,2054,1799,1843,1974
778407,55052,22596,55536,22768,862,548,167,13,181,530,162,4457,52,51,781,1813,1906,2120,2314,2054,1799,1843,1974
779408,55108,22660,55601,22833,1073,650,145,34,179,723,34,4541,45,35,783,1792,1884,2114,2312,2036,1796,1844,1967
780409,55168,22744,55666,22898,1029,376,145,66,169,667,78,4383,46,36,781,1792,1884,2114,2312,2036,1796,1844,1967
781410,55228,22800,55731,22963,1036,738,153,75,169,666,-37,4191,40,42,783,1792,1884,2114,2312,2036,1796,1844,1967
782411,55276,22856,55796,23028,1207,749,172,87,160,845,-82,4290,44,49,781,1792,1884,2114,2312,2036,1796,1844,1967
783412,55336,22912,55861,23093,1063,760,183,115,139,735,54,4077,40,38,779,1792,1884,2114,2312,2036,1796,1844,1967
784413,55400,22992,55926,23158,1015,442,189,164,120,876,95,3909,54,35,780,1822,1917,2123,2335,2083,1831,1881,1999
785414,55460,23056,55991,23223,1071,643,185,202,93,985,98,3928,56,50,782,1822,1917,2123,2335,2083,1831,1881,1999
786415,55520,23112,56056,23288,1077,754,184,219,65,782,165,3740,49,39,781,1822,1917,2123,2335,2083,1831,1881,1999
787416,55576,23184,56121,23353,1139,546,189,238,47,676,162,3787,42,41,780,1822,1917,2123,2335,2083,1831,1881,1999
788417,55640,23220,56186,23418,1040,1031,200,234,35,582,257,3776,42,47,781,1822,1917,2123,2335,2083,1831,1881,1999
789418,55684,23288,56251,23483,1316,628,215,232,31,609,88,3742,54,46,779,1822,1917,2123,2335,2083,1831,1881,1999
790419,55736,23344,56316,23548,1232,789,257,226,51,959,-40,3764,56,36,780,1804,1900,2112,2304,2068,1816,1872,1992
791420,55800,23420,56381,23613,1083,525,299,190,80,398,171,3890,58,51,779,1804,1900,2112,2304,2068,1816,1872,1992
792421,55860,23480,56446,23678,1140,731,347,211,129,17,275,3857,59,40,782,1804,1900,2112,2304,2068,1816,1872,1992
793422,55904,23532,56511,23743,1365,847,371,269,173,576,359,4325,47,49,780,1804,1900,2112,2304,2068,1816,1872,1992
794423,55976,23592,56576,23808,1007,753,377,289,218,417,151,4123,51,40,777,1804,1900,2112,2304,2068,1816,1872,1992
795424,56048,23656,56641,23873,998,705,391,199,259,69,199,3930,60,48,780,1816,1934,2160,2320,2048,1824,1872,1983
796425,56112,23732,56706,23938,1101,542,396,67,288,140,247,4071,50,47,781,1816,1934,2160,2320,2048,1824,1872,1983
797426,56168,23780,56771,24003,1212,913,406,-8,299,680,251,4243,43,48,781,1816,1934,2160,2320,2048,1824,1872,1983
798427,56220,23868,56836,24068,1277,385,399,16,305,787,265,4392,42,52,778,1816,1934,2160,2320,2048,1824,1872,1983
799428,56256,23924,56901,24133,1513,796,381,103,300,1009,282,4385,53,40,781,1816,1934,2160,2320,2048,1824,1872,1983
800429,56332,23992,56966,24198,1000,642,373,100,289,716,244,3976,55,45,776,1816,1934,2160,2320,2048,1824,1872,1983
801430,56384,24052,57031,24263,1316,748,359,95,276,840,372,4165,55,44,781,1823,1919,2135,2319,2015,1767,1839,1975
802431,56440,24120,57096,24328,1277,644,359,107,247,771,211,3879,49,47,777,1823,1919,2135,2319,2015,1767,1839,1975
803432,56496,24196,57161,24393,1288,531,363,145,221,1026,190,4025,59,42,779,1823,1919,2135,2319,2015,1767,1839,1975
804433,56556,24284,57226,24458,1245,353,381,202,206,1006,172,3872,49,45,780,1823,1919,2135,2319,2015,1767,1839,1975
805434,56604,24356,57291,24523,1416,544,401,242,215,695,160,3695,51,49,781,1823,1919,2135,2319,2015,1767,1839,1975
806435,56660,24412,57356,24588,1327,755,433,255,221,324,288,3756,41,53,779,1828,1919,2131,2312,2059,1809,1867,2020
807436,56708,24484,57421,24653,1448,547,467,254,232,95,242,3449,57,52,778,1828,1919,2131,2312,2059,1809,1867,2020
808437,56772,24552,57486,24718,1250,593,508,233,258,213,230,3376,56,53,779,1828,1919,2131,2312,2059,1809,1867,2020
809438,56840,24608,57551,24783,1196,755,548,182,296,55,410,3314,45,45,779,1828,1919,2131,2312,2059,1809,1867,2020
810439,56888,24672,57616,24848,1467,656,571,164,329,-211,355,3367,43,51,779,1828,1919,2131,2312,2059,1809,1867,2020
811440,56956,24744,57681,24913,1214,548,592,154,369,-92,446,3387,42,51,778,1828,1919,2131,2312,2059,1809,1867,2020
812441,57016,24820,57746,24978,1321,484,601,159,413,-130,581,3682,60,52,780,1821,1920,2144,2336,2090,1839,1871,1992
813442,57084,24864,57811,25043,1217,910,610,170,441,-19,556,3691,51,37,780,1821,1920,2144,2336,2090,1839,1871,1992
814443,57120,24936,57876,25108,1652,551,605,146,480,321,543,3499,59,48,778,1821,1920,2144,2336,2090,1839,1871,1992
815444,57192,24996,57941,25173,1194,708,607,117,511,373,676,3865,47,39,777,1821,1920,2144,2336,2090,1839,1871,1992
816445,57264,25068,58006,25238,1186,549,596,126,530,264,685,3958,61,49,780,1821,1920,2144,2336,2090,1839,1871,1992
817446,57320,25124,58071,25303,1397,760,596,142,540,287,696,4157,59,50,780,1800,1887,2101,2283,2004,1773,1816,1928
818447,57376,25164,58136,25368,1408,991,590,162,545,394,644,4288,42,46,777,1800,1887,2101,2283,2004,1773,1816,1928
819448,57440,25220,58201,25433,1310,802,597,203,539,474,478,4323,59,38,774,1800,1887,2101,2283,2004,1773,1816,1928
820449,57500,25288,58266,25498,1367,648,590,217,524,766,343,4300,45,55,777,1800,1887,2101,2283,2004,1773,1816,1928
821450,57556,25352,58331,25563,1428,699,605,220,488,994,380,4302,48,39,778,1800,1887,2101,2283,2004,1773,1816,1928
822451,57612,25432,58396,25628,1439,481,602,227,467,590,210,4319,49,42,778,1800,1887,2101,2283,2004,1773,1816,1928
823452,57672,25488,58461,25693,1396,792,618,245,438,511,405,4213,52,38,779,1756,1831,2031,2209,1979,1748,1795,1928
824453,57732,25548,58526,25758,1402,749,623,268,409,320,315,4231,42,46,777,1756,1831,2031,2209,1979,1748,1795,1928
825454,57792,25612,58591,25823,1408,700,627,289,396,373,318,4035,56,49,777,1756,1831,2031,2209,1979,1748,1795,1928
826455,57852,25684,58656,25888,1415,592,632,310,393,487,326,3775,44,46,778,1756,1831,2031,2209,1979,1748,1795,1928
827456,57900,25744,58721,25953,1586,748,630,302,389,213,374,3680,52,39,778,1756,1831,2031,2209,1979,1748,1795,1928
828457,57968,25808,58786,26018,1332,699,621,279,393,-184,405,3467,53,48,775,1776,1856,2080,2264,2048,1792,1856,2000
829458,58032,25876,58851,26083,1384,645,612,262,391,-133,437,3531,51,42,778,1776,1856,2080,2264,2048,1792,1856,2000
830459,58080,25944,58916,26148,1605,642,600,240,409,-9,452,3257,57,39,778,1776,1856,2080,2264,2048,1792,1856,2000
831460,58128,26004,58981,26213,1626,748,580,227,424,30,611,3384,45,41,777,1776,1856,2080,2264,2048,1792,1856,2000
832461,58172,26068,59046,26278,1702,699,564,227,443,-113,576,3395,49,54,776,1776,1856,2080,2264,2048,1792,1856,2000
833462,58260,26140,59111,26343,1124,590,551,231,466,-84,689,3386,47,48,776,1776,1856,2080,2264,2048,1792,1856,2000
834463,58300,26208,59176,26408,1755,637,546,205,469,93,856,3522,62,58,780,1830,1938,2176,2352,2120,1856,1904,2048
835464,58364,26264,59241,26473,1457,798,530,197,494,-13,662,3601,54,53,775,1830,1938,2176,2352,2120,1856,1904,2048
836465,58412,26340,59306,26538,1678,534,528,200,508,202,826,3936,58,43,776,1830,1938,2176,2352,2120,1856,1904,2048
837466,58472,26412,59371,26603,1534,577,521,213,500,264,793,4072,55,42,776,1830,1938,2176,2352,2120,1856,1904,2048
838467,58528,26472,59436,26668,1596,733,530,227,483,404,677,4214,48,54,777,1830,1938,2176,2352,2120,1856,1904,2048
839468,58584,26556,59501,26733,1607,410,527,231,470,505,710,4476,45,44,776,1847,1943,2168,2335,2135,1871,1903,2047
840469,58648,26628,59566,26798,1508,551,545,227,440,530,648,4451,63,42,778,1847,1943,2168,2335,2135,1871,1903,2047
841470,58720,26688,59631,26863,1401,707,552,244,415,435,538,4720,61,57,778,1847,1943,2168,2335,2135,1871,1903,2047
842471,58780,26772,59696,26928,1557,384,553,256,382,491,697,4730,46,44,778,1847,1943,2168,2335,2135,1871,1903,2047
843472,58844,26820,59761,26993,1508,855,564,256,350,556,597,4723,47,54,778,1847,1943,2168,2335,2135,1871,1903,2047
844473,58900,26908,59826,27058,1620,327,560,235,330,368,485,4598,53,52,775,1847,1943,2168,2335,2135,1871,1903,2047
845474,58944,26968,59891,27123,1796,683,559,217,292,272,678,4608,53,44,777,1752,1845,2065,2236,2037,1794,1833,1967
846475,59008,27036,59956,27188,1547,579,533,181,288,-30,427,4327,54,57,774,1752,1845,2065,2236,2037,1794,1833,1967
847476,59056,27108,60021,27253,1768,521,514,167,258,167,676,4302,44,49,777,1752,1845,2065,2236,2037,1794,1833,1967
848477,59104,27196,60086,27318,1789,292,486,149,253,208,501,4033,43,55,775,1752,1845,2065,2236,2037,1794,1833,1967
849478,59160,27244,60151,27383,1700,813,458,134,256,197,691,3962,44,56,777,1752,1845,2065,2236,2037,1794,1833,1967
850479,59212,27324,60216,27448,1767,395,421,113,270,-160,594,3858,50,42,774,1785,1874,2118,2311,2062,1827,1866,2011
851480,59272,27396,60281,27513,1673,486,392,115,265,-12,820,3813,52,55,776,1785,1874,2118,2311,2062,1827,1866,2011
852481,59312,27448,60346,27578,1955,752,366,100,289,-56,634,3580,56,50,776,1785,1874,2118,2311,2062,1827,1866,2011
853482,59384,27528,60411,27643,1546,384,336,101,301,152,754,3807,44,40,771,1785,1874,2118,2311,2062,1827,1866,2011
854483,59436,27572,60476,27708,1812,860,323,124,311,31,704,3729,47,40,778,1785,1874,2118,2311,2062,1827,1866,2011
855484,59484,27632,60541,27773,1884,667,305,140,308,127,707,3753,47,46,772,1785,1874,2118,2311,2062,1827,1866,2011
856485,59520,27676,60606,27838,2069,892,298,141,310,104,635,3781,43,50,772,1840,1948,2186,2355,2097,1856,1916,2064
857486,59580,27736,60671,27903,1776,698,300,145,297,238,692,3906,50,36,770,1840,1948,2186,2355,2097,1856,1916,2064
858487,59644,27808,60736,27968,1728,540,308,149,288,216,677,4010,57,55,774,1840,1948,2186,2355,2097,1856,1916,2064
859488,59696,27872,60801,28033,1893,641,318,177,253,371,806,4314,46,52,775,1840,1948,2186,2355,2097,1856,1916,2064
860489,59752,27908,60866,28098,1855,1026,331,215,210,371,797,4370,45,38,773,1840,1948,2186,2355,2097,1856,1916,2064
861490,59808,27984,60931,28163,1866,513,350,241,175,372,781,4521,41,43,771,1785,1865,2088,2272,2092,1827,1859,1984
862491,59848,28040,60996,28228,2098,774,364,250,143,317,883,4625,47,52,774,1785,1865,2088,2272,2092,1827,1859,1984
863492,59928,28084,61061,28293,1580,950,368,262,110,238,839,4532,43,40,770,1785,1865,2088,2272,2092,1827,1859,1984
864493,59976,28152,61126,28358,2000,646,361,253,81,201,849,4481,57,53,773,1785,1865,2088,2272,2092,1827,1859,1984
865494,60028,28216,61191,28423,1967,697,350,239,63,154,869,4461,45,52,772,1785,1865,2088,2272,2092,1827,1859,1984
866495,60088,28276,61256,28488,1873,753,327,240,52,149,865,4463,39,55,771,1785,1865,2088,2272,2092,1827,1859,1984
867496,60136,28340,61321,28553,2045,705,300,221,45,149,879,4354,47,49,772,1761,1858,2064,2236,2000,1760,1833,1954
868497,60200,28416,61386,28618,1846,541,277,198,32,173,901,4334,58,52,771,1761,1858,2064,2236,2000,1760,1833,1954
869498,60252,28496,61451,28683,2013,473,253,183,26,110,830,4319,58,49,774,1761,1858,2064,2236,2000,1760,1833,1954
870499,60304,28556,61516,28748,2029,730,226,185,22,129,775,4188,40,59,771,1761,1858,2064,2236,2000,1760,1833,1954
871500,60364,28632,61581,28813,1936,516,222,195,36,219,766,4161,56,58,770,1761,1858,2064,2236,2000,1760,1833,1954
872501,60408,28708,61646,28878,2162,503,198,211,42,341,746,4056,41,52,773,1764,1862,2098,2303,2055,1819,1860,1989
873502,60468,28780,61711,28943,1969,544,192,207,54,183,631,3743,50,47,771,1764,1862,2098,2303,2055,1819,1860,1989
874503,60520,28852,61776,29008,2085,536,176,182,70,319,615,3726,46,46,772,1764,1862,2098,2303,2055,1819,1860,1989
875504,60588,28916,61841,29073,1882,637,178,184,69,359,690,3715,45,43,772,1764,1862,2098,2303,2055,1819,1860,1989
876507,60636,28988,61906,29138,2153,529,174,189,59,240,711,3587,48,59,773,1764,1862,2098,2303,2055,1819,1860,1989
877506,60684,29052,61971,29203,2174,630,176,200,48,411,653,3731,42,43,771,1764,1862,2098,2303,2055,1819,1860,1989
878507,60744,29116,62036,29268,2031,631,178,218,30,601,756,3752,54,48,770,1833,1928,2186,2368,2120,1872,1928,2068
879508,60800,29176,62101,29333,2092,687,189,240,1,539,800,3739,43,48,772,1833,1928,2186,2368,2120,1872,1928,2068
880509,60844,29244,62166,29398,2268,583,186,256,-27,470,817,3842,59,47,770,1833,1928,2186,2368,2120,1872,1928,2068
881510,60904,29300,62231,29463,2074,744,183,280,-60,426,833,3857,47,54,769,1833,1928,2186,2368,2120,1872,1928,2068
882511,60976,29352,62296,29528,1917,810,179,290,-99,424,1102,3934,56,51,770,1833,1928,2186,2368,2120,1872,1928,2068
883512,61032,29432,62361,29593,2128,442,167,297,-121,130,907,4078,50,59,771,1845,1947,2175,2347,2107,1853,1887,2015
884513,61084,29492,62426,29658,2195,698,153,293,-149,379,1042,4087,47,54,771,1845,1947,2175,2347,2107,1853,1887,2015
885514,61132,29564,62491,29723,2265,540,139,298,-159,303,967,4193,42,62,769,1845,1947,2175,2347,2107,1853,1887,2015
886515,61208,29628,62556,29788,1903,641,118,311,-185,408,1069,4308,58,52,770,1845,1947,2175,2347,2107,1853,1887,2015
887516,61256,29692,62621,29853,2274,643,109,338,-189,286,988,4359,51,62,772,1845,1947,2175,2347,2107,1853,1887,2015
888517,61332,29752,62686,29918,1911,699,96,360,-196,337,1188,4601,44,45,769,1845,1947,2175,2347,2107,1853,1887,2015
889518,61372,29836,62751,29983,2393,376,93,401,-188,207,944,4510,49,59,772,1768,1855,2067,2230,2020,1780,1819,1945
890519,61436,29888,62816,30048,2094,792,89,422,-175,450,1047,4542,47,54,769,1768,1855,2067,2230,2020,1780,1819,1945
891520,61492,29964,62881,30113,2206,478,87,445,-160,449,794,4411,56,60,769,1768,1855,2067,2230,2020,1780,1819,1945
892521,61556,30032,62946,30178,2107,575,82,450,-159,473,852,4350,61,50,770,1768,1855,2067,2230,2020,1780,1819,1945
893522,61624,30088,63011,30243,2055,736,84,465,-158,403,825,4244,59,47,771,1768,1855,2067,2230,2020,1780,1819,1945
894523,61684,30160,63076,30308,2161,527,76,459,-149,518,836,4165,53,44,770,1736,1823,2050,2233,2024,1804,1833,1972
895524,61728,30228,63141,30373,2387,574,82,486,-143,425,748,4036,58,60,770,1736,1823,2050,2233,2024,1804,1833,1972
896525,61804,30292,63206,30438,1974,625,91,497,-144,694,882,4014,50,56,767,1736,1823,2050,2233,2024,1804,1833,1972
897526,61852,30360,63271,30503,2346,571,100,516,-135,779,746,3794,50,48,771,1736,1823,2050,2233,2024,1804,1833,1972
898527,61912,30420,63336,30568,2202,677,100,497,-142,804,942,3523,40,52,768,1736,1823,2050,2233,2024,1804,1833,1972
899528,61964,30476,63401,30633,2319,738,95,495,-154,597,903,3645,51,55,769,1736,1823,2050,2233,2024,1804,1833,1972
900529,62004,30540,63466,30698,2499,639,78,523,-187,495,1023,3687,41,49,767,1772,1871,2112,2304,2080,1844,1843,1984
901530,62060,30616,63531,30763,2311,476,59,563,-213,708,972,3642,52,60,766,1772,1871,2112,2304,2080,1844,1843,1984
902531,62112,30680,63596,30828,2377,627,37,590,-238,787,1081,3507,47,60,769,1772,1871,2112,2304,2080,1844,1843,1984
903532,62164,30740,63661,30893,2394,683,6,592,-259,554,1033,3555,40,51,767,1772,1871,2112,2304,2080,1844,1843,1984
904533,62220,30804,63726,30958,2356,634,-19,598,-284,540,1104,3661,52,61,766,1772,1871,2112,2304,2080,1844,1843,1984
905534,62300,30876,63791,31023,2038,527,-44,582,-295,464,1250,3764,50,55,767,1830,1922,2163,2356,2091,1833,1861,1991
906535,62352,30924,63856,31088,2404,848,-69,586,-319,331,1164,3924,47,57,771,1830,1922,2163,2356,2091,1833,1861,1991
907536,62416,30992,63921,31153,2256,594,-83,601,-326,452,1102,4020,61,45,765,1830,1922,2163,2356,2091,1833,1861,1991
908537,62472,31060,63986,31218,2368,590,-90,627,-318,547,1099,4218,48,52,769,1830,1922,2163,2356,2091,1833,1861,1991
909538,62536,31116,64051,31283,2269,751,-92,670,-314,445,1036,4420,54,53,767,1830,1922,2163,2356,2091,1833,1861,1991
910539,62600,31200,64116,31348,2271,378,-91,715,-305,513,1031,4472,56,57,768,1781,1878,2088,2243,2044,1793,1831,1969
911540,62684,31248,64181,31413,1999,849,-77,746,-309,666,1056,4457,54,60,771,1781,1878,2088,2243,2044,1793,1831,1969
912541,62744,31328,64246,31478,2305,431,-76,769,-290,396,891,4390,52,52,770,1781,1878,2088,2243,2044,1793,1831,1969
913542,62808,31408,64311,31543,2257,412,-57,794,-287,530,1069,4421,55,56,769,1781,1878,2088,2243,2044,1793,1831,1969
914543,62900,31460,64376,31608,1874,778,-55,803,-280,478,892,4298,63,50,770,1781,1878,2088,2243,2044,1793,1831,1969
915544,62968,31524,64441,31673,2172,629,-47,821,-277,548,1126,4172,62,57,772,1781,1878,2088,2243,2044,1793,1831,1969
916545,63020,31600,64506,31738,2387,466,-30,816,-285,465,1336,4084,54,55,770,1739,1856,2088,2237,2059,1811,1850,1994
917546,63092,31656,64571,31803,2130,727,-31,812,-292,398,1115,3965,47,53,768,1739,1856,2088,2237,2059,1811,1850,1994
918547,63156,31728,64636,31868,2232,518,-37,802,-315,620,1361,3771,59,48,770,1739,1856,2088,2237,2059,1811,1850,1994
919548,63220,31808,64701,31933,2233,400,-36,777,-332,493,1429,3578,47,61,770,1739,1856,2088,2237,2059,1811,1850,1994
920549,63280,31852,64766,31998,2290,876,-53,746,-361,496,1376,3452,54,49,771,1739,1856,2088,2237,2059,1811,1850,1994
921550,63344,31924,64831,32063,2242,517,-69,735,-393,495,1381,3251,59,53,765,1815,1919,2175,2367,2111,1875,1910,2047
922551,63404,31988,64896,32128,2299,618,-88,705,-414,572,1399,3281,59,63,769,1815,1919,2175,2367,2111,1875,1910,2047
923552,63472,32052,64961,32193,2195,621,-108,727,-439,634,1226,3422,55,57,768,1815,1919,2175,2367,2111,1875,1910,2047
924553,63520,32108,65026,32258,2467,732,-122,736,-455,619,1294,3251,50,57,769,1815,1919,2175,2367,2111,1875,1910,2047
925554,63580,32172,65091,32323,2324,633,-146,735,-471,592,1353,3544,44,59,765,1815,1919,2175,2367,2111,1875,1910,2047
926556,63636,32244,65156,32388,2385,524,-160,759,-484,529,1154,3547,54,56,767,1815,1919,2175,2367,2111,1875,1910,2047
927556,63716,32316,65221,32453,2068,516,-166,756,-499,748,1210,3513,46,63,768,1811,1903,2144,2320,2052,1801,1824,1968
928557,63784,32380,65286,32518,2214,617,-170,765,-505,466,1050,3790,48,55,771,1811,1903,2144,2320,2052,1801,1824,1968
929558,63840,32448,65351,32583,2376,563,-180,776,-506,493,1043,3922,58,48,769,1811,1903,2144,2320,2052,1801,1824,1968
930559,63920,32508,65416,32648,2058,669,-175,785,-505,359,1004,3910,49,48,768,1811,1903,2144,2320,2052,1801,1824,1968
931560,63992,32576,65481,32713,2150,566,-176,795,-511,297,1138,4189,50,52,770,1811,1903,2144,2320,2052,1801,1824,1968
932561,64052,32628,65546,32778,2307,782,-161,814,-520,307,1179,4161,66,54,770,1763,1862,2084,2239,2001,1760,1797,1940
933562,64136,32676,65611,32843,1984,852,-152,807,-512,186,1178,4117,63,50,767,1763,1862,2084,2239,2001,1760,1797,1940
934563,64204,32752,65676,32908,2181,489,-147,802,-512,176,1210,4140,51,64,771,1763,1862,2084,2239,2001,1760,1797,1940
935564,64276,32828,65741,32973,2123,476,-154,810,-525,189,1255,4111,63,51,771,1763,1862,2084,2239,2001,1760,1797,1940
936565,64340,32888,65806,33038,2225,682,-165,802,-541,347,1358,4007,49,50,772,1763,1862,2084,2239,2001,1760,1797,1940
937566,64416,32956,65871,33103,2062,578,-172,803,-574,76,1480,3931,53,52,769,1763,1862,2084,2239,2001,1760,1797,1940
938567,64484,33036,65936,33168,2159,410,-181,793,-596,15,1457,3808,47,62,769,1704,1824,2047,2195,2003,1772,1816,1956
939568,64548,33104,66001,33233,2210,556,-194,808,-617,322,1568,3735,64,50,771,1704,1824,2047,2195,2003,1772,1816,1956
940569,64616,33176,66066,33298,2158,497,-199,797,-636,334,1536,3573,56,51,770,1704,1824,2047,2195,2003,1772,1816,1956
941570,64680,33248,66131,33363,2210,489,-205,803,-642,312,1519,3516,62,52,771,1704,1824,2047,2195,2003,1772,1816,1956
942571,64764,33332,66196,33428,1937,316,-200,787,-675,273,1566,3487,63,51,770,1704,1824,2047,2195,2003,1772,1816,1956
943572,64812,33388,66261,33493,2408,678,-212,793,-683,116,1301,3448,62,50,774,1736,1856,2096,2272,2064,1816,1856,2008
944573,64900,33456,66326,33558,1880,524,-217,789,-699,496,1353,3418,62,60,767,1736,1856,2096,2272,2064,1816,1856,2008
945574,64964,33524,66391,33623,2182,520,-221,799,-718,443,1149,3471,56,62,773,1736,1856,2096,2272,2064,1816,1856,2008
946575,65036,33596,66456,33688,2074,462,-232,787,-729,586,1052,3415,64,48,771,1736,1856,2096,2272,2064,1816,1856,2008
947576,65104,33652,66521,33753,2121,673,-230,778,-750,482,1124,3500,52,53,771,1736,1856,2096,2272,2064,1816,1856,2008
948577,65188,33744,66586,33818,1898,190,-239,772,-760,246,880,3482,62,62,770,1736,1856,2096,2272,2064,1816,1856,2008
949578,65264,33816,66651,33883,1986,431,-249,777,-763,379,1020,3538,57,52,775,1789,1886,2144,2311,2083,1829,1860,2005
950579,65340,33880,66850,34082,2136,696,-253,772,-774,393,1079,3565,60,53,774,1789,1886,2144,2311,2083,1829,1860,2005
951580,65432,33956,66915,34147,1904,533,-264,770,-760,2,1047,3643,68,50,770,1789,1886,2144,2311,2083,1829,1860,2005
952581,65500,34020,66980,34212,2201,684,-283,776,-752,94,987,3750,61,61,773,1789,1886,2144,2311,2083,1829,1860,2005
953582,65592,34116,67045,34277,1868,246,-307,782,-736,141,1014,3810,54,56,770,1789,1886,2144,2311,2083,1829,1860,2005
954583,65668,34208,67110,34342,2056,263,-328,744,-760,241,1492,3716,55,67,775,1786,1874,2113,2256,2029,1788,1823,1952
955584,65744,34276,67175,34407,2042,559,-361,693,-777,-298,1182,3637,65,56,773,1786,1874,2113,2256,2029,1788,1823,1952
956585,65824,34336,67240,34472,1975,666,-406,717,-781,-105,1146,4169,63,69,772,1786,1874,2113,2256,2029,1788,1823,1952
957586,65896,34432,67305,34537,2066,178,-445,739,-780,316,1223,3903,65,50,772,1786,1874,2113,2256,2029,1788,1823,1952
958587,65972,34512,67370,34602,2004,359,-460,733,-810,290,1554,3790,56,63,774,1786,1874,2113,2256,2029,1788,1823,1952
959588,66076,34608,67435,34667,1606,122,-471,698,-815,-371,1356,3588,67,64,774,1786,1874,2113,2256,2029,1788,1823,1952
960589,66140,34684,67500,34732,2109,358,-478,722,-818,-284,1128,3901,60,60,778,1753,1851,2096,2264,2090,1830,1849,2003
961590,66196,34772,67565,34797,2220,180,-496,789,-820,406,920,3873,60,52,772,1753,1851,2096,2264,2090,1830,1849,2003
962591,66292,34860,67630,34862,1683,152,-496,795,-833,635,1189,3361,66,67,773,1753,1851,2096,2264,2090,1830,1849,2003
963592,66380,34920,67695,34927,1755,508,-500,732,-868,-42,1281,3303,66,62,778,1753,1851,2096,2264,2090,1830,1849,2003
964593,66460,35020,67760,34992,1837,-35,-494,726,-886,-484,951,3353,57,53,775,1753,1851,2096,2264,2090,1830,1849,2003
965594,66544,35108,67825,35057,1764,87,-498,769,-883,195,852,3722,69,55,777,1759,1855,2087,2239,2103,1855,1887,2043
966595,66620,35184,67890,35122,1852,224,-486,798,-882,752,1071,3353,63,55,778,1759,1855,2087,2239,2103,1855,1887,2043
967596,66700,35244,67955,35187,1783,430,-464,766,-872,-33,1278,3107,54,60,776,1759,1855,2087,2239,2103,1855,1887,2043
968597,66776,35340,68020,35252,1821,-58,-453,708,-871,-411,1262,3256,63,57,777,1759,1855,2087,2239,2103,1855,1887,2043
969598,66864,35420,68085,35317,1643,124,-467,718,-859,-220,857,3432,60,58,777,1759,1855,2087,2239,2103,1855,1887,2043
970599,66940,35488,68150,35382,1781,270,-497,734,-838,475,970,3207,70,65,778,1759,1855,2087,2239,2103,1855,1887,2043
971600,67036,35576,68215,35447,1493,-8,-516,693,-854,403,1358,3225,61,54,777,1757,1860,2093,2251,2075,1818,1852,1991
972601,67112,35648,68280,35512,1730,183,-544,638,-865,-402,944,2941,61,59,778,1757,1860,2093,2251,2075,1818,1852,1991
973602,67212,35752,68345,35577,1388,-264,-576,640,-876,-308,923,3619,67,59,778,1757,1860,2093,2251,2075,1818,1852,1991
974603,67292,35836,68410,35642,1620,-37,-614,667,-871,340,811,3421,59,61,780,1757,1860,2093,2251,2075,1818,1852,1991
975604,67384,35932,68475,35707,1437,-225,-634,660,-871,245,1063,3410,69,52,780,1757,1860,2093,2251,2075,1818,1852,1991
976605,67468,36000,68540,35772,1514,121,-662,616,-872,-325,988,3238,73,61,780,1758,1858,2086,2246,2016,1776,1816,1951
977606,67560,36068,68605,35837,1382,118,-677,602,-885,-245,981,3538,56,62,780,1758,1858,2086,2246,2016,1776,1816,1951
978607,67648,36140,68670,35902,1404,59,-702,624,-876,-251,860,3734,73,63,781,1758,1858,2086,2246,2016,1776,1816,1951
979608,67748,36208,68735,35967,1212,104,-712,617,-887,208,1092,3286,66,54,781,1758,1858,2086,2246,2016,1776,1816,1951
980609,67828,36280,68800,36032,1444,46,-714,585,-896,-182,985,3418,59,55,782,1758,1858,2086,2246,2016,1776,1816,1951
981610,67900,36340,68865,36097,1535,202,-729,592,-899,-378,886,3566,62,60,781,1758,1858,2086,2246,2016,1776,1816,1951
982611,67988,36412,68930,36162,1308,43,-751,597,-908,-9,759,3407,60,47,780,1752,1844,2074,2229,2015,1763,1815,1967
983612,68088,36484,68995,36227,1116,35,-743,565,-938,-47,701,3308,61,51,782,1752,1844,2074,2229,2015,1763,1815,1967
984613,68168,36556,69060,36292,1347,26,-732,505,-958,-330,640,3364,58,58,783,1752,1844,2074,2229,2015,1763,1815,1967
985614,68260,36636,69125,36357,1165,-92,-705,506,-978,-287,537,3434,56,58,782,1752,1844,2074,2229,2015,1763,1815,1967
986615,68364,36708,69190,36422,968,-1,-708,525,-975,-114,701,3223,62,46,783,1752,1844,2074,2229,2015,1763,1815,1967
987616,68456,36784,69255,36487,1085,-64,-703,493,-977,-20,795,2980,63,44,785,1727,1839,2055,2221,2053,1787,1839,1999
988617,68540,36856,69320,36552,1163,-23,-694,480,-981,-311,745,3194,57,43,784,1727,1839,2055,2221,2053,1787,1839,1999
989618,68640,36920,69385,36617,920,78,-671,509,-967,-289,1093,3363,68,52,782,1727,1839,2055,2221,2053,1787,1839,1999
990619,68728,36980,69450,36682,1042,134,-669,508,-935,-271,881,2998,60,58,785,1727,1839,2055,2221,2053,1787,1839,1999
991620,68816,37060,69515,36747,1014,-135,-655,472,-915,-238,944,3110,53,55,783,1727,1839,2055,2221,2053,1787,1839,1999
992621,68916,37124,69580,36812,822,67,-663,421,-911,-566,939,2924,70,45,784,1727,1839,2055,2221,2053,1787,1839,1999
993622,69004,37204,69645,36877,944,-152,-664,379,-927,-335,900,3086,58,56,785,1746,1850,2064,2232,2046,1790,1836,1968
994623,69108,37280,69710,36942,696,-115,-692,350,-935,-271,651,2886,58,42,785,1746,1850,2064,2232,2046,1790,1836,1968
995624,69180,37348,69775,37007,1088,-19,-706,327,-964,149,786,3072,51,56,786,1746,1850,2064,2232,2046,1790,1836,1968
996625,69280,37408,69840,37072,696,87,-733,292,-981,-100,563,3080,59,39,785,1746,1850,2064,2232,2046,1790,1836,1968
997626,69364,37468,69905,37137,873,92,-739,308,-1008,19,505,3504,58,44,786,1746,1850,2064,2232,2046,1790,1836,1968
998627,69444,37540,69970,37202,905,-66,-752,315,-1007,-207,340,3077,57,50,786,1784,1886,2101,2240,2000,1783,1835,1940
999628,69532,37612,70035,37267,777,-75,-747,300,-1028,-127,578,3436,51,48,785,1784,1886,2101,2240,2000,1783,1835,1940
1000629,69620,37672,70100,37332,748,81,-735,290,-1023,-390,247,3030,59,53,786,1784,1886,2101,2240,2000,1783,1835,1940
1001630,69708,37756,70165,37397,721,-242,-714,298,-1027,-43,325,3482,54,56,786,1784,1886,2101,2240,2000,1783,1835,1940
1002631,69796,37824,70230,37462,693,-45,-710,301,-1041,-193,267,3370,51,51,786,1784,1886,2101,2240,2000,1783,1835,1940
1003632,69884,37892,70295,37527,665,-49,-701,301,-1060,-296,179,3221,62,56,787,1784,1886,2101,2240,2000,1783,1835,1940
1004633,69968,37952,70360,37592,692,56,-721,271,-1061,-297,115,3272,53,44,787,1777,1869,2086,2255,2019,1773,1834,1972
1005634,70044,38028,70425,37657,779,-157,-725,261,-1073,-458,228,3219,45,47,787,1777,1869,2086,2255,2019,1773,1834,1972
1006635,70132,38112,70490,37722,601,-281,-731,262,-1095,-173,404,3368,52,60,785,1777,1869,2086,2255,2019,1773,1834,1972
1007636,70220,38180,70555,37787,573,-84,-734,261,-1091,-552,232,3065,47,55,786,1777,1869,2086,2255,2019,1773,1834,1972
1008637,70316,38260,70620,37852,436,-253,-742,251,-1077,-649,347,3119,61,49,787,1777,1869,2086,2255,2019,1773,1834,1972
1009638,70380,38332,70685,37917,837,-161,-741,266,-1062,-509,341,3100,61,59,787,1760,1856,2066,2237,2020,1775,1832,1970
1010639,70468,38408,70750,37982,509,-225,-738,277,-1054,-355,515,3149,48,49,786,1760,1856,2066,2237,2020,1775,1832,1970
1011640,70572,38488,70815,38047,261,-294,-730,267,-1050,-471,325,2915,49,56,787,1760,1856,2066,2237,2020,1775,1832,1970
1012641,70648,38568,70880,38112,598,-312,-731,262,-1032,-441,171,3025,54,46,788,1760,1856,2066,2237,2020,1775,1832,1970
1013642,70748,38660,70945,38177,255,-495,-737,271,-1020,-368,108,2876,53,42,786,1760,1856,2066,2237,2020,1775,1832,1970
1014643,70824,38732,71010,38242,542,-254,-743,298,-1028,-70,200,3022,48,43,786,1760,1856,2066,2237,2020,1775,1832,1970
1015644,70900,38800,71075,38307,528,-207,-747,303,-1037,-191,266,2939,44,41,786,1753,1849,2057,2233,2046,1798,1850,1982
1016645,71020,38856,71140,38372,-89,-47,-741,290,-1023,-526,101,2792,59,43,787,1753,1849,2057,2233,2046,1798,1850,1982
1017646,71108,38928,71205,38437,283,-256,-733,292,-1021,-354,187,2964,63,54,787,1753,1849,2057,2233,2046,1798,1850,1982
1018647,71188,38988,71270,38502,365,-100,-704,340,-1029,-515,55,3244,53,52,788,1753,1849,2057,2233,2046,1798,1850,1982
1019648,71288,39044,71335,38567,73,-39,-726,347,-1025,-179,640,3162,57,43,788,1753,1849,2057,2233,2046,1798,1850,1982
1020649,71376,39108,71400,38632,195,-138,-759,282,-990,522,532,3006,47,42,790,1744,1838,2043,2215,2031,1781,1832,1966
1021650,71464,39172,71465,38697,167,-136,-779,233,-938,-352,-335,2997,45,41,789,1744,1838,2043,2215,2031,1781,1832,1966
1022651,71564,39252,71530,38762,-26,-356,-778,288,-955,-273,193,3697,58,54,789,1744,1838,2043,2215,2031,1781,1832,1966
1023652,71628,39328,71595,38827,425,-319,-791,292,-962,-53,-169,3129,57,43,787,1744,1838,2043,2215,2031,1781,1832,1966
1024653,71728,39400,71660,38892,-69,-278,-802,271,-971,-79,-362,3051,42,42,787,1744,1838,2043,2215,2031,1781,1832,1966
1025654,71808,39472,71725,38957,163,-286,-830,253,-970,-141,-285,2893,44,42,788,1744,1838,2043,2215,2031,1781,1832,1966
1026655,71896,39524,71790,39022,35,-20,-845,330,-970,54,-114,3398,45,41,788,1745,1835,2049,2219,2025,1771,1815,1959
1027656,71968,39596,71855,39087,227,-280,-854,401,-963,-291,-265,3122,52,42,790,1745,1835,2049,2219,2025,1771,1815,1959
1028657,72060,39668,71920,39152,-56,-288,-842,440,-965,-439,-393,3363,60,43,789,1745,1835,2049,2219,2025,1771,1815,1959
1029658,72144,39756,71985,39217,20,-516,-840,425,-930,-485,-383,3092,58,53,789,1745,1835,2049,2219,2025,1771,1815,1959
1030659,72240,39824,72050,39282,-167,-270,-828,407,-908,-328,-200,3199,49,44,787,1745,1835,2049,2219,2025,1771,1815,1959
1031660,72336,39892,72115,39347,-205,-274,-828,391,-889,-588,-289,3168,47,55,781,1746,1841,2053,2222,2039,1783,1836,1970
1032661,72408,39972,72180,39412,86,-443,-821,393,-881,-786,-241,3487,65,50,778,1746,1841,2053,2222,2039,1783,1836,1970
1033662,72508,40052,72245,39477,-307,-461,-806,357,-857,-537,-323,3324,65,57,787,1746,1841,2053,2222,2039,1783,1836,1970
