%  Data file recorded 2017/4/13  15:8:26
%  Stride Frequency         = [1, 1]
%  Lead In /Lead Out        = 
%  Deltas (Fractional)      = [0.25, 0.25, 0.25],[0.25, 0.25, 0.25]
%  Phase                    = 32768
%  Experiment.py 
%  Motor Gains    = [5000, 400, 200, 0, 300, 5000, 400, 200, 0, 300]
% Columns: 
% time | Right Leg Pos | Left Leg Pos | Commanded Right Leg Pos | Commanded Left Leg Pos | DCR | DCL | GyroX | GyroY | GyroZ | AX | AY | AZ | RBEMF | LBEMF | VBatt | S1 | S2 | S3 | S4 | S5 | S6 | S7 | S8
28,476288,575856,476910,575214,3800,-3800,-17,0,-3,111,181,3846,3,7,923,1853,1940,2155,2337,2198,1916,1976,2152
1029,476288,575856,476910,575214,3800,-3800,-15,-1,-1,123,181,3813,1,3,924,1853,1940,2155,2337,2198,1916,1976,2152
2030,476288,575848,476910,575214,3800,-3800,-16,-3,3,134,191,3824,-2,-4,923,1853,1940,2155,2337,2198,1916,1976,2152
3031,476296,575860,476910,575214,3800,-3800,-16,-1,1,120,203,3830,1,-6,923,1853,1942,2156,2336,2197,1916,1975,2150
4032,476284,575840,476910,575214,3800,-3800,-14,0,1,123,215,3805,1,-5,923,1853,1942,2156,2336,2197,1916,1975,2150
5033,476296,575852,476910,575214,3800,-3800,-12,-1,-1,117,206,3828,-5,2,923,1853,1942,2156,2336,2197,1916,1975,2150
6034,476288,575856,476910,575214,3800,-3800,-14,-2,0,120,202,3870,-2,5,923,1853,1942,2156,2336,2197,1916,1975,2150
7035,476296,575844,476910,575214,3800,-3800,-16,-2,1,115,228,3846,4,6,923,1853,1942,2156,2336,2197,1916,1975,2150
8036,476288,575860,476910,575214,3800,-3800,-17,-3,1,127,213,3824,2,1,923,1853,1942,2156,2336,2197,1916,1975,2150
9037,476288,575860,476910,575214,3800,-3800,-17,-4,-1,123,193,3814,1,0,923,1851,1938,2151,2338,2200,1917,1976,2150
10038,476296,575864,476910,575214,3800,-3800,-16,-2,-1,117,199,3839,-5,-7,923,1851,1938,2151,2338,2200,1917,1976,2150
11039,476292,575852,476910,575214,3800,-3800,-17,0,1,106,172,3835,-1,-4,923,1851,1938,2151,2338,2200,1917,1976,2150
12040,476296,575852,476910,575214,3800,-3800,-15,1,0,135,187,3862,-5,7,923,1851,1938,2151,2338,2200,1917,1976,2150
13041,476292,575840,476910,575214,3800,-3800,-16,-2,2,124,184,3836,0,0,923,1851,1938,2151,2338,2200,1917,1976,2150
14042,476300,575844,476910,575214,3800,-3800,-15,-1,1,135,190,3849,7,-7,923,1852,1939,2154,2336,2197,1915,1975,2153
15043,476304,575852,476910,575214,3800,-3800,-15,-1,2,108,206,3849,-4,-7,923,1852,1939,2154,2336,2197,1915,1975,2153
16044,476292,575856,476910,575214,3800,-3800,-14,-2,3,133,206,3846,3,-2,923,1852,1939,2154,2336,2197,1915,1975,2153
17045,476288,575856,476910,575214,3800,-3800,-13,-1,1,126,209,3850,-8,6,923,1852,1939,2154,2336,2197,1915,1975,2153
18046,476304,575856,476910,575214,3800,-3800,-13,0,-1,125,203,3848,9,7,923,1852,1939,2154,2336,2197,1915,1975,2153
19050,476284,575864,476910,575214,3800,-3800,-12,0,-1,117,202,3814,-9,2,921,1852,1939,2154,2336,2197,1915,1975,2153
20048,476280,575864,476910,575214,3800,-3800,-14,-2,0,135,197,3835,-8,-5,923,1852,1940,2155,2338,2199,1917,1976,2153
21049,476292,575860,476910,575214,3800,-3800,-15,-3,0,121,185,3825,4,-2,923,1852,1940,2155,2338,2199,1917,1976,2153
22050,476300,575852,476910,575214,3800,-3800,-15,-3,0,109,166,3808,-9,7,923,1852,1940,2155,2338,2199,1917,1976,2153
23051,476288,575852,476910,575214,3800,-3800,-16,-2,-1,124,181,3817,8,6,923,1852,1940,2155,2338,2199,1917,1976,2153
24052,476288,575860,476910,575214,3800,-3800,-16,-2,-1,126,190,3820,-4,4,923,1852,1940,2155,2338,2199,1917,1976,2153
25053,476292,575852,476910,575214,3800,-3800,-15,-2,-1,110,189,3834,-1,-4,923,1854,1940,2155,2338,2198,1917,1976,2152
26054,476292,575860,476910,575214,3800,-3800,-13,-2,0,97,206,3819,-1,-6,923,1854,1940,2155,2338,2198,1917,1976,2152
27055,476284,575856,476910,575214,3800,-3800,-15,-3,0,113,200,3821,-6,-5,923,1854,1940,2155,2338,2198,1917,1976,2152
28056,476292,575848,476910,575214,3800,-3800,-17,-3,0,128,200,3833,8,-7,923,1854,1940,2155,2338,2198,1917,1976,2152
29057,476292,575852,476910,575214,3800,-3800,-16,-2,2,136,205,3826,-8,-6,923,1854,1940,2155,2338,2198,1917,1976,2152
30058,476304,575856,476910,575214,3800,-3800,-15,-2,0,120,198,3840,8,-2,923,1854,1940,2155,2338,2198,1917,1976,2152
31059,476296,575868,476910,575214,3800,-3800,-16,-2,-1,104,198,3837,-7,-4,923,1852,1939,2154,2335,2196,1914,1973,2148
32060,476292,575848,476910,575214,3800,-3800,-15,-1,1,115,211,3849,6,-2,923,1852,1939,2154,2335,2196,1914,1973,2148
33061,476296,575852,476910,575214,3800,-3800,-16,-1,-1,102,203,3808,-3,-1,923,1852,1939,2154,2335,2196,1914,1973,2148
34062,476288,575832,476910,575214,3800,-3800,-17,-2,-1,120,199,3812,-8,6,923,1852,1939,2154,2335,2196,1914,1973,2148
35063,476292,575856,476910,575214,3800,-3800,-17,-2,0,106,196,3840,1,6,923,1852,1939,2154,2335,2196,1914,1973,2148
36064,476292,575856,476910,575214,3800,-3800,-15,-3,-2,117,214,3821,-7,6,921,1852,1940,2153,2336,2195,1915,1974,2149
37065,476296,575844,476910,575214,3800,-3800,-16,-3,-2,116,209,3808,-4,-4,923,1852,1940,2153,2336,2195,1915,1974,2149
38066,476296,575852,476910,575214,3800,-3800,-16,-5,-2,115,177,3812,8,-7,923,1852,1940,2153,2336,2195,1915,1974,2149
39067,476284,575852,476910,575214,3800,-3800,-14,-5,0,137,188,3848,-10,-7,923,1852,1940,2153,2336,2195,1915,1974,2149
40068,476288,575844,476910,575214,3800,-3800,-14,-1,-1,142,197,3856,7,-3,923,1852,1940,2153,2336,2195,1915,1974,2149
41069,476292,575856,476910,575214,3800,-3800,-17,2,-1,122,183,3842,-8,5,923,1852,1940,2153,2336,2195,1915,1974,2149
42070,476292,575856,476910,575214,3800,-3800,-18,0,-1,136,200,3828,9,7,923,1850,1937,2149,2335,2200,1917,1976,2152
43071,476288,575852,476910,575214,3800,-3800,-15,1,2,130,194,3837,-8,4,923,1850,1937,2149,2335,2200,1917,1976,2152
44072,476284,575848,476910,575214,3800,-3800,-15,0,2,125,178,3829,9,-7,923,1850,1937,2149,2335,2200,1917,1976,2152
45073,476292,575860,476910,575214,3800,-3800,-16,0,0,127,176,3828,-10,-7,923,1850,1937,2149,2335,2200,1917,1976,2152
46074,476288,575848,476910,575214,3800,-3800,-17,-1,1,133,199,3850,9,-4,923,1850,1937,2149,2335,2200,1917,1976,2152
47075,476296,575860,476910,575214,3800,-3800,-18,-1,0,141,200,3825,-9,4,923,1851,1939,2154,2336,2199,1915,1975,2154
48076,476300,575852,476910,575214,3800,-3800,-16,-1,0,128,203,3849,8,6,923,1851,1939,2154,2336,2199,1915,1975,2154
49077,476300,575860,476910,575214,3800,-3800,-14,0,2,106,208,3829,-5,4,923,1851,1939,2154,2336,2199,1915,1975,2154
50078,476300,575840,476910,575214,3800,-3800,-13,2,3,106,190,3826,6,-3,923,1851,1939,2154,2336,2199,1915,1975,2154
51079,476288,575852,476910,575214,3800,-3800,-13,1,2,100,168,3824,-8,7,923,1851,1939,2154,2336,2199,1915,1975,2154
52080,476296,575860,476910,575214,3800,-3800,-12,1,1,117,184,3831,6,6,923,1851,1939,2154,2336,2199,1915,1975,2154
53081,476296,575856,476910,575214,3800,-3800,-14,0,0,124,180,3834,-9,4,920,1853,1942,2157,2339,2199,1916,1977,2149
54082,476300,575864,476910,575214,3800,-3800,-15,-1,1,110,189,3802,2,-3,923,1853,1942,2157,2339,2199,1916,1977,2149
55083,476296,575856,476910,575214,3800,-3800,-13,-3,0,94,189,3832,8,-6,923,1853,1942,2157,2339,2199,1916,1977,2149
56084,476296,575848,476910,575214,3800,-3800,-14,-2,2,92,192,3846,-5,-4,923,1853,1942,2157,2339,2199,1916,1977,2149
57085,476288,575852,476910,575214,3800,-3800,-15,0,3,123,198,3810,-5,-4,923,1853,1942,2157,2339,2199,1916,1977,2149
58086,476304,575848,476910,575214,3800,-3800,-15,1,2,111,207,3841,8,7,923,1854,1940,2155,2338,2196,1915,1975,2150
59087,476288,575860,476910,575214,3800,-3800,-14,-2,2,128,193,3824,2,3,923,1854,1940,2155,2338,2196,1915,1975,2150
60088,476276,575852,476910,575214,3800,-3800,-14,-3,2,122,210,3819,-4,6,923,1854,1940,2155,2338,2196,1915,1975,2150
61089,476288,575856,476910,575214,3800,-3800,-14,-1,0,108,191,3850,3,3,923,1854,1940,2155,2338,2196,1915,1975,2150
62090,476296,575876,476910,575214,3800,-3800,-14,-2,2,120,189,3859,-10,2,923,1854,1940,2155,2338,2196,1915,1975,2150
63091,476300,575856,476910,575214,3800,-3800,-16,-1,3,113,188,3870,5,7,923,1854,1940,2155,2338,2196,1915,1975,2150
64092,476296,575848,476910,575214,3800,-3800,-17,-2,2,101,204,3849,-9,7,923,1852,1939,2154,2336,2194,1913,1974,2148
65093,476276,575856,476910,575214,3800,-3800,-14,-3,-1,99,210,3856,4,-1,923,1852,1939,2154,2336,2194,1913,1974,2148
66094,476284,575856,476910,575214,3800,-3800,-14,-2,-1,119,187,3826,-6,-4,924,1852,1939,2154,2336,2194,1913,1974,2148
67097,476296,575864,476910,575214,3800,-3800,-15,-2,-2,131,198,3835,4,-7,923,1852,1939,2154,2336,2194,1913,1974,2148
68096,476284,575856,476910,575214,3800,-3800,-17,-4,0,131,207,3826,0,-5,923,1852,1939,2154,2336,2194,1913,1974,2148
69097,476292,575864,476910,575214,3800,-3800,-17,-6,1,119,186,3847,3,1,923,1851,1935,2155,2337,2198,1916,1976,2151
70098,476288,575856,476910,575214,3800,-3800,-16,-5,0,113,195,3816,-7,6,921,1851,1935,2155,2337,2198,1916,1976,2151
71099,476292,575848,476910,575214,3800,-3800,-16,-3,0,116,197,3829,-9,-7,923,1851,1935,2155,2337,2198,1916,1976,2151
72100,476288,575856,476910,575214,3800,-3800,-14,-2,-1,137,181,3834,-3,-6,923,1851,1935,2155,2337,2198,1916,1976,2151
73101,476296,575860,476910,575214,3800,-3800,-14,0,2,114,186,3842,3,0,923,1851,1935,2155,2337,2198,1916,1976,2151
74102,476304,575852,476910,575214,3800,-3800,-14,-4,3,103,173,3806,-5,6,923,1851,1935,2155,2337,2198,1916,1976,2151
75103,476288,575848,476910,575214,3800,-3800,-16,-3,1,113,178,3831,-2,-3,923,1851,1938,2153,2335,2200,1919,1978,2156
76104,476296,575864,476910,575214,3800,-3800,-15,-2,-1,131,157,3847,-3,2,923,1851,1938,2153,2335,2200,1919,1978,2156
77105,476288,575848,476910,575214,3800,-3800,-15,1,-2,145,186,3819,9,7,923,1851,1938,2153,2335,2200,1919,1978,2156
78106,476300,575864,476910,575214,3800,-3800,-15,0,-1,117,145,3818,-10,6,923,1851,1938,2153,2335,2200,1919,1978,2156
79107,476292,575856,476910,575214,3800,-3800,-17,-1,0,122,152,3828,6,5,923,1851,1938,2153,2335,2200,1919,1978,2156
80108,476280,575860,476910,575214,3800,-3800,-15,-2,-1,127,177,3832,8,7,923,1852,1939,2153,2336,2199,1917,1976,2152
81109,476300,575848,476910,575214,3800,-3800,-16,-1,0,120,198,3810,-9,5,923,1852,1939,2153,2336,2199,1917,1976,2152
82110,476284,575856,476910,575214,3800,-3800,-15,-1,1,139,194,3807,8,1,923,1852,1939,2153,2336,2199,1917,1976,2152
83111,476280,575856,476910,575214,3800,-3800,-14,-3,2,145,181,3828,-1,5,923,1852,1939,2153,2336,2199,1917,1976,2152
84112,476292,575856,476910,575214,3800,-3800,-14,-2,3,162,184,3813,-7,6,923,1852,1939,2153,2336,2199,1917,1976,2152
85113,476292,575856,476910,575214,3800,-3800,-16,-2,0,150,177,3815,8,4,923,1852,1939,2153,2336,2199,1917,1976,2152
86114,476296,575856,476910,575214,3800,-3800,-15,-2,-1,122,180,3840,-9,7,923,1853,1940,2155,2338,2198,1915,1974,2149
87115,476288,575856,476910,575214,3800,-3800,-16,-2,0,113,189,3818,7,6,921,1853,1940,2155,2338,2198,1915,1974,2149
88116,476296,575856,476910,575214,3800,-3800,-17,-2,1,113,212,3809,2,-1,923,1853,1940,2155,2338,2198,1915,1974,2149
89117,476296,575856,476910,575214,3800,-3800,-16,-2,1,125,206,3828,-9,-6,923,1853,1940,2155,2338,2198,1915,1974,2149
90118,476288,575844,476910,575214,3800,-3800,-16,-2,0,141,191,3847,7,-6,923,1853,1940,2155,2338,2198,1915,1974,2149
91119,476292,575852,476910,575214,3800,-3800,-15,-2,1,147,189,3824,-9,-7,923,1854,1940,2153,2337,2194,1914,1974,2149
92120,476300,575868,476910,575214,3800,-3800,-14,-1,2,150,190,3842,7,2,923,1854,1940,2153,2337,2194,1914,1974,2149
93121,476292,575852,476910,575214,3800,-3800,-14,-2,3,128,222,3826,-9,0,923,1854,1940,2153,2337,2194,1914,1974,2149
94122,476280,575856,476910,575214,3800,-3800,-16,-1,1,101,185,3835,5,4,923,1854,1940,2153,2337,2194,1914,1974,2149
95123,476296,575860,476910,575214,3800,-3800,-18,-1,0,80,175,3817,6,7,923,1854,1940,2153,2337,2194,1914,1974,2149
96124,476296,575856,476910,575214,3800,-3800,-15,0,1,112,189,3836,-9,5,923,1854,1940,2153,2337,2194,1914,1974,2149
97125,476296,575848,476910,575214,3800,-3800,-12,0,0,128,182,3832,8,-7,923,1853,1939,2151,2335,2197,1916,1976,2150
98126,476296,575864,476910,575214,3800,-3800,-13,0,0,137,197,3835,-10,-7,923,1853,1939,2151,2335,2197,1916,1976,2150
99127,476292,575840,476910,575214,3800,-3800,-15,1,1,131,204,3876,9,-6,923,1853,1939,2151,2335,2197,1916,1976,2150
100128,476288,575864,476910,575214,3800,-3800,-14,1,1,114,190,3832,-4,-5,923,1853,1939,2151,2335,2197,1916,1976,2150
101129,476292,575860,476910,575214,3800,-3800,-15,-1,1,105,192,3786,7,0,923,1853,1939,2151,2335,2197,1916,1976,2150
102130,476296,575856,476910,575214,3800,-3800,-13,-4,1,114,201,3857,-7,-4,923,1853,1941,2155,2338,2198,1917,1975,2151
103131,476288,575856,476910,575214,3800,-3800,-12,-2,1,139,216,3829,2,0,923,1853,1941,2155,2338,2198,1917,1975,2151
104132,476296,575860,476910,575214,3800,-3800,-13,-1,1,106,187,3819,-7,5,920,1853,1941,2155,2338,2198,1917,1975,2151
105133,476292,575856,476910,575214,3800,-3800,-15,-2,3,85,173,3845,7,6,923,1853,1941,2155,2338,2198,1917,1975,2151
106134,476300,575864,476910,575214,3800,-3800,-12,-2,1,94,197,3833,7,4,923,1853,1941,2155,2338,2198,1917,1975,2151
107135,476292,575856,476910,575214,3800,-3800,-11,-3,-2,125,207,3840,-7,-1,923,1853,1941,2155,2338,2198,1917,1975,2151
108136,476300,575856,476910,575214,3800,-3800,-14,-3,-3,135,213,3838,4,-1,923,1854,1940,2154,2336,2199,1917,1977,2154
109137,476280,575856,476910,575214,3800,-3800,-16,0,-4,111,203,3821,-8,-6,923,1854,1940,2154,2336,2199,1917,1977,2154
110138,476288,575860,476910,575214,3800,-3800,-15,0,-2,148,190,3849,0,-7,923,1854,1940,2154,2336,2199,1917,1977,2154
111139,476292,575856,476910,575214,3800,-3800,-15,-1,-2,120,200,3833,1,-5,923,1854,1940,2154,2336,2199,1917,1977,2154
112140,476300,575848,476910,575214,3800,-3800,-14,0,-2,120,192,3838,-2,-7,923,1854,1940,2154,2336,2199,1917,1977,2154
113141,476296,575856,476910,575214,3800,-3800,-13,-1,-3,130,191,3825,8,3,923,1853,1939,2153,2335,2198,1916,1976,2150
114142,476296,575860,476910,575214,3800,-3800,-17,-1,-2,139,179,3808,-9,1,923,1853,1939,2153,2335,2198,1916,1976,2150
115143,476292,575860,476910,575214,3800,-3800,-18,-2,-1,112,184,3826,3,6,923,1853,1939,2153,2335,2198,1916,1976,2150
116144,476292,575852,476910,575214,3800,-3800,-18,-6,0,120,207,3848,-8,2,923,1853,1939,2153,2335,2198,1916,1976,2150
117146,476292,575856,476910,575214,3800,-3800,-15,-4,-1,133,210,3851,0,-1,923,1853,1939,2153,2335,2198,1916,1976,2150
118146,476296,575852,476910,575214,3800,-3800,-15,-1,1,130,196,3837,2,-7,923,1853,1940,2154,2336,2198,1915,1974,2150
119147,476284,575856,476910,575214,3800,-3800,-13,0,-1,144,208,3824,6,-7,923,1853,1940,2154,2336,2198,1915,1974,2150
120148,476292,575856,476910,575214,3800,-3800,-15,-2,-1,130,211,3845,-6,-7,923,1853,1940,2154,2336,2198,1915,1974,2150
121149,476288,575848,476910,575214,3800,-3800,-18,-2,0,95,186,3833,-2,-1,921,1853,1940,2154,2336,2198,1915,1974,2150
122150,476288,575860,476910,575214,3800,-3800,-18,-4,0,110,187,3814,-6,7,923,1853,1940,2154,2336,2198,1915,1974,2150
123151,476300,575864,476910,575214,3800,-3800,-19,-4,1,121,174,3805,-9,0,923,1853,1940,2154,2336,2198,1915,1974,2150
124152,476292,575856,476910,575214,3800,-3800,-18,-1,2,113,170,3804,6,-7,923,1852,1937,2153,2335,2194,1915,1976,2152
125153,476292,575872,476910,575214,3800,-3800,-18,0,3,91,198,3841,0,-5,923,1852,1937,2153,2335,2194,1915,1976,2152
126154,476292,575856,476910,575214,3800,-3800,-19,0,3,139,197,3870,-1,-3,923,1852,1937,2153,2335,2194,1915,1976,2152
127155,476288,575860,476910,575214,3800,-3800,-15,2,0,117,192,3835,0,5,923,1852,1937,2153,2335,2194,1915,1976,2152
128156,476300,575852,476910,575214,3800,-3800,-13,1,0,134,201,3805,-9,5,923,1852,1937,2153,2335,2194,1915,1976,2152
129157,476292,575848,476910,575214,3800,-3800,-12,0,1,112,168,3833,8,7,923,1853,1939,2154,2337,2197,1916,1976,2151
130158,476300,575860,476910,575214,3800,-3800,-15,-2,1,80,186,3850,-8,6,923,1853,1939,2154,2337,2197,1916,1976,2151
131159,476296,575856,476910,575214,3800,-3800,-15,-1,0,99,206,3868,-1,1,923,1853,1939,2154,2337,2197,1916,1976,2151
132160,476292,575852,476910,575214,3800,-3800,-15,1,1,129,197,3847,2,0,923,1853,1939,2154,2337,2197,1916,1976,2151
133161,476288,575844,476910,575214,3800,-3800,-13,1,2,128,198,3836,-2,2,923,1853,1939,2154,2337,2197,1916,1976,2151
134162,476300,575856,476910,575214,3800,-3800,-13,-2,-1,112,203,3813,7,1,923,1853,1939,2154,2337,2197,1916,1976,2151
135163,476292,575848,476910,575214,3800,-3800,-13,-1,1,92,201,3804,-1,-1,923,1855,1942,2157,2340,2198,1916,1975,2151
136164,476284,575856,476910,575214,3800,-3800,-12,-1,1,94,199,3795,-7,-7,923,1855,1942,2157,2340,2198,1916,1975,2151
137165,476292,575856,476910,575214,3800,-3800,-12,-1,0,97,184,3798,1,-5,923,1855,1942,2157,2340,2198,1916,1975,2151
138166,476292,575848,476910,575214,3800,-3800,-13,-3,1,125,195,3800,-3,-7,921,1855,1942,2157,2340,2198,1916,1975,2151
139167,476296,575860,476910,575214,3800,-3800,-15,-5,2,135,183,3827,-10,3,923,1855,1942,2157,2340,2198,1916,1975,2151
140168,476284,575856,476910,575214,3800,-3800,-15,-4,-1,121,181,3803,-9,7,923,1854,1940,2154,2336,2195,1915,1975,2151
141169,476296,575856,476910,575214,3800,-3800,-13,-1,-1,143,184,3817,8,7,923,1854,1940,2154,2336,2195,1915,1975,2151
142170,476288,575856,476910,575214,3800,-3800,-13,0,0,125,187,3860,-8,6,923,1854,1940,2154,2336,2195,1915,1975,2151
143171,476300,575852,476910,575214,3800,-3800,-15,0,-1,116,199,3833,-3,6,923,1854,1940,2154,2336,2195,1915,1975,2151
144172,476296,575856,476910,575214,3800,-3800,-15,-3,-2,122,199,3834,2,6,923,1854,1940,2154,2336,2195,1915,1975,2151
145173,476288,575860,476910,575214,3800,-3800,-13,-3,0,132,198,3791,-8,6,923,1854,1940,2154,2336,2195,1915,1975,2151
146174,476296,575844,476910,575214,3800,-3800,-15,1,1,138,210,3797,4,1,923,1850,1938,2154,2336,2196,1915,1973,2149
147175,476296,575852,476910,575214,3800,-3800,-17,1,0,118,196,3851,-1,-6,923,1850,1938,2154,2336,2196,1915,1973,2149
148176,476284,575864,476910,575214,3800,-3800,-17,-1,-2,116,198,3804,-7,-4,923,1850,1938,2154,2336,2196,1915,1973,2149
149177,476296,575860,476910,575214,3800,-3800,-17,-2,0,139,178,3824,8,6,923,1850,1938,2154,2336,2196,1915,1973,2149
150178,476288,575852,476910,575214,3800,-3800,-17,-5,0,139,192,3861,-7,7,923,1850,1938,2154,2336,2196,1915,1973,2149
151179,476300,575852,476910,575214,3800,-3800,-15,-2,-2,142,189,3827,8,6,923,1850,1937,2153,2333,2197,1918,1977,2152
152180,476300,575856,476910,575214,3800,-3800,-14,-1,-2,140,193,3844,-8,-7,923,1850,1937,2153,2333,2197,1918,1977,2152
153181,476288,575864,476910,575214,3800,-3800,-16,-3,0,143,217,3835,6,-7,923,1850,1937,2153,2333,2197,1918,1977,2152
154182,476296,575840,476910,575214,3800,-3800,-17,-2,1,125,186,3837,-9,-1,923,1850,1937,2153,2333,2197,1918,1977,2152
155183,476292,575864,476910,575214,3800,-3800,-15,-3,0,129,169,3821,8,6,921,1850,1937,2153,2333,2197,1918,1977,2152
156184,476280,575860,476910,575214,3800,-3800,-15,-1,0,111,197,3846,-7,1,923,1850,1937,2153,2333,2197,1918,1977,2152
157185,476292,575856,476910,575214,3800,-3800,-16,-3,-1,122,193,3835,-7,-6,923,1852,1938,2153,2336,2199,1918,1977,2153
158186,476296,575856,476910,575214,3800,-3800,-14,-4,-2,132,198,3864,8,6,923,1852,1938,2153,2336,2199,1918,1977,2153
159187,476288,575852,476910,575214,3800,-3800,-16,-2,0,156,208,3868,-9,5,922,1852,1938,2153,2336,2199,1918,1977,2153
160188,476296,575848,476910,575214,3800,-3800,-16,0,0,130,190,3825,8,-7,923,1852,1938,2153,2336,2199,1918,1977,2153
161189,476284,575864,476910,575214,3800,-3800,-15,0,2,118,184,3823,-8,-4,923,1852,1938,2153,2336,2199,1918,1977,2153
162190,476300,575852,476910,575214,3800,-3800,-15,1,0,106,173,3853,8,-5,923,1855,1941,2156,2339,2198,1917,1976,2151
163191,476296,575856,476910,575214,3800,-3800,-14,1,2,129,181,3846,-8,5,923,1855,1941,2156,2339,2198,1917,1976,2151
164192,476296,575852,476910,575214,3800,-3800,-15,-4,-2,130,179,3840,8,6,923,1855,1941,2156,2339,2198,1917,1976,2151
165193,476292,575856,476910,575214,3800,-3800,-16,-3,0,118,192,3866,-6,6,923,1855,1941,2156,2339,2198,1917,1976,2151
166194,476300,575856,476910,575214,3800,-3800,-15,-2,2,116,198,3840,3,6,923,1855,1941,2156,2339,2198,1917,1976,2151
167195,476284,575868,476910,575214,3800,-3800,-12,0,4,112,200,3812,-8,-2,923,1855,1941,2156,2339,2198,1917,1976,2151
168196,476292,575844,476910,575214,3800,-3800,-12,-2,3,118,195,3802,5,-6,923,1856,1942,2156,2339,2196,1915,1974,2149
169197,476300,575852,476910,575214,3800,-3800,-13,-2,-2,134,196,3804,-2,-7,923,1856,1942,2156,2339,2196,1915,1974,2149
170198,476296,575848,476910,575214,3800,-3800,-14,-1,-3,128,209,3841,8,2,923,1856,1942,2156,2339,2196,1915,1974,2149
171199,476292,575856,476910,575214,3800,-3800,-14,1,-1,125,206,3850,-4,5,923,1856,1942,2156,2339,2196,1915,1974,2149
172200,476296,575864,476910,575214,3800,-3800,-15,-2,3,123,214,3837,-4,4,921,1856,1942,2156,2339,2196,1915,1974,2149
173201,476288,575860,476910,575214,3800,-3800,-14,-1,3,109,228,3840,-7,-5,923,1854,1939,2151,2335,2196,1914,1973,2148
174202,476300,575852,476910,575214,3800,-3800,-15,0,2,118,215,3855,8,5,923,1854,1939,2151,2335,2196,1914,1973,2148
175203,476300,575856,476910,575214,3800,-3800,-15,-1,1,121,189,3835,-10,-1,923,1854,1939,2151,2335,2196,1914,1973,2148
176204,476288,575852,476910,575214,3800,-3800,-15,-2,1,106,187,3842,7,-6,923,1854,1939,2151,2335,2196,1914,1973,2148
177205,476288,575856,476910,575214,3800,-3800,-15,-3,-1,122,193,3809,-8,-1,923,1854,1939,2151,2335,2196,1914,1973,2148
178206,476296,575848,476910,575214,3800,-3800,-16,-2,-2,104,198,3834,8,6,923,1854,1939,2151,2335,2196,1914,1973,2148
179207,476288,575856,476910,575214,3800,-3800,-13,-2,-1,102,177,3818,-7,-7,923,1852,1937,2152,2334,2196,1914,1975,2147
180208,476288,575856,476910,575214,3800,-3800,-13,-1,0,108,187,3826,8,-7,923,1852,1937,2152,2334,2196,1914,1975,2147
181209,476288,575864,476910,575214,3800,-3800,-16,0,1,111,187,3797,-10,2,923,1852,1937,2152,2334,2196,1914,1975,2147
182210,476296,575844,476910,575214,3800,-3800,-15,-1,-1,114,216,3822,7,5,923,1852,1937,2152,2334,2196,1914,1975,2147
183211,476284,575864,476910,575214,3800,-3800,-15,-2,0,137,210,3854,-9,-4,923,1852,1937,2152,2334,2196,1914,1975,2147
184212,476292,575856,476910,575214,3800,-3800,-14,-2,-1,116,211,3819,7,-2,923,1852,1937,2154,2336,2201,1919,1977,2153
185213,476300,575860,476910,575214,3800,-3800,-15,-1,0,126,204,3812,-4,6,923,1852,1937,2154,2336,2201,1919,1977,2153
186214,476296,575860,476910,575214,3800,-3800,-15,-1,-1,113,200,3819,-3,2,923,1852,1937,2154,2336,2201,1919,1977,2153
187215,476292,575848,476910,575214,3800,-3800,-14,-2,-2,114,192,3831,6,-5,923,1852,1937,2154,2336,2201,1919,1977,2153
188216,476284,575852,476910,575214,3800,-3800,-15,-3,0,117,181,3839,-7,-6,923,1852,1937,2154,2336,2201,1919,1977,2153
189217,476292,575852,476910,575214,3800,-3800,-17,-2,1,130,203,3844,7,-2,921,1852,1937,2154,2336,2201,1919,1977,2153
190218,476300,575852,476910,575214,3800,-3800,-18,0,-2,120,199,3853,3,7,923,1852,1938,2154,2335,2201,1918,1978,2154
191219,476296,575860,476910,575214,3800,-3800,-16,-2,-2,124,174,3832,-10,5,923,1852,1938,2154,2335,2201,1918,1978,2154
192220,476292,575864,476910,575214,3800,-3800,-14,-2,-2,110,171,3827,8,4,923,1852,1938,2154,2335,2201,1918,1978,2154
193221,476296,575852,476910,575214,3800,-3800,-18,0,-2,109,193,3863,-6,-5,923,1852,1938,2154,2335,2201,1918,1978,2154
194222,476292,575860,476910,575214,3800,-3800,-18,-1,-3,137,187,3850,6,-4,923,1852,1938,2154,2335,2201,1918,1978,2154
195223,476288,575848,476910,575214,3800,-3800,-17,-1,-1,106,194,3832,3,-5,923,1851,1939,2156,2338,2200,1916,1974,2150
196224,476288,575868,476910,575214,3800,-3800,-16,-3,1,121,204,3829,-9,7,923,1851,1939,2156,2338,2200,1916,1974,2150
197225,476296,575852,476910,575214,3800,-3800,-16,-3,0,113,211,3800,8,1,923,1851,1939,2156,2338,2200,1916,1974,2150
198226,476300,575864,476910,575214,3800,-3800,-16,-1,-1,126,201,3821,-4,5,923,1851,1939,2156,2338,2200,1916,1974,2150
199227,476300,575844,476975,575279,1248,-15,-16,-2,1,100,214,3842,-6,3,924,1851,1939,2156,2338,2200,1916,1974,2150
200228,476284,575864,477040,575344,1547,-461,-18,-1,3,118,208,3859,0,-6,908,1851,1939,2156,2338,2200,1916,1974,2150
201229,476300,575856,477105,575409,1207,-22,-16,-1,2,103,190,3834,11,16,897,1854,1939,2154,2337,2197,1913,1973,2149
202230,476344,575864,477170,575474,883,-153,-16,-2,4,115,177,3891,29,6,906,1854,1939,2154,2337,2197,1913,1973,2149
203231,476408,575864,477235,575539,635,27,-16,-1,3,139,176,3854,30,16,910,1854,1939,2154,2337,2197,1913,1973,2149
204232,476460,575856,477300,575604,801,216,-15,-1,1,-33,240,3837,28,8,915,1854,1939,2154,2337,2197,1913,1973,2149
205233,476532,575864,477365,575669,542,85,-17,-6,1,-203,154,3822,32,-1,914,1854,1939,2154,2337,2197,1913,1973,2149
206234,476600,575856,477430,575734,590,374,-17,-7,-4,-29,206,3904,34,0,913,1854,1939,2154,2337,2193,1914,1974,2150
207235,476688,575856,477495,575799,312,353,-18,-9,-3,215,182,3859,35,2,914,1854,1939,2154,2337,2193,1914,1974,2150
208236,476760,575856,477560,575864,503,432,-21,-6,-4,208,276,3758,35,1,917,1854,1939,2154,2337,2193,1914,1974,2150
209237,476840,575856,477625,575929,386,512,-23,-12,-5,139,207,3831,46,17,915,1854,1939,2154,2337,2193,1914,1974,2150
210238,476924,575856,477690,575994,313,591,-26,-5,-8,399,241,3832,58,7,915,1854,1939,2154,2337,2193,1914,1974,2150
211239,476996,575856,477755,576059,454,670,-27,-3,4,375,175,3737,52,21,915,1854,1939,2154,2337,2193,1914,1974,2150
212240,477076,575864,477820,576124,336,641,-23,-6,14,202,182,3927,57,24,913,1856,1940,2154,2335,2198,1917,1976,2153
213241,477176,575892,477885,576189,44,436,-14,3,10,143,134,3807,54,13,913,1856,1940,2154,2335,2198,1917,1976,2153
214242,477248,575920,477950,576254,385,481,-6,-2,8,41,95,3837,52,26,917,1856,1940,2154,2335,2198,1917,1976,2153
215243,477332,575940,478015,576319,212,636,-4,2,8,-28,165,3892,41,19,916,1856,1940,2154,2335,2198,1917,1976,2153
216244,477432,575972,478080,576384,-30,526,-3,5,4,31,201,3886,44,18,915,1856,1940,2154,2335,2198,1917,1976,2153
217245,477500,576000,478145,576449,367,622,-6,-4,-3,49,267,3706,52,22,917,1853,1938,2154,2336,2202,1918,1977,2151
218246,477596,576052,478210,576514,-21,337,-12,0,-9,-104,284,3912,59,35,915,1853,1938,2154,2336,2202,1918,1977,2151
219247,477652,576096,478275,576579,490,463,-26,-7,-11,-116,198,3718,49,29,918,1853,1938,2154,2336,2202,1918,1977,2151
220248,477760,576148,478340,576644,-212,380,-24,-2,-7,67,240,3876,55,40,916,1853,1938,2154,2336,2202,1918,1977,2151
221249,477852,576200,478405,576709,-44,396,-25,-16,-2,327,192,3798,62,41,900,1853,1938,2154,2336,2202,1918,1977,2151
222250,477924,576252,478470,576774,197,412,-21,-10,2,104,173,3843,46,33,913,1853,1938,2154,2336,2202,1918,1977,2151
223251,478032,576324,478535,576839,-305,153,-12,-4,-4,235,144,3758,44,37,917,1854,1940,2153,2334,2200,1918,1950,2119
224252,478088,576364,478600,576904,356,584,-10,0,-2,456,130,3840,58,41,913,1854,1940,2153,2334,2200,1918,1950,2119
225253,478184,576436,478665,576969,-182,176,-5,5,-1,389,173,3873,45,42,918,1854,1940,2153,2334,2200,1918,1950,2119
226254,478280,576500,478730,577034,-219,277,-3,21,0,370,172,3769,55,44,905,1854,1940,2153,2334,2200,1918,1950,2119
227255,478344,576552,478795,577099,182,443,-4,7,2,324,143,3851,44,40,897,1854,1940,2153,2334,2200,1918,1950,2119
228256,478420,576608,478860,577164,19,404,-8,18,2,64,279,3806,49,45,911,1855,1939,2154,2339,2196,1908,1967,2127
229257,478512,576676,478925,577229,-214,251,-7,3,-4,82,203,3831,55,37,918,1855,1939,2154,2339,2196,1908,1967,2127
230258,478592,576752,478990,577294,-83,138,-13,7,-3,-57,256,3802,46,48,903,1855,1939,2154,2339,2196,1908,1967,2127
231259,478676,576816,479055,577359,-156,289,-19,-11,0,-85,261,3809,42,43,911,1855,1939,2154,2339,2196,1908,1967,2127
232260,478732,576868,479120,577424,206,455,-21,-7,0,-120,265,3860,54,48,908,1855,1939,2154,2339,2196,1908,1967,2127
233261,478808,576936,479185,577489,-57,252,-21,-9,-1,45,124,3755,38,47,914,1855,1939,2154,2339,2196,1908,1967,2127
234262,478884,577008,479250,577554,-71,193,-15,-3,6,159,185,3896,37,47,920,1852,1937,2176,2368,2195,1915,1927,2087
235263,478980,577084,479315,577619,-359,131,-15,-3,4,196,201,3798,53,36,920,1852,1937,2176,2368,2195,1915,1927,2087
236264,479052,577156,479380,577684,-67,172,-15,-6,3,-76,145,3868,41,50,913,1852,1937,2176,2368,2195,1915,1927,2087
237265,479116,577228,479445,577749,34,163,-11,1,4,104,134,3872,35,48,922,1852,1937,2176,2368,2195,1915,1927,2087
238266,479172,577292,479510,577814,145,265,-11,6,-2,345,141,3838,33,49,921,1852,1937,2176,2368,2195,1915,1927,2087
239267,479260,577372,479575,577879,-283,46,-8,2,1,265,187,3823,36,48,920,1856,1940,2155,2336,2196,1915,1975,2152
240268,479312,577436,479640,577944,184,249,-10,3,4,202,216,3745,46,46,912,1856,1940,2155,2336,2196,1915,1975,2152
241269,479392,577500,479705,578009,-184,250,-13,6,6,94,225,3745,38,48,921,1856,1940,2155,2336,2196,1915,1975,2152
242270,479444,577572,479770,578074,181,141,-16,3,3,39,231,3953,36,51,906,1856,1940,2155,2336,2196,1915,1975,2152
243271,479504,577660,479835,578139,88,-87,-19,-2,1,51,226,3767,37,38,915,1856,1940,2155,2336,2196,1915,1975,2152
244274,479576,577728,479900,578204,-71,160,-15,-7,1,107,214,3845,35,37,921,1856,1940,2155,2336,2196,1915,1975,2152
245273,479636,577804,479965,578269,85,47,-17,-9,4,-162,187,3837,36,44,919,1854,1939,2154,2335,2190,1910,1977,2151
246274,479696,577880,480030,578334,91,34,-15,-11,-7,-109,227,3934,27,46,921,1854,1939,2154,2335,2190,1910,1977,2151
247275,479764,577948,480095,578399,-12,130,-18,-9,-7,45,174,3768,36,35,922,1854,1939,2154,2335,2190,1910,1977,2151
248276,479800,578016,480160,578464,424,126,-14,-11,-7,268,173,3844,30,44,922,1854,1939,2154,2335,2190,1910,1977,2151
249277,479864,578080,480225,578529,75,178,-18,-10,-5,166,191,3809,46,47,919,1854,1939,2154,2335,2190,1910,1977,2151
250278,479924,578148,480290,578594,131,124,-16,-5,-4,154,209,3819,30,40,921,1852,1937,2152,2334,2200,1918,1977,2153
251279,479980,578224,480355,578659,192,12,-19,-4,1,225,185,3824,34,45,921,1852,1937,2152,2334,2200,1918,1977,2153
252280,480048,578272,480420,578724,39,382,-15,-2,3,306,196,3891,42,40,921,1852,1937,2152,2334,2200,1918,1977,2153
253281,480096,578352,480485,578789,309,-36,-12,6,5,166,184,3800,26,45,921,1852,1937,2152,2334,2200,1918,1977,2153
254282,480148,578420,480550,578854,275,110,-12,1,7,149,183,3815,31,34,920,1852,1937,2152,2334,2200,1918,1977,2153
255283,480204,578488,480615,578919,237,107,-13,-1,8,79,227,3817,39,36,920,1852,1937,2152,2334,2200,1918,1977,2153
256284,480256,578544,480680,578984,303,268,-16,-2,5,48,251,3787,46,33,921,1852,1936,2152,2334,2196,1913,1973,2147
257285,480316,578620,480745,579049,209,5,-20,-1,2,61,225,3821,38,39,917,1852,1936,2152,2334,2196,1913,1973,2147
258286,480372,578684,480810,579114,270,156,-16,-6,0,-133,181,3875,42,43,920,1852,1936,2152,2334,2196,1913,1973,2147
259287,480436,578752,480875,579179,171,103,-19,-12,-5,100,196,3843,33,43,921,1852,1936,2152,2334,2196,1913,1973,2147
260288,480500,578824,480940,579244,173,44,-22,-9,-6,55,195,3817,31,32,921,1852,1936,2152,2334,2196,1913,1973,2147
261289,480576,578900,481005,579309,10,-19,-23,-8,-8,63,157,3803,29,42,921,1854,1939,2154,2337,2195,1914,1974,2148
262290,480620,578964,481070,579374,436,132,-23,-13,-3,158,159,3788,26,37,922,1854,1939,2154,2337,2195,1914,1974,2148
263291,480688,579016,481135,579439,132,299,-24,-6,2,262,219,3807,40,43,921,1854,1939,2154,2337,2195,1914,1974,2148
264292,480744,579084,481200,579504,293,95,-21,-11,-2,290,213,3848,32,43,920,1854,1939,2154,2337,2195,1914,1974,2148
265293,480800,579148,481265,579569,304,146,-22,-2,1,170,170,3780,30,34,920,1854,1939,2154,2337,2195,1914,1974,2148
266294,480844,579212,481330,579634,480,148,-17,-2,7,234,157,3891,33,43,920,1854,1939,2154,2337,2195,1914,1974,2148
267295,480912,579288,481395,579699,177,-16,-14,4,3,193,167,3795,43,46,918,1854,1942,2158,2338,2198,1917,1976,2152
268296,480976,579344,481460,579764,228,245,-9,6,-1,51,188,3898,33,40,920,1854,1942,2158,2338,2198,1917,1976,2152
269297,481036,579408,481525,579829,284,146,-11,0,1,12,194,3805,41,43,921,1854,1942,2158,2338,2198,1917,1976,2152
270298,481100,579476,481590,579894,236,94,-7,0,1,266,207,3859,33,42,920,1854,1942,2158,2338,2198,1917,1976,2152
271299,481164,579532,481655,579959,237,255,-10,7,-2,173,207,3794,40,31,920,1854,1942,2158,2338,2198,1917,1976,2152
272300,481232,579616,481720,580024,183,-118,-10,0,-3,-71,203,3830,41,42,920,1855,1940,2155,2339,2195,1916,1978,2152
273301,481308,579672,481785,580089,71,243,-11,-1,-2,55,201,3932,45,29,920,1855,1940,2155,2339,2195,1916,1978,2152
274302,481344,579736,481850,580154,606,144,-13,-2,-3,56,182,3721,43,35,919,1855,1940,2155,2339,2195,1916,1978,2152
275303,481416,579808,481915,580219,148,35,-14,-4,-3,110,202,3911,36,42,918,1855,1940,2155,2339,2195,1916,1978,2152
276304,481480,579848,481980,580284,249,467,-16,-9,-3,205,226,3772,32,30,919,1855,1940,2155,2339,2195,1916,1978,2152
277305,481560,579928,482045,580349,31,-52,-16,-9,-2,113,245,3880,44,43,920,1855,1940,2155,2339,2195,1916,1978,2152
278306,481620,579984,482110,580414,288,259,-15,-5,2,-6,159,3871,34,31,920,1854,1940,2153,2336,2196,1914,1974,2150
279307,481684,580036,482175,580479,239,325,-14,-8,4,230,206,3899,32,37,921,1854,1940,2153,2336,2196,1914,1974,2150
280308,481748,580132,482240,580544,240,-263,-8,0,2,285,169,3800,49,44,919,1854,1940,2153,2336,2196,1914,1974,2150
281309,481804,580176,482305,580609,351,413,-10,2,0,168,248,3900,44,28,919,1854,1940,2153,2336,2196,1914,1974,2150
282310,481872,580260,482370,580674,197,-109,-13,-1,5,181,181,3757,34,42,918,1854,1940,2153,2336,2196,1914,1974,2150
283311,481932,580296,482435,580739,304,526,-8,1,8,51,171,3901,44,34,919,1853,1939,2153,2335,2198,1916,1975,2151
284312,482004,580368,482500,580804,146,68,-10,6,9,86,189,3857,41,31,918,1853,1939,2153,2335,2198,1916,1975,2151
285313,482100,580428,482565,580869,-192,224,-11,1,1,122,176,3764,32,38,919,1853,1939,2153,2335,2198,1916,1975,2151
286314,482136,580496,482630,580934,594,120,-7,3,-3,3,187,3899,32,43,910,1853,1939,2153,2335,2198,1916,1975,2151
287315,482220,580576,482695,580999,-30,-48,-13,-2,-4,77,167,3804,36,44,909,1853,1939,2153,2335,2198,1916,1975,2151
288316,482280,580632,482760,581064,276,264,-13,-2,-2,114,197,3776,41,40,919,1853,1939,2153,2335,2198,1916,1975,2151
289317,482348,580696,482825,581129,174,165,-13,-1,-6,-7,249,3857,49,43,921,1854,1938,2153,2336,2182,1902,1973,2150
290318,482408,580760,482890,581194,280,166,-19,-6,-6,42,195,3797,35,40,920,1854,1938,2153,2336,2182,1902,1973,2150
291319,482476,580824,482955,581259,176,168,-14,-5,-11,209,228,3787,37,40,918,1854,1938,2153,2336,2182,1902,1973,2150
292322,482528,580872,483020,581324,392,388,-20,-10,-6,281,205,3846,33,42,920,1854,1938,2153,2336,2182,1902,1973,2150
293321,482600,580948,483085,581389,134,25,-16,-9,-3,82,210,3796,41,37,919,1854,1938,2153,2336,2182,1902,1973,2150
294322,482660,581020,483150,581454,290,67,-20,2,-4,256,147,3835,41,32,919,1855,1937,2156,2338,2200,1916,1974,2151
295323,482732,581076,483215,581519,132,278,-20,7,6,207,237,3843,44,45,921,1855,1937,2156,2338,2200,1916,1974,2151
296324,482796,581132,483280,581584,233,289,-17,-5,8,183,164,3838,52,32,920,1855,1937,2156,2338,2200,1916,1974,2151
297325,482872,581196,483345,581649,70,190,-16,6,1,233,199,3873,37,43,919,1855,1937,2156,2338,2200,1916,1974,2151
298326,482944,581236,483410,581714,111,521,-17,-10,5,-11,186,3716,49,33,920,1855,1937,2156,2338,2200,1916,1974,2151
299327,482996,581296,483475,581779,377,277,-17,4,3,81,237,3892,41,32,921,1855,1937,2156,2338,2200,1916,1974,2151
300328,483068,581364,483540,581844,120,174,-14,-6,0,-32,177,3831,42,47,916,1853,1939,2153,2335,2197,1915,1978,2152
301329,483152,581428,483605,581909,-54,226,-15,-3,-1,-38,159,3829,46,43,919,1853,1939,2153,2335,2197,1915,1978,2152
302330,483204,581504,483670,581974,362,62,-17,-16,1,191,246,3778,47,34,921,1853,1939,2153,2335,2197,1915,1978,2152
303331,483288,581572,483735,582039,-61,159,-21,-13,4,-170,203,3880,34,43,920,1853,1939,2153,2335,2197,1915,1978,2152
304332,483348,581644,483800,582104,245,100,-26,-14,-2,-88,271,3817,35,42,905,1853,1939,2153,2335,2197,1915,1978,2152
305333,483412,581708,483865,582169,196,201,-29,-19,-3,205,157,3714,45,33,922,1854,1939,2153,2335,2197,1915,1975,2150
306334,483484,581760,483930,582234,89,368,-25,-13,-4,327,229,3882,44,44,921,1854,1939,2153,2335,2197,1915,1975,2150
307335,483560,581844,483995,582299,26,-55,-23,-11,-3,162,180,3807,48,36,920,1854,1939,2153,2335,2197,1915,1975,2150
308336,483612,581928,484060,582364,341,-78,-20,4,3,417,119,3818,33,32,917,1854,1939,2153,2335,2197,1915,1975,2150
309337,483672,582000,484125,582429,247,63,-14,4,3,299,204,3860,39,37,922,1854,1939,2153,2335,2197,1915,1975,2150
310338,483716,582064,484190,582494,473,164,-9,14,1,200,190,3865,47,46,919,1854,1939,2153,2335,2197,1915,1975,2150
311339,483804,582136,484255,582559,-105,56,-7,3,4,196,140,3881,32,43,920,1855,1940,2154,2336,2197,1915,1974,2150
312340,483856,582224,484320,582624,362,-171,-4,7,3,59,183,3807,46,31,918,1855,1940,2154,2336,2197,1915,1974,2150
313341,483916,582296,484385,582689,268,20,-1,7,0,-137,167,3855,31,43,915,1855,1940,2154,2336,2197,1915,1974,2150
314342,483972,582348,484450,582754,329,286,0,1,-13,-82,212,3833,31,35,918,1855,1940,2154,2336,2197,1915,1974,2150
315343,484024,582416,484515,582819,395,82,-9,2,-15,-1,188,3781,41,42,920,1855,1940,2154,2336,2197,1915,1974,2150
316344,484092,582468,484580,582884,191,298,-12,-5,-15,118,288,3785,48,42,918,1856,1937,2151,2336,2191,1912,1972,2143
317345,484156,582540,484645,582949,243,40,-24,-11,-10,96,273,3849,38,41,919,1856,1937,2151,2336,2191,1912,1972,2143
318346,484204,582592,484710,583014,464,307,-24,-16,-11,78,201,3792,50,34,919,1856,1937,2151,2336,2191,1912,1972,2143
319347,484288,582668,484775,583079,-9,-7,-24,-7,-5,229,193,3871,51,38,921,1856,1937,2151,2336,2191,1912,1972,2143
320348,484364,582720,484840,583144,78,309,-23,-3,-1,338,172,3789,52,40,916,1856,1937,2151,2336,2191,1912,1972,2143
321349,484420,582772,484905,583209,339,325,-20,-2,6,143,148,3843,48,32,923,1856,1937,2151,2336,2191,1912,1972,2143
322350,484500,582824,484970,583274,20,341,-14,1,5,228,203,3944,37,37,920,1855,1939,2156,2340,2195,1915,1974,2149
323351,484548,582888,485035,583339,442,192,-11,-1,12,169,148,3781,34,38,918,1855,1939,2156,2340,2195,1915,1974,2149
324352,484624,582956,485100,583404,79,138,-7,4,15,219,215,3882,39,30,920,1855,1939,2156,2340,2195,1915,1974,2149
325353,484680,583016,485165,583469,340,245,-11,2,8,43,202,3809,46,38,916,1855,1939,2156,2340,2195,1915,1974,2149
326354,484748,583072,485230,583534,186,306,-12,3,3,-20,164,3823,35,42,920,1855,1939,2156,2340,2195,1915,1974,2149
327355,484832,583136,485295,583599,-37,208,-11,-3,-2,169,198,3766,36,40,918,1855,1939,2155,2336,2199,1915,1974,2154
328356,484900,583192,485360,583664,160,319,-14,4,1,-25,236,3894,33,30,919,1855,1939,2155,2336,2199,1915,1974,2154
329357,484956,583272,485425,583729,321,0,-19,-12,-7,57,224,3747,36,29,922,1855,1939,2155,2336,2199,1915,1974,2154
330358,485020,583324,485490,583794,222,367,-17,-6,-15,188,198,3871,37,39,919,1855,1939,2155,2336,2199,1915,1974,2154
331359,485076,583360,485555,583859,333,603,-18,-2,-14,68,182,3856,32,32,920,1855,1939,2155,2336,2199,1915,1974,2154
332360,485160,583416,485620,583924,-40,364,-19,-4,-17,143,216,3823,39,38,918,1853,1937,2151,2331,2199,1917,1976,2154
333361,485220,583496,485685,583989,266,45,-13,2,-13,260,132,3766,42,31,915,1853,1937,2151,2331,2199,1917,1976,2153
334362,485268,583556,485750,584054,438,301,-11,3,-8,230,198,3965,44,42,920,1853,1937,2151,2331,2199,1917,1976,2153
335363,485340,583624,485815,584119,129,198,-10,6,0,126,191,3790,44,45,921,1853,1937,2151,2331,2199,1917,1976,2153
336364,485428,583696,485880,584184,-99,140,-7,4,-3,139,229,3857,33,32,917,1853,1937,2151,2331,2199,1917,1976,2153
337365,485492,583732,485945,584249,202,626,-9,6,0,135,220,3767,47,43,920,1853,1937,2151,2331,2199,1917,1976,2153
338366,485560,583808,486010,584314,149,112,-10,0,3,-46,224,3870,37,43,914,1853,1937,2152,2334,2196,1915,1973,2148
339367,485620,583868,486075,584379,255,318,-20,-16,0,23,269,3813,46,38,916,1853,1937,2152,2334,2196,1915,1973,2148
340368,485692,583960,486140,584444,97,-115,-18,-12,2,157,221,3782,47,44,921,1853,1937,2152,2334,2196,1915,1973,2148
341369,485776,584024,486205,584509,-76,238,-21,-19,6,67,250,3911,50,30,918,1853,1937,2152,2334,2196,1915,1973,2148
342371,485832,584100,486270,584574,285,74,-27,-6,7,84,197,3777,47,36,919,1853,1937,2152,2334,2196,1915,1973,2148
343371,485892,584136,486335,584639,241,610,-24,-13,6,169,150,3884,31,31,917,1856,1939,2154,2338,2198,1916,1975,2151
344372,485960,584216,486400,584704,138,41,-20,5,5,212,124,3850,43,38,920,1856,1939,2154,2338,2198,1916,1975,2151
345373,486024,584280,486465,584769,189,242,-10,-8,0,231,162,3903,30,35,915,1856,1939,2154,2338,2198,1916,1975,2151
346374,486084,584348,486530,584834,246,189,-9,5,-2,205,208,3764,46,42,922,1856,1939,2154,2338,2198,1916,1975,2151
347375,486144,584424,486595,584899,252,76,-14,-4,-5,198,161,3881,48,31,920,1856,1939,2154,2338,2198,1916,1975,2151
348376,486220,584472,486660,584964,39,447,-7,4,-10,54,205,3832,34,37,920,1856,1939,2154,2338,2198,1916,1975,2151
349377,486292,584528,486725,585029,80,358,-9,0,-8,164,227,3770,41,34,920,1855,1939,2156,2340,2196,1916,1975,2149
350378,486344,584588,486790,585094,346,314,-11,8,-7,233,214,3861,28,27,919,1855,1939,2156,2340,2196,1916,1975,2149
351379,486392,584668,486855,585159,417,46,-16,-3,-8,11,251,3829,30,32,920,1855,1939,2156,2340,2196,1916,1975,2149
352380,486448,584720,486920,585224,329,413,-12,-1,-4,92,230,3893,46,34,918,1855,1939,2156,2340,2196,1916,1975,2149
353381,486520,584784,486985,585289,120,264,-18,-5,0,296,258,3736,29,35,919,1855,1939,2156,2340,2196,1916,1975,2149
354382,486588,584836,487050,585354,166,430,-14,9,5,64,143,3955,36,39,917,1857,1942,2156,2341,2191,1914,1975,2150
355383,486644,584892,487115,585419,327,391,-18,5,9,-55,216,3734,33,37,920,1857,1942,2156,2341,2191,1914,1975,2150
356384,486696,584956,487180,585484,393,292,-9,0,6,55,154,3820,31,40,918,1857,1942,2156,2341,2191,1914,1975,2150
357385,486764,585024,487245,585549,190,239,-7,5,-4,385,185,3875,51,45,918,1857,1942,2156,2341,2191,1914,1975,2150
358386,486828,585072,487310,585614,242,510,-2,-3,-9,188,181,3784,37,34,918,1857,1942,2156,2341,2191,1914,1975,2150
359387,486892,585140,487375,585679,243,256,-6,3,-7,-1,245,3763,44,37,917,1857,1942,2156,2341,2191,1914,1975,2150
360388,486968,585204,487440,585744,80,308,-15,2,-10,31,190,3815,46,43,915,1857,1940,2154,2338,2196,1914,1973,2147
361389,487024,585244,487505,585809,341,638,-10,-1,-12,-45,186,3866,48,32,919,1857,1940,2154,2338,2196,1914,1973,2147
362390,487092,585320,487570,585874,187,176,-14,-1,-4,78,216,3761,34,37,919,1857,1940,2154,2338,2196,1914,1973,2147
363391,487164,585396,487635,585939,129,162,-14,-7,-4,31,220,3938,49,33,914,1857,1940,2154,2338,2196,1914,1973,2147
364392,487244,585464,487700,586004,11,259,-12,1,-2,79,218,3814,35,40,920,1857,1940,2154,2338,2196,1914,1973,2147
365393,487304,585536,487765,586069,267,200,-21,-1,5,291,177,3809,40,45,921,1854,1938,2152,2333,2196,1915,1975,2153
366394,487380,585612,487830,586134,54,137,-16,3,1,295,200,3866,29,43,921,1854,1938,2152,2333,2196,1915,1975,2153
367395,487448,585680,487895,586199,150,234,-19,1,2,176,165,3764,33,29,919,1854,1938,2152,2333,2196,1915,1975,2153
368396,487512,585728,487960,586264,201,505,-12,2,-4,202,233,3919,29,31,922,1854,1938,2152,2333,2196,1915,1975,2153
369397,487556,585796,488025,586329,478,251,-17,5,-6,200,202,3705,42,34,921,1854,1938,2152,2333,2196,1915,1975,2153
370398,487624,585864,488090,586394,174,247,-18,-7,-14,215,219,3937,41,46,917,1854,1938,2152,2333,2196,1915,1975,2153
371399,487688,585936,488155,586459,226,189,-14,2,-19,24,197,3801,34,43,917,1852,1935,2151,2331,2200,1917,1976,2153
372400,487744,585976,488220,586524,337,620,-15,-4,-19,111,176,3883,43,34,920,1852,1935,2151,2331,2200,1917,1976,2153
373401,487812,586060,488285,586589,183,47,-9,3,-15,56,161,3804,30,45,920,1852,1935,2151,2331,2200,1917,1976,2153
374402,487864,586124,488350,586654,399,298,-9,-3,-15,37,176,3862,37,31,914,1852,1935,2151,2331,2200,1917,1976,2153
375403,487912,586200,488415,586719,471,135,-6,5,-8,41,172,3760,40,40,921,1852,1935,2151,2331,2200,1917,1976,2153
376404,487980,586280,488480,586784,217,67,-8,5,-1,47,190,3846,48,41,916,1852,1938,2153,2334,2200,1917,1976,2150
377405,488060,586316,488545,586849,49,653,-14,1,2,172,175,3819,47,36,916,1852,1938,2153,2334,2200,1917,1976,2150
378406,488148,586364,488610,586914,-80,524,-12,-6,6,167,258,3805,28,45,921,1852,1938,2153,2334,2200,1917,1976,2150
379407,488176,586460,488675,586979,716,-114,-13,-3,11,-37,205,3896,41,30,917,1852,1938,2153,2334,2200,1917,1976,2150
380408,488260,586544,488740,587044,-7,13,-17,-3,5,171,257,3804,30,38,914,1852,1938,2153,2334,2200,1917,1976,2150
381409,488320,586600,488805,587109,300,374,-23,-9,9,152,254,3745,34,33,915,1852,1938,2153,2334,2200,1917,1976,2150
382410,488388,586660,488870,587174,196,331,-24,-10,9,221,223,3829,29,38,923,1854,1941,2156,2340,2197,1916,1976,2151
383411,488444,586724,488935,587239,357,282,-29,-14,0,160,250,3859,45,43,918,1854,1941,2156,2340,2197,1916,1976,2151
384412,488504,586776,489000,587304,313,448,-27,-4,-11,54,279,3852,30,45,919,1854,1941,2156,2340,2197,1916,1976,2151
385413,488556,586844,489065,587369,430,244,-34,-21,-7,141,205,3810,29,46,918,1854,1941,2156,2340,2197,1916,1976,2151
386414,488624,586936,489130,587434,226,-89,-22,-8,-19,341,196,3930,46,46,916,1854,1941,2156,2340,2197,1916,1976,2151
387415,488700,586996,489195,587499,113,319,-23,2,-15,88,152,3936,38,32,917,1857,1941,2156,2338,2199,1918,1977,2152
388416,488756,587052,489260,587564,374,380,-16,-6,-8,51,97,3759,39,39,920,1857,1941,2156,2338,2199,1918,1977,2152
389417,488824,587124,489325,587629,220,171,-3,13,-8,87,103,4003,47,38,920,1857,1941,2156,2338,2199,1918,1977,2152
390418,488884,587184,489390,587694,326,327,-3,8,-4,122,105,3787,46,41,917,1857,1941,2156,2338,2199,1918,1977,2152
391419,488960,587248,489455,587759,114,278,3,12,9,193,161,3832,32,34,920,1857,1941,2156,2338,2199,1918,1977,2152
392420,489024,587308,489520,587824,265,334,0,0,5,168,197,3848,37,39,918,1857,1941,2156,2338,2199,1918,1977,2152
393421,489080,587380,489585,587889,376,177,0,9,4,57,217,3854,27,42,918,1856,1941,2157,2339,2195,1914,1974,2149
394422,489128,587444,489650,587954,497,278,-8,1,-7,304,282,3753,44,40,916,1856,1941,2157,2339,2195,1914,1974,2149
395423,489200,587484,489715,588019,188,609,-20,1,-3,100,266,3885,32,37,919,1856,1941,2157,2339,2195,1914,1974,2149
396424,489276,587572,489780,588084,126,-19,-25,-8,-2,94,240,3700,42,40,916,1856,1941,2157,2339,2195,1914,1974,2149
397425,489316,587640,489845,588149,606,227,-25,-2,-1,132,257,3820,48,40,916,1856,1941,2157,2339,2195,1914,1974,2149
398426,489392,587684,489910,588214,143,553,-19,-9,0,-74,217,3862,39,34,922,1854,1938,2152,2333,2189,1911,1971,2150
399427,489432,587744,489975,588279,623,360,-18,-10,-4,247,191,3767,33,32,916,1854,1938,2152,2333,2189,1911,1971,2150
400428,489496,587800,490040,588344,325,421,-19,-2,-2,14,140,3905,48,37,917,1854,1938,2152,2333,2189,1911,1971,2150
401429,489572,587868,490105,588409,162,267,-13,-3,-1,106,141,3882,45,48,914,1854,1938,2152,2333,2189,1911,1971,2150
402430,489628,587940,490170,588474,423,208,-13,-5,-8,145,178,3880,33,46,917,1854,1938,2152,2333,2189,1911,1971,2150
403431,489704,588004,490235,588539,160,311,-6,-5,-13,48,153,3847,37,34,920,1854,1938,2152,2333,2189,1911,1971,2150
404432,489764,588072,490300,588604,366,257,-5,2,-11,122,142,3792,46,38,918,1852,1936,2151,2333,2199,1917,1976,2152
405433,489824,588136,490365,588669,372,308,-4,11,-2,68,141,3877,34,44,920,1852,1936,2151,2333,2199,1917,1976,2152
406434,489896,588200,490430,588734,214,309,-2,2,0,170,159,3783,38,37,918,1852,1936,2151,2333,2199,1917,1976,2152
407435,489988,588260,490495,588799,-69,365,-3,7,13,151,180,3840,42,38,918,1852,1936,2151,2333,2199,1917,1976,2152
408436,490052,588328,490560,588864,283,263,-5,-3,12,283,241,3750,43,42,919,1852,1936,2151,2333,2199,1917,1976,2152
409437,490128,588404,490625,588929,119,149,-8,6,8,149,247,3897,41,41,917,1855,1940,2156,2336,2200,1918,1976,2152
410438,490192,588472,490690,588994,270,246,-16,3,4,192,294,3781,51,44,917,1855,1940,2156,2336,2200,1918,1976,2152
411439,490256,588544,490755,589059,273,187,-21,-9,-5,154,331,3835,34,44,918,1855,1940,2156,2336,2200,1918,1976,2152
412440,490312,588592,490820,589124,384,508,-23,-3,-13,51,238,3870,39,37,919,1855,1940,2156,2336,2200,1918,1976,2152
413441,490392,588668,490885,589189,65,145,-23,-13,-16,8,202,3835,49,44,919,1855,1940,2156,2336,2200,1918,1976,2152
414442,490464,588720,490950,589254,157,461,-26,-15,-26,42,180,3785,31,46,915,1855,1940,2156,2336,2200,1918,1976,2152
415443,490520,588780,491015,589319,368,367,-19,-6,-17,10,129,3953,31,44,921,1854,1939,2155,2331,2199,1919,1978,2154
416444,490576,588868,491080,589384,379,-11,-15,-4,-14,-14,135,3765,35,42,918,1854,1939,2155,2331,2199,1919,1978,2154
417445,490640,588928,491145,589449,281,345,-9,-9,-6,50,97,3802,49,40,917,1854,1939,2155,2331,2199,1919,1978,2154
418446,490708,589004,491210,589514,227,133,-8,-2,9,242,141,3898,52,47,920,1854,1939,2155,2331,2199,1919,1978,2154
419450,490788,589080,491275,589579,59,120,-6,-4,8,110,188,3717,38,48,918,1854,1939,2155,2331,2199,1919,1978,2154
420448,490860,589140,491340,589644,150,326,-13,-2,10,245,237,3930,38,42,920,1853,1939,2155,2335,2198,1916,1974,2151
421449,490912,589200,491405,589709,416,332,-17,5,11,275,257,3698,30,42,921,1853,1939,2155,2335,2198,1916,1974,2151
422450,490968,589264,491470,589774,378,283,-23,-6,5,82,256,3882,40,46,920,1853,1939,2155,2335,2198,1916,1974,2151
423451,491036,589332,491535,589839,225,230,-22,-7,6,218,227,3744,45,46,917,1853,1939,2155,2335,2198,1916,1974,2151
424452,491108,589376,491600,589904,166,556,-25,-12,-1,152,265,3847,34,33,918,1853,1939,2155,2335,2198,1916,1974,2151
425453,491156,589468,491665,589969,487,-77,-24,-11,-9,99,165,3891,31,40,919,1853,1939,2155,2335,2198,1916,1974,2151
426454,491232,589528,491730,590034,123,329,-22,-10,-11,-10,166,3902,34,39,917,1855,1940,2154,2336,2199,1917,1975,2151
427455,491308,589616,491795,590099,111,-49,-18,-4,-9,-24,175,3820,51,35,916,1855,1940,2154,2336,2199,1917,1975,2151
428456,491368,589680,491860,590164,317,253,-13,-4,-2,72,147,3860,31,32,917,1855,1940,2154,2336,2199,1917,1975,2151
429457,491440,589740,491925,590229,159,309,-12,-6,-7,158,182,3801,30,43,922,1855,1940,2154,2336,2199,1917,1975,2151
430458,491500,589804,491990,590294,315,261,-10,-4,-1,37,147,3883,32,45,919,1855,1940,2154,2336,2199,1917,1975,2151
431459,491564,589860,492055,590359,266,372,-13,-3,-3,238,276,3722,31,44,920,1856,1938,2154,2337,2195,1916,1975,2149
432460,491624,589960,492120,590424,322,-221,-17,-4,-3,270,157,3867,34,34,919,1856,1938,2154,2337,2195,1916,1975,2149
433461,491688,590008,492185,590489,274,450,-19,-9,-10,227,217,3754,31,36,918,1856,1938,2154,2337,2195,1916,1975,2149
434462,491748,590064,492250,590554,330,362,-20,-12,-9,174,223,3772,31,44,919,1856,1938,2154,2337,2195,1916,1975,2149
435463,491824,590152,492315,590619,117,-66,-21,-4,-9,210,217,3951,32,33,917,1856,1938,2154,2337,2195,1916,1975,2149
436464,491884,590196,492380,590684,323,509,-18,-11,-7,88,127,3710,41,30,917,1856,1938,2154,2337,2195,1916,1975,2149
437465,491968,590264,492445,590749,0,206,-15,-8,-1,54,192,3854,29,43,921,1854,1940,2154,2335,2194,1915,1973,2149
438466,492024,590328,492510,590814,362,257,-8,1,6,86,161,3835,46,44,916,1854,1940,2154,2335,2194,1915,1973,2149
439467,492100,590400,492575,590879,98,149,-12,4,8,48,238,3816,26,43,921,1854,1940,2154,2335,2194,1915,1973,2149
440468,492160,590452,492640,590944,304,415,-11,-2,4,62,232,3777,44,38,918,1854,1940,2154,2335,2194,1915,1973,2149
441469,492220,590504,492705,591009,311,431,-7,2,2,198,261,3964,28,39,921,1854,1940,2154,2335,2194,1915,1973,2149
442470,492272,590584,492770,591074,426,63,-13,-9,-2,177,238,3723,30,42,917,1855,1941,2156,2337,2199,1915,1978,2154
443471,492336,590648,492835,591139,278,264,-16,3,-8,130,254,3875,46,43,917,1855,1941,2156,2337,2199,1915,1978,2154
444472,492408,590684,492900,591204,170,649,-19,-5,-15,197,186,3838,32,45,916,1855,1941,2156,2337,2199,1915,1978,2154
445473,492468,590760,492965,591269,326,137,-16,3,-10,205,190,3804,31,43,917,1855,1941,2156,2337,2199,1915,1978,2154
446474,492516,590844,493030,591334,497,14,-15,-2,0,174,130,3840,38,34,915,1855,1941,2156,2337,2199,1915,1978,2154
447475,492588,590908,493095,591399,188,265,-7,9,5,81,184,4064,37,44,919,1855,1941,2156,2337,2199,1915,1978,2154
448476,492644,590996,493294,591598,1250,787,-12,-1,8,186,170,3559,39,39,918,1854,1939,2155,2335,2198,1917,1976,2153
449477,492716,591048,493359,591663,1042,1253,-7,3,16,207,184,4028,36,47,919,1854,1939,2155,2335,2198,1917,1976,2153
450478,492800,591100,493424,591728,869,1270,-8,3,12,103,231,3756,50,54,900,1854,1939,2155,2335,2198,1917,1976,2153
451479,492884,591204,493489,591793,846,572,-16,-2,-1,148,279,3772,49,53,897,1854,1939,2155,2335,2198,1917,1976,2153
452480,492956,591292,493554,591858,987,744,-21,-9,2,84,275,3831,67,66,898,1854,1939,2155,2335,2198,1917,1976,2153
453481,493064,591408,493619,591923,486,332,-24,-10,-3,123,255,3815,61,69,909,1856,1939,2155,2336,2200,1917,1976,2153
454482,493160,591508,493684,591988,598,490,-21,-9,-3,125,241,3896,70,59,905,1856,1939,2155,2336,2200,1917,1976,2153
455483,493280,591616,493749,592053,231,338,-23,-8,8,54,122,3725,59,59,916,1856,1939,2155,2336,2200,1917,1976,2153
456484,493396,591704,493814,592118,219,560,-9,2,5,217,136,3967,60,56,913,1856,1939,2155,2336,2200,1917,1976,2153
457485,493508,591816,493879,592183,211,202,-11,8,7,65,192,3698,60,62,918,1856,1939,2155,2336,2200,1917,1976,2153
458486,493608,591908,493944,592248,319,420,-10,6,5,9,210,3905,69,56,916,1856,1939,2155,2336,2200,1917,1976,2153
459487,493716,592020,494009,592313,167,112,-23,1,2,320,192,3769,55,69,920,1854,1937,2153,2336,2202,1920,1977,2154
460488,493820,592116,494074,592378,170,274,-13,1,-14,164,253,3791,72,71,917,1854,1937,2153,2336,2202,1920,1977,2154
461489,493940,592212,494139,592443,-98,237,-16,-15,-15,7,154,3973,57,69,918,1854,1937,2153,2336,2202,1920,1977,2154
462490,494048,592316,494204,592508,0,90,-14,3,-14,134,140,3755,51,52,917,1854,1937,2153,2336,2202,1920,1977,2154
463491,494148,592420,494269,592573,57,42,-17,-1,-15,107,148,3889,53,63,915,1854,1937,2153,2336,2202,1920,1977,2154
464492,494256,592532,494334,592638,-95,-115,-14,7,-12,65,150,3822,59,65,922,1853,1935,2154,2336,2200,1917,1976,2152
465493,494348,592624,494399,592703,72,102,-10,-1,3,-24,81,3880,52,50,923,1853,1935,2154,2336,2200,1917,1976,2152
466494,494460,592724,494464,592768,-236,-41,-7,6,6,299,209,3827,59,64,916,1853,1935,2154,2336,2200,1917,1976,2152
467495,494556,592820,494529,592833,-73,-29,-9,5,9,195,233,3752,47,60,922,1853,1935,2154,2336,2200,1917,1976,2152
468496,494644,592912,494594,592898,-2,-12,-12,1,7,-146,250,3898,46,51,921,1853,1935,2154,2336,2200,1917,1976,2152
469498,494728,593008,494659,592963,25,-99,-20,0,4,324,342,3699,49,45,922,1853,1935,2154,2336,2200,1917,1976,2152
470498,494852,593076,494724,593028,-547,247,-27,-9,-1,262,233,3891,48,46,923,1858,1942,2156,2341,2168,1914,1974,2150
471499,494928,593176,494789,593093,40,-196,-24,-10,-10,-55,244,3782,56,59,922,1858,1942,2156,2341,2168,1914,1974,2150
472500,495024,593264,494854,593158,-248,-74,-14,-4,-16,48,176,3935,49,45,921,1858,1942,2156,2341,2168,1914,1974,2150
473501,495104,593340,494919,593223,-66,63,-13,-3,-5,212,154,3724,48,55,921,1858,1942,2156,2341,2168,1914,1974,2150
474502,495208,593420,494984,593288,-414,-6,-7,6,-4,182,117,3944,41,40,922,1858,1942,2156,2341,2168,1914,1974,2150
475503,495292,593496,495049,593353,-187,31,1,5,-12,113,147,3844,55,43,921,1856,1941,2157,2339,2200,1917,1976,2154
476504,495372,593576,495114,593418,-155,-37,2,12,-9,97,146,3922,44,39,922,1856,1941,2157,2339,2200,1917,1976,2154
477505,495448,593644,495179,593483,-120,108,1,17,4,177,161,3738,41,46,911,1856,1941,2157,2339,2200,1917,1976,2154
478506,495528,593728,495244,593548,-188,-115,-1,9,10,237,200,3885,37,45,905,1856,1941,2157,2339,2200,1917,1976,2154
479507,495600,593820,495309,593613,-97,-248,-3,17,10,240,238,3805,45,40,909,1856,1941,2157,2339,2200,1917,1976,2154
480508,495692,593872,495374,593678,-380,268,-4,10,12,-3,160,3744,50,36,901,1856,1941,2157,2339,2200,1917,1976,2154
481509,495748,593936,495439,593743,81,119,-3,19,15,226,251,3929,41,47,914,1855,1940,2208,2400,2188,1908,2047,2296
482510,495812,594020,495504,593808,-17,-154,-8,10,-3,142,173,3698,47,41,920,1855,1940,2208,2400,2188,1908,2047,2296
483511,495876,594072,495569,593873,-16,262,-10,7,-7,111,237,3981,43,39,921,1855,1940,2208,2400,2188,1908,2047,2296
484512,495944,594140,495634,593938,-70,58,-15,4,-11,164,279,3712,40,33,921,1855,1940,2208,2400,2188,1908,2047,2296
485513,496000,594196,495699,594003,90,219,-22,-6,-14,-105,171,3909,36,33,921,1855,1940,2208,2400,2188,1908,2047,2296
486514,496068,594244,495764,594068,-64,340,-12,4,-11,149,154,3934,43,46,921,1855,1939,2154,2336,2201,1919,1977,2155
487515,496116,594320,495829,594133,207,-24,-10,4,-8,228,159,3704,41,45,921,1855,1939,2154,2336,2201,1919,1977,2155
488516,496180,594392,495894,594198,8,18,-5,14,-3,93,139,3956,28,34,918,1855,1939,2154,2336,2201,1919,1977,2155
489517,496224,594452,495959,594263,284,174,-2,10,10,-22,90,3786,30,37,921,1855,1939,2154,2336,2201,1919,1977,2155
490518,496280,594516,496024,594328,145,124,6,19,15,244,190,3965,30,35,923,1855,1939,2154,2336,2201,1919,1977,2155
491519,496340,594584,496089,594393,101,70,2,16,21,212,134,3672,42,38,920,1855,1939,2154,2336,2201,1919,1977,2155
492520,496404,594652,496154,594458,52,67,-4,17,26,214,185,3963,26,41,921,1854,1939,2154,2338,2201,1919,1977,2153
493521,496444,594724,496219,594523,383,8,-6,9,18,249,262,3683,36,35,922,1854,1939,2154,2338,2201,1919,1977,2153
494522,496496,594800,496284,594588,249,-55,-15,10,19,77,256,3870,33,41,922,1854,1939,2154,2338,2201,1919,1977,2153
495523,496548,594908,496349,594653,264,-508,-20,12,6,147,249,3712,28,42,917,1854,1939,2154,2338,2201,1919,1977,2153
496524,496592,594972,496414,594718,389,43,-18,6,-3,151,228,3851,41,33,918,1854,1939,2154,2338,2201,1919,1977,2153
497525,496672,595048,496479,594783,-79,-120,-17,10,-1,48,150,3778,30,34,915,1858,1941,2155,2338,2198,1917,1976,2154
498526,496720,595132,496544,594848,342,-243,-15,2,-12,57,188,3834,43,32,919,1858,1941,2155,2338,2198,1917,1976,2154
499527,496772,595208,496609,594913,308,-157,-5,6,-14,142,90,3867,28,30,918,1858,1941,2155,2338,2198,1917,1976,2154
500528,496824,595244,496674,594978,323,379,-5,9,-6,142,155,3811,23,32,918,1858,1941,2155,2338,2198,1917,1976,2154
501529,496884,595288,496739,595043,229,303,-1,8,-12,29,225,3833,39,27,919,1858,1941,2155,2338,2198,1917,1976,2154
502530,496944,595312,496804,595108,236,603,-7,6,-11,66,200,3826,42,39,917,1858,1941,2155,2338,2198,1917,1976,2154
503531,496996,595348,496869,595173,351,489,-9,3,-7,205,251,3848,43,39,919,1857,1939,2155,2340,2200,1916,1976,2152
504532,497068,595352,496934,595238,93,963,-12,3,-6,125,259,3759,42,42,915,1857,1939,2155,2340,2200,1916,1976,2152
505533,497124,595400,496999,595303,304,434,-18,-1,-6,52,162,3831,26,39,916,1857,1939,2155,2340,2200,1916,1976,2152
506534,497164,595464,497064,595368,534,235,-15,3,11,91,195,3804,25,46,911,1857,1939,2155,2340,2200,1916,1976,2152
507535,497228,595532,497129,595433,236,182,-12,4,27,72,184,3871,25,41,916,1857,1939,2155,2340,2200,1916,1976,2152
508536,497320,595604,497194,595498,-147,123,-8,6,30,123,136,3905,34,35,916,1857,1942,2158,2340,2201,1917,1975,2156
509537,497352,595664,497259,595563,643,279,-1,1,34,228,107,3813,44,45,920,1857,1942,2158,2340,2201,1917,1975,2156
510538,497416,595748,497324,595628,244,-44,0,12,29,269,211,3832,27,52,907,1857,1942,2158,2340,2201,1917,1975,2156
511539,497480,595828,497389,595693,245,-12,-5,7,10,213,282,3798,39,51,914,1857,1942,2158,2340,2201,1917,1975,2156
512540,497528,595916,497454,595758,466,-140,-19,2,2,122,268,3834,47,43,918,1857,1942,2158,2340,2201,1917,1975,2156
513541,497576,596000,497519,595823,486,-114,-31,3,-14,99,345,3786,48,45,918,1857,1942,2158,2340,2201,1917,1975,2156
514542,497660,596136,497584,595888,13,-850,-31,0,-28,145,210,3752,31,42,918,1858,1942,2157,2339,2202,1918,1977,2154
515543,497728,596252,497649,595953,209,-662,-24,-8,-15,257,124,3941,34,28,917,1858,1942,2157,2339,2202,1918,1977,2154
516544,497804,596312,497714,596018,96,43,-24,-9,-13,58,120,3884,31,25,913,1858,1942,2157,2339,2202,1918,1977,2154
517546,497864,596352,497779,596083,302,323,-23,-11,-32,-89,107,3853,42,34,914,1858,1942,2157,2339,2202,1918,1977,2154
518546,497928,596408,497844,596148,253,134,-11,4,-20,76,164,3936,31,33,921,1858,1942,2157,2339,2202,1918,1977,2154
519547,497992,596452,497909,596213,254,310,-9,20,-10,229,215,3676,32,38,918,1852,1936,2152,2331,2203,1922,1979,2155
520548,498040,596508,497974,596278,475,171,-7,7,-4,-31,121,3998,38,27,920,1852,1936,2152,2331,2203,1922,1979,2155
521549,498132,596544,498039,596343,-108,456,2,15,2,240,174,3925,36,41,918,1852,1936,2152,2331,2203,1922,1979,2155
522550,498208,596592,498104,596408,79,327,-2,11,14,246,182,3655,32,37,917,1852,1936,2152,2331,2203,1922,1979,2155
523551,498268,596576,498169,596473,285,1226,-9,12,22,165,232,3986,46,34,911,1852,1936,2152,2331,2203,1922,1979,2155
524552,498316,596588,498234,596538,455,940,-12,3,26,54,215,3810,31,40,919,1852,1936,2152,2331,2203,1922,1979,2155
525553,498392,596636,498299,596603,92,511,-11,6,32,91,260,3690,46,40,906,1854,1939,2155,2338,2200,1919,1978,2153
526554,498472,596704,498364,596668,24,258,-19,10,44,139,203,3810,43,42,909,1854,1939,2155,2338,2200,1919,1978,2153
527555,498540,596780,498429,596733,170,144,-19,-4,34,73,237,3795,45,50,917,1854,1939,2155,2338,2200,1919,1978,2153
528556,498596,596864,498494,596798,331,21,-22,-5,23,86,148,3965,44,53,921,1854,1939,2155,2338,2200,1919,1978,2153
529557,498660,596924,498559,596863,232,327,-13,3,20,75,146,3699,35,46,919,1854,1939,2155,2338,2200,1919,1978,2153
530558,498728,597024,498624,596928,179,-216,-12,13,10,127,137,3856,38,55,918,1858,1940,2156,2338,2198,1916,1974,2152
531559,498804,597100,498689,596993,65,71,-9,10,-7,147,183,3920,40,52,919,1858,1940,2156,2338,2198,1916,1974,2152
532560,498860,597176,498754,597058,326,57,-16,4,-17,84,239,3752,30,50,920,1858,1940,2156,2338,2198,1916,1974,2152
533561,498916,597264,498819,597123,337,-121,-16,-2,-25,20,254,3832,41,46,921,1858,1940,2156,2338,2198,1916,1974,2152
534562,498996,597348,498884,597188,19,-95,-19,-2,-30,106,237,3799,42,50,920,1858,1940,2156,2338,2198,1916,1974,2152
535563,499072,597500,498949,597253,55,-1051,-16,-3,-26,224,219,3796,37,37,919,1858,1940,2156,2338,2198,1916,1974,2152
536564,499128,597612,499014,597318,316,-608,-13,5,-5,264,145,3810,37,32,922,1857,1941,2159,2340,2196,1915,1975,2153
537565,499208,597644,499079,597383,-2,432,-7,-6,0,305,104,3935,25,39,908,1857,1941,2159,2340,2196,1915,1975,2153
538566,499256,597700,499144,597448,418,143,-11,-1,-5,209,171,3821,30,36,913,1857,1941,2159,2340,2196,1915,1975,2153
539567,499332,597744,499209,597513,54,319,-4,-10,10,99,234,3902,29,41,919,1857,1941,2159,2340,2196,1915,1975,2153
540568,499400,597788,499274,597578,151,344,-12,18,14,66,284,3656,42,30,918,1857,1941,2159,2340,2196,1915,1975,2153
541569,499464,597812,499339,597643,202,644,-24,-4,8,-114,178,3936,32,31,920,1859,1942,2157,2338,2195,1918,1980,2158
542570,499528,597812,499404,597708,203,1024,-25,-8,-4,31,280,3837,33,41,919,1859,1942,2157,2338,2195,1918,1980,2158
543571,499608,597832,499469,597773,-15,828,-33,-17,1,96,216,3677,41,35,915,1859,1942,2157,2338,2195,1918,1980,2158
544572,499668,597888,499534,597838,241,389,-30,-3,11,-58,171,3924,38,51,910,1859,1942,2157,2338,2195,1918,1980,2158
545573,499732,597948,499599,597903,192,346,-23,-1,17,-155,135,3911,29,51,914,1859,1942,2157,2338,2195,1918,1980,2158
546574,499800,598024,499664,597968,138,132,-14,-7,20,2,72,3797,48,44,915,1859,1942,2157,2338,2195,1918,1980,2158
547575,499860,598104,499729,598033,245,64,-4,3,26,379,116,3962,43,46,917,1856,1940,2156,2335,2206,1922,1981,2157
548576,499928,598188,499794,598098,141,-9,7,6,26,422,138,3793,35,43,921,1856,1940,2156,2335,2206,1922,1981,2157
549577,499988,598264,499859,598163,247,77,6,22,20,225,147,3781,48,43,920,1856,1940,2156,2335,2206,1922,1981,2157
550578,500044,598344,499924,598228,308,9,2,16,5,192,234,3797,32,48,922,1856,1940,2156,2335,2206,1922,1981,2157
551579,500112,598436,499989,598293,154,-175,-8,13,2,427,269,3823,48,45,920,1856,1940,2156,2335,2206,1922,1981,2157
552580,500188,598512,500054,598358,41,12,-16,1,-7,86,301,3719,35,45,921,1854,1938,2153,2336,2203,1920,1977,2153
553581,500256,598584,500119,598423,137,53,-28,-8,-16,-104,252,3907,29,41,920,1854,1938,2153,2336,2203,1920,1977,2153
554582,500308,598680,500184,598488,353,-285,-32,-9,-18,9,263,3816,30,50,923,1854,1938,2153,2336,2203,1920,1977,2153
555583,500380,598752,500249,598553,95,7,-33,-21,-18,-4,241,3693,30,40,922,1854,1938,2153,2336,2203,1920,1977,2153
556584,500436,598832,500314,598618,306,-112,-30,-21,-11,15,133,4058,30,48,918,1854,1938,2153,2336,2203,1920,1977,2153
557585,500516,598896,500379,598683,-13,89,-24,-13,-10,216,132,3869,30,34,922,1854,1938,2153,2336,2203,1920,1977,2153
558586,500580,598952,500444,598748,187,200,-14,-1,-7,203,62,3772,34,41,919,1856,1939,2155,2337,2202,1921,1978,2156
559587,500628,599012,500509,598813,408,157,-9,4,0,245,163,3920,42,34,922,1856,1939,2155,2337,2202,1921,1978,2156
560588,500724,599064,500574,598878,-230,272,-6,12,8,156,184,3876,46,49,921,1856,1939,2155,2337,2202,1921,1978,2156
561589,500792,599128,500639,598943,117,124,-6,13,14,156,168,3713,34,50,918,1856,1939,2155,2337,2202,1921,1978,2156
562590,500868,599188,500704,599008,3,180,-5,9,27,216,184,3885,38,49,893,1856,1939,2155,2337,2202,1921,1978,2156
563591,500940,599252,500769,599073,45,131,-10,9,28,188,284,3813,47,37,918,1855,1942,2160,2336,2195,1902,1983,2144
564592,501004,599312,500834,599138,146,187,-15,3,29,66,293,3763,47,47,918,1855,1942,2160,2336,2195,1902,1983,2144
565593,501076,599376,500899,599203,37,137,-24,3,24,33,241,3851,43,33,921,1855,1942,2160,2336,2195,1902,1983,2144
566594,501148,599424,500964,599268,29,358,-24,-3,22,-2,209,3851,36,46,920,1855,1942,2160,2336,2195,1902,1983,2144
567595,501212,599500,501029,599333,130,-5,-22,-3,16,104,175,3767,48,34,922,1855,1942,2160,2336,2195,1902,1983,2144
568596,501280,599560,501094,599398,76,201,-18,5,12,-27,120,3885,38,46,920,1859,1944,2158,2339,2198,1914,1976,2153
569597,501340,599620,501159,599463,183,207,-12,1,6,84,156,3808,29,34,922,1859,1944,2158,2339,2198,1914,1976,2153
570598,501412,599680,501224,599528,24,213,-12,-3,2,129,121,3787,28,40,921,1859,1944,2158,2339,2198,1914,1976,2153
571599,501468,599756,501289,599593,235,0,-8,-8,-5,15,251,3970,32,37,920,1859,1944,2158,2339,2198,1914,1976,2153
572600,501548,599832,501354,599658,-83,-14,-17,-2,-2,84,250,3670,44,32,921,1859,1944,2158,2339,2198,1914,1976,2153
573601,501596,599892,501419,599723,336,192,-22,-7,-11,148,260,3938,45,39,921,1859,1944,2158,2339,2198,1914,1976,2153
574602,501664,599944,501484,599788,83,308,-25,-16,-18,-105,226,3810,30,37,918,1858,1942,2155,2337,2199,1917,1978,2155
575603,501732,600016,501549,599853,79,50,-24,-13,-16,120,224,3797,37,36,919,1858,1942,2155,2337,2199,1917,1978,2155
576604,501808,600072,501614,599918,-34,261,-26,-16,-10,443,212,3767,43,48,920,1858,1942,2155,2337,2199,1917,1978,2155
577605,501864,600144,501679,599983,227,52,-22,-1,-7,261,205,3914,36,42,922,1858,1942,2155,2337,2199,1917,1978,2155
578606,501952,600212,501744,600048,-201,98,-21,-2,1,-17,106,3720,28,43,921,1858,1942,2155,2337,2199,1917,1978,2155
579607,502028,600268,501809,600113,-65,259,-12,7,10,280,74,3860,40,39,921,1856,1939,2153,2335,2202,1919,1978,2155
580608,502100,600332,501874,600178,-23,160,0,10,16,419,122,3999,37,46,897,1856,1939,2153,2335,2202,1919,1978,2155
581609,502156,600392,501939,600243,188,216,-6,2,19,-24,213,3743,28,41,917,1856,1939,2153,2335,2202,1919,1978,2155
582610,502232,600464,502004,600308,-76,57,-11,9,24,-6,244,3834,43,44,921,1856,1939,2153,2335,2202,1919,1978,2155
583611,502304,600536,502069,600373,-34,49,-14,7,13,148,211,3919,43,32,920,1856,1939,2153,2335,2202,1919,1978,2155
584612,502360,600588,502134,600438,177,314,-13,-4,10,-13,192,3705,42,46,919,1856,1939,2153,2335,2202,1919,1978,2155
585613,502420,600644,502199,600503,132,275,-13,1,-2,36,335,3817,43,38,922,1854,1939,2155,2336,2201,1917,1977,2151
586614,502484,600724,502264,600568,83,-43,-30,-12,-2,-196,234,3870,35,44,919,1854,1939,2155,2336,2201,1917,1977,2151
587615,502548,600776,502329,600633,84,323,-27,-11,-7,-41,241,3744,31,36,919,1854,1939,2155,2336,2201,1917,1977,2151
588616,502612,600836,502394,600698,85,229,-25,-12,-6,68,189,3838,28,32,922,1854,1939,2155,2336,2201,1917,1977,2151
589617,502684,600892,502459,600763,-23,290,-27,-19,-9,71,174,3832,27,31,920,1854,1939,2155,2336,2201,1917,1977,2151
590618,502744,600948,502524,600828,133,301,-24,-14,-4,189,199,3755,34,46,921,1856,1938,2155,2335,2199,1916,1976,2155
591619,502804,601004,502589,600893,139,312,-26,-12,-1,268,231,3826,32,46,921,1856,1938,2155,2335,2199,1916,1976,2155
592620,502868,601072,502654,600958,90,158,-23,-10,5,226,155,3744,32,34,919,1856,1938,2155,2335,2199,1916,1976,2155
593621,502924,601124,502719,601023,201,374,-23,-2,3,239,203,3943,37,46,919,1856,1938,2155,2335,2199,1916,1976,2155
594622,502996,601172,502784,601088,-7,445,-20,-3,6,269,98,3692,29,34,921,1856,1938,2155,2335,2199,1916,1976,2155
595623,503056,601232,502849,601153,149,301,-15,4,3,336,198,3902,46,33,918,1856,1938,2155,2335,2199,1916,1976,2155
596624,503120,601292,502914,601218,100,307,-18,3,10,192,189,3744,29,46,919,1857,1942,2157,2335,2199,1917,1977,2155
597625,503192,601352,502979,601283,-10,313,-16,3,10,169,157,3870,30,37,917,1857,1942,2157,2335,2199,1917,1977,2155
598626,503260,601400,503044,601348,37,484,-18,2,16,-55,193,3820,46,36,918,1857,1942,2157,2335,2199,1917,1977,2155
599627,503324,601460,503109,601413,88,340,-19,1,13,-91,208,3777,29,39,920,1857,1942,2157,2335,2199,1917,1977,2155
600628,503384,601528,503174,601478,144,236,-17,-2,15,203,219,3904,28,46,918,1857,1942,2157,2335,2199,1917,1977,2155
601629,503452,601608,503239,601543,40,67,-16,8,12,10,249,3680,28,47,919,1858,1944,2154,2336,2197,1913,1975,2151
602630,503508,601684,503304,601608,201,104,-17,-8,9,-46,158,3866,29,46,920,1858,1944,2154,2336,2197,1913,1975,2151
603631,503564,601756,503369,601673,212,145,-17,-9,-2,118,238,3937,31,38,922,1858,1944,2154,2336,2197,1913,1975,2151
604632,503636,601840,503434,601738,4,-28,-22,-3,-3,178,208,3702,42,46,921,1858,1944,2154,2336,2197,1913,1975,2151
605633,503712,601908,503499,601803,-60,168,-24,-6,0,114,168,3832,41,40,920,1858,1944,2154,2336,2197,1913,1975,2151
606634,503788,601972,503564,601868,-73,220,-21,-7,-4,143,224,3848,37,45,923,1858,1944,2154,2336,2197,1913,1975,2151
607635,503852,602044,503629,601933,78,111,-24,-15,-4,115,158,3782,37,35,920,1858,1941,2151,2338,2198,1916,1977,2153
608637,503900,602132,503694,601998,299,-117,-26,-14,-3,288,237,3683,42,42,921,1858,1941,2151,2338,2198,1916,1977,2153
609637,503956,602180,503759,602063,209,404,-22,-9,-5,143,173,4070,29,35,919,1858,1941,2151,2338,2198,1916,1977,2153
610638,504024,602248,503824,602128,55,150,-19,-10,-5,24,149,3673,35,48,918,1858,1941,2151,2338,2198,1916,1977,2153
611639,504088,602312,503889,602193,107,201,-14,-6,0,133,122,3836,31,48,921,1858,1941,2151,2338,2198,1916,1977,2153
612640,504152,602372,503954,602258,108,257,-11,-4,3,282,226,3952,30,36,921,1856,1939,2154,2336,2197,1913,1975,2154
613641,504224,602440,504019,602323,-1,154,-18,-1,1,72,201,3719,26,49,918,1856,1939,2154,2336,2197,1913,1975,2154
614642,504292,602484,504084,602388,46,479,-16,-12,7,41,162,3842,29,48,919,1856,1939,2154,2336,2197,1913,1975,2154
615643,504352,602548,504149,602453,152,231,-21,-9,14,122,221,3832,35,36,919,1856,1939,2154,2336,2197,1913,1975,2154
616644,504416,602612,504214,602518,103,232,-17,-6,7,8,213,3736,44,38,920,1856,1939,2154,2336,2197,1913,1975,2154
617645,504448,602700,504279,602583,543,-96,-20,-9,11,-70,219,3939,42,36,920,1856,1939,2154,2336,2197,1913,1975,2154
618646,504500,602764,504344,602648,309,205,-19,0,12,163,252,3675,28,41,917,1856,1940,2155,2335,2197,1915,1974,2152
619647,504560,602844,504409,602713,215,-13,-30,-5,7,208,197,3914,36,52,919,1856,1940,2155,2335,2197,1915,1974,2152
620648,504628,602924,504474,602778,112,-32,-24,-10,5,252,175,3730,31,49,921,1856,1940,2155,2335,2197,1915,1974,2152
621649,504700,602996,504539,602843,53,60,-20,-5,2,243,200,3958,36,34,922,1856,1940,2155,2335,2197,1915,1974,2152
622650,504768,603068,504604,602908,98,51,-23,-12,-4,202,206,3623,43,45,922,1856,1940,2155,2335,2197,1915,1974,2152
623651,504848,603120,504669,602973,-70,316,-21,-12,-5,169,216,3971,38,42,922,1854,1939,2153,2332,2199,1915,1976,2155
624652,504916,603200,504734,603038,76,-52,-24,-7,-6,95,192,3725,48,39,917,1854,1939,2153,2332,2199,1915,1976,2155
625653,504968,603260,504799,603103,292,204,-33,-12,-5,-17,203,3878,37,35,922,1854,1939,2153,2332,2199,1915,1976,2155
626654,505032,603304,504864,603168,143,429,-26,-13,-4,12,158,3792,28,32,919,1854,1939,2153,2332,2199,1915,1976,2155
627655,505108,603376,504929,603233,-20,71,-23,-13,-4,161,177,3885,40,32,918,1854,1939,2153,2332,2199,1915,1976,2155
628656,505188,603420,504994,603298,-88,447,-26,-11,-2,56,183,3849,34,43,922,1854,1939,2153,2332,2199,1915,1976,2155
629657,505256,603484,505059,603363,58,198,-18,-4,-4,176,187,3805,32,31,914,1856,1941,2154,2334,2202,1916,1979,2156
630658,505332,603544,505124,603428,-55,254,-12,1,4,70,127,3863,44,33,919,1856,1941,2154,2334,2202,1916,1979,2156
631659,505396,603600,505189,603493,96,315,-12,7,11,173,209,3819,47,44,918,1856,1941,2154,2334,2202,1916,1979,2156
632660,505460,603648,505254,603558,97,436,-15,-3,16,300,209,3825,29,38,919,1856,1941,2154,2334,2202,1916,1979,2156
633661,505508,603724,505319,603623,318,72,-22,0,17,-59,212,3765,34,40,918,1856,1941,2154,2334,2202,1916,1979,2156
634662,505572,603784,505384,603688,119,278,-17,-8,14,86,202,3902,43,42,919,1858,1944,2156,2340,2200,1917,1977,2153
635663,505656,603840,505449,603753,-154,339,-17,-4,7,217,224,3783,30,43,919,1858,1944,2156,2340,2200,1917,1977,2153
636664,505736,603896,505514,603818,-123,350,-22,0,5,107,190,3856,33,49,904,1858,1944,2156,2340,2200,1917,1977,2153
637665,505780,603952,505579,603883,352,361,-19,-17,-1,223,221,3723,46,39,909,1858,1944,2156,2340,2200,1917,1977,2153
638666,505840,604036,505644,603948,158,-12,-27,-8,-5,-143,228,3824,35,40,917,1858,1944,2156,2340,2200,1917,1977,2153
639667,505896,604120,505709,604013,219,-35,-26,-6,-3,179,155,3824,32,51,921,1858,1944,2156,2340,2200,1917,1977,2153
640668,505968,604196,505774,604078,11,51,-20,-1,7,345,86,3877,31,46,921,1859,1942,2151,2335,2200,1915,1975,2156
641669,506040,604272,505839,604143,2,38,-10,0,5,12,157,3784,39,41,922,1859,1942,2151,2335,2200,1915,1975,2156
642670,506112,604328,505904,604208,-6,299,-8,-1,3,63,136,3898,31,35,922,1859,1942,2151,2335,2200,1915,1975,2156
643671,506160,604404,505969,604273,314,36,-6,3,6,270,225,3842,40,41,920,1859,1942,2151,2335,2200,1915,1975,2156
644675,506224,604480,506034,604338,116,21,-10,2,6,57,214,3763,44,37,920,1859,1942,2151,2335,2200,1915,1975,2156
645673,506284,604544,506099,604403,172,172,-13,1,5,12,214,3875,34,46,921,1856,1939,2155,2336,2194,1912,1972,2148
646674,506340,604600,506164,604468,233,283,-19,-5,-1,34,224,3823,43,39,920,1856,1939,2155,2336,2194,1912,1972,2148
647675,506412,604648,506229,604533,24,404,-21,-18,-5,-158,225,3740,34,36,917,1856,1939,2155,2336,2194,1912,1972,2148
648676,506468,604716,506294,604598,235,150,-23,-17,-12,172,257,3892,34,34,918,1856,1939,2155,2336,2194,1912,1972,2148
649677,506552,604780,506359,604663,-139,202,-27,-15,-3,249,183,3802,39,45,920,1856,1939,2155,2336,2194,1912,1972,2148
650678,506644,604848,506424,604728,-272,148,-26,-7,0,75,163,3812,43,46,907,1856,1939,2155,2336,2194,1912,1972,2148
651679,506704,604884,506489,604793,134,583,-16,-4,-1,217,110,3931,29,46,921,1858,1941,2154,2336,2198,1916,1976,2154
652680,506764,604952,506554,604858,140,180,-9,2,3,317,193,3752,40,44,916,1858,1941,2154,2336,2198,1916,1976,2154
653681,506832,605016,506619,604923,36,231,-13,0,8,299,194,3927,30,34,920,1858,1941,2154,2336,2198,1916,1976,2154
654682,506900,605052,506684,604988,33,616,-11,3,10,165,158,3812,39,38,921,1858,1941,2154,2336,2198,1916,1976,2154
655683,506984,605132,506749,605053,-190,48,-13,8,12,152,211,3841,36,45,917,1858,1941,2154,2336,2198,1916,1976,2154
656684,507044,605192,506814,605118,116,304,-14,9,9,100,192,3828,31,38,902,1853,1939,2154,2334,2200,1917,1979,2155
657685,507104,605284,506879,605183,122,-129,-8,8,2,153,218,3796,30,38,919,1853,1939,2154,2334,2200,1917,1979,2155
658686,507172,605356,506944,605248,18,113,-7,3,7,116,172,3789,31,47,920,1853,1939,2154,2334,2200,1917,1979,2155
659687,507248,605428,507009,605313,-95,104,-3,7,6,145,188,3876,30,46,922,1853,1939,2154,2334,2200,1917,1979,2155
660688,507292,605516,507074,605378,329,-124,-11,1,8,-196,207,3824,43,40,916,1853,1939,2154,2334,2200,1917,1979,2155
661689,507352,605580,507139,605443,135,177,-13,-6,-2,-223,235,3845,45,44,918,1853,1939,2154,2334,2200,1917,1979,2155
662690,507400,605644,507204,605508,306,178,-21,-16,-2,-9,220,3819,40,31,920,1856,1940,2153,2337,2199,1915,1978,2152
663691,507496,605720,507269,605573,-332,15,-24,-21,-13,-169,290,3841,30,32,919,1856,1940,2153,2337,2199,1915,1978,2152
664692,507548,605780,507334,605638,234,221,-36,-30,-20,58,236,3753,41,41,920,1856,1940,2153,2337,2199,1915,1978,2152
665693,507616,605832,507399,605703,31,337,-35,-20,-16,279,225,3905,30,37,917,1856,1940,2153,2337,2199,1915,1978,2152
666694,507684,605896,507464,605768,27,187,-37,-20,-14,257,127,3780,40,44,920,1856,1940,2153,2337,2199,1915,1978,2152
667695,507760,605948,507529,605833,-86,353,-22,-4,-7,469,124,3935,41,44,921,1856,1939,2154,2320,2200,1917,1976,2156
668696,507844,606004,507594,605898,-210,314,-12,7,8,499,81,3849,39,38,914,1856,1939,2154,2320,2200,1917,1976,2156
669697,507892,606076,507659,605963,261,106,-5,8,14,287,112,3883,27,31,896,1856,1939,2154,2320,2200,1917,1976,2156
670698,507964,606144,507724,606028,-47,152,1,16,15,384,158,3806,46,43,919,1856,1939,2154,2320,2200,1917,1976,2156
671699,508008,606204,507789,606093,328,258,1,23,21,361,190,3843,37,45,921,1856,1939,2154,2320,2200,1917,1976,2156
672700,508076,606248,507854,606158,24,484,-1,16,25,22,211,3801,31,39,918,1856,1939,2154,2320,2200,1917,1976,2156
673701,508160,606308,507919,606223,-200,290,-7,18,12,-53,332,3789,33,38,918,1856,1940,2130,2306,2195,1913,1973,2149
674702,508220,606368,507984,606288,106,296,-11,14,5,-40,238,3927,37,33,898,1856,1940,2130,2306,2195,1913,1973,2149
675703,508272,606464,508049,606353,222,-192,-18,0,5,-30,266,3648,47,46,919,1856,1940,2130,2306,2195,1913,1973,2149
676704,508340,606536,508114,606418,19,99,-23,-6,-4,-336,238,3892,31,45,919,1856,1940,2130,2306,2195,1913,1973,2149
677705,508388,606600,508179,606483,289,201,-28,-12,-12,-166,188,3759,40,32,921,1856,1940,2130,2306,2195,1913,1973,2149
678706,508448,606664,508244,606548,145,202,-32,-22,-11,-58,184,3873,40,30,918,1859,1927,2143,2340,2196,1913,1974,2148
679707,508520,606740,508309,606613,-13,38,-26,-17,-9,-1,163,3895,33,35,920,1859,1927,2143,2340,2196,1913,1974,2148
680708,508576,606780,508374,606678,198,519,-23,-17,-7,111,152,3863,29,30,922,1859,1927,2143,2340,2196,1913,1974,2148
681709,508644,606864,508439,606743,44,-54,-18,-11,-5,437,208,3855,47,30,915,1859,1927,2143,2340,2196,1913,1974,2148
682710,508704,606912,508504,606808,150,417,-19,-10,0,322,182,3774,46,36,920,1859,1927,2143,2340,2196,1913,1974,2148
683711,508788,606980,508569,606873,-174,163,-19,-6,4,392,163,3881,35,38,918,1859,1927,2143,2340,2196,1913,1974,2148
684712,508832,607044,508634,606938,352,214,-15,0,3,468,146,3761,38,43,904,1855,1940,2155,2335,2197,1914,1979,2159
685713,508892,607104,508699,607003,158,270,-7,11,13,367,120,3929,33,31,917,1855,1940,2155,2335,2197,1914,1979,2159
686714,508956,607176,508764,607068,109,112,-8,22,7,364,211,3848,34,31,918,1855,1940,2155,2335,2197,1914,1979,2159
687715,509024,607224,508829,607133,55,432,-6,17,11,18,139,3869,47,33,920,1855,1940,2155,2335,2197,1914,1979,2159
688716,509092,607292,508894,607198,52,179,-5,17,13,28,182,3737,43,33,918,1855,1940,2155,2335,2197,1914,1979,2159
689717,509148,607352,508959,607263,213,284,-6,-2,12,-37,192,3943,48,34,921,1850,1940,2153,2334,2200,1916,1977,2153
690718,509196,607424,509024,607328,334,125,-6,11,5,-14,252,3774,35,40,919,1850,1940,2153,2334,2200,1916,1977,2153
691719,509292,607496,509089,607393,-304,117,-17,-7,4,-196,210,3721,44,45,918,1850,1940,2153,2334,2200,1916,1977,2153
692720,509352,607544,509154,607458,152,438,-23,-8,-9,-71,236,3822,43,45,921,1850,1940,2153,2334,2200,1916,1977,2153
693721,509408,607612,509219,607523,213,184,-24,-11,-16,77,222,3820,37,42,917,1850,1940,2153,2334,2200,1916,1977,2153
694723,509488,607668,509284,607588,-106,345,-25,-8,-15,55,225,3820,39,31,919,1850,1940,2153,2334,2200,1916,1977,2153
695723,509552,607732,509349,607653,96,246,-24,-6,-9,242,166,3772,50,42,911,1856,1939,2153,2336,2198,1915,1975,2152
696724,509616,607800,509414,607718,96,192,-18,-3,-9,277,146,3859,32,37,919,1856,1939,2153,2336,2198,1915,1975,2152
697725,509696,607868,509479,607783,-122,189,-11,-2,-7,251,178,3898,42,38,920,1856,1939,2153,2336,2198,1915,1975,2152
698726,509760,607936,509678,607982,242,349,-7,8,2,275,155,3810,41,43,910,1856,1939,2153,2336,2198,1915,1975,2152
699727,509836,608004,509743,608047,79,345,-3,8,8,263,168,3847,47,45,915,1856,1939,2153,2336,2198,1915,1975,2152
700728,509904,608064,509808,608112,175,451,-11,11,7,278,243,3846,47,33,918,1855,1939,2151,2334,2198,1916,1974,2152
701729,509988,608144,509873,608177,-48,183,-11,4,12,137,200,3779,37,41,917,1855,1939,2151,2334,2198,1916,1974,2152
702730,510040,608216,509938,608242,368,274,-12,10,14,154,250,3835,34,44,920,1855,1939,2151,2334,2198,1916,1974,2152
703731,510116,608276,510003,608307,55,430,-12,1,12,-41,214,3844,39,35,917,1855,1939,2151,2334,2198,1916,1974,2152
704732,510184,608364,510068,608372,151,52,-16,1,9,-114,238,3896,34,47,918,1855,1939,2151,2334,2198,1916,1974,2152
705733,510248,608432,510133,608437,202,299,-18,-4,3,-17,222,3694,32,46,921,1855,1939,2151,2334,2198,1916,1974,2152
706734,510304,608512,510198,608502,313,130,-22,-7,-7,-13,215,3916,37,36,918,1856,1939,2153,2335,2194,1913,1973,2149
707735,510340,608592,510263,608567,599,112,-20,-13,-9,-102,190,3797,48,43,918,1856,1939,2153,2335,2194,1913,1973,2149
708736,510408,608648,510328,608632,195,423,-23,-8,-10,100,243,3779,33,49,914,1856,1939,2153,2335,2194,1913,1973,2149
709737,510484,608732,510393,608697,81,50,-22,-9,-10,67,171,3940,49,51,917,1856,1939,2153,2335,2194,1913,1973,2149
710738,510580,608812,510458,608762,-206,81,-24,-7,-5,219,89,3857,53,49,921,1856,1939,2153,2335,2194,1913,1973,2149
711739,510648,608860,510523,608827,140,502,-13,1,-8,583,188,3859,53,43,898,1858,1940,2154,2334,2199,1916,1977,2155
712740,510716,608956,510588,608892,136,-136,-10,6,-5,350,138,3795,47,52,916,1858,1940,2154,2334,2199,1916,1977,2155
713741,510812,609012,510653,608957,-252,375,-12,6,-1,14,191,3812,37,44,920,1858,1940,2154,2334,2199,1916,1977,2155
714742,510880,609088,510718,609022,95,112,-7,6,5,225,176,4002,33,43,915,1858,1940,2154,2334,2199,1916,1977,2155
715743,510944,609168,510783,609087,146,44,-5,17,8,495,150,3617,37,44,920,1858,1940,2154,2334,2199,1916,1977,2155
716744,511012,609252,510848,609152,91,-30,-10,4,17,10,199,3863,51,43,918,1858,1940,2154,2334,2199,1916,1977,2155
717745,511100,609336,510913,609217,-187,-53,-11,9,8,-150,315,3957,34,46,921,1858,1942,2151,2335,2197,1915,1978,2156
718746,511164,609392,510978,609282,114,308,-15,1,3,127,216,3661,44,49,902,1858,1942,2151,2335,2197,1915,1978,2156
719747,511244,609476,511043,609347,-104,-65,-18,-5,8,-42,182,3845,37,45,919,1858,1942,2151,2335,2197,1915,1978,2156
720748,511296,609540,511108,609412,262,186,-20,-11,7,-236,192,3898,48,33,913,1858,1942,2151,2335,2197,1915,1978,2156
721749,511372,609600,511173,609477,-51,242,-24,-9,-5,3,252,3870,34,32,919,1858,1942,2151,2335,2197,1915,1978,2156
722750,511448,609676,511238,609542,-65,29,-24,-12,-6,-150,176,3668,42,33,920,1857,1917,2126,2335,2198,1917,1977,2152
723751,511508,609752,511303,609607,141,15,-22,-12,-5,112,121,4060,48,37,920,1857,1917,2126,2335,2198,1917,1977,2152
724752,511576,609808,511368,609672,38,276,-17,-7,-6,379,88,3724,44,35,921,1857,1917,2126,2335,2198,1917,1977,2152
725753,511648,609864,511433,609737,-21,287,-13,-5,-6,144,187,3848,33,45,920,1857,1917,2126,2335,2198,1917,1977,2152
726754,511708,609924,511498,609802,135,244,-13,1,-5,247,190,3829,34,43,920,1857,1917,2126,2335,2198,1917,1977,2152
727755,511776,610008,511563,609867,31,-81,-7,4,-4,493,130,3899,39,45,920,1857,1917,2126,2335,2198,1917,1977,2152
728756,511844,610076,511628,609932,28,116,-8,10,3,139,184,3769,32,35,922,1856,1937,2152,2332,2196,1914,1973,2150
729757,511940,610140,511693,609997,-361,167,-9,5,9,261,272,3836,40,32,921,1856,1937,2152,2332,2196,1914,1973,2150
730758,511984,610208,511758,610062,315,113,-14,2,12,241,168,3852,30,38,921,1856,1937,2152,2332,2196,1914,1973,2150
731759,512036,610268,511823,610127,230,219,-17,-3,15,4,241,3766,31,41,921,1856,1937,2152,2332,2196,1914,1973,2150
732760,512120,610340,511888,610192,-193,61,-21,-2,12,186,256,3907,31,40,919,1856,1937,2152,2332,2196,1914,1973,2150
733761,512172,610392,511953,610257,223,327,-17,4,4,34,164,3933,49,29,898,1856,1938,2153,2336,2196,1914,1974,2151
734762,512232,610468,512018,610322,129,13,-19,-9,-8,-10,142,3672,47,38,917,1856,1938,2153,2336,2196,1914,1974,2151
735763,512308,610524,512083,610387,-84,274,-12,-1,-14,8,241,4026,35,46,921,1856,1938,2153,2336,2196,1914,1974,2151
736764,512388,610580,512148,610452,-152,285,-13,1,-3,65,129,3699,30,36,916,1856,1938,2153,2336,2196,1914,1974,2151
737765,512468,610648,512213,610517,-171,132,-15,0,-7,135,215,3909,36,30,904,1856,1938,2153,2336,2196,1914,1974,2151
738766,512508,610744,512278,610582,360,-256,-12,4,-4,-166,160,3753,46,34,903,1856,1938,2153,2336,2196,1914,1974,2151
739767,512576,610784,512343,610647,6,474,-9,2,1,125,197,3811,47,43,917,1857,1940,2154,2336,2197,1914,1974,2150
740768,512624,610868,512408,610712,276,-99,-8,6,-1,313,244,3905,33,34,918,1857,1940,2154,2336,2197,1914,1974,2150
741769,512704,610912,512473,610777,-142,427,-16,-9,0,-63,285,3733,40,28,919,1857,1940,2154,2336,2197,1914,1974,2150
742771,512780,610976,512538,610842,-106,178,-23,-2,6,186,193,3897,41,29,907,1857,1940,2154,2336,2197,1914,1974,2150
743771,512844,611028,512603,610907,45,344,-21,-6,7,453,215,3684,49,43,913,1857,1940,2154,2336,2197,1914,1974,2150
744772,512892,611108,512668,610972,266,-26,-22,-1,4,91,151,4012,35,43,919,1860,1943,2155,2338,2198,1916,1976,2154
745773,512972,611168,512733,611037,-152,231,-8,1,2,39,141,3683,35,38,920,1860,1943,2155,2338,2198,1916,1976,2154
746774,513028,611240,512798,611102,159,72,-7,5,3,386,136,3894,33,29,905,1860,1943,2155,2338,2198,1916,1976,2154
747775,513092,611280,512863,611167,60,503,-5,10,-2,60,158,3914,47,37,920,1860,1943,2155,2338,2198,1916,1976,2154
748776,513156,611372,512928,611232,61,-180,-8,5,0,95,221,3852,48,36,917,1860,1943,2155,2338,2198,1916,1976,2154
749777,513228,611428,512993,611297,-47,281,-4,9,2,-46,198,3846,37,29,921,1860,1943,2155,2338,2198,1916,1976,2154
750778,513276,611492,513058,611362,273,182,-12,4,-1,-153,196,3871,30,34,918,1858,1940,2152,2332,2199,1915,1975,2151
751779,513340,611564,513123,611427,74,73,-13,-8,1,111,183,3725,27,42,919,1858,1940,2152,2332,2199,1915,1975,2151
752780,513408,611632,513188,611492,20,120,-16,-6,4,44,258,3840,36,31,921,1858,1940,2152,2332,2199,1915,1975,2151
753781,513460,611692,513253,611557,236,226,-18,-10,-3,-16,239,3745,32,31,922,1858,1940,2152,2332,2199,1915,1975,2151
754782,513524,611760,513318,611622,87,122,-20,-7,-9,40,194,3854,40,34,919,1858,1940,2152,2332,2199,1915,1975,2151
755783,513584,611820,513383,611687,143,228,-15,-3,-11,220,198,3749,46,33,921,1856,1939,2151,2334,2196,1916,1974,2152
756784,513640,611880,513448,611752,204,234,-12,1,-8,333,251,3857,32,38,920,1856,1939,2151,2334,2196,1916,1974,2152
757785,513712,611928,513513,611817,-4,405,-12,5,-6,233,197,3829,45,32,920,1856,1939,2151,2334,2196,1916,1974,2152
758786,513772,611968,513578,611882,152,536,-11,-1,-4,288,139,3750,47,33,919,1856,1939,2151,2334,2196,1916,1974,2152
759787,513820,612020,513643,611947,322,401,-6,13,4,373,186,3909,39,26,917,1856,1939,2151,2334,2196,1916,1974,2152
760788,513884,612100,513708,612012,124,33,-9,10,6,163,214,3752,33,43,917,1856,1939,2151,2334,2196,1916,1974,2152
761789,513944,612168,513773,612077,180,179,-9,3,21,146,128,3887,30,33,922,1856,1939,2152,2333,2197,1913,1975,2154
762790,514012,612228,513838,612142,76,286,-12,7,21,281,237,3819,29,32,920,1856,1939,2152,2333,2197,1913,1975,2154
763791,514080,612296,513903,612207,72,182,-12,4,20,-126,184,3783,34,43,920,1856,1939,2152,2333,2197,1913,1975,2154
764792,514128,612376,513968,612272,342,14,-11,6,10,26,217,3903,33,40,921,1856,1939,2152,2333,2197,1913,1975,2154
765793,514200,612452,514033,612337,34,49,-16,0,6,-6,177,3770,31,35,920,1856,1939,2152,2333,2197,1913,1975,2154
766794,514244,612512,514098,612402,409,255,-16,-4,-6,-187,173,3825,33,39,922,1854,1937,2150,2332,2197,1914,1974,2153
767795,514324,612584,514163,612467,-59,97,-14,0,-14,37,197,3919,28,36,915,1854,1937,2150,2332,2197,1914,1974,2153
768796,514392,612656,514228,612532,87,88,-12,-3,-17,89,139,3821,31,41,922,1854,1937,2150,2332,2197,1914,1974,2153
769797,514440,612708,514293,612597,358,354,-6,3,-13,89,192,3861,40,27,922,1854,1937,2150,2332,2197,1914,1974,2153
770798,514492,612772,514358,612662,324,205,-5,4,-13,138,177,3842,46,32,917,1854,1937,2150,2332,2197,1914,1974,2153
771799,514576,612816,514423,612727,-99,481,-9,2,-7,266,219,3800,32,28,919,1854,1937,2150,2332,2197,1914,1974,2153
772800,514632,612896,514488,612792,262,13,-8,11,-6,336,236,3909,38,28,911,1857,1942,2154,2337,2198,1915,1976,2153
773801,514704,612964,514553,612857,53,159,-12,8,-1,247,186,3776,50,39,921,1857,1942,2154,2337,2198,1915,1976,2153
774802,514780,613016,514618,612922,-10,375,-9,6,8,299,202,3852,32,40,921,1857,1942,2154,2337,2198,1915,1976,2153
775803,514840,613088,514683,612987,196,116,-8,12,14,255,227,3821,45,35,920,1857,1942,2154,2337,2198,1915,1976,2153
776804,514896,613144,514748,613052,257,327,-12,6,10,202,177,3817,44,30,921,1857,1942,2154,2337,2198,1915,1976,2153
777805,514956,613208,514813,613117,213,228,-8,13,6,161,210,3848,46,35,919,1861,1943,2156,2338,2196,1914,1974,2150
778806,515036,613248,514878,613182,-55,559,-8,13,3,66,196,3847,48,42,920,1861,1943,2156,2338,2196,1914,1974,2150
779807,515092,613320,514943,613247,256,150,-8,5,-1,74,167,3873,45,32,918,1861,1943,2156,2338,2196,1914,1974,2150
780808,515144,613392,515008,613312,320,142,-3,9,6,21,130,3801,33,43,920,1861,1943,2156,2338,2196,1914,1974,2150
781809,515204,613440,515073,613377,227,463,1,9,0,58,180,3870,40,43,919,1861,1943,2156,2338,2196,1914,1974,2150
782810,515288,613520,515138,613442,-97,44,2,17,-3,49,192,3915,42,36,918,1861,1943,2156,2338,2196,1914,1974,2150
783811,515344,613576,515203,613507,264,355,3,12,-3,17,198,3761,37,44,916,1857,1940,2153,2335,2195,1913,1973,2149
784812,515396,613652,515268,613572,330,92,1,11,-1,107,193,3864,36,32,916,1857,1940,2153,2335,2195,1913,1973,2149
785813,515468,613704,515333,613637,72,408,-4,8,-8,142,255,3904,28,32,919,1857,1940,2153,2335,2195,1913,1973,2149
786814,515556,613776,515398,613702,-156,149,-6,6,-12,88,225,3737,32,30,919,1857,1940,2153,2335,2195,1913,1973,2149
787815,515600,613848,515463,613767,419,141,-6,8,-1,128,169,3840,41,34,907,1857,1940,2153,2335,2195,1913,1973,2149
788816,515648,613896,515528,613832,390,461,-7,8,-3,219,192,3854,45,31,918,1855,1940,2154,2336,2194,1913,1973,2148
789817,515720,613956,515593,613897,81,317,-7,4,7,134,210,3798,44,40,916,1855,1940,2154,2336,2194,1913,1973,2148
790818,515792,614036,515658,613962,73,49,-6,6,14,-15,185,3790,49,44,920,1855,1940,2154,2336,2194,1913,1973,2148
791819,515868,614092,515723,614027,9,360,-7,9,14,116,122,3818,44,37,922,1855,1940,2154,2336,2194,1913,1973,2148
792820,515924,614168,515788,614092,270,97,-4,7,14,218,179,3824,32,32,920,1855,1940,2154,2336,2194,1913,1973,2148
793821,515984,614236,515853,614157,227,193,-8,5,3,-21,233,3737,29,36,921,1856,1939,2153,2331,2199,1918,1976,2154
794822,516032,614308,515918,614222,397,134,-9,8,-10,140,221,3900,30,29,920,1856,1939,2153,2331,2199,1918,1976,2154
795823,516100,614380,515983,614287,144,125,-6,6,-14,195,157,3759,31,32,919,1856,1939,2153,2331,2199,1918,1976,2154
796824,516164,614444,516048,614352,195,226,-4,4,-10,125,153,3963,48,36,921,1856,1939,2153,2331,2199,1918,1976,2154
797825,516228,614496,516113,614417,196,392,1,13,-10,188,128,3788,32,43,920,1856,1939,2153,2331,2199,1918,1976,2154
798826,516288,614560,516178,614482,252,243,3,12,-9,175,184,3901,44,29,918,1856,1939,2153,2331,2199,1918,1976,2154
799827,516348,614616,516243,614547,257,354,2,13,-4,140,198,3803,45,34,919,1857,1939,2155,2335,2202,1919,1979,2155
800828,516412,614704,516308,614612,209,-74,2,19,1,269,225,3884,47,41,918,1857,1939,2155,2335,2202,1919,1979,2155
801829,516468,614756,516373,614677,320,392,-3,10,6,203,201,3717,30,36,919,1857,1939,2155,2335,2202,1919,1979,2155
802830,516544,614824,516438,614742,56,188,-6,9,11,49,251,3971,45,32,917,1857,1939,2155,2335,2202,1919,1979,2155
803831,516600,614908,516503,614807,317,-35,-13,1,14,-30,248,3751,32,34,921,1857,1939,2155,2335,2202,1919,1979,2155
804832,516652,614972,516568,614872,383,216,-15,3,7,84,229,3841,29,37,920,1858,1940,2154,2336,2197,1913,1976,2153
805833,516724,615032,516633,614937,124,273,-18,-5,5,85,215,3825,32,39,918,1858,1940,2154,2336,2197,1913,1976,2153
806834,516768,615108,516698,615002,500,59,-15,-6,1,56,200,3845,47,43,920,1858,1940,2154,2336,2197,1913,1976,2153
807835,516844,615176,516763,615067,87,155,-10,5,-11,-30,175,3860,45,40,918,1858,1940,2154,2336,2197,1913,1976,2153
808836,516892,615244,516828,615132,457,152,-7,9,-12,120,82,3813,35,31,921,1858,1940,2154,2336,2197,1913,1976,2153
809837,516952,615308,516893,615197,313,203,-2,9,-14,311,172,3911,30,41,918,1858,1940,2154,2336,2197,1913,1976,2153
810838,517012,615360,516958,615262,320,369,5,7,-10,64,142,3856,31,35,919,1856,1939,2153,2332,2196,1913,1972,2150
811839,517068,615440,517023,615327,381,1,3,11,-10,195,225,3793,35,39,917,1856,1939,2153,2332,2196,1913,1972,2150
812840,517148,615488,517088,615392,62,421,3,9,0,198,220,3864,33,30,919,1856,1939,2153,2332,2196,1913,1972,2150
813841,517196,615560,517153,615457,483,113,-4,14,6,123,236,3803,48,42,919,1856,1939,2153,2332,2196,1913,1972,2150
814842,517264,615612,517218,615522,229,379,-6,-2,11,246,294,3762,46,31,917,1856,1939,2153,2332,2196,1913,1972,2150
815843,517332,615688,517283,615587,226,65,-11,10,11,158,289,3838,43,43,919,1857,1939,2153,2335,2192,1912,1972,2148
816844,517396,615748,517348,615652,277,271,-12,-8,9,-2,234,3783,34,29,921,1857,1939,2153,2335,2192,1912,1972,2148
817845,517488,615824,517413,615717,-106,58,-15,12,1,135,220,3799,45,28,919,1857,1939,2153,2335,2192,1912,1972,2148
818846,517544,615892,517478,615782,355,154,-14,2,-2,22,150,3839,36,29,912,1857,1939,2153,2335,2192,1912,1972,2148
819847,517616,615956,517543,615847,146,205,-5,7,-2,13,163,3901,36,36,918,1857,1939,2153,2335,2192,1912,1972,2148
820848,517680,616008,517608,615912,248,370,-5,7,0,-50,103,3753,33,38,920,1857,1939,2153,2335,2192,1912,1972,2148
821849,517732,616084,517673,615977,413,57,-1,16,-3,61,135,3893,37,28,918,1860,1940,2154,2336,2196,1915,1975,2152
822850,517800,616140,517738,616042,210,318,1,12,-7,72,167,3812,48,28,919,1860,1940,2154,2336,2196,1915,1975,2152
823851,517876,616204,517803,616107,96,219,1,17,-6,182,214,3816,35,35,919,1860,1940,2154,2336,2196,1915,1975,2152
824852,517936,616256,517868,616172,302,385,4,13,-7,276,204,3823,45,29,921,1860,1940,2154,2336,2196,1915,1975,2152
825853,518012,616312,517933,616237,89,346,0,13,-3,214,218,3740,29,25,917,1860,1940,2154,2336,2196,1915,1975,2152
826854,518064,616388,517998,616302,405,83,-4,10,-2,285,225,3824,36,28,920,1861,1939,2157,2340,2198,1916,1976,2153
827855,518140,616436,518063,616367,92,453,-5,12,3,173,212,3859,42,36,919,1861,1939,2157,2340,2198,1916,1976,2153
828856,518200,616488,518128,616432,298,419,-4,12,9,159,173,3725,40,35,918,1861,1939,2157,2340,2198,1916,1976,2153
829857,518248,616564,518193,616497,468,106,-5,8,19,162,231,3951,29,41,917,1861,1939,2157,2340,2198,1916,1976,2153
830858,518320,616612,518258,616562,160,476,-11,4,11,-44,203,3737,31,41,918,1861,1939,2157,2340,2198,1916,1976,2153
831859,518384,616684,518323,616627,261,168,-3,7,7,15,165,3894,32,37,918,1861,1939,2157,2340,2198,1916,1976,2153
832860,518444,616748,518388,616692,317,269,-5,13,5,143,206,3817,29,28,919,1858,1940,2153,2335,2199,1918,1977,2154
833861,518492,616788,518453,616757,487,600,-3,6,1,-49,188,3844,45,43,918,1858,1940,2153,2335,2199,1918,1977,2154
834862,518556,616876,518518,616822,288,-28,-3,1,-5,97,162,3808,31,35,913,1858,1940,2153,2335,2199,1918,1977,2154
835863,518644,616940,518583,616887,-40,273,2,10,-9,99,178,3955,46,41,918,1858,1940,2153,2335,2199,1918,1977,2154
836864,518684,617032,518648,616952,591,-110,1,21,-8,128,148,3752,45,32,921,1858,1940,2153,2335,2199,1918,1977,2154
837865,518756,617088,518713,617017,182,351,4,10,-6,195,152,3797,33,40,916,1854,1937,2151,2332,2199,1913,1973,2153
838866,518812,617160,518778,617082,393,142,7,15,0,197,208,3913,32,36,919,1854,1937,2151,2332,2199,1913,1973,2153
839867,518888,617208,518843,617147,130,463,8,6,6,159,213,3751,37,30,919,1854,1937,2151,2332,2199,1913,1973,2153
840868,518972,617284,518908,617212,6,100,-1,19,15,112,253,3817,42,39,918,1854,1937,2151,2332,2199,1913,1973,2153
841869,519016,617360,518973,617277,532,86,-5,7,10,158,246,3690,27,39,922,1854,1937,2151,2332,2199,1913,1973,2153
842870,519076,617436,519038,617342,338,73,-12,7,12,161,238,3879,28,27,918,1854,1937,2151,2332,2199,1913,1973,2153
843871,519144,617508,519103,617407,234,114,-9,5,8,136,248,3778,38,31,919,1856,1939,2153,2334,2197,1915,1973,2151
844872,519196,617572,519168,617472,450,215,-14,8,5,74,244,3846,34,30,920,1856,1939,2153,2334,2197,1915,1973,2151
845873,519276,617628,519233,617537,82,326,-10,3,1,186,171,3762,45,29,917,1856,1939,2153,2334,2197,1915,1973,2151
846874,519332,617688,519298,617602,393,283,-8,11,-2,109,222,3937,30,31,919,1856,1939,2153,2334,2197,1915,1973,2151
847875,519388,617760,519363,617667,404,124,-4,7,-4,-15,138,3772,36,32,917,1856,1939,2153,2334,2197,1915,1973,2151
848876,519452,617804,519428,617732,305,500,-4,13,6,132,185,3810,33,42,919,1855,1938,2151,2331,2195,1914,1974,2152
849877,519504,617868,519493,617797,471,251,-6,11,6,131,173,3875,38,42,916,1855,1938,2151,2331,2195,1914,1974,2152
850878,519556,617932,519558,617862,487,251,-5,6,3,163,183,3827,32,32,917,1855,1938,2151,2331,2195,1914,1974,2152
851879,519624,617968,519623,617927,283,636,-8,16,11,135,212,3819,49,40,917,1855,1938,2151,2331,2195,1914,1974,2152
852880,519692,618048,519688,617992,280,68,-3,11,10,49,223,3835,39,41,913,1855,1938,2151,2331,2195,1914,1974,2152
853881,519760,618108,519753,618057,276,324,-6,9,1,127,242,3834,46,31,920,1855,1938,2151,2331,2195,1914,1974,2152
854882,519816,618184,519818,618122,437,111,-9,6,0,65,177,3786,30,39,918,1859,1941,2154,2337,2198,1916,1976,2152
855883,519880,618252,519883,618187,338,207,-8,9,2,142,220,3915,28,41,918,1859,1941,2154,2337,2198,1916,1976,2152
856884,519940,618304,519948,618252,394,423,-7,4,-12,-5,197,3813,39,33,918,1859,1941,2154,2337,2198,1916,1976,2152
857885,520004,618372,520013,618317,345,219,-9,6,-5,112,180,3828,30,28,916,1859,1941,2154,2337,2198,1916,1976,2152
858886,520080,618452,520078,618382,182,51,-10,1,6,194,206,3836,31,43,919,1859,1941,2154,2337,2198,1916,1976,2152
859887,520140,618500,520143,618447,388,472,-12,6,2,122,273,3852,31,39,921,1860,1942,2154,2336,2198,1915,1975,2152
860888,520212,618576,520208,618512,230,108,-15,1,1,-1,183,3772,40,30,916,1860,1942,2154,2336,2198,1915,1975,2152
861889,520264,618628,520273,618577,495,424,-16,4,9,193,220,3841,47,43,920,1860,1942,2154,2336,2198,1915,1975,2152
862890,520336,618704,520338,618642,237,111,-14,2,11,302,181,3865,45,30,915,1860,1942,2154,2336,2198,1915,1975,2152
863891,520404,618756,520403,618707,283,427,-14,2,23,55,126,3789,30,42,920,1860,1942,2154,2336,2198,1915,1975,2152
864892,520456,618808,520468,618772,499,443,-11,3,18,240,195,3783,44,32,917,1860,1942,2154,2336,2198,1915,1975,2152
865893,520508,618880,520533,618837,515,184,-4,8,7,200,157,3981,33,41,915,1853,1939,2154,2332,2196,1914,1975,2153
866894,520580,618948,520598,618902,256,230,-1,17,-2,10,124,3793,33,45,917,1853,1939,2154,2332,2196,1914,1975,2153
867895,520628,619012,520663,618967,577,282,8,17,-7,171,205,3887,41,31,919,1853,1939,2154,2332,2196,1914,1975,2153
868896,520700,619076,520728,619032,269,283,11,19,-13,120,174,3861,35,31,916,1853,1939,2154,2332,2196,1914,1975,2153
869899,520772,619120,520793,619097,260,558,6,15,-10,39,162,3859,33,37,916,1853,1939,2154,2332,2196,1914,1975,2153
870898,520832,619188,520858,619162,416,255,8,16,-4,157,195,3827,34,30,916,1855,1939,2152,2333,2193,1910,1974,2150
871899,520896,619252,520923,619227,367,306,7,20,-3,146,218,3828,29,32,917,1855,1939,2152,2333,2193,1910,1974,2150
872900,520972,619316,520988,619292,204,307,-4,8,1,-21,273,3766,36,44,917,1855,1939,2152,2333,2193,1910,1974,2150
873901,521044,619388,521053,619357,245,199,-5,9,9,226,266,3781,44,31,919,1855,1939,2152,2333,2193,1910,1974,2150
874902,521112,619440,521118,619422,292,465,-11,-1,17,84,240,3800,44,31,920,1855,1939,2152,2333,2193,1910,1974,2150
875903,521164,619508,521183,619487,508,261,-17,0,18,11,250,3843,45,29,917,1855,1939,2152,2333,2193,1910,1974,2150
876904,521240,619580,521248,619552,194,202,-21,-2,15,180,180,3838,28,38,917,1860,1942,2155,2339,2195,1914,1974,2150
877905,521280,619620,521313,619617,675,633,-20,3,11,53,219,3806,30,44,920,1860,1942,2155,2339,2195,1914,1974,2150
878906,521340,619676,521378,619682,431,444,-16,2,8,88,216,3890,44,35,911,1860,1942,2155,2339,2195,1914,1974,2150
879907,521424,619760,521443,619747,108,71,-20,-11,-2,102,252,3818,48,44,915,1860,1942,2155,2339,2195,1914,1974,2150
880908,521468,619816,521508,619812,633,432,-8,12,-6,14,158,3868,46,42,921,1860,1942,2155,2339,2195,1914,1974,2150
881909,521524,619884,521573,619877,494,278,-5,6,-2,277,118,3803,28,37,913,1860,1940,2155,2338,2202,1919,1978,2157
882910,521592,619948,521638,619942,341,329,1,17,-1,244,156,3947,42,41,916,1860,1940,2155,2338,2202,1919,1978,2157
883911,521648,620004,521703,620007,502,440,6,17,1,166,155,3756,46,40,917,1860,1940,2155,2338,2202,1919,1978,2157
884912,521732,620080,521768,620072,128,177,9,18,3,176,201,3866,34,38,915,1860,1940,2155,2338,2202,1919,1978,2157
885913,521772,620128,521833,620137,709,547,3,14,6,169,198,3760,34,42,920,1860,1940,2155,2338,2202,1919,1978,2157
886914,521848,620196,521898,620202,246,294,-2,13,8,84,198,3895,44,32,909,1860,1940,2155,2338,2202,1919,1978,2157
887915,521920,620236,521963,620267,287,674,-3,13,5,59,216,3781,38,41,918,1855,1937,2149,2330,2195,1912,1975,2151
888916,521992,620320,522028,620332,278,101,-4,12,3,141,238,3829,48,25,914,1855,1937,2149,2330,2195,1912,1975,2151
889917,522056,620364,522093,620397,380,627,-7,3,7,-22,239,3789,43,26,919,1855,1937,2149,2330,2195,1912,1975,2151
890918,522108,620416,522158,620462,546,543,-7,3,9,-8,249,3818,34,25,913,1855,1937,2149,2330,2195,1912,1975,2151
891919,522188,620468,522223,620527,177,559,-12,1,8,-32,217,3812,46,34,913,1855,1937,2149,2330,2195,1912,1975,2151
892920,522268,620544,522288,620592,159,245,-18,-9,3,-141,194,3839,36,28,916,1856,1941,2151,2335,2198,1914,1974,2150
893921,522340,620592,522353,620657,250,616,-18,-7,3,131,208,3798,32,37,919,1856,1941,2151,2335,2198,1914,1974,2150
894922,522400,620640,522418,620722,406,637,-14,-9,5,248,157,3917,34,39,915,1856,1941,2151,2335,2198,1914,1974,2150
895923,522456,620704,522483,620787,467,438,-21,-8,1,171,209,3817,40,41,913,1856,1941,2151,2335,2198,1914,1974,2150
896924,522524,620776,522548,620852,314,329,-17,-6,4,201,193,3843,34,42,915,1856,1941,2151,2335,2198,1914,1974,2150
897925,522596,620828,522613,620917,255,595,-17,10,-2,316,195,3892,41,41,917,1856,1941,2151,2335,2198,1914,1974,2150
898926,522648,620888,522678,620982,521,501,-13,1,0,197,146,3780,29,40,915,1855,1937,2151,2331,2197,1913,1973,2154
899927,522712,620960,522743,621047,372,343,-3,3,5,111,208,3890,45,34,914,1855,1937,2151,2331,2197,1913,1973,2154
900928,522772,621028,522808,621112,428,389,-2,12,5,157,216,3813,33,35,917,1855,1937,2151,2331,2197,1913,1973,2154
901929,522852,621076,522873,621177,160,660,-10,5,6,61,162,3753,34,39,916,1855,1937,2151,2331,2197,1913,1973,2154
902930,522908,621156,522938,621242,471,241,-11,8,11,37,183,3785,45,34,915,1855,1937,2151,2331,2197,1913,1973,2154
903931,522972,621240,523003,621307,372,168,-8,3,4,58,223,3843,30,33,915,1856,1937,2153,2335,2196,1914,1973,2149
904932,523056,621316,523068,621372,99,255,-8,6,-5,-21,196,3837,37,46,918,1856,1937,2153,2335,2196,1914,1973,2149
905933,523128,621372,523133,621437,241,516,-7,8,-2,212,212,3833,42,43,920,1856,1937,2153,2335,2196,1914,1973,2149
906934,523188,621456,523198,621502,397,143,-17,-1,5,145,209,3802,37,44,916,1856,1937,2153,2335,2196,1914,1973,2149
907935,523252,621520,523263,621567,348,394,-14,1,14,-26,197,3886,43,35,918,1856,1937,2153,2335,2196,1914,1973,2149
908936,523316,621592,523328,621632,349,285,-20,-1,17,255,260,3721,41,34,917,1856,1937,2153,2335,2196,1914,1973,2149
909937,523388,621660,523393,621697,241,332,-20,-3,21,90,250,3914,32,32,917,1858,1940,2155,2339,2196,1915,1973,2149
910938,523460,621724,523458,621762,232,383,-28,-9,22,-13,263,3700,39,46,918,1858,1940,2155,2339,2196,1915,1973,2149
911939,523500,621808,523523,621827,663,110,-26,-13,14,45,260,3857,45,44,918,1858,1940,2155,2339,2196,1915,1973,2149
912940,523580,621856,523588,621892,144,580,-26,-7,9,214,173,3849,42,33,915,1858,1940,2155,2339,2196,1915,1973,2149
913941,523648,621928,523653,621957,291,272,-20,-5,0,43,136,3812,46,46,916,1858,1940,2155,2339,2196,1915,1973,2149
914942,523708,622000,523718,622022,397,263,-13,8,-5,46,132,3856,38,45,919,1858,1939,2153,2333,2198,1916,1976,2153
915943,523780,622056,523783,622087,238,474,-6,1,-10,190,141,3832,40,46,918,1858,1939,2153,2333,2198,1916,1976,2153
916944,523832,622124,523848,622152,504,321,-4,10,-8,43,157,3897,49,43,917,1858,1939,2153,2333,2198,1916,1976,2153
917945,523916,622176,523913,622217,82,537,3,8,-8,197,199,3804,46,33,916,1858,1939,2153,2333,2198,1916,1976,2153
918946,523964,622244,523978,622282,552,333,-1,10,6,167,192,3851,34,39,917,1858,1939,2153,2333,2198,1916,1976,2153
919947,524032,622320,524043,622347,298,219,-3,8,10,250,231,3795,34,43,915,1858,1939,2153,2333,2198,1916,1976,2153
920948,524100,622396,524108,622412,294,206,-12,-3,8,226,314,3800,33,48,916,1858,1941,2154,2336,2196,1913,1974,2150
921949,524176,622476,524173,622477,181,138,-12,4,12,42,242,3901,35,33,919,1858,1941,2154,2336,2196,1913,1974,2150
922950,524236,622532,524238,622542,387,449,-24,-4,19,72,238,3676,43,41,921,1858,1941,2154,2336,2196,1913,1974,2150
923951,524304,622600,524303,622607,283,295,-25,-8,15,-61,272,3889,48,40,916,1858,1941,2154,2336,2196,1913,1974,2150
924952,524360,622676,524368,622672,444,182,-22,-4,14,-77,179,3851,45,44,918,1858,1941,2154,2336,2196,1913,1974,2150
925953,524440,622748,524433,622737,126,223,-17,-9,6,-75,170,3819,30,44,918,1859,1942,2155,2335,2195,1916,1976,2152
926954,524512,622804,524498,622802,217,434,-18,-5,-6,16,179,3845,38,41,920,1859,1942,2155,2335,2195,1916,1976,2152
927955,524572,622868,524563,622867,374,335,-12,-3,-17,74,134,3926,31,32,918,1859,1942,2155,2335,2195,1916,1976,2152
928956,524636,622940,524628,622932,325,227,-18,-12,-17,202,191,3761,46,39,917,1859,1942,2155,2335,2195,1916,1976,2152
929957,524704,622996,524693,622997,271,438,-8,4,-13,321,211,4015,41,45,919,1859,1942,2155,2335,2195,1916,1976,2152
930958,524776,623068,524758,623062,213,229,-9,1,-5,314,157,3745,34,29,917,1859,1942,2155,2335,2195,1916,1976,2152
931959,524836,623116,524823,623127,369,550,-11,1,5,232,203,3774,35,43,919,1856,1937,2152,2332,2194,1914,1973,2149
932960,524900,623192,524888,623192,320,187,-14,-3,22,179,244,3892,40,31,915,1856,1937,2152,2332,2194,1914,1973,2149
933961,524968,623236,524953,623257,266,612,-9,-3,25,188,220,3730,40,31,919,1856,1937,2152,2332,2194,1914,1973,2149
934962,525048,623324,525018,623322,98,34,-14,3,16,45,326,3813,38,32,915,1856,1937,2152,2332,2194,1914,1973,2149
935963,525104,623392,525083,623387,409,280,-20,1,6,-47,187,3829,37,32,922,1856,1937,2152,2332,2194,1914,1973,2149
936964,525156,623464,525148,623452,475,222,-24,-7,-11,0,240,3734,29,38,917,1856,1938,2152,2334,2196,1915,1973,2150
937965,525244,623512,525213,623517,-3,543,-20,-2,-17,58,173,3937,43,40,915,1856,1938,2152,2334,2196,1915,1973,2150
938966,525312,623580,525278,623582,243,289,-17,-3,-18,41,210,3799,52,38,917,1856,1938,2152,2334,2196,1915,1973,2150
939967,525372,623652,525343,623647,349,230,-22,-4,-12,-82,145,3860,49,37,919,1856,1938,2152,2334,2196,1915,1973,2150
940968,525436,623728,525408,623712,300,167,-14,-4,4,163,126,3816,44,44,918,1856,1938,2152,2334,2196,1915,1973,2150
941969,525500,623780,525473,623777,302,483,-20,-10,14,183,221,3774,36,33,919,1856,1938,2152,2334,2196,1915,1973,2150
942970,525564,623840,525538,623842,303,389,-18,-12,22,254,276,3894,34,43,916,1856,1937,2153,2335,2198,1916,1974,2152
943971,525652,623912,525603,623907,-25,230,-28,-9,21,254,259,3756,43,33,917,1856,1937,2153,2335,2198,1916,1974,2152
944972,525708,623968,525668,623972,386,441,-20,-6,16,217,222,3851,42,34,921,1856,1937,2153,2335,2198,1916,1974,2152
945973,525772,624040,525733,624037,287,233,-25,-1,9,241,157,3862,33,30,916,1856,1937,2153,2335,2198,1916,1974,2152
946974,525840,624108,525798,624102,233,279,-19,-4,-3,86,134,3790,52,46,919,1856,1937,2153,2335,2198,1916,1974,2152
947975,525932,624164,525863,624167,-100,440,-16,0,-6,28,135,3856,52,34,919,1855,1938,2152,2334,2197,1914,1974,2151
948976,526000,624220,526062,624366,360,615,-7,4,-13,54,149,3886,46,44,912,1855,1938,2152,2334,2197,1914,1974,2151
949977,526064,624280,526127,624431,411,571,-5,4,-9,-59,121,3769,48,31,914,1855,1938,2152,2334,2197,1914,1974,2151
950978,526132,624356,526192,624496,358,358,-9,-2,-5,29,223,3865,33,40,914,1855,1938,2152,2334,2197,1914,1974,2151
951979,526216,624448,526257,624561,135,125,-14,2,1,45,252,3807,36,44,917,1855,1938,2152,2334,2197,1914,1974,2151
952980,526292,624504,526322,624626,221,586,-19,-10,5,130,286,3795,36,37,921,1855,1938,2152,2334,2197,1914,1974,2151
953981,526364,624580,526387,624691,263,323,-20,-10,11,109,260,3723,43,46,916,1858,1940,2153,2335,2194,1914,1974,2148
954982,526436,624644,526452,624756,254,474,-28,-16,14,318,265,3825,43,46,916,1858,1940,2153,2335,2194,1914,1974,2148
955983,526512,624728,526517,624821,191,201,-32,-17,5,193,232,3810,51,46,916,1858,1940,2153,2335,2194,1914,1974,2148
956984,526580,624812,526582,624886,287,178,-34,-12,10,44,151,3816,52,45,920,1858,1940,2153,2335,2194,1914,1974,2148
957985,526668,624876,526647,624951,9,429,-23,-10,5,167,219,3891,38,33,919,1858,1940,2153,2335,2194,1914,1974,2148
958986,526748,624924,526712,625016,91,650,-19,-9,3,-78,135,3788,54,36,919,1858,1940,2154,2336,2197,1917,1971,2151
959987,526836,625012,526777,625081,-38,122,-16,-5,-8,13,187,3885,41,46,916,1858,1940,2154,2336,2197,1917,1971,2151
960988,526912,625084,526842,625146,99,313,-12,2,-4,171,145,3872,37,45,922,1858,1940,2154,2336,2197,1917,1971,2151
961989,526976,625172,526907,625211,250,85,-10,4,-5,-87,149,3879,39,48,920,1858,1940,2154,2336,2197,1917,1971,2151
962990,527068,625220,526972,625276,-133,606,-11,-12,3,-59,173,3791,47,46,920,1858,1940,2154,2336,2197,1917,1971,2151
963991,527128,625296,527037,625341,273,242,-9,-6,5,169,219,3830,51,41,906,1858,1940,2154,2336,2197,1917,1971,2151
964992,527204,625380,527102,625406,60,119,-16,-14,3,103,274,3827,39,37,918,1858,1939,2153,2335,2195,1914,1973,2150
965993,527276,625432,527167,625471,101,535,-28,-14,-9,212,273,3680,47,39,921,1858,1939,2153,2335,2195,1914,1973,2150
966994,527360,625512,527232,625536,-72,167,-23,-9,-14,211,254,3780,49,46,917,1858,1939,2153,2335,2195,1914,1973,2150
967995,527404,625568,527297,625601,454,478,-23,-8,-11,375,260,3897,52,48,920,1858,1939,2153,2335,2195,1914,1973,2150
968996,527484,625636,527362,625666,-14,324,-27,-10,-4,253,207,3830,41,46,915,1858,1939,2153,2335,2195,1914,1973,2150
969997,527580,625712,527427,625731,-252,211,-26,-12,4,135,217,3869,50,37,920,1856,1939,2151,2332,2193,1915,1974,2146
970998,527632,625784,527492,625796,314,252,-21,-8,13,48,109,3862,50,37,921,1856,1939,2151,2332,2193,1915,1974,2146
971999,527716,625852,527557,625861,-110,298,-24,-7,10,-142,193,3730,50,40,918,1856,1939,2151,2332,2193,1915,1974,2146
973000,527780,625932,527622,625926,142,130,-25,-4,5,4,251,3879,35,46,913,1856,1939,2151,2332,2193,1915,1974,2146
974001,527868,625988,527687,625991,-186,441,-28,-13,3,8,171,3767,38,46,920,1856,1939,2151,2332,2193,1915,1974,2146
975002,527944,626064,527752,626056,-50,178,-24,-7,-8,83,230,3937,35,49,898,1856,1939,2151,2332,2193,1915,1974,2146
976003,528044,626124,527817,626121,-394,384,-24,-16,-10,75,200,3738,44,49,920,1853,1929,2151,2334,2200,1916,1975,2152
977004,528136,626192,527882,626186,-327,280,-20,-15,-8,257,135,3920,35,37,919,1853,1929,2151,2334,2200,1916,1975,2152
978005,528216,626256,527947,626251,-195,331,-22,-8,-10,21,211,3841,32,35,918,1853,1929,2151,2334,2200,1916,1975,2152
979006,528292,626320,528012,626316,-158,333,-24,-8,2,102,96,3855,31,47,919,1853,1929,2151,2334,2200,1916,1975,2152
980007,528376,626400,528077,626381,-281,114,-25,-6,12,333,167,3841,43,49,904,1853,1929,2151,2334,2200,1916,1975,2152
981008,528440,626468,528142,626446,-30,261,-23,-6,8,83,258,3785,34,52,920,1855,1934,2150,2331,2196,1915,1960,2147
982009,528504,626528,528207,626511,-29,367,-24,-11,16,29,189,3870,48,45,920,1855,1934,2150,2331,2196,1915,1960,2147
983010,528576,626592,528272,626576,-138,318,-31,-12,8,367,345,3755,37,47,919,1855,1934,2150,2331,2196,1915,1960,2147
984011,528628,626672,528337,626641,128,100,-35,-16,11,11,204,3804,33,39,908,1855,1934,2150,2331,2196,1915,1960,2147
985012,528700,626744,528402,626706,-130,191,-32,-16,-1,225,251,3906,37,43,920,1855,1934,2150,2331,2196,1915,1960,2147
986013,528760,626808,528467,626771,25,292,-30,-15,-3,135,228,3698,38,39,910,1855,1934,2150,2331,2196,1915,1960,2147
987014,528820,626876,528532,626836,31,239,-27,-8,-11,84,167,3917,35,48,920,1858,1939,2153,2334,2194,1913,1973,2149
988015,528888,626944,528597,626901,-73,235,-23,0,-11,-16,125,3873,43,50,921,1858,1939,2153,2334,2194,1913,1973,2149
989016,528956,627024,528662,626966,-76,67,-13,-4,-5,77,125,3887,43,49,915,1858,1939,2153,2334,2194,1913,1973,2149
990017,529012,627104,528727,627031,85,48,-17,-6,4,12,186,3854,40,39,918,1858,1939,2153,2334,2194,1913,1973,2149
991018,529072,627172,528792,627096,41,195,-20,-8,4,5,237,3820,33,36,922,1858,1939,2153,2334,2194,1913,1973,2149
992019,529152,627232,528857,627161,-228,301,-26,-12,1,96,191,3796,40,45,921,1858,1940,2154,2336,2193,1913,1972,2147
993020,529228,627300,528922,627226,-191,197,-23,-13,-2,144,203,3816,32,45,920,1858,1940,2154,2336,2193,1913,1972,2147
994021,529288,627384,528987,627291,14,-26,-27,-15,-6,161,255,3792,28,39,902,1858,1940,2154,2336,2193,1913,1972,2147
995022,529356,627436,529052,627356,-90,390,-33,-20,-9,80,219,3826,47,50,921,1858,1940,2154,2336,2193,1913,1972,2147
996023,529436,627484,529117,627421,-258,461,-32,-17,-9,102,187,3882,40,50,914,1858,1940,2154,2336,2193,1913,1972,2147
997024,529500,627572,529182,627486,-57,-67,-27,-21,4,259,223,3792,34,39,918,1858,1940,2154,2336,2193,1913,1972,2147
998025,529580,627636,529247,627551,-275,234,-29,-17,1,176,202,3766,33,49,921,1847,1940,2140,2324,2191,1913,1973,2149
999026,529632,627712,529312,627616,91,69,-27,-9,3,-125,235,3982,39,35,914,1847,1940,2140,2324,2191,1913,1973,2149
1000027,529712,627780,529377,627681,-277,166,-31,-17,3,162,137,3728,29,36,922,1847,1940,2140,2324,2191,1913,1973,2149
1001028,529764,627836,529442,627746,88,327,-29,-15,10,303,168,3904,26,47,921,1847,1940,2140,2324,2191,1913,1973,2149
1002029,529840,627900,529507,627811,-226,228,-28,-13,8,148,228,3876,26,49,920,1847,1940,2140,2324,2191,1913,1973,2149
1003030,529896,627956,529572,627876,35,339,-22,-10,17,104,212,3764,29,49,901,1857,1939,2153,2334,2198,1912,1974,2150
1004031,529964,628052,529637,627941,-119,-199,-23,-6,2,113,147,3911,44,51,919,1857,1939,2153,2334,2198,1912,1974,2150
1005032,530020,628104,529702,628006,42,367,-22,-6,-9,266,175,3860,33,42,911,1857,1939,2153,2334,2198,1912,1974,2150
1006033,530076,628176,529767,628071,53,108,-21,-8,-15,104,181,3830,44,48,917,1857,1939,2153,2334,2198,1912,1974,2150
1007034,530136,628252,529832,628136,9,45,-15,-3,-21,-38,205,3865,26,41,921,1857,1939,2153,2334,2198,1912,1974,2150
1008035,530196,628312,529897,628201,16,251,-17,-2,-22,155,153,3877,41,42,922,1854,1937,2153,2334,2198,1912,1974,2150
1009036,530232,628380,529962,628266,351,147,-16,-9,-9,235,199,3830,28,46,921,1854,1937,2154,2337,2199,1914,1975,2152
1010037,530292,628448,530027,628331,57,144,-15,-9,2,-41,190,3843,29,45,918,1854,1937,2154,2337,2199,1914,1975,2152
1011038,530352,628516,530092,628396,62,140,-23,-15,9,-31,273,3781,31,49,921,1854,1937,2154,2337,2199,1914,1975,2152
1012039,530400,628588,530157,628461,233,81,-29,-7,19,129,232,3790,31,39,921,1854,1937,2154,2337,2199,1914,1975,2152
1013040,530460,628632,530222,628526,89,457,-37,-15,18,109,257,3808,36,44,920,1854,1937,2154,2337,2199,1914,1975,2152
1014041,530504,628704,530287,628591,315,99,-41,-17,7,159,261,3741,45,36,918,1856,1938,2151,2333,2194,1912,1972,2149
1015042,530564,628780,530352,628656,121,35,-32,-18,-7,168,149,3907,34,48,919,1856,1938,2151,2333,2194,1912,1972,2149
1016043,530620,628848,530417,628721,182,131,-26,-13,-24,85,106,3797,40,46,922,1856,1938,2151,2333,2194,1912,1972,2149
1017044,530692,628900,530482,628786,-27,347,-18,-10,-22,202,84,3911,28,46,921,1856,1938,2151,2333,2194,1912,1972,2149
1018045,530764,628968,530547,628851,-35,144,-14,-2,-23,184,183,3881,42,48,920,1856,1938,2151,2333,2194,1912,1972,2149
1019046,530828,629036,530612,628916,66,140,-13,-4,-24,59,112,3857,36,39,921,1856,1938,2153,2334,2194,1913,1972,2148
1020047,530888,629092,530677,628981,122,301,-11,2,-11,200,142,3823,28,40,921,1856,1938,2153,2334,2194,1913,1972,2148
1021048,530956,629152,530742,629046,18,257,-12,0,4,191,232,3819,42,44,919,1856,1938,2153,2334,2194,1913,1972,2148
1022049,531020,629224,530807,629111,68,98,-19,-8,14,-35,249,3859,27,46,921,1856,1938,2153,2334,2194,1913,1972,2148
1023050,531072,629292,530872,629176,234,144,-25,-11,18,-73,263,3745,29,46,919,1856,1938,2153,2334,2194,1913,1972,2148
1024051,531128,629368,530937,629241,195,30,-30,-18,17,33,234,3795,28,41,920,1856,1938,2153,2334,2194,1913,1972,2148
1025052,531208,629432,531002,629306,-123,182,-35,-19,12,78,282,3827,44,51,921,1858,1941,2154,2339,2192,1913,1973,2149
1026053,531252,629512,531067,629371,353,-37,-35,-15,8,288,230,3760,47,48,912,1858,1941,2154,2339,2192,1913,1973,2149
1027054,531320,629560,531132,629436,49,384,-35,-23,-3,184,206,3949,38,46,919,1858,1941,2154,2339,2192,1913,1973,2149
1028055,531388,629632,531197,629501,45,76,-33,-19,-10,206,171,3782,30,41,919,1858,1941,2154,2339,2192,1913,1973,2149
1029056,531448,629704,531262,629566,151,67,-28,-11,-8,222,171,3918,32,45,922,1858,1941,2154,2339,2192,1913,1973,2149
1030057,531508,629784,531327,629631,158,-51,-21,-7,-10,-28,155,3867,33,35,921,1858,1935,2156,2334,2196,1916,1974,2151
1031058,531564,629844,531392,629696,219,205,-19,-4,-10,102,198,3817,32,43,921,1858,1935,2156,2334,2196,1916,1974,2151
1032059,531640,629908,531457,629761,-45,156,-17,-8,-8,178,175,3804,33,37,920,1858,1935,2156,2334,2196,1916,1974,2151
1033060,531696,629968,531522,629826,216,212,-19,-19,-9,38,162,3864,49,38,921,1858,1935,2156,2334,2196,1916,1974,2151
1034061,531788,630036,531587,629891,-267,108,-21,-8,-6,133,233,3843,42,43,919,1858,1935,2156,2334,2196,1916,1974,2151
1035062,531836,630108,531652,629956,303,50,-25,-13,-1,-70,210,3744,34,47,921,1858,1935,2156,2334,2196,1916,1974,2151
1036063,531896,630168,531717,630021,159,206,-20,-13,-7,76,179,3858,32,41,921,1856,1939,2152,2334,2195,1916,1976,2136
1037064,531984,630248,531782,630086,-219,-62,-23,-8,4,335,207,3807,33,37,920,1856,1939,2152,2334,2195,1916,1976,2136
1038065,532044,630320,531847,630151,137,29,-29,-19,6,244,243,3798,33,40,899,1856,1939,2152,2334,2195,1916,1976,2136
