%  Data file recorded 2016/9/29  17:10:26
%  Stride Frequency         = [1, 1]
%  Lead In /Lead Out        = 
%  Deltas (Fractional)      = [0.25, 0.25, 0.25],[0.25, 0.25, 0.25]
%  Phase                    = 32768
%  Experiment.py 
%  Motor Gains    = [5000, 400, 200, 0, 300, 5000, 400, 200, 0, 300]
% Columns: 
% time | Right Leg Pos | Left Leg Pos | Commanded Right Leg Pos | Commanded Left Leg Pos | DCR | DCL | GyroX | GyroY | GyroZ | AX | AY | AZ | RBEMF | LBEMF | VBatt | S1 | S2 | S3 | S4 | S5 | S6 | S7 | S8
424,17188,-17024,16468,-16300,-3800,3800,14,21,-44,-40,181,3934,1,-4,890,1787,1875,2065,2257,2054,1825,1874,1993
1425,17184,-17020,16468,-16300,-3800,3800,14,19,-44,-49,167,3930,10,8,890,1787,1875,2065,2257,2054,1825,1874,1993
2426,17188,-17020,16468,-16300,-3800,3800,13,17,-45,-42,182,3943,1,-6,890,1787,1875,2065,2257,2054,1825,1874,1993
3427,17200,-17032,16468,-16300,-3800,3800,17,18,-46,-26,199,3932,-7,8,890,1787,1875,2065,2257,2054,1825,1874,1993
4428,17192,-17016,16468,-16300,-3800,3800,15,19,-45,-38,180,3915,9,-1,890,1787,1875,2065,2257,2054,1825,1874,1993
5429,17192,-17032,16468,-16300,-3800,3800,14,20,-45,-59,184,3930,0,5,890,1787,1875,2065,2257,2051,1823,1876,1994
6430,17188,-17024,16468,-16300,-3800,3800,14,19,-47,-68,211,3940,-2,2,890,1787,1875,2065,2257,2051,1823,1876,1994
7431,17188,-17020,16468,-16300,-3800,3800,14,17,-47,-71,212,3926,12,-6,890,1787,1875,2065,2257,2051,1823,1876,1994
8432,17184,-17024,16468,-16300,-3800,3800,15,16,-46,-66,196,3934,-8,8,890,1787,1875,2065,2257,2051,1823,1876,1994
9433,17196,-17028,16468,-16300,-3800,3800,14,20,-45,-59,200,3938,11,-6,890,1787,1875,2065,2257,2051,1823,1876,1994
10434,17188,-17028,16468,-16300,-3800,3800,13,20,-48,-50,198,3936,-3,5,890,1787,1875,2065,2257,2051,1823,1876,1994
11435,17200,-17024,16468,-16300,-3800,3800,12,19,-47,-16,184,3954,3,0,890,1786,1875,2064,2257,2054,1825,1874,1993
12436,17204,-17036,16468,-16300,-3800,3800,13,18,-45,-33,190,3947,5,-3,890,1786,1875,2064,2257,2054,1825,1874,1993
13437,17196,-17020,16468,-16300,-3800,3800,12,16,-47,-41,214,3926,-7,8,890,1786,1875,2064,2257,2054,1825,1874,1993
14438,17192,-17028,16468,-16300,-3800,3800,14,18,-46,-37,202,3923,11,-6,890,1786,1875,2064,2257,2054,1825,1874,1993
15439,17188,-17016,16468,-16300,-3800,3800,14,23,-46,-46,198,3954,-4,8,890,1786,1875,2064,2257,2054,1825,1874,1993
16440,17192,-17020,16468,-16300,-3800,3800,12,22,-46,-27,187,3916,-4,-4,890,1787,1875,2064,2257,2055,1825,1874,1993
17441,17184,-17020,16468,-16300,-3800,3800,11,20,-48,-39,189,3937,9,7,890,1787,1875,2064,2257,2055,1825,1874,1993
18442,17200,-17028,16468,-16300,-3800,3800,11,17,-46,-43,165,3922,-6,-1,890,1787,1875,2064,2257,2055,1825,1874,1993
19443,17200,-17020,16468,-16300,-3800,3800,13,20,-47,-67,191,3914,10,-4,889,1787,1875,2064,2257,2055,1825,1874,1993
20444,17204,-17024,16468,-16300,-3800,3800,12,22,-47,-71,173,3938,-1,8,890,1787,1875,2064,2257,2055,1825,1874,1993
21445,17196,-17016,16468,-16300,-3800,3800,11,21,-48,-58,185,3939,-8,-3,890,1787,1875,2064,2257,2055,1825,1874,1993
22446,17204,-17024,16468,-16300,-3800,3800,13,23,-49,-56,173,3921,3,-2,890,1787,1876,2065,2258,2054,1825,1875,1991
23447,17204,-17028,16468,-16300,-3800,3800,14,21,-49,-25,200,3904,3,3,890,1787,1876,2065,2258,2054,1825,1875,1991
24448,17188,-17020,16468,-16300,-3800,3800,12,20,-49,-30,187,3930,-3,-6,890,1787,1876,2065,2258,2054,1825,1875,1991
25449,17192,-17028,16468,-16300,-3800,3800,10,18,-47,-20,189,3928,7,9,890,1787,1876,2065,2258,2054,1825,1875,1991
26450,17184,-17028,16468,-16300,-3800,3800,12,18,-47,-36,200,3945,7,-6,890,1787,1876,2065,2258,2054,1825,1875,1991
27451,17200,-17024,16468,-16300,-3800,3800,14,20,-45,-58,181,3935,-7,5,890,1786,1874,2065,2257,2053,1824,1874,1992
28452,17192,-17028,16468,-16300,-3800,3800,13,22,-47,-73,181,3914,12,5,890,1786,1874,2065,2257,2053,1824,1874,1992
29453,17196,-17032,16468,-16300,-3800,3800,12,20,-46,-46,156,3935,-8,-4,890,1786,1874,2065,2257,2053,1824,1874,1992
30454,17200,-17012,16468,-16300,-3800,3800,13,18,-43,-40,184,3961,10,8,890,1786,1874,2065,2257,2053,1824,1874,1992
31455,17192,-17012,16468,-16300,-3800,3800,14,19,-45,-45,190,3944,5,-1,890,1786,1874,2065,2257,2053,1824,1874,1992
32456,17192,-17016,16468,-16300,-3800,3800,15,19,-47,-56,197,3912,-4,4,890,1787,1876,2068,2257,2053,1824,1874,1992
33457,17192,-17016,16468,-16300,-3800,3800,15,20,-45,-66,196,3928,9,2,890,1787,1876,2068,2260,2056,1825,1874,1992
34458,17196,-17016,16468,-16300,-3800,3800,14,21,-43,-63,208,3914,-6,-5,890,1787,1876,2068,2260,2056,1825,1874,1992
35459,17192,-17028,16468,-16300,-3800,3800,13,22,-43,-44,187,3958,5,8,890,1787,1876,2068,2260,2056,1825,1874,1992
36460,17192,-17024,16468,-16300,-3800,3800,11,19,-45,-45,173,3969,1,-4,889,1787,1876,2068,2260,2056,1825,1874,1992
37461,17180,-17020,16468,-16300,-3800,3800,13,18,-44,-68,186,3951,-7,-5,890,1787,1876,2068,2260,2056,1825,1874,1992
38462,17184,-17028,16468,-16300,-3800,3800,15,19,-44,-64,205,3934,9,8,890,1787,1875,2065,2257,2054,1824,1874,1993
39463,17188,-17012,16468,-16300,-3800,3800,15,19,-45,-72,207,3900,2,-5,890,1787,1875,2065,2257,2054,1824,1874,1993
40464,17184,-17016,16468,-16300,-3800,3800,13,20,-45,-45,211,3872,-8,1,890,1787,1875,2065,2257,2054,1824,1874,1993
41465,17184,-17016,16468,-16300,-3800,3800,11,19,-42,-48,205,3941,10,0,890,1787,1875,2065,2257,2054,1824,1874,1993
42466,17200,-17028,16468,-16300,-3800,3800,11,21,-42,-53,193,3944,-1,-6,890,1787,1875,2065,2257,2054,1824,1874,1993
43467,17188,-17024,16468,-16300,-3800,3800,13,21,-43,-51,183,3954,-4,2,890,1787,1875,2066,2258,2054,1824,1874,1993
44468,17200,-17028,16468,-16300,-3800,3800,15,19,-44,-30,201,3921,11,4,890,1787,1875,2066,2258,2054,1824,1874,1993
45469,17192,-17020,16468,-16300,-3800,3800,15,17,-43,-57,184,3917,-8,-6,890,1787,1875,2066,2258,2054,1824,1874,1993
46470,17188,-17016,16468,-16300,-3800,3800,14,17,-43,-45,169,3946,-3,8,890,1787,1875,2066,2258,2054,1824,1874,1993
47471,17192,-17032,16468,-16300,-3800,3800,13,20,-44,-44,192,3952,11,-6,890,1787,1875,2066,2258,2054,1824,1874,1993
48472,17200,-17020,16468,-16300,-3800,3800,15,22,-47,-52,182,3912,-8,4,890,1787,1875,2066,2258,2054,1824,1874,1993
49473,17184,-17028,16468,-16300,-3800,3800,18,22,-46,-47,195,3916,5,6,890,1787,1875,2063,2255,2054,1825,1876,1994
50474,17196,-17020,16468,-16300,-3800,3800,17,19,-43,-26,201,3974,4,-4,890,1787,1875,2063,2255,2054,1825,1876,1994
51475,17196,-17032,16468,-16300,-3800,3800,17,14,-42,-28,171,3941,-3,8,890,1787,1875,2063,2255,2054,1825,1876,1994
52476,17176,-17024,16468,-16300,-3800,3800,16,16,-41,-49,171,3927,12,-4,890,1787,1875,2063,2255,2054,1825,1876,1994
53477,17196,-17016,16468,-16300,-3800,3800,16,20,-43,-61,172,3911,-6,6,889,1787,1875,2063,2255,2054,1825,1876,1994
54478,17196,-17016,16468,-16300,-3800,3800,17,21,-43,-46,186,3930,7,8,890,1786,1875,2066,2257,2054,1825,1874,1993
55479,17200,-17028,16468,-16300,-3800,3800,18,20,-45,-41,197,3959,10,-5,890,1786,1875,2066,2257,2054,1825,1874,1993
56480,17192,-17024,16468,-16300,-3800,3800,17,20,-48,-39,203,3976,-7,8,890,1786,1875,2066,2257,2054,1825,1874,1993
57481,17192,-17012,16468,-16300,-3800,3800,16,20,-45,-33,198,3925,7,-3,890,1786,1875,2066,2257,2054,1825,1874,1993
58482,17200,-17016,16468,-16300,-3800,3800,15,17,-45,-45,193,3940,7,-2,890,1786,1875,2066,2257,2054,1825,1874,1993
59483,17196,-17024,16468,-16300,-3800,3800,14,17,-46,-31,172,3962,-6,6,890,1786,1875,2066,2257,2054,1825,1874,1993
60484,17192,-17028,16468,-16300,-3800,3800,14,21,-46,-15,168,3916,11,-6,890,1787,1876,2068,2257,2056,1825,1874,1992
61485,17192,-17016,16468,-16300,-3800,3800,16,22,-45,-48,200,3937,-3,4,890,1787,1876,2068,2257,2056,1825,1874,1992
62486,17192,-17024,16468,-16300,-3800,3800,15,22,-44,-43,196,3950,4,-2,890,1787,1876,2068,2257,2056,1825,1874,1992
63487,17192,-17008,16468,-16300,-3800,3800,13,18,-45,-47,178,3938,3,-1,890,1787,1876,2068,2257,2056,1825,1874,1992
64488,17196,-17028,16468,-16300,-3800,3800,13,21,-48,-46,165,3908,-7,8,890,1787,1876,2068,2257,2056,1825,1874,1992
65489,17188,-17024,16468,-16300,-3800,3800,13,21,-48,-62,208,3922,9,-6,890,1786,1874,2066,2255,2054,1825,1874,1993
66490,17196,-17024,16468,-16300,-3800,3800,14,18,-45,-42,208,3936,-3,4,890,1786,1874,2066,2255,2054,1825,1874,1993
67491,17196,-17020,16468,-16300,-3800,3800,14,18,-44,-53,189,3936,12,4,890,1786,1874,2066,2255,2054,1825,1874,1993
68492,17196,-17020,16468,-16300,-3800,3800,15,19,-45,-51,196,3948,-8,-4,890,1786,1874,2066,2255,2054,1825,1874,1993
69493,17192,-17020,16468,-16300,-3800,3800,15,20,-45,-54,182,3912,12,9,890,1786,1874,2066,2255,2054,1825,1874,1993
70494,17188,-17032,16468,-16300,-3800,3800,13,20,-47,-43,192,3870,-7,-2,890,1786,1874,2066,2255,2054,1825,1874,1993
71495,17188,-17016,16468,-16300,-3800,3800,12,20,-47,-54,197,3922,5,-5,890,1786,1875,2065,2257,2054,1825,1874,1993
72496,17188,-17028,16468,-16300,-3800,3800,10,20,-45,-51,224,3922,9,9,890,1786,1875,2065,2257,2054,1825,1874,1993
73497,17192,-17028,16468,-16300,-3800,3800,11,19,-46,-78,210,3898,-3,-5,890,1786,1875,2065,2257,2054,1825,1874,1993
74498,17188,-17020,16468,-16300,-3800,3800,14,20,-48,-64,184,3897,0,8,890,1786,1875,2065,2257,2054,1825,1874,1993
75499,17192,-17024,16468,-16300,-3800,3800,13,23,-49,-48,189,3932,10,-3,890,1786,1875,2065,2257,2054,1825,1874,1993
76500,17188,-17020,16468,-16300,-3800,3800,10,19,-49,-51,213,3926,-5,1,890,1786,1874,2066,2257,2054,1825,1875,1993
77501,17196,-17024,16468,-16300,-3800,3800,10,17,-50,-54,205,3935,5,0,890,1786,1874,2066,2257,2054,1825,1875,1993
78502,17192,-17028,16468,-16300,-3800,3800,12,18,-48,-53,183,3942,4,-4,890,1786,1874,2066,2257,2054,1825,1875,1993
79503,17196,-17028,16468,-16300,-3800,3800,13,19,-48,-53,177,3933,-7,9,890,1786,1874,2066,2257,2054,1825,1875,1993
80504,17188,-17028,16468,-16300,-3800,3800,12,19,-45,-66,207,3934,12,-3,890,1786,1874,2066,2257,2054,1825,1875,1993
81505,17196,-17020,16468,-16300,-3800,3800,10,18,-48,-63,207,3957,-8,8,890,1786,1874,2066,2257,2054,1825,1875,1993
82506,17184,-17024,16468,-16300,-3800,3800,12,18,-47,-35,222,3963,12,-6,890,1786,1875,2066,2257,2054,1825,1874,1993
83507,17188,-17020,16468,-16300,-3800,3800,13,18,-45,-43,207,3900,-7,7,890,1786,1875,2066,2257,2054,1825,1874,1993
84508,17196,-17020,16468,-16300,-3800,3800,13,20,-45,-43,221,3914,8,2,890,1786,1875,2066,2257,2054,1825,1874,1993
85509,17200,-17028,16468,-16300,-3800,3800,15,20,-47,-47,217,3908,-7,-5,890,1786,1875,2066,2257,2054,1825,1874,1993
86510,17204,-17032,16468,-16300,-3800,3800,14,20,-44,-48,180,3948,11,8,890,1786,1875,2066,2257,2054,1825,1874,1993
87511,17196,-17024,16468,-16300,-3800,3800,15,18,-44,-54,184,3937,-8,-3,889,1786,1875,2067,2255,2051,1823,1875,1994
88512,17196,-17020,16468,-16300,-3800,3800,15,20,-44,-43,187,3919,5,-6,890,1786,1875,2067,2255,2051,1823,1875,1994
89513,17192,-17028,16468,-16300,-3800,3800,10,21,-47,-32,183,3945,5,8,890,1786,1875,2067,2255,2051,1823,1875,1994
90514,17196,-17024,16468,-16300,-3800,3800,10,19,-48,-54,171,3909,-3,-5,890,1786,1875,2067,2255,2051,1823,1875,1994
91515,17200,-17020,16468,-16300,-3800,3800,14,18,-47,-51,205,3939,11,6,890,1786,1875,2067,2255,2051,1823,1875,1994
92516,17192,-17028,16468,-16300,-3800,3800,14,17,-44,-48,203,3935,-8,-6,890,1786,1875,2067,2255,2051,1823,1875,1994
93517,17192,-17024,16468,-16300,-3800,3800,14,19,-45,-38,186,3943,11,7,890,1786,1876,2066,2257,2053,1825,1874,1992
94518,17180,-17024,16468,-16300,-3800,3800,14,19,-45,-74,223,3938,3,-3,890,1786,1876,2066,2257,2053,1825,1874,1992
95519,17200,-17020,16468,-16300,-3800,3800,13,18,-46,-51,199,3925,-4,8,890,1786,1876,2066,2257,2053,1825,1874,1992
96520,17188,-17028,16468,-16300,-3800,3800,13,19,-46,-37,172,3929,9,-1,890,1786,1876,2066,2257,2053,1825,1874,1992
97521,17200,-17028,16468,-16300,-3800,3800,12,20,-47,-59,168,3944,-8,-1,890,1786,1876,2066,2257,2053,1825,1874,1992
98522,17196,-17020,16468,-16300,-3800,3800,13,19,-45,-58,202,3935,9,0,890,1788,1876,2068,2260,2056,1826,1874,1993
99523,17192,-17020,16468,-16300,-3800,3800,14,19,-44,-25,188,3936,-1,-2,890,1788,1876,2068,2260,2056,1826,1874,1993
100524,17192,-17016,16468,-16300,-3800,3800,12,20,-43,-28,184,3941,-4,8,891,1788,1876,2068,2260,2056,1826,1874,1993
101525,17192,-17020,16468,-16300,-3800,3800,10,22,-42,-17,169,3929,2,-6,890,1788,1876,2068,2260,2056,1826,1874,1993
102526,17196,-17020,16468,-16300,-3800,3800,11,22,-43,-22,189,3937,-4,8,891,1788,1876,2068,2260,2056,1826,1874,1993
103527,17204,-17024,16468,-16300,-3800,3800,13,23,-42,-37,193,3918,11,-6,890,1788,1876,2068,2260,2056,1826,1874,1993
104528,17188,-17032,16468,-16300,-3800,3800,15,19,-42,-54,170,3904,-7,8,889,1786,1875,2067,2257,2054,1825,1875,1993
105529,17200,-17020,16468,-16300,-3800,3800,14,18,-42,-44,168,3922,3,4,890,1786,1875,2067,2257,2054,1825,1875,1993
106530,17184,-17024,16468,-16300,-3800,3800,16,21,-44,-42,198,3932,10,-5,890,1786,1875,2067,2257,2054,1825,1875,1993
107531,17192,-17028,16468,-16300,-3800,3800,15,21,-44,-29,202,3933,-6,7,890,1786,1875,2067,2257,2054,1825,1875,1993
108532,17192,-17020,16468,-16300,-3800,3800,14,20,-45,-36,187,3924,9,-6,890,1786,1875,2067,2257,2054,1825,1875,1993
109533,17192,-17024,16468,-16300,-3800,3800,15,20,-46,-34,183,3917,-8,7,890,1786,1875,2067,2257,2053,1824,1874,1992
110534,17192,-17024,16468,-16300,-3800,3800,15,21,-45,-59,200,3909,12,-6,890,1786,1875,2067,2257,2053,1824,1874,1992
111535,17188,-17016,16468,-16300,-3800,3800,12,21,-44,-49,187,3943,-7,8,890,1786,1875,2067,2257,2053,1824,1874,1992
112536,17196,-17032,16468,-16300,-3800,3800,12,21,-46,-55,206,3947,5,-4,890,1786,1875,2067,2257,2053,1824,1874,1992
113539,17200,-17012,16468,-16300,-3800,3800,15,21,-47,-54,187,3911,-2,8,890,1786,1875,2067,2257,2053,1824,1874,1992
114538,17184,-17036,16468,-16300,-3800,3800,13,20,-45,-67,198,3929,4,-4,890,1786,1875,2067,2257,2053,1824,1874,1992
115539,17196,-17020,16468,-16300,-3800,3800,13,21,-44,-62,187,3901,7,3,890,1786,1875,2067,2257,2053,1825,1873,1991
116540,17196,-17020,16468,-16300,-3800,3800,15,21,-44,-51,209,3937,-5,-4,890,1786,1875,2067,2257,2053,1825,1873,1991
117541,17192,-17020,16468,-16300,-3800,3800,15,19,-43,-57,200,3971,11,3,890,1786,1875,2067,2257,2053,1825,1873,1991
118542,17188,-17024,16468,-16300,-3800,3800,14,19,-43,-48,203,3941,-2,2,890,1786,1875,2067,2257,2053,1825,1873,1991
119543,17188,-17016,16468,-16300,-3800,3800,15,17,-44,-46,182,3940,0,7,890,1786,1875,2067,2257,2053,1825,1873,1991
120544,17188,-17024,16468,-16300,-3800,3800,15,19,-43,-42,190,3941,9,-3,890,1786,1875,2067,2258,2055,1826,1875,1992
121545,17188,-17024,16468,-16300,-3800,3800,15,21,-45,-44,187,3910,-8,1,890,1786,1875,2067,2258,2055,1826,1875,1992
122546,17196,-17024,16468,-16300,-3800,3800,15,19,-45,-54,194,3916,12,3,890,1786,1875,2067,2258,2055,1826,1875,1992
123547,17188,-17016,16468,-16300,-3800,3800,16,17,-43,-63,221,3919,-8,-5,890,1786,1875,2067,2258,2055,1826,1875,1992
124548,17192,-17036,16468,-16300,-3800,3800,15,18,-45,-42,209,3949,7,8,890,1786,1875,2067,2258,2055,1826,1875,1992
125549,17184,-17028,16468,-16300,-3800,3800,14,19,-46,-54,199,3919,3,-4,890,1786,1875,2067,2258,2055,1826,1875,1992
126550,17184,-17012,16468,-16300,-3800,3800,15,20,-46,-68,188,3927,-3,6,891,1787,1873,2063,2255,2055,1826,1876,1994
127551,17196,-17028,16468,-16300,-3800,3800,16,20,-46,-54,211,3927,12,-5,890,1787,1873,2063,2255,2055,1826,1876,1994
128552,17188,-17032,16468,-16300,-3800,3800,15,20,-46,-60,202,3939,-7,4,890,1787,1873,2063,2255,2055,1826,1876,1994
129553,17188,-17020,16468,-16300,-3800,3800,15,19,-47,-64,187,3961,5,-5,890,1787,1873,2063,2255,2055,1826,1876,1994
130554,17192,-17032,16468,-16300,-3800,3800,13,20,-46,-68,197,3931,12,9,890,1787,1873,2063,2255,2055,1826,1876,1994
131555,17192,-17020,16468,-16300,-3800,3800,14,21,-47,-57,177,3946,-8,-6,890,1786,1875,2067,2256,2053,1824,1873,1992
132556,17188,-17024,16468,-16300,-3800,3800,14,20,-45,-37,189,3938,3,8,890,1786,1875,2067,2256,2053,1824,1873,1992
133557,17192,-17024,16468,-16300,-3800,3800,14,21,-46,-35,204,3894,12,-5,890,1786,1875,2067,2256,2053,1824,1873,1992
134558,17192,-17028,16468,-16300,-3800,3800,14,21,-44,-54,204,3928,-8,8,890,1786,1875,2067,2256,2053,1824,1873,1992
135559,17184,-17032,16468,-16300,-3800,3800,14,19,-47,-54,194,3953,7,-6,890,1786,1875,2067,2256,2053,1824,1873,1992
136560,17184,-17016,16468,-16300,-3800,3800,16,20,-48,-48,200,3952,8,8,890,1786,1875,2067,2256,2053,1824,1873,1992
137561,17196,-17020,16468,-16300,-3800,3800,17,18,-47,-27,207,3929,-8,-6,890,1786,1876,2068,2257,2056,1824,1875,1992
138562,17196,-17028,16468,-16300,-3800,3800,16,18,-44,-56,201,3925,6,8,889,1786,1876,2068,2257,2056,1824,1875,1992
139563,17200,-17020,16468,-16300,-3800,3800,13,19,-46,-85,206,3916,11,5,890,1786,1876,2068,2257,2056,1824,1875,1992
140564,17180,-17028,16468,-16300,-3800,3800,12,20,-47,-53,198,3920,-7,-2,890,1786,1876,2068,2257,2056,1824,1875,1992
141565,17196,-17032,16468,-16300,-3800,3800,14,21,-48,-33,192,3930,4,5,890,1786,1876,2068,2257,2056,1824,1875,1992
142566,17200,-17032,16468,-16300,-3800,3800,15,22,-46,-37,191,3908,9,-5,891,1785,1874,2066,2256,2054,1824,1874,1993
143567,17196,-17020,16468,-16300,-3800,3800,15,19,-44,-31,182,3903,-5,8,890,1785,1874,2066,2256,2054,1824,1874,1993
144568,17196,-17032,16468,-16300,-3800,3800,14,18,-47,-50,198,3905,6,-6,890,1785,1874,2066,2256,2054,1824,1874,1993
145569,17192,-17028,16468,-16300,-3800,3800,14,19,-49,-67,170,3975,-8,2,890,1785,1874,2066,2256,2054,1824,1874,1993
146570,17196,-17024,16468,-16300,-3800,3800,14,19,-48,-43,176,3980,11,1,890,1785,1874,2066,2256,2054,1824,1874,1993
147571,17200,-17036,16468,-16300,-3800,3800,13,20,-46,-36,197,3977,-7,-5,890,1785,1874,2066,2256,2054,1824,1874,1993
148572,17200,-17024,16468,-16300,-3800,3800,12,20,-48,-54,190,3973,7,8,890,1786,1875,2067,2257,2054,1824,1875,1993
149573,17196,-17028,16468,-16300,-3800,3800,11,22,-46,-62,181,3930,2,-6,890,1786,1875,2067,2257,2054,1824,1875,1993
150574,17188,-17044,16468,-16300,-3800,3800,9,20,-46,-50,186,3929,-4,4,890,1786,1875,2067,2257,2054,1824,1875,1993
151575,17184,-17024,16468,-16300,-3800,3800,11,19,-47,-33,199,3950,11,2,890,1786,1875,2067,2257,2054,1824,1875,1993
152576,17188,-17020,16468,-16300,-3800,3800,13,19,-50,-43,212,3940,-8,5,890,1786,1875,2067,2257,2054,1824,1875,1993
153577,17188,-17028,16468,-16300,-3800,3800,13,20,-47,-49,184,3940,11,5,890,1786,1876,2068,2257,2054,1823,1871,1991
154578,17192,-17040,16468,-16300,-3800,3800,13,20,-46,-58,172,3955,-7,-6,890,1786,1876,2068,2257,2054,1823,1871,1991
155579,17196,-17032,16468,-16300,-3800,3800,14,21,-45,-49,185,3941,9,9,889,1786,1876,2068,2257,2054,1823,1871,1991
156580,17204,-17032,16468,-16300,-3800,3800,16,22,-45,-49,178,3930,0,0,890,1786,1876,2068,2257,2054,1823,1871,1991
157581,17204,-17036,16468,-16300,-3800,3800,15,20,-44,-49,177,3954,-8,-3,890,1786,1876,2068,2257,2054,1823,1871,1991
158582,17204,-17016,16468,-16300,-3800,3800,14,18,-44,-31,189,3968,10,4,890,1786,1876,2068,2257,2054,1823,1871,1991
159583,17192,-17020,16468,-16300,-3800,3800,12,19,-46,-32,170,3954,-8,-6,890,1786,1875,2068,2258,2054,1825,1874,1993
160584,17184,-17016,16468,-16300,-3800,3800,13,16,-47,-40,170,3936,3,8,890,1786,1875,2068,2258,2054,1825,1874,1993
161585,17196,-17012,16468,-16300,-3800,3800,12,19,-47,-37,167,3912,7,-6,890,1786,1875,2068,2258,2054,1825,1874,1993
162586,17196,-17020,16468,-16300,-3800,3800,12,20,-47,-34,167,3951,-8,7,890,1786,1875,2068,2258,2054,1825,1874,1993
163588,17188,-17024,16468,-16300,-3800,3800,12,20,-46,-50,173,3959,0,-2,890,1786,1875,2068,2258,2054,1825,1874,1993
164588,17192,-17028,16468,-16300,-3800,3800,12,19,-47,-39,198,3951,12,5,890,1786,1876,2070,2260,2056,1825,1874,1992
165589,17200,-17024,16468,-16300,-3800,3800,12,19,-47,-45,189,3942,-6,-1,890,1786,1876,2070,2260,2056,1825,1874,1992
166590,17196,-17024,16468,-16300,-3800,3800,12,21,-47,-23,181,3939,-7,0,890,1786,1876,2070,2260,2056,1825,1874,1992
167591,17200,-17020,16468,-16300,-3800,3800,14,20,-46,-64,166,3928,11,-2,890,1786,1876,2070,2260,2056,1825,1874,1992
168592,17196,-17024,16468,-16300,-3800,3800,14,19,-45,-51,189,3953,-4,4,890,1786,1876,2070,2260,2056,1825,1874,1992
169593,17192,-17024,16468,-16300,-3800,3800,14,20,-44,-53,203,3929,-4,0,890,1786,1876,2070,2260,2056,1825,1874,1992
170594,17200,-17024,16468,-16300,-3800,3800,13,20,-45,-51,198,3906,12,3,890,1785,1874,2067,2257,2054,1824,1874,1992
171595,17200,-17028,16468,-16300,-3800,3800,14,22,-47,-48,177,3953,-3,1,890,1785,1874,2067,2257,2054,1824,1874,1992
172596,17196,-17020,16468,-16300,-3800,3800,14,21,-47,-64,191,3954,-6,-1,890,1785,1874,2067,2257,2054,1824,1874,1992
173597,17192,-17024,16468,-16300,-3800,3800,14,20,-43,-79,190,3931,11,5,890,1785,1874,2067,2257,2054,1824,1874,1992
174598,17196,-17012,16468,-16300,-3800,3800,14,20,-43,-67,198,3930,-4,-4,890,1785,1874,2067,2257,2054,1824,1874,1992
175599,17188,-17020,16468,-16300,-3800,3800,15,18,-44,-49,194,3966,-4,7,891,1786,1875,2067,2256,2053,1824,1873,1991
176600,17192,-17020,16468,-16300,-3800,3800,13,20,-45,-64,189,3958,8,0,890,1786,1875,2067,2256,2053,1824,1873,1991
177601,17184,-17020,16468,-16300,-3800,3800,14,23,-47,-71,173,3943,-7,5,890,1786,1875,2067,2256,2053,1824,1873,1991
178602,17196,-17028,16468,-16300,-3800,3800,12,23,-47,-55,183,3916,6,-3,891,1786,1875,2067,2256,2053,1824,1873,1991
179603,17192,-17020,16468,-16300,-3800,3800,12,21,-45,-47,180,3903,-1,2,890,1786,1875,2067,2256,2053,1824,1873,1991
180604,17188,-17028,16468,-16300,-3800,3800,14,21,-46,-40,193,3911,4,1,890,1786,1875,2067,2256,2053,1824,1873,1991
181605,17192,-17016,16468,-16300,-3800,3800,16,20,-47,-34,190,3927,7,4,891,1786,1875,2068,2257,2053,1824,1874,1992
182606,17192,-17036,16468,-16300,-3800,3800,17,19,-45,-53,183,3923,-2,4,890,1786,1875,2068,2257,2053,1824,1874,1992
183607,17196,-17024,16468,-16300,-3800,3800,15,19,-45,-45,202,3932,4,1,890,1786,1875,2068,2257,2053,1824,1874,1992
184608,17196,-17036,16468,-16300,-3800,3800,13,21,-46,-32,173,3910,-7,0,890,1786,1875,2068,2257,2053,1824,1874,1992
185609,17200,-17020,16468,-16300,-3800,3800,13,21,-46,-63,189,3897,11,-1,890,1786,1875,2068,2257,2053,1824,1874,1992
186610,17184,-17016,16468,-16300,-3800,3800,14,18,-41,-87,182,3955,-5,3,890,1785,1875,2067,2257,2054,1824,1875,1993
187611,17204,-17028,16468,-16300,-3800,3800,15,19,-44,-37,192,3906,-6,1,890,1785,1875,2067,2257,2054,1824,1875,1993
188612,17188,-17020,16468,-16300,-3800,3800,15,22,-44,-32,200,3892,10,6,890,1785,1875,2067,2257,2054,1824,1875,1993
189613,17192,-17024,16468,-16300,-3800,3800,17,20,-43,-46,200,3932,-7,2,889,1785,1875,2067,2257,2054,1824,1875,1993
190614,17196,-17020,16468,-16300,-3800,3800,18,19,-43,-51,204,3926,-6,-4,890,1785,1875,2067,2257,2054,1824,1875,1993
191615,17192,-17024,16468,-16300,-3800,3800,15,16,-44,-52,196,3916,11,5,890,1785,1875,2067,2257,2054,1824,1875,1993
192616,17188,-17020,16468,-16300,-3800,3800,15,17,-44,-52,193,3936,-3,-3,890,1786,1875,2068,2257,2054,1823,1871,1991
193617,17192,-17032,16468,-16300,-3800,3800,15,18,-44,-58,190,3925,-4,4,890,1786,1875,2068,2257,2054,1823,1871,1991
194618,17200,-17020,16468,-16300,-3800,3800,15,18,-43,-69,194,3925,11,-5,890,1786,1875,2068,2257,2054,1823,1871,1991
195619,17184,-17024,16468,-16300,-3800,3800,15,19,-47,-63,189,3951,-7,5,890,1786,1875,2068,2257,2054,1823,1871,1991
196620,17196,-17024,16468,-16300,-3800,3800,13,20,-46,-53,211,3919,7,-1,890,1786,1875,2068,2257,2054,1823,1871,1991
197621,17192,-17016,16468,-16300,-3800,3800,14,18,-48,-53,203,3903,-2,5,890,1785,1875,2068,2258,2054,1824,1874,1993
198622,17188,-17024,16468,-16300,-3800,3800,14,20,-48,-67,184,3922,3,3,890,1785,1875,2068,2258,2054,1824,1874,1993
199623,17200,-17024,16468,-16300,-3800,3800,12,20,-46,-63,195,3894,3,-5,890,1785,1875,2068,2258,2054,1824,1874,1993
200624,17192,-17020,16468,-16300,-3800,3800,12,19,-46,-57,192,3925,-1,6,890,1785,1875,2068,2258,2054,1824,1874,1993
201625,17188,-17020,16533,-16235,-325,1383,13,18,-45,-48,162,3925,2,-6,890,1785,1875,2068,2258,2054,1824,1874,1993
202626,17196,-17024,16598,-16170,-406,1517,12,18,-46,-44,176,3913,-4,3,880,1785,1875,2068,2258,2054,1824,1874,1993
203627,17196,-17040,16663,-16105,-227,1766,13,22,-43,-40,171,3953,-6,11,878,1783,1871,2067,2255,2055,1826,1876,1994
204628,17184,-16996,16728,-16040,17,1041,12,22,-50,-97,203,3892,-1,22,875,1783,1871,2067,2255,2055,1826,1876,1994
205629,17192,-16948,16793,-15975,-164,1013,14,17,-49,-16,174,3838,-4,29,884,1783,1871,2067,2255,2055,1826,1876,1994
206630,17196,-16892,16858,-15910,-40,924,11,1,-45,-94,211,4088,3,35,875,1783,1871,2067,2255,2055,1826,1876,1994
207631,17188,-16832,16923,-15845,199,881,11,-12,-41,-349,194,4102,10,44,885,1783,1871,2067,2255,2055,1826,1876,1994
208632,17192,-16740,16988,-15780,123,448,12,-31,-51,-100,120,4008,6,36,884,1785,1862,2068,2257,2057,1823,1872,1996
209633,17196,-16656,17053,-15715,198,525,17,-43,-57,18,118,4047,-3,53,888,1785,1862,2068,2257,2057,1823,1872,1996
210634,17188,-16584,17118,-15650,437,668,29,-26,-59,3,145,4089,8,46,887,1785,1862,2068,2257,2057,1823,1872,1996
211635,17192,-16488,17183,-15585,362,330,18,-14,-78,98,84,3808,-3,43,885,1785,1862,2068,2257,2057,1823,1872,1996
212636,17192,-16376,17248,-15520,491,72,15,-3,-92,101,132,3879,4,59,887,1785,1862,2068,2257,2057,1823,1872,1996
213637,17192,-16292,17313,-15455,570,400,-7,-10,-104,-14,171,3960,17,60,887,1785,1862,2068,2257,2057,1823,1872,1996
214638,17208,-16216,17378,-15390,430,487,-22,4,-119,-41,5,3865,7,54,886,1790,1882,2075,2263,2057,1827,1879,1999
215639,17208,-16112,17443,-15325,709,89,-41,-8,-128,79,93,3804,26,56,886,1790,1882,2075,2263,2057,1827,1879,1999
216640,17236,-16032,17508,-15260,405,372,-44,-19,-131,-204,65,4079,13,45,886,1790,1882,2075,2263,2057,1827,1879,1999
217641,17252,-15948,17573,-15195,614,299,-39,-28,-136,-203,8,3953,12,44,887,1790,1882,2075,2263,2057,1827,1879,1999
218642,17272,-15868,17638,-15130,620,330,-36,-56,-147,-203,-25,3913,31,55,886,1790,1882,2075,2263,2057,1827,1879,1999
219643,17304,-15772,17703,-15065,511,93,-29,-64,-145,-217,36,3980,33,58,886,1786,1877,2068,2255,2063,1832,1884,2003
220644,17352,-15716,17768,-15000,331,605,-31,-85,-137,-206,38,4002,33,48,887,1786,1877,2068,2255,2063,1832,1884,2003
221645,17384,-15620,17833,-14935,572,67,-36,-94,-139,-214,-9,3998,23,44,886,1786,1877,2068,2255,2063,1832,1884,2003
222646,17416,-15532,17898,-14870,612,139,-37,-109,-139,-95,-40,3995,28,54,887,1786,1877,2068,2255,2063,1832,1884,2003
223647,17464,-15452,17963,-14805,433,221,-32,-117,-134,-201,127,4059,38,48,886,1786,1877,2068,2255,2063,1832,1884,2003
224648,17516,-15384,18028,-14740,399,368,-29,-128,-128,-328,34,4170,38,56,888,1786,1877,2068,2255,2063,1832,1884,2003
225649,17568,-15316,18093,-14675,415,364,-20,-123,-141,33,29,4143,32,55,887,1775,1871,2060,2248,2062,1830,1882,2002
226650,17624,-15240,18158,-14610,376,251,-10,-113,-145,6,24,4182,25,55,887,1775,1871,2060,2248,2062,1830,1882,2002
227651,17688,-15156,18223,-14545,278,127,-3,-106,-146,-31,50,4126,29,44,887,1775,1871,2060,2248,2062,1830,1882,2002
228652,17748,-15072,18288,-14480,334,105,-4,-99,-155,-156,74,3994,28,42,889,1775,1871,2060,2248,2062,1830,1882,2002
229653,17792,-14980,18353,-14415,559,-28,-8,-92,-168,-58,115,3966,45,51,888,1775,1871,2060,2248,2062,1830,1882,2002
230654,17860,-14924,18418,-14350,257,433,-19,-107,-181,-144,41,3870,28,37,887,1784,1877,2067,2259,2055,1825,1879,1997
231655,17924,-14852,18483,-14285,308,225,-26,-121,-186,-194,130,3857,29,51,887,1784,1877,2067,2259,2055,1825,1879,1997
232656,17980,-14788,18548,-14220,419,327,-33,-142,-185,-215,85,3745,33,34,888,1784,1877,2067,2259,2055,1825,1879,1997
233657,18020,-14712,18613,-14155,649,163,-37,-152,-196,-275,26,3806,45,45,887,1784,1877,2067,2259,2055,1825,1879,1997
234658,18096,-14648,18678,-14090,187,315,-55,-144,-208,-209,-74,3720,27,46,886,1784,1877,2067,2259,2055,1825,1879,1997
235659,18152,-14588,18743,-14025,448,371,-57,-100,-209,-79,-159,3556,48,42,888,1784,1877,2067,2259,2055,1825,1879,1997
236660,18208,-14544,18808,-13960,459,596,-61,-92,-223,-7,-72,3641,30,37,887,1802,1890,2080,2272,2050,1820,1873,1989
237661,18260,-14492,18873,-13895,525,513,-63,-99,-228,-190,-97,3833,46,35,886,1802,1890,2080,2272,2050,1820,1873,1989
238662,18336,-14440,18938,-13830,211,529,-48,-78,-209,-233,-152,4324,33,46,886,1802,1890,2080,2272,2050,1820,1873,1989
239663,18396,-14372,19003,-13765,418,325,-40,-87,-205,15,-30,3655,34,45,887,1802,1890,2080,2272,2050,1820,1873,1989
240664,18456,-14336,19068,-13700,425,761,-24,-117,-189,-756,-30,3732,42,36,886,1802,1890,2080,2272,2050,1820,1873,1989
241665,18528,-14252,19133,-13635,266,139,-10,-114,-187,-284,75,4287,35,45,885,1785,1870,2061,2251,2039,1812,1862,1974
242666,18592,-14196,19198,-13570,367,500,3,-119,-160,-262,138,4040,33,44,889,1785,1870,2061,2251,2039,1812,1862,1974
243667,18656,-14128,19263,-13505,369,346,20,-124,-143,-201,140,3849,42,46,886,1785,1870,2061,2251,2039,1812,1862,1974
244668,18724,-14072,19328,-13440,316,507,16,-118,-132,-263,194,3997,50,44,887,1785,1870,2061,2251,2039,1812,1862,1974
245669,18772,-14008,19393,-13375,587,409,21,-88,-113,-88,98,4054,50,37,887,1785,1870,2061,2251,2039,1812,1862,1974
246670,18832,-13956,19458,-13310,443,575,27,-74,-98,2,186,4027,45,42,886,1785,1870,2061,2251,2039,1812,1862,1974
247671,18872,-13900,19523,-13245,724,536,37,-69,-95,-127,212,3827,30,33,886,1773,1859,2049,2243,2031,1806,1860,1972
248672,18944,-13840,19588,-13180,316,492,41,-62,-95,-201,248,3878,34,35,884,1773,1859,2049,2243,2031,1806,1860,1972
249673,19012,-13776,19653,-13115,362,443,39,-58,-102,-98,305,3809,37,34,886,1773,1859,2049,2243,2031,1806,1860,1972
250674,19088,-13712,19718,-13050,249,446,45,-57,-110,43,187,3790,37,32,886,1773,1859,2049,2243,2031,1806,1860,1972
251675,19156,-13644,19783,-12985,345,392,48,-62,-115,-136,238,3881,50,34,887,1773,1859,2049,2243,2031,1806,1860,1972
252676,19232,-13588,19848,-12920,232,553,68,-80,-110,-325,184,3865,36,31,887,1793,1877,2070,2267,2044,1816,1869,1987
253677,19280,-13536,19913,-12855,603,619,80,-95,-110,-241,166,3876,34,46,887,1793,1877,2070,2267,2044,1816,1869,1987
254678,19352,-13456,19978,-12790,295,251,92,-88,-119,-4,120,3822,31,42,884,1793,1877,2070,2267,2044,1816,1869,1987
255679,19420,-13400,20043,-12725,341,562,96,-75,-110,-65,102,3789,49,41,888,1793,1877,2070,2267,2044,1816,1869,1987
256680,19472,-13340,20108,-12660,558,519,97,-75,-97,-195,105,3827,30,42,886,1793,1877,2070,2267,2044,1816,1869,1987
257681,19548,-13284,20173,-12595,244,581,97,-82,-90,-300,104,3856,47,43,884,1793,1877,2070,2267,2044,1816,1869,1987
258682,19604,-13224,20238,-12530,505,537,100,-89,-83,-196,99,3949,50,46,886,1807,1893,2087,2275,2048,1816,1868,1989
259683,19664,-13152,20303,-12465,462,378,105,-102,-61,-268,102,3893,30,32,885,1807,1893,2087,2275,2048,1816,1868,1989
260684,19732,-13104,20368,-12400,359,699,109,-117,-39,-306,198,4029,47,45,886,1807,1893,2087,2275,2048,1816,1868,1989
261685,19804,-13036,20433,-12335,300,446,110,-127,-26,-227,193,4056,33,45,885,1807,1893,2087,2275,2048,1816,1868,1989
262686,19868,-12968,20498,-12270,402,443,109,-139,-8,-212,195,4050,49,35,887,1807,1893,2087,2275,2048,1816,1868,1989
263687,19920,-12924,20563,-12205,567,768,118,-151,9,-232,244,4107,33,31,887,1798,1888,2078,2262,2045,1813,1868,1991
264688,19968,-12856,20628,-12140,639,465,119,-148,19,-155,252,4107,35,32,883,1798,1888,2078,2262,2045,1813,1868,1991
265689,20040,-12776,20693,-12075,331,297,119,-143,23,-98,306,4130,45,33,885,1798,1888,2078,2262,2045,1813,1868,1991
266690,20092,-12728,20758,-12010,596,718,124,-145,22,-44,373,4125,37,40,887,1798,1888,2078,2262,2045,1813,1868,1991
267691,20148,-12660,20823,-11945,557,464,124,-160,25,-133,342,4271,41,38,884,1798,1888,2078,2262,2045,1813,1868,1991
268692,20200,-12604,20888,-11880,624,625,133,-179,17,-103,427,4123,50,44,886,1790,1879,2069,2254,2045,1813,1868,1991
269693,20284,-12544,20953,-11815,201,582,140,-187,18,-89,354,4226,50,42,884,1790,1879,2069,2254,2059,1827,1882,2006
270694,20348,-12496,21018,-11750,452,753,146,-205,19,0,275,4070,33,36,886,1790,1879,2069,2254,2059,1827,1882,2006
271695,20416,-12440,21083,-11685,399,664,150,-210,13,-83,296,4096,34,30,885,1790,1879,2069,2254,2059,1827,1882,2006
272696,20480,-12368,21148,-11620,451,457,154,-212,12,-95,261,3966,37,34,885,1790,1879,2069,2254,2059,1827,1882,2006
273697,20556,-12304,21213,-11555,288,558,153,-222,17,-142,290,3979,42,45,886,1790,1879,2069,2254,2059,1827,1882,2006
274698,20612,-12248,21278,-11490,548,669,154,-244,22,-218,130,3855,31,43,885,1793,1885,2075,2263,2078,1843,1893,2020
275699,20676,-12188,21343,-11425,450,625,141,-244,23,-91,117,4003,28,43,884,1793,1885,2075,2263,2078,1843,1893,2020
276700,20736,-12108,21408,-11360,507,358,139,-250,34,-78,158,3846,47,46,885,1793,1885,2075,2263,2078,1843,1893,2020
277701,20784,-12060,21473,-11295,678,778,127,-254,50,-171,113,3916,34,41,886,1793,1885,2075,2263,2078,1843,1893,2020
278702,20852,-11988,21538,-11230,424,470,125,-253,58,-174,73,3894,47,38,883,1793,1885,2075,2263,2078,1843,1893,2020
279703,20904,-11936,21603,-11165,640,737,106,-245,68,-109,70,3968,30,32,886,1797,1888,2083,2265,2073,1837,1886,2009
280704,20956,-11876,21668,-11100,657,643,107,-227,79,-45,42,3923,29,45,883,1797,1888,2083,2265,2073,1837,1886,2009
281705,21024,-11820,21733,-11035,453,704,95,-233,86,-53,84,3947,34,35,884,1797,1888,2083,2265,2073,1837,1886,2009
282706,21084,-11744,21798,-10970,559,440,99,-228,82,-121,103,4063,39,45,884,1797,1888,2083,2265,2073,1837,1886,2009
283707,21136,-11696,21863,-10905,675,812,92,-216,83,-121,97,4075,38,31,885,1797,1888,2083,2265,2073,1837,1886,2009
284708,21200,-11652,21928,-10840,527,888,84,-210,91,3,119,4037,36,36,883,1797,1888,2083,2265,2073,1837,1886,2009
285709,21264,-11576,21993,-10775,528,474,85,-205,89,1,131,4133,32,47,883,1776,1866,2057,2240,2056,1824,1870,1989
286710,21316,-11516,22058,-10710,694,681,79,-193,77,87,105,4012,40,41,885,1776,1866,2057,2240,2056,1824,1870,1989
287711,21380,-11460,22123,-10645,546,742,86,-181,90,38,151,4213,40,45,883,1776,1866,2057,2240,2056,1824,1870,1989
288712,21428,-11396,22188,-10580,767,644,115,-156,116,-35,-10,4209,45,47,884,1776,1866,2057,2240,2056,1824,1870,1989
289713,21480,-11320,22253,-10515,733,481,135,-138,141,-569,130,4222,44,36,883,1776,1866,2057,2240,2056,1824,1870,1989
290714,21540,-11256,22318,-10450,639,632,110,-96,129,-35,480,3648,48,50,884,1765,1854,2048,2240,2053,1822,1872,1987
291715,21588,-11196,22383,-10385,811,688,79,-44,147,180,122,3993,39,47,883,1765,1854,2048,2240,2053,1822,1872,1987
292716,21652,-11132,22448,-10320,612,640,60,-34,161,111,74,3735,46,48,883,1765,1854,2048,2240,2053,1822,1872,1987
293717,21720,-11072,22513,-10255,559,697,58,-49,171,-494,166,3931,45,35,884,1765,1854,2048,2240,2053,1822,1872,1987
294718,21792,-11004,22578,-10190,501,593,62,-64,153,-252,248,3666,53,46,884,1765,1854,2048,2240,2053,1822,1872,1987
295719,21852,-10936,22643,-10125,657,589,70,-71,138,2,87,3864,52,35,885,1765,1854,2048,2240,2053,1822,1872,1987
296720,21924,-10864,22708,-10060,499,532,77,-114,130,47,33,3518,39,37,884,1780,1865,2064,2257,2059,1828,1875,1990
297721,21996,-10812,22773,-9995,490,798,75,-169,126,-316,97,3527,42,46,885,1780,1865,2064,2257,2059,1828,1875,1990
298722,22052,-10740,22838,-9930,702,539,83,-164,112,-550,-42,3664,34,34,884,1780,1865,2064,2257,2059,1828,1875,1990
299723,22128,-10680,22903,-9865,439,696,87,-107,109,-330,-129,3846,31,41,884,1780,1865,2064,2257,2059,1828,1875,1990
300724,22188,-10616,22968,-9800,645,648,103,-4,117,6,-157,3905,49,42,884,1780,1865,2064,2257,2059,1828,1875,1990
301725,22252,-10548,23033,-9735,597,594,110,102,121,122,-34,4100,33,31,884,1783,1870,2063,2247,2041,1810,1861,1977
302726,22324,-10484,23098,-9670,488,646,144,197,140,-31,-179,4414,46,46,884,1783,1870,2063,2247,2041,1810,1861,1977
303727,22400,-10428,23163,-9605,425,757,179,258,172,-856,3,4491,52,37,885,1783,1870,2063,2247,2041,1810,1861,1977
304728,22460,-10372,23228,-9540,632,768,174,307,167,-792,455,3865,34,43,884,1783,1870,2063,2247,2041,1810,1861,1977
305729,22516,-10316,23293,-9475,693,779,159,339,173,-128,365,4182,32,38,883,1783,1870,2063,2247,2041,1810,1861,1977
306730,22580,-10264,23358,-9410,594,846,163,308,212,-457,78,4164,33,45,882,1783,1870,2063,2247,2041,1810,1861,1977
307731,22652,-10188,23423,-9345,486,533,138,214,228,-1364,449,3697,34,39,883,1782,1867,2058,2258,2016,1797,1851,1955
308732,22716,-10132,23488,-9280,588,794,121,169,222,-1155,280,3928,51,45,883,1782,1867,2058,2258,2016,1797,1851,1955
309733,22776,-10076,23553,-9215,644,806,106,107,219,-382,199,3665,36,30,883,1782,1867,2058,2258,2016,1797,1851,1955
310734,22824,-10024,23618,-9150,815,871,109,-14,219,-545,198,3524,49,33,882,1782,1867,2058,2258,2016,1797,1851,1955
311735,22904,-9972,23683,-9085,397,887,108,-97,216,-898,165,3772,34,35,881,1782,1867,2058,2258,2016,1797,1851,1955
312736,22964,-9908,23748,-9020,654,739,116,-147,213,-389,59,3651,53,37,883,1798,1878,2074,2271,2041,1816,1873,1998
313737,23040,-9844,23813,-8955,440,741,137,-152,213,370,-128,3845,49,39,883,1798,1878,2074,2271,2041,1816,1873,1998
314738,23116,-9796,23878,-8890,427,961,188,-75,248,50,-276,4229,47,35,884,1798,1878,2074,2271,2041,1816,1873,1998
315739,23184,-9736,23943,-8825,524,819,202,11,255,-5,182,3755,42,29,883,1798,1878,2074,2271,2041,1816,1873,1998
316740,23244,-9680,24008,-8760,630,880,193,121,251,456,-27,4036,43,37,883,1798,1878,2074,2271,2041,1816,1873,1998
317741,23316,-9600,24073,-8695,472,561,203,190,261,796,-30,4131,32,43,883,1798,1878,2074,2271,2041,1816,1873,1998
318742,23392,-9556,24138,-8630,409,1038,229,170,264,56,54,3891,36,36,885,1804,1894,2076,2248,2058,1815,1879,2012
319743,23456,-9508,24203,-8565,560,1009,248,139,251,-584,165,4193,39,34,882,1804,1894,2076,2248,2058,1815,1879,2012
320744,23512,-9448,24268,-8500,671,865,253,88,227,-397,172,3680,39,37,881,1804,1894,2076,2248,2058,1815,1879,2012
321745,23572,-9396,24333,-8435,627,982,247,25,206,-166,230,4008,41,38,882,1804,1894,2076,2248,2058,1815,1879,2012
322746,23632,-9320,24398,-8370,635,668,255,-25,220,-492,58,4278,34,42,881,1804,1894,2076,2248,2058,1815,1879,2012
323747,23692,-9280,24463,-8305,641,1150,273,-72,239,-851,219,4367,36,31,884,1786,1881,2061,2237,2045,1803,1867,1989
324748,23768,-9216,24528,-8240,427,851,278,-106,244,-1001,336,4158,45,43,880,1786,1881,2061,2237,2045,1803,1867,1989
325749,23828,-9136,24593,-8175,634,633,260,-108,247,-365,377,4165,31,45,882,1786,1881,2061,2237,2045,1803,1867,1989
326750,23872,-9076,24658,-8110,860,890,275,-112,266,-183,-3,4262,32,43,884,1786,1881,2061,2237,2045,1803,1867,1989
327751,23928,-9024,24723,-8045,721,1006,300,-135,261,-428,225,4209,48,37,881,1786,1881,2061,2237,2045,1803,1867,1989
328752,23996,-8972,24788,-7980,568,1021,345,-112,218,-287,301,4342,48,33,880,1786,1881,2061,2237,2045,1803,1867,1989
329753,24044,-8916,24853,-7915,839,983,400,-82,193,518,118,4424,36,45,881,1788,1888,2073,2264,2048,1815,1876,1994
330754,24108,-8860,24918,-7850,640,994,468,-85,215,194,122,4294,54,30,880,1788,1888,2073,2264,2048,1815,1876,1994
331755,24188,-8792,24983,-7785,422,842,479,-96,217,-233,494,3898,53,45,881,1788,1888,2073,2264,2048,1815,1876,1994
332756,24256,-8736,25048,-7720,569,1003,477,-57,219,123,275,4228,44,45,883,1788,1888,2073,2264,2048,1815,1876,1994
333757,24332,-8676,25113,-7655,456,959,459,-43,225,832,244,3808,53,43,882,1788,1888,2073,2264,2048,1815,1876,1994
334758,24388,-8628,25178,-7590,717,1131,477,-23,248,404,-188,4438,47,35,882,1828,1917,2113,2323,2033,1814,1868,1973
335759,24460,-8564,25243,-7525,509,932,505,-34,261,-257,295,4262,37,45,880,1828,1917,2113,2323,2033,1814,1868,1973
336760,24540,-8488,25308,-7460,391,768,498,-58,242,95,209,3534,34,45,882,1828,1917,2113,2323,2033,1814,1868,1973
337761,24600,-8436,25373,-7395,647,1085,503,-104,249,415,-139,4123,46,42,884,1828,1917,2113,2323,2033,1814,1868,1973
338764,24660,-8392,25438,-7330,653,1211,515,-170,267,-71,129,4087,35,29,881,1828,1917,2113,2323,2033,1814,1868,1973
339763,24728,-8328,25503,-7265,551,963,506,-175,234,67,450,3933,37,44,879,1828,1917,2113,2323,2033,1814,1868,1973
340764,24788,-8280,25568,-7200,657,1184,524,-108,211,874,131,4638,34,33,881,1841,1918,2113,2319,2020,1799,1855,1964
341765,24852,-8208,25633,-7135,608,875,558,-108,227,728,-151,4416,41,43,879,1841,1918,2113,2319,2020,1799,1855,1964
342766,24916,-8136,25698,-7070,610,868,592,-109,239,-426,238,4688,47,33,881,1841,1918,2113,2319,2020,1799,1855,1964
343767,24984,-8084,25763,-7005,556,1134,590,-49,205,116,473,4242,38,29,882,1841,1918,2113,2319,2020,1799,1855,1964
344768,25036,-8048,25828,-6940,772,1370,608,-26,190,1074,170,4479,41,31,880,1841,1918,2113,2319,2020,1799,1855,1964
345769,25084,-8004,25893,-6875,844,1296,634,-37,195,524,121,4504,40,42,877,1807,1893,2078,2266,2037,1802,1865,1989
346770,25160,-7932,25958,-6810,481,938,652,-40,157,-169,556,4275,46,44,877,1807,1893,2078,2266,2037,1802,1865,1989
347771,25212,-7860,26023,-6745,796,930,670,-10,143,117,211,4300,50,44,882,1807,1893,2078,2266,2037,1802,1865,1989
348772,25272,-7792,26088,-6680,703,976,699,-19,166,463,8,4236,38,32,881,1807,1893,2078,2266,2037,1802,1865,1989
349773,25324,-7728,26153,-6615,819,1028,717,-47,185,-267,183,4111,48,32,880,1807,1893,2078,2266,2037,1802,1865,1989
350774,25384,-7692,26218,-6550,726,1414,710,-71,187,-327,472,3816,45,40,879,1807,1893,2078,2266,2037,1802,1865,1989
351775,25432,-7640,26283,-6485,896,1230,700,-48,191,540,222,3870,35,42,877,1785,1888,2071,2256,2070,1825,1888,2019
352776,25508,-7592,26348,-6420,534,1301,706,-61,224,587,-106,3857,34,28,877,1785,1888,2071,2256,2070,1825,1888,2019
353777,25576,-7520,26413,-6355,630,994,728,-79,255,-183,76,3996,43,35,879,1785,1888,2071,2256,2070,1825,1888,2019
354778,25632,-7476,26478,-6290,791,1369,740,-48,275,-258,144,4138,37,29,881,1785,1888,2071,2256,2070,1825,1888,2019
355779,25704,-7408,26543,-6225,584,1066,735,-52,274,624,215,3500,44,32,876,1785,1888,2071,2256,2070,1825,1888,2019
356780,25784,-7336,26608,-6160,465,1008,730,-96,287,827,125,3734,37,39,880,1785,1885,2073,2250,2079,1833,1887,2014
357781,25860,-7284,26673,-6095,502,1274,738,-125,301,396,129,4041,42,32,882,1785,1885,2073,2250,2079,1833,1887,2014
358782,25912,-7224,26738,-6030,819,1181,736,-148,312,118,256,3813,35,41,880,1785,1885,2073,2250,2079,1833,1887,2014
359783,25968,-7152,26803,-5965,780,1022,712,-142,315,576,260,4024,44,45,877,1785,1885,2073,2250,2079,1833,1887,2014
360784,26036,-7092,26868,-5900,626,1180,714,-130,314,852,156,4035,33,43,879,1785,1885,2073,2250,2079,1833,1887,2014
361785,26100,-7008,26933,-5835,678,856,699,-185,336,354,260,4112,46,34,880,1785,1885,2073,2250,2079,1833,1887,2014
362786,26160,-6960,26998,-5770,734,1328,687,-214,326,270,422,3788,37,38,881,1771,1858,2050,2227,2057,1815,1863,1991
363787,26204,-6904,27063,-5705,960,1239,666,-239,314,707,168,4029,31,39,878,1771,1858,2050,2227,2057,1815,1863,1991
364788,26272,-6852,27128,-5640,657,1305,672,-269,323,607,142,3977,33,44,877,1771,1858,2050,2227,2057,1815,1863,1991
365789,26344,-6788,27193,-5575,599,1157,650,-332,320,-165,462,3946,50,46,878,1771,1858,2050,2227,2057,1815,1863,1991
366790,26396,-6704,27258,-5510,865,884,622,-334,313,84,323,3875,32,36,880,1771,1858,2050,2227,2057,1815,1863,1991
367791,26456,-6664,27323,-5445,771,1466,606,-350,322,552,410,3897,49,46,880,1753,1844,2037,2208,2060,1815,1867,2006
368792,26520,-6592,27388,-5380,723,1057,591,-366,323,442,261,3905,30,46,877,1753,1844,2037,2208,2060,1815,1867,2006
369793,26580,-6532,27453,-5315,779,1214,614,-384,367,-363,-188,4224,39,35,879,1753,1844,2037,2208,2060,1815,1867,2006
370794,26632,-6448,27518,-5250,895,891,607,-437,391,-924,478,4004,33,35,879,1753,1844,2037,2208,2060,1815,1867,2006
371795,26684,-6400,27583,-5185,912,1363,600,-434,393,128,368,3847,51,42,880,1753,1844,2037,2208,2060,1815,1867,2006
372796,26752,-6332,27648,-5120,708,1109,605,-415,406,575,402,4076,39,40,876,1753,1844,2037,2208,2060,1815,1867,2006
373797,26808,-6300,27713,-5055,869,1600,599,-416,401,-26,420,3735,47,34,879,1757,1859,2054,2222,2089,1835,1890,2033
374798,26880,-6256,27778,-4990,662,1476,590,-357,398,-156,451,3780,36,29,875,1757,1859,2054,2222,2089,1835,1890,2033
375799,26932,-6188,27843,-4925,928,1173,582,-363,397,288,630,3399,49,37,876,1757,1859,2054,2222,2089,1835,1890,2033
376800,27016,-6136,27908,-4860,505,1389,565,-407,388,245,464,3456,52,31,876,1757,1859,2054,2222,2089,1835,1890,2033
377801,27092,-6084,27973,-4795,592,1406,577,-425,379,-525,475,3829,35,40,878,1757,1859,2054,2222,2089,1835,1890,2033
378802,27140,-6024,28038,-4730,963,1312,575,-434,348,-391,670,3416,37,39,878,1772,1872,2065,2236,2081,1831,1881,2008
379803,27228,-5968,28103,-4665,436,1373,582,-404,339,428,646,3714,35,34,876,1772,1872,2065,2236,2081,1831,1881,2008
380804,27276,-5948,28168,-4600,956,1879,574,-427,363,383,834,3575,37,34,878,1772,1872,2065,2236,2081,1831,1881,2008
381805,27360,-5904,28233,-4535,483,1606,548,-461,363,-84,684,3702,35,21,871,1772,1872,2065,2236,2081,1831,1881,2008
382806,27420,-5844,28298,-4470,790,1412,523,-460,364,-293,638,3860,32,37,874,1772,1872,2065,2236,2081,1831,1881,2008
383807,27468,-5824,28363,-4405,961,1968,497,-442,359,279,789,3902,39,32,876,1772,1872,2065,2236,2081,1831,1881,2008
384808,27540,-5772,28428,-4340,652,1584,495,-406,360,435,506,4142,43,24,871,1761,1849,2042,2218,2031,1798,1841,1962
385809,27600,-5700,28493,-4275,810,1326,506,-387,370,187,435,4157,49,39,874,1761,1849,2042,2218,2031,1798,1841,1962
386810,27656,-5644,28558,-4210,871,1537,511,-402,381,-242,476,4035,48,25,876,1761,1849,2042,2218,2031,1798,1841,1962
387811,27708,-5608,28623,-4145,936,1823,507,-404,390,-206,413,4332,32,26,874,1761,1849,2042,2218,2031,1798,1841,1962
388812,27776,-5548,28688,-4080,734,1529,496,-409,390,68,531,3991,38,39,870,1761,1849,2042,2218,2031,1798,1841,1962
389813,27836,-5520,28753,-4015,840,1976,484,-396,381,407,535,4014,39,36,874,1746,1827,2034,2214,2028,1803,1844,1973
390814,27880,-5436,28818,-3950,1066,1252,484,-389,389,170,494,3975,50,46,871,1746,1827,2034,2214,2028,1803,1844,1973
391815,27932,-5376,28883,-3885,982,1560,485,-416,388,-58,664,3823,31,35,874,1746,1827,2034,2214,2028,1803,1844,1973
392816,27988,-5312,28948,-3820,943,1512,485,-448,379,-305,636,3941,41,40,873,1746,1827,2034,2214,2028,1803,1844,1973
393817,28044,-5264,29013,-3755,954,1733,473,-493,363,-507,798,3648,40,37,873,1746,1827,2034,2214,2028,1803,1844,1973
394818,28076,-5176,29078,-3690,1296,1205,451,-509,347,36,738,3577,37,50,872,1746,1827,2034,2214,2028,1803,1844,1973
395819,28152,-5116,29143,-3625,732,1562,450,-467,345,406,708,3740,46,55,873,1767,1858,2070,2251,2073,1835,1884,2021
396820,28196,-5048,29208,-3560,1158,1459,442,-486,364,187,708,3593,37,52,875,1767,1858,2070,2251,2073,1835,1884,2021
397821,28276,-4984,29273,-3495,691,1510,437,-529,394,-552,709,3857,39,54,874,1767,1858,2070,2251,2073,1835,1884,2021
398822,28340,-4900,29338,-3430,892,1238,414,-561,386,-180,952,3539,36,51,876,1767,1858,2070,2251,2073,1835,1884,2021
399823,28400,-4832,29403,-3365,949,1434,407,-510,381,187,846,4165,34,45,876,1767,1858,2070,2251,2073,1835,1884,2021
400824,28480,-4768,29468,-3300,681,1486,387,-414,373,626,758,3840,52,38,875,1784,1883,2078,2242,2095,1841,1894,2040
401825,28540,-4688,29533,-3235,937,1269,394,-325,365,552,503,3918,52,49,876,1784,1883,2078,2242,2095,1841,1894,2040
402826,28588,-4636,29598,-3170,1108,1635,401,-304,367,-335,636,4124,42,44,876,1784,1883,2078,2242,2095,1841,1894,2040
403827,28660,-4556,29663,-3105,800,1268,400,-323,339,-84,986,3859,36,38,873,1784,1883,2078,2242,2095,1841,1894,2040
404828,28728,-4492,29728,-3040,846,1469,403,-343,339,622,849,4127,50,38,875,1784,1883,2078,2242,2095,1841,1894,2040
405829,28784,-4428,29793,-2975,1008,1471,403,-361,341,588,732,4021,48,39,876,1784,1883,2078,2242,2095,1841,1894,2040
406830,28840,-4368,29858,-2910,1019,1527,388,-357,347,-118,685,4194,50,35,874,1758,1853,2046,2207,2072,1821,1864,1997
407831,28900,-4312,29923,-2845,976,1589,398,-372,356,-330,614,4143,42,48,874,1758,1853,2046,2207,2072,1821,1864,1997
408832,28960,-4240,29988,-2780,982,1381,387,-471,359,-212,706,4012,45,34,873,1758,1853,2046,2207,2072,1821,1864,1997
409833,29024,-4184,30053,-2715,934,1593,387,-553,350,-102,622,4188,43,37,874,1758,1853,2046,2207,2072,1821,1864,1997
410834,29080,-4132,30118,-2650,1046,1660,391,-572,350,-462,635,4292,39,41,872,1758,1853,2046,2207,2072,1821,1864,1997
411835,29140,-4056,30183,-2585,1002,1346,382,-543,327,80,806,3932,52,45,872,1741,1833,2040,2214,2051,1814,1856,1985
412836,29196,-3992,30248,-2520,1064,1498,376,-509,312,745,832,4045,50,39,874,1741,1833,2040,2214,2051,1814,1856,1985
413837,29256,-3932,30313,-2455,1020,1554,365,-520,312,731,916,4083,37,40,874,1741,1833,2040,2214,2051,1814,1856,1985
414838,29304,-3860,30378,-2390,1191,1397,348,-502,293,436,673,4084,48,44,873,1741,1833,2040,2214,2051,1814,1856,1985
415839,29364,-3800,30443,-2325,1048,1553,354,-482,303,-371,640,4081,37,37,873,1741,1833,2040,2214,2051,1814,1856,1985
416840,29416,-3760,30508,-2260,1164,1835,346,-470,288,-74,935,4106,50,38,872,1741,1833,2040,2214,2051,1814,1856,1985
417841,29480,-3688,30573,-2195,1016,1426,350,-426,279,799,770,3773,43,35,869,1773,1864,2073,2258,2056,1824,1870,1999
418842,29556,-3620,30638,-2130,852,1473,352,-459,272,354,851,3655,51,50,873,1773,1864,2073,2258,2056,1824,1870,1999
419843,29636,-3568,30703,-2065,784,1690,337,-490,253,-526,938,3699,43,37,875,1773,1864,2073,2258,2056,1824,1870,1999
420844,29696,-3492,30768,-2000,1041,1377,356,-477,213,-355,988,3653,34,48,873,1773,1864,2073,2258,2056,1824,1870,1999
421845,29756,-3436,30833,-1935,1047,1639,352,-490,194,43,1053,3710,40,37,873,1773,1864,2073,2258,2056,1824,1870,1999
422846,29808,-3368,30898,-1870,1164,1485,356,-508,199,223,1211,3772,35,48,872,1795,1885,2088,2269,2059,1823,1869,1995
423847,29864,-3296,30963,-1805,1125,1428,339,-542,192,48,1066,3409,30,46,872,1795,1885,2088,2269,2059,1823,1869,1995
424848,29928,-3256,31028,-1740,1026,1858,342,-574,188,-311,852,4120,43,35,873,1795,1885,2088,2269,2059,1823,1869,1995
425849,29992,-3188,31093,-1675,1028,1505,358,-564,179,140,902,3818,43,45,870,1795,1885,2088,2269,2059,1823,1869,1995
426850,30032,-3128,31158,-1610,1359,1613,383,-508,174,87,634,4090,39,38,871,1795,1885,2088,2269,2059,1823,1869,1995
427851,30104,-3068,31223,-1545,951,1619,393,-453,189,-528,735,4403,35,44,869,1795,1885,2088,2269,2059,1823,1869,1995
428852,30152,-3000,31288,-1480,1272,1516,378,-409,189,102,1006,3905,47,48,872,1772,1865,2059,2227,2038,1797,1846,1975
429853,30224,-2936,31353,-1415,965,1567,376,-413,183,558,751,4117,51,36,871,1772,1865,2059,2227,2038,1797,1846,1975
430854,30280,-2880,31418,-1350,1176,1679,371,-425,179,320,922,4220,34,51,873,1772,1865,2059,2227,2038,1797,1846,1975
431855,30332,-2812,31483,-1285,1242,1527,364,-391,182,-53,881,3982,51,45,872,1772,1865,2059,2227,2038,1797,1846,1975
432856,30404,-2756,31548,-1220,984,1688,357,-404,156,-85,876,4038,44,48,870,1772,1865,2059,2227,2038,1797,1846,1975
433857,30448,-2672,31613,-1155,1360,1315,359,-416,139,-214,944,4361,46,50,871,1755,1846,2045,2216,2038,1803,1847,1980
434858,30528,-2600,31678,-1090,892,1457,360,-469,148,116,1000,3698,35,53,872,1755,1846,2045,2216,2038,1803,1847,1980
435859,30584,-2552,31743,-1025,1203,1779,361,-541,154,243,1001,3965,33,46,873,1755,1846,2045,2216,2038,1803,1847,1980
436860,30640,-2492,31808,-960,1215,1635,355,-589,158,-240,932,3876,47,49,871,1755,1846,2045,2216,2038,1803,1847,1980
437861,30680,-2420,31873,-895,1446,1477,342,-598,152,-233,988,3947,52,37,870,1755,1846,2045,2216,2038,1803,1847,1980
438862,30740,-2376,31938,-830,1203,1854,353,-614,147,279,1068,3957,50,39,870,1755,1846,2045,2216,2038,1803,1847,1980
439863,30800,-2304,32003,-765,1209,1495,365,-618,163,561,929,3930,38,45,869,1761,1849,2062,2235,2074,1833,1877,2019
440864,30856,-2248,32068,-700,1270,1707,356,-599,175,571,928,3810,57,51,870,1761,1849,2062,2235,2074,1833,1877,2019
441865,30908,-2180,32133,-635,1337,1553,344,-580,204,-47,892,3899,46,37,870,1761,1849,2062,2235,2074,1833,1877,2019
442866,30972,-2116,32198,-570,1188,1606,345,-499,211,112,1049,4408,55,40,870,1761,1849,2062,2235,2074,1833,1877,2019
443867,31044,-2052,32263,-505,1081,1607,356,-407,213,1051,967,4385,51,45,870,1761,1849,2062,2235,2074,1833,1877,2019
444868,31120,-2000,32328,-440,1017,1774,377,-363,234,1058,1017,4177,53,42,871,1779,1871,2079,2247,2095,1846,1887,2026
445869,31196,-1932,32393,-375,1005,1571,362,-422,251,109,958,3736,63,47,871,1779,1871,2079,2247,2095,1846,1887,2026
446870,31268,-1884,32458,-310,1046,1842,341,-439,244,-105,1155,3984,52,44,871,1779,1871,2079,2247,2095,1846,1887,2026
447871,31332,-1820,32523,-245,1148,1644,322,-427,239,92,1068,4147,54,46,871,1779,1871,2079,2247,2095,1846,1887,2026
448872,31412,-1744,32588,-180,930,1481,315,-420,250,-20,1064,4256,55,42,870,1779,1871,2079,2247,2095,1846,1887,2026
449873,31500,-1704,32653,-115,803,1962,323,-458,268,-32,1206,3935,41,30,872,1779,1871,2079,2247,2095,1846,1887,2026
450874,31564,-1632,32852,84,1955,2405,322,-495,277,-321,1104,4255,45,26,871,1780,1870,2080,2253,2085,1837,1872,2003
451875,31628,-1580,32917,149,1956,2671,322,-524,243,-73,1362,4129,52,47,862,1780,1870,2080,2253,2085,1837,1872,2003
452876,31704,-1508,32982,214,1794,2414,323,-538,216,230,1299,4185,48,32,852,1780,1870,2080,2253,2085,1837,1872,2003
453877,31780,-1428,33047,279,1780,2296,331,-506,224,446,1320,4608,54,46,855,1780,1870,2080,2253,2085,1837,1872,2003
454878,31864,-1348,33112,344,1658,2278,339,-485,243,301,1199,4165,55,63,858,1780,1870,2080,2253,2085,1837,1872,2003
455879,31968,-1260,33177,409,1360,2151,332,-461,239,61,1049,4446,62,66,860,1772,1864,2076,2248,2063,1821,1859,1994
456880,32064,-1156,33242,474,1423,1904,350,-417,209,294,1157,4300,77,63,863,1772,1864,2076,2248,2063,1821,1859,1994
457881,32164,-1052,33307,539,1331,1857,393,-330,169,-215,1026,4845,72,71,866,1772,1864,2076,2248,2063,1821,1859,1994
458882,32264,-948,33372,604,1289,1810,450,-350,120,323,1831,4034,67,64,868,1772,1864,2076,2248,2063,1821,1859,1994
459883,32372,-884,33437,669,1137,2311,512,-440,82,1140,1607,4092,63,57,868,1772,1864,2076,2248,2063,1821,1859,1994
460884,32504,-792,33502,734,756,1929,551,-499,88,92,1199,4291,74,63,867,1772,1864,2076,2248,2063,1821,1859,1994
461885,32588,-680,33567,799,1333,1623,566,-520,83,-199,1770,3909,71,56,867,1781,1872,2086,2266,2040,1808,1850,1974
462886,32700,-580,33632,864,925,1730,575,-470,95,-36,1211,4486,78,71,871,1781,1872,2086,2266,2040,1808,1850,1974
463887,32788,-480,33697,929,1198,1688,587,-400,118,758,1660,4513,63,66,871,1781,1872,2086,2266,2040,1808,1850,1974
464888,32888,-388,33762,994,1005,1756,582,-409,139,492,1539,3937,66,56,871,1781,1872,2086,2266,2040,1808,1850,1974
465889,32988,-276,33827,1059,963,1449,543,-454,130,-147,1711,4646,67,64,871,1781,1872,2086,2266,2040,1808,1850,1974
466890,33060,-192,33892,1124,1305,1776,531,-495,131,-112,2005,4099,55,51,873,1819,1911,2118,2307,2007,1788,1839,1966
467891,33148,-112,33957,1189,1077,1809,520,-424,118,662,1940,4438,71,54,872,1819,1911,2118,2307,2007,1788,1839,1966
468892,33240,-4,34022,1254,994,1406,502,-371,75,1062,1754,4185,60,48,870,1819,1911,2118,2307,2007,1788,1839,1966
469893,33320,84,34087,1319,1127,1629,486,-378,44,342,1772,4540,50,54,873,1819,1911,2118,2307,2007,1788,1839,1966
470894,33396,140,34152,1384,1163,2040,481,-372,14,-175,1587,4627,58,50,873,1819,1911,2118,2307,2007,1788,1839,1966
471895,33492,244,34217,1449,876,1393,475,-383,-36,53,1592,4207,59,59,869,1819,1911,2118,2307,2007,1788,1839,1966
472896,33580,320,34282,1514,947,1730,480,-399,-71,89,1579,4359,60,51,871,1830,1916,2126,2301,2054,1824,1865,2012
473897,33660,420,34347,1579,1030,1388,492,-430,-97,193,1493,4000,42,61,874,1830,1916,2126,2301,2054,1824,1865,2012
474898,33724,504,34412,1644,1231,1565,525,-468,-146,47,1517,4394,42,46,873,1830,1916,2126,2301,2054,1824,1865,2012
475899,33804,568,34477,1709,1013,1816,552,-502,-189,-440,1555,4314,44,46,873,1830,1916,2126,2301,2054,1824,1865,2012
476900,33860,648,34542,1774,1324,1599,587,-525,-233,45,1639,3983,47,55,870,1830,1916,2126,2301,2054,1824,1865,2012
477901,33944,732,34607,1839,952,1526,595,-551,-272,242,1515,4263,46,54,869,1787,1878,2103,2258,2124,1872,1897,2052
478902,34008,812,34672,1904,1203,1559,617,-552,-283,89,1628,4177,38,60,870,1787,1878,2103,2258,2124,1872,1897,2052
479903,34076,892,34737,1969,1149,1540,635,-551,-299,77,1682,4315,48,49,872,1787,1878,2103,2258,2124,1872,1897,2052
480904,34132,980,34802,2034,1310,1413,668,-550,-315,254,1573,4350,45,57,872,1787,1878,2103,2258,2124,1872,1897,2052
481905,34196,1056,34867,2099,1213,1550,695,-559,-318,554,1796,4417,45,60,871,1787,1878,2103,2258,2124,1872,1897,2052
482906,34272,1132,34932,2164,1049,1536,721,-580,-306,418,1806,4392,48,46,872,1787,1878,2103,2258,2124,1872,1897,2052
483907,34340,1200,34997,2229,1146,1634,731,-594,-306,537,1957,4185,55,50,871,1752,1852,2067,2221,2093,1842,1877,2018
484908,34424,1276,35062,2294,922,1520,726,-603,-312,625,1959,4223,44,46,873,1752,1852,2067,2221,2093,1842,1877,2018
485909,34492,1352,35127,2359,1120,1507,718,-582,-323,529,1962,4308,39,54,870,1752,1852,2067,2221,2093,1842,1877,2018
486910,34552,1416,35192,2424,1226,1659,693,-573,-313,415,2179,4364,43,42,874,1752,1852,2067,2221,2093,1842,1877,2018
487911,34620,1500,35257,2489,1122,1386,673,-578,-318,595,2132,4200,44,50,872,1752,1852,2067,2221,2093,1842,1877,2018
488912,34704,1556,35322,2554,899,1748,641,-608,-330,575,2021,4147,45,44,870,1764,1864,2068,2235,2036,1798,1843,1977
489913,34772,1636,35387,2619,1096,1429,615,-650,-352,436,2013,4200,60,40,874,1764,1864,2068,2235,2036,1798,1843,1977
490914,34824,1712,35452,2684,1312,1466,598,-700,-368,160,1928,3992,59,44,872,1764,1864,2068,2235,2036,1798,1843,1977
491915,34904,1776,35517,2749,944,1618,592,-737,-395,430,1775,4117,51,58,873,1764,1864,2068,2235,2036,1798,1843,1977
492916,34996,1852,35582,2814,761,1455,591,-778,-412,557,1738,4086,44,46,871,1764,1864,2068,2235,2036,1798,1843,1977
493917,35052,1920,35647,2879,1223,1551,587,-837,-434,362,1523,3936,39,53,873,1788,1884,2100,2260,2050,1811,1848,2000
494918,35132,2000,35712,2944,905,1384,599,-873,-464,110,1447,3978,46,45,876,1788,1884,2100,2260,2050,1811,1848,2000
495919,35232,2068,35777,3009,612,1530,609,-905,-489,320,1580,3875,53,54,870,1788,1884,2100,2260,2050,1811,1848,2000
496920,35292,2132,35842,3074,1118,1582,636,-924,-505,526,1311,3965,39,51,874,1788,1884,2100,2260,2050,1811,1848,2000
497921,35356,2216,35907,3139,1069,1309,671,-926,-525,575,1343,3766,54,56,876,1788,1884,2100,2260,2050,1811,1848,2000
498922,35424,2280,35972,3204,1016,1560,701,-935,-541,667,1544,3754,52,53,872,1788,1884,2100,2260,2050,1811,1848,2000
499923,35504,2340,36037,3269,848,1618,719,-943,-539,455,1501,3942,41,50,874,1794,1892,2116,2262,2073,1825,1860,2007
500924,35580,2408,36102,3334,885,1514,736,-947,-535,401,1679,3686,47,58,873,1794,1892,2116,2262,2073,1825,1860,2007
501925,35656,2488,36167,3399,871,1346,741,-939,-528,590,1612,3713,42,50,874,1794,1892,2116,2262,2073,1825,1860,2007
502926,35716,2580,36232,3464,1077,1164,734,-933,-520,622,1754,3941,42,60,874,1794,1892,2116,2262,2073,1825,1860,2007
503927,35804,2672,36297,3529,700,1131,731,-915,-500,641,1933,3700,51,60,876,1794,1892,2116,2262,2073,1825,1860,2007
504928,35872,2760,36362,3594,947,1153,730,-899,-468,905,2053,3605,45,54,876,1783,1879,2082,2243,2042,1802,1845,1968
505929,35932,2840,36427,3659,1053,1235,707,-902,-449,870,2120,3817,56,52,879,1783,1879,2082,2243,2042,1802,1845,1968
506930,36004,2908,36492,3724,894,1382,687,-925,-445,574,2190,3908,57,47,877,1783,1879,2082,2243,2042,1802,1845,1968
507931,36080,2988,36557,3789,831,1213,671,-932,-443,470,2117,3792,42,51,875,1783,1879,2082,2243,2042,1802,1845,1968
508932,36160,3068,36622,3854,763,1196,660,-922,-425,630,1864,3880,53,52,876,1783,1879,2082,2243,2042,1802,1845,1968
509933,36244,3128,36687,3919,690,1452,646,-919,-394,675,1780,3742,41,40,877,1783,1879,2082,2243,2042,1802,1845,1968
510934,36316,3192,36752,3984,832,1403,648,-922,-377,710,1735,3769,43,49,878,1744,1831,2033,2198,2037,1801,1834,1965
511935,36388,3260,36817,4049,823,1350,660,-934,-377,551,1651,3796,56,44,877,1744,1831,2033,2198,2037,1801,1834,1965
512936,36452,3344,36882,4114,924,1127,687,-959,-381,479,1474,3774,52,51,875,1744,1831,2033,2198,2037,1801,1834,1965
513937,36532,3432,36947,4179,706,1049,729,-965,-373,689,1365,3797,41,60,876,1744,1831,2033,2198,2037,1801,1834,1965
514938,36624,3500,37012,4244,524,1296,775,-945,-377,793,1219,3781,56,50,878,1744,1831,2033,2198,2037,1801,1834,1965
515939,36688,3576,37077,4309,875,1183,817,-925,-384,715,1237,3499,44,50,880,1720,1810,2038,2192,2064,1819,1840,1980
516940,36764,3644,37142,4374,712,1280,845,-917,-391,678,1207,3410,46,54,879,1720,1810,2038,2192,2064,1819,1840,1980
517941,36852,3716,37207,4439,534,1221,853,-924,-401,561,1293,3193,46,52,878,1720,1810,2038,2192,2064,1819,1840,1980
518942,36924,3812,37272,4504,725,883,855,-930,-395,522,1259,3139,54,62,878,1720,1810,2038,2192,2064,1819,1840,1980
519943,37000,3908,37337,4569,662,846,840,-939,-388,615,1340,3041,43,51,879,1720,1810,2038,2192,2064,1819,1840,1980
520944,37060,3996,37402,4634,868,918,829,-912,-369,658,1410,3077,39,61,881,1720,1810,2038,2192,2064,1819,1840,1980
521945,37140,4080,37467,4699,600,945,810,-879,-323,759,1538,2780,41,48,882,1760,1853,2077,2236,2034,1796,1831,1956
522946,37212,4176,37532,4764,692,757,787,-843,-302,686,1514,2967,49,48,880,1760,1853,2077,2236,2034,1796,1831,1956
523947,37300,4260,37597,4829,464,885,735,-818,-271,538,1455,2969,40,51,881,1760,1853,2077,2236,2034,1796,1831,1956
524948,37372,4332,37662,4894,656,1027,695,-788,-220,640,1407,3041,38,53,882,1760,1853,2077,2236,2034,1796,1831,1956
525949,37440,4428,37727,4959,702,689,639,-722,-175,607,1433,3004,50,48,883,1760,1853,2077,2236,2034,1796,1831,1956
526950,37508,4504,37792,5024,698,925,587,-656,-141,705,1594,3124,40,58,881,1764,1854,2049,2207,1999,1769,1811,1935
527951,37588,4584,37857,5089,530,857,545,-633,-97,549,1503,2885,41,58,883,1764,1854,2049,2207,1999,1769,1811,1935
528952,37672,4660,37922,5154,457,895,543,-609,-82,353,1403,3272,43,46,881,1764,1854,2049,2207,1999,1769,1811,1935
529953,37748,4744,37987,5219,543,771,522,-611,-79,324,1340,2968,44,44,882,1764,1854,2049,2207,1999,1769,1811,1935
530954,37836,4816,38052,5284,365,913,526,-612,-76,425,1305,3174,50,50,882,1764,1854,2049,2207,1999,1769,1811,1935
531955,37912,4908,38117,5349,502,630,512,-607,-60,200,1093,3113,43,44,883,1764,1854,2049,2207,1999,1769,1811,1935
532956,37992,4976,38182,5414,434,926,504,-604,-48,495,1102,3047,42,53,883,1686,1770,1974,2116,2036,1797,1824,1959
533957,38068,5064,38247,5479,471,648,500,-616,-34,641,1005,2981,47,54,885,1686,1770,1974,2116,2036,1797,1824,1959
534958,38144,5144,38312,5544,458,731,502,-616,-28,550,872,3035,39,50,883,1686,1770,1974,2116,2036,1797,1824,1959
535959,38224,5236,38377,5609,389,548,508,-598,-17,379,844,2919,43,53,885,1686,1770,1974,2116,2036,1797,1824,1959
536960,38312,5328,38442,5674,261,515,527,-556,6,476,785,2860,55,46,884,1686,1770,1974,2116,2036,1797,1824,1959
537961,38380,5400,38507,5739,508,756,534,-527,17,813,830,2668,39,54,886,1642,1734,1956,2097,2080,1832,1849,1987
538962,38464,5480,38572,5804,284,638,526,-510,29,586,861,2725,37,53,886,1642,1734,1956,2097,2080,1832,1849,1987
539963,38536,5564,38637,5869,426,565,503,-476,51,372,847,2765,37,57,883,1642,1734,1956,2097,2080,1832,1849,1987
540964,38612,5636,38702,5934,362,706,466,-413,59,409,1118,2470,51,51,885,1642,1734,1956,2097,2080,1832,1849,1987
541965,38676,5712,38767,5999,514,644,410,-361,84,623,1183,2365,37,43,885,1642,1734,1956,2097,2080,1832,1849,1987
542966,38756,5800,38832,6064,295,466,343,-341,116,813,1232,2490,39,54,885,1642,1734,1956,2097,2080,1832,1849,1987
543967,38824,5888,38897,6129,442,438,282,-364,139,545,1159,1796,49,56,885,1676,1775,1991,2145,2057,1814,1843,1968
544968,38904,5960,38962,6194,273,629,228,-407,149,143,1228,1891,40,45,886,1676,1775,1991,2145,2057,1814,1843,1968
545969,38976,6028,39027,6259,365,675,173,-444,176,-173,986,1921,39,51,886,1676,1775,1991,2145,2057,1814,1843,1968
546970,39060,6104,39092,6324,192,562,136,-482,209,72,680,1881,39,55,885,1676,1775,1991,2145,2057,1814,1843,1968
547971,39152,6172,39157,6389,59,658,97,-490,235,341,618,1889,53,41,884,1676,1775,1991,2145,2057,1814,1843,1968
548972,39216,6256,39222,6454,410,435,33,-396,281,297,489,2429,55,46,887,1690,1786,1986,2126,2016,1772,1807,1937
549973,39308,6348,39287,6519,27,302,-63,-259,345,435,532,2694,46,49,886,1690,1786,1986,2126,2016,1772,1807,1937
550974,39380,6408,39352,6584,268,708,-165,-113,390,554,534,2681,53,60,886,1690,1786,1986,2126,2016,1772,1807,1937
551975,39444,6508,39417,6649,370,166,-248,23,427,786,644,3160,36,50,889,1690,1786,1986,2126,2016,1772,1807,1937
552976,39528,6600,39482,6714,96,233,-314,150,439,1249,901,3237,50,55,885,1690,1786,1986,2126,2016,1772,1807,1937
553977,39596,6688,39547,6779,293,255,-363,186,431,955,729,2819,35,44,888,1690,1786,1986,2126,2016,1772,1807,1937
554978,39680,6756,39612,6844,69,501,-403,155,393,158,798,2580,53,54,889,1632,1728,1921,2046,2030,1790,1815,1958
555979,39752,6856,39677,6909,211,59,-413,86,370,21,605,2402,53,52,888,1632,1728,1921,2046,2030,1790,1815,1958
556980,39832,6928,39742,6974,93,401,-427,-2,359,299,636,2185,36,43,887,1632,1728,1921,2046,2030,1790,1815,1958
557981,39904,7012,39807,7039,184,227,-448,-67,389,-140,362,1878,38,55,889,1632,1728,1921,2046,2030,1790,1815,1958
558982,39980,7088,39872,7104,121,314,-484,-31,426,-428,390,2308,50,51,888,1632,1728,1921,2046,2030,1790,1815,1958
559983,40048,7172,39937,7169,217,191,-557,80,471,-99,199,2507,34,50,888,1590,1689,1911,2047,2108,1857,1869,2011
560984,40108,7244,40002,7234,323,332,-638,182,525,626,386,2428,38,49,888,1590,1689,1911,2047,2108,1857,1869,2011
561985,40168,7316,40067,7299,329,324,-727,278,571,1088,529,2333,52,55,888,1590,1689,1911,2047,2108,1857,1869,2011
562986,40236,7400,40132,7364,226,151,-802,332,599,1086,692,2453,44,46,887,1590,1689,1911,2047,2108,1857,1869,2011
563989,40316,7468,40197,7429,57,347,-884,426,611,903,768,2531,53,57,886,1590,1689,1911,2047,2108,1857,1869,2011
564988,40396,7556,40262,7494,39,68,-954,502,626,993,807,2347,50,52,887,1590,1689,1911,2047,2108,1857,1869,2011
565989,40464,7640,40327,7559,185,95,-1020,587,643,906,620,2155,34,42,888,1621,1719,1942,2089,2137,1884,1893,2025
566990,40528,7712,40392,7624,236,236,-1089,646,647,780,636,2092,43,42,889,1621,1719,1942,2089,2137,1884,1893,2025
567991,40596,7792,40457,7689,182,118,-1169,697,676,336,644,2088,43,41,889,1621,1719,1942,2089,2137,1884,1893,2025
568992,40668,7892,40522,7754,123,-175,-1246,704,713,305,507,1779,50,44,888,1621,1719,1942,2089,2137,1884,1893,2025
569993,40736,7960,40587,7819,170,221,-1326,680,735,244,348,1956,38,51,889,1621,1719,1942,2089,2137,1884,1893,2025
570994,40800,8048,40652,7884,221,-57,-1403,690,755,135,220,2154,36,44,889,1630,1725,1950,2092,2109,1852,1855,1985
571995,40880,8124,40717,7949,3,80,-1491,760,770,373,410,2399,37,40,889,1630,1725,1950,2092,2109,1852,1855,1985
572996,40960,8208,40782,8014,-16,-43,-1573,846,768,811,474,2529,49,41,889,1630,1725,1950,2092,2109,1852,1855,1985
573997,41040,8296,40847,8079,-34,-121,-1657,926,774,615,228,2681,50,46,890,1630,1725,1950,2092,2109,1852,1855,1985
574998,41140,8356,40912,8144,-327,235,-1703,1026,776,798,341,2748,46,39,890,1630,1725,1950,2092,2109,1852,1855,1985
575999,41256,8428,40977,8209,-589,76,-1744,1109,754,808,274,2867,44,39,889,1630,1725,1950,2092,2109,1852,1855,1985
577000,41364,8508,41042,8274,-542,-42,-1792,1179,743,322,68,2889,46,41,889,1608,1706,1920,2049,2054,1803,1818,1953
578001,41432,8592,41107,8339,-45,-115,-1854,1231,748,684,513,2782,51,50,889,1608,1706,1920,2049,2054,1803,1818,1953
579002,41484,8688,41172,8404,171,-303,-1909,1275,753,837,655,2456,39,36,890,1608,1706,1920,2049,2054,1803,1818,1953
580003,41544,8828,41237,8469,76,-946,-1953,1329,749,776,720,2589,48,33,889,1608,1706,1920,2049,2054,1803,1818,1953
581004,41608,8896,41302,8534,27,-49,-1996,1420,753,831,589,2570,28,41,886,1608,1706,1920,2049,2054,1803,1818,1953
582005,41692,8960,41367,8599,-246,2,-2054,1513,791,894,771,2417,26,25,882,1607,1713,1923,2068,2043,1805,1831,1956
583006,41748,9004,41432,8664,115,277,-2148,1606,804,657,683,2677,46,40,890,1607,1713,1923,2068,2043,1805,1831,1956
584007,41808,9072,41497,8729,71,-26,-2260,1675,816,626,521,2642,36,29,889,1607,1713,1923,2068,2043,1805,1831,1956
585008,41880,9136,41562,8794,-88,25,-2376,1800,851,878,670,2740,31,28,889,1607,1713,1923,2068,2043,1805,1831,1956
586009,41948,9172,41627,8859,-41,410,-2481,1927,884,1056,784,2491,48,31,890,1607,1713,1923,2068,2043,1805,1831,1956
587010,42020,9216,41692,8924,-100,336,-2581,2010,888,1190,762,2390,40,27,887,1607,1713,1923,2068,2043,1805,1831,1956
588011,42092,9264,41757,8989,-109,306,-2656,2050,866,1032,658,2454,35,28,888,1644,1742,1960,2121,2084,1856,1872,2000
589012,42156,9344,41822,9054,-8,-113,-2706,2085,841,774,678,2448,36,30,886,1644,1742,1960,2121,2084,1856,1872,2000
590013,42204,9408,41887,9119,213,89,-2737,2140,808,842,705,2630,30,37,884,1644,1742,1960,2121,2084,1856,1872,2000
591014,42280,9460,41952,9184,-151,255,-2764,2176,784,947,570,2396,32,39,889,1644,1742,1960,2121,2084,1856,1872,2000
592015,42340,9528,42017,9249,55,51,-2790,2198,773,929,478,2380,43,39,889,1644,1742,1960,2121,2084,1856,1872,2000
593016,42404,9568,42082,9314,6,431,-2816,2224,754,599,396,2347,47,42,882,1630,1723,1956,2108,2141,1893,1882,2006
594017,42456,9624,42147,9379,172,242,-2855,2287,720,625,375,2638,33,46,890,1630,1723,1956,2108,2141,1893,1882,2006
595018,42516,9680,42212,9444,78,253,-2892,2346,707,745,205,2732,49,33,888,1630,1723,1956,2108,2141,1893,1882,2006
596019,42592,9740,42277,9509,-136,210,-2886,2328,739,345,374,3086,29,37,888,1630,1723,1956,2108,2141,1893,1882,2006
597020,42660,9804,42342,9574,-40,160,-2797,2176,768,-14,-184,3723,38,45,889,1630,1723,1956,2108,2141,1893,1882,2006
598021,42716,9864,42407,9639,121,216,-2624,1962,781,-702,71,5674,33,45,883,1630,1723,1956,2108,2141,1893,1882,2006
599022,42800,9932,42472,9704,-252,112,-2413,1652,815,-973,420,5856,38,48,888,1621,1723,1950,2103,2069,1819,1839,1958
600023,42864,9996,42537,9769,-1,163,-2156,1361,814,-175,240,5433,35,38,888,1621,1723,1950,2103,2069,1819,1839,1958
601024,42912,10064,42602,9834,220,110,-1990,1201,797,454,870,6695,48,51,886,1621,1723,1950,2103,2069,1819,1839,1958
602025,42976,10128,42667,9899,21,161,-1858,1022,847,650,819,5253,30,39,889,1621,1723,1950,2103,2069,1819,1839,1958
603026,43036,10192,42732,9964,77,162,-1775,775,903,1128,974,5468,48,51,889,1621,1723,1950,2103,2069,1819,1839,1958
604027,43120,10264,42797,10029,-247,54,-1748,655,941,1076,1119,6434,36,50,889,1836,1981,2144,2395,1911,1688,1835,1944
605028,43176,10340,42862,10094,114,-10,-1716,671,995,1306,1360,5940,36,40,889,1836,1981,2144,2395,1911,1688,1835,1944
606029,43244,10416,42927,10159,-39,-23,-1718,723,1027,1698,1368,5446,49,52,890,1836,1981,2144,2395,1911,1688,1835,1944
607030,43320,10476,42992,10224,-153,183,-1742,738,1061,1691,1351,5610,43,48,889,1836,1981,2144,2395,1911,1688,1835,1944
608031,43396,10552,43057,10289,-166,-32,-1732,674,1117,1166,1256,4882,32,38,890,1836,1981,2144,2395,1911,1688,1835,1944
609032,43464,10632,43122,10354,-70,-100,-1683,453,1152,633,996,4533,50,38,882,1836,1981,2144,2395,1911,1688,1835,1944
610033,43536,10720,43187,10419,-129,-228,-1593,124,1151,270,537,4914,44,46,881,2393,2534,2583,2870,1915,1712,1899,2020
611034,43620,10796,43252,10484,-302,-91,-1462,-196,1147,-318,150,4834,36,41,888,2393,2534,2583,2870,1915,1712,1899,2020
612035,43696,10876,43317,10549,-216,-160,-1305,-420,1139,-819,-21,5591,46,35,883,2393,2534,2583,2870,1915,1712,1899,2020
613036,43772,10948,43382,10614,-230,-68,-1130,-639,1138,-1103,-484,5333,37,38,889,2393,2534,2583,2870,1915,1712,1899,2020
614037,43852,11016,43447,10679,-298,-22,-913,-846,1151,-1202,-763,5986,44,36,889,2393,2534,2583,2870,1915,1712,1899,2020
615038,43924,11088,43512,10744,-206,-80,-700,-1047,1168,-1113,-958,6012,35,34,888,2472,2560,2624,2838,1991,1771,1893,2003
616039,44004,11156,43577,10809,-325,-35,-468,-1225,1175,-1012,-1090,6122,44,50,888,2472,2560,2624,2838,1991,1771,1893,2003
617040,44084,11232,43642,10874,-343,-149,-250,-1387,1171,-712,-1010,6178,41,49,879,2472,2560,2624,2838,1991,1771,1893,2003
618041,44172,11300,43707,10939,-472,-52,-67,-1503,1166,-483,-950,6291,37,39,890,2472,2560,2624,2838,1991,1771,1893,2003
619042,44248,11376,43772,11004,-336,-166,77,-1559,1171,-459,-573,6408,45,43,889,2472,2560,2624,2838,1991,1771,1893,2003
620043,44312,11444,43837,11069,-184,-69,161,-1537,1185,-708,-124,6092,40,40,890,2472,2560,2624,2838,1991,1771,1893,2003
621044,44416,11532,43902,11134,-732,-347,205,-1474,1200,-569,188,5960,53,37,889,2153,2190,2317,2543,1939,1746,1837,1894
622045,44496,11588,43967,11199,-450,64,236,-1434,1222,-187,67,5379,60,50,890,2153,2190,2317,2543,1939,1746,1837,1894
623046,44576,11664,44032,11264,-469,-201,251,-1403,1234,356,83,5526,46,38,888,2153,2190,2317,2543,1939,1746,1837,1894
624047,44664,11732,44097,11329,-598,-104,247,-1349,1225,-20,293,5029,49,35,889,2153,2190,2317,2543,1939,1746,1837,1894
625048,44736,11792,44162,11394,-406,2,203,-1277,1231,-340,375,4881,55,34,889,2153,2190,2317,2543,1939,1746,1837,1894
626049,44844,11880,44227,11459,-909,-376,149,-1142,1218,-2,266,4874,50,40,889,1881,1908,2065,2309,1964,1809,1858,1908
627050,44920,11960,44292,11524,-522,-295,105,-996,1223,51,-21,4245,59,36,890,1881,1908,2065,2309,1964,1809,1858,1908
628051,45012,12020,44357,11589,-756,-39,79,-959,1259,-30,-321,4212,57,44,888,1881,1908,2065,2309,1964,1809,1858,1908
629052,45120,12088,44422,11654,-1009,-143,122,-1012,1299,-577,-956,3721,59,36,888,1881,1908,2065,2309,1964,1809,1858,1908
630053,45212,12148,44487,11719,-842,-37,194,-967,1302,-1023,-1529,4213,64,48,882,1881,1908,2065,2309,1964,1809,1858,1908
631054,45296,12208,44552,11784,-765,-31,284,-831,1294,-908,-1493,4258,61,41,889,1881,1908,2065,2309,1964,1809,1858,1908
632055,45412,12280,44617,11849,-1228,-190,372,-588,1313,-587,-1480,4127,55,36,889,1664,1713,1945,2155,2151,1963,1929,2025
633056,45488,12336,44682,11914,-741,21,424,-374,1303,-495,-1548,3844,57,46,889,1664,1713,1945,2155,2151,1963,1929,2025
634057,45604,12396,44747,11979,-1304,-23,442,-227,1256,-337,-1314,3994,68,48,886,1664,1713,1945,2155,2151,1963,1929,2025
635058,45688,12452,44812,12044,-928,37,481,-210,1198,-438,-1181,3109,55,47,890,1664,1713,1945,2155,2151,1963,1929,2025
636059,45796,12516,44877,12109,-1280,-61,500,-206,1147,-598,-1207,3361,61,44,890,1664,1713,1945,2155,2151,1963,1929,2025
637060,45916,12580,44942,12174,-1497,-60,504,-164,1055,-689,-1042,2799,53,49,890,1615,1698,1961,2157,2170,1929,1910,2007
638061,46016,12652,45007,12239,-1291,-169,475,-148,1021,-622,-526,2804,69,37,886,1615,1698,1961,2157,2170,1929,1910,2007
639062,46152,12712,45072,12304,-1828,-13,397,-181,1001,-815,-457,2256,69,39,890,1615,1698,1961,2157,2170,1929,1910,2007
640063,46248,12796,45137,12369,-1367,-336,268,-143,923,-1003,-345,2092,52,33,889,1615,1698,1961,2157,2170,1929,1910,2007
641064,46344,12848,45202,12434,-1405,80,95,-81,890,-209,-433,1656,59,38,890,1615,1698,1961,2157,2170,1929,1910,2007
642065,46436,12896,45267,12499,-1388,150,-101,13,921,580,-670,1606,52,36,887,1615,1698,1961,2157,2170,1929,1910,2007
643066,46536,12944,45332,12564,-1531,171,-252,208,969,119,-872,2334,67,41,889,1726,1828,2032,2224,2021,1784,1841,1928
644067,46656,13016,45397,12629,-1848,-138,-405,441,997,30,-643,3123,67,51,889,1726,1828,2032,2224,2021,1784,1841,1928
645068,46764,13080,45462,12694,-1752,-37,-562,731,1090,639,-1094,3593,61,34,889,1726,1828,2032,2224,2021,1784,1841,1928
646069,46840,13144,45527,12759,-1365,-35,-714,996,1141,1434,-957,4222,65,36,888,1726,1828,2032,2224,2021,1784,1841,1928
647070,46960,13212,45592,12824,-1983,-89,-826,1222,1164,618,-1014,4009,65,35,890,1726,1828,2032,2224,2021,1784,1841,1928
648071,47056,13292,45657,12889,-1721,-258,-946,1211,1186,-206,-1480,3499,65,34,890,1716,1809,1967,2120,1997,1789,1842,1970
649072,47136,13356,45722,12954,-1541,-57,-1024,1037,1179,-947,-1725,3659,49,39,888,1716,1809,1967,2120,1997,1789,1842,1970
650073,47256,13392,45787,13019,-2108,328,-1072,783,1147,-931,-1557,3100,53,32,888,1716,1809,1967,2120,1997,1789,1842,1970
651074,47352,13464,45852,13084,-1847,-130,-1039,511,1103,-1432,-1668,2965,52,37,890,1716,1809,1967,2120,1997,1789,1842,1970
652075,47416,13524,45917,13149,-1446,26,-996,264,1077,-1450,-2102,3563,58,41,889,1716,1809,1967,2120,1997,1789,1842,1970
653076,47520,13588,45982,13214,-1994,-23,-935,51,1034,-548,-2074,3282,50,39,889,1716,1809,1967,2120,1997,1789,1842,1970
654077,47608,13648,46047,13279,-1823,33,-874,-171,987,-344,-1815,3133,45,46,890,1607,1694,1912,2067,2201,1951,1971,2119
655078,47672,13700,46112,13344,-1522,148,-854,-289,935,-99,-1800,3586,61,37,890,1607,1694,1912,2067,2201,1951,1971,2119
656079,47760,13772,46177,13409,-1851,-111,-861,-254,927,286,-1748,3900,48,42,890,1607,1694,1912,2067,2201,1951,1971,2119
657080,47880,13820,46242,13474,-2318,210,-915,-156,921,1149,-1457,3664,50,32,890,1607,1694,1912,2067,2201,1951,1971,2119
658081,47952,13892,46307,13539,-1728,-98,-986,-88,926,1413,-1573,3506,37,31,889,1607,1694,1912,2067,2201,1951,1971,2119
659082,48056,13952,46372,13604,-2176,58,-1078,-79,952,1040,-1407,3556,41,31,889,1676,1794,1989,2170,2217,1950,2018,2143
660083,48116,14016,46437,13669,-1620,9,-1177,-91,1016,-126,-1423,3470,37,33,889,1676,1794,1989,2170,2217,1950,2018,2143
661084,48200,14060,46502,13734,-1944,285,-1307,-109,1057,-51,-1127,3701,46,33,890,1676,1794,1989,2170,2217,1950,2018,2143
662085,48268,14108,46567,13799,-1749,254,-1422,-135,1093,165,-1273,3550,49,37,890,1676,1794,1989,2170,2217,1950,2018,2143
663086,48348,14176,46632,13864,-1917,1,-1535,-241,1127,-104,-1421,3508,49,37,881,1676,1794,1989,2170,2217,1950,2018,2143
664087,48428,14208,46697,13929,-1937,491,-1642,-353,1163,-1171,-1801,4247,44,33,889,1676,1794,1989,2170,2217,1950,2018,2143
665088,48496,14216,46762,13994,-1791,861,-1735,-525,1207,-1238,-1827,3988,48,43,890,1791,1925,2083,2283,2139,1887,1967,2083
666089,48552,14244,46827,14059,-1630,656,-1785,-725,1226,-899,-2189,4353,45,48,887,1791,1925,2083,2283,2139,1887,1967,2083
667090,48612,14312,46892,14124,-1675,152,-1796,-909,1222,-991,-2352,4803,48,38,880,1791,1925,2083,2283,2139,1887,1967,2083
668091,48680,14388,46957,14189,-1780,39,-1758,-1020,1188,-925,-2545,5524,33,42,886,1791,1925,2083,2283,2139,1887,1967,2083
669092,48744,14468,47022,14254,-1729,-30,-1705,-978,1155,-3,-2437,6110,45,48,890,1791,1925,2083,2283,2139,1887,1967,2083
670093,48788,14540,47087,14319,-1454,62,-1570,-842,1108,694,-2544,6945,44,53,890,1820,1938,2112,2290,2116,1862,1932,2056
671094,48844,14624,47152,14384,-1594,-111,-1413,-701,1049,668,-2923,7349,34,40,887,1820,1938,2112,2290,2116,1862,1932,2056
672095,48908,14672,47217,14449,-1693,359,-1252,-611,970,916,-2702,7732,26,36,890,1820,1938,2112,2290,2116,1862,1932,2056
673096,48960,14744,47282,14514,-1528,50,-1117,-584,885,1239,-2519,7344,27,36,889,1820,1938,2112,2290,2116,1862,1932,2056
674097,48992,14824,47347,14579,-1239,-69,-1034,-518,808,1035,-2233,7208,31,38,888,1820,1938,2112,2290,2116,1862,1932,2056
675098,49036,14892,47412,14644,-1363,78,-1026,-468,725,862,-1727,6545,33,35,888,1820,1938,2112,2290,2116,1862,1932,2056
676099,49080,14952,47477,14709,-1338,184,-1058,-469,674,565,-1432,5770,32,46,890,1918,2026,2223,2517,2058,1865,1954,1989
677100,49108,15004,47542,14774,-1093,300,-1120,-507,649,321,-1264,5653,14,37,889,1918,2026,2223,2517,2058,1865,1954,1989
678101,49144,15052,47607,14839,-1159,370,-1192,-548,632,312,-1091,5377,30,39,889,1918,2026,2223,2517,2058,1865,1954,1989
679102,49172,15120,47672,14904,-1015,117,-1253,-607,612,435,-971,5321,23,32,888,1918,2026,2223,2517,2058,1865,1954,1989
680103,49196,15188,47737,14969,-915,113,-1296,-656,587,434,-1166,5128,17,38,888,1918,2026,2223,2517,2058,1865,1954,1989
681104,49220,15248,47802,15034,-865,219,-1312,-661,561,749,-1235,5379,6,30,889,2153,2210,2394,2807,2043,1926,2012,2017
682105,49232,15312,47867,15099,-651,170,-1299,-639,552,926,-1446,5450,4,32,889,2153,2210,2394,2807,2043,1926,2012,2017
683106,49240,15376,47932,15164,-532,172,-1254,-583,534,1308,-1608,5602,5,46,887,2153,2210,2394,2807,2043,1926,2012,2017
684107,49240,15440,47997,15229,-353,172,-1175,-545,494,1192,-1996,5641,15,39,888,2153,2210,2394,2807,2043,1926,2012,2017
685108,49260,15496,48062,15294,-549,283,-1056,-479,439,1215,-2168,5806,5,43,889,2153,2210,2394,2807,2043,1926,2012,2017
686109,49268,15572,48127,15359,-329,19,-908,-423,377,1522,-2420,5849,7,28,890,2153,2210,2394,2807,2043,1926,2012,2017
687110,49260,15636,48192,15424,-41,171,-736,-340,308,1494,-2628,6081,-6,39,888,2051,2098,2294,2586,2116,1929,1972,2028
688111,49260,15716,48257,15489,-62,-48,-564,-220,246,1436,-2596,6199,-5,40,889,2051,2098,2294,2586,2116,1929,1972,2028
689112,49256,15788,48322,15554,72,44,-375,-108,202,1266,-2429,6256,12,37,889,2051,2098,2294,2586,2116,1929,1972,2028
690113,49268,15820,48387,15619,-64,584,-216,10,144,952,-2376,6036,12,27,889,2051,2098,2294,2586,2116,1929,1972,2028
691114,49256,15900,48452,15684,330,-34,-82,47,76,732,-2076,5638,-1,31,889,2051,2098,2294,2586,2116,1929,1972,2028
692115,49256,15948,48517,15749,259,387,10,64,9,630,-1744,5339,9,29,886,1853,1945,2127,2359,1990,1775,1839,1890
693116,49264,16000,48582,15814,228,352,44,39,-55,600,-1374,4819,-3,41,888,1853,1945,2127,2359,1990,1775,1839,1890
694117,49260,16072,48647,15879,462,94,28,9,-128,895,-1092,4216,15,40,887,1853,1945,2127,2359,1990,1775,1839,1890
695118,49268,16104,48712,15944,382,634,-22,-23,-214,1005,-829,3826,-1,28,888,1853,1945,2127,2359,1990,1775,1839,1890
696119,49276,16144,48777,16009,450,564,-91,-26,-287,1105,-585,3553,18,35,887,1853,1945,2127,2359,1990,1775,1839,1890
697120,49280,16216,48842,16074,575,155,-157,-22,-356,1389,-585,3038,-1,33,885,1853,1945,2127,2359,1990,1775,1839,1890
698121,49292,16264,48907,16139,540,476,-196,-7,-427,1157,-724,3088,1,34,885,1849,1942,2082,2332,1878,1685,1789,1848
699122,49292,16324,48972,16204,769,332,-218,39,-488,1168,-813,2871,18,33,886,1849,1942,2082,2332,1878,1685,1789,1848
700123,49320,16388,49037,16269,464,283,-213,100,-533,1458,-888,2809,5,50,884,1849,1942,2082,2332,1878,1685,1789,1848
701124,49336,16448,49236,16468,837,503,-192,130,-575,1420,-1079,2652,20,34,883,1849,1942,2082,2332,1878,1685,1789,1848
702125,49372,16500,49301,16533,623,619,-146,146,-618,1336,-1295,2692,28,40,887,1849,1942,2082,2332,1878,1685,1789,1848
703126,49396,16568,49366,16598,823,415,-77,151,-654,1206,-1377,2709,30,38,883,1801,1882,2033,2239,1948,1752,1824,1915
704127,49432,16624,49431,16663,708,576,8,108,-678,1069,-1438,2579,28,39,883,1801,1882,2033,2239,1948,1752,1824,1915
705128,49480,16704,49496,16728,579,258,104,51,-695,820,-1523,2716,35,41,884,1801,1882,2033,2239,1948,1752,1824,1915
706129,49516,16768,49561,16793,764,459,191,-53,-700,601,-1538,2367,35,53,883,1801,1882,2033,2239,1948,1752,1824,1915
707130,49576,16844,49626,16858,471,296,299,-159,-707,749,-1491,2072,37,47,886,1801,1882,2033,2239,1948,1752,1824,1915
708131,49616,16936,49691,16923,751,63,410,-264,-704,725,-1260,2234,33,48,883,1700,1787,2033,2239,1948,1752,1824,1915
709132,49664,17008,49756,16988,672,304,485,-335,-706,621,-1070,2324,33,43,887,1700,1787,1981,2169,1998,1786,1828,1916
710133,49740,17080,49821,17053,308,296,539,-333,-703,815,-959,2287,43,54,885,1700,1787,1981,2169,1998,1786,1828,1916
711134,49808,17148,49886,17118,405,342,574,-306,-698,1176,-713,2374,33,48,885,1700,1787,1981,2169,1998,1786,1828,1916
712135,49860,17212,49951,17183,621,393,592,-273,-695,1241,-456,2358,48,50,887,1700,1787,1981,2169,1998,1786,1828,1916
713136,49940,17304,50016,17248,252,10,576,-231,-704,956,-144,2450,35,54,887,1700,1787,1981,2169,1998,1786,1828,1916
714137,50004,17384,50081,17313,453,142,548,-217,-709,586,-25,1919,37,52,885,1721,1812,1990,2205,1922,1715,1782,1851
715138,50064,17464,50146,17378,510,124,511,-223,-718,650,75,2060,30,46,889,1721,1812,1990,2205,1922,1715,1782,1851
716139,50120,17536,50211,17443,571,215,477,-181,-724,711,48,2613,37,43,887,1721,1812,1990,2205,1922,1715,1782,1851
717140,50184,17588,50276,17508,472,481,444,-128,-739,869,178,2891,50,51,886,1721,1812,1990,2205,1922,1715,1782,1851
718141,50264,17644,50341,17573,253,442,430,-75,-753,658,55,2988,39,46,885,1721,1812,1990,2205,1922,1715,1782,1851
719142,50316,17712,50406,17638,619,288,432,-26,-760,626,-131,3157,43,37,886,1763,1841,2013,2230,1907,1705,1782,1851
720143,50380,17796,50471,17703,471,65,463,24,-776,619,-148,3547,31,45,887,1763,1841,2013,2230,1907,1705,1772,1858
721144,50444,17884,50536,17768,472,-13,509,40,-769,226,-461,3322,35,44,886,1763,1841,2013,2230,1907,1705,1772,1858
722145,50504,17924,50601,17833,528,617,571,29,-759,197,-428,3683,32,49,887,1763,1841,2013,2230,1907,1705,1772,1858
723146,50576,18000,50666,17898,369,154,645,42,-748,0,-559,3553,50,36,887,1763,1841,2013,2230,1907,1705,1772,1858
724147,50640,18064,50731,17963,471,305,725,61,-733,205,-623,3612,36,39,884,1763,1841,2013,2230,1907,1705,1772,1858
725148,50696,18140,50796,18028,582,142,817,106,-709,485,-678,3732,50,48,888,1769,1849,2062,2275,1993,1792,1831,1931
726149,50768,18212,50861,18093,373,183,899,147,-673,558,-641,3662,50,36,887,1769,1849,2062,2275,1993,1792,1831,1931
727150,50836,18288,50926,18158,419,120,981,227,-631,764,-389,3908,41,32,886,1769,1849,2062,2275,1993,1792,1831,1931
728151,50900,18332,50991,18223,471,545,1037,308,-589,905,-129,3601,51,34,887,1769,1849,2062,2275,1993,1792,1831,1931
729152,50984,18416,51056,18288,197,22,1074,405,-548,954,-113,3791,35,43,887,1769,1849,2062,2275,1993,1792,1831,1931
730153,51060,18480,51121,18353,284,273,1102,491,-502,1050,130,3544,34,31,885,1850,1926,2154,2403,2036,1840,1883,1955
731154,51112,18548,51186,18418,600,219,1096,542,-438,820,164,3162,31,45,889,1850,1926,2154,2403,2036,1840,1883,1955
732155,51180,18608,51251,18483,396,325,1093,605,-387,901,512,3510,33,34,888,1850,1926,2154,2403,2036,1840,1883,1955
733156,51260,18680,51316,18548,228,166,1080,619,-343,814,607,3302,53,34,886,1850,1926,2154,2403,2036,1840,1883,1955
734157,51336,18724,51381,18613,264,542,1077,632,-298,642,580,3730,37,38,886,1850,1926,2154,2403,2036,1840,1883,1955
735158,51400,18788,51446,18678,416,293,1079,641,-262,749,601,3887,33,39,887,1850,1926,2154,2403,2036,1840,1883,1955
736159,51452,18852,51511,18743,582,294,1092,641,-223,702,426,4054,39,39,886,1907,1957,2167,2421,2021,1822,1865,1935
737160,51512,18916,51576,18808,488,296,1117,636,-199,858,450,4412,31,35,887,1907,1957,2167,2421,2021,1822,1865,1935
738161,51576,18968,51641,18873,439,462,1143,608,-172,505,480,4155,30,40,886,1907,1957,2167,2421,2021,1822,1865,1935
739162,51644,19024,51706,18938,386,423,1179,590,-149,211,202,4613,28,31,886,1907,1957,2167,2421,2021,1822,1865,1935
740163,51700,19084,51771,19003,547,379,1224,612,-123,455,103,4717,30,31,886,1907,1957,2167,2421,2021,1822,1865,1935
741164,51756,19148,51836,19068,558,330,1277,658,-94,754,16,4904,45,36,886,1830,1894,2097,2295,2027,1801,1845,1962
742165,51820,19216,51901,19133,459,276,1342,724,-61,867,-160,5051,44,40,886,1830,1894,2097,2295,2027,1801,1845,1962
743166,51880,19256,51966,19198,515,657,1409,780,-24,795,-244,5125,49,31,886,1830,1894,2097,2295,2027,1801,1845,1962
744167,51936,19308,52031,19263,576,523,1480,841,5,844,-204,5252,47,44,887,1830,1894,2097,2295,2027,1801,1845,1962
745168,52012,19384,52096,19328,313,209,1527,900,19,1015,-55,5044,48,38,884,1830,1894,2097,2295,2027,1801,1845,1962
746169,52064,19432,52161,19393,629,580,1549,932,41,910,18,4657,30,42,885,1830,1894,2097,2295,2027,1801,1845,1962
747170,52104,19496,52226,19458,809,381,1542,954,73,689,-69,4429,45,31,888,1794,1893,2102,2286,2060,1826,1881,2007
748171,52172,19560,52291,19523,456,382,1534,963,99,813,42,4343,33,31,884,1794,1893,2102,2286,2060,1826,1881,2007
749172,52232,19628,52356,19588,562,329,1518,951,129,881,330,3944,49,43,884,1794,1893,2102,2286,2060,1826,1881,2007
750173,52292,19692,52421,19653,568,380,1480,926,163,781,414,3804,43,43,886,1794,1893,2102,2286,2060,1826,1881,2007
751174,52356,19744,52486,19718,519,546,1447,914,182,738,458,3824,44,42,885,1794,1893,2102,2286,2060,1826,1881,2007
752175,52412,19816,52551,19783,630,287,1430,838,196,739,439,3564,41,30,885,1859,1961,2167,2373,2115,1890,1939,2052
753176,52472,19876,52616,19848,586,443,1403,757,218,606,415,3514,43,36,885,1859,1961,2167,2373,2115,1890,1939,2052
754177,52524,19936,52681,19913,702,449,1368,669,240,684,556,3297,30,31,885,1859,1961,2167,2373,2115,1890,1939,2052
755178,52576,19984,52746,19978,718,620,1322,578,251,805,479,3172,47,30,885,1859,1961,2167,2373,2115,1890,1939,2052
756179,52660,20028,52811,20043,295,696,1282,456,255,886,476,3252,52,30,884,1859,1961,2167,2373,2115,1890,1939,2052
757180,52720,20096,52876,20108,601,392,1258,375,257,965,507,3517,48,31,883,1859,1961,2167,2373,2115,1890,1939,2052
758181,52792,20152,52941,20173,442,553,1251,346,274,1096,146,3732,36,45,885,1847,1932,2140,2326,2132,1896,1926,2051
759182,52864,20216,53006,20238,434,454,1268,368,295,1515,89,4480,46,43,885,1847,1932,2140,2326,2132,1896,1926,2051
760183,52936,20276,53071,20303,425,510,1318,414,303,1552,21,5003,37,35,885,1847,1932,2140,2326,2132,1896,1926,2051
761184,53004,20332,53136,20368,472,571,1375,468,300,1539,-47,5125,34,39,886,1847,1932,2140,2326,2132,1896,1926,2051
762185,53056,20376,53201,20433,689,747,1417,499,298,1372,44,5138,33,32,885,1847,1932,2140,2326,2132,1896,1926,2051
763186,53112,20464,53266,20498,649,169,1423,485,318,939,25,4844,33,32,885,1733,1828,2036,2191,2092,1848,1876,2002
764187,53184,20524,53331,20563,441,525,1419,460,318,533,266,5107,36,46,883,1733,1828,2036,2191,2092,1848,1876,2002
765188,53252,20580,53396,20628,487,586,1391,439,298,489,370,5006,49,46,886,1733,1828,2036,2191,2092,1848,1876,2002
766189,53304,20644,53461,20693,703,487,1343,360,273,527,475,4560,40,31,885,1733,1828,2036,2191,2092,1848,1876,2002
767190,53380,20704,53526,20758,390,543,1266,281,245,47,670,4380,30,46,885,1733,1828,2036,2191,2092,1848,1876,2002
768191,53444,20752,53591,20823,541,714,1176,212,223,-162,727,4343,36,45,884,1733,1828,2036,2191,2092,1848,1876,2002
769192,53520,20836,53656,20888,378,241,1075,149,196,159,652,4081,30,45,884,1741,1851,2067,2254,2096,1865,1913,2046
770193,53576,20896,53721,20953,639,547,974,71,171,149,759,3752,37,35,884,1741,1851,2067,2254,2096,1865,1913,2046
771194,53620,20968,53786,21018,814,389,905,43,157,-147,599,4100,32,42,887,1741,1851,2067,2254,2096,1865,1913,2046
772195,53700,21056,53851,21083,346,160,835,53,156,78,499,4149,33,46,884,1741,1851,2067,2254,2096,1865,1913,2046
773196,53760,21124,53916,21148,602,407,792,112,152,624,498,3832,34,40,884,1741,1851,2067,2254,2096,1865,1913,2046
774197,53820,21200,53981,21213,608,293,749,123,159,672,449,3941,48,32,888,1810,1922,2152,2321,2208,1971,1997,2155
775198,53892,21260,54046,21278,449,499,722,133,168,257,300,3851,32,39,885,1810,1922,2152,2321,2208,1971,1997,2155
776199,53952,21320,54111,21343,606,506,692,149,167,285,326,3699,31,43,886,1810,1922,2152,2321,2208,1971,1997,2155
777200,53996,21376,54176,21408,831,567,668,163,152,670,264,3618,41,44,886,1810,1922,2152,2321,2208,1971,1997,2155
778201,54076,21460,54241,21473,363,193,656,142,148,575,176,3852,45,36,885,1810,1922,2152,2321,2208,1971,1997,2155
779202,54128,21512,54306,21538,729,609,642,123,137,201,312,3762,34,44,883,1810,1922,2152,2321,2208,1971,1997,2155
780203,54208,21588,54371,21603,361,296,631,110,98,209,585,3866,50,35,887,1795,1893,2129,2283,2225,1972,1969,2101
781204,54268,21644,54436,21668,618,557,598,68,54,178,559,3778,37,46,883,1795,1893,2129,2283,2225,1972,1969,2101
782205,54340,21692,54501,21733,459,678,568,44,6,28,708,4196,43,46,887,1795,1893,2129,2283,2225,1972,1969,2101
783206,54404,21780,54566,21798,560,149,535,60,-62,-90,1030,4330,44,43,884,1795,1893,2129,2283,2225,1972,1969,2101
784207,54492,21828,54631,21863,232,670,487,63,-125,-169,1020,4199,45,44,884,1795,1893,2129,2283,2225,1972,1969,2101
785208,54544,21892,54696,21928,698,471,407,36,-174,-104,1173,4178,51,31,886,1721,1806,2029,2196,2087,1854,1868,1976
786209,54616,21964,54761,21993,440,363,332,-21,-208,-395,1126,4262,32,44,885,1721,1806,2029,2196,2087,1854,1868,1976
787211,54700,22028,54826,22058,266,464,282,-63,-245,-624,1061,4721,35,39,886,1721,1806,2029,2196,2087,1854,1868,1976
788211,54764,22096,54891,22123,518,410,235,-85,-283,-588,992,4629,34,40,887,1721,1806,2029,2196,2087,1854,1868,1976
789214,54848,22144,54956,22188,244,681,197,-89,-322,-335,1085,4512,40,32,886,1721,1806,2029,2196,2087,1854,1868,1976
790213,54904,22196,55021,22253,605,647,153,-87,-336,-536,903,4370,47,37,886,1721,1806,2029,2196,2087,1854,1868,1976
791214,54976,22272,55086,22318,397,334,97,-66,-361,-443,998,4176,29,40,884,1695,1792,2011,2187,2041,1829,1859,1990
792215,55032,22320,55151,22383,608,704,24,9,-385,90,940,3632,42,44,887,1695,1792,2011,2187,2041,1829,1859,1990
793216,55076,22396,55216,22448,783,341,-43,62,-387,138,720,3517,33,39,883,1695,1792,2011,2187,2041,1829,1859,1990
794217,55164,22476,55281,22513,205,273,-109,119,-425,110,793,3342,43,49,884,1695,1792,2011,2187,2041,1829,1859,1990
795218,55236,22560,55346,22578,397,199,-147,143,-447,72,779,3050,33,46,888,1695,1792,2011,2187,2041,1829,1859,1990
796219,55284,22624,55411,22643,718,451,-144,118,-449,-345,670,3315,29,36,887,1756,1864,2102,2272,2124,1908,1924,2064
797220,55336,22680,55476,22708,683,562,-120,62,-474,-579,542,3152,46,33,884,1756,1864,2102,2272,2124,1908,1924,2064
798221,55420,22756,55541,22773,260,298,-76,6,-512,-407,578,3305,46,36,883,1756,1864,2102,2272,2124,1908,1924,2064
799222,55496,22816,55606,22838,347,504,-64,-75,-552,-435,665,3152,32,46,887,1756,1864,2102,2272,2124,1908,1924,2064
800223,55536,22876,55671,22903,827,510,-53,-111,-633,-370,841,3059,42,39,886,1756,1864,2102,2272,2124,1908,1924,2064
801224,55592,22940,55736,22968,639,462,-68,-125,-725,-61,913,3008,43,41,881,1756,1864,2102,2272,2124,1908,1924,2064
802225,55648,23004,55801,23033,650,463,-54,-121,-806,203,1036,3192,39,34,884,1791,1890,2131,2308,2111,1884,1900,2010
803226,55700,23080,55866,23098,716,299,-62,-127,-854,96,1075,3248,29,39,884,1791,1890,2131,2308,2111,1884,1900,2010
804227,55760,23124,55931,23163,622,725,-52,-98,-912,47,1174,3425,45,36,885,1791,1890,2131,2308,2111,1884,1900,2010
805228,55832,23176,55996,23228,464,641,-66,-56,-948,190,1122,3610,51,39,883,1791,1890,2131,2308,2111,1884,1900,2010
806229,55884,23264,56061,23293,730,163,-88,-21,-975,362,1333,3820,33,43,884,1791,1890,2131,2308,2111,1884,1900,2010
807230,55936,23320,56126,23358,745,574,-129,14,-994,58,1299,3719,40,34,885,1789,1872,2074,2266,1976,1770,1811,1893
808231,56008,23376,56191,23423,487,585,-155,48,-1022,40,1180,3997,41,37,883,1789,1872,2074,2266,1976,1770,1811,1893
809232,56056,23436,56256,23488,808,541,-141,99,-1031,135,764,3981,51,30,884,1789,1872,2074,2266,1976,1770,1811,1893
810233,56140,23484,56321,23553,334,712,-116,133,-1004,319,751,3854,32,42,882,1789,1872,2074,2266,1976,1770,1811,1893
811234,56196,23552,56386,23618,695,458,-89,163,-967,-13,737,3986,44,42,885,1789,1872,2074,2266,1976,1770,1811,1893
812235,56244,23604,56451,23683,816,674,-103,134,-949,-467,786,3791,33,38,884,1789,1872,2074,2266,1976,1770,1811,1893
813236,56312,23668,56516,23748,563,525,-121,86,-942,-484,836,3676,49,38,882,1760,1837,2045,2256,1941,1754,1795,1886
814237,56356,23728,56581,23813,888,581,-115,20,-916,-320,629,3618,42,37,885,1760,1837,2045,2256,1941,1754,1795,1886
815238,56420,23796,56646,23878,639,478,-85,-12,-899,-254,459,3886,43,30,882,1760,1837,2045,2256,1941,1754,1795,1886
816239,56484,23852,56711,23943,642,639,-32,16,-878,-229,137,3870,34,33,884,1760,1837,2045,2256,1941,1754,1795,1886
817240,56540,23916,56776,24008,753,541,19,47,-869,280,331,3644,45,39,883,1760,1837,2045,2256,1941,1754,1795,1886
818241,56592,23968,56841,24073,818,707,68,102,-865,361,339,3788,30,38,883,1785,1866,2100,2312,2025,1826,1860,1970
819242,56644,24024,56906,24138,834,668,94,143,-871,265,375,3624,38,43,880,1785,1866,2100,2312,2025,1826,1860,1970
820243,56704,24088,56971,24203,740,569,117,190,-868,396,574,3604,29,44,882,1785,1866,2100,2312,2025,1826,1860,1970
821244,56752,24152,57036,24268,911,570,134,234,-879,394,675,3442,31,35,883,1785,1866,2100,2312,2025,1826,1860,1970
822245,56808,24220,57101,24333,822,516,139,268,-897,585,619,3338,43,33,882,1785,1866,2100,2312,2025,1826,1860,1970
823246,56852,24292,57166,24398,998,458,146,288,-904,499,696,3294,48,45,883,1785,1866,2100,2312,2025,1826,1860,1970
824247,56916,24336,57231,24463,749,834,148,307,-896,236,637,3338,33,35,881,1868,1940,2176,2392,2087,1871,1905,2006
825248,56964,24404,57296,24528,970,530,159,337,-884,268,672,3613,49,39,881,1868,1940,2176,2392,2087,1871,1905,2006
826249,57032,24460,57361,24593,717,691,163,356,-855,241,725,3641,48,36,881,1868,1940,2176,2392,2087,1871,1905,2006
827250,57108,24528,57426,24658,604,537,167,379,-825,258,709,3911,46,44,882,1868,1940,2176,2392,2087,1871,1905,2006
828251,57144,24584,57491,24723,1139,698,169,413,-799,268,550,3851,47,32,884,1868,1940,2176,2392,2087,1871,1905,2006
829252,57220,24648,57556,24788,626,599,173,405,-762,192,642,4065,40,36,879,1855,1924,2137,2342,2058,1838,1872,1965
830253,57276,24692,57621,24853,887,875,178,389,-706,-227,452,4126,34,32,883,1855,1924,2137,2342,2058,1838,1872,1965
831254,57316,24756,57686,24918,1117,626,191,401,-650,-64,343,4519,32,43,880,1855,1924,2137,2342,2058,1838,1872,1965
832255,57392,24808,57751,24983,654,792,224,417,-583,167,295,4567,45,30,879,1855,1924,2137,2342,2058,1838,1872,1965
833256,57448,24840,57816,25048,915,1082,268,427,-511,-72,299,4789,35,35,882,1855,1924,2137,2342,2058,1838,1872,1965
834257,57500,24924,57881,25113,982,409,308,448,-451,-110,184,4887,28,42,878,1855,1924,2137,2342,2058,1838,1872,1965
835258,57556,25004,57946,25178,943,441,355,459,-391,122,96,4636,29,45,881,1783,1862,2073,2268,2030,1814,1851,1955
836259,57608,25064,58011,25243,1008,697,387,455,-318,257,156,4698,30,31,880,1783,1862,2073,2268,2030,1814,1851,1955
837260,57664,25104,58076,25308,969,979,411,451,-279,82,326,4545,42,30,880,1783,1862,2073,2268,2030,1814,1851,1955
838261,57720,25160,58141,25373,980,790,420,439,-237,86,267,4429,34,40,878,1783,1862,2073,2268,2030,1814,1851,1955
839262,57788,25200,58206,25438,827,1020,428,412,-204,235,472,4376,44,40,879,1783,1862,2073,2268,2030,1814,1851,1955
840263,57840,25252,58271,25503,1044,886,424,387,-179,150,497,4244,49,30,879,1810,1892,2119,2334,2057,1842,1888,1995
841264,57892,25332,58336,25568,1059,518,418,359,-160,154,414,4138,36,42,878,1810,1892,2119,2334,2057,1842,1888,1995
842265,57948,25388,58401,25633,1020,829,404,342,-144,401,369,4007,38,41,881,1810,1892,2119,2334,2057,1842,1888,1995
843266,58004,25456,58466,25698,1031,675,391,330,-129,653,394,3883,47,38,879,1810,1892,2119,2334,2057,1842,1888,1995
844267,58064,25524,58531,25763,988,671,390,330,-102,473,254,3929,42,42,880,1810,1892,2119,2334,2057,1842,1888,1995
845268,58128,25552,58596,25828,939,1216,398,339,-92,834,497,4022,43,42,880,1810,1892,2119,2334,2057,1842,1888,1995
846269,58184,25600,58661,25893,1051,987,365,333,-60,695,343,3769,42,28,877,1899,1975,2201,2414,2112,1889,1933,2049
847270,58248,25668,58726,25958,952,734,361,298,-28,172,486,3794,43,48,877,1899,1975,2201,2414,2112,1889,1933,2049
848271,58296,25744,58791,26023,1173,621,357,278,6,-50,252,3973,49,37,880,1899,1975,2201,2414,2112,1889,1933,2049
849272,58360,25808,58856,26088,974,772,356,275,36,183,254,4059,51,34,879,1899,1975,2201,2414,2112,1889,1933,2049
850273,58404,25868,58921,26153,1250,828,369,268,74,462,305,4238,53,39,879,1899,1975,2201,2414,2112,1889,1933,2049
851274,58460,25936,58986,26218,1111,725,387,243,129,96,179,4282,45,45,877,1883,1959,2175,2365,2118,1883,1915,2031
852275,58528,26004,59051,26283,958,721,406,242,186,-210,294,4622,36,40,878,1883,1959,2175,2365,2118,1883,1915,2031
853276,58596,26072,59116,26348,954,717,437,239,226,-104,440,4636,42,50,880,1883,1959,2175,2365,2118,1883,1915,2031
854277,58660,26116,59181,26413,1005,1043,459,219,268,-150,239,4699,44,50,880,1883,1959,2175,2365,2118,1883,1915,2031
855278,58732,26196,59246,26478,897,575,490,162,311,-247,432,4578,40,40,877,1883,1959,2175,2365,2118,1883,1915,2031
856279,58784,26260,59311,26543,1163,776,527,48,395,-584,317,4714,54,45,882,1883,1959,2175,2365,2118,1883,1915,2031
857280,58832,26320,59376,26608,1235,832,527,48,395,-584,317,4714,35,39,878,1799,1885,2097,2283,2071,1845,1878,1986
858281,58904,26404,59441,26673,926,510,528,46,431,-115,634,4752,42,51,877,1799,1885,2097,2283,2071,1845,1878,1986
859282,58968,26476,59506,26738,1027,651,547,53,451,143,658,4663,49,52,881,1799,1885,2097,2283,2071,1845,1878,1986
860283,59036,26544,59571,26803,974,698,535,56,456,179,630,4499,48,43,880,1799,1885,2097,2283,2071,1845,1878,1986
861284,59088,26608,59636,26868,1189,749,540,49,489,-115,381,4188,40,45,880,1799,1885,2097,2283,2071,1845,1878,1986
862285,59136,26676,59701,26933,1261,695,554,87,502,199,558,4333,47,48,878,1802,1886,2107,2312,2053,1841,1881,1985
863286,59200,26748,59766,26998,1062,637,555,123,514,529,690,3937,48,48,878,1802,1886,2107,2312,2053,1841,1881,1985
864287,59256,26808,59831,27063,1173,793,559,131,514,482,745,3848,35,53,880,1802,1886,2107,2312,2053,1841,1881,1985
865288,59324,26880,59896,27128,1020,634,553,122,529,-334,722,3771,38,44,877,1802,1886,2107,2312,2053,1841,1881,1985
866289,59392,26952,59961,27193,1017,626,567,124,514,-438,358,3924,43,46,880,1802,1886,2107,2312,2053,1841,1881,1985
867290,59440,27000,60026,27258,1288,946,592,98,503,1360,118,4430,33,47,880,1802,1886,2107,2312,2053,1841,1881,1985
868291,59484,27068,60091,27323,1363,694,585,22,504,759,813,3138,48,36,875,1860,1932,2164,2383,2063,1859,1890,1988
869292,59536,27148,60156,27388,1279,525,604,-73,465,-1117,666,3407,33,44,876,1860,1932,2164,2383,2063,1859,1890,1988
870293,59616,27200,60221,27453,911,891,602,-70,436,-291,408,4086,42,41,878,1860,1932,2164,2383,2063,1859,1890,1988
871294,59676,27260,60286,27518,1168,797,620,-57,451,816,810,3572,42,43,879,1860,1932,2164,2383,2063,1859,1890,1988
872295,59748,27348,60351,27583,1010,419,634,-55,486,132,616,3492,51,32,878,1860,1932,2164,2383,2063,1859,1890,1988
873296,59804,27384,60416,27648,1221,1105,653,-2,503,-378,505,3859,43,46,881,1872,1944,2172,2381,2046,1840,1872,1969
874297,59856,27460,60481,27713,1286,591,668,18,532,-216,720,3885,34,41,875,1872,1944,2172,2381,2046,1840,1872,1969
875298,59920,27524,60546,27778,1139,743,699,7,560,-316,699,3788,44,43,877,1872,1944,2172,2381,2046,1840,1872,1969
876299,59984,27568,60611,27843,1140,1018,716,19,577,-224,754,3990,37,31,878,1872,1944,2172,2381,2046,1840,1872,1969
877300,60040,27628,60676,27908,1251,824,735,40,575,56,1018,4020,45,41,876,1872,1944,2172,2381,2046,1840,1872,1969
878301,60100,27692,60741,27973,1207,776,745,24,583,-124,828,3966,34,38,876,1872,1944,2172,2381,2046,1840,1872,1969
879302,60168,27736,60806,28038,1104,1052,760,31,577,-127,925,4009,36,31,877,1819,1901,2114,2310,2006,1801,1839,1934
880303,60236,27796,60871,28103,1101,858,781,25,575,-22,1041,3970,47,36,876,1819,1901,2114,2310,2006,1801,1839,1934
881304,60292,27848,60936,28168,1262,974,807,36,572,-7,997,4144,33,41,878,1819,1901,2114,2310,2006,1801,1839,1934
882305,60332,27920,61001,28233,1492,716,825,55,545,157,1026,3912,49,45,875,1819,1901,2114,2310,2006,1801,1839,1934
883306,60392,27968,61066,28298,1248,1036,839,67,532,327,943,3906,32,51,874,1819,1901,2114,2310,2006,1801,1839,1934
884307,60448,28044,61131,28363,1310,673,846,77,502,435,1103,3779,32,42,875,1784,1865,2083,2281,2001,1803,1839,1940
885308,60488,28120,61196,28428,1541,659,845,82,461,351,1043,3553,43,49,877,1784,1865,2083,2281,2001,1803,1839,1940
886309,60564,28192,61261,28493,1077,701,850,89,429,383,927,3624,33,48,874,1784,1865,2083,2281,2001,1803,1839,1940
887310,60616,28236,61326,28558,1394,1078,853,98,412,382,1053,3478,52,53,877,1784,1865,2083,2281,2001,1803,1839,1940
888311,60684,28320,61391,28623,1191,554,862,115,376,409,1031,3555,52,41,873,1784,1865,2083,2281,2001,1803,1839,1940
889312,60748,28384,61456,28688,1242,806,862,127,360,383,767,3366,50,49,879,1784,1865,2083,2281,2001,1803,1839,1940
890313,60792,28472,61521,28753,1517,478,867,141,349,480,904,3424,44,46,877,1804,1881,2116,2322,2046,1848,1872,1976
891314,60848,28544,61586,28818,1379,669,844,138,343,278,849,3333,34,45,877,1804,1881,2116,2322,2046,1848,1872,1976
892315,60900,28624,61651,28883,1445,551,839,121,352,81,912,3230,53,48,877,1804,1881,2116,2322,2046,1848,1872,1976
893316,60968,28700,61716,28948,1242,587,832,109,362,111,935,3323,41,45,876,1804,1881,2116,2322,2046,1848,1872,1976
894317,61032,28748,61781,29013,1293,958,829,107,361,273,967,3614,35,41,878,1804,1881,2116,2322,2046,1848,1872,1976
895318,61072,28836,61846,29078,1624,430,820,103,379,114,869,3558,33,51,875,1815,1895,2140,2340,2072,1872,1886,1992
896319,61136,28904,61911,29143,1326,676,814,87,393,55,883,3515,36,48,876,1815,1895,2140,2340,2072,1872,1886,1992
897320,61200,28972,61976,29208,1327,674,800,118,415,166,834,3805,48,41,877,1815,1895,2140,2340,2072,1872,1886,1992
898321,61252,29048,62041,29273,1494,560,787,116,425,370,1024,3660,47,50,877,1815,1895,2140,2340,2072,1872,1886,1992
899322,61324,29108,62106,29338,1235,766,773,138,422,233,943,3786,46,52,876,1815,1895,2140,2340,2072,1872,1886,1992
900323,61376,29172,62171,29403,1501,717,752,156,407,363,1056,3968,54,46,877,1815,1895,2140,2340,2072,1872,1886,1992
901324,61436,29244,62236,29468,1407,609,739,179,406,371,938,3908,48,50,875,1788,1872,2109,2294,2071,1858,1876,1987
902325,61504,29312,62301,29533,1304,655,712,186,400,372,997,3924,37,45,876,1788,1872,2109,2294,2071,1858,1876,1987
903326,61560,29376,62366,29598,1465,706,696,211,386,437,1085,4082,34,39,877,1788,1872,2109,2294,2071,1858,1876,1987
904327,61604,29428,62431,29663,1641,872,675,237,368,526,1083,4097,32,36,875,1788,1872,2109,2294,2071,1858,1876,1987
905328,61656,29504,62496,29728,1558,559,656,262,340,612,1076,4127,35,37,873,1788,1872,2109,2294,2071,1858,1876,1987
906329,61720,29548,62561,29793,1409,985,636,286,307,646,1170,4111,50,47,876,1766,1852,2086,2266,2084,1865,1888,2002
907330,61800,29636,62626,29858,1191,406,617,290,280,527,1074,4082,48,41,874,1766,1852,2086,2266,2084,1865,1888,2002
908331,61852,29696,62691,29923,1558,763,583,300,251,422,1054,4033,49,47,880,1766,1852,2086,2266,2084,1865,1888,2002
909332,61888,29756,62756,29988,1793,770,558,299,231,458,1154,4039,47,39,874,1766,1852,2086,2266,2084,1865,1888,2002
910333,61944,29820,62821,30053,1554,721,524,281,215,404,1018,3980,34,48,871,1766,1852,2086,2266,2084,1865,1888,2002
911334,61988,29876,62886,30118,1731,832,485,275,212,388,1024,3836,30,55,874,1766,1852,2086,2266,2084,1865,1888,2002
912335,62036,29952,62951,30183,1701,568,443,239,217,274,881,3704,42,41,871,1767,1856,2101,2289,2121,1905,1917,2038
913336,62100,30012,63016,30248,1503,775,396,219,221,108,841,3728,47,45,873,1767,1856,2101,2289,2121,1905,1917,2038
914337,62136,30080,63081,30313,1889,671,351,215,224,322,971,3787,46,42,875,1767,1856,2101,2289,2121,1905,1917,2038
915338,62192,30156,63146,30378,1650,557,321,237,246,566,888,3906,42,52,871,1767,1856,2101,2289,2121,1905,1917,2038
916339,62264,30216,63211,30443,1442,764,279,256,257,745,918,3886,46,50,875,1767,1856,2101,2289,2121,1905,1917,2038
917340,62296,30276,63276,30508,1983,770,242,266,261,432,974,4007,36,38,875,1792,1884,2140,2328,2154,1937,1940,2065
918341,62364,30352,63341,30573,1529,556,207,262,281,199,864,3870,44,46,869,1792,1884,2140,2328,2154,1937,1940,2065
919342,62432,30400,63406,30638,1526,927,175,259,294,227,787,3903,34,57,876,1792,1884,2140,2328,2154,1937,1940,2065
920343,62476,30460,63471,30703,1852,783,144,276,289,564,997,4048,54,38,873,1792,1884,2140,2328,2154,1937,1940,2065
921344,62544,30532,63536,30768,1548,626,116,288,268,574,971,4112,52,47,871,1792,1884,2140,2328,2154,1937,1940,2065
922345,62596,30584,63601,30833,1765,891,90,310,244,503,963,4187,49,46,875,1792,1884,2140,2328,2154,1937,1940,2065
923346,62668,30648,63666,30898,1507,743,63,323,211,387,1134,4312,55,46,872,1789,1878,2133,2312,2150,1927,1929,2047
924347,62720,30712,63731,30963,1773,744,40,302,173,377,1007,4258,53,43,875,1789,1878,2133,2312,2150,1927,1929,2047
925348,62804,30768,63796,31028,1350,855,9,299,128,424,1019,4376,46,45,872,1789,1878,2133,2312,2150,1927,1929,2047
926349,62864,30836,63861,31093,1657,701,-4,301,96,460,1164,4177,54,46,876,1789,1878,2133,2312,2150,1927,1929,2047
927350,62920,30916,63926,31158,1719,533,-23,272,59,305,1177,4432,37,50,874,1789,1878,2133,2312,2150,1927,1929,2047
928351,62976,30952,63991,31223,1730,1118,-52,281,25,49,1286,4352,34,42,874,1772,1860,2107,2289,2112,1893,1903,2014
929352,63036,31028,64056,31288,1686,605,-60,301,14,295,1354,4397,50,41,869,1772,1860,2107,2289,2112,1893,1903,2014
930353,63104,31084,64121,31353,1583,866,-69,314,4,263,1327,4346,52,52,874,1772,1860,2107,2289,2112,1893,1903,2014
931354,63160,31168,64186,31418,1744,494,-101,337,-11,248,1413,4324,52,47,873,1772,1860,2107,2289,2112,1893,1903,2014
932355,63216,31228,64251,31483,1755,800,-113,353,-23,410,1502,4181,42,45,874,1772,1860,2107,2289,2112,1893,1903,2014
933356,63264,31284,64316,31548,1877,861,-134,347,-21,333,1306,4259,33,44,872,1783,1875,2123,2321,2112,1893,1903,2014
934357,63328,31348,64381,31613,1678,762,-148,377,-39,353,1460,4143,37,52,870,1783,1875,2123,2321,2089,1879,1898,2007
935358,63368,31424,64446,31678,2009,599,-161,384,-46,372,1367,4054,48,45,872,1783,1875,2123,2321,2089,1879,1898,2007
936359,63440,31488,64511,31743,1601,750,-178,425,-58,416,1255,3975,49,53,871,1783,1875,2123,2321,2089,1879,1898,2007
937360,63492,31564,64576,31808,1867,586,-183,449,-51,393,1352,3801,37,56,873,1783,1875,2123,2321,2089,1879,1898,2007
938361,63532,31612,64641,31873,2048,957,-189,448,-50,362,1285,3933,40,39,870,1783,1875,2123,2321,2089,1879,1898,2007
939362,63568,31660,64706,31938,2134,978,-188,442,-55,312,1234,3777,51,53,867,1830,1920,2172,2377,2085,1885,1895,2000
940363,63656,31736,64771,32003,1457,614,-180,434,-70,370,1366,3826,40,57,867,1830,1920,2172,2377,2085,1885,1895,2000
941364,63728,31792,64836,32068,1648,875,-163,402,-90,208,1407,3832,53,48,876,1830,1920,2172,2377,2085,1885,1895,2000
942365,63780,31844,64901,32133,1915,942,-154,420,-113,191,1272,4017,52,45,873,1830,1920,2172,2377,2085,1885,1895,2000
943366,63852,31924,64966,32198,1656,574,-149,451,-139,488,1429,3952,37,39,870,1830,1920,2172,2377,2085,1885,1895,2000
944367,63908,31984,65031,32263,1867,830,-145,476,-169,544,1340,4244,50,58,875,1850,1926,2184,2391,2063,1863,1871,1972
945368,63980,32056,65096,32328,1660,672,-143,488,-203,508,1406,4043,39,40,870,1850,1926,2184,2391,2063,1863,1871,1972
946369,64048,32112,65161,32393,1706,883,-126,474,-234,364,1516,3937,51,41,874,1850,1926,2184,2391,2063,1863,1871,1972
947370,64100,32180,65226,32458,1923,729,-136,468,-255,103,1523,4209,39,51,872,1850,1926,2184,2391,2063,1863,1871,1972
948371,64184,32252,65291,32523,1500,670,-134,503,-284,287,1538,4079,43,42,871,1850,1926,2184,2391,2063,1863,1871,1972
949372,64228,32308,65356,32588,2026,881,-138,527,-298,459,1731,4102,54,43,876,1850,1926,2184,2391,2063,1863,1871,1972
950373,64284,32372,65421,32653,1887,783,-137,542,-314,396,1751,4171,39,51,869,1832,1901,2149,2352,2029,1830,1851,1949
951374,64352,32440,65620,32852,1897,892,-150,568,-320,219,1656,4138,40,54,871,1832,1901,2149,2352,2029,1830,1851,1949
952375,64416,32476,65685,32917,1950,1329,-157,572,-320,99,1683,4059,37,54,869,1832,1901,2149,2352,2029,1830,1851,1949
953376,64484,32548,65750,32982,1896,870,-175,594,-320,113,1590,4061,49,45,866,1832,1901,2149,2352,2029,1830,1851,1949
954377,64556,32616,65815,33047,1838,917,-184,592,-317,245,1556,3817,54,48,870,1832,1901,2149,2352,2029,1830,1851,1949
955378,64612,32696,65880,33112,2049,748,-193,582,-309,201,1531,3808,52,50,869,1803,1882,2122,2320,2049,1848,1871,1982
956379,64692,32748,65945,33177,1732,1114,-192,580,-304,50,1522,3843,39,60,870,1803,1882,2122,2320,2049,1848,1871,1982
957380,64756,32836,66010,33242,1933,636,-185,570,-329,298,1687,3626,57,66,870,1803,1882,2122,2320,2049,1848,1871,1982
958381,64816,32924,66075,33307,1990,609,-149,599,-359,410,1664,3961,52,55,872,1803,1882,2122,2320,2049,1848,1871,1982
959382,64892,32980,66140,33372,1777,1020,-116,652,-382,445,1737,4261,49,52,872,1803,1882,2122,2320,2049,1848,1871,1982
960383,64980,33072,66205,33437,1600,537,-60,721,-411,609,1837,4109,45,60,871,1803,1882,2122,2320,2049,1848,1871,1982
961384,65064,33160,66270,33502,1627,559,-28,754,-437,608,1757,3941,62,58,875,1793,1878,2129,2319,2101,1888,1898,2017
962385,65124,33216,66335,33567,1934,970,-7,773,-474,515,1809,4012,48,48,875,1793,1878,2129,2319,2101,1888,1898,2017
963386,65196,33300,66400,33632,1775,597,-2,759,-485,182,1655,3566,58,52,869,1793,1878,2129,2319,2101,1888,1898,2017
964387,65276,33376,66465,33697,1658,683,-16,752,-491,147,1718,3400,63,56,874,1793,1878,2129,2319,2101,1888,1898,2017
965388,65360,33448,66530,33762,1585,726,-54,702,-500,216,1847,3440,65,64,874,1793,1878,2129,2319,2101,1888,1898,2017
966389,65440,33544,66595,33827,1616,388,-89,684,-512,83,1757,3487,47,51,875,1817,1902,2162,2362,2076,1871,1877,1983
967390,65528,33636,66660,33892,1489,405,-133,664,-502,180,1708,3363,63,50,876,1817,1902,2162,2362,2076,1871,1877,1983
968391,65612,33688,66725,33957,1516,921,-171,692,-497,428,1798,3679,45,51,877,1817,1902,2162,2362,2076,1871,1877,1983
969392,65668,33760,66790,34022,1878,662,-206,678,-501,545,1983,3597,55,44,874,1817,1902,2162,2362,2076,1871,1877,1983
970393,65756,33844,66855,34087,1450,489,-232,688,-502,95,1808,3777,46,61,872,1817,1902,2162,2362,2076,1871,1877,1983
971394,65816,33920,66920,34152,1807,576,-281,697,-510,346,1723,3990,58,51,878,1817,1902,2162,2362,2076,1871,1877,1983
972395,65896,34004,66985,34217,1539,453,-301,722,-510,659,1657,3934,43,53,872,1820,1893,2148,2338,2049,1845,1853,1969
973396,65964,34068,67050,34282,1685,704,-319,719,-536,592,1883,3791,45,60,876,1820,1893,2148,2338,2049,1845,1853,1969
974397,66044,34140,67115,34347,1518,595,-338,696,-547,4,1580,3817,52,54,873,1820,1893,2148,2338,2049,1845,1853,1969
975398,66112,34216,67180,34412,1664,532,-354,705,-556,242,1609,4012,51,49,876,1820,1893,2148,2338,2049,1845,1853,1969
976399,66180,34280,67245,34477,1662,684,-371,716,-570,732,1650,3908,50,59,874,1820,1893,2148,2338,2049,1845,1853,1969
977400,66232,34352,67310,34542,1877,575,-378,720,-584,575,1616,4001,45,47,874,1768,1847,2097,2259,2079,1866,1877,2011
978401,66308,34428,67375,34607,1564,512,-379,692,-610,321,1884,3677,42,57,872,1768,1847,2097,2259,2079,1866,1877,2011
979402,66384,34496,67440,34672,1552,608,-386,677,-613,85,1692,3654,59,56,876,1768,1847,2097,2259,2079,1866,1877,2011
980403,66460,34584,67505,34737,1538,330,-402,688,-628,502,1709,3789,53,61,876,1768,1847,2097,2259,2079,1866,1877,2011
981404,66524,34652,67570,34802,1690,577,-423,694,-640,598,1827,3529,59,59,877,1768,1847,2097,2259,2079,1866,1877,2011
982405,66608,34720,67635,34867,1417,573,-453,700,-636,245,1849,3470,60,51,874,1768,1847,2097,2259,2079,1866,1877,2011
983406,66688,34824,67700,34932,1449,75,-477,687,-660,222,2021,3425,44,46,877,1744,1837,2089,2255,2133,1904,1913,2049
984407,66760,34888,67765,34997,1541,577,-493,667,-665,225,1923,3115,44,45,879,1744,1837,2089,2255,2133,1904,1913,2049
985408,66828,34960,67830,35062,1588,468,-533,681,-656,330,1807,3504,47,53,876,1744,1837,2089,2255,2133,1904,1913,2049
986409,66924,35048,67895,35127,1201,240,-567,709,-643,477,1843,3173,61,45,876,1744,1837,2089,2255,2133,1904,1913,2049
987410,66996,35104,67960,35192,1492,651,-583,694,-666,521,2049,3332,48,60,880,1744,1837,2089,2255,2133,1904,1913,2049
988411,67080,35152,68025,35257,1319,772,-601,659,-668,-12,1753,3089,41,41,876,1759,1855,2109,2282,2134,1902,1904,2032
989412,67152,35244,68090,35322,1462,189,-639,655,-662,35,1688,3617,60,48,876,1759,1855,2109,2282,2134,1902,1904,2032
990413,67236,35308,68155,35387,1288,540,-677,663,-663,551,1474,3473,51,57,879,1759,1855,2109,2282,2134,1902,1904,2032
991414,67312,35392,68220,35452,1375,267,-702,636,-671,544,1604,3204,48,46,879,1759,1855,2109,2282,2134,1902,1904,2032
992415,67396,35456,68285,35517,1253,518,-731,592,-680,80,1553,3482,51,41,879,1759,1855,2109,2282,2134,1902,1904,2032
993416,67476,35512,68350,35582,1284,629,-766,573,-691,45,1475,3435,46,46,879,1759,1855,2109,2282,2134,1902,1904,2032
994417,67544,35596,68415,35647,1431,256,-799,548,-697,286,1448,3492,59,59,878,1760,1846,2100,2270,2071,1852,1853,1974
995418,67640,35672,68480,35712,1044,342,-831,541,-704,539,1438,3475,44,52,879,1760,1846,2100,2270,2071,1852,1853,1974
996419,67724,35748,68545,35777,1171,329,-857,524,-720,370,1561,3500,46,57,881,1760,1846,2100,2270,2071,1852,1853,1974
997420,67800,35812,68610,35842,1257,480,-874,512,-735,198,1484,3347,41,49,881,1760,1846,2100,2270,2071,1852,1853,1974
998421,67880,35876,68675,35907,1190,481,-908,518,-733,504,1352,3635,62,56,880,1760,1846,2100,2270,2071,1852,1853,1974
999422,67964,35948,68740,35972,1117,373,-925,546,-743,582,1427,3381,46,46,880,1752,1833,2084,2252,2038,1826,1840,1962
1000423,68048,36020,68805,36037,1094,364,-947,550,-759,312,1731,3200,63,45,881,1752,1833,2084,2252,2038,1826,1840,1962
1001424,68136,36092,68870,36102,1015,356,-956,547,-776,153,1631,3192,51,44,881,1752,1833,2084,2252,2038,1826,1840,1962
1002425,68220,36156,68935,36167,1043,457,-984,540,-799,158,1577,3204,51,43,882,1752,1833,2084,2252,2038,1826,1840,1962
1003426,68308,36232,69000,36232,965,294,-1005,548,-803,265,1497,3228,48,57,881,1752,1833,2084,2252,2038,1826,1840,1962
1004427,68392,36304,69065,36297,992,335,-1021,523,-819,100,1742,2972,58,47,883,1752,1833,2084,2252,2038,1826,1840,1962
1005428,68476,36380,69130,36362,970,272,-1033,495,-847,-132,1674,3016,61,54,882,1755,1841,2081,2260,2053,1839,1863,1982
1006429,68548,36432,69195,36427,1111,587,-1041,455,-868,-119,1667,2981,59,56,881,1755,1841,2081,2260,2053,1839,1863,1982
1007430,68640,36504,69260,36492,828,329,-1065,424,-873,28,1504,2933,59,44,880,1755,1841,2081,2260,2053,1839,1863,1982
1008431,68716,36592,69325,36557,1015,101,-1067,371,-881,-143,1467,2770,45,50,884,1755,1841,2081,2260,2053,1839,1863,1982
1009432,68800,36656,69390,36622,892,402,-1066,353,-902,-237,1528,2882,57,44,883,1755,1841,2081,2260,2053,1839,1863,1982
1010433,68880,36732,69455,36687,924,239,-1057,331,-916,-49,1433,2880,48,45,883,1760,1850,2082,2262,2064,1843,1868,1987
1011434,68972,36804,69520,36752,741,280,-1050,317,-915,-1,1233,2921,52,46,883,1760,1850,2082,2262,2064,1843,1868,1987
1012435,69040,36876,69585,36817,1038,271,-1047,323,-922,76,1233,3015,46,46,885,1760,1850,2082,2262,2064,1843,1868,1987
1013436,69144,36948,69650,36882,540,263,-1027,329,-928,196,1376,2978,43,46,882,1760,1850,2082,2262,2064,1843,1868,1987
1014437,69220,37024,69715,36947,878,200,-1015,300,-935,1,1162,2807,60,57,886,1760,1850,2082,2262,2064,1843,1868,1987
1015438,69316,37100,69780,37012,590,186,-1014,304,-937,-47,1008,3343,37,54,884,1760,1850,2082,2262,2064,1843,1868,1987
1016439,69400,37184,69845,37077,717,63,-1035,292,-942,290,1071,2939,40,58,886,1751,1839,2069,2241,2019,1800,1828,1943
1017440,69460,37260,69910,37142,1023,149,-1040,250,-958,194,1092,2939,49,56,886,1751,1839,2069,2241,2019,1800,1828,1943
1018441,69560,37332,69975,37207,480,191,-1045,184,-987,-218,802,2892,40,44,883,1751,1839,2069,2241,2019,1800,1828,1943
1019442,69652,37408,70040,37272,547,127,-1059,146,-1010,-285,889,3106,42,49,887,1751,1839,2069,2241,2019,1800,1828,1943
1020443,69748,37488,70105,37337,460,59,-1079,113,-1036,227,1061,2943,45,53,887,1751,1839,2069,2241,2019,1800,1828,1943
1021444,69832,37572,70170,37402,587,-14,-1091,24,-1051,-116,902,2508,38,57,887,1750,1833,2056,2233,1974,1766,1804,1914
1022445,69916,37636,70235,37467,564,237,-1081,-28,-1079,-706,684,2760,43,46,887,1750,1833,2056,2233,1974,1766,1804,1914
1023446,69984,37720,70300,37532,760,-36,-1097,5,-1090,-900,693,3194,43,43,885,1750,1833,2056,2233,1974,1766,1804,1914
1024447,70076,37784,70365,37597,427,215,-1110,59,-1112,302,1140,3227,46,42,886,1750,1833,2056,2233,1974,1766,1804,1914
1025448,70164,37856,70430,37662,449,107,-1104,-9,-1119,270,929,2267,59,44,887,1750,1833,2056,2233,1974,1766,1804,1914
1026449,70264,37920,70495,37727,256,207,-1112,-72,-1122,-514,792,2871,55,46,887,1750,1833,2056,2233,1974,1766,1804,1914
1027450,70336,37988,70560,37792,598,153,-1124,-88,-1138,-524,910,3002,38,43,888,1760,1844,2056,2242,1985,1780,1827,1939
1028451,70420,38060,70625,37857,425,95,-1117,-107,-1155,-91,945,2705,36,52,887,1760,1844,2056,2242,1985,1780,1827,1939
1029452,70516,38168,70690,37922,237,-408,-1108,-156,-1168,-7,830,2686,40,48,887,1760,1844,2056,2242,1985,1780,1827,1939
