%  Data file recorded 2016/10/8  21:11:27
%  Stride Frequency         = [1, 1]
%  Lead In /Lead Out        = 
%  Deltas (Fractional)      = [0.25, 0.25, 0.25],[0.25, 0.25, 0.25]
%  Phase                    = 32768
%  Experiment.py 
%  Motor Gains    = [5000, 400, 200, 0, 300, 5000, 400, 200, 0, 300]
% Columns: 
% time | Right Leg Pos | Left Leg Pos | Commanded Right Leg Pos | Commanded Left Leg Pos | DCR | DCL | GyroX | GyroY | GyroZ | AX | AY | AZ | RBEMF | LBEMF | VBatt | S1 | S2 | S3 | S4 | S5 | S6 | S7 | S8
609,-31056,-13764,-38790,-6022,3800,3800,-14,-8,-3,-344,-65,3892,-1,-2,929,1828,1906,2088,2269,2044,1804,1876,2001
1610,-31056,-13760,-38790,-6022,3800,3800,-13,-7,-2,-339,-69,3906,5,-4,929,1828,1906,2088,2269,2044,1804,1876,2001
2611,-31060,-13748,-38790,-6022,3800,3800,-12,-5,1,-330,-60,3898,9,4,928,1828,1906,2088,2269,2044,1804,1876,2001
3612,-31060,-13760,-38790,-6022,3800,3800,-13,-3,1,-318,-66,3894,8,-8,928,1830,1908,2088,2272,2044,1804,1877,2003
4613,-31048,-13760,-38790,-6022,3800,3800,-14,-4,-3,-351,-82,3893,-4,5,928,1830,1908,2088,2272,2044,1804,1877,2003
5614,-31048,-13764,-38790,-6022,3800,3800,-12,-4,-1,-356,-74,3905,-10,-8,928,1830,1908,2088,2272,2044,1804,1877,2003
6615,-31068,-13756,-38790,-6022,3800,3800,-12,-2,0,-342,-78,3877,-9,-7,929,1830,1908,2088,2272,2044,1804,1877,2003
7616,-31048,-13764,-38790,-6022,3800,3800,-14,-2,-1,-348,-94,3897,-1,6,929,1830,1908,2088,2272,2044,1804,1877,2003
8617,-31052,-13748,-38790,-6022,3800,3800,-15,-4,0,-339,-96,3920,9,4,929,1830,1908,2088,2272,2044,1804,1877,2003
9618,-31052,-13756,-38790,-6022,3800,3800,-16,-4,1,-333,-104,3891,9,-3,929,1827,1906,2087,2270,2044,1805,1877,2004
10619,-31052,-13752,-38790,-6022,3800,3800,-14,-3,-1,-314,-72,3864,7,-6,929,1827,1906,2087,2270,2044,1805,1877,2004
11620,-31060,-13768,-38790,-6022,3800,3800,-13,-3,-2,-302,-73,3878,3,-6,929,1827,1906,2087,2270,2044,1805,1877,2004
12621,-31064,-13752,-38790,-6022,3800,3800,-14,-4,-1,-340,-82,3901,6,-7,929,1827,1906,2087,2270,2044,1805,1877,2004
13622,-31060,-13752,-38790,-6022,3800,3800,-16,-4,-4,-360,-60,3899,3,-8,928,1827,1906,2087,2270,2044,1805,1877,2004
14623,-31060,-13752,-38790,-6022,3800,3800,-16,-4,-1,-361,-70,3909,-5,-4,928,1828,1906,2088,2270,2045,1805,1877,2003
15624,-31056,-13756,-38790,-6022,3800,3800,-17,-3,2,-347,-66,3902,-7,3,928,1828,1906,2088,2270,2045,1805,1877,2003
16625,-31052,-13756,-38790,-6022,3800,3800,-17,-3,3,-352,-66,3918,-9,1,928,1828,1906,2088,2270,2045,1805,1877,2003
17626,-31052,-13756,-38790,-6022,3800,3800,-16,-5,1,-325,-66,3897,-1,-1,929,1828,1906,2088,2270,2045,1805,1877,2003
18627,-31060,-13756,-38790,-6022,3800,3800,-17,-6,0,-355,-78,3919,5,-8,927,1828,1906,2088,2270,2045,1805,1877,2003
19628,-31060,-13756,-38790,-6022,3800,3800,-18,-5,1,-323,-95,3885,9,-8,927,1828,1906,2088,2270,2045,1805,1877,2003
20629,-31056,-13744,-38790,-6022,3800,3800,-17,-7,2,-328,-91,3905,9,5,929,1827,1908,2090,2270,2046,1805,1878,2004
21630,-31052,-13748,-38790,-6022,3800,3800,-14,-5,0,-336,-84,3914,9,4,928,1827,1908,2090,2270,2046,1805,1878,2004
22631,-31056,-13756,-38790,-6022,3800,3800,-13,-1,0,-327,-86,3915,5,5,929,1827,1908,2090,2270,2046,1805,1878,2004
23632,-31064,-13768,-38790,-6022,3800,3800,-18,2,0,-325,-78,3897,-3,-4,928,1827,1908,2090,2270,2046,1805,1878,2004
24633,-31056,-13760,-38790,-6022,3800,3800,-18,1,-2,-299,-83,3903,0,-8,929,1827,1908,2090,2270,2046,1805,1878,2004
25634,-31060,-13768,-38790,-6022,3800,3800,-16,-1,-1,-317,-80,3880,-5,-7,929,1828,1906,2087,2269,2044,1805,1878,2003
26635,-31072,-13764,-38790,-6022,3800,3800,-16,-2,0,-321,-78,3885,-2,-3,928,1828,1906,2087,2269,2044,1805,1878,2003
27636,-31056,-13744,-38790,-6022,3800,3800,-21,0,0,-347,-88,3891,5,6,928,1828,1906,2087,2269,2044,1805,1878,2003
28637,-31056,-13764,-38790,-6022,3800,3800,-22,0,1,-341,-69,3884,9,6,928,1828,1906,2087,2269,2044,1805,1878,2003
29638,-31048,-13768,-38790,-6022,3800,3800,-18,1,-1,-313,-71,3928,9,-1,928,1828,1906,2087,2269,2044,1805,1878,2003
30639,-31056,-13752,-38790,-6022,3800,3800,-18,3,-1,-322,-79,3909,6,-8,928,1828,1906,2087,2269,2044,1805,1878,2003
31640,-31056,-13752,-38790,-6022,3800,3800,-19,2,3,-323,-72,3907,8,-5,928,1828,1907,2087,2268,2044,1804,1875,2002
32641,-31060,-13768,-38790,-6022,3800,3800,-17,0,3,-320,-50,3901,7,6,929,1828,1907,2087,2268,2044,1804,1875,2002
33642,-31052,-13748,-38790,-6022,3800,3800,-15,0,3,-327,-74,3892,3,4,928,1828,1907,2087,2268,2044,1804,1875,2002
34643,-31056,-13772,-38790,-6022,3800,3800,-16,1,2,-332,-89,3881,2,2,928,1828,1907,2087,2268,2044,1804,1875,2002
35644,-31056,-13760,-38790,-6022,3800,3800,-15,0,3,-345,-57,3892,5,-5,927,1828,1907,2087,2268,2044,1804,1875,2002
36645,-31060,-13756,-38790,-6022,3800,3800,-14,-1,1,-327,-81,3909,2,-8,927,1828,1906,2088,2269,2044,1804,1876,2002
37646,-31056,-13756,-38790,-6022,3800,3800,-17,0,1,-331,-67,3916,3,-4,928,1828,1906,2088,2269,2044,1804,1876,2002
38647,-31064,-13756,-38790,-6022,3800,3800,-18,1,1,-351,-75,3915,5,-1,928,1828,1906,2088,2269,2044,1804,1876,2002
39648,-31060,-13748,-38790,-6022,3800,3800,-17,2,1,-336,-80,3895,-1,5,928,1828,1906,2088,2269,2044,1804,1876,2002
40649,-31052,-13744,-38790,-6022,3800,3800,-16,1,1,-342,-73,3878,2,6,928,1828,1906,2088,2269,2044,1804,1876,2002
41650,-31052,-13760,-38790,-6022,3800,3800,-16,1,1,-330,-97,3888,1,-1,928,1828,1906,2088,2269,2044,1804,1876,2002
42651,-31052,-13752,-38790,-6022,3800,3800,-16,1,-2,-303,-71,3908,-4,-7,928,1827,1905,2085,2268,2043,1803,1873,2002
43652,-31056,-13764,-38790,-6022,3800,3800,-17,0,-1,-315,-87,3909,-6,-7,928,1827,1905,2085,2268,2043,1803,1873,2002
44653,-31056,-13752,-38790,-6022,3800,3800,-18,1,0,-321,-78,3855,-6,-7,928,1827,1905,2085,2268,2043,1803,1873,2002
45654,-31072,-13760,-38790,-6022,3800,3800,-17,-2,0,-334,-62,3863,-8,-5,928,1827,1905,2085,2268,2043,1803,1873,2002
46655,-31052,-13748,-38790,-6022,3800,3800,-16,-2,-1,-320,-36,3882,-7,-8,928,1827,1905,2085,2268,2043,1803,1873,2002
47656,-31060,-13760,-38790,-6022,3800,3800,-16,-5,0,-319,-63,3905,4,-8,928,1827,1906,2087,2268,2043,1803,1875,2002
48657,-31064,-13756,-38790,-6022,3800,3800,-15,-4,0,-318,-92,3922,7,-8,928,1827,1906,2087,2268,2043,1803,1875,2002
49658,-31056,-13764,-38790,-6022,3800,3800,-18,-6,0,-308,-73,3899,5,-8,928,1827,1906,2087,2268,2043,1803,1875,2002
50659,-31052,-13748,-38790,-6022,3800,3800,-21,-8,0,-346,-79,3892,6,7,928,1827,1906,2087,2268,2043,1803,1875,2002
51660,-31056,-13764,-38790,-6022,3800,3800,-21,-9,2,-337,-84,3912,3,-7,928,1827,1906,2087,2268,2043,1803,1875,2002
52661,-31052,-13764,-38790,-6022,3800,3800,-16,-6,0,-324,-79,3899,5,0,927,1827,1906,2087,2268,2043,1803,1875,2002
53662,-31060,-13764,-38790,-6022,3800,3800,-15,-8,-1,-321,-86,3890,3,-6,927,1828,1906,2088,2269,2045,1804,1877,2004
54663,-31060,-13764,-38790,-6022,3800,3800,-19,-9,0,-319,-93,3893,-9,6,928,1828,1906,2088,2269,2045,1804,1877,2004
55664,-31052,-13756,-38790,-6022,3800,3800,-19,-9,4,-317,-75,3864,-10,6,928,1828,1906,2088,2269,2045,1804,1877,2004
56665,-31056,-13764,-38790,-6022,3800,3800,-16,-9,2,-323,-56,3894,-8,2,928,1828,1906,2088,2269,2045,1804,1877,2004
57666,-31068,-13752,-38790,-6022,3800,3800,-13,-9,-1,-332,-74,3887,-8,-8,929,1828,1906,2088,2269,2045,1804,1877,2004
58667,-31060,-13760,-38790,-6022,3800,3800,-14,-9,2,-320,-79,3878,-2,4,928,1828,1906,2088,2269,2043,1804,1878,2006
59668,-31052,-13760,-38790,-6022,3800,3800,-14,-9,0,-345,-61,3901,2,2,928,1828,1906,2088,2269,2043,1804,1878,2006
60669,-31060,-13756,-38790,-6022,3800,3800,-15,-7,3,-357,-89,3910,1,-3,928,1828,1906,2088,2269,2043,1804,1878,2006
61670,-31064,-13760,-38790,-6022,3800,3800,-17,-5,0,-318,-74,3890,5,-5,928,1828,1906,2088,2269,2043,1804,1878,2006
62671,-31052,-13760,-38790,-6022,3800,3800,-16,-7,-1,-312,-63,3891,7,5,928,1828,1906,2088,2269,2043,1804,1878,2006
63672,-31060,-13764,-38790,-6022,3800,3800,-15,-11,-1,-311,-69,3874,6,2,928,1828,1906,2088,2269,2043,1804,1878,2006
64673,-31056,-13764,-38790,-6022,3800,3800,-14,-10,1,-312,-71,3893,7,1,928,1828,1907,2088,2269,2044,1805,1877,2004
65674,-31056,-13756,-38790,-6022,3800,3800,-15,-9,2,-343,-87,3908,8,3,927,1828,1907,2088,2269,2044,1805,1877,2004
66675,-31064,-13764,-38790,-6022,3800,3800,-16,-8,2,-339,-84,3890,-3,-7,927,1828,1907,2088,2269,2044,1805,1877,2004
67676,-31072,-13744,-38790,-6022,3800,3800,-13,-7,1,-334,-84,3893,0,-2,928,1828,1907,2088,2269,2044,1805,1877,2004
68677,-31060,-13748,-38790,-6022,3800,3800,-14,-6,1,-341,-85,3927,2,2,928,1828,1907,2088,2269,2044,1805,1877,2004
69678,-31056,-13764,-38790,-6022,3800,3800,-17,-5,2,-309,-62,3906,-2,-4,927,1828,1907,2089,2271,2046,1806,1877,2005
70679,-31068,-13748,-38790,-6022,3800,3800,-17,-6,4,-326,-52,3923,1,3,926,1828,1907,2089,2271,2046,1806,1877,2005
71680,-31052,-13752,-38790,-6022,3800,3800,-15,-4,1,-326,-62,3931,-3,6,928,1828,1907,2089,2271,2046,1806,1877,2005
72681,-31056,-13748,-38790,-6022,3800,3800,-13,-4,2,-339,-91,3917,-9,5,928,1828,1907,2089,2271,2046,1806,1877,2005
73682,-31056,-13748,-38790,-6022,3800,3800,-17,-5,0,-333,-71,3909,-8,-8,927,1828,1907,2089,2271,2046,1806,1877,2005
74683,-31056,-13748,-38790,-6022,3800,3800,-18,-4,0,-323,-68,3904,-8,-1,927,1828,1907,2089,2271,2046,1806,1877,2005
75684,-31052,-13756,-38790,-6022,3800,3800,-18,0,0,-290,-78,3940,-1,5,927,1825,1903,2087,2271,2046,1806,1877,2004
76685,-31052,-13756,-38790,-6022,3800,3800,-18,1,1,-317,-91,3895,-1,5,928,1825,1903,2087,2271,2046,1806,1877,2004
77686,-31064,-13760,-38790,-6022,3800,3800,-16,3,2,-330,-71,3883,-2,-5,927,1825,1903,2087,2271,2046,1806,1877,2004
78687,-31060,-13752,-38790,-6022,3800,3800,-16,2,0,-327,-53,3865,0,-3,927,1825,1903,2087,2271,2046,1806,1877,2004
79688,-31060,-13752,-38790,-6022,3800,3800,-14,4,-2,-339,-57,3888,0,0,928,1825,1903,2087,2271,2046,1806,1877,2004
80689,-31048,-13748,-38790,-6022,3800,3800,-12,2,-3,-351,-64,3927,3,-5,928,1828,1907,2087,2270,2044,1804,1877,2005
81690,-31060,-13748,-38790,-6022,3800,3800,-14,2,-1,-360,-73,3897,9,6,928,1828,1907,2087,2270,2044,1804,1877,2005
82691,-31056,-13764,-38790,-6022,3800,3800,-16,2,2,-354,-85,3881,9,2,928,1828,1907,2087,2270,2044,1804,1877,2005
83692,-31064,-13748,-38790,-6022,3800,3800,-18,1,1,-349,-66,3877,9,-8,929,1828,1907,2087,2270,2044,1804,1877,2005
84693,-31052,-13744,-38790,-6022,3800,3800,-17,2,0,-322,-81,3888,9,-6,928,1828,1907,2087,2270,2044,1804,1877,2005
85694,-31044,-13756,-38790,-6022,3800,3800,-15,6,0,-326,-116,3878,8,6,928,1828,1907,2087,2270,2044,1804,1877,2005
86695,-31052,-13760,-38790,-6022,3800,3800,-16,5,-2,-334,-96,3890,8,-7,928,1827,1907,2089,2270,2044,1805,1877,2003
87696,-31064,-13748,-38790,-6022,3800,3800,-18,4,-1,-342,-74,3896,5,7,927,1827,1907,2089,2270,2044,1805,1877,2003
88697,-31056,-13748,-38790,-6022,3800,3800,-18,2,-3,-356,-94,3902,0,0,928,1827,1907,2089,2270,2044,1805,1877,2003
89698,-31060,-13768,-38790,-6022,3800,3800,-20,2,1,-317,-93,3907,-3,-4,928,1827,1907,2089,2270,2044,1805,1877,2003
90699,-31060,-13756,-38790,-6022,3800,3800,-18,2,3,-314,-86,3907,-4,-5,928,1827,1907,2089,2270,2044,1805,1877,2003
91700,-31064,-13760,-38790,-6022,3800,3800,-17,1,2,-318,-82,3912,6,-7,928,1828,1908,2088,2268,2044,1803,1877,2003
92701,-31044,-13760,-38790,-6022,3800,3800,-16,-1,-1,-322,-70,3894,9,7,928,1828,1908,2088,2268,2044,1803,1877,2003
93702,-31060,-13756,-38790,-6022,3800,3800,-17,0,-1,-327,-69,3910,9,-8,928,1828,1908,2088,2268,2044,1803,1877,2003
94703,-31056,-13760,-38790,-6022,3800,3800,-17,2,-2,-314,-76,3897,3,6,928,1828,1908,2088,2268,2044,1803,1877,2003
95704,-31064,-13764,-38790,-6022,3800,3800,-16,1,-3,-314,-70,3900,-6,-8,928,1828,1908,2088,2268,2044,1803,1877,2003
96705,-31060,-13756,-38790,-6022,3800,3800,-16,-1,-2,-291,-73,3890,-9,6,928,1828,1908,2088,2268,2044,1803,1877,2003
97706,-31056,-13760,-38790,-6022,3800,3800,-13,-2,0,-310,-92,3902,-8,-3,928,1828,1906,2087,2269,2043,1801,1875,2004
98707,-31068,-13760,-38790,-6022,3800,3800,-12,-2,-2,-352,-79,3900,-6,-1,928,1828,1906,2087,2269,2043,1801,1875,2004
99708,-31052,-13764,-38790,-6022,3800,3800,-12,-4,-4,-343,-73,3892,-9,1,928,1828,1906,2087,2269,2043,1801,1875,2004
100709,-31056,-13764,-38790,-6022,3800,3800,-14,-4,-4,-323,-89,3861,-9,1,928,1828,1906,2087,2269,2043,1801,1875,2004
101710,-31052,-13756,-38790,-6022,3800,3800,-14,-7,-4,-338,-94,3884,-5,2,929,1828,1906,2087,2269,2043,1801,1875,2004
102711,-31056,-13768,-38790,-6022,3800,3800,-16,-8,-1,-318,-81,3865,-10,-7,928,1826,1905,2087,2269,2044,1804,1877,2004
103712,-31048,-13748,-38790,-6022,3800,3800,-16,-7,0,-326,-95,3872,-9,6,929,1826,1905,2087,2269,2044,1804,1877,2004
104713,-31056,-13760,-38790,-6022,3800,3800,-17,-6,1,-335,-85,3872,-8,-8,927,1826,1905,2087,2269,2044,1804,1877,2004
105714,-31056,-13764,-38790,-6022,3800,3800,-15,-4,1,-351,-79,3866,0,5,928,1826,1905,2087,2269,2044,1804,1877,2004
106715,-31064,-13760,-38790,-6022,3800,3800,-14,-4,1,-345,-79,3878,-1,5,928,1826,1905,2087,2269,2044,1804,1877,2004
107716,-31056,-13752,-38790,-6022,3800,3800,-14,-6,0,-334,-90,3836,-1,-2,928,1826,1905,2087,2269,2044,1804,1877,2004
108717,-31056,-13756,-38790,-6022,3800,3800,-16,-5,-2,-340,-94,3903,-1,0,929,1826,1906,2085,2268,2043,1804,1876,2004
109718,-31056,-13756,-38790,-6022,3800,3800,-16,-3,-1,-341,-94,3927,-9,4,928,1826,1906,2085,2268,2043,1804,1876,2004
110719,-31040,-13756,-38790,-6022,3800,3800,-14,-5,1,-336,-92,3910,-9,-3,929,1826,1906,2085,2268,2043,1804,1876,2004
111720,-31056,-13764,-38790,-6022,3800,3800,-14,-6,1,-348,-95,3923,-5,2,928,1826,1906,2085,2268,2043,1804,1876,2004
112721,-31056,-13768,-38790,-6022,3800,3800,-16,-5,1,-339,-115,3913,-4,6,928,1826,1906,2085,2268,2043,1804,1876,2004
113722,-31052,-13756,-38790,-6022,3800,3800,-18,-5,2,-334,-101,3906,-8,-7,929,1827,1906,2087,2269,2043,1804,1878,2006
114723,-31052,-13756,-38790,-6022,3800,3800,-17,-7,3,-359,-80,3894,-7,-2,928,1827,1906,2087,2269,2043,1804,1878,2006
115724,-31060,-13752,-38790,-6022,3800,3800,-15,-8,4,-360,-99,3926,-9,4,929,1827,1906,2087,2269,2043,1804,1878,2006
116725,-31052,-13756,-38790,-6022,3800,3800,-14,-6,5,-344,-85,3933,-9,-5,929,1827,1906,2087,2269,2043,1804,1878,2006
117726,-31072,-13756,-38790,-6022,3800,3800,-14,-5,3,-333,-70,3930,-9,5,929,1827,1906,2087,2269,2043,1804,1878,2006
118727,-31052,-13740,-38790,-6022,3800,3800,-16,-4,3,-334,-62,3911,-9,7,928,1827,1906,2087,2269,2043,1804,1878,2006
119728,-31060,-13768,-38790,-6022,3800,3800,-18,-2,2,-339,-53,3900,-9,4,929,1827,1906,2088,2270,2045,1805,1877,2005
120729,-31056,-13752,-38790,-6022,3800,3800,-20,-1,4,-325,-60,3894,-10,-2,929,1827,1906,2088,2270,2045,1805,1877,2005
121730,-31052,-13764,-38790,-6022,3800,3800,-21,-2,2,-335,-78,3896,-9,-1,927,1827,1906,2088,2270,2045,1805,1877,2005
122731,-31052,-13764,-38790,-6022,3800,3800,-17,-3,3,-347,-84,3894,-9,-7,929,1827,1906,2088,2270,2045,1805,1877,2005
123732,-31068,-13752,-38790,-6022,3800,3800,-16,-6,3,-335,-82,3930,5,4,929,1827,1906,2088,2270,2045,1805,1877,2005
124733,-31056,-13756,-38790,-6022,3800,3800,-18,-3,4,-322,-82,3934,8,-5,929,1828,1906,2088,2272,2044,1804,1877,2005
125734,-31056,-13760,-38790,-6022,3800,3800,-16,0,1,-336,-72,3900,9,-5,929,1828,1906,2088,2272,2044,1804,1877,2005
126735,-31064,-13756,-38790,-6022,3800,3800,-15,0,2,-346,-71,3904,8,2,929,1828,1906,2088,2272,2044,1804,1877,2005
127736,-31048,-13764,-38790,-6022,3800,3800,-15,-1,3,-317,-79,3898,9,3,929,1828,1906,2088,2272,2044,1804,1877,2005
128737,-31048,-13768,-38790,-6022,3800,3800,-16,-2,3,-317,-92,3918,9,-1,929,1828,1906,2088,2272,2044,1804,1877,2005
129738,-31048,-13752,-38790,-6022,3800,3800,-17,0,1,-323,-84,3916,8,-8,929,1828,1906,2088,2272,2044,1804,1877,2005
130739,-31060,-13752,-38790,-6022,3800,3800,-20,0,3,-312,-70,3890,9,-7,929,1828,1907,2088,2270,2044,1805,1877,2004
131740,-31052,-13760,-38790,-6022,3800,3800,-20,0,3,-298,-90,3870,5,5,929,1828,1907,2088,2270,2044,1805,1877,2004
132741,-31060,-13764,-38790,-6022,3800,3800,-20,-2,3,-298,-62,3891,7,-7,929,1828,1907,2088,2270,2044,1805,1877,2004
133742,-31040,-13760,-38790,-6022,3800,3800,-19,-2,2,-327,-69,3907,8,-6,929,1828,1907,2088,2270,2044,1805,1877,2004
134745,-31056,-13772,-38790,-6022,3800,3800,-18,0,3,-334,-100,3886,8,-7,929,1828,1907,2088,2270,2044,1805,1877,2004
135744,-31056,-13752,-38790,-6022,3800,3800,-17,0,3,-332,-82,3880,3,5,929,1827,1907,2088,2270,2045,1806,1877,2004
136745,-31060,-13752,-38790,-6022,3800,3800,-17,0,1,-321,-60,3892,8,1,929,1827,1907,2088,2270,2045,1806,1877,2004
137746,-31064,-13760,-38790,-6022,3800,3800,-14,-3,-1,-323,-87,3891,9,-1,928,1827,1907,2088,2270,2045,1806,1877,2004
138747,-31068,-13760,-38790,-6022,3800,3800,-16,-2,0,-343,-85,3870,5,-8,928,1827,1907,2088,2270,2045,1806,1877,2004
139748,-31056,-13760,-38790,-6022,3800,3800,-17,0,1,-361,-89,3888,0,6,929,1827,1907,2088,2270,2045,1806,1877,2004
140749,-31052,-13764,-38790,-6022,3800,3800,-17,1,-1,-340,-67,3870,6,-7,929,1827,1907,2088,2270,2045,1806,1877,2004
141750,-31056,-13756,-38790,-6022,3800,3800,-17,1,2,-339,-74,3885,3,4,929,1827,1907,2085,2267,2042,1803,1877,2006
142751,-31060,-13748,-38790,-6022,3800,3800,-15,-1,-2,-329,-80,3936,6,-3,929,1827,1907,2085,2267,2042,1803,1877,2006
143752,-31060,-13764,-38790,-6022,3800,3800,-14,-1,1,-331,-85,3913,9,-2,929,1827,1907,2085,2267,2042,1803,1877,2006
144753,-31048,-13752,-38790,-6022,3800,3800,-14,0,-1,-332,-76,3890,7,3,929,1827,1907,2085,2267,2042,1803,1877,2006
145754,-31052,-13756,-38790,-6022,3800,3800,-14,1,1,-324,-71,3882,9,5,929,1827,1907,2085,2267,2042,1803,1877,2006
146755,-31048,-13768,-38790,-6022,3800,3800,-14,0,1,-309,-75,3874,7,3,929,1828,1906,2088,2269,2043,1803,1875,2003
147756,-31052,-13764,-38790,-6022,3800,3800,-13,0,-2,-316,-84,3883,9,-6,929,1828,1906,2088,2269,2043,1803,1875,2003
148757,-31064,-13752,-38790,-6022,3800,3800,-14,-2,-3,-332,-83,3906,9,2,928,1828,1906,2088,2269,2043,1803,1875,2003
149758,-31060,-13752,-38790,-6022,3800,3800,-15,-4,-2,-318,-74,3919,9,6,929,1828,1906,2088,2269,2043,1803,1875,2003
150759,-31052,-13748,-38790,-6022,3800,3800,-12,-1,-2,-320,-66,3909,4,3,929,1828,1906,2088,2269,2043,1803,1875,2003
151760,-31044,-13760,-38790,-6022,3800,3800,-11,0,-2,-319,-73,3886,2,2,929,1828,1906,2088,2269,2043,1803,1875,2003
152761,-31056,-13752,-38790,-6022,3800,3800,-13,-2,1,-337,-90,3869,-1,-5,929,1828,1906,2088,2269,2044,1804,1877,2004
153762,-31056,-13752,-38790,-6022,3800,3800,-14,-4,0,-317,-117,3883,-4,-7,929,1828,1906,2088,2269,2044,1804,1877,2004
154763,-31072,-13756,-38790,-6022,3800,3800,-14,-4,-2,-338,-76,3906,-2,6,929,1828,1906,2088,2269,2044,1804,1877,2004
155764,-31048,-13748,-38790,-6022,3800,3800,-15,-4,0,-313,-87,3916,1,1,927,1828,1906,2088,2269,2044,1804,1877,2004
156765,-31048,-13768,-38790,-6022,3800,3800,-16,-3,0,-328,-89,3932,-5,4,929,1828,1906,2088,2269,2044,1804,1877,2004
157766,-31068,-13764,-38790,-6022,3800,3800,-13,-3,1,-323,-96,3882,0,5,929,1827,1906,2086,2268,2043,1803,1877,2003
158767,-31064,-13768,-38790,-6022,3800,3800,-12,-3,-1,-305,-86,3900,7,6,929,1827,1906,2086,2268,2043,1803,1877,2003
159768,-31060,-13764,-38790,-6022,3800,3800,-12,-4,-3,-301,-99,3875,8,-2,929,1827,1906,2086,2268,2043,1803,1877,2003
160769,-31048,-13764,-38790,-6022,3800,3800,-15,-4,-3,-307,-66,3881,9,-4,929,1827,1906,2086,2268,2043,1803,1877,2003
161770,-31044,-13756,-38790,-6022,3800,3800,-15,-3,-1,-319,-71,3932,2,-8,929,1827,1906,2086,2268,2043,1803,1877,2003
162771,-31052,-13756,-38790,-6022,3800,3800,-15,-7,-4,-341,-82,3934,4,-4,929,1827,1906,2086,2268,2043,1803,1877,2003
163772,-31060,-13748,-38790,-6022,3800,3800,-14,-7,-3,-346,-75,3891,0,6,929,1827,1906,2088,2270,2044,1804,1876,2005
164773,-31060,-13764,-38790,-6022,3800,3800,-12,-9,0,-327,-91,3872,-6,-2,929,1827,1906,2088,2270,2044,1804,1876,2005
165774,-31060,-13756,-38790,-6022,3800,3800,-13,-7,1,-311,-95,3892,-4,7,929,1827,1906,2088,2270,2044,1804,1876,2005
166775,-31044,-13764,-38790,-6022,3800,3800,-14,-6,-2,-320,-70,3915,-6,-5,928,1827,1906,2088,2270,2044,1804,1876,2005
167776,-31060,-13748,-38790,-6022,3800,3800,-15,-4,-2,-306,-75,3871,-7,-3,929,1827,1906,2088,2270,2044,1804,1876,2005
168777,-31052,-13764,-38790,-6022,3800,3800,-18,-6,-3,-323,-71,3918,-5,4,929,1828,1908,2088,2269,2046,1806,1879,2006
169778,-31060,-13760,-38790,-6022,3800,3800,-20,-8,-1,-354,-72,3906,-4,-3,929,1828,1908,2088,2269,2046,1806,1879,2006
170779,-31060,-13752,-38790,-6022,3800,3800,-16,-7,-2,-349,-71,3930,-2,7,929,1828,1908,2088,2269,2046,1806,1879,2006
171780,-31052,-13756,-38790,-6022,3800,3800,-14,-7,-2,-354,-69,3902,4,-7,929,1828,1908,2088,2269,2046,1806,1879,2006
172781,-31060,-13764,-38790,-6022,3800,3800,-13,-7,0,-329,-66,3905,6,-3,927,1828,1908,2088,2269,2046,1806,1879,2006
173782,-31048,-13764,-38790,-6022,3800,3800,-17,-4,0,-334,-76,3912,8,6,929,1828,1908,2088,2269,2046,1806,1879,2006
174783,-31060,-13748,-38790,-6022,3800,3800,-19,-3,2,-315,-80,3902,-5,-2,929,1827,1907,2087,2269,2045,1805,1877,2007
175784,-31060,-13760,-38790,-6022,3800,3800,-19,-5,1,-323,-98,3916,-3,-6,929,1827,1907,2087,2269,2045,1805,1877,2007
176785,-31052,-13756,-38790,-6022,3800,3800,-16,-2,1,-326,-102,3926,-2,0,929,1827,1907,2087,2269,2045,1805,1877,2007
177786,-31060,-13748,-38790,-6022,3800,3800,-15,-3,4,-319,-86,3933,-9,1,929,1827,1907,2087,2269,2045,1805,1877,2007
178787,-31060,-13764,-38790,-6022,3800,3800,-16,-4,3,-324,-90,3929,-9,-5,929,1827,1907,2087,2269,2045,1805,1877,2007
179788,-31056,-13752,-38790,-6022,3800,3800,-18,-4,1,-325,-82,3907,-9,4,929,1827,1907,2088,2270,2045,1804,1876,2004
180789,-31068,-13760,-38790,-6022,3800,3800,-19,-2,-1,-338,-98,3860,-7,2,928,1827,1907,2088,2270,2045,1804,1876,2004
181790,-31044,-13760,-38790,-6022,3800,3800,-16,2,1,-329,-104,3915,-9,2,929,1827,1907,2088,2270,2045,1804,1876,2004
182791,-31064,-13744,-38790,-6022,3800,3800,-15,0,4,-314,-93,3910,-10,-1,929,1827,1907,2088,2270,2045,1804,1876,2004
183792,-31056,-13764,-38790,-6022,3800,3800,-17,-3,5,-338,-85,3901,-7,-5,929,1827,1907,2088,2270,2045,1804,1876,2004
184797,-31060,-13756,-38790,-6022,3800,3800,-17,-5,3,-344,-64,3900,-9,2,929,1827,1907,2088,2270,2045,1804,1876,2004
185794,-31048,-13756,-38790,-6022,3800,3800,-18,-1,0,-328,-99,3890,-9,-6,929,1828,1908,2088,2270,2045,1805,1877,2005
186795,-31060,-13764,-38790,-6022,3800,3800,-18,2,-1,-325,-110,3884,-9,-6,929,1828,1908,2088,2270,2045,1805,1877,2005
187796,-31040,-13748,-38790,-6022,3800,3800,-19,2,0,-323,-83,3914,-10,6,929,1828,1908,2088,2270,2045,1805,1877,2005
188797,-31064,-13772,-38790,-6022,3800,3800,-19,0,-1,-320,-61,3911,-10,-7,929,1828,1908,2088,2270,2045,1805,1877,2005
189798,-31048,-13752,-38790,-6022,3800,3800,-18,-2,1,-344,-48,3941,-9,1,927,1828,1908,2088,2270,2045,1805,1877,2005
190799,-31048,-13764,-38790,-6022,3800,3800,-17,0,3,-334,-83,3925,-4,4,929,1827,1906,2087,2270,2044,1804,1876,2005
191800,-31060,-13772,-38790,-6022,3800,3800,-16,1,2,-330,-89,3898,-9,4,929,1827,1906,2087,2270,2044,1804,1876,2005
192801,-31052,-13756,-38790,-6022,3800,3800,-17,-1,0,-341,-80,3907,-6,6,929,1827,1906,2087,2270,2044,1804,1876,2005
193802,-31048,-13752,-38790,-6022,3800,3800,-17,-3,2,-339,-83,3917,-9,-7,929,1827,1906,2087,2270,2044,1804,1876,2005
194803,-31056,-13760,-38790,-6022,3800,3800,-17,-1,1,-332,-73,3920,-10,6,929,1827,1906,2087,2270,2044,1804,1876,2005
195804,-31068,-13748,-38790,-6022,3800,3800,-19,0,0,-305,-82,3883,-9,-7,929,1827,1906,2087,2270,2044,1804,1876,2005
196805,-31060,-13760,-38790,-6022,3800,3800,-17,-1,1,-303,-87,3869,-9,-8,929,1827,1907,2089,2270,2045,1804,1877,2005
197806,-31056,-13748,-38790,-6022,3800,3800,-17,2,0,-324,-85,3908,-9,5,929,1827,1907,2089,2270,2045,1804,1877,2005
198807,-31056,-13756,-38790,-6022,3800,3800,-17,2,-2,-310,-76,3899,-9,-2,929,1827,1907,2089,2270,2045,1804,1877,2005
199808,-31052,-13756,-38790,-6022,3800,3800,-17,-2,0,-317,-77,3928,-9,-7,929,1827,1907,2089,2270,2045,1804,1877,2005
200809,-31060,-13752,-38725,-5957,-3800,3800,-15,-2,3,-330,-93,3916,-9,1,929,1827,1907,2089,2270,2045,1804,1877,2005
201810,-31060,-13752,-38660,-5892,-3800,3800,-14,-5,2,-334,-95,3885,-10,4,874,1827,1903,2086,2270,2046,1806,1878,2008
202811,-31056,-13680,-38595,-5827,-3800,3800,-13,-19,0,-369,-71,3856,4,301,879,1827,1903,2086,2270,2046,1806,1878,2008
203812,-31060,-13576,-38530,-5762,-3800,3800,-14,-27,10,-479,-14,4041,21,311,882,1827,1903,2086,2270,2046,1806,1878,2008
204813,-31064,-13388,-38465,-5697,-3800,3800,-7,-85,11,-729,38,4191,18,310,879,1827,1903,2086,2270,2046,1806,1878,2008
205814,-31060,-13180,-38400,-5632,-3800,3800,-6,-154,5,-911,35,4416,22,300,888,1827,1903,2086,2270,2046,1806,1878,2008
206815,-31056,-12924,-38335,-5567,-3800,3800,29,-203,4,-360,42,4273,19,321,890,1825,1905,2086,2268,2045,1799,1879,2013
207816,-31052,-12644,-38270,-5502,-3800,3800,25,-268,-21,-820,-32,4702,14,304,894,1825,1905,2086,2268,2045,1799,1879,2013
208817,-31056,-12344,-38205,-5437,-3800,3800,34,-263,-57,-351,-171,4455,21,309,889,1825,1905,2086,2268,2045,1799,1879,2013
209818,-31048,-12012,-38140,-5372,-3800,3800,27,-237,-81,-615,-258,4466,5,306,898,1825,1905,2086,2268,2045,1799,1879,2013
210819,-31048,-11608,-38075,-5307,-3800,3094,33,-240,-141,-110,-107,4219,23,317,899,1825,1905,2086,2268,2045,1799,1879,2013
211820,-31044,-11220,-38010,-5242,-3800,2902,32,-246,-196,-1018,-530,4452,23,321,909,1825,1905,2086,2268,2045,1799,1879,2013
212821,-31056,-10812,-37945,-5177,-3800,2236,59,-208,-236,-1040,-472,4001,15,179,906,1851,1939,2116,2300,2065,1820,1906,2048
213822,-31040,-10376,-37880,-5112,-3800,1435,54,-268,-218,55,32,4639,14,210,917,1851,1939,2116,2300,2065,1820,1906,2048
214823,-31040,-9928,-37815,-5047,-3800,820,-27,-385,-256,-1474,-347,5315,18,216,922,1851,1939,2116,2300,2065,1820,1906,2048
215824,-31052,-9468,-37750,-4982,-3800,190,-5,-495,-267,-1423,-418,2921,24,227,925,1851,1939,2116,2300,2065,1820,1906,2048
216825,-31036,-9048,-37685,-4917,-3800,257,-21,-697,-294,-708,-617,5239,17,222,926,1851,1939,2116,2300,2065,1820,1906,2048
217826,-31044,-8608,-37620,-4852,-3800,-449,7,-787,-328,-2118,-915,5044,23,212,928,1880,1969,2143,2327,2054,1844,1940,2088
218827,-31048,-8252,-37555,-4787,-3800,247,80,-865,-315,-1411,-912,4912,15,205,925,1880,1969,2143,2327,2054,1844,1940,2088
219828,-31036,-7908,-37490,-4722,-3800,59,136,-873,-346,-1168,-736,5466,21,188,927,1880,1969,2143,2327,2054,1844,1940,2088
220829,-31040,-7560,-37425,-4657,-3800,-336,203,-899,-348,-1377,-931,5591,23,193,927,1880,1969,2143,2327,2054,1844,1940,2088
221830,-31032,-7208,-37360,-4592,-3800,-735,247,-962,-359,-818,-558,5505,10,167,926,1880,1969,2143,2327,2054,1844,1940,2088
222831,-31048,-6892,-37295,-4527,-3800,-591,322,-940,-296,-1485,-485,5626,3,167,921,1880,1969,2143,2327,2054,1844,1940,2088
223832,-31040,-6624,-37230,-4462,-3800,-237,398,-953,-261,-240,-15,4497,9,135,922,1894,1983,2155,2344,2086,1837,1952,2085
224833,-31028,-6376,-37165,-4397,-3800,-210,408,-1026,-265,-905,-114,5299,16,144,926,1894,1983,2155,2344,2086,1837,1952,2085
225834,-31040,-6168,-37100,-4332,-3800,116,417,-990,-280,-1433,-268,5287,3,126,927,1894,1983,2155,2344,2086,1837,1952,2085
226835,-31044,-5944,-37035,-4267,-3800,-277,425,-930,-283,-542,9,4166,5,106,928,1894,1983,2155,2344,2086,1837,1952,2085
227836,-31036,-5768,-36970,-4202,-3800,188,450,-927,-274,-605,143,4605,1,96,927,1894,1983,2155,2344,2086,1837,1952,2085
228837,-31040,-5624,-36905,-4137,-3800,492,448,-950,-269,-714,393,4092,-5,81,927,1978,2061,2207,2430,2034,1797,1902,2012
229838,-31048,-5508,-36840,-4072,-3800,780,446,-992,-288,-1310,173,3990,-3,58,926,1978,2061,2207,2430,2034,1797,1902,2012
230839,-31048,-5408,-36775,-4007,-3800,938,440,-970,-319,-1029,-11,3762,-4,46,924,1978,2061,2207,2430,2034,1797,1902,2012
231840,-31048,-5316,-36710,-3942,-3800,1006,451,-916,-336,-701,-88,3864,8,28,922,1978,2061,2207,2430,2034,1797,1902,2012
232841,-31048,-5256,-36645,-3877,-3800,1413,465,-814,-336,-835,-136,3802,2,31,920,1978,2061,2207,2430,2034,1797,1902,2012
233842,-31032,-5196,-36580,-3812,-3800,1419,513,-804,-344,-601,-151,3415,-6,37,917,1978,2061,2207,2430,2034,1797,1902,2012
234843,-31036,-5128,-36515,-3747,-3800,1316,552,-853,-338,-986,-90,3634,6,24,916,1970,2010,2176,2387,1971,1744,1811,1905
235844,-31028,-5080,-36450,-3682,-3800,1587,609,-977,-309,-1264,-87,3613,3,34,918,1970,2010,2176,2387,1971,1744,1811,1905
236845,-31040,-5028,-36385,-3617,-3800,1554,664,-1112,-270,-1452,-236,3649,12,26,914,1970,2010,2176,2387,1971,1744,1811,1905
237846,-31032,-4976,-36320,-3552,-3800,1570,752,-1156,-214,-1487,-152,4450,-6,25,895,1970,2010,2176,2387,1971,1744,1811,1905
238847,-31052,-4932,-36255,-3487,-3800,1696,839,-1170,-151,-1099,-241,3973,4,19,914,1970,2010,2176,2387,1971,1744,1811,1905
239848,-31040,-4880,-36190,-3422,-3800,1612,928,-1117,-84,-875,-158,4630,11,29,913,1822,1857,2055,2242,1913,1684,1750,1853
240849,-31048,-4824,-36125,-3357,-3800,1574,1002,-1064,-17,-665,65,3986,-5,21,912,1822,1857,2055,2242,1913,1684,1750,1853
241850,-31028,-4780,-36060,-3292,-3800,1750,1072,-967,50,-161,222,4125,0,21,906,1822,1857,2055,2242,1913,1684,1750,1853
242851,-31036,-4736,-35995,-3227,-3800,1777,1128,-895,116,222,468,3650,-3,34,912,1822,1857,2055,2242,1913,1684,1750,1853
243852,-31032,-4656,-35930,-3162,-3800,1309,1166,-831,172,208,665,3496,8,23,911,1822,1857,2055,2242,1913,1684,1750,1853
244853,-31032,-4588,-35865,-3097,-3800,1456,1190,-754,247,154,852,3427,8,31,917,1822,1857,2055,2242,1913,1684,1750,1853
245854,-31048,-4544,-35800,-3032,-3800,1782,1206,-683,316,251,979,3110,12,19,912,1790,1848,2028,2237,1922,1705,1792,1904
246855,-31036,-4492,-35735,-2967,-3800,1698,1213,-655,365,-22,1022,2926,11,32,911,1790,1848,2028,2237,1922,1705,1792,1904
247856,-31040,-4432,-35670,-2902,-3800,1605,1225,-653,409,-217,1096,2814,12,20,913,1790,1848,2028,2237,1922,1705,1792,1904
248857,-31040,-4368,-35605,-2837,-3800,1556,1230,-639,446,-194,1051,2803,8,33,914,1790,1848,2028,2237,1922,1705,1792,1904
249858,-31028,-4316,-35540,-2772,-3800,1723,1233,-624,465,-110,1001,2768,-1,27,912,1790,1848,2028,2237,1922,1705,1792,1904
250859,-31036,-4260,-35475,-2707,-3800,1685,1236,-620,480,-93,922,2698,-5,26,912,1859,1924,2099,2302,1998,1761,1852,1981
251860,-31040,-4208,-35410,-2642,-3800,1751,1255,-635,490,-77,797,2796,29,33,913,1859,1924,2099,2302,1998,1761,1852,1981
252861,-31036,-4168,-35345,-2577,-3800,1933,1277,-670,490,-107,558,2685,12,34,911,1859,1924,2099,2302,1998,1761,1852,1981
253862,-31032,-4104,-35280,-2512,-3800,1634,1308,-704,490,-264,414,3021,10,24,908,1859,1924,2099,2302,1998,1761,1852,1981
254863,-31040,-4048,-35215,-2447,-3800,1746,1340,-734,493,-167,275,3154,-3,23,912,1859,1924,2099,2302,1998,1761,1852,1981
255864,-31032,-3968,-35150,-2382,-3800,1429,1381,-762,502,-138,81,3443,7,39,913,1859,1924,2099,2302,1998,1761,1852,1981
256865,-31040,-3900,-35085,-2317,-3800,1575,1428,-815,518,-317,-2,3550,-3,25,916,1847,1920,2103,2262,2039,1781,1848,1998
257866,-31036,-3860,-35020,-2252,-3800,1956,1472,-884,533,-421,2,3745,-6,26,911,1847,1920,2103,2262,2039,1781,1848,1998
258867,-31036,-3800,-34955,-2187,-3800,1712,1499,-959,554,-187,-39,3756,2,22,909,1847,1920,2103,2262,2039,1781,1848,1998
259868,-31028,-3728,-34890,-2122,-3800,1555,1506,-1012,577,-244,92,3900,5,24,913,1847,1920,2103,2262,2039,1781,1848,1998
260869,-31028,-3664,-34825,-2057,-3800,1657,1488,-1048,613,-117,225,3952,12,30,914,1847,1920,2103,2262,2039,1781,1848,1998
261870,-31048,-3604,-34760,-1992,-3800,1713,1465,-1060,641,36,320,4013,13,27,913,1784,1875,2059,2204,2013,1761,1833,1987
262871,-31040,-3536,-34695,-1927,-3800,1611,1428,-1103,665,198,427,3981,6,33,912,1784,1875,2059,2204,2013,1761,1833,1987
263872,-31028,-3468,-34630,-1862,-3800,1607,1377,-1127,684,452,574,3999,15,27,914,1784,1875,2059,2204,2013,1761,1833,1987
264873,-31036,-3400,-34565,-1797,-3800,1604,1308,-1149,704,364,656,3874,14,32,914,1784,1875,2059,2204,2013,1761,1833,1987
265874,-31028,-3336,-34500,-1732,-3800,1657,1235,-1161,724,254,839,3987,14,27,914,1784,1875,2059,2204,2013,1761,1833,1987
266875,-31020,-3292,-34435,-1667,-3800,1932,1176,-1145,729,370,821,4046,4,22,913,1784,1875,2059,2204,2013,1761,1833,1987
267876,-31020,-3208,-34370,-1602,-3800,1410,1126,-1144,721,569,787,3893,10,35,909,1789,1884,2055,2208,2055,1810,1901,2062
268877,-31020,-3148,-34305,-1537,-3730,1716,1072,-1135,710,547,833,3815,-3,30,916,1789,1884,2055,2208,2055,1810,1901,2062
269878,-31020,-3112,-34240,-1472,-3651,2052,1029,-1151,694,296,725,3693,14,33,912,1789,1884,2055,2208,2055,1810,1901,2062
270879,-31012,-3052,-34175,-1407,-3683,1760,998,-1218,658,119,635,3676,-2,21,908,1789,1884,2055,2208,2055,1810,1901,2062
271880,-31012,-2984,-34110,-1342,-3504,1656,983,-1290,615,-178,591,3997,11,31,912,1789,1884,2055,2208,2055,1810,1901,2062
272881,-31020,-2908,-34045,-1277,-3316,1543,973,-1332,577,-57,514,3969,1,31,913,1785,1880,2073,2225,2191,1915,1975,2150
273882,-31012,-2840,-33980,-1212,-3449,1641,966,-1372,534,-155,336,4060,9,39,914,1785,1880,2073,2225,2191,1915,1975,2150
274883,-31000,-2784,-33915,-1147,-3435,1802,962,-1416,496,-518,322,4146,14,34,902,1785,1880,2073,2225,2191,1915,1975,2150
275884,-31004,-2720,-33850,-1082,-3152,1704,957,-1468,467,-437,219,3992,17,33,911,1785,1880,2073,2225,2191,1915,1975,2150
276885,-31000,-2640,-33785,-1017,-3178,1486,948,-1528,455,-254,345,4139,1,28,912,1785,1880,2073,2225,2191,1915,1975,2150
277886,-30996,-2580,-33720,-952,-3105,1743,921,-1539,444,-171,371,4338,10,42,915,1785,1880,2073,2225,2191,1915,1975,2150
278887,-30992,-2516,-33655,-887,-3031,1695,892,-1500,436,-116,378,4455,15,36,907,1761,1863,2065,2219,2208,1920,1956,2124
279888,-30988,-2428,-33590,-822,-2958,1367,855,-1464,441,-181,449,4552,15,26,912,1761,1863,2065,2219,2208,1920,1956,2124
280889,-30976,-2380,-33525,-757,-2994,1889,817,-1427,454,-257,546,4510,12,41,917,1761,1863,2065,2219,2208,1920,1956,2124
281890,-30988,-2324,-33460,-692,-2601,1800,774,-1390,469,13,401,4590,7,23,910,1761,1863,2065,2219,2208,1920,1956,2124
282891,-30976,-2240,-33395,-627,-2837,1427,736,-1375,493,100,437,4712,4,25,905,1761,1863,2065,2219,2208,1920,1956,2124
283892,-30972,-2184,-33330,-562,-2664,1789,669,-1357,509,-106,705,4550,5,28,916,1775,1879,2088,2242,2108,1846,1900,2031
284893,-30952,-2120,-33265,-497,-2810,1691,602,-1305,521,-41,707,4649,-2,30,911,1775,1879,2088,2242,2108,1846,1900,2031
285894,-30956,-2072,-33200,-432,-2427,1912,535,-1230,514,405,869,4588,16,26,913,1775,1879,2088,2242,2108,1846,1900,2031
286895,-30944,-2004,-33135,-367,-2563,1660,455,-1200,500,426,848,4365,16,30,908,1775,1879,2088,2242,2108,1846,1900,2031
287896,-30940,-1948,-33070,-302,-2389,1821,363,-1167,490,116,962,4472,1,23,913,1775,1879,2088,2242,2108,1846,1900,2031
288897,-30920,-1872,-33005,-237,-2535,1558,270,-1121,476,194,989,4331,17,36,911,1775,1879,2088,2242,2108,1846,1900,2031
289898,-30908,-1812,-32940,-172,-2371,1764,191,-1065,453,317,875,4316,18,36,914,1822,1907,2105,2279,2064,1829,1889,2027
290899,-30916,-1768,-32875,-107,-2033,1991,139,-1032,435,144,851,4301,8,20,910,1822,1907,2105,2279,2064,1829,1889,2027
291900,-30896,-1716,-32810,-42,-2329,1908,115,-993,417,13,749,4177,4,23,906,1822,1907,2105,2279,2064,1829,1889,2027
292901,-30896,-1656,-32745,23,-2000,1814,87,-988,377,31,604,4090,13,20,909,1822,1907,2105,2279,2064,1829,1889,2027
293902,-30876,-1600,-32680,88,-2196,1876,81,-987,353,-107,655,4222,20,32,910,1822,1907,2105,2279,2064,1829,1889,2027
294903,-30860,-1524,-32615,153,-2087,1614,95,-967,351,-104,637,4192,17,29,909,1804,1879,2095,2260,2142,1890,1951,2078
295904,-30848,-1464,-32550,218,-1972,1820,123,-943,346,4,506,4030,20,31,913,1804,1879,2095,2260,2142,1890,1951,2078
296905,-30856,-1408,-32485,283,-1634,1882,152,-931,350,-323,562,4217,2,22,911,1804,1879,2095,2260,2142,1890,1951,2078
297906,-30832,-1368,-32420,348,-1985,2113,165,-913,357,-185,638,3888,19,30,910,1804,1879,2095,2260,2142,1890,1951,2078
298907,-30824,-1320,-32355,413,-1715,2034,176,-880,367,-123,628,3939,14,28,907,1804,1879,2095,2260,2142,1890,1951,2078
299908,-30808,-1252,-32290,478,-1757,1781,182,-825,394,-95,769,3802,4,27,908,1804,1879,2095,2260,2142,1890,1951,2078
300909,-30804,-1208,-32225,543,-1532,2108,176,-775,433,-12,883,3804,4,21,911,1764,1853,2072,2210,2137,1872,1910,2054
301910,-30792,-1136,-32160,608,-1568,1749,150,-720,459,-14,1011,3841,21,30,907,1764,1853,2072,2210,2137,1872,1910,2054
302911,-30772,-1076,-32095,673,-1613,1907,123,-659,477,18,1080,3575,21,33,912,1764,1853,2072,2210,2137,1872,1910,2054
303912,-30760,-1004,-32030,738,-1450,1748,90,-612,493,177,1183,3745,19,23,910,1764,1853,2072,2210,2137,1872,1910,2054
304913,-30752,-940,-31965,803,-1330,1850,47,-574,506,110,1145,3702,6,38,912,1764,1853,2072,2210,2137,1872,1910,2054
305914,-30732,-880,-31900,868,-1426,1907,5,-554,514,88,1119,3658,21,29,911,1775,1876,2071,2231,2044,1791,1850,1978
306915,-30720,-808,-31835,933,-1262,1749,-35,-546,527,103,1155,3743,16,26,910,1775,1876,2071,2231,2044,1791,1850,1978
307916,-30712,-736,-31770,998,-1143,1741,-61,-546,525,213,1098,3658,21,30,912,1775,1876,2071,2231,2044,1791,1850,1978
308917,-30688,-664,-31705,1063,-1293,1734,-84,-552,518,251,1092,3806,13,36,911,1775,1876,2071,2231,2044,1791,1850,1978
309918,-30684,-616,-31640,1128,-969,2054,-88,-554,500,150,902,3746,19,42,911,1775,1876,2071,2231,2044,1791,1850,1978
310919,-30668,-544,-31575,1193,-1060,1747,-80,-572,485,237,901,3722,20,40,907,1775,1876,2071,2231,2044,1791,1850,1978
311920,-30656,-488,-31510,1258,-945,1959,-66,-599,469,236,877,3803,21,26,904,1800,1880,2070,2232,1994,1753,1820,1959
312921,-30644,-416,-31445,1323,-881,1750,-56,-618,469,270,797,3888,14,42,909,1800,1880,2070,2232,1994,1753,1820,1959
313922,-30632,-336,-31380,1388,-817,1633,-39,-643,464,308,762,3724,3,34,912,1800,1880,2070,2232,1994,1753,1820,1959
314923,-30620,-272,-31315,1453,-752,1835,-15,-650,468,181,774,3688,17,29,913,1800,1880,2070,2232,1994,1753,1820,1959
315924,-30612,-208,-31250,1518,-632,1836,21,-681,477,236,795,3396,14,38,906,1800,1880,2070,2232,1994,1753,1820,1959
316925,-30604,-140,-31185,1583,-564,1784,28,-726,503,99,624,3274,15,36,911,1812,1896,2090,2250,2016,1776,1847,1971
317926,-30584,-80,-31120,1648,-659,1891,48,-776,512,-47,1071,3349,20,38,912,1812,1896,2090,2250,2016,1776,1847,1971
318927,-30580,-4,-31055,1713,-384,1677,56,-816,528,-194,1004,3194,21,30,910,1812,1896,2090,2250,2016,1776,1847,1971
319928,-30552,36,-30990,1778,-639,2159,62,-840,551,219,998,3260,11,21,911,1812,1896,2090,2250,2016,1776,1847,1971
320929,-30544,112,-30925,1843,-320,1697,74,-858,574,283,1187,3013,19,33,906,1812,1896,2090,2250,2016,1776,1847,1971
321930,-30532,168,-30860,1908,-306,1958,77,-886,598,-133,1250,3072,22,33,913,1812,1896,2090,2250,2016,1776,1847,1971
322931,-30532,228,-30795,1973,-77,1915,81,-922,628,-113,1294,3199,20,37,909,1839,1935,2115,2277,2025,1786,1867,2005
323932,-30512,284,-30730,2038,-272,1977,81,-941,649,204,1266,3037,5,39,908,1839,1935,2115,2277,2025,1786,1867,2005
324933,-30496,380,-30665,2103,-162,1439,89,-956,667,109,1271,3374,10,29,909,1839,1935,2115,2277,2025,1786,1867,2005
325934,-30496,444,-30600,2168,118,1841,101,-968,688,-65,1268,3446,8,41,914,1839,1935,2115,2277,2025,1786,1867,2005
326935,-30480,528,-30535,2233,-23,1569,117,-983,699,106,1162,3341,15,32,910,1839,1935,2115,2277,2025,1786,1867,2005
327936,-30464,584,-30470,2298,37,1930,137,-1014,693,136,1100,3627,3,39,914,1832,1923,2094,2249,2018,1771,1844,1978
328937,-30460,648,-30405,2363,262,1832,164,-1046,688,91,1050,3586,15,43,910,1832,1923,2094,2249,2018,1771,1844,1978
329938,-30444,736,-30340,2428,171,1505,193,-1071,681,109,1054,3875,17,31,910,1832,1923,2094,2249,2018,1771,1844,1978
330939,-30424,816,-30275,2493,176,1587,227,-1096,672,-28,893,3726,5,34,914,1832,1923,2094,2249,2018,1771,1844,1978
331940,-30420,876,-30210,2558,451,1844,242,-1114,666,174,834,3894,7,45,914,1832,1923,2094,2249,2018,1771,1844,1978
332941,-30388,940,-30145,2623,141,1796,250,-1136,659,97,802,3859,19,33,909,1832,1923,2094,2249,2018,1771,1844,1978
333942,-30380,1032,-30080,2688,511,1413,251,-1145,665,-51,807,3787,10,47,910,1795,1875,2059,2219,1996,1758,1822,1956
334943,-30344,1104,-30015,2753,196,1655,243,-1145,672,89,820,3701,10,42,913,1795,1875,2059,2219,1996,1758,1822,1956
335944,-30332,1172,-29950,2818,561,1702,246,-1125,679,225,758,3751,15,44,912,1795,1875,2059,2219,1996,1758,1822,1956
336945,-30308,1252,-29885,2883,462,1534,231,-1110,685,281,699,3553,27,43,909,1795,1875,2059,2219,1996,1758,1822,1956
337946,-30256,1324,-29820,2948,128,1627,210,-1103,708,-175,815,3732,23,32,912,1795,1875,2059,2219,1996,1758,1822,1956
338947,-30236,1392,-29755,3013,583,1673,184,-1078,725,-170,774,3491,22,40,911,1806,1889,2086,2253,2017,1786,1850,1987
339948,-30184,1448,-29690,3078,199,1835,159,-1065,751,-30,772,3430,23,35,910,1806,1889,2086,2253,2017,1786,1850,1987
340949,-30128,1528,-29625,3143,160,1517,144,-1050,781,99,860,3523,36,38,910,1806,1889,2086,2253,2017,1786,1850,1987
341950,-30076,1588,-29560,3208,225,1774,125,-1037,811,-207,829,3346,26,40,914,1806,1889,2086,2253,2017,1786,1850,1987
342951,-30024,1664,-29495,3273,242,1562,116,-1013,834,-202,879,3541,42,34,908,1806,1889,2086,2253,2017,1786,1850,1987
343952,-29964,1760,-29430,3338,148,1274,108,-986,853,-29,834,3412,41,41,913,1806,1889,2086,2253,2017,1786,1850,1987
344953,-29920,1832,-29365,3403,374,1566,118,-969,868,-36,919,3679,28,34,918,1820,1903,2104,2273,2081,1842,1898,2036
345954,-29856,1896,-29300,3468,125,1668,114,-961,878,-259,839,3591,28,36,912,1820,1903,2104,2273,2081,1842,1898,2036
346955,-29800,1964,-29235,3533,236,1615,121,-939,873,-78,845,3741,41,35,913,1820,1903,2104,2273,2081,1842,1898,2036
347956,-29732,2040,-29170,3598,84,1502,131,-935,871,17,955,3751,37,36,913,1820,1903,2104,2273,2081,1842,1898,2036
348957,-29664,2100,-29105,3663,80,1708,138,-924,871,-51,774,3810,44,43,915,1820,1903,2104,2273,2081,1842,1898,2036
349958,-29588,2164,-29040,3728,-34,1661,152,-883,868,113,800,3935,31,49,913,1797,1879,2079,2246,2102,1848,1896,2032
350959,-29528,2248,-28975,3793,173,1388,147,-871,857,108,906,3640,36,36,914,1797,1879,2079,2246,2102,1848,1896,2032
351960,-29468,2304,-28910,3858,180,1749,138,-834,851,96,883,4065,33,41,916,1797,1879,2079,2246,2102,1848,1896,2032
352961,-29396,2396,-28845,3923,21,1268,121,-792,844,194,885,3710,47,53,911,1797,1879,2079,2246,2102,1848,1896,2032
353962,-29332,2480,-28780,3988,122,1344,92,-782,830,77,832,3979,41,53,917,1797,1879,2079,2246,2102,1848,1896,2032
354963,-29256,2592,-28715,4053,-41,938,69,-755,823,47,829,4006,36,50,916,1797,1879,2079,2246,2102,1848,1896,2032
355964,-29176,2680,-28650,4118,-109,1210,58,-730,831,244,891,3831,35,49,922,1787,1873,2069,2227,2056,1808,1862,1996
356965,-29108,2744,-28585,4183,38,1512,40,-713,839,284,726,3869,50,45,914,1787,1873,2069,2227,2056,1808,1862,1996
357966,-29044,2812,-28520,4248,89,1458,13,-727,848,39,478,3880,35,35,915,1787,1873,2069,2227,2056,1808,1862,1996
358967,-28940,2900,-28455,4313,-458,1181,-17,-730,856,-267,580,4026,49,34,915,1787,1873,2069,2227,2056,1808,1862,1996
359969,-28880,2960,-28390,4378,98,1538,-40,-729,867,-144,527,3727,36,44,917,1787,1873,2069,2227,2056,1808,1862,1996
360969,-28792,3032,-28325,4443,-280,1380,-42,-724,882,197,605,3998,35,47,915,1793,1885,2081,2239,2039,1801,1862,2000
361970,-28716,3104,-28260,4508,-144,1372,-62,-724,908,179,535,3774,56,46,916,1793,1885,2081,2239,2039,1801,1862,2000
362971,-28636,3184,-28195,4573,-211,1254,-58,-739,912,38,589,3553,48,38,917,1793,1885,2081,2239,2039,1801,1862,2000
363972,-28560,3248,-28130,4638,-175,1456,-82,-726,930,-50,584,3726,39,48,906,1793,1885,2081,2239,2039,1801,1862,2000
364973,-28496,3312,-28065,4703,-23,1457,-69,-678,952,278,298,3425,51,39,905,1793,1885,2081,2239,2039,1801,1862,2000
365974,-28404,3400,-28000,4768,-406,1130,-47,-695,949,956,503,2960,38,48,916,1793,1885,2081,2239,2039,1801,1862,2000
366975,-28324,3476,-27935,4833,-275,1267,-56,-736,968,33,692,3855,38,48,919,1813,1909,2103,2270,2054,1812,1883,2020
367976,-28248,3536,-27870,4898,-238,1474,-57,-708,982,194,611,2856,52,40,918,1813,1909,2103,2270,2054,1812,1883,2020
368977,-28160,3608,-27805,4963,-415,1316,-61,-707,965,544,801,3443,40,53,914,1813,1909,2103,2270,2054,1812,1883,2020
369978,-28064,3692,-27740,5028,-553,1143,-69,-741,943,189,842,3136,57,54,916,1813,1909,2103,2270,2054,1812,1883,2020
370979,-28000,3788,-27675,5093,-152,956,-81,-736,927,305,706,3250,44,44,919,1813,1909,2103,2270,2054,1812,1883,2020
371980,-27920,3876,-27610,5158,-370,1028,-105,-736,901,498,765,3380,49,50,921,1831,1920,2101,2254,2053,1807,1873,1997
372981,-27828,3960,-27545,5223,-553,1055,-107,-744,910,461,895,3393,55,43,921,1831,1920,2101,2254,2053,1807,1873,1997
373982,-27752,4060,-27480,5288,-366,814,-97,-756,905,411,714,3034,43,44,920,1831,1920,2101,2254,2053,1807,1873,1997
374983,-27656,4148,-27415,5353,-654,935,-101,-770,886,290,506,3606,46,42,922,1831,1920,2101,2254,2053,1807,1873,1997
375984,-27580,4224,-27350,5418,-418,1073,-98,-785,873,214,667,3672,50,55,921,1831,1920,2101,2254,2053,1807,1873,1997
376985,-27492,4312,-27285,5483,-596,895,-97,-793,867,427,460,3449,50,43,918,1831,1920,2101,2254,2053,1807,1873,1997
377986,-27416,4380,-27220,5548,-458,1142,-87,-811,869,470,448,3689,52,53,913,1798,1884,2061,2222,2018,1769,1841,1968
378987,-27324,4460,-27155,5613,-691,974,-69,-808,881,387,460,3563,57,44,919,1798,1884,2061,2222,2018,1769,1841,1968
379988,-27232,4536,-27090,5678,-724,1011,-63,-791,895,272,344,3721,41,43,921,1798,1884,2061,2222,2018,1769,1841,1968
380989,-27148,4628,-27025,5743,-647,779,-60,-764,917,514,228,3756,61,50,920,1798,1884,2061,2222,2018,1769,1841,1968
381990,-27048,4704,-26960,5808,-890,965,-52,-740,940,617,298,3484,47,41,919,1798,1884,2061,2222,2018,1769,1841,1968
382991,-26960,4788,-26895,5873,-768,843,-46,-711,960,395,236,3631,42,46,921,1770,1863,2033,2208,2001,1769,1834,1965
383992,-26872,4852,-26830,5938,-796,1094,-50,-697,971,371,260,3326,45,41,922,1770,1863,2033,2208,2001,1769,1834,1965
384993,-26764,4932,-26765,6003,-1099,877,-58,-683,987,556,186,3332,49,43,920,1770,1863,2033,2208,2001,1769,1834,1965
385994,-26664,5028,-26700,6068,-1041,639,-72,-686,989,459,303,3056,60,58,918,1770,1863,2033,2208,2001,1769,1834,1965
386995,-26572,5112,-26635,6133,-974,766,-90,-689,989,182,251,3096,65,56,924,1770,1863,2033,2208,2001,1769,1834,1965
387996,-26484,5204,-26570,6198,-952,634,-105,-702,1001,546,287,2760,57,41,923,1770,1863,2033,2208,2001,1769,1834,1965
388997,-26376,5284,-26505,6263,-1255,766,-125,-721,992,738,371,2726,46,43,924,1804,1896,2086,2263,2030,1801,1865,1986
389998,-26300,5356,-26440,6328,-868,857,-147,-734,979,140,301,2766,46,42,921,1804,1896,2086,2263,2030,1801,1865,1986
390999,-26172,5428,-26375,6393,-1595,849,-151,-732,948,319,557,2934,47,41,922,1804,1896,2086,2263,2030,1801,1865,1986
392000,-26080,5516,-26310,6458,-1178,621,-155,-714,924,611,440,3062,54,48,922,1804,1896,2086,2263,2030,1801,1865,1986
393001,-25980,5596,-26245,6523,-1322,704,-125,-689,892,921,491,3033,51,54,924,1804,1896,2086,2263,2030,1801,1865,1986
394002,-25856,5676,-26180,6588,-1694,686,-98,-650,866,896,409,3290,67,41,921,1822,1905,2091,2268,2048,1812,1871,1989
395003,-25772,5744,-26115,6653,-1217,832,-69,-634,858,459,255,3143,65,54,923,1822,1905,2091,2268,2048,1812,1871,1989
396004,-25672,5828,-26050,6718,-1460,610,-46,-603,834,528,363,3395,59,52,922,1822,1905,2091,2268,2048,1812,1871,1989
397005,-25572,5896,-25985,6783,-1503,806,-46,-615,825,308,274,3241,55,49,924,1822,1905,2091,2268,2048,1812,1871,1989
398006,-25452,5964,-25920,6848,-1820,803,-54,-618,829,281,288,3343,56,44,922,1822,1905,2091,2268,2048,1812,1871,1989
399007,-25348,6056,-25855,6913,-1667,471,-69,-630,830,405,348,3350,54,56,923,1822,1905,2091,2268,2048,1812,1871,1989
400008,-25248,6132,-25790,6978,-1661,657,-82,-631,836,403,312,3299,54,56,925,1792,1873,2055,2229,2007,1773,1831,1950
401009,-25112,6188,-25725,7043,-2198,918,-91,-628,851,396,374,3420,65,49,924,1792,1873,2055,2229,2007,1773,1831,1950
402010,-25016,6272,-25660,7108,-1736,546,-113,-596,863,400,190,3624,64,48,922,1792,1873,2055,2229,2007,1773,1831,1950
403011,-24900,6336,-25595,7173,-2048,797,-122,-580,855,600,348,3489,74,57,925,1792,1873,2055,2229,2007,1773,1831,1950
404012,-24776,6420,-25530,7238,-2221,524,-149,-550,861,424,8,3709,73,59,923,1792,1873,2055,2229,2007,1773,1831,1950
405013,-24664,6524,-25465,7303,-2128,227,-154,-507,865,532,173,3721,57,51,925,1775,1865,2045,2214,1994,1769,1834,1962
406014,-24544,6608,-25400,7368,-2295,454,-153,-458,873,520,327,3420,64,51,927,1775,1865,2045,2214,1994,1769,1834,1962
407015,-24416,6672,-25335,7433,-2473,705,-157,-446,850,638,181,3482,78,43,925,1775,1865,2045,2214,1994,1769,1834,1962
408016,-24316,6772,-25270,7498,-2166,213,-180,-472,840,397,-60,3155,79,54,924,1775,1865,2045,2214,1994,1769,1834,1962
409017,-24156,6840,-25205,7563,-3032,610,-183,-506,820,179,217,3193,60,46,927,1775,1865,2045,2214,1994,1769,1834,1962
410021,-24052,6932,-25140,7628,-2381,277,-172,-486,807,241,81,3401,65,45,925,1775,1865,2045,2214,1994,1769,1834,1962
411019,-23936,6996,-25075,7693,-2593,628,-195,-432,845,58,-30,4028,73,43,915,1794,1886,2081,2255,2051,2000,1881,2014
412020,-23772,7092,-25010,7758,-3314,190,-209,-402,819,570,-13,2552,67,53,924,1794,1886,2081,2255,2051,2000,1881,2014
413021,-23660,7152,-24945,7823,-2722,648,-228,-482,804,631,-19,3363,70,51,927,1794,1886,2081,2255,2051,2000,1881,2014
414022,-23532,7224,-24880,7888,-2999,489,-259,-506,782,56,244,3648,81,42,924,1794,1886,2081,2255,2051,2000,1881,2014
415023,-23392,7296,-24815,7953,-3242,481,-297,-554,763,532,156,3049,69,42,921,1794,1886,2081,2255,2051,2000,1881,2014
416024,-23256,7376,-24750,8018,-3279,362,-314,-530,724,974,622,3392,70,48,925,1824,1909,2095,2283,2091,1855,1914,2042
417025,-23112,7444,-24685,8083,-3476,510,-343,-560,711,411,366,3036,73,42,927,1824,1909,2095,2283,2091,1855,1914,2042
418026,-22976,7512,-24620,8148,-3463,506,-372,-583,705,323,145,3416,85,42,925,1824,1909,2095,2283,2091,1855,1914,2042
419027,-22880,7576,-24555,8213,-3001,557,-379,-582,697,499,131,3555,79,47,923,1824,1909,2095,2283,2091,1855,1914,2042
420028,-22704,7652,-24490,8278,-3800,394,-392,-506,702,353,81,3796,77,53,925,1824,1909,2095,2283,2091,1855,1914,2042
421029,-22584,7740,-24425,8343,-3506,217,-426,-428,750,496,-189,4118,81,39,926,1812,1900,2087,2250,2090,1843,1914,2042
422030,-22436,7808,-24360,8408,-3800,463,-482,-372,799,449,-347,3793,86,54,926,1812,1900,2087,2250,2090,1843,1901,2026
423031,-22312,7884,-24295,8473,-3730,349,-513,-368,822,113,-324,3968,70,41,924,1812,1900,2087,2250,2090,1843,1901,2026
424032,-22184,7960,-24230,8538,-3800,336,-528,-410,807,122,-5,3956,72,46,926,1812,1900,2087,2250,2090,1843,1901,2026
425033,-22016,8024,-24165,8603,-3800,488,-489,-509,785,-177,149,3350,77,40,927,1812,1900,2087,2250,2090,1843,1901,2026
426034,-21876,8096,-24100,8668,-3800,380,-454,-641,763,193,134,3514,88,38,925,1812,1900,2087,2250,2090,1843,1901,2026
427035,-21724,8176,-24035,8733,-3800,261,-407,-722,740,198,87,3623,85,45,925,1774,1866,2054,2218,2078,1833,1888,2016
428036,-21576,8232,-23970,8798,-3800,572,-375,-717,735,67,-148,4034,78,50,925,1774,1866,2054,2218,2078,1833,1888,2016
429037,-21452,8316,-23905,8863,-3800,199,-380,-611,761,282,-538,4250,83,46,925,1774,1866,2054,2218,2078,1833,1888,2016
430038,-21276,8376,-23840,8928,-3800,506,-427,-457,802,856,-359,4123,77,54,927,1774,1866,2054,2218,2078,1833,1888,2016
431039,-21144,8452,-23775,8993,-3800,293,-518,-327,847,956,-419,4101,77,39,925,1774,1866,2054,2218,2078,1833,1888,2016
432040,-21000,8512,-23710,9058,-3800,499,-624,-251,895,587,-388,3875,70,54,927,1800,1896,2083,2266,2036,1807,1862,1991
433041,-20856,8592,-23645,9123,-3800,231,-734,-233,959,256,-569,3667,92,46,925,1800,1896,2083,2266,2036,1807,1862,1991
434042,-20744,8640,-23580,9188,-3800,651,-822,-209,1018,570,-614,3802,70,31,927,1800,1896,2083,2266,2036,1807,1862,1991
435043,-20612,8712,-23515,9253,-3800,344,-892,-234,1051,499,-214,3258,75,38,924,1800,1896,2083,2266,2036,1807,1862,1991
436044,-20484,8784,-23450,9318,-3800,335,-939,-308,1064,221,-428,3411,86,44,926,1800,1896,2083,2266,2036,1807,1862,1991
437045,-20340,8836,-23385,9383,-3800,601,-955,-395,1038,-518,-511,3250,85,43,927,1800,1896,2083,2266,2036,1807,1862,1991
438046,-20188,8932,-23320,9448,-3800,13,-955,-545,1014,126,-139,3181,75,49,925,1848,1921,2120,2309,2110,1881,1930,2054
439047,-20044,9008,-23255,9513,-3800,250,-859,-719,939,1201,-60,3260,78,43,928,1848,1921,2120,2309,2110,1881,1930,2054
440048,-19912,9088,-23190,9578,-3800,183,-655,-972,835,-984,-330,2247,75,47,855,1848,1921,2120,2309,2110,1881,1930,2054
441049,-19752,9176,-23125,9643,-3800,55,-437,-1268,774,150,-318,2913,77,57,927,1848,1921,2120,2309,2110,1881,1930,2054
442050,-19596,9240,-23060,9708,-3800,356,-215,-1396,750,205,-1040,2848,79,44,928,1848,1921,2120,2309,2110,1881,1930,2054
443051,-19460,9324,-22995,9773,-3800,83,-121,-1228,813,597,-803,4100,89,54,927,1820,1904,2106,2287,2091,1827,1890,1998
444052,-19300,9408,-22930,9838,-3800,59,-139,-822,916,2236,-519,4462,75,46,918,1820,1904,2106,2287,2091,1827,1890,1998
445053,-19152,9476,-22865,9903,-3800,257,-285,-385,1034,3094,-474,4944,85,54,927,1820,1904,2106,2287,2091,1827,1890,1998
446054,-19028,9556,-22800,9968,-3800,88,-491,-3,1124,2418,16,4890,87,44,927,1820,1904,2106,2287,2091,1827,1890,1998
447055,-18876,9632,-22735,10033,-3800,125,-698,224,1207,1422,-136,4470,75,53,928,1820,1904,2106,2287,2091,1827,1890,1998
448056,-18736,9744,-22670,10098,-3800,-382,-836,337,1323,772,-598,4256,80,44,922,1820,1904,2106,2287,2091,1827,1890,1998
449057,-18572,9888,-22605,10163,-3800,-879,-900,366,1459,194,-839,4239,85,55,926,1896,1980,2114,2332,1914,1715,1808,1888
450058,-18448,9972,-22406,10362,-3800,699,-880,307,1585,-550,-1315,4307,75,44,921,1896,1980,2114,2332,1914,1715,1808,1888
451059,-18324,10056,-22341,10427,-3800,675,-810,195,1638,-874,-1489,4671,69,47,924,1896,1980,2114,2332,1914,1715,1808,1888
452060,-18164,10128,-22276,10492,-3800,818,-719,37,1650,-1141,-1913,4777,81,50,921,1896,1980,2114,2332,1914,1715,1808,1888
453061,-18048,10216,-22211,10557,-3800,590,-592,-93,1609,-338,-1705,5415,73,51,923,1896,1980,2114,2332,1914,1715,1808,1888
454062,-17912,10300,-22146,10622,-3800,617,-454,-111,1562,423,-1765,5708,24,58,925,1846,1902,2111,2359,2050,1849,1891,1968
455063,-17776,10380,-22081,10687,-3800,648,-317,-46,1493,1283,-1710,5711,84,54,924,1846,1902,2111,2359,2050,1849,1891,1968
456064,-17680,10472,-22016,10752,-3800,465,-195,-8,1415,1264,-1581,5150,62,48,923,1846,1902,2111,2359,2050,1849,1891,1968
457065,-17528,10568,-21951,10817,-3800,377,-67,-4,1320,1350,-1254,5115,67,52,926,1846,1902,2111,2359,2050,1849,1891,1968
458066,-17428,10668,-21886,10882,-3800,285,44,41,1250,1456,-1306,4305,60,61,926,1846,1902,2111,2359,2050,1849,1891,1968
459067,-17308,10764,-21821,10947,-3800,297,133,166,1237,1933,-1420,4077,68,63,927,1846,1902,2111,2359,2050,1849,1891,1968
460068,-17172,10864,-21756,11012,-3800,204,162,393,1241,2260,-1212,4234,66,65,926,1945,2002,2241,2544,2145,1934,1997,2058
461069,-17060,10972,-21691,11077,-3800,52,139,631,1279,2160,-1259,3710,57,63,927,1945,2002,2241,2544,2145,1934,1997,2058
462070,-16912,11076,-21626,11142,-3800,54,88,914,1332,2641,-1404,4323,57,56,926,1945,2002,2241,2544,2145,1934,1997,2058
463071,-16828,11164,-21561,11207,-3800,226,32,1184,1429,2929,-1308,4332,67,55,928,1945,2002,2241,2544,2145,1934,1997,2058
464072,-16716,11248,-21496,11272,-3800,253,-26,1383,1512,2500,-1320,4917,64,66,927,1945,2002,2241,2544,2145,1934,1997,2058
465073,-16612,11344,-21431,11337,-3800,65,-67,1564,1571,2058,-1657,5319,49,52,927,2103,2148,2312,2628,2033,1839,1923,1956
466074,-16520,11424,-21366,11402,-3800,247,-93,1601,1625,1654,-1796,5029,51,62,927,2103,2148,2312,2628,2033,1839,1923,1956
467075,-16428,11532,-21301,11467,-3800,-156,-93,1508,1697,1046,-2054,5242,59,60,927,2103,2148,2312,2628,2033,1839,1923,1956
468076,-16312,11624,-21236,11532,-3800,11,-52,1362,1732,394,-2233,5143,51,61,927,2103,2148,2312,2628,2033,1839,1923,1956
469077,-16240,11708,-21171,11597,-3800,88,16,1126,1735,120,-2241,5134,42,55,928,2103,2148,2312,2628,2033,1839,1923,1956
470078,-16144,11772,-21106,11662,-3800,339,102,940,1710,83,-2317,5376,57,54,927,2103,2148,2312,2628,2033,1839,1923,1956
471079,-16084,11844,-21041,11727,-3800,231,194,800,1654,469,-2613,5577,55,59,927,1942,1999,2163,2404,2009,1801,1872,1949
472080,-16016,11936,-20976,11792,-3800,-52,275,756,1598,1359,-2817,5900,42,62,927,1942,1999,2163,2404,2009,1801,1872,1949
473081,-15960,12064,-20911,11857,-3800,-579,365,807,1533,2400,-2294,5916,34,51,928,1942,1999,2163,2404,2009,1801,1872,1949
474082,-15900,12192,-20846,11922,-3800,-656,426,907,1461,2340,-2194,5206,46,51,924,1942,1999,2163,2404,2009,1801,1872,1949
475083,-15836,12344,-20781,11987,-3800,-1062,492,1067,1364,2624,-2000,5520,24,49,923,1942,1999,2163,2404,2009,1801,1872,1949
476084,-15796,12416,-20716,12052,-3800,-71,540,1262,1284,2971,-1823,4758,24,42,919,1843,1954,2119,2327,2051,1814,1923,2046
477085,-15748,12476,-20651,12117,-3800,85,565,1373,1203,3120,-1742,4690,33,40,917,1843,1954,2119,2327,2051,1814,1923,2046
478086,-15684,12540,-20586,12182,-3800,36,558,1423,1114,2722,-1541,3879,36,40,928,1843,1954,2119,2327,2051,1814,1923,2046
479087,-15644,12616,-20521,12247,-3800,-128,513,1335,1019,2154,-1181,3438,37,39,926,1843,1954,2119,2327,2051,1814,1923,2046
480088,-15596,12664,-20456,12312,-3800,243,445,1275,943,1783,-1206,3173,29,33,927,1843,1954,2119,2327,2051,1814,1923,2046
481089,-15552,12732,-20391,12377,-3800,-11,375,1213,874,1687,-1249,3189,15,34,922,1843,1954,2119,2327,2051,1814,1923,2046
482090,-15524,12788,-20326,12442,-3800,150,321,1125,818,1413,-1315,3415,13,38,928,1926,2036,2178,2405,2092,1859,1970,2068
483091,-15488,12832,-20261,12507,-3800,326,289,998,774,1152,-1445,3506,27,30,927,1926,2036,2178,2405,2092,1859,1970,2068
484092,-15456,12892,-20196,12572,-3800,132,273,820,726,878,-1523,3739,26,43,927,1926,2036,2178,2405,2092,1859,1970,2068
485093,-15444,12916,-20131,12637,-3800,632,253,603,670,665,-1547,3661,16,34,925,1926,2036,2178,2405,2092,1859,1970,2068
486094,-15424,12936,-20066,12702,-3800,737,249,359,625,626,-1582,3851,11,42,925,1926,2036,2178,2405,2092,1859,1970,2068
487095,-15424,12992,-20001,12767,-3800,297,250,144,595,335,-1760,3871,13,41,924,1871,1978,2130,2335,2104,1874,1951,2060
488096,-15396,13064,-19936,12832,-3800,88,273,-13,568,830,-1701,4065,20,50,927,1871,1978,2130,2335,2104,1874,1951,2060
489097,-15396,13136,-19871,12897,-3800,80,324,-49,538,1487,-1903,4143,15,46,926,1871,1978,2130,2335,2104,1874,1951,2060
490098,-15400,13216,-19806,12962,-3800,-39,377,-38,502,1295,-2074,4289,8,41,927,1871,1978,2130,2335,2104,1874,1951,2060
491099,-15384,13276,-19741,13027,-3800,218,423,52,460,1296,-1951,4566,0,38,928,1871,1978,2130,2335,2104,1874,1951,2060
492100,-15400,13352,-19676,13092,-3800,4,449,133,389,1556,-1770,4361,-5,37,927,1871,1978,2130,2335,2104,1874,1951,2060
493101,-15380,13424,-19611,13157,-3800,46,446,185,309,1495,-1581,4420,-3,36,927,1783,1895,2063,2232,2064,1833,1907,2031
494102,-15384,13500,-19546,13222,-3800,-18,417,241,214,1237,-1281,4325,1,50,928,1783,1895,2063,2232,2064,1833,1907,2031
495103,-15392,13564,-19481,13287,-3800,133,375,276,111,911,-1116,4043,-7,41,928,1783,1895,2063,2232,2064,1833,1907,2031
496104,-15392,13636,-19416,13352,-3800,25,340,288,6,697,-831,4008,-6,39,927,1783,1895,2063,2232,2064,1833,1907,2031
497105,-15384,13696,-19351,13417,-3800,180,303,232,-100,249,-712,3771,-4,46,927,1783,1895,2063,2232,2064,1833,1907,2031
498106,-15388,13768,-19286,13482,-3800,21,270,152,-204,-190,-559,3579,7,45,927,1812,1903,2078,2290,2030,1808,1886,1977
499107,-15380,13832,-19221,13547,-3800,123,230,17,-284,-655,-381,3576,0,35,928,1812,1903,2078,2290,2030,1808,1886,1977
500108,-15392,13904,-19156,13612,-3635,14,206,-114,-366,-777,-450,3302,7,42,927,1812,1903,2078,2290,2030,1808,1886,1977
501109,-15384,13952,-19091,13677,-3800,335,194,-213,-426,-683,-402,3601,10,42,928,1812,1903,2078,2290,2030,1808,1886,1977
502110,-15380,14016,-19026,13742,-3694,136,201,-252,-470,-682,-582,3611,10,43,927,1812,1903,2078,2290,2030,1808,1886,1977
503111,-15380,14092,-18961,13807,-3566,-27,222,-238,-488,-384,-644,3848,11,33,927,1812,1903,2078,2290,2030,1808,1886,1977
504112,-15376,14164,-18896,13872,-3543,14,247,-185,-505,-264,-834,3819,10,45,929,1856,1931,2118,2356,2039,1831,1897,1993
505113,-15388,14224,-18831,13937,-3250,170,311,-60,-502,191,-977,3797,-5,40,928,1856,1931,2118,2356,2039,1831,1897,1993
506114,-15392,14292,-18766,14002,-3267,65,393,83,-475,132,-986,3963,9,33,928,1856,1931,2118,2356,2039,1831,1897,1993
507115,-15392,14356,-18701,14067,-3240,117,461,222,-451,-78,-1026,3899,-3,39,928,1856,1931,2118,2356,2039,1831,1897,1993
508116,-15388,14404,-18636,14132,-3216,337,505,306,-429,-7,-742,3784,2,26,928,1856,1931,2118,2356,2039,1831,1897,1993
509117,-15388,14460,-18571,14197,-3088,248,537,338,-417,-210,-579,3846,6,23,927,1983,1953,2154,2389,2012,1813,1865,1946
510118,-15384,14532,-18506,14262,-3065,40,548,336,-412,-602,-329,3702,-7,30,916,1983,1953,2154,2389,2012,1813,1865,1946
511119,-15392,14584,-18441,14327,-2827,306,556,314,-415,-671,-152,3680,-5,24,928,1983,1953,2154,2389,2012,1813,1865,1946
512120,-15384,14620,-18376,14392,-2959,541,543,277,-434,-704,104,3654,-3,28,927,1983,1953,2154,2389,2012,1813,1865,1946
513121,-15376,14680,-18311,14457,-2890,247,543,252,-458,-794,173,3887,-6,34,924,1983,1953,2154,2389,2012,1813,1865,1946
514122,-15376,14736,-18246,14522,-2712,308,535,225,-488,-661,327,3831,2,37,921,1983,1953,2154,2389,2012,1813,1865,1946
515123,-15392,14780,-18181,14587,-2414,484,529,188,-528,-618,386,3929,2,25,927,1912,1952,2152,2400,1957,1760,1823,1905
516124,-15372,14832,-18116,14652,-2810,399,526,164,-565,-724,456,3968,1,28,926,1912,1952,2152,2400,1957,1760,1823,1905
517125,-15376,14888,-18051,14717,-2427,360,517,146,-600,-606,501,4059,10,22,926,1912,1952,2152,2400,1957,1760,1823,1905
518126,-15384,14940,-17986,14782,-2289,426,515,143,-623,-451,505,4165,-3,22,922,1912,1952,2152,2400,1957,1760,1823,1905
519127,-15368,15000,-17921,14847,-2530,332,528,160,-634,-464,435,4257,1,29,926,1912,1952,2152,2400,1957,1760,1823,1905
520128,-15384,15048,-17856,14912,-2032,502,567,212,-637,-131,351,4299,-2,37,927,1900,1945,2139,2351,1995,1787,1855,1986
521129,-15376,15120,-17791,14977,-2263,194,608,262,-643,-46,264,4196,-4,40,925,1900,1945,2139,2351,1995,1787,1855,1986
522130,-15376,15176,-17726,15042,-2085,405,635,310,-631,-293,319,4031,8,33,925,1900,1945,2139,2351,1995,1787,1855,1986
523131,-15380,15220,-17661,15107,-1952,581,673,345,-586,-613,328,3958,-5,26,927,1900,1945,2139,2351,1995,1787,1855,1986
524132,-15384,15288,-17596,15172,-1869,277,714,358,-551,-494,363,3908,-1,26,925,1900,1945,2139,2351,1995,1787,1855,1986
525133,-15368,15360,-17531,15237,-2060,218,759,359,-513,-363,314,3847,-7,38,927,1900,1945,2139,2351,1995,1787,1855,1986
526134,-15376,15432,-17466,15302,-1672,210,806,346,-470,-312,423,3658,10,42,926,1865,1943,2143,2317,2087,1855,1916,2062
527135,-15376,15504,-17401,15367,-1692,201,842,320,-423,-455,548,3700,3,36,927,1865,1943,2143,2317,2087,1855,1916,2062
528136,-15376,15572,-17336,15432,-1614,248,846,261,-388,-668,746,3586,-6,27,927,1865,1943,2143,2317,2087,1855,1916,2062
529137,-15376,15644,-17271,15497,-1536,189,831,180,-358,-698,951,3634,8,28,927,1865,1943,2143,2317,2087,1855,1916,2062
530138,-15368,15708,-17206,15562,-1567,290,802,106,-335,-540,1051,3696,9,33,925,1865,1943,2143,2317,2087,1855,1916,2062
531139,-15364,15780,-17141,15627,-1443,182,771,57,-330,-208,1157,3775,-1,34,927,1866,1940,2152,2336,2098,1857,1910,2041
532140,-15384,15840,-17076,15692,-1040,338,722,-3,-341,-201,1349,3959,-4,40,927,1866,1940,2152,2336,2098,1857,1910,2041
533141,-15376,15892,-17011,15757,-1321,453,664,-46,-343,-151,1319,3873,-3,34,927,1866,1940,2152,2336,2098,1857,1910,2041
534142,-15372,15948,-16946,15822,-1197,414,607,-66,-350,141,1356,3976,3,27,925,1866,1940,2152,2336,2098,1857,1910,2041
535144,-15368,16016,-16881,15887,-1123,260,559,-80,-372,359,1199,4115,-5,37,926,1866,1940,2152,2336,2098,1857,1910,2041
536144,-15364,16072,-16816,15952,-1049,421,532,-57,-401,679,941,4069,6,36,927,1866,1940,2152,2336,2098,1857,1910,2041
537145,-15368,16152,-16751,16017,-866,103,510,-18,-424,970,762,3968,6,43,926,1854,1924,2132,2308,2100,1860,1896,2042
538146,-15368,16216,-16686,16082,-837,304,498,21,-437,807,551,3721,-2,42,927,1854,1924,2132,2308,2100,1860,1896,2042
539147,-15372,16264,-16621,16147,-703,525,505,16,-439,673,478,3782,-6,28,927,1854,1924,2132,2308,2100,1860,1896,2042
540148,-15364,16336,-16556,16212,-785,216,505,-20,-432,461,552,3694,-6,35,925,1854,1924,2132,2308,2100,1860,1896,2042
541149,-15372,16392,-16491,16277,-495,427,489,-39,-416,168,666,3790,2,35,927,1854,1924,2132,2308,2100,1860,1896,2042
542150,-15364,16460,-16426,16342,-626,273,457,-51,-391,82,763,3805,12,28,926,1813,1883,2112,2270,2114,1874,1896,2043
543151,-15360,16548,-16361,16407,-502,-5,413,-94,-354,66,777,3781,4,43,927,1813,1883,2112,2270,2114,1874,1896,2043
544152,-15364,16620,-16296,16472,-318,187,375,-141,-312,-52,851,3997,2,43,928,1813,1883,2112,2270,2114,1874,1896,2043
545153,-15360,16692,-16231,16537,-345,178,359,-138,-270,60,921,3883,-7,40,927,1813,1883,2112,2270,2114,1874,1896,2043
546154,-15364,16764,-16166,16602,-161,170,333,-102,-230,211,968,4102,0,29,927,1813,1883,2112,2270,2114,1874,1896,2043
547155,-15368,16812,-16101,16667,-76,490,297,-62,-198,285,935,3798,1,40,922,1813,1883,2112,2270,2114,1874,1896,2043
548156,-15360,16892,-16036,16732,-158,72,253,-31,-173,429,958,3692,6,29,923,1778,1862,2089,2259,2118,1875,1906,2048
549157,-15364,16968,-15971,16797,77,109,212,-3,-159,488,993,3593,2,35,919,1778,1862,2089,2259,2118,1875,1906,2048
550158,-15356,17004,-15906,16862,-4,644,165,12,-141,551,1179,3442,13,31,926,1778,1862,2089,2259,2118,1875,1906,2048
551159,-15368,17084,-15841,16927,340,75,109,46,-139,488,1300,3550,12,26,924,1778,1862,2089,2259,2118,1875,1906,2048
552160,-15372,17140,-15776,16992,324,386,60,93,-155,612,1286,3382,-5,31,926,1778,1862,2089,2259,2118,1875,1906,2048
553161,-15360,17224,-15711,17057,188,13,6,131,-168,718,1331,3461,-3,42,925,1795,1878,2097,2279,2130,1883,1916,2052
554162,-15348,17292,-15646,17122,253,209,-39,147,-184,544,1220,3531,16,39,927,1795,1878,2097,2279,2130,1883,1916,2052
555163,-15348,17340,-15581,17187,482,480,-64,178,-202,632,1011,3505,-1,27,927,1795,1878,2097,2279,2130,1883,1916,2052
556164,-15336,17412,-15516,17252,397,171,-71,209,-221,945,875,3591,1,28,923,1795,1878,2097,2279,2130,1883,1916,2052
557165,-15328,17476,-15451,17317,516,272,-71,208,-228,896,742,3586,4,38,925,1795,1878,2097,2279,2130,1883,1916,2052
558166,-15320,17548,-15386,17382,586,164,-60,219,-232,735,629,3631,6,42,924,1795,1878,2097,2279,2130,1883,1916,2052
559167,-15324,17612,-15321,17447,820,265,-51,227,-225,649,614,3699,21,43,924,1793,1866,2096,2272,2121,1875,1896,2029
560168,-15288,17656,-15256,17512,356,541,-64,238,-223,684,490,3598,22,44,922,1793,1866,2096,2272,2121,1875,1896,2029
561169,-15256,17708,-15191,17577,446,457,-87,237,-215,783,558,3642,34,42,923,1793,1866,2096,2272,2121,1875,1896,2029
562170,-15220,17784,-15126,17642,431,143,-113,221,-190,501,611,3645,18,44,924,1793,1866,2096,2272,2121,1875,1896,2029
563171,-15188,17848,-15061,17707,522,294,-143,204,-158,447,651,3677,37,44,925,1793,1866,2096,2272,2121,1875,1896,2029
564172,-15148,17908,-14996,17772,452,350,-173,173,-118,443,648,3538,37,42,922,1805,1877,2105,2291,2062,1832,1866,1990
565173,-15096,17976,-14931,17837,318,247,-198,168,-89,559,753,3822,23,46,924,1805,1877,2105,2291,2062,1832,1866,1990
566174,-15048,18032,-14866,17902,389,408,-232,158,-51,426,799,3607,35,37,925,1805,1877,2105,2291,2062,1832,1866,1990
567175,-15012,18092,-14801,17967,574,364,-264,144,-19,558,798,3693,27,39,924,1805,1877,2105,2291,2062,1832,1866,1990
568176,-14948,18172,-14736,18032,225,95,-298,148,16,735,761,3503,34,31,923,1805,1877,2105,2291,2062,1832,1866,1990
569177,-14900,18236,-14671,18097,446,296,-330,140,36,762,953,3642,42,33,926,1805,1877,2105,2291,2062,1832,1866,1990
570178,-14840,18300,-14606,18162,302,297,-367,155,44,725,941,3702,29,30,925,1829,1907,2116,2304,2049,1816,1873,2006
571179,-14780,18380,-14541,18227,309,79,-400,153,56,648,770,3531,44,41,925,1829,1907,2116,2304,2049,1816,1873,2006
572180,-14724,18440,-14476,18292,370,335,-416,168,50,639,768,3774,41,37,926,1829,1907,2116,2304,2049,1816,1873,2006
573181,-14676,18496,-14411,18357,491,396,-413,161,39,675,660,3734,34,33,925,1829,1907,2116,2304,2049,1816,1873,2006
574182,-14616,18568,-14346,18422,347,187,-379,147,27,683,503,3825,28,40,924,1829,1907,2116,2304,2049,1816,1873,2006
575183,-14548,18628,-14281,18487,243,343,-346,133,18,645,368,3828,45,36,925,1841,1921,2122,2300,2094,1849,1906,2046
576184,-14472,18696,-14216,18552,130,240,-299,112,0,603,434,3963,36,36,925,1841,1921,2122,2300,2094,1849,1906,2046
577185,-14416,18748,-14151,18617,391,456,-270,78,-3,290,338,3829,26,29,927,1841,1921,2122,2300,2094,1849,1906,2046
578186,-14340,18828,-14086,18682,128,87,-242,64,-5,241,289,4051,39,27,925,1841,1921,2122,2300,2094,1849,1906,2046
579187,-14292,18872,-14021,18747,498,563,-224,61,0,394,292,4035,29,43,926,1841,1921,2122,2300,2094,1849,1906,2046
580188,-14228,18940,-13956,18812,300,259,-205,45,4,363,291,4061,48,28,923,1841,1921,2122,2300,2094,1849,1906,2046
581189,-14172,18988,-13891,18877,412,530,-199,31,13,210,262,3963,48,39,923,1844,1928,2135,2323,2090,1848,1902,2024
582190,-14096,19036,-13826,18942,148,551,-208,47,28,373,290,4194,29,31,923,1844,1928,2135,2323,2090,1848,1902,2024
583191,-14036,19100,-13761,19007,354,352,-227,81,54,377,257,4113,26,33,924,1844,1928,2135,2323,2090,1848,1902,2024
584192,-13976,19164,-13696,19072,360,353,-247,107,80,351,289,4209,29,36,925,1844,1928,2135,2323,2090,1848,1902,2024
585193,-13916,19232,-13631,19137,366,300,-265,115,99,275,266,4014,36,34,925,1844,1928,2135,2323,2090,1848,1902,2024
586194,-13872,19296,-13566,19202,592,351,-287,124,122,217,127,4272,26,43,925,1887,1959,2162,2380,2047,1829,1886,1990
587195,-13812,19348,-13501,19267,398,517,-289,128,150,294,111,4255,42,43,923,1887,1959,2162,2380,2047,1829,1886,1990
588196,-13748,19424,-13436,19332,349,202,-291,112,169,280,36,4325,31,35,923,1887,1959,2162,2380,2047,1829,1886,1990
589197,-13688,19504,-13371,19397,405,134,-296,92,183,219,-97,4330,48,36,925,1887,1959,2162,2380,2047,1829,1886,1990
590198,-13628,19560,-13306,19462,412,445,-287,88,197,373,-50,4333,39,42,926,1887,1959,2162,2380,2047,1829,1886,1990
591199,-13568,19624,-13241,19527,419,346,-261,84,203,400,-217,4411,29,39,924,1887,1959,2162,2380,2047,1829,1886,1990
592200,-13504,19696,-13176,19592,370,238,-230,78,192,283,-230,4463,30,38,924,1893,1952,2160,2385,2054,1841,1891,1999
593201,-13440,19756,-13111,19657,371,394,-196,75,189,343,-242,4532,28,25,925,1893,1952,2160,2385,2054,1841,1891,1999
594202,-13384,19828,-13046,19722,482,235,-161,96,191,513,-401,4415,36,32,924,1893,1952,2160,2385,2054,1841,1891,1999
595203,-13332,19900,-12981,19787,548,227,-104,114,174,597,-380,4408,46,33,924,1893,1952,2160,2385,2054,1841,1891,1999
596204,-13288,19948,-12916,19852,674,547,-64,122,168,362,-266,4340,49,42,924,1893,1952,2160,2385,2054,1841,1891,1999
597205,-13224,20008,-12851,19917,425,403,-39,138,178,296,-346,4451,34,44,922,1889,1952,2161,2379,2073,1846,1910,2020
598206,-13160,20076,-12786,19982,427,300,-28,182,172,538,-75,4189,34,28,922,1889,1952,2161,2379,2073,1846,1910,2020
599207,-13112,20144,-12721,20047,648,296,-22,184,157,352,-23,4159,36,43,924,1889,1952,2161,2379,2073,1846,1910,2020
600208,-13036,20196,-12656,20112,284,512,-29,178,157,105,-198,4065,50,42,923,1889,1952,2161,2379,2073,1846,1910,2020
601209,-12984,20252,-12591,20177,600,473,-38,163,163,136,-171,3930,47,40,924,1889,1952,2161,2379,2073,1846,1910,2020
602210,-12912,20320,-12526,20242,342,319,-48,164,164,166,-194,3958,33,34,922,1889,1952,2161,2379,2073,1846,1910,2020
603211,-12860,20376,-12461,20307,608,480,-54,185,171,85,-256,3934,41,40,925,1907,1978,2167,2390,2060,1830,1903,2011
604212,-12788,20436,-12396,20372,349,436,-59,202,177,152,-182,3895,46,35,923,1907,1978,2167,2390,2060,1830,1903,2011
605213,-12728,20500,-12331,20437,506,388,-51,239,176,90,-442,4026,36,40,924,1907,1978,2167,2390,2060,1830,1903,2011
606214,-12648,20564,-12266,20502,238,389,-40,262,187,192,-471,4070,46,31,924,1907,1978,2167,2390,2060,1830,1903,2011
607215,-12596,20648,-12201,20567,604,116,-11,280,195,225,-466,4160,31,29,925,1907,1978,2167,2390,2060,1830,1903,2011
608216,-12524,20704,-12136,20632,345,477,18,291,197,172,-552,4279,42,41,924,1888,1960,2138,2343,2045,1817,1884,1994
609217,-12464,20768,-12071,20697,501,378,61,305,181,298,-531,4395,45,31,924,1888,1960,2138,2343,2045,1817,1884,1994
610218,-12400,20832,-12006,20762,452,379,85,293,184,268,-636,4233,45,34,924,1888,1960,2138,2343,2045,1817,1884,1994
611219,-12324,20880,-11941,20827,289,600,122,285,184,282,-661,4360,46,39,924,1888,1960,2138,2343,2045,1817,1884,1994
612220,-12292,20964,-11876,20892,880,127,139,259,174,238,-614,4028,46,29,923,1888,1960,2138,2343,2045,1817,1884,1994
613221,-12228,21028,-11811,20957,482,378,154,217,157,217,-562,4008,49,49,922,1888,1960,2138,2343,2045,1817,1884,1994
614222,-12156,21092,-11746,21022,373,379,156,183,160,340,-498,3734,43,36,923,1845,1915,2108,2321,2031,1811,1871,1974
615223,-12112,21176,-11681,21087,749,106,158,145,153,312,-417,3721,29,31,923,1845,1915,2108,2321,2031,1811,1871,1974
616224,-12044,21220,-11616,21152,445,631,146,125,141,298,-333,3618,30,32,923,1845,1915,2108,2321,2031,1811,1871,1974
617225,-11980,21284,-11551,21217,496,382,142,100,135,359,-295,3430,47,38,922,1845,1915,2108,2321,2031,1811,1871,1974
618226,-11916,21348,-11486,21282,497,383,131,94,133,536,-219,3660,48,32,923,1845,1915,2108,2321,2031,1811,1871,1974
619227,-11864,21404,-11421,21347,664,494,132,81,111,512,-143,3525,46,27,924,1856,1920,2116,2336,2034,1817,1883,1990
620228,-11804,21472,-11356,21412,570,340,128,96,100,543,-143,3683,46,31,922,1856,1920,2116,2336,2034,1817,1883,1990
621229,-11732,21528,-11291,21477,412,501,129,118,80,644,-156,3538,30,30,923,1856,1920,2116,2336,2034,1817,1883,1990
622230,-11680,21600,-11226,21542,678,293,135,130,71,560,-229,3636,30,42,924,1856,1920,2116,2336,2034,1817,1883,1990
623231,-11620,21668,-11161,21607,584,339,144,145,66,368,-268,3595,47,43,922,1856,1920,2116,2336,2034,1817,1883,1990
624232,-11568,21732,-11096,21672,700,390,165,143,64,201,-230,3679,32,37,923,1856,1920,2116,2336,2034,1817,1883,1990
625233,-11512,21792,-11031,21737,662,446,175,118,58,91,-296,3492,47,31,922,1861,1932,2122,2328,2050,1824,1888,2004
626234,-11444,21844,-10966,21802,508,562,203,87,45,39,-279,3632,32,32,922,1861,1932,2122,2328,2050,1824,1888,2004
627235,-11384,21912,-10901,21867,614,359,225,52,46,-28,-230,3668,47,30,922,1861,1932,2122,2328,2050,1824,1888,2004
628236,-11328,21964,-10836,21932,675,574,256,20,39,-34,-272,3690,40,29,922,1861,1932,2122,2328,2050,1824,1888,2004
629237,-11256,22032,-10771,21997,467,371,273,-3,31,2,-343,3748,39,39,921,1861,1932,2122,2328,2050,1824,1888,2004
630238,-11200,22076,-10706,22062,679,696,285,-3,23,181,-243,3771,40,35,923,1839,1919,2108,2304,2042,1807,1870,1987
631239,-11140,22140,-10641,22127,635,448,294,2,14,160,-33,3815,35,30,922,1839,1919,2108,2304,2042,1807,1870,1987
632240,-11052,22200,-10576,22192,257,504,303,26,-5,220,-72,3840,46,42,920,1839,1919,2108,2304,2042,1807,1870,1987
633241,-11000,22248,-10511,22257,722,674,307,42,-15,352,-106,3826,38,38,923,1839,1919,2108,2304,2042,1807,1870,1987
634242,-10932,22316,-10446,22322,519,421,313,67,-25,456,-41,3938,47,41,922,1839,1919,2108,2304,2042,1807,1870,1987
635245,-10868,22376,-10381,22387,570,527,317,101,-52,659,76,3983,32,42,921,1839,1919,2108,2304,2042,1807,1870,1987
636244,-10796,22456,-10316,22452,462,259,307,124,-76,743,110,3759,34,29,922,1842,1920,2110,2313,2017,1794,1859,1969
637245,-10736,22516,-10251,22517,619,515,301,142,-86,661,254,3726,49,42,923,1842,1920,2110,2313,2017,1794,1859,1969
638246,-10692,22580,-10186,22582,844,466,298,152,-92,494,215,3771,34,38,923,1842,1920,2110,2313,2017,1794,1859,1969
639247,-10620,22652,-10121,22647,486,357,304,155,-105,465,201,3910,40,43,921,1842,1920,2110,2313,2017,1794,1859,1969
640248,-10556,22732,-10056,22712,587,239,322,161,-121,620,234,4071,39,34,922,1842,1920,2110,2313,2017,1794,1859,1969
641249,-10488,22772,-9991,22777,534,770,336,148,-121,567,155,3872,45,28,923,1855,1923,2126,2348,2036,1824,1876,1984
642250,-10428,22844,-9926,22842,640,361,356,115,-130,278,225,3851,48,26,922,1855,1923,2126,2348,2036,1824,1876,1984
643251,-10368,22900,-9861,22907,646,572,379,80,-142,105,239,3878,48,28,921,1855,1923,2126,2348,2036,1824,1876,1984
644252,-10292,22960,-9796,22972,433,528,402,57,-154,347,176,3856,49,29,922,1855,1923,2126,2348,2036,1824,1876,1984
645253,-10236,23040,-9731,23037,694,260,409,46,-153,579,197,3786,37,27,922,1855,1923,2126,2348,2036,1824,1876,1984
646254,-10192,23080,-9666,23102,871,790,423,38,-159,402,339,3747,41,33,923,1872,1936,2153,2374,2061,1845,1893,2006
647255,-10124,23144,-9601,23167,567,492,428,54,-162,316,366,3918,33,34,920,1872,1936,2153,2374,2061,1845,1893,2006
648256,-10060,23192,-9536,23232,618,712,448,102,-164,523,348,4121,27,26,920,1872,1936,2153,2374,2061,1845,1893,2006
649257,-10008,23272,-9471,23297,784,294,461,141,-170,679,396,4207,30,31,920,1872,1936,2153,2374,2061,1845,1893,2006
650258,-9952,23328,-9406,23362,745,605,488,205,-176,624,374,4164,31,42,920,1872,1936,2153,2374,2061,1845,1893,2006
651259,-9896,23388,-9341,23427,757,561,495,254,-175,556,403,4159,47,42,921,1872,1936,2153,2374,2061,1845,1893,2006
652260,-9832,23452,-9276,23492,658,512,505,291,-186,498,476,4103,39,35,920,1881,1951,2159,2368,2066,1838,1891,2009
653261,-9788,23512,-9211,23557,934,568,502,326,-197,399,489,4209,40,28,921,1881,1951,2159,2368,2066,1838,1891,2009
654262,-9736,23572,-9146,23622,850,575,503,358,-202,353,510,4215,45,42,919,1881,1951,2159,2368,2066,1838,1891,2009
655263,-9680,23632,-9081,23687,811,581,511,371,-212,345,497,4192,36,42,919,1881,1951,2159,2368,2066,1838,1891,2009
656264,-9616,23676,-9016,23752,713,806,520,372,-222,173,519,4248,33,40,919,1881,1951,2159,2368,2066,1838,1891,2009
657265,-9556,23740,-8951,23817,769,557,538,366,-232,196,416,4285,49,30,919,1865,1939,2142,2343,2047,1821,1875,1996
658266,-9488,23800,-8886,23882,665,614,556,376,-247,477,431,4218,50,41,919,1865,1939,2142,2343,2047,1821,1875,1996
659267,-9432,23864,-8821,23947,826,565,561,379,-256,504,469,3989,31,43,920,1865,1939,2142,2343,2047,1821,1875,1996
660268,-9372,23916,-8756,24012,783,731,560,393,-259,378,511,4072,30,40,919,1865,1939,2142,2343,2047,1821,1875,1996
661269,-9332,23980,-8691,24077,1064,582,569,413,-265,438,477,3985,33,42,919,1865,1939,2142,2343,2047,1821,1875,1996
662270,-9284,24048,-8626,24142,985,528,577,413,-270,396,489,4103,43,48,917,1865,1939,2142,2343,2047,1821,1875,1996
663271,-9220,24100,-8561,24207,786,744,591,405,-289,407,438,4119,44,34,917,1864,1936,2142,2348,2059,1835,1885,2004
664272,-9152,24176,-8496,24272,733,431,605,416,-289,530,327,4178,34,46,918,1864,1936,2142,2348,2059,1835,1885,2004
665273,-9100,24256,-8431,24337,949,363,620,409,-294,635,415,4202,33,37,920,1864,1936,2142,2348,2059,1835,1885,2004
666274,-9040,24340,-8366,24402,855,290,619,390,-299,724,403,4026,33,33,919,1864,1936,2142,2348,2059,1835,1885,2004
667275,-8980,24400,-8301,24467,861,596,600,352,-284,470,510,3870,48,46,920,1864,1936,2142,2348,2059,1835,1885,2004
668276,-8936,24464,-8236,24532,1088,548,596,309,-274,439,394,4022,30,45,919,1868,1937,2149,2360,2065,1844,1897,2018
669277,-8876,24524,-8171,24597,894,604,592,294,-284,884,381,4085,46,46,918,1868,1937,2149,2360,2065,1844,1897,2018
670278,-8808,24584,-8106,24662,790,610,569,259,-268,792,431,3641,43,45,918,1868,1937,2149,2360,2065,1844,1897,2018
671279,-8756,24660,-8041,24727,1006,396,543,230,-247,211,485,3789,44,42,919,1868,1937,2149,2360,2065,1844,1897,2018
672280,-8708,24700,-7976,24792,1078,877,531,235,-245,551,295,4050,32,41,918,1868,1937,2149,2360,2065,1844,1897,2018
673281,-8640,24772,-7911,24857,824,468,536,252,-225,739,167,4177,33,40,918,1868,1937,2149,2360,2065,1844,1897,2018
674282,-8588,24840,-7846,24922,1040,515,559,274,-220,554,361,4179,38,35,916,1865,1941,2144,2334,2087,1849,1903,2042
675283,-8520,24892,-7781,24987,837,730,561,292,-219,370,336,3897,40,32,920,1865,1941,2144,2334,2087,1849,1903,2042
676284,-8464,24964,-7716,25052,999,472,557,300,-219,312,315,3875,35,34,918,1865,1941,2144,2334,2087,1849,1903,2042
677285,-8388,25036,-7651,25117,735,463,545,299,-219,211,319,3962,47,43,918,1865,1941,2144,2334,2087,1849,1903,2042
678286,-8320,25088,-7586,25182,831,729,550,301,-221,259,198,4062,48,35,918,1865,1941,2144,2334,2087,1849,1903,2042
679287,-8268,25144,-7521,25247,1048,690,560,299,-230,254,344,3945,38,41,921,1842,1924,2124,2303,2091,1845,1899,2031
680288,-8196,25188,-7456,25312,790,866,563,276,-238,-114,430,3924,42,33,918,1842,1924,2124,2303,2091,1845,1899,2031
681289,-8144,25240,-7391,25377,1056,782,563,241,-246,-317,417,3924,34,44,916,1842,1924,2124,2303,2091,1845,1899,2031
682290,-8068,25304,-7326,25442,742,633,565,236,-255,-8,418,4012,31,37,917,1842,1924,2124,2303,2091,1845,1899,2031
683291,-8028,25364,-7261,25507,1224,689,547,215,-252,273,375,3695,47,37,914,1842,1924,2124,2303,2091,1845,1899,2031
684292,-7964,25432,-7196,25572,925,585,525,210,-243,110,384,3772,31,33,918,1842,1924,2124,2303,2091,1845,1899,2031
685293,-7896,25504,-7131,25637,871,527,491,211,-243,100,551,3777,43,44,914,1826,1906,2110,2301,2072,1837,1888,2008
686294,-7856,25544,-7066,25702,1253,957,471,210,-233,40,435,3846,39,31,918,1826,1906,2110,2301,2072,1837,1888,2008
687295,-7792,25628,-7001,25767,954,384,451,221,-218,187,552,4073,32,36,919,1826,1906,2110,2301,2072,1837,1888,2008
688296,-7728,25700,-6936,25832,955,526,432,247,-195,391,453,3837,36,35,912,1826,1906,2110,2301,2072,1837,1888,2008
689297,-7672,25764,-6871,25897,1066,627,412,279,-170,560,409,3842,31,37,919,1826,1906,2110,2301,2072,1837,1888,2008
690298,-7624,25812,-6806,25962,1188,848,394,275,-156,333,469,3649,40,43,918,1838,1906,2118,2320,2064,1845,1887,2008
691299,-7568,25864,-6741,26027,1099,813,373,268,-139,106,373,3800,35,34,916,1838,1906,2118,2320,2064,1845,1887,2008
692300,-7524,25928,-6676,26092,1275,666,357,257,-114,214,292,3835,41,31,913,1838,1906,2118,2320,2064,1845,1887,2008
693301,-7448,25992,-6611,26157,862,667,363,259,-115,357,477,3949,50,46,914,1838,1906,2118,2320,2064,1845,1887,2008
694302,-7396,26056,-6546,26222,1178,668,355,248,-104,-13,308,3774,34,30,914,1838,1906,2118,2320,2064,1845,1887,2008
695303,-7336,26136,-6481,26287,1084,450,346,248,-102,-30,388,3786,34,48,918,1838,1906,2118,2320,2064,1845,1887,2008
696304,-7284,26208,-6416,26352,1201,541,336,239,-86,479,320,3797,52,45,915,1834,1897,2119,2316,2082,1858,1895,2021
697305,-7240,26256,-6351,26417,1327,862,316,220,-47,384,146,3950,36,46,918,1834,1897,2119,2316,2082,1858,1895,2021
698306,-7172,26316,-6286,26482,1023,718,319,220,-50,-18,662,3783,48,49,916,1834,1897,2119,2316,2082,1858,1895,2021
699307,-7108,26380,-6221,26547,1075,669,318,214,-55,-322,400,4017,36,46,911,1834,1897,2119,2316,2082,1858,1895,2021
700308,-7052,26456,-6022,26746,1350,670,309,225,-55,32,491,3879,50,39,915,1834,1897,2119,2316,2082,1858,1895,2021
701309,-6996,26516,-5957,26811,1361,876,307,236,-63,91,671,3863,39,51,915,1834,1907,2121,2309,2083,1847,1900,2030
702310,-6936,26588,-5892,26876,1318,717,296,235,-68,-148,620,3843,46,44,913,1834,1907,2121,2309,2083,1847,1900,2030
703311,-6868,26660,-5827,26941,1214,709,278,252,-82,-148,754,3870,58,45,911,1834,1907,2121,2309,2083,1847,1900,2030
704312,-6796,26720,-5762,27006,1157,865,273,253,-85,42,779,3868,47,53,913,1834,1907,2121,2309,2083,1847,1900,2030
705313,-6732,26808,-5697,27071,1258,488,264,267,-77,-130,686,4003,57,54,914,1834,1907,2121,2309,2083,1847,1900,2030
706314,-6664,26876,-5632,27136,1204,734,263,301,-86,-2,849,4019,55,45,913,1834,1907,2121,2309,2083,1847,1900,2030
707315,-6604,26952,-5567,27201,1311,620,263,329,-87,119,763,3984,42,47,915,1840,1920,2123,2311,2074,1835,1890,2019
708316,-6548,27000,-5502,27266,1372,991,264,340,-80,12,721,4048,44,53,914,1840,1920,2123,2311,2074,1835,1890,2019
709317,-6472,27072,-5437,27331,1110,683,257,339,-70,-67,767,4008,49,49,913,1840,1920,2123,2311,2074,1835,1890,2019
710320,-6400,27160,-5372,27396,1151,455,266,321,-64,-174,685,4095,50,40,910,1840,1920,2123,2311,2074,1835,1890,2019
711319,-6368,27236,-5307,27461,1692,591,261,332,-64,50,634,3921,34,52,915,1840,1920,2123,2311,2074,1835,1890,2019
712320,-6308,27308,-5242,27526,1349,633,268,309,-60,285,641,4004,35,50,917,1854,1932,2138,2336,2056,1831,1878,2001
713321,-6232,27372,-5177,27591,1135,734,267,291,-41,-32,660,3897,36,43,910,1854,1932,2138,2336,2056,1831,1878,2001
714322,-6176,27448,-5112,27656,1397,570,270,255,-35,-52,805,3998,43,45,913,1854,1932,2138,2336,2056,1831,1878,2001
715323,-6128,27488,-5047,27721,1518,1051,279,241,-18,-40,747,4060,51,46,915,1854,1932,2138,2336,2056,1831,1878,2001
716324,-6084,27556,-4982,27786,1594,698,277,220,-4,113,693,3968,48,39,912,1854,1932,2138,2336,2056,1831,1878,2001
717325,-6020,27612,-4917,27851,1346,859,272,213,-4,191,748,4008,36,46,906,1854,1932,2138,2336,2056,1831,1878,2001
718326,-5956,27664,-4852,27916,1347,925,270,184,-8,237,769,3857,41,44,909,1867,1934,2155,2360,2046,1832,1876,1997
719327,-5896,27724,-4787,27981,1404,831,264,180,-25,209,796,4021,45,31,911,1867,1934,2155,2360,2046,1832,1876,1997
720328,-5824,27788,-4722,28046,1246,782,258,196,-35,78,751,4038,36,43,910,1867,1934,2155,2360,2046,1832,1876,1997
721329,-5784,27836,-4657,28111,1676,1003,309,172,-23,712,715,3892,34,38,910,1867,1934,2155,2360,2046,1832,1876,1997
722330,-5720,27900,-4592,28176,1378,804,415,15,83,-1554,465,5255,44,45,913,1867,1934,2155,2360,2046,1832,1876,1997
723331,-5660,27972,-4527,28241,1435,696,517,11,120,-2229,642,5217,33,37,907,1881,1944,2161,2365,2054,1830,1881,2004
724332,-5596,28020,-4462,28306,1387,1017,584,28,112,1477,1407,3473,46,45,911,1881,1944,2161,2365,2054,1830,1881,2004
725333,-5556,28096,-4397,28371,1717,653,623,-96,139,224,924,4920,38,50,910,1881,1944,2161,2365,2054,1830,1881,2004
726334,-5508,28164,-4332,28436,1639,751,675,-140,162,-1167,956,4391,32,47,909,1881,1944,2161,2365,2054,1830,1881,2004
727335,-5444,28236,-4267,28501,1440,692,702,-120,171,-248,1186,4389,48,43,909,1881,1944,2161,2365,2054,1830,1881,2004
728336,-5388,28296,-4202,28566,1551,848,715,-104,166,782,1165,4442,54,51,909,1881,1944,2161,2365,2054,1830,1881,2004
729337,-5332,28392,-4137,28631,1563,360,717,-116,155,387,1244,4073,40,56,911,1931,2007,2212,2431,2028,1802,1878,1993
730338,-5264,28452,-4072,28696,1410,816,716,-99,144,-52,1285,4483,51,52,909,1931,2007,2212,2431,2028,1802,1878,1993
731339,-5204,28520,-4007,28761,1517,713,715,-74,138,273,1238,4378,43,42,912,1931,2007,2212,2431,2028,1802,1878,1993
732340,-5140,28604,-3942,28826,1468,489,711,-63,155,135,1099,3933,32,56,910,1931,2007,2212,2431,2028,1802,1878,1993
733341,-5088,28664,-3877,28891,1635,796,704,-59,177,4,1129,4393,50,45,910,1931,2007,2212,2431,2028,1802,1878,1993
734342,-5048,28748,-3812,28956,1815,472,694,9,189,127,1035,4225,49,47,910,2002,2064,2253,2471,2021,1803,1875,1996
735343,-4988,28824,-3747,29021,1572,559,690,45,211,267,1001,4252,49,46,907,2002,2064,2253,2471,2021,1803,1875,1996
736344,-4924,28880,-3682,29086,1524,820,709,96,240,39,897,4256,49,39,909,2002,2064,2253,2471,2021,1803,1875,1996
737345,-4872,28964,-3617,29151,1690,447,721,92,269,-313,876,4373,37,46,911,2002,2064,2253,2471,2021,1803,1875,1996
738346,-4804,29024,-3552,29216,1487,754,753,98,313,-585,638,4434,50,39,910,2002,2064,2253,2471,2021,1803,1875,1996
739347,-4760,29088,-3487,29281,1813,705,787,71,356,-565,597,4270,42,40,910,2002,2064,2253,2471,2021,1803,1875,1996
740348,-4696,29148,-3422,29346,1565,761,823,35,386,-528,608,4282,52,54,911,1932,1986,2201,2400,2060,1847,1877,1999
741349,-4628,29212,-3357,29411,1511,712,852,1,422,-481,594,4348,38,46,907,1932,1986,2201,2400,2060,1847,1877,1999
742350,-4584,29276,-3292,29476,1838,714,889,-20,457,-528,631,4275,37,52,909,1932,1986,2201,2400,2060,1847,1877,1999
743351,-4504,29344,-3227,29541,1369,660,922,-19,460,-165,861,4285,51,54,910,1932,1986,2201,2400,2060,1847,1877,1999
744352,-4436,29404,-3162,29606,1517,766,963,-32,478,-275,812,4146,40,50,906,1932,1986,2201,2400,2060,1847,1877,1999
745353,-4396,29460,-3097,29671,1897,827,978,23,496,-373,1010,4381,38,44,913,1840,1892,2131,2327,2091,1875,1894,2009
746354,-4308,29532,-3032,29736,1270,619,1007,116,486,217,1175,4698,37,59,910,1840,1892,2131,2327,2091,1875,1894,2009
747355,-4260,29596,-2967,29801,1791,720,1014,224,535,508,760,4479,55,47,905,1840,1892,2131,2327,2091,1875,1894,2009
748356,-4184,29656,-2902,29866,1428,776,1013,232,562,619,1287,3812,42,54,914,1840,1892,2131,2327,2091,1875,1894,2009
749357,-4112,29736,-2837,29931,1470,508,982,210,573,181,1132,3809,48,40,907,1840,1892,2131,2327,2091,1875,1894,2009
750358,-4056,29796,-2772,29996,1682,764,937,201,578,-9,1381,3461,48,40,911,1840,1892,2131,2327,2091,1875,1894,2009
751359,-3992,29876,-2707,30061,1583,495,879,227,579,440,1508,3718,53,54,911,1830,1884,2114,2330,2077,1859,1897,2009
752360,-3924,29944,-2642,30126,1530,643,844,287,586,631,1288,3777,56,54,907,1830,1884,2114,2330,2077,1859,1897,2009
753361,-3872,30024,-2577,30191,1746,474,808,322,596,559,1218,3676,45,41,911,1830,1884,2114,2330,2077,1859,1897,2009
754362,-3812,30076,-2512,30256,1653,840,785,336,606,356,1039,3729,48,53,911,1830,1884,2114,2330,2077,1859,1897,2009
755363,-3744,30160,-2447,30321,1550,417,756,316,619,45,1034,3428,55,52,909,1830,1884,2114,2330,2077,1859,1897,2009
756364,-3672,30228,-2382,30386,1492,613,734,309,610,106,1018,3630,37,55,907,1845,1912,2129,2318,2083,1850,1889,2027
757365,-3620,30300,-2317,30451,1758,555,709,322,597,313,871,3510,44,52,912,1845,1912,2129,2318,2083,1850,1889,2027
758366,-3564,30372,-2252,30516,1720,546,696,312,611,8,850,3613,35,44,911,1845,1912,2129,2318,2083,1850,1889,2027
759367,-3492,30424,-2187,30581,1512,812,682,292,622,-233,793,3441,39,53,908,1845,1912,2129,2318,2083,1850,1889,2027
760368,-3444,30476,-2122,30646,1833,828,679,278,640,-112,613,3478,38,40,909,1845,1912,2129,2318,2083,1850,1889,2027
761369,-3404,30556,-2057,30711,1964,460,660,242,654,115,703,3329,47,54,910,1845,1912,2129,2318,2083,1850,1889,2027
762370,-3340,30608,-1992,30776,1666,826,646,218,675,-117,532,3423,53,56,905,1818,1908,2130,2284,2090,1842,1877,2032
763371,-3276,30692,-1927,30841,1667,402,612,211,688,108,653,3301,52,54,907,1818,1908,2130,2284,2090,1842,1877,2032
764372,-3212,30756,-1862,30906,1669,654,580,184,691,293,862,3266,47,58,908,1818,1908,2130,2284,2090,1842,1877,2032
765373,-3152,30828,-1797,30971,1726,545,538,177,696,242,870,3366,47,43,911,1818,1908,2130,2284,2090,1842,1877,2032
766374,-3096,30884,-1732,31036,1788,756,503,186,703,436,955,3379,45,56,909,1818,1908,2130,2284,2090,1842,1877,2032
767375,-3016,30952,-1667,31101,1469,602,462,197,689,810,1365,3484,44,53,909,1795,1885,2099,2254,2075,1837,1877,2015
768376,-2964,31024,-1602,31166,1836,544,428,190,686,703,1221,3591,42,52,905,1795,1885,2099,2254,2075,1837,1877,2015
769377,-2884,31100,-1537,31231,1468,481,388,191,690,771,1401,3498,45,58,909,1795,1885,2099,2254,2075,1837,1877,2015
770378,-2816,31148,-1472,31296,1615,852,351,160,684,766,1398,3450,42,41,908,1795,1885,2099,2254,2075,1837,1877,2015
771379,-2760,31224,-1407,31361,1776,489,304,158,665,768,1344,3520,38,42,913,1795,1885,2099,2254,2075,1837,1877,2015
772380,-2692,31300,-1342,31426,1623,475,256,121,652,814,1497,3320,56,57,908,1795,1885,2099,2254,2075,1837,1877,2015
773381,-2624,31364,-1277,31491,1620,627,220,78,643,725,1285,3497,44,50,909,1783,1857,2074,2256,2086,1862,1896,2025
774382,-2568,31440,-1212,31556,1782,463,185,53,627,616,1333,3450,52,41,910,1783,1857,2074,2256,2086,1862,1896,2025
775383,-2496,31512,-1147,31621,1573,505,164,23,611,738,1285,3548,49,56,909,1783,1857,2074,2256,2086,1862,1896,2025
776384,-2448,31576,-1082,31686,1895,606,142,28,611,667,1122,3661,53,44,908,1783,1857,2074,2256,2086,1862,1896,2025
777385,-2408,31640,-1017,31751,2025,607,129,27,608,461,1241,3504,45,43,911,1783,1857,2074,2256,2086,1862,1896,2025
778386,-2344,31704,-952,31816,1728,608,127,42,601,371,1127,3653,41,42,906,1784,1855,2089,2277,2122,1892,1911,2045
779387,-2280,31756,-887,31881,1730,774,115,47,596,330,1015,3626,53,40,905,1784,1855,2089,2277,2122,1892,1911,2045
780388,-2228,31832,-822,31946,1896,461,101,52,598,340,1064,3589,31,44,908,1784,1855,2089,2277,2122,1892,1911,2045
781389,-2188,31904,-757,32011,2077,502,89,67,608,395,903,3538,40,42,907,1784,1855,2089,2277,2122,1892,1911,2045
782390,-2132,31948,-692,32076,1888,878,64,75,604,541,796,3651,42,57,907,1784,1855,2089,2277,2122,1892,1911,2045
783391,-2080,32024,-627,32141,1955,464,39,135,597,346,852,3769,33,45,905,1784,1855,2089,2277,2122,1892,1911,2045
784392,-2036,32080,-562,32206,2081,725,-1,167,581,227,915,3568,49,43,904,1806,1892,2136,2318,2107,1871,1891,2026
785393,-1996,32144,-497,32271,2162,627,-42,202,562,425,947,3967,31,55,904,1806,1892,2136,2318,2107,1871,1891,2026
786394,-1928,32208,-432,32336,1809,628,-78,241,543,491,979,3593,43,44,902,1806,1892,2136,2318,2107,1871,1891,2026
787395,-1868,32248,-367,32401,1916,958,-120,273,514,298,1183,3987,56,52,903,1806,1892,2136,2318,2107,1871,1891,2026
788396,-1808,32340,-302,32466,1923,275,-153,337,490,460,1271,4156,35,52,907,1806,1892,2136,2318,2107,1871,1891,2026
789397,-1752,32408,-237,32531,1984,572,-194,411,476,609,1240,4091,54,47,903,1842,1922,2156,2345,2071,1846,1880,2002
790398,-1684,32468,-172,32596,1831,678,-226,465,451,745,1177,4204,47,49,908,1842,1922,2156,2345,2071,1846,1880,2002
791399,-1620,32532,-107,32661,1882,630,-258,511,423,700,1278,4144,45,45,905,1842,1922,2156,2345,2071,1846,1880,2002
792400,-1568,32588,-42,32726,2049,741,-279,535,383,585,1382,4162,41,43,906,1842,1922,2156,2345,2071,1846,1880,2002
793401,-1488,32644,23,32791,1681,752,-294,571,342,651,1386,4366,46,57,906,1842,1922,2156,2345,2071,1846,1880,2002
794402,-1436,32712,88,32856,2048,598,-303,614,321,636,1399,4210,40,55,903,1842,1922,2156,2345,2071,1846,1880,2002
795403,-1368,32780,153,32921,1845,595,-317,650,306,527,1495,4230,39,44,908,1848,1918,2148,2354,2080,1872,1899,2017
796404,-1312,32856,218,32986,2006,481,-334,689,293,782,1247,4113,44,56,905,1848,1918,2148,2354,2080,1872,1899,2017
797405,-1232,32924,283,33051,1689,578,-349,694,288,956,1261,4168,32,46,907,1848,1918,2148,2354,2080,1872,1899,2017
798406,-1184,32984,348,33116,2110,684,-336,658,250,355,1506,4129,41,47,906,1848,1918,2148,2354,2080,1872,1899,2017
799407,-1108,33044,413,33181,1747,690,-334,679,233,105,1073,4228,45,56,908,1848,1918,2148,2354,2080,1872,1899,2017
800408,-1068,33124,478,33246,2228,421,-320,693,214,698,1251,4205,41,58,903,1840,1905,2150,2361,2113,1899,1919,2043
801409,-1012,33184,543,33311,2040,678,-313,719,197,866,1256,4238,37,51,908,1840,1905,2150,2361,2113,1899,1919,2043
802410,-944,33268,608,33376,1887,354,-294,705,164,326,1424,3970,38,50,902,1840,1905,2150,2361,2113,1899,1919,2043
803411,-872,33340,673,33441,1828,496,-295,698,116,273,1523,4041,49,42,902,1840,1905,2150,2361,2113,1899,1919,2043
804412,-804,33404,738,33506,1876,597,-269,664,58,402,1494,3971,41,57,909,1840,1905,2150,2361,2113,1899,1919,2043
805413,-732,33464,803,33571,1817,653,-261,682,26,287,1382,4086,44,54,908,1840,1905,2150,2361,2113,1899,1919,2043
806414,-676,33544,868,33636,2029,385,-254,705,-9,416,1526,4270,58,46,906,1851,1928,2169,2369,2094,1870,1900,2027
807415,-592,33600,933,33701,1657,696,-248,744,-58,474,1431,4068,38,46,906,1851,1928,2169,2369,2094,1870,1900,2027
808416,-520,33668,998,33766,1799,542,-253,754,-110,432,1411,4008,46,52,906,1851,1928,2169,2369,2094,1870,1900,2027
809417,-460,33736,1063,33831,1956,538,-261,749,-171,415,1666,3982,58,58,909,1851,1928,2169,2369,2094,1870,1900,2027
810418,-376,33800,1128,33896,1632,590,-271,741,-228,239,1575,4078,58,61,908,1851,1928,2169,2369,2094,1870,1900,2027
811419,-304,33880,1193,33961,1775,371,-280,747,-279,351,1577,4001,56,57,906,1879,1966,2188,2376,2034,1812,1860,1988
812420,-240,33944,1258,34026,1876,573,-280,753,-327,621,1712,4148,58,54,910,1879,1966,2188,2376,2034,1812,1860,1988
813421,-152,34008,1323,34091,1549,574,-283,737,-359,247,1656,3943,57,58,909,1879,1966,2188,2376,2034,1812,1860,1988
814422,-76,34084,1388,34156,1687,410,-294,734,-401,122,1669,4133,45,55,907,1879,1966,2188,2376,2034,1812,1860,1988
815423,-12,34160,1453,34221,1838,397,-316,744,-421,355,1544,4098,54,52,911,1879,1966,2188,2376,2034,1812,1860,1988
816424,68,34240,1518,34286,1621,329,-331,748,-458,735,1767,4146,44,61,910,1879,1966,2188,2376,2034,1812,1860,1988
817425,136,34308,1583,34351,1767,475,-332,718,-503,437,1697,3939,42,46,908,1884,1966,2179,2369,2011,1802,1853,1984
818426,208,34384,1648,34416,1709,363,-341,696,-526,174,1503,4147,57,52,912,1884,1966,2179,2369,2011,1802,1853,1984
819427,268,34452,1713,34481,1865,459,-346,707,-551,522,1640,4229,52,59,908,1884,1966,2179,2369,2011,1802,1853,1984
820428,328,34508,1778,34546,1873,620,-341,701,-576,615,1515,3969,43,47,909,1884,1966,2179,2369,2011,1802,1853,1984
821429,416,34572,1843,34611,1494,521,-320,671,-622,484,1783,3993,39,49,908,1884,1966,2179,2369,2011,1802,1853,1984
822430,480,34652,1908,34676,1797,303,-306,619,-661,176,1707,3845,48,46,906,1858,1932,2156,2348,2060,1850,1884,2017
823431,540,34728,1973,34741,1853,339,-289,578,-695,89,1510,3730,53,52,911,1858,1932,2156,2348,2060,1850,1884,2017
824432,604,34804,2038,34806,1805,326,-281,573,-739,600,1442,3811,42,52,910,1858,1932,2156,2348,2060,1850,1884,2017
825433,672,34864,2103,34871,1752,532,-277,548,-775,650,1443,3560,48,46,909,1858,1932,2156,2348,2060,1850,1884,2017
826434,748,34940,2168,34936,1639,319,-268,486,-839,450,1771,3483,54,47,910,1858,1932,2156,2348,2060,1850,1884,2017
827435,812,35012,2233,35001,1791,360,-265,428,-888,75,1699,3544,50,44,909,1858,1932,2156,2348,2060,1850,1884,2017
828436,900,35072,2298,35066,1463,516,-273,448,-930,173,1577,3732,57,46,911,1842,1912,2152,2341,2104,1880,1904,2036
829437,968,35136,2363,35131,1710,467,-282,509,-953,886,1597,3769,54,46,909,1842,1912,2152,2341,2104,1880,1904,2036
830438,1028,35216,2428,35196,1816,249,-289,525,-955,594,1708,3637,38,54,912,1842,1912,2152,2341,2104,1880,1904,2036
831439,1132,35276,2493,35261,1220,505,-290,519,-987,137,1819,3712,60,55,909,1842,1912,2152,2341,2104,1880,1904,2036
832440,1184,35344,2558,35326,1886,402,-316,522,-1014,136,1719,3738,57,52,910,1842,1912,2152,2341,2104,1880,1904,2036
833441,1264,35420,2623,35391,1518,288,-337,565,-1039,473,1501,3680,48,54,916,1820,1896,2126,2307,2077,1846,1876,2010
834442,1352,35476,2688,35456,1390,548,-380,597,-1048,505,1340,3738,54,56,909,1820,1896,2126,2307,2077,1846,1876,2010
835443,1428,35556,2753,35521,1528,230,-410,629,-1082,314,1627,3816,48,56,913,1820,1896,2126,2307,2077,1846,1876,2010
836444,1528,35620,2818,35586,1185,431,-438,603,-1115,155,1647,3620,45,43,912,1820,1896,2126,2307,2077,1846,1876,2010
837445,1604,35692,2883,35651,1473,322,-456,598,-1125,9,1316,3700,45,46,912,1820,1896,2126,2307,2077,1846,1876,2010
838446,1680,35760,2948,35716,1459,369,-488,653,-1132,404,1305,4005,49,55,916,1820,1896,2126,2307,2077,1846,1876,2010
839447,1768,35836,3013,35781,1282,255,-510,689,-1138,503,1365,3528,57,53,914,1805,1883,2112,2287,2055,1829,1860,1999
840448,1856,35896,3078,35846,1254,461,-525,673,-1146,-59,1480,3469,61,51,914,1805,1883,2112,2287,2055,1829,1860,1999
841449,1944,35952,3143,35911,1227,522,-549,677,-1162,-21,1359,3534,59,43,916,1805,1883,2112,2287,2055,1829,1860,1999
842450,2036,36008,3208,35976,1144,533,-587,693,-1170,472,1349,3359,53,56,915,1805,1883,2112,2287,2055,1829,1860,1999
843451,2120,36064,3273,36041,1222,544,-614,696,-1172,461,1244,3256,60,51,915,1805,1883,2112,2287,2055,1829,1860,1999
844452,2208,36152,3338,36106,1144,116,-642,677,-1197,172,1449,3059,57,52,916,1797,1873,2109,2285,2074,1850,1876,2014
845453,2280,36236,3403,36171,1336,143,-661,664,-1216,-439,1170,3131,53,55,915,1797,1873,2109,2285,2074,1850,1876,2014
846454,2368,36316,3468,36236,1108,175,-702,710,-1227,491,1433,3483,47,45,918,1797,1873,2109,2285,2074,1850,1876,2014
847455,2468,36384,3533,36301,916,321,-731,731,-1227,989,1296,2977,64,54,916,1797,1873,2109,2285,2074,1850,1876,2014
848456,2532,36432,3598,36366,1368,592,-754,703,-1223,283,1425,2852,53,43,918,1797,1873,2109,2285,2074,1850,1876,2014
849457,2620,36512,3663,36431,1040,174,-774,675,-1245,75,1414,3113,47,57,920,1797,1873,2109,2285,2074,1850,1876,2014
850458,2712,36584,3728,36496,958,265,-788,652,-1263,143,1341,2839,59,52,913,1794,1862,2096,2275,2087,1858,1883,2019
851459,2796,36640,3793,36561,1035,476,-814,646,-1269,570,1260,2912,53,52,919,1794,1862,2096,2275,2087,1858,1883,2019
852460,2888,36712,3858,36626,902,268,-838,629,-1271,469,1285,2897,46,42,920,1794,1862,2096,2275,2087,1858,1883,2019
853461,2988,36788,3923,36691,760,204,-851,595,-1286,211,1418,2894,64,53,917,1794,1862,2096,2275,2087,1858,1883,2019
854462,3052,36844,3988,36756,1211,465,-862,575,-1290,106,1252,3065,56,43,918,1794,1862,2096,2275,2087,1858,1883,2019
855463,3136,36940,4053,36821,938,-73,-879,559,-1287,400,1236,3056,42,46,922,1770,1842,2065,2233,2065,1827,1861,1999
856464,3232,37008,4118,36886,751,274,-893,530,-1267,212,1192,2903,51,58,916,1770,1842,2065,2233,2065,1827,1861,1999
857465,3300,37088,4183,36951,1097,105,-922,495,-1264,-78,1234,2928,57,45,920,1770,1842,2065,2233,2065,1827,1861,1999
858466,3400,37144,4248,37016,655,416,-945,471,-1267,-29,1246,2876,55,55,922,1770,1842,2065,2233,2065,1827,1861,1999
859467,3472,37232,4313,37081,997,-12,-966,437,-1266,70,1281,2808,59,53,919,1770,1842,2065,2233,2065,1827,1861,1999
860469,3580,37300,4378,37146,495,235,-994,409,-1250,-140,1018,2929,41,43,921,1770,1842,2065,2233,2065,1827,1861,1999
861469,3668,37380,4443,37211,717,66,-1017,383,-1257,235,1277,2942,43,41,921,1757,1839,2050,2213,2026,1787,1835,1975
862470,3744,37464,4508,37276,854,-7,-1023,341,-1255,203,955,2709,49,43,924,1757,1839,2050,2213,2026,1787,1835,1975
863471,3832,37528,4573,37341,676,243,-1033,319,-1252,-539,717,2925,51,56,923,1757,1839,2050,2213,2026,1787,1835,1975
864472,3920,37596,4638,37406,648,190,-1067,349,-1235,-150,770,2998,58,54,922,1757,1839,2050,2213,2026,1787,1835,1975
865473,3992,37668,4703,37471,839,131,-1088,335,-1237,481,931,2626,49,51,922,1757,1839,2050,2213,2026,1787,1835,1975
866474,4080,37736,4768,37536,612,177,-1098,305,-1229,202,839,2352,57,55,923,1772,1858,2065,2230,2012,1776,1832,1974
867475,4144,37812,4833,37601,914,64,-1125,300,-1231,-671,738,2731,39,47,921,1772,1858,2065,2230,2012,1776,1832,1974
868476,4236,37896,4898,37666,531,-59,-1148,305,-1237,-223,912,2550,39,44,923,1772,1858,2065,2230,2012,1776,1832,1974
869477,4328,37968,4963,37731,499,82,-1154,256,-1237,176,982,2420,40,41,921,1772,1858,2065,2230,2012,1776,1832,1974
870478,4388,38032,5028,37796,905,183,-1167,180,-1221,-273,892,2294,54,54,923,1772,1858,2065,2230,2012,1776,1832,1974
871479,4472,38088,5093,37861,582,294,-1183,128,-1223,-421,804,2392,49,45,923,1795,1868,2073,2230,2012,1776,1832,1974
872480,4560,38176,5158,37926,503,-134,-1196,103,-1229,1,926,2763,40,54,921,1795,1868,2073,2252,2016,1789,1840,1966
873481,4648,38264,5223,37991,475,-162,-1192,35,-1239,-56,895,2381,54,54,923,1795,1868,2073,2252,2016,1789,1840,1966
874482,4744,38332,5288,38056,339,85,-1197,-37,-1241,-419,716,2725,46,46,924,1795,1868,2073,2252,2016,1789,1840,1966
875483,4812,38392,5353,38121,685,190,-1206,-73,-1237,-196,689,2728,47,49,924,1795,1868,2073,2252,2016,1789,1840,1966
876484,4900,38456,5418,38186,407,141,-1206,-83,-1219,233,894,2865,51,40,925,1795,1868,2073,2252,2016,1789,1840,1966
877485,4980,38532,5483,38251,489,-23,-1196,-105,-1213,55,892,2969,41,54,923,1783,1846,2052,2240,2012,1788,1839,1963
878486,5056,38632,5548,38316,525,-365,-1185,-124,-1191,-307,668,2859,39,51,925,1783,1846,2052,2240,2012,1788,1839,1963
879487,5156,38712,5613,38381,183,-134,-1184,-153,-1174,-201,626,3049,48,43,925,1783,1846,2052,2240,2012,1788,1839,1963
880488,5220,38788,5678,38446,635,-97,-1177,-150,-1150,-176,479,3003,54,40,923,1783,1846,2052,2240,2012,1788,1839,1963
881489,5316,38848,5743,38511,197,109,-1181,-139,-1130,72,604,3188,51,35,926,1783,1846,2052,2240,2012,1788,1839,1963
882490,5432,38908,5808,38576,-116,115,-1174,-156,-1122,-151,664,2822,53,46,924,1780,1848,2053,2239,2006,1778,1835,1964
883491,5496,38976,5873,38641,536,11,-1169,-172,-1118,-393,613,3077,37,37,927,1780,1848,2053,2239,2006,1778,1835,1964
884492,5588,39024,5938,38706,153,281,-1161,-184,-1104,-470,535,3009,36,41,922,1780,1848,2053,2239,2006,1778,1835,1964
885493,5672,39088,6003,38771,231,83,-1157,-171,-1085,-223,472,3305,48,49,925,1780,1848,2053,2239,2006,1778,1835,1964
886494,5772,39160,6068,38836,-12,-26,-1156,-176,-1066,-288,472,3101,50,40,926,1780,1848,2053,2239,2006,1778,1835,1964
887497,5860,39228,6133,38901,110,20,-1139,-200,-1065,-521,560,3167,36,36,925,1780,1848,2053,2239,2006,1778,1835,1964
888496,5940,39284,6198,38966,191,181,-1130,-238,-1073,-604,456,3055,48,49,927,1804,1879,2082,2274,2008,1777,1840,1968
889497,6016,39360,6263,39031,228,-82,-1126,-228,-1070,-441,254,3481,49,46,927,1804,1879,2082,2274,2008,1777,1840,1968
890498,6100,39412,6328,39096,105,234,-1126,-222,-1070,-96,294,3131,32,38,926,1804,1879,2082,2274,2008,1777,1840,1968
891499,6176,39476,6393,39161,191,84,-1129,-228,-1073,-273,376,3235,32,48,927,1804,1879,2082,2274,2008,1777,1840,1968
892500,6256,39548,6458,39226,123,-25,-1133,-228,-1075,-406,283,3185,35,39,927,1804,1879,2082,2274,2008,1777,1840,1968
893501,6324,39624,6523,39291,269,-88,-1143,-225,-1073,-252,322,3219,35,50,927,1840,1909,2110,2310,2012,1786,1850,1974
894502,6412,39704,6588,39356,-9,-156,-1150,-205,-1071,-105,330,3306,50,40,927,1840,1909,2110,2310,2012,1786,1850,1974
895503,6508,39764,6653,39421,-146,100,-1150,-206,-1071,-152,344,3170,48,41,926,1840,1909,2110,2310,2012,1786,1850,1974
896504,6572,39844,6718,39486,256,-169,-1154,-214,-1053,-216,274,3275,47,47,927,1840,1909,2110,2310,2012,1786,1850,1974
897505,6660,39912,6783,39551,-72,-22,-1144,-211,-1030,-183,363,3172,45,53,919,1840,1909,2110,2310,2012,1786,1850,1974
898506,6748,39988,6848,39616,-100,-136,-1134,-195,-1010,-33,339,3625,41,49,926,1840,1909,2110,2310,2012,1786,1850,1974
899507,6832,40060,6913,39681,-74,-95,-1119,-207,-991,-102,201,3263,51,51,926,1846,1904,2104,2311,2023,1801,1859,1977
900508,6920,40128,6978,39746,-152,-49,-1096,-222,-972,-290,287,3573,39,41,923,1846,1904,2104,2311,2023,1801,1859,1977
901509,6988,40208,7043,39811,95,-217,-1079,-231,-952,-226,198,3513,53,42,926,1846,1904,2104,2311,2023,1801,1859,1977
902510,7080,40280,7108,39876,-238,-126,-1066,-220,-938,-56,166,3615,51,49,919,1846,1904,2104,2311,2023,1801,1859,1977
903511,7156,40344,7173,39941,-52,-24,-1034,-198,-922,62,128,3726,36,43,927,1846,1904,2104,2311,2023,1801,1859,1977
904512,7240,40416,7238,40006,-175,-133,-1000,-168,-901,-163,168,3724,36,37,926,1822,1880,2072,2272,2025,1800,1920,1972
905513,7320,40488,7303,40071,-143,-143,-977,-94,-859,-201,-159,4275,50,38,926,1822,1880,2072,2272,2025,1800,1920,1972
906514,7392,40564,7368,40136,-52,-206,-967,41,-829,165,-63,4304,37,39,916,1822,1880,2072,2272,2025,1800,1920,1972
907515,7476,40636,7433,40201,-225,-165,-952,131,-802,178,6,4144,37,49,919,1822,1880,2072,2272,2025,1800,1920,1972
908516,7564,40704,7498,40266,-303,-118,-941,136,-783,-218,38,3751,38,50,927,1822,1880,2072,2272,2025,1800,1920,1972
909517,7648,40760,7563,40331,-276,43,-926,138,-759,-797,10,3997,41,39,925,1822,1880,2072,2272,2025,1800,1920,1972
910518,7720,40824,7628,40396,-135,-56,-919,167,-746,-215,70,4028,43,40,927,1822,1883,2090,2311,2026,1801,1858,1970
911519,7824,40904,7693,40461,-582,-275,-907,153,-744,-103,231,3745,44,50,928,1822,1883,2090,2311,2026,1801,1858,1970
912520,7892,40952,7758,40526,-136,145,-905,104,-737,-408,-24,3686,42,40,921,1822,1883,2090,2311,2026,1801,1858,1970
913521,7984,41032,7823,40591,-470,-273,-900,115,-725,-651,-225,3996,50,45,926,1822,1883,2090,2311,2026,1801,1858,1970
914522,8060,41100,7888,40656,-283,-126,-885,228,-699,114,-456,4203,40,42,927,1822,1883,2090,2311,2026,1801,1858,1970
915523,8164,41180,7953,40721,-681,-295,-881,365,-674,597,-366,4115,50,45,926,1865,1923,2132,2344,2044,1816,1876,1993
916524,8244,41260,8018,40786,-399,-313,-886,446,-644,450,-394,4015,46,46,927,1865,1923,2132,2344,2044,1816,1876,1993
917525,8340,41324,8083,40851,-637,-113,-887,496,-628,202,-372,3916,52,41,926,1865,1923,2132,2344,2044,1816,1876,1993
918526,8424,41412,8148,40916,-510,-441,-889,574,-604,411,-402,4303,43,40,917,1865,1923,2132,2344,2044,1816,1876,1993
919527,8520,41468,8213,40981,-698,-30,-873,688,-570,797,-400,4102,48,36,927,1865,1923,2132,2344,2044,1816,1876,1993
920528,8592,41520,8278,41046,-407,36,-855,790,-526,504,-562,4248,57,44,925,1865,1923,2132,2344,2044,1816,1876,1993
921529,8680,41592,8343,41111,-635,-223,-817,863,-504,191,-354,4148,45,41,927,1885,1944,2148,2374,2063,1834,1891,2000
922530,8784,41652,8408,41176,-882,-68,-781,857,-469,498,-327,3997,53,50,922,1885,1944,2148,2374,2063,1834,1891,2000
923531,8892,41708,8473,41241,-986,-7,-741,831,-441,412,-182,3778,41,37,927,1885,1944,2148,2374,2063,1834,1891,2000
924532,8980,41768,8538,41306,-764,-50,-726,776,-415,-257,-154,3490,45,47,927,1885,1944,2148,2374,2063,1834,1891,2000
925533,9076,41828,8603,41371,-902,-44,-693,759,-404,-380,-33,3433,53,38,928,1885,1944,2148,2374,2063,1834,1891,2000
926534,9184,41884,8668,41436,-1104,17,-674,772,-384,305,-122,3585,57,36,926,1863,1919,2120,2351,2050,1814,1872,1972
927535,9292,41944,8733,41501,-1157,-27,-644,800,-369,402,-83,3313,62,38,928,1863,1919,2120,2351,2050,1814,1872,1972
928536,9408,42020,8798,41566,-1320,-242,-624,821,-346,29,-264,3354,62,36,928,1863,1919,2120,2351,2050,1814,1872,1972
929537,9516,42092,8863,41631,-1273,-200,-599,850,-313,345,-328,3438,50,53,928,1863,1919,2120,2351,2050,1814,1872,1972
930538,9616,42156,8928,41696,-1215,-99,-585,931,-275,563,-429,3260,60,40,926,1863,1919,2120,2351,2050,1814,1872,1972
931539,9732,42236,8993,41761,-1478,-317,-590,998,-262,891,-448,3004,65,41,927,1863,1919,2120,2351,2050,1814,1872,1972
932540,9848,42304,9058,41826,-1541,-171,-606,1071,-238,808,-446,3293,55,46,927,1831,1889,2069,2278,1978,1745,1812,1906
933541,9936,42384,9123,41891,-1219,-339,-610,1144,-200,829,-731,3489,60,52,926,1831,1889,2069,2278,1978,1745,1812,1906
934542,10052,42452,9188,41956,-1631,-194,-602,1260,-166,814,-874,3417,70,52,926,1831,1889,2069,2278,1978,1745,1812,1906
935545,10160,42516,9253,42021,-1585,-143,-600,1325,-130,579,-926,3435,53,42,926,1831,1889,2069,2278,1978,1745,1812,1906
936544,10256,42592,9318,42086,-1473,-306,-593,1405,-90,609,-948,3512,65,36,927,1831,1889,2069,2278,1978,1745,1812,1906
937545,10372,42636,9383,42151,-1785,119,-596,1434,-65,796,-876,3478,64,39,927,1784,1842,2020,2216,1945,1728,1797,1910
938546,10464,42700,9448,42216,-1519,-129,-587,1464,-18,291,-1017,3563,67,44,924,1784,1842,2020,2216,1945,1728,1797,1910
939547,10580,42772,9513,42281,-1881,-239,-587,1493,-6,281,-1225,3187,69,39,926,1784,1842,2020,2216,1945,1728,1797,1910
940548,10700,42832,9578,42346,-1998,-83,-588,1512,-5,311,-1513,3378,55,42,927,1784,1842,2020,2216,1945,1728,1797,1910
941549,10808,42880,9643,42411,-1902,88,-590,1487,-25,174,-1755,3061,55,43,926,1784,1842,2020,2216,1945,1728,1797,1910
942550,10924,42932,9708,42476,-2064,54,-570,1369,-47,150,-2034,3184,64,49,927,1784,1842,2020,2216,1945,1728,1797,1910
943551,11044,42996,9773,42541,-2182,-95,-521,1103,-75,-464,-2189,3590,55,52,927,1763,1825,2018,2234,2021,1791,1864,1977
944552,11164,43060,9838,42606,-2249,-95,-475,809,-118,-1162,-2018,3924,74,46,928,1763,1825,2018,2234,2021,1791,1864,1977
945553,11272,43120,9903,42671,-2153,-39,-429,566,-128,-1289,-2348,4802,54,44,927,1763,1825,2018,2234,2021,1791,1864,1977
946554,11400,43184,9968,42736,-2480,-87,-374,328,-125,-690,-2101,4641,54,54,927,1763,1825,2018,2234,2021,1791,1864,1977
947555,11512,43264,10033,42801,-2338,-306,-317,189,-118,-288,-1884,4993,54,46,916,1763,1825,2018,2234,2021,1791,1864,1977
948556,11632,43332,10098,42866,-2505,-159,-296,169,-112,668,-2315,4819,59,47,927,1824,1913,2083,2319,2088,1838,1976,2116
949557,11736,43384,10163,42931,-2354,57,-309,280,-71,1614,-1879,5252,72,40,926,1824,1913,2083,2319,2088,1838,1976,2116
950558,11856,43436,10362,43130,-2458,235,-329,436,-28,1431,-2544,4620,68,50,927,1824,1913,2083,2319,2088,1838,1976,2116
951559,11964,43468,10427,43195,-2361,525,-317,534,16,1291,-2558,5082,71,50,918,1824,1913,2083,2319,2088,1838,1976,2116
952560,12068,43504,10492,43260,-2359,511,-336,540,67,366,-2741,5012,70,37,927,1824,1913,2083,2319,2088,1838,1976,2116
953561,12168,43568,10557,43325,-2352,162,-365,469,80,-60,-2655,5302,64,42,925,1824,1913,2083,2319,2088,1838,1976,2116
954562,12276,43648,10622,43390,-2506,-56,-406,342,65,-789,-2634,5361,54,52,925,1991,2119,2220,2450,2127,1868,2035,2174
955563,12396,43708,10687,43455,-2724,200,-451,153,22,-1045,-2486,5762,59,54,923,1991,2119,2220,2450,2127,1868,2035,2174
956564,12508,43796,10752,43520,-2681,-178,-497,-130,-2,-1475,-2787,5453,64,46,927,1991,2119,2220,2450,2127,1868,2035,2174
957565,12608,43884,10817,43585,-2575,-206,-535,-441,-23,-1680,-2643,5303,67,53,927,1991,2119,2220,2450,2127,1868,2035,2174
958566,12704,43932,10882,43650,-2564,314,-580,-632,-84,-571,-2658,5483,54,45,927,1991,2119,2220,2450,2127,1868,2035,2174
959567,12816,44016,10947,43715,-2821,-160,-623,-727,-171,-54,-3034,5595,64,38,925,2030,2134,2240,2452,2178,1904,2042,2201
960568,12900,44068,11012,43780,-2495,256,-642,-848,-228,74,-3494,5129,63,46,927,2030,2134,2240,2452,2178,1904,2042,2201
961569,12988,44148,11077,43845,-2574,-112,-654,-923,-264,-905,-4075,6520,53,42,927,2030,2134,2240,2452,2178,1904,2042,2201
962570,13076,44208,11142,43910,-2602,144,-652,-961,-290,-558,-4046,6614,70,41,927,2030,2134,2240,2452,2178,1904,2042,2201
963571,13188,44260,11207,43975,-2961,260,-612,-1060,-296,-452,-4276,6600,68,37,926,2030,2134,2240,2452,2178,1904,2042,2201
964572,13288,44356,11272,44040,-2854,-328,-546,-1242,-320,-1047,-3719,6091,60,46,927,2030,2134,2240,2452,2178,1904,2042,2201
965573,13380,44404,11337,44105,-2788,293,-572,-1078,-254,-2317,-2769,6622,62,44,927,1918,2018,2160,2340,2217,1939,2037,2190
966574,13476,44444,11402,44170,-2876,423,-693,-938,-336,3131,-2079,3445,49,44,926,1918,2018,2160,2340,2217,1939,2037,2190
967575,13568,44508,11467,44235,-2860,124,-738,-848,-272,574,-3676,6531,67,46,926,1918,2018,2160,2340,2217,1939,2037,2190
968576,13652,44584,11532,44300,-2784,-40,-850,-702,-342,-186,-2838,4409,67,50,926,1918,2018,2160,2340,2217,1939,2037,2190
969577,13756,44660,11597,44365,-3083,-54,-883,-577,-339,-110,-2994,5765,43,45,928,1918,2018,2160,2340,2217,1939,2037,2190
970578,13856,44716,11662,44430,-3077,207,-893,-639,-289,-390,-2817,5156,53,42,928,1833,1915,2078,2291,2185,1951,2013,2102
971579,13916,44788,11727,44495,-2572,-1,-816,-640,-240,-1665,-3221,5910,41,39,927,1833,1915,2078,2291,2185,1951,2013,2102
972580,14016,44860,11792,44560,-3114,-10,-733,-680,-172,-1851,-2779,5675,55,46,926,1833,1915,2078,2291,2185,1951,2013,2102
973581,14096,44932,11857,44625,-2884,-18,-597,-675,-76,-1083,-3000,5872,42,45,927,1833,1915,2078,2291,2185,1951,2013,2102
974582,14176,45004,11922,44690,-2903,-27,-523,-634,18,-738,-2570,5479,55,39,928,1833,1915,2078,2291,2185,1951,2013,2102
975583,14252,45052,11987,44755,-2867,294,-536,-558,73,-1053,-2419,5140,41,32,928,1833,1915,2078,2291,2185,1951,2013,2102
976584,14320,45108,12052,44820,-2772,204,-557,-424,90,-377,-2267,4696,42,42,928,1775,1828,2033,2318,2112,1883,1936,1976
977585,14388,45172,12117,44885,-2777,105,-573,-294,97,99,-2265,4674,45,32,927,1775,1828,2033,2318,2112,1883,1936,1976
978586,14456,45216,12182,44950,-2781,381,-584,-181,85,-71,-2362,4739,32,27,927,1775,1828,2033,2318,2112,1883,1936,1976
979587,14520,45264,12247,45015,-2730,352,-593,-98,73,-528,-2417,4348,48,35,927,1775,1828,2033,2318,2112,1883,1936,1976
980588,14584,45344,12312,45080,-2730,-67,-581,-16,57,-164,-2408,4427,34,27,926,1775,1828,2033,2318,2112,1883,1936,1976
981589,14640,45372,12377,45145,-2620,628,-581,106,51,-63,-2438,4745,29,28,927,1909,1930,2127,2447,1988,1778,1852,1904
982590,14712,45436,12442,45210,-2829,180,-592,214,53,12,-2270,4469,29,35,924,1909,1930,2127,2447,1988,1778,1852,1904
983591,14764,45484,12507,45275,-2565,400,-597,334,70,142,-2305,4226,25,29,919,1909,1930,2127,2447,1988,1778,1852,1904
984592,14836,45544,12572,45340,-2824,256,-580,475,104,-85,-2315,4240,35,28,926,1909,1930,2127,2447,1988,1778,1852,1904
985593,14868,45608,12637,45405,-2285,208,-570,610,146,-131,-2230,4232,37,41,927,1909,1930,2127,2447,1988,1778,1852,1904
986594,14932,45656,12702,45470,-2685,428,-541,766,215,-181,-2312,4448,20,28,927,1909,1930,2127,2447,1988,1778,1852,1904
987595,14964,45700,12767,45535,-2244,503,-482,879,299,-190,-2220,4493,39,31,922,1995,2016,2191,2463,1936,1732,1822,1908
988596,15008,45756,12832,45600,-2370,364,-409,914,396,-525,-2194,4185,19,42,924,1995,2016,2191,2463,1936,1732,1822,1908
989597,15048,45804,12897,45665,-2290,485,-338,952,481,-705,-2005,4265,21,30,926,1995,2016,2191,2463,1936,1732,1822,1908
990598,15080,45868,12962,45730,-2151,286,-262,927,548,-760,-1895,3968,26,30,925,1995,2016,2191,2463,1936,1732,1822,1908
991599,15120,45940,13027,45795,-2221,177,-180,851,615,-1026,-1637,4108,18,44,925,1995,2016,2191,2463,1936,1732,1822,1908
992600,15156,45996,13092,45860,-2136,388,-103,794,672,-1020,-1448,4093,13,40,927,1945,1997,2153,2382,1955,1728,1839,1941
993601,15192,46060,13157,45925,-2102,290,-30,771,705,-600,-1246,3998,24,33,926,1945,1997,2153,2382,1955,1728,1839,1941
994602,15220,46124,13222,45990,-1957,291,43,699,748,-363,-828,3836,28,40,926,1945,1997,2153,2382,1955,1728,1839,1941
995603,15240,46172,13287,46055,-1804,512,119,627,757,-358,-647,3797,9,40,926,1945,1997,2153,2382,1955,1728,1839,1941
996604,15272,46244,13352,46120,-1914,203,180,624,732,65,-503,3727,21,29,925,1945,1997,2153,2382,1955,1728,1839,1941
997605,15288,46308,13417,46185,-1654,304,249,597,704,374,-324,3356,23,38,927,1945,1997,2153,2382,1955,1728,1839,1941
998606,15304,46372,13482,46250,-1596,306,304,517,675,294,-302,3233,6,32,926,1892,1964,2094,2312,1972,1738,1852,1960
999607,15328,46432,13547,46315,-1647,362,372,469,649,312,-241,3480,6,38,926,1892,1964,2094,2312,1972,1738,1852,1960
1000608,15324,46504,13612,46380,-1212,203,431,397,628,429,-165,3162,8,29,926,1892,1964,2094,2312,1972,1738,1852,1960
1001609,15340,46556,13677,46445,-1404,469,493,295,611,326,-155,3222,1,27,927,1892,1964,2094,2312,1972,1738,1852,1960
1002610,15352,46612,13742,46510,-1290,430,555,190,610,141,-171,3215,11,40,926,1892,1964,2094,2312,1972,1738,1852,1960
1003611,15348,46684,13807,46575,-1006,221,625,29,622,-54,-186,3146,14,41,925,1860,1937,2070,2265,1954,1720,1824,1943
1004612,15368,46748,13872,46640,-1252,323,698,-101,633,38,-213,3291,7,27,927,1860,1937,2070,2265,1954,1720,1824,1943
1005613,15356,46800,13937,46705,-758,489,755,-245,648,24,-228,3137,-6,41,926,1860,1937,2070,2265,1954,1720,1824,1943
1006614,15360,46860,14002,46770,-884,394,805,-358,659,-170,-326,3216,6,32,924,1860,1937,2070,2265,1954,1720,1824,1943
1007615,15352,46940,14067,46835,-646,125,839,-460,678,-83,-271,3131,5,27,926,1860,1937,2070,2265,1954,1720,1824,1943
1008616,15356,47000,14132,46900,-722,381,886,-552,703,-181,-351,3156,3,39,927,1860,1937,2070,2265,1954,1720,1824,1943
1009617,15348,47052,14197,46965,-483,497,913,-635,723,-192,-299,3018,-6,32,926,1850,1928,2091,2267,1922,1698,1792,1929
1010618,15344,47136,14262,47030,-449,74,931,-709,720,36,-350,2910,-8,35,925,1850,1928,2091,2267,1922,1698,1792,1929
1011619,15356,47204,14327,47095,-585,270,934,-805,714,-291,-233,2794,8,39,927,1850,1928,2091,2267,1922,1698,1792,1929
1012620,15336,47276,14392,47160,-82,212,946,-859,675,-355,-132,2889,-4,29,927,1850,1928,2091,2267,1922,1698,1792,1929
1013621,15340,47320,14457,47225,-307,588,913,-731,584,379,-408,2577,-6,38,927,1850,1928,2091,2267,1922,1698,1792,1929
1014622,15336,47376,14522,47290,-123,449,903,-626,499,873,-291,2366,-6,39,924,1865,1949,2112,2285,1943,1715,1799,1940
1015623,15340,47436,14587,47355,-150,405,884,-709,440,-125,-278,2256,5,37,919,1865,1949,2112,2285,1943,1715,1799,1940
1016624,15336,47488,14652,47420,35,520,889,-763,380,-414,-94,2548,-9,25,917,1865,1949,2112,2285,1943,1715,1799,1940
1017625,15328,47548,14717,47485,174,427,890,-869,330,-524,40,2369,-2,23,925,1865,1949,2112,2285,1943,1715,1799,1940
1018626,15324,47620,14782,47550,207,268,893,-986,286,-751,239,2201,-10,35,925,1865,1949,2112,2285,1943,1715,1799,1940
1019627,15324,47684,14847,47615,236,369,908,-990,240,-715,323,2828,1,23,926,1865,1949,2112,2285,1943,1715,1799,1940
