%  Data file recorded 2016/9/29  17:18:9
%  Stride Frequency         = [1, 1]
%  Lead In /Lead Out        = 
%  Deltas (Fractional)      = [0.25, 0.25, 0.25],[0.25, 0.25, 0.25]
%  Phase                    = 32768
%  Experiment.py 
%  Motor Gains    = [5000, 400, 200, 0, 300, 5000, 400, 200, 0, 300]
% Columns: 
% time | Right Leg Pos | Left Leg Pos | Commanded Right Leg Pos | Commanded Left Leg Pos | DCR | DCL | GyroX | GyroY | GyroZ | AX | AY | AZ | RBEMF | LBEMF | VBatt | S1 | S2 | S3 | S4 | S5 | S6 | S7 | S8
457,18592,-15556,17904,-14864,3800,3800,14,18,-43,-61,192,3926,-3,2,876,1789,1883,2083,2255,2019,1807,1858,1976
1458,18588,-15556,17904,-14864,3800,3800,14,20,-45,-59,216,3915,-7,9,875,1789,1883,2083,2255,2019,1807,1858,1976
2459,18588,-15548,17904,-14864,3800,3800,14,17,-44,-70,205,3941,-7,-6,875,1789,1883,2083,2255,2019,1807,1858,1976
3460,18588,-15532,17904,-14864,3800,3800,13,17,-45,-60,212,3971,-4,9,875,1789,1883,2083,2255,2019,1807,1858,1976
4461,18592,-15548,17904,-14864,3800,3800,14,18,-45,-67,209,3978,-6,3,875,1790,1885,2083,2257,2021,1806,1857,1974
5462,18596,-15556,17904,-14864,3800,3800,16,21,-44,-87,200,3948,-6,-2,875,1790,1885,2083,2257,2021,1806,1857,1974
6463,18588,-15548,17904,-14864,3800,3800,15,21,-43,-90,187,3938,-7,8,875,1790,1885,2083,2257,2021,1806,1857,1974
7464,18588,-15556,17904,-14864,3800,3800,16,22,-45,-85,184,3924,-4,-2,875,1790,1885,2083,2257,2021,1806,1857,1974
8465,18592,-15556,17904,-14864,3800,3800,17,20,-45,-80,198,3924,2,5,875,1790,1885,2083,2257,2021,1806,1857,1974
9466,18592,-15552,17904,-14864,3800,3800,16,20,-45,-70,194,3940,2,0,875,1790,1885,2085,2257,2023,1807,1855,1975
10467,18592,-15544,17904,-14864,3800,3800,14,20,-47,-92,169,3938,10,-5,875,1790,1885,2085,2257,2023,1807,1855,1975
11468,18596,-15548,17904,-14864,3800,3800,11,21,-47,-86,168,3960,12,8,875,1790,1885,2085,2257,2023,1807,1855,1975
12469,18592,-15552,17904,-14864,3800,3800,11,21,-45,-99,187,3936,11,-4,875,1790,1885,2085,2257,2023,1807,1855,1975
13470,18592,-15548,17904,-14864,3800,3800,11,22,-45,-75,177,3918,11,-2,875,1790,1885,2085,2257,2023,1807,1855,1975
14471,18604,-15560,17904,-14864,3800,3800,13,22,-46,-81,190,3906,12,8,875,1790,1885,2085,2257,2023,1807,1855,1975
15472,18588,-15556,17904,-14864,3800,3800,15,21,-45,-90,206,3916,12,-6,875,1789,1885,2084,2258,2022,1807,1857,1976
16473,18588,-15556,17904,-14864,3800,3800,14,20,-48,-99,204,3886,12,-1,875,1789,1885,2084,2258,2022,1807,1857,1976
17474,18588,-15548,17904,-14864,3800,3800,13,22,-46,-105,198,3933,12,9,875,1789,1885,2084,2258,2022,1807,1857,1976
18475,18592,-15564,17904,-14864,3800,3800,15,21,-45,-90,194,3956,10,-2,874,1789,1885,2084,2258,2022,1807,1857,1976
19476,18592,-15552,17904,-14864,3800,3800,11,22,-45,-75,199,3928,12,-4,874,1789,1885,2084,2258,2022,1807,1857,1976
20477,18596,-15556,17904,-14864,3800,3800,12,22,-45,-86,222,3939,13,7,875,1790,1884,2085,2255,2021,1805,1855,1971
21478,18588,-15548,17904,-14864,3800,3800,12,22,-45,-106,215,3939,11,-6,875,1790,1884,2085,2255,2021,1805,1855,1971
22479,18588,-15564,17904,-14864,3800,3800,12,20,-43,-122,208,3922,12,6,875,1790,1884,2085,2255,2021,1805,1855,1971
23480,18588,-15548,17904,-14864,3800,3800,13,19,-42,-116,194,3943,12,1,875,1790,1884,2085,2255,2021,1805,1855,1971
24481,18592,-15544,17904,-14864,3800,3800,14,22,-40,-97,187,3949,10,-3,875,1790,1884,2085,2255,2021,1805,1855,1971
25482,18596,-15552,17904,-14864,3800,3800,13,22,-45,-105,194,3937,12,7,875,1790,1884,2085,2255,2021,1805,1855,1971
26483,18600,-15552,17904,-14864,3800,3800,12,19,-46,-77,207,3934,10,3,875,1789,1885,2083,2257,2022,1806,1857,1974
27484,18588,-15552,17904,-14864,3800,3800,12,19,-47,-72,203,3938,11,-5,875,1789,1885,2083,2257,2022,1806,1857,1974
28485,18608,-15556,17904,-14864,3800,3800,13,21,-46,-90,206,3910,8,2,875,1789,1885,2083,2257,2022,1806,1857,1974
29486,18592,-15552,17904,-14864,3800,3800,12,24,-47,-97,209,3912,7,8,875,1789,1885,2083,2257,2022,1806,1857,1974
30487,18596,-15544,17904,-14864,3800,3800,14,23,-47,-112,178,3945,10,-5,875,1789,1885,2083,2257,2022,1806,1857,1974
31488,18588,-15548,17904,-14864,3800,3800,13,18,-46,-117,201,3951,-2,4,876,1790,1886,2084,2257,2022,1805,1857,1975
32489,18588,-15544,17904,-14864,3800,3800,14,18,-47,-76,199,3918,-7,2,876,1790,1886,2084,2257,2022,1805,1857,1975
33490,18592,-15552,17904,-14864,3800,3800,12,19,-49,-71,192,3932,-7,-1,875,1790,1886,2084,2257,2022,1805,1857,1975
34491,18592,-15544,17904,-14864,3800,3800,11,20,-48,-79,202,3941,-7,9,876,1790,1886,2084,2257,2022,1805,1857,1975
35493,18592,-15548,17904,-14864,3800,3800,12,20,-47,-78,174,3912,-6,-5,875,1790,1886,2084,2257,2022,1805,1857,1975
36493,18592,-15568,17904,-14864,3800,3800,13,20,-47,-71,181,3930,-6,9,874,1790,1886,2084,2257,2022,1805,1857,1975
37494,18592,-15556,17904,-14864,3800,3800,13,20,-47,-87,194,3963,-6,-4,875,1790,1888,2085,2257,2021,1805,1856,1974
38495,18588,-15548,17904,-14864,3800,3800,15,19,-47,-93,201,3958,-4,4,876,1790,1888,2085,2257,2021,1805,1856,1974
39496,18584,-15540,17904,-14864,3800,3800,15,19,-46,-86,211,3958,-4,5,876,1790,1888,2085,2257,2021,1805,1856,1974
40497,18584,-15548,17904,-14864,3800,3800,12,20,-47,-79,195,3944,-2,-3,876,1790,1888,2085,2257,2021,1805,1856,1974
41498,18584,-15552,17904,-14864,3800,3800,13,21,-47,-79,206,3957,2,-1,875,1790,1888,2085,2257,2021,1805,1856,1974
42499,18592,-15556,17904,-14864,3800,3800,14,21,-45,-65,192,3919,-4,8,875,1789,1885,2083,2257,2021,1806,1856,1974
43500,18600,-15544,17904,-14864,3800,3800,14,21,-46,-52,190,3948,-4,-4,875,1789,1885,2083,2257,2021,1806,1856,1974
44501,18588,-15552,17904,-14864,3800,3800,16,21,-45,-50,178,3955,-5,3,875,1789,1885,2083,2257,2021,1806,1856,1974
45502,18596,-15548,17904,-14864,3800,3800,16,21,-46,-59,174,3917,-7,6,875,1789,1885,2083,2257,2021,1806,1856,1974
46503,18592,-15540,17904,-14864,3800,3800,13,20,-48,-107,186,3909,-7,-3,875,1789,1885,2083,2257,2021,1806,1856,1974
47504,18580,-15556,17904,-14864,3800,3800,14,20,-48,-83,173,3905,-3,0,876,1789,1885,2083,2257,2021,1806,1856,1974
48505,18592,-15544,17904,-14864,3800,3800,16,19,-46,-75,191,3923,-5,5,875,1790,1885,2084,2256,2022,1805,1856,1974
49506,18584,-15552,17904,-14864,3800,3800,17,18,-47,-61,193,3920,0,-6,875,1790,1885,2084,2256,2022,1805,1856,1974
50507,18592,-15560,17904,-14864,3800,3800,15,17,-47,-75,209,3915,-2,8,876,1790,1885,2084,2256,2022,1805,1856,1974
51508,18596,-15552,17904,-14864,3800,3800,15,19,-48,-103,222,3933,2,-1,875,1790,1885,2084,2256,2022,1805,1856,1974
52509,18584,-15560,17904,-14864,3800,3800,17,21,-46,-86,203,3950,11,-6,875,1790,1885,2084,2256,2022,1805,1856,1974
53510,18584,-15544,17904,-14864,3800,3800,17,19,-46,-63,189,3934,10,9,874,1789,1885,2083,2257,2022,1805,1856,1974
54511,18592,-15552,17904,-14864,3800,3800,15,19,-48,-66,193,3913,5,-5,875,1789,1885,2083,2257,2022,1805,1856,1974
55512,18592,-15556,17904,-14864,3800,3800,15,19,-47,-68,181,3936,-7,-3,875,1789,1885,2083,2257,2022,1805,1856,1974
56513,18592,-15548,17904,-14864,3800,3800,16,21,-46,-54,182,3923,3,9,875,1789,1885,2083,2257,2022,1805,1856,1974
57514,18592,-15552,17904,-14864,3800,3800,15,22,-45,-55,194,3934,10,2,875,1789,1885,2083,2257,2022,1805,1856,1974
58515,18580,-15552,17904,-14864,3800,3800,16,21,-46,-89,208,3946,12,-6,875,1789,1885,2083,2257,2022,1805,1856,1974
59516,18592,-15540,17904,-14864,3800,3800,17,23,-45,-77,221,3914,6,5,875,1790,1886,2084,2258,2024,1808,1856,1974
60517,18588,-15544,17904,-14864,3800,3800,16,23,-46,-70,217,3918,9,0,875,1790,1886,2084,2258,2024,1808,1856,1974
61518,18592,-15556,17904,-14864,3800,3800,16,20,-48,-75,191,3908,0,-6,875,1790,1886,2084,2258,2024,1808,1856,1974
62519,18580,-15556,17904,-14864,3800,3800,16,19,-46,-64,200,3926,-6,4,875,1790,1886,2084,2258,2024,1808,1856,1974
63520,18600,-15552,17904,-14864,3800,3800,17,20,-42,-87,190,3937,-2,7,875,1790,1886,2084,2258,2024,1808,1856,1974
64521,18596,-15564,17904,-14864,3800,3800,15,21,-43,-90,179,3945,-6,-3,875,1789,1885,2084,2257,2023,1806,1857,1975
65522,18592,-15552,17904,-14864,3800,3800,14,22,-46,-93,203,3951,-7,2,876,1789,1885,2084,2257,2023,1806,1857,1975
66523,18592,-15548,17904,-14864,3800,3800,14,20,-45,-66,208,3937,-7,3,875,1789,1885,2084,2257,2023,1806,1857,1975
67524,18592,-15548,17904,-14864,3800,3800,15,19,-46,-86,182,3930,-6,-6,875,1789,1885,2084,2257,2023,1806,1857,1975
68525,18596,-15544,17904,-14864,3800,3800,15,21,-45,-73,169,3919,-5,7,875,1789,1885,2084,2257,2023,1806,1857,1975
69526,18592,-15552,17904,-14864,3800,3800,14,22,-46,-73,194,3940,-6,3,875,1789,1885,2084,2257,2023,1806,1857,1975
70527,18588,-15560,17904,-14864,3800,3800,13,21,-47,-92,212,3912,-6,-5,874,1791,1886,2086,2260,2024,1808,1858,1976
71528,18596,-15552,17904,-14864,3800,3800,14,19,-46,-89,200,3937,-5,7,876,1791,1886,2086,2260,2024,1808,1858,1976
72529,18592,-15548,17904,-14864,3800,3800,14,18,-45,-61,181,3925,-7,-5,876,1791,1886,2086,2260,2024,1808,1858,1976
73530,18596,-15544,17904,-14864,3800,3800,13,19,-44,-62,178,3947,-5,6,875,1791,1886,2086,2260,2024,1808,1858,1976
74531,18584,-15552,17904,-14864,3800,3800,14,21,-40,-96,200,3946,1,-1,875,1791,1886,2086,2260,2024,1808,1858,1976
75532,18584,-15552,17904,-14864,3800,3800,15,22,-42,-88,217,3944,0,2,875,1789,1885,2084,2256,2022,1805,1856,1974
76533,18588,-15556,17904,-14864,3800,3800,14,21,-43,-107,213,3943,6,9,875,1789,1885,2084,2256,2022,1805,1856,1974
77534,18576,-15552,17904,-14864,3800,3800,12,20,-41,-118,202,3967,12,-4,875,1789,1885,2084,2256,2022,1805,1856,1974
78535,18588,-15556,17904,-14864,3800,3800,12,19,-43,-87,188,3943,11,4,875,1789,1885,2084,2256,2022,1805,1856,1974
79536,18592,-15564,17904,-14864,3800,3800,15,20,-44,-58,188,3915,12,9,875,1789,1885,2084,2256,2022,1805,1856,1974
80537,18592,-15548,17904,-14864,3800,3800,16,19,-44,-59,180,3904,10,-6,875,1789,1885,2084,2256,2022,1805,1856,1974
81538,18592,-15548,17904,-14864,3800,3800,14,19,-42,-85,190,3928,7,8,875,1787,1883,2082,2255,2023,1806,1858,1976
82539,18588,-15552,17904,-14864,3800,3800,13,23,-43,-93,181,3910,-4,5,875,1787,1883,2082,2255,2023,1806,1858,1976
83540,18584,-15556,17904,-14864,3800,3800,13,22,-46,-94,183,3917,-7,-4,875,1787,1883,2082,2255,2023,1806,1858,1976
84541,18588,-15560,17904,-14864,3800,3800,14,20,-46,-83,205,3948,-6,9,876,1787,1883,2082,2255,2023,1806,1858,1976
85542,18588,-15560,17904,-14864,3800,3800,13,21,-46,-83,228,3922,-7,-5,875,1787,1883,2082,2255,2023,1806,1858,1976
86543,18584,-15548,17904,-14864,3800,3800,13,24,-45,-84,207,3955,-5,8,875,1789,1885,2084,2257,2022,1805,1856,1974
87544,18588,-15548,17904,-14864,3800,3800,13,23,-46,-100,200,3960,-5,-5,874,1789,1885,2084,2257,2022,1805,1856,1974
88545,18588,-15540,17904,-14864,3800,3800,14,21,-48,-82,195,3940,-4,9,875,1789,1885,2084,2257,2022,1805,1856,1974
89546,18596,-15560,17904,-14864,3800,3800,13,19,-49,-76,220,3913,-6,-4,875,1789,1885,2084,2257,2022,1805,1856,1974
90547,18584,-15548,17904,-14864,3800,3800,13,19,-47,-93,228,3926,-6,4,875,1789,1885,2084,2257,2022,1805,1856,1974
91548,18588,-15556,17904,-14864,3800,3800,13,19,-43,-92,197,3953,-6,8,875,1789,1885,2084,2257,2022,1805,1856,1974
92549,18600,-15548,17904,-14864,3800,3800,15,20,-46,-87,182,3915,-6,-5,875,1789,1885,2085,2257,2023,1805,1854,1973
93550,18596,-15556,17904,-14864,3800,3800,15,22,-47,-97,192,3914,-5,9,875,1789,1885,2085,2257,2023,1805,1854,1973
94551,18588,-15552,17904,-14864,3800,3800,12,21,-45,-90,195,3927,-4,-1,875,1789,1885,2085,2257,2023,1805,1854,1973
95552,18584,-15544,17904,-14864,3800,3800,12,18,-42,-89,196,3943,0,0,875,1789,1885,2085,2257,2023,1805,1854,1973
96553,18604,-15556,17904,-14864,3800,3800,13,18,-45,-109,211,3932,12,6,875,1789,1885,2085,2257,2023,1805,1854,1973
97554,18592,-15548,17904,-14864,3800,3800,13,19,-48,-82,204,3946,12,-4,875,1789,1885,2085,2257,2022,1805,1856,1975
98555,18584,-15560,17904,-14864,3800,3800,15,19,-48,-87,183,3939,12,3,875,1789,1885,2085,2257,2022,1805,1856,1975
99556,18600,-15552,17904,-14864,3800,3800,16,18,-47,-92,189,3926,13,7,875,1789,1885,2085,2257,2022,1805,1856,1975
100557,18596,-15552,17904,-14864,3800,3800,16,19,-47,-103,195,3952,12,-3,875,1789,1885,2085,2257,2022,1805,1856,1975
101558,18580,-15556,17904,-14864,3800,3800,16,20,-46,-80,205,3971,11,1,875,1789,1885,2085,2257,2022,1805,1856,1975
102559,18592,-15544,17904,-14864,3800,3800,15,20,-50,-55,200,3954,12,7,876,1789,1885,2085,2257,2022,1805,1856,1975
103560,18584,-15548,17904,-14864,3800,3800,14,20,-49,-89,204,3930,12,-5,875,1790,1885,2084,2257,2023,1805,1856,1974
104561,18576,-15560,17904,-14864,3800,3800,15,18,-50,-97,190,3937,12,9,874,1790,1885,2084,2257,2023,1805,1856,1974
105562,18588,-15548,17904,-14864,3800,3800,16,19,-47,-76,198,3944,12,-4,875,1790,1885,2084,2257,2023,1805,1856,1974
106563,18580,-15556,17904,-14864,3800,3800,17,22,-46,-79,217,3931,12,8,875,1790,1885,2084,2257,2023,1805,1856,1974
107564,18592,-15544,17904,-14864,3800,3800,14,23,-48,-78,211,3936,13,1,875,1790,1885,2084,2257,2023,1805,1856,1974
108565,18592,-15564,17904,-14864,3800,3800,13,21,-47,-68,200,3969,9,0,875,1789,1885,2084,2257,2023,1806,1857,1974
109566,18596,-15552,17904,-14864,3800,3800,15,19,-47,-99,213,3954,11,9,875,1789,1885,2084,2257,2023,1806,1857,1974
110567,18588,-15552,17904,-14864,3800,3800,15,20,-48,-115,181,3938,12,-4,875,1789,1885,2084,2257,2023,1806,1857,1974
111568,18592,-15540,17904,-14864,3800,3800,16,22,-47,-106,184,3923,12,4,875,1789,1885,2084,2257,2023,1806,1857,1974
112569,18596,-15544,17904,-14864,3800,3800,16,20,-45,-87,177,3935,7,9,875,1789,1885,2084,2257,2023,1806,1857,1974
113570,18600,-15560,17904,-14864,3800,3800,17,20,-46,-84,193,3899,0,-5,875,1789,1885,2084,2257,2023,1806,1857,1974
114571,18596,-15564,17904,-14864,3800,3800,17,18,-45,-59,176,3927,1,3,875,1789,1886,2084,2257,2024,1806,1857,1974
115572,18588,-15564,17904,-14864,3800,3800,16,18,-45,-56,172,3938,-6,7,875,1789,1886,2084,2257,2024,1806,1857,1974
116573,18596,-15556,17904,-14864,3800,3800,14,20,-45,-59,188,3973,-6,-5,875,1789,1886,2084,2257,2024,1806,1857,1974
117574,18600,-15560,17904,-14864,3800,3800,14,21,-46,-69,183,3947,-6,9,875,1789,1886,2084,2257,2024,1806,1857,1974
118575,18592,-15552,17904,-14864,3800,3800,15,19,-46,-76,188,3916,1,-1,875,1789,1886,2084,2257,2024,1806,1857,1974
119576,18596,-15560,17904,-14864,3800,3800,16,21,-46,-88,204,3911,11,1,875,1788,1884,2085,2256,2023,1805,1857,1974
120577,18584,-15536,17904,-14864,3800,3800,13,21,-45,-91,192,3949,12,4,875,1788,1884,2085,2256,2023,1805,1857,1974
121578,18596,-15556,17904,-14864,3800,3800,13,21,-43,-93,191,3945,6,-6,874,1788,1884,2085,2256,2023,1805,1857,1974
122579,18596,-15548,17904,-14864,3800,3800,13,21,-44,-82,190,3962,-1,5,875,1788,1884,2085,2256,2023,1805,1857,1974
123580,18580,-15556,17904,-14864,3800,3800,13,20,-44,-86,189,3956,-1,-2,875,1788,1884,2085,2256,2023,1805,1857,1974
124581,18588,-15556,17904,-14864,3800,3800,14,21,-43,-99,214,3935,-5,9,875,1788,1884,2085,2256,2023,1805,1857,1974
125582,18596,-15548,17904,-14864,3800,3800,13,21,-44,-69,195,3948,-6,-4,875,1789,1885,2084,2257,2023,1805,1857,1975
126583,18596,-15556,17904,-14864,3800,3800,14,21,-42,-68,186,3938,0,3,875,1789,1885,2084,2257,2023,1805,1857,1975
127584,18592,-15556,17904,-14864,3800,3800,13,22,-44,-86,203,3943,11,6,875,1789,1885,2084,2257,2023,1805,1857,1975
128585,18596,-15560,17904,-14864,3800,3800,11,23,-45,-75,193,3940,12,-4,875,1789,1885,2084,2257,2023,1805,1857,1975
129586,18580,-15544,17904,-14864,3800,3800,12,22,-46,-68,193,3923,13,8,875,1789,1885,2084,2257,2023,1805,1857,1975
130587,18592,-15560,17904,-14864,3800,3800,14,22,-43,-89,176,3925,12,-5,875,1789,1885,2085,2257,2024,1806,1857,1975
131588,18588,-15556,17904,-14864,3800,3800,13,22,-43,-83,225,3910,11,9,875,1789,1885,2085,2257,2024,1806,1857,1975
132589,18592,-15552,17904,-14864,3800,3800,11,21,-43,-88,200,3936,12,-6,875,1789,1885,2085,2257,2024,1806,1857,1975
133590,18592,-15544,17904,-14864,3800,3800,11,20,-42,-105,184,3902,12,7,875,1789,1885,2085,2257,2024,1806,1857,1975
134591,18576,-15552,17904,-14864,3800,3800,14,21,-45,-106,205,3903,13,0,875,1789,1885,2085,2257,2024,1806,1857,1975
135593,18592,-15568,17904,-14864,3800,3800,15,20,-42,-75,200,3901,12,2,876,1789,1885,2085,2257,2024,1806,1857,1975
136593,18596,-15552,17904,-14864,3800,3800,15,19,-45,-54,211,3962,11,8,875,1790,1886,2085,2257,2023,1806,1856,1974
137594,18584,-15552,17904,-14864,3800,3800,14,20,-47,-105,208,3962,9,-5,875,1790,1886,2085,2257,2023,1806,1856,1974
138595,18596,-15544,17904,-14864,3800,3800,14,21,-45,-83,211,3965,11,8,874,1790,1886,2085,2257,2023,1806,1856,1974
139596,18588,-15552,17904,-14864,3800,3800,11,20,-43,-77,207,3934,12,-5,875,1790,1886,2085,2257,2023,1806,1856,1974
140597,18588,-15552,17904,-14864,3800,3800,12,18,-43,-77,203,3935,13,8,875,1790,1886,2085,2257,2023,1806,1856,1974
141598,18588,-15564,17904,-14864,3800,3800,15,17,-46,-71,195,3929,12,-4,875,1789,1884,2084,2257,2022,1805,1856,1974
142599,18580,-15560,17904,-14864,3800,3800,15,17,-47,-93,210,3927,9,9,875,1789,1884,2084,2257,2022,1805,1856,1974
143600,18588,-15548,17904,-14864,3800,3800,15,19,-45,-95,179,3932,-3,-6,876,1789,1884,2084,2257,2022,1805,1856,1974
144601,18592,-15536,17904,-14864,3800,3800,14,21,-44,-86,176,3955,-4,8,875,1789,1884,2084,2257,2022,1805,1856,1974
145602,18592,-15560,17904,-14864,3800,3800,15,21,-45,-94,181,3924,-4,-5,875,1789,1884,2084,2257,2022,1805,1856,1974
146603,18600,-15552,17904,-14864,3800,3800,16,23,-45,-82,179,3912,-7,7,875,1789,1885,2083,2257,2022,1805,1856,1974
147604,18588,-15548,17904,-14864,3800,3800,16,23,-43,-70,185,3929,-4,-3,875,1789,1885,2083,2257,2022,1805,1856,1974
148605,18588,-15552,17904,-14864,3800,3800,16,23,-43,-104,185,3922,-7,9,875,1789,1885,2083,2257,2022,1805,1856,1974
149606,18596,-15544,17904,-14864,3800,3800,14,20,-42,-88,187,3935,-7,-6,875,1789,1885,2083,2257,2022,1805,1856,1974
150607,18596,-15548,17904,-14864,3800,3800,14,18,-44,-66,198,3908,-2,9,875,1789,1885,2083,2257,2022,1805,1856,1974
151608,18588,-15552,17904,-14864,3800,3800,16,18,-44,-58,197,3934,5,-5,875,1789,1885,2083,2257,2022,1805,1856,1974
152609,18592,-15556,17904,-14864,3800,3800,17,21,-47,-75,190,3908,5,8,875,1791,1887,2086,2258,2024,1808,1857,1976
153610,18584,-15552,17904,-14864,3800,3800,16,21,-48,-117,177,3907,10,-5,875,1791,1887,2086,2258,2024,1808,1857,1976
154611,18596,-15552,17904,-14864,3800,3800,15,22,-47,-121,195,3924,12,6,876,1791,1887,2086,2258,2024,1808,1857,1976
155612,18592,-15552,17904,-14864,3800,3800,16,22,-45,-109,205,3916,12,-1,874,1791,1887,2086,2258,2024,1808,1857,1976
156613,18596,-15544,17904,-14864,3800,3800,16,21,-44,-84,199,3909,8,7,875,1791,1887,2086,2258,2024,1808,1857,1976
157614,18588,-15552,17904,-14864,3800,3800,16,19,-46,-80,183,3902,2,6,875,1788,1884,2083,2256,2023,1804,1856,1974
158615,18592,-15564,17904,-14864,3800,3800,15,18,-49,-61,205,3904,-3,-3,875,1788,1884,2083,2256,2023,1804,1856,1974
159616,18600,-15552,17904,-14864,3800,3800,15,19,-49,-61,197,3937,-7,8,875,1788,1884,2083,2256,2023,1804,1856,1974
160617,18580,-15556,17904,-14864,3800,3800,15,19,-49,-76,203,3942,-6,-5,875,1788,1884,2083,2256,2023,1804,1856,1974
161618,18588,-15552,17904,-14864,3800,3800,14,21,-47,-85,231,3917,-7,8,875,1788,1884,2083,2256,2023,1804,1856,1974
162621,18592,-15560,17904,-14864,3800,3800,15,22,-46,-67,187,3914,-5,-5,875,1788,1884,2083,2256,2023,1804,1856,1974
163620,18592,-15556,17904,-14864,3800,3800,16,22,-46,-84,195,3915,8,3,875,1787,1886,2084,2258,2024,1806,1857,1976
164621,18576,-15548,17904,-14864,3800,3800,16,24,-45,-69,178,3921,12,0,875,1787,1886,2084,2258,2024,1806,1857,1976
165622,18588,-15552,17904,-14864,3800,3800,16,21,-45,-83,188,3929,5,1,875,1787,1886,2084,2258,2024,1806,1857,1976
166623,18596,-15544,17904,-14864,3800,3800,15,20,-45,-97,192,3924,-2,9,875,1787,1886,2084,2258,2024,1806,1857,1976
167624,18592,-15556,17904,-14864,3800,3800,13,19,-45,-96,197,3957,-6,-5,876,1787,1886,2084,2258,2024,1806,1857,1976
168625,18592,-15552,17904,-14864,3800,3800,15,18,-45,-78,192,3929,0,9,875,1789,1885,2085,2257,2024,1805,1856,1974
169626,18596,-15552,17904,-14864,3800,3800,18,19,-45,-74,178,3937,3,-1,875,1789,1885,2085,2257,2024,1805,1856,1974
170627,18596,-15560,17904,-14864,3800,3800,16,21,-44,-67,180,3916,10,5,875,1789,1885,2085,2257,2024,1805,1856,1974
171628,18600,-15544,17904,-14864,3800,3800,15,21,-45,-98,188,3878,7,-3,875,1789,1885,2085,2257,2024,1805,1856,1974
172629,18596,-15556,17904,-14864,3800,3800,15,20,-47,-107,203,3903,-1,2,874,1789,1885,2085,2257,2024,1805,1856,1974
173630,18592,-15564,17904,-14864,3800,3800,16,19,-46,-95,211,3916,-5,-5,876,1789,1885,2085,2257,2024,1805,1856,1974
174631,18592,-15560,17904,-14864,3800,3800,17,18,-48,-83,193,3933,-2,9,875,1787,1883,2085,2258,2026,1807,1860,1976
175632,18580,-15548,17904,-14864,3800,3800,15,20,-46,-80,206,3916,1,0,875,1787,1883,2085,2258,2026,1807,1860,1976
176633,18592,-15548,17904,-14864,3800,3800,13,19,-44,-67,204,3950,6,5,875,1787,1883,2085,2258,2026,1807,1860,1976
177634,18592,-15556,17904,-14864,3800,3800,10,18,-43,-90,211,3954,12,-3,875,1787,1883,2085,2258,2026,1807,1860,1976
178635,18596,-15552,17904,-14864,3800,3800,10,16,-43,-106,185,3977,12,1,875,1787,1883,2085,2258,2026,1807,1860,1976
179636,18588,-15556,17904,-14864,3800,3800,12,19,-44,-88,185,3959,10,1,875,1788,1885,2084,2257,2024,1805,1856,1974
180637,18588,-15552,17904,-14864,3800,3800,14,19,-41,-78,180,3910,3,2,875,1788,1885,2084,2257,2024,1805,1856,1974
181638,18580,-15556,17904,-14864,3800,3800,15,19,-44,-79,199,3915,0,8,875,1788,1885,2084,2257,2024,1805,1856,1974
182639,18588,-15552,17904,-14864,3800,3800,14,19,-44,-68,195,3924,0,-5,875,1788,1885,2084,2257,2024,1805,1856,1974
183640,18588,-15560,17904,-14864,3800,3800,11,20,-42,-86,194,3919,-6,8,875,1788,1885,2084,2257,2024,1805,1856,1974
184641,18592,-15548,17904,-14864,3800,3800,14,18,-44,-81,206,3897,-6,-4,875,1788,1885,2084,2257,2024,1805,1856,1974
185642,18592,-15548,17904,-14864,3800,3800,17,22,-46,-76,198,3914,-4,4,875,1787,1885,2084,2258,2026,1806,1858,1976
186643,18592,-15548,17904,-14864,3800,3800,14,23,-46,-64,212,3933,8,2,875,1787,1885,2084,2258,2026,1806,1858,1976
187644,18588,-15552,17904,-14864,3800,3800,14,21,-45,-71,187,3920,10,-5,876,1787,1885,2084,2258,2026,1806,1858,1976
188645,18588,-15556,17904,-14864,3800,3800,13,19,-45,-70,195,3933,12,8,875,1787,1885,2084,2258,2026,1806,1858,1976
189646,18596,-15536,17904,-14864,3800,3800,11,19,-44,-68,192,3909,8,-5,874,1787,1885,2084,2258,2026,1806,1858,1976
190647,18584,-15556,17904,-14864,3800,3800,12,19,-45,-82,214,3921,4,9,875,1788,1884,2083,2256,2023,1805,1857,1974
191648,18592,-15544,17904,-14864,3800,3800,13,21,-48,-110,173,3936,-4,-5,876,1788,1884,2083,2256,2023,1805,1857,1974
192649,18588,-15540,17904,-14864,3800,3800,13,22,-47,-87,176,3929,-6,8,875,1788,1884,2083,2256,2023,1805,1857,1974
193650,18596,-15544,17904,-14864,3800,3800,14,20,-44,-81,206,3920,-6,3,875,1788,1884,2083,2256,2023,1805,1857,1974
194651,18588,-15548,17904,-14864,3800,3800,13,20,-45,-92,206,3916,-7,-1,875,1788,1884,2083,2256,2023,1805,1857,1974
195652,18580,-15556,17904,-14864,3800,3800,14,20,-46,-82,182,3944,-6,5,875,1788,1884,2083,2256,2023,1805,1857,1974
196653,18592,-15548,17904,-14864,3800,3800,15,22,-47,-77,192,3954,-6,-4,875,1789,1886,2086,2258,2024,1806,1856,1976
197654,18580,-15552,17904,-14864,3800,3800,13,22,-48,-67,197,3895,-6,7,875,1789,1886,2086,2258,2024,1806,1856,1976
198655,18588,-15552,17904,-14864,3800,3800,12,22,-45,-70,211,3918,-1,-5,875,1789,1886,2086,2258,2024,1806,1856,1976
199656,18576,-15556,17969,-14799,-166,1399,12,21,-44,-96,206,3924,-1,7,876,1789,1886,2086,2258,2024,1806,1856,1976
200657,18588,-15560,18034,-14734,-403,1483,13,21,-46,-96,193,3899,3,-1,857,1789,1886,2086,2258,2024,1806,1856,1976
201658,18596,-15544,18099,-14669,-283,1293,13,21,-50,-98,206,3936,8,10,858,1789,1885,2083,2256,2024,1804,1856,1963
202659,18588,-15488,18164,-14604,6,804,11,15,-50,-117,203,3925,-4,12,867,1789,1885,2083,2256,2024,1804,1856,1963
203660,18580,-15456,18229,-14539,95,1145,12,11,-42,-152,215,4003,9,18,871,1789,1885,2083,2256,2024,1804,1856,1963
204661,18584,-15404,18294,-14474,19,911,12,-6,-44,-221,217,4063,8,21,868,1789,1885,2083,2256,2024,1804,1856,1963
205662,18588,-15340,18359,-14409,93,762,16,-28,-51,-208,192,4025,1,30,870,1789,1885,2083,2256,2024,1804,1856,1963
206663,18592,-15284,18424,-14344,167,874,23,-32,-53,-86,193,4067,15,30,870,1789,1885,2083,2256,2024,1804,1856,1963
207664,18592,-15216,18489,-14279,297,720,21,-35,-56,-37,207,3987,-3,42,870,1789,1885,2085,2257,2025,1805,1858,1978
208665,18588,-15148,18554,-14214,431,718,18,-32,-68,-118,212,3994,13,48,870,1789,1885,2085,2257,2025,1805,1858,1978
209666,18600,-15068,18619,-14149,296,549,8,-33,-79,-99,171,3984,-1,51,870,1789,1885,2085,2257,2025,1805,1858,1978
210669,18596,-14976,18684,-14084,580,366,3,-37,-87,-141,129,3985,19,52,871,1789,1885,2085,2257,2025,1805,1858,1978
211668,18600,-14880,18749,-14019,554,280,-5,-46,-98,-168,85,4011,5,55,871,1789,1885,2085,2257,2025,1805,1858,1978
212669,18600,-14812,18814,-13954,684,626,-14,-46,-109,-191,79,4093,23,44,871,1796,1894,2092,2263,2033,1813,1867,1989
213670,18620,-14728,18879,-13889,489,403,-16,-47,-114,-159,116,3969,6,41,869,1796,1894,2092,2263,2033,1813,1867,1989
214671,18644,-14648,18944,-13824,489,435,-17,-55,-122,-264,43,4028,12,43,871,1796,1894,2092,2263,2033,1813,1867,1989
215672,18660,-14576,19009,-13759,650,527,-21,-72,-127,-257,95,4055,29,52,871,1796,1894,2092,2263,2033,1813,1867,1989
216673,18684,-14504,19074,-13694,600,518,-21,-79,-124,-319,26,4010,30,50,869,1796,1894,2092,2263,2033,1813,1867,1989
217674,18720,-14424,19139,-13629,485,400,-31,-84,-127,-283,72,3969,22,59,870,1796,1894,2092,2263,2033,1813,1867,1989
218675,18764,-14340,19204,-13564,411,328,-35,-91,-126,-374,55,4060,30,55,871,1795,1894,2091,2262,2040,1819,1873,1993
219676,18784,-14272,19269,-13499,766,524,-37,-111,-126,-397,73,4143,21,43,872,1795,1894,2091,2262,2040,1819,1873,1993
220677,18836,-14180,19334,-13434,381,191,-31,-114,-115,-431,90,4004,23,50,869,1795,1894,2091,2262,2040,1819,1873,1993
221678,18880,-14092,19399,-13369,508,214,-27,-143,-107,-318,49,4098,27,43,873,1795,1894,2091,2262,2040,1819,1873,1993
222679,18928,-14024,19464,-13304,479,460,-21,-153,-117,-299,107,4119,38,41,872,1795,1894,2091,2262,2040,1819,1873,1993
223680,18996,-13956,19529,-13239,225,457,-24,-161,-117,-310,19,4087,31,54,871,1789,1888,2083,2255,2038,1816,1871,1990
224681,19024,-13856,19594,-13174,770,14,-20,-139,-117,-148,83,4200,29,42,873,1789,1888,2083,2255,2038,1816,1871,1990
225682,19072,-13780,19659,-13109,541,302,-23,-128,-127,-97,82,3936,29,40,871,1789,1888,2083,2255,2038,1816,1871,1990
226683,19140,-13720,19724,-13044,288,508,-21,-121,-130,-279,14,3976,31,42,871,1789,1888,2083,2255,2038,1816,1871,1990
227684,19204,-13656,19789,-12979,340,459,-26,-125,-139,-308,109,4086,32,44,872,1789,1888,2083,2255,2038,1816,1871,1990
228685,19264,-13588,19854,-12914,396,405,-26,-136,-144,-328,-4,3947,49,44,872,1789,1888,2083,2255,2038,1816,1871,1990
229686,19324,-13520,19919,-12849,402,403,-25,-158,-137,-329,50,4048,34,36,872,1794,1888,2084,2259,2028,1807,1859,1974
230687,19384,-13456,19984,-12784,408,454,-19,-158,-142,-302,123,4002,43,41,872,1794,1888,2084,2259,2028,1807,1859,1974
231688,19440,-13376,20049,-12719,470,236,-22,-179,-134,-437,46,3851,36,42,871,1794,1888,2084,2259,2028,1807,1859,1974
232689,19508,-13320,20114,-12654,316,546,-18,-180,-128,-387,69,4080,33,44,872,1794,1888,2084,2259,2028,1807,1859,1974
233690,19576,-13248,20179,-12589,313,339,-15,-193,-132,-175,47,3880,42,35,871,1794,1888,2084,2259,2028,1807,1859,1974
234691,19632,-13200,20244,-12524,474,660,-21,-208,-114,-477,-38,3658,33,38,873,1797,1889,2087,2263,2015,1795,1849,1964
235692,19696,-13124,20309,-12459,376,296,-16,-173,-111,-233,59,4099,34,41,870,1797,1889,2087,2263,2015,1795,1849,1964
236693,19760,-13080,20374,-12394,377,722,-9,-179,-94,-300,14,3803,51,38,873,1797,1889,2087,2263,2015,1795,1849,1964
237694,19828,-13008,20439,-12329,323,364,0,-191,-89,-304,70,3818,37,41,870,1797,1889,2087,2263,2015,1795,1849,1964
238695,19896,-12952,20504,-12264,320,575,5,-189,-83,-331,87,3895,44,38,873,1797,1889,2087,2263,2015,1795,1849,1964
239696,19960,-12888,20569,-12199,372,477,12,-196,-63,-223,68,3760,35,32,872,1797,1889,2087,2263,2015,1795,1849,1964
240697,20016,-12820,20634,-12134,483,424,20,-190,-53,-136,51,3948,36,42,870,1798,1889,2083,2259,2007,1787,1843,1958
241698,20084,-12760,20699,-12069,329,530,33,-166,-42,-142,124,3888,40,37,871,1798,1889,2083,2259,2007,1787,1843,1958
242699,20152,-12704,20764,-12004,326,591,43,-164,-29,-153,130,3830,51,45,871,1798,1889,2083,2259,2007,1787,1843,1958
243700,20212,-12644,20829,-11939,432,547,55,-156,-18,-242,67,3797,47,43,871,1798,1889,2083,2259,2007,1787,1843,1958
244701,20276,-12584,20894,-11874,384,554,68,-159,-13,-129,148,3937,36,40,871,1798,1889,2083,2259,2007,1787,1843,1958
245702,20356,-12536,20959,-11809,166,725,79,-170,-10,-51,162,3796,47,36,871,1797,1888,2083,2260,2004,1786,1841,1953
246703,20428,-12480,21024,-11744,257,636,88,-179,0,-192,120,3732,35,45,871,1797,1888,2083,2260,2004,1786,1841,1953
247704,20484,-12424,21089,-11679,468,647,96,-185,1,-94,142,3889,35,42,871,1797,1888,2083,2260,2004,1786,1841,1953
248705,20544,-12364,21154,-11614,425,604,104,-189,7,-82,161,3748,40,44,870,1797,1888,2083,2260,2004,1786,1841,1953
249706,20624,-12312,21219,-11549,157,720,112,-204,15,-117,182,3829,48,41,871,1797,1888,2083,2260,2004,1786,1841,1953
250707,20676,-12232,21284,-11484,523,352,118,-196,15,-42,145,3809,49,33,871,1797,1888,2083,2260,2004,1786,1841,1953
251708,20732,-12176,21349,-11419,484,664,115,-186,21,-1,138,3833,30,35,871,1791,1883,2079,2260,2002,1784,1840,1954
252709,20792,-12100,21414,-11354,441,400,122,-176,28,-31,185,3846,42,47,870,1791,1883,2079,2260,2002,1784,1840,1954
253710,20872,-12052,21479,-11289,172,771,121,-178,41,-95,131,3844,47,32,871,1791,1883,2079,2260,2002,1784,1840,1954
254711,20924,-11988,21544,-11224,538,572,128,-181,42,0,153,3741,34,47,870,1791,1883,2079,2260,2002,1784,1840,1954
255712,20972,-11912,21609,-11159,609,410,127,-166,40,20,186,3928,26,32,870,1791,1883,2079,2260,2002,1784,1840,1954
256713,21036,-11848,21674,-11094,410,561,130,-163,50,27,90,3836,31,47,870,1791,1885,2081,2257,2012,1794,1848,1966
257714,21092,-11792,21739,-11029,522,672,142,-155,57,41,114,4033,47,40,870,1791,1885,2081,2257,2012,1794,1848,1966
258715,21156,-11744,21804,-10964,424,794,167,-149,76,-160,-101,4054,34,46,870,1791,1885,2081,2257,2012,1794,1848,1966
259716,21200,-11680,21869,-10899,699,595,181,-156,88,-296,106,3982,37,37,869,1791,1885,2081,2257,2012,1794,1848,1966
260718,21272,-11616,21934,-10834,341,596,189,-164,95,-172,100,3933,47,35,869,1791,1885,2081,2257,2012,1794,1848,1966
261718,21316,-11556,21999,-10769,717,652,199,-159,112,-58,-21,4147,37,34,871,1791,1885,2081,2257,2012,1794,1848,1966
262719,21380,-11488,22064,-10704,468,550,205,-166,117,-194,148,3997,46,45,868,1789,1886,2086,2260,2028,1806,1858,1977
263720,21432,-11420,22129,-10639,634,546,194,-147,102,38,11,3848,48,41,871,1789,1886,2086,2260,2028,1806,1858,1977
264721,21496,-11372,22194,-10574,486,817,198,-143,95,104,79,4085,48,46,870,1789,1886,2086,2260,2028,1806,1858,1977
265722,21548,-11308,22259,-10509,652,619,208,-140,101,-131,305,3992,38,36,869,1789,1886,2086,2260,2028,1806,1858,1977
266723,21612,-11244,22324,-10444,504,620,219,-142,83,-190,-19,3951,45,37,869,1789,1886,2086,2260,2028,1806,1858,1977
267724,21668,-11172,22389,-10379,615,512,235,-151,67,-230,-124,4177,34,43,870,1797,1892,2092,2269,2030,1809,1862,1977
268725,21740,-11120,22454,-10314,407,777,241,-155,45,-57,115,3973,47,39,870,1797,1892,2092,2269,2030,1809,1862,1977
269726,21812,-11060,22519,-10249,399,684,231,-136,30,-165,32,4104,46,44,870,1797,1892,2092,2269,2030,1809,1862,1977
270727,21860,-10996,22584,-10184,719,636,228,-105,12,22,100,3978,33,39,870,1797,1892,2092,2269,2030,1809,1862,1977
271728,21936,-10940,22649,-10119,356,747,223,-106,-3,-175,8,3971,40,44,868,1797,1892,2092,2269,2030,1809,1862,1977
272729,21992,-10876,22714,-10054,618,649,234,-95,-26,-366,111,4011,52,31,870,1797,1892,2092,2269,2030,1809,1862,1977
273730,22060,-10824,22779,-9989,464,815,251,-109,-37,-94,39,3947,30,31,869,1802,1895,2092,2274,2020,1804,1860,1972
274731,22120,-10772,22844,-9924,570,831,274,-114,-52,-222,17,4307,34,33,868,1802,1895,2092,2274,2020,1804,1860,1972
275732,22200,-10708,22909,-9859,302,683,293,-125,-35,-392,81,4112,38,40,868,1802,1895,2092,2274,2020,1804,1860,1972
276733,22256,-10620,22974,-9794,614,355,308,-140,-27,-102,199,4055,43,34,871,1802,1895,2092,2274,2020,1804,1860,1972
277734,22312,-10568,23039,-9729,625,821,317,-134,-8,-153,89,4256,37,40,870,1802,1895,2092,2274,2020,1804,1860,1972
278735,22372,-10516,23104,-9664,581,838,322,-135,5,-203,-17,4081,46,30,868,1798,1896,2088,2271,2005,1792,1850,1962
279736,22428,-10460,23169,-9599,643,799,320,-125,8,-355,53,4287,45,40,868,1798,1896,2088,2271,2005,1792,1850,1962
280737,22496,-10404,23234,-9534,489,810,311,-115,14,-317,185,3999,45,39,868,1798,1896,2088,2271,2005,1792,1850,1962
281738,22548,-10352,23299,-9469,705,876,299,-111,20,-141,141,4049,40,43,869,1798,1896,2088,2271,2005,1792,1850,1962
282739,22612,-10292,23364,-9404,556,782,300,-124,12,-321,110,3928,44,43,867,1798,1896,2088,2271,2005,1792,1850,1962
283740,22672,-10228,23429,-9339,614,734,293,-147,2,-447,226,3889,49,35,869,1798,1896,2088,2271,2005,1792,1850,1962
284741,22732,-10168,23494,-9274,620,791,296,-143,-13,-381,236,3866,37,43,869,1807,1906,2102,2282,2018,1800,1858,1978
285742,22784,-10128,23559,-9209,736,1071,297,-124,-31,-108,259,4040,48,35,868,1807,1906,2102,2282,2018,1800,1858,1978
286743,22856,-10052,23624,-9144,478,608,324,-113,-32,-88,19,4071,43,30,865,1807,1906,2102,2282,2018,1800,1858,1978
287744,22940,-9996,23689,-9079,305,870,347,-94,10,-1157,91,4055,44,33,870,1807,1906,2102,2282,2018,1800,1858,1978
288745,23004,-9932,23754,-9014,556,771,344,-74,-13,-1048,574,3794,46,40,869,1807,1906,2102,2282,2018,1800,1858,1978
289746,23084,-9872,23819,-8949,338,827,371,-1,-40,-14,74,4526,50,43,868,1800,1892,2092,2262,2028,1802,1853,1975
290747,23132,-9820,23884,-8884,759,944,410,47,-26,477,-129,4406,35,43,869,1800,1892,2092,2262,2028,1802,1853,1975
291748,23216,-9756,23949,-8819,286,795,441,49,-21,-503,393,4165,52,41,865,1800,1892,2092,2262,2028,1802,1853,1975
292749,23276,-9688,24014,-8754,592,742,441,55,-26,-860,217,4316,54,43,870,1800,1892,2092,2262,2028,1802,1853,1975
293750,23340,-9648,24079,-8689,545,1123,441,64,-23,-137,164,4180,52,35,869,1800,1892,2092,2262,2028,1802,1853,1975
294751,23396,-9608,24144,-8624,656,1154,456,28,-11,-247,155,4063,46,33,866,1800,1892,2092,2262,2028,1802,1853,1975
295752,23460,-9536,24209,-8559,557,745,463,-11,11,-830,172,4202,42,38,865,1797,1883,2087,2271,2022,1804,1853,1966
296753,23520,-9496,24274,-8494,613,1177,465,-25,18,-748,319,3989,36,31,869,1797,1883,2087,2271,2022,1804,1853,1966
297754,23612,-9416,24339,-8429,181,658,441,-50,35,-253,349,3843,34,43,865,1797,1883,2087,2271,2022,1804,1853,1966
298755,23660,-9364,24404,-8364,752,1025,433,-73,47,29,347,3867,38,41,871,1797,1883,2087,2271,2022,1804,1853,1966
299756,23724,-9304,24469,-8299,553,931,433,-76,39,-120,344,3947,40,39,865,1797,1883,2087,2271,2022,1804,1853,1966
300757,23800,-9252,24534,-8234,389,1047,449,-83,33,-164,236,4126,46,48,867,1811,1898,2100,2285,2018,1801,1857,1972
301758,23860,-9184,24599,-8169,597,845,475,-66,35,-86,339,4035,40,44,867,1811,1898,2100,2285,2018,1801,1857,1972
302759,23916,-9116,24664,-8104,658,841,468,-63,43,57,492,3749,37,41,868,1811,1898,2100,2285,2018,1801,1857,1972
303760,23980,-9076,24729,-8039,559,1222,475,-37,57,390,244,4063,34,32,867,1811,1898,2100,2285,2018,1801,1857,1972
304761,24040,-9020,24794,-7974,616,1033,493,-29,79,114,69,3958,38,37,865,1811,1898,2100,2285,2018,1801,1857,1972
305762,24100,-8964,24859,-7909,622,1044,498,-18,80,-469,282,4187,36,39,866,1811,1898,2100,2285,2018,1801,1857,1972
306763,24156,-8900,24924,-7844,683,947,497,13,80,92,156,4050,38,44,866,1807,1901,2095,2267,2015,1791,1850,1978
307764,24240,-8856,24989,-7779,310,1222,517,29,93,660,45,4149,55,44,866,1807,1901,2095,2267,2015,1791,1850,1978
308765,24296,-8784,25054,-7714,672,865,552,-24,140,-405,-97,3997,54,33,865,1807,1901,2095,2267,2015,1791,1850,1978
309766,24376,-8736,25119,-7649,353,1185,548,-80,153,-961,315,3805,49,33,867,1807,1901,2095,2267,2015,1791,1850,1978
310767,24448,-8664,25184,-7584,445,877,531,-85,140,-185,223,4016,51,39,867,1807,1901,2095,2267,2015,1791,1850,1978
311768,24520,-8604,25249,-7519,437,1034,520,-120,146,621,247,3856,32,29,868,1790,1892,2084,2250,2017,1787,1846,1971
312769,24580,-8556,25314,-7454,593,1205,526,-170,165,0,73,4038,47,40,867,1790,1892,2084,2250,2017,1787,1846,1971
313770,24660,-8488,25379,-7389,325,952,536,-170,150,-156,185,4170,46,43,865,1790,1892,2084,2250,2017,1787,1846,1971
314771,24704,-8428,25444,-7324,801,1058,565,-158,136,211,3,4221,32,44,868,1790,1892,2084,2250,2017,1787,1846,1971
315772,24764,-8388,25509,-7259,608,1339,586,-167,147,160,321,4144,31,34,865,1790,1892,2084,2250,2017,1787,1846,1971
316773,24816,-8320,25574,-7194,724,986,566,-140,123,280,518,3996,31,45,864,1790,1892,2084,2250,2017,1787,1846,1971
317774,24888,-8272,25639,-7129,465,1257,565,-99,120,615,181,3990,38,42,866,1783,1883,2077,2245,2027,1795,1855,1982
318775,24936,-8192,25704,-7064,787,839,559,-127,126,720,445,3974,50,35,865,1783,1883,2077,2245,2027,1795,1855,1982
319776,25016,-8124,25769,-6999,369,986,551,-115,123,300,436,4006,46,49,866,1783,1883,2077,2245,2027,1795,1855,1982
320777,25060,-8076,25834,-6934,844,1258,556,-100,119,656,208,4047,32,38,868,1783,1883,2077,2245,2027,1795,1855,1982
321778,25124,-8024,25899,-6869,596,1223,594,-132,156,312,53,4130,31,42,863,1783,1883,2077,2245,2027,1795,1855,1982
322779,25176,-7972,25964,-6804,762,1239,572,-209,145,-267,525,3775,52,48,865,1792,1885,2087,2268,2045,1819,1868,1987
323780,25236,-7904,26029,-6739,669,1037,574,-184,143,-5,83,4194,36,32,864,1792,1885,2087,2268,2045,1819,1868,1987
324781,25300,-7844,26094,-6674,620,1143,573,-210,180,906,277,3747,49,35,865,1792,1885,2087,2268,2045,1819,1868,1987
325782,25356,-7776,26159,-6609,732,1040,566,-275,210,281,301,3849,41,38,865,1792,1885,2087,2268,2045,1819,1868,1987
326783,25412,-7720,26224,-6544,743,1201,567,-272,223,-104,231,4167,50,41,865,1792,1885,2087,2268,2045,1819,1868,1987
327784,25468,-7688,26289,-6479,754,1542,573,-258,249,415,192,3981,41,42,864,1792,1885,2087,2268,2045,1819,1868,1987
328785,25536,-7612,26354,-6414,601,979,571,-263,279,413,83,3890,36,45,861,1792,1885,2091,2267,2045,1817,1862,1985
329786,25592,-7560,26419,-6349,762,1296,554,-238,315,20,230,4046,45,44,866,1792,1885,2091,2267,2045,1817,1862,1985
330787,25668,-7512,26484,-6284,499,1367,531,-173,336,432,312,3989,39,30,863,1792,1885,2091,2267,2045,1817,1862,1985
331788,25728,-7452,26549,-6219,705,1223,517,-160,357,656,171,3822,45,45,864,1792,1885,2091,2267,2045,1817,1862,1985
332789,25804,-7380,26614,-6154,492,1065,507,-197,355,263,179,3847,52,44,864,1792,1885,2091,2267,2045,1817,1862,1985
333790,25864,-7316,26679,-6089,698,1166,518,-220,353,-59,185,4227,38,46,866,1783,1877,2081,2246,2040,1805,1852,1979
334791,25928,-7272,26744,-6024,650,1443,520,-242,342,48,452,3867,46,44,865,1783,1877,2081,2246,2040,1805,1852,1979
335792,25988,-7208,26809,-5959,707,1194,502,-255,328,406,401,3885,47,34,862,1783,1877,2081,2246,2040,1805,1852,1979
336793,26044,-7144,26874,-5894,768,1196,496,-225,322,514,477,4208,48,46,864,1783,1877,2081,2246,2040,1805,1852,1979
337794,26104,-7064,26939,-5829,724,978,484,-257,325,290,487,3870,51,46,864,1783,1877,2081,2246,2040,1805,1852,1979
338795,26192,-7008,27004,-5764,347,1290,484,-243,308,313,545,4180,40,52,866,1783,1877,2081,2246,2040,1805,1852,1979
339796,26240,-6964,27069,-5699,867,1466,496,-224,292,402,483,4118,53,35,865,1766,1862,2063,2222,2041,1803,1854,1985
340797,26292,-6896,27134,-5634,833,1163,515,-225,296,654,178,4164,45,39,861,1766,1862,2063,2222,2041,1803,1854,1985
341798,26352,-6820,27199,-5569,740,1050,550,-222,343,-255,265,4421,49,42,863,1766,1862,2063,2222,2041,1803,1854,1985
342799,26404,-6752,27264,-5504,856,1147,516,-180,346,-509,767,3843,33,37,864,1766,1862,2063,2222,2041,1803,1854,1985
343800,26476,-6684,27329,-5439,598,1143,496,-98,372,406,312,3880,42,46,864,1766,1862,2063,2222,2041,1803,1854,1985
344801,26528,-6632,27394,-5374,865,1360,476,-151,424,530,485,3884,44,39,865,1768,1868,2072,2240,2044,1812,1862,1986
345802,26600,-6592,27459,-5309,606,1541,469,-217,447,-470,416,3827,34,43,862,1768,1868,2072,2240,2044,1812,1862,1986
346803,26668,-6524,27524,-5244,652,1188,460,-216,443,-278,551,3943,53,34,862,1768,1868,2072,2240,2044,1812,1862,1986
347804,26712,-6456,27589,-5179,978,1184,452,-219,447,176,579,3483,37,48,864,1768,1868,2072,2240,2044,1812,1862,1986
348805,26784,-6388,27654,-5114,621,1182,446,-263,451,380,446,3792,36,48,862,1768,1868,2072,2240,2044,1812,1862,1986
349806,26848,-6344,27719,-5049,722,1507,487,-297,468,-163,147,4142,55,46,864,1768,1868,2072,2240,2044,1812,1862,1986
350807,26912,-6300,27784,-4984,723,1533,504,-340,443,-927,457,3767,45,43,861,1784,1878,2088,2261,2044,1817,1859,1982
351808,26972,-6232,27849,-4919,780,1230,521,-310,391,-114,470,3615,46,37,861,1784,1878,2088,2261,2044,1817,1859,1982
352809,27040,-6188,27914,-4854,676,1556,549,-289,367,1380,880,4154,52,44,863,1784,1878,2088,2261,2044,1817,1859,1982
353810,27104,-6132,27979,-4789,728,1418,534,-362,363,635,783,3859,50,31,861,1784,1878,2088,2261,2044,1817,1859,1982
354811,27172,-6088,28044,-4724,675,1595,524,-347,342,-322,625,3962,37,41,862,1784,1878,2088,2261,2044,1817,1859,1982
355812,27228,-6016,28109,-4659,836,1236,514,-317,315,-121,622,3622,54,29,859,1795,1885,2089,2263,2010,1787,1838,1957
356813,27312,-5980,28174,-4594,463,1722,514,-278,307,247,585,4110,35,39,862,1795,1885,2089,2263,2010,1787,1838,1957
357814,27372,-5928,28239,-4529,770,1538,496,-271,312,378,678,3780,36,39,860,1795,1885,2089,2263,2010,1787,1838,1957
358815,27452,-5896,28304,-4464,502,1830,477,-316,324,-92,603,3446,44,26,860,1795,1885,2089,2263,2010,1787,1838,1957
359816,27508,-5840,28369,-4399,813,1541,458,-381,324,-470,643,3706,45,30,857,1795,1885,2089,2263,2010,1787,1838,1957
360818,27580,-5804,28434,-4334,605,1827,433,-413,339,-497,646,3885,45,28,860,1795,1885,2089,2263,2010,1787,1838,1957
361818,27628,-5732,28499,-4269,926,1368,417,-391,356,-87,643,3819,38,41,859,1792,1885,2080,2246,1993,1773,1827,1954
362819,27692,-5692,28564,-4204,727,1800,403,-372,360,312,732,4003,32,26,861,1792,1885,2080,2246,1993,1773,1827,1954
363820,27740,-5644,28629,-4139,949,1721,396,-379,362,79,720,3937,48,33,858,1792,1885,2080,2246,1993,1773,1827,1954
364821,27812,-5596,28694,-4074,640,1742,394,-400,355,-55,644,3939,50,26,857,1792,1885,2080,2246,1993,1773,1827,1954
365822,27872,-5536,28759,-4009,796,1600,409,-381,341,61,502,4133,44,40,859,1792,1885,2080,2246,1993,1773,1827,1954
366823,27916,-5492,28824,-3944,1023,1825,451,-363,328,87,230,4046,49,31,860,1758,1857,2057,2213,2034,1801,1849,1988
367824,27976,-5428,28889,-3879,829,1577,486,-348,323,-320,416,4157,31,36,856,1758,1857,2057,2213,2034,1801,1849,1988
368825,28028,-5384,28954,-3814,945,1853,518,-323,292,-83,580,3919,40,34,859,1758,1857,2057,2213,2034,1801,1849,1988
369826,28088,-5300,29019,-3749,852,1331,536,-331,277,386,547,3908,36,41,856,1758,1857,2057,2213,2034,1801,1849,1988
370827,28140,-5232,29084,-3684,968,1527,536,-403,268,-117,749,3644,56,39,861,1758,1857,2057,2213,2034,1801,1849,1988
371828,28188,-5168,29149,-3619,1040,1579,542,-441,245,-206,720,3921,42,44,859,1758,1857,2057,2213,2034,1801,1849,1988
372829,28248,-5108,29214,-3554,896,1636,555,-461,252,-6,402,3874,53,45,858,1753,1853,2064,2232,2051,1817,1862,1985
373830,28324,-5044,29279,-3489,682,1588,537,-504,242,-774,791,3829,40,51,859,1753,1853,2064,2232,2051,1817,1862,1985
374831,28380,-4972,29344,-3424,944,1480,499,-479,230,-634,694,3932,41,48,860,1753,1853,2064,2232,2051,1817,1862,1985
375832,28452,-4896,29409,-3359,736,1417,485,-447,239,562,800,3843,55,37,860,1753,1853,2064,2232,2051,1817,1862,1985
376833,28524,-4824,29474,-3294,727,1459,441,-525,249,318,911,3675,42,40,861,1753,1853,2064,2232,2051,1817,1862,1985
377834,28592,-4768,29539,-3229,775,1671,420,-475,234,100,738,4005,53,51,861,1791,1883,2091,2270,2036,1811,1859,1982
378835,28660,-4704,29604,-3164,771,1572,383,-412,240,313,554,3838,53,36,860,1791,1883,2091,2270,2036,1811,1859,1982
379836,28728,-4640,29669,-3099,767,1575,358,-397,258,25,598,3985,49,48,860,1791,1883,2091,2270,2036,1811,1859,1982
380837,28792,-4568,29734,-3034,819,1466,339,-371,255,228,570,4106,47,45,860,1791,1883,2091,2270,2036,1811,1859,1982
381838,28848,-4500,29799,-2969,930,1513,339,-336,270,450,498,4240,41,47,861,1791,1883,2091,2270,2036,1811,1859,1982
382839,28904,-4424,29864,-2904,941,1400,341,-362,281,344,770,3846,37,34,860,1789,1876,2085,2252,2040,1813,1852,1984
383840,28952,-4356,29929,-2839,1063,1497,325,-385,283,-154,597,4079,47,39,860,1789,1876,2085,2252,2040,1813,1852,1984
384841,29016,-4312,29994,-2774,864,1824,330,-388,286,-252,538,4226,49,45,858,1789,1876,2085,2252,2040,1813,1852,1984
385842,29072,-4240,30059,-2709,976,1465,323,-430,293,-60,651,3870,38,49,857,1789,1876,2085,2252,2040,1813,1852,1984
386843,29132,-4184,30124,-2644,932,1677,329,-484,302,-142,412,4105,50,42,859,1789,1876,2085,2252,2040,1813,1852,1984
387846,29188,-4116,30189,-2579,993,1524,331,-510,306,-182,456,4139,41,41,858,1789,1876,2085,2252,2040,1813,1852,1984
388845,29228,-4056,30254,-2514,1225,1631,348,-519,294,-88,385,3831,50,34,859,1754,1849,2067,2220,2054,1816,1853,1991
389846,29288,-4004,30319,-2449,981,1748,365,-571,309,-495,157,4110,35,37,856,1754,1849,2067,2220,2054,1816,1853,1991
390847,29344,-3956,30384,-2384,1042,1818,376,-612,315,-954,453,4418,47,45,857,1754,1849,2067,2220,2054,1816,1853,1991
391848,29404,-3884,30449,-2319,999,1511,378,-604,304,-184,526,3983,47,40,856,1754,1849,2067,2220,2054,1816,1853,1991
392849,29452,-3800,30514,-2254,1170,1338,365,-585,310,531,627,4345,37,50,859,1754,1849,2067,2220,2054,1816,1853,1991
393850,29516,-3752,30579,-2189,972,1809,335,-555,315,119,854,4236,41,48,858,1763,1866,2071,2234,2050,1810,1865,1997
394851,29592,-3684,30644,-2124,809,1557,293,-512,317,192,899,3677,47,51,856,1763,1866,2071,2234,2050,1810,1865,1997
395852,29648,-3640,30709,-2059,1070,1882,254,-457,310,579,950,3933,42,36,859,1763,1866,2071,2234,2050,1810,1865,1997
396853,29720,-3556,30774,-1994,862,1360,211,-439,312,447,1067,3817,36,39,855,1763,1866,2071,2234,2050,1810,1865,1997
397854,29772,-3516,30839,-1929,1128,1941,190,-421,306,389,1084,3814,34,49,860,1763,1866,2071,2234,2050,1810,1865,1997
398855,29840,-3436,30904,-1864,925,1423,186,-419,313,318,829,3835,43,40,854,1763,1866,2071,2234,2050,1810,1865,1997
399856,29904,-3376,30969,-1799,977,1681,189,-464,308,131,943,3854,32,40,860,1787,1885,2084,2248,2056,1824,1869,1996
400857,29960,-3304,31034,-1734,1089,1522,215,-507,275,-332,838,4207,47,50,858,1787,1885,2084,2248,2056,1824,1869,1996
401858,30016,-3256,31099,-1669,1100,1844,283,-607,271,-317,776,3982,33,42,858,1787,1885,2084,2248,2056,1824,1869,1996
402859,30072,-3180,31164,-1604,1111,1480,358,-715,235,-180,690,4127,37,37,854,1787,1885,2084,2248,2056,1824,1869,1996
403860,30124,-3132,31229,-1539,1177,1852,415,-759,197,-368,1060,4184,35,33,858,1787,1885,2084,2248,2056,1824,1869,1996
404861,30184,-3064,31294,-1474,1083,1599,447,-707,204,549,875,4140,52,36,854,1775,1873,2087,2251,2030,1799,1839,1959
405862,30248,-2988,31359,-1409,1036,1486,458,-649,223,621,515,4127,54,39,857,1775,1873,2087,2251,2030,1799,1839,1959
406863,30304,-2944,31424,-1344,1147,1913,463,-623,245,-97,590,4158,40,51,858,1775,1873,2087,2251,2030,1799,1839,1959
407864,30368,-2852,31489,-1279,1048,1280,484,-606,276,-294,618,4305,35,40,854,1775,1873,2087,2251,2030,1799,1839,1959
408865,30420,-2796,31554,-1214,1215,1742,485,-585,287,-57,939,4186,39,45,860,1775,1873,2087,2251,2030,1799,1839,1959
409866,30488,-2732,31619,-1149,1011,1644,480,-564,308,203,870,3942,38,49,855,1775,1873,2087,2251,2030,1799,1839,1959
410867,30544,-2684,31684,-1084,1173,1865,442,-543,349,-95,770,4102,53,50,856,1811,1907,2119,2302,1970,1759,1807,1917
411868,30612,-2608,31749,-1019,1019,1502,395,-542,373,-442,967,3728,55,43,854,1811,1907,2119,2302,1970,1759,1807,1917
412869,30684,-2544,31814,-954,962,1653,362,-543,376,-338,922,4083,45,50,858,1811,1907,2119,2302,1970,1759,1807,1917
413870,30748,-2488,31879,-889,1063,1765,343,-552,364,53,978,4435,52,46,858,1811,1907,2119,2302,1970,1759,1807,1917
414871,30792,-2424,31944,-824,1339,1668,343,-566,339,437,1062,4285,52,42,856,1811,1907,2119,2302,1970,1759,1807,1917
415872,30840,-2368,32009,-759,1311,1779,351,-573,324,-21,905,4356,43,34,854,1828,1908,2118,2300,1994,1784,1833,1954
416873,30904,-2300,32074,-694,1112,1626,343,-572,282,-189,1178,4112,39,38,853,1828,1908,2118,2300,1994,1784,1833,1954
417874,30972,-2240,32139,-629,1059,1732,347,-557,254,174,1019,4205,51,52,856,1828,1908,2118,2300,1994,1784,1833,1954
418875,31016,-2188,32204,-564,1385,1849,370,-551,244,808,1102,4305,50,37,856,1828,1908,2118,2300,1994,1784,1833,1954
419876,31096,-2116,32269,-499,917,1591,393,-557,224,589,946,4078,56,50,853,1828,1908,2118,2300,1994,1784,1833,1954
420877,31168,-2044,32334,-434,1009,1583,435,-530,208,-224,828,4484,47,42,858,1828,1908,2118,2300,1994,1784,1833,1954
421878,31240,-2000,32399,-369,1001,1959,482,-530,207,-48,937,3959,55,39,858,1792,1876,2092,2256,2080,1845,1883,2019
422879,31316,-1924,32464,-304,938,1546,538,-502,199,623,923,4420,46,44,855,1792,1876,2092,2256,2080,1845,1883,2019
423880,31388,-1856,32529,-239,979,1643,576,-480,200,537,994,4194,59,35,858,1792,1876,2092,2256,2080,1845,1883,2019
424881,31456,-1808,32594,-174,1027,1915,601,-455,225,-108,1138,4347,41,40,858,1792,1876,2092,2256,2080,1845,1883,2019
425882,31516,-1740,32659,-109,1133,1661,614,-426,247,77,1258,4136,48,42,854,1792,1876,2092,2256,2080,1845,1883,2019
426883,31592,-1676,32724,-44,920,1714,620,-384,269,725,1336,4115,55,30,856,1772,1871,2089,2251,2078,1838,1873,1999
427884,31660,-1624,32789,21,1017,1881,619,-363,304,580,1239,3908,37,32,856,1772,1871,2089,2251,2078,1838,1873,1999
428885,31708,-1568,32854,86,1288,1842,596,-368,323,-251,1203,3989,54,42,855,1772,1871,2089,2251,2078,1838,1873,1999
429886,31772,-1504,32919,151,1090,1744,557,-324,334,-553,1248,4104,53,43,853,1772,1871,2089,2251,2078,1838,1873,1999
430887,31832,-1452,32984,216,1146,1910,526,-299,364,261,1277,3876,39,34,855,1772,1871,2089,2251,2078,1838,1873,1999
431888,31896,-1400,33049,281,1098,1927,496,-312,386,500,1034,4106,40,33,853,1772,1871,2089,2251,2078,1838,1873,1999
432889,31964,-1336,33114,346,1044,1779,468,-338,387,-414,1091,4331,38,34,853,1784,1880,2096,2261,2032,1800,1833,1957
433890,32032,-1288,33179,411,1042,1999,423,-336,365,-297,1173,4016,36,41,855,1784,1880,2096,2261,2032,1800,1833,1957
434891,32076,-1252,33244,476,1367,2186,393,-326,341,326,966,4227,36,29,853,1784,1880,2096,2261,2032,1800,1833,1957
435894,32136,-1180,33309,541,1174,1728,371,-301,333,666,1082,4184,39,41,849,1784,1880,2096,2261,2032,1800,1833,1957
436893,32188,-1128,33374,606,1290,1994,356,-271,326,434,1036,4167,40,46,855,1784,1880,2096,2261,2032,1800,1833,1957
437894,32260,-1060,33439,671,1033,1792,328,-244,308,276,1109,4021,57,40,852,1771,1858,2086,2238,2035,1810,1835,1977
438895,32340,-980,33504,736,914,1624,319,-260,303,415,965,3857,41,51,854,1771,1858,2086,2238,2035,1810,1835,1977
439896,32408,-916,33569,801,1061,1825,323,-276,296,192,928,4227,47,39,858,1771,1858,2086,2238,2035,1810,1835,1977
440897,32456,-852,33634,866,1332,1828,325,-278,280,70,1205,3987,54,41,856,1771,1858,2086,2238,2035,1810,1835,1977
441898,32540,-788,33699,931,859,1830,336,-317,268,254,1178,3765,54,52,853,1771,1858,2086,2238,2035,1810,1835,1977
442899,32588,-712,33764,996,1331,1666,348,-343,248,365,1365,4138,45,53,857,1771,1858,2086,2238,2035,1810,1835,1977
443900,32660,-640,33829,1061,1023,1709,344,-322,236,329,1501,3835,39,39,854,1750,1842,2071,2220,2078,1844,1870,2012
444901,32728,-572,33894,1126,1070,1756,326,-271,218,306,1462,3665,58,54,855,1750,1842,2071,2220,2078,1844,1870,2012
445902,32796,-504,33959,1191,1066,1753,324,-194,161,-256,1625,3669,58,49,856,1750,1842,2071,2220,2078,1844,1870,2012
446903,32856,-440,34024,1256,1172,1805,329,-227,131,350,2005,3281,39,53,856,1750,1842,2071,2220,2078,1844,1870,2012
447904,32944,-364,34089,1321,795,1641,346,-301,101,937,1829,3853,40,56,854,1750,1842,2071,2220,2078,1844,1870,2012
448905,32996,-284,34288,1520,2112,2425,350,-375,98,-243,1801,2962,54,53,858,1748,1848,2064,2219,2061,1822,1859,1990
449906,33068,-200,34353,1585,1854,2352,337,-420,102,-540,1994,3540,36,39,841,1748,1848,2064,2219,2061,1822,1859,1990
450907,33140,-132,34418,1650,1846,2549,335,-385,116,-136,1528,3895,57,43,843,1748,1848,2064,2219,2061,1822,1859,1990
451908,33236,-32,34483,1715,1509,2107,341,-365,136,379,1527,3518,72,52,842,1748,1848,2064,2219,2061,1822,1859,1990
452909,33320,76,34548,1780,1636,1956,341,-395,158,124,1552,3958,79,63,849,1748,1848,2064,2219,2061,1822,1859,1990
453910,33412,176,34613,1845,1504,2013,338,-438,173,-312,1743,3928,65,65,850,1748,1848,2064,2219,2061,1822,1859,1990
454911,33544,268,34678,1910,922,2081,326,-469,160,-38,1535,3974,67,70,850,1743,1851,2059,2211,1994,1767,1807,1939
455912,33648,396,34743,1975,1225,1555,324,-485,158,265,1455,3962,82,76,855,1743,1851,2059,2211,1994,1767,1807,1939
456913,33760,496,34808,2040,1068,1862,297,-490,148,308,1415,4072,68,78,857,1743,1851,2059,2211,1994,1767,1807,1939
457914,33880,608,34873,2105,901,1656,283,-487,116,128,1673,4311,72,78,856,1743,1851,2059,2211,1994,1767,1807,1939
458915,33972,708,34938,2170,1219,1763,284,-491,73,276,1765,4171,76,66,858,1743,1851,2059,2211,1994,1767,1807,1939
459916,34080,816,35003,2235,966,1612,255,-535,8,412,1598,3934,63,76,856,1770,1869,2087,2238,1985,1764,1804,1948
460917,34168,928,35068,2300,1189,1505,263,-592,-49,175,1935,4305,62,71,858,1770,1869,2087,2238,1985,1764,1804,1948
461918,34272,1036,35133,2365,942,1503,265,-619,-119,191,1778,4001,82,69,857,1770,1869,2087,2238,1985,1764,1804,1948
462919,34372,1152,35198,2430,949,1342,268,-633,-183,492,1653,4036,63,74,860,1770,1869,2087,2238,1985,1764,1804,1948
463920,34476,1240,35263,2495,852,1663,284,-652,-213,578,1759,4084,67,70,861,1770,1869,2087,2238,1985,1764,1804,1948
464921,34556,1328,35328,2560,1134,1636,311,-670,-239,535,1721,3922,64,68,859,1770,1869,2087,2238,1985,1764,1804,1948
465922,34644,1432,35393,2625,1006,1389,330,-693,-271,382,1743,3906,59,66,857,1803,1897,2127,2285,2045,1821,1857,2004
466923,34724,1516,35458,2690,1087,1616,364,-703,-291,64,2040,4083,67,66,860,1803,1897,2127,2285,2045,1821,1857,2004
467924,34800,1596,35523,2755,1125,1648,376,-691,-308,329,1945,3848,63,52,858,1803,1897,2127,2285,2045,1821,1857,2004
468925,34912,1680,35588,2820,618,1575,392,-688,-325,567,2125,3959,63,61,857,1803,1897,2127,2285,2045,1821,1857,2004
469926,35000,1764,35653,2885,890,1553,398,-699,-306,260,2186,3940,66,49,860,1803,1897,2127,2285,2045,1821,1857,2004
470927,35080,1844,35718,2950,971,1585,396,-707,-286,38,2173,3859,54,51,860,1818,1918,2142,2308,2065,1837,1870,1999
471928,35156,1928,35783,3015,1009,1512,396,-735,-277,86,2231,3974,57,47,859,1818,1918,2142,2308,2065,1837,1870,1999
472929,35236,2004,35848,3080,941,1599,398,-764,-281,153,2263,4048,66,50,860,1818,1918,2142,2308,2065,1837,1870,1999
473930,35328,2076,35913,3145,758,1640,415,-790,-270,103,2204,4132,64,44,859,1818,1918,2142,2308,2065,1837,1870,1999
474931,35412,2148,35978,3210,834,1633,427,-805,-268,133,2235,4290,50,44,859,1818,1918,2142,2308,2065,1837,1870,1999
475932,35464,2220,36043,3275,1251,1624,453,-805,-280,295,2174,4391,58,59,859,1818,1918,2142,2308,2065,1837,1870,1999
476933,35548,2300,36108,3340,828,1507,472,-806,-295,498,2070,4303,50,61,856,1792,1888,2108,2266,2032,1804,1830,1960
477934,35628,2368,36173,3405,860,1653,502,-807,-314,381,2033,4467,46,63,860,1792,1888,2108,2266,2032,1804,1830,1960
478935,35692,2452,36238,3470,1061,1430,536,-803,-332,354,1765,4365,53,56,858,1792,1888,2108,2266,2032,1804,1830,1960
479936,35776,2532,36303,3535,788,1463,575,-808,-381,516,1814,4389,58,51,859,1792,1888,2108,2266,2032,1804,1830,1960
480937,35844,2632,36368,3600,985,1170,603,-797,-416,566,1883,4560,59,58,860,1792,1888,2108,2266,2032,1804,1830,1960
481938,35920,2728,36433,3665,872,1183,628,-777,-428,769,1912,4291,52,46,861,1775,1869,2099,2247,1995,1772,1803,1935
482939,35992,2788,36498,3730,913,1639,649,-769,-453,808,2042,4219,40,50,863,1775,1869,2099,2247,1995,1772,1803,1935
483940,36036,2864,36563,3795,1289,1426,659,-792,-510,691,2079,4128,42,43,859,1775,1869,2099,2247,1995,1772,1803,1935
484941,36132,2948,36628,3860,601,1304,660,-807,-548,338,1857,4085,46,43,857,1775,1869,2099,2247,1995,1772,1803,1935
485942,36220,3004,36693,3925,674,1665,644,-804,-559,408,1844,3775,60,52,862,1775,1869,2099,2247,1995,1772,1803,1935
486943,36288,3084,36758,3990,920,1346,609,-796,-555,506,1904,3752,43,43,861,1775,1869,2099,2247,1995,1772,1803,1935
487944,36356,3152,36823,4055,917,1494,593,-774,-550,723,1986,3763,42,40,860,1807,1901,2131,2294,1994,1777,1818,1949
488945,36428,3216,36888,4120,858,1545,576,-795,-544,394,2046,3394,46,51,860,1807,1901,2131,2294,1994,1777,1818,1949
489946,36512,3292,36953,4185,685,1382,575,-826,-542,179,2062,3629,43,57,860,1807,1901,2131,2294,1994,1777,1818,1949
490947,36592,3360,37018,4250,717,1479,578,-844,-528,385,1934,3644,50,54,862,1807,1901,2131,2294,1994,1777,1818,1949
491948,36672,3436,37083,4315,699,1365,583,-853,-502,640,1872,3395,41,55,862,1807,1901,2131,2294,1994,1777,1818,1949
492949,36760,3520,37148,4380,571,1242,595,-847,-472,550,1881,3458,56,59,862,1812,1905,2128,2281,2037,1812,1844,1979
493950,36840,3592,37213,4445,653,1385,612,-848,-443,388,1810,3325,44,46,864,1812,1905,2128,2281,2037,1812,1844,1979
494951,36896,3680,37278,4510,964,1157,643,-850,-421,328,1816,3476,52,61,863,1812,1905,2128,2281,2037,1812,1844,1979
495952,36972,3740,37343,4575,700,1513,671,-866,-388,439,1813,3361,53,54,861,1812,1905,2128,2281,2037,1812,1844,1979
496953,37052,3828,37408,4640,632,1136,686,-852,-369,558,1806,3608,58,45,862,1812,1905,2128,2281,2037,1812,1844,1979
497954,37124,3916,37473,4705,724,1108,691,-846,-370,514,1728,3450,44,49,865,1812,1905,2128,2281,2037,1812,1844,1979
498955,37184,4024,37538,4770,881,805,713,-820,-347,628,1805,3593,58,60,865,1755,1850,2066,2205,2037,1800,1824,1954
499956,37276,4120,37603,4835,448,917,742,-811,-343,879,2040,3588,49,48,866,1755,1850,2066,2205,2037,1800,1824,1954
500957,37352,4208,37668,4900,634,990,749,-855,-360,374,1659,3431,57,47,867,1755,1850,2066,2205,2037,1800,1824,1954
501958,37416,4284,37733,4965,785,1127,751,-885,-373,233,1694,3655,44,47,866,1755,1850,2066,2205,2037,1800,1824,1954
502959,37496,4356,37798,5030,567,1168,755,-894,-378,608,1611,3523,58,48,865,1755,1850,2066,2205,2037,1800,1824,1954
503960,37568,4460,37863,5095,659,722,730,-876,-373,601,1548,3472,52,60,865,1712,1803,2021,2161,1995,1761,1792,1920
504961,37644,4544,37928,5160,595,948,700,-865,-356,633,1573,3230,43,63,867,1712,1803,2021,2161,1995,1761,1792,1920
505962,37716,4620,37993,5225,637,1035,676,-862,-351,564,1474,3297,57,48,867,1712,1803,2021,2161,1995,1761,1792,1920
506963,37804,4708,38058,5290,410,857,654,-890,-344,576,1362,3148,46,46,866,1712,1803,2021,2161,1995,1761,1792,1920
507964,37892,4784,38123,5355,381,994,630,-896,-328,474,1231,3138,61,46,868,1712,1803,2021,2161,1995,1761,1792,1920
508965,37980,4856,38188,5420,353,1036,611,-845,-301,488,1111,3084,53,54,868,1712,1803,2021,2161,1995,1761,1792,1920
509966,38060,4948,38253,5485,435,753,569,-820,-258,728,1109,2952,51,50,868,1718,1814,2034,2175,1996,1769,1803,1938
510967,38144,5020,38318,5550,362,994,532,-769,-213,634,968,2967,48,49,869,1718,1814,2034,2175,1996,1769,1803,1938
511968,38220,5112,38383,5615,448,712,491,-721,-177,603,1112,2715,59,46,869,1718,1814,2034,2175,1996,1769,1803,1938
512969,38300,5208,38448,5680,380,624,446,-690,-139,502,1111,2546,52,61,867,1718,1814,2034,2175,1996,1769,1803,1938
513970,38380,5292,38513,5745,362,751,418,-693,-95,545,1256,2480,51,46,870,1718,1814,2034,2175,1996,1769,1803,1938
514971,38472,5376,38578,5810,179,728,396,-689,-52,348,1002,2386,58,43,870,1722,1821,2038,2172,2044,1811,1837,1973
515972,38544,5472,38643,5875,420,540,363,-681,-15,125,996,2591,48,56,871,1722,1821,2038,2172,2044,1811,1837,1973
516973,38608,5560,38708,5940,522,612,331,-656,27,283,1144,2386,38,53,871,1722,1821,2038,2172,2044,1811,1837,1973
517974,38692,5640,38773,6005,248,694,296,-643,77,412,1005,2427,57,46,870,1722,1821,2038,2172,2044,1811,1837,1973
518975,38756,5720,38838,6070,500,676,283,-615,106,659,822,2538,51,46,870,1722,1821,2038,2172,2044,1811,1837,1973
519976,38836,5796,38903,6135,281,713,262,-588,135,385,874,2648,58,54,870,1722,1821,2038,2172,2044,1811,1837,1973
520977,38896,5872,38968,6200,537,700,248,-546,159,159,819,2570,42,58,870,1673,1773,1983,2107,2061,1812,1833,1963
521978,38976,5956,39033,6265,269,577,216,-498,170,466,957,2796,48,63,869,1673,1773,1983,2107,2061,1812,1833,1963
522979,39060,6044,39098,6330,196,499,193,-454,182,738,742,3045,40,55,870,1673,1773,1983,2107,2061,1812,1833,1963
523980,39128,6116,39163,6395,392,690,172,-385,197,631,568,2702,40,55,871,1673,1773,1983,2107,2061,1812,1833,1963
524981,39192,6196,39228,6460,443,572,140,-335,197,423,946,2801,53,61,871,1673,1773,1983,2107,2061,1812,1833,1963
525982,39260,6276,39293,6525,390,553,91,-310,186,571,1213,2805,45,62,870,1620,1718,1928,2056,2032,1787,1808,1934
526983,39336,6388,39358,6590,276,96,48,-310,194,700,797,2566,48,46,871,1620,1718,1928,2056,2032,1787,1808,1934
527984,39420,6468,39423,6655,153,478,15,-315,196,662,840,2305,43,48,873,1620,1718,1928,2056,2032,1787,1808,1934
528985,39504,6552,39488,6720,130,405,-9,-335,212,398,716,2172,43,61,873,1620,1718,1928,2056,2032,1787,1808,1934
529986,39600,6644,39553,6785,-58,273,-25,-337,243,453,664,2157,48,60,871,1620,1718,1928,2056,2032,1787,1808,1934
530987,39688,6720,39618,6850,14,459,-54,-402,277,558,491,1549,44,46,872,1620,1718,1928,2056,2032,1787,1808,1934
531988,39776,6800,39683,6915,-14,391,-96,-379,317,405,292,2190,55,46,873,1629,1733,1947,2083,2009,1775,1801,1926
532989,39832,6904,39748,6980,397,43,-189,-208,403,337,3,2813,56,56,873,1629,1733,1947,2083,2009,1775,1801,1926
533990,39920,6980,39813,7045,-31,380,-314,-40,508,943,154,2171,41,59,873,1629,1733,1947,2083,2009,1775,1801,1926
534991,39984,7068,39878,7110,270,202,-432,118,584,1086,287,2648,46,45,873,1629,1733,1947,2083,2009,1775,1801,1926
535992,40068,7152,39943,7175,-3,229,-544,272,645,1100,422,2828,53,50,873,1629,1733,1947,2083,2009,1775,1801,1926
536993,40164,7220,40008,7240,-191,425,-641,337,663,1064,568,2279,39,50,874,1660,1766,1973,2105,2010,1784,1814,1949
537994,40248,7304,40073,7305,-64,202,-701,348,648,526,433,2055,43,46,869,1660,1766,1973,2105,2010,1784,1814,1949
538995,40320,7388,40138,7370,77,179,-764,331,627,434,646,2150,39,44,869,1660,1766,1973,2105,2010,1784,1814,1949
539996,40380,7472,40203,7435,233,155,-815,290,611,549,628,1886,43,57,874,1660,1766,1973,2105,2010,1784,1814,1949
540997,40464,7540,40268,7500,-90,352,-858,254,611,79,233,1688,38,47,874,1660,1766,1973,2105,2010,1784,1814,1949
541998,40528,7632,40333,7565,161,19,-899,289,627,-194,140,2164,54,42,872,1660,1766,1973,2105,2010,1784,1814,1949
542999,40628,7720,40398,7630,-331,41,-973,378,653,-112,361,2520,44,52,873,1623,1724,1954,2079,2096,1848,1856,1991
544000,40700,7792,40463,7695,10,232,-1038,486,696,424,201,2428,50,43,867,1623,1724,1954,2079,2096,1848,1856,1991
545001,40776,7908,40528,7760,-53,-380,-1115,585,738,854,-16,2295,37,45,874,1623,1724,1954,2079,2096,1848,1856,1991
546002,40828,7992,40593,7825,262,-3,-1197,696,762,1054,-102,3011,40,43,874,1623,1724,1954,2079,2096,1848,1856,1991
547003,40900,8080,40658,7890,3,-82,-1255,783,793,1004,219,2653,52,41,873,1623,1724,1954,2079,2096,1848,1856,1991
548004,40976,8156,40723,7955,-60,54,-1303,884,827,821,365,2719,38,38,874,1595,1694,1919,2045,2111,1859,1863,1996
549005,41040,8244,40788,8020,91,-124,-1364,1010,837,832,262,2876,37,49,875,1595,1694,1919,2045,2111,1859,1863,1996
550006,41120,8372,40853,8085,-127,-701,-1433,1154,840,1079,285,2833,49,38,874,1595,1694,1919,2045,2111,1859,1863,1996
551007,41224,8464,40918,8150,-475,-284,-1491,1235,839,1019,682,2489,40,41,869,1595,1694,1919,2045,2111,1859,1863,1996
552008,41348,8528,40983,8215,-797,67,-1554,1283,855,701,696,2374,44,38,863,1595,1694,1919,2045,2111,1859,1863,1996
553009,41448,8576,41048,8280,-540,288,-1626,1299,855,743,582,2350,36,32,874,1595,1694,1919,2045,2111,1859,1863,1996
554010,41512,8640,41113,8345,-90,89,-1737,1288,852,259,326,2151,41,30,875,1593,1691,1923,2072,2089,1849,1849,1962
555011,41576,8684,41178,8410,-88,365,-1843,1253,860,266,541,1841,48,34,874,1593,1691,1923,2072,2089,1849,1849,1962
556012,41644,8752,41243,8475,-142,61,-1942,1255,879,-12,711,1849,49,31,872,1593,1691,1923,2072,2089,1849,1849,1962
557013,41716,8816,41308,8540,-201,112,-2046,1318,892,493,425,2233,48,35,869,1593,1691,1923,2072,2089,1849,1849,1962
558014,41788,8868,41373,8605,-209,277,-2134,1382,907,1187,206,2126,43,33,867,1593,1691,1923,2072,2089,1849,1849,1962
559015,41840,8924,41438,8670,57,238,-2199,1414,922,1074,313,1868,33,33,864,1625,1729,1958,2096,2048,1813,1822,1940
560016,41912,8984,41503,8735,-202,195,-2274,1462,919,460,77,2367,41,36,869,1625,1729,1958,2096,2048,1813,1822,1940
561017,41984,9048,41568,8800,-211,146,-2339,1550,938,385,-95,2243,49,34,868,1625,1729,1958,2096,2048,1813,1822,1940
562018,42048,9112,41633,8865,-110,147,-2381,1649,955,1351,82,2252,35,35,864,1625,1729,1958,2096,2048,1813,1822,1940
563019,42112,9172,41698,8930,-109,203,-2428,1752,967,1614,93,2316,30,34,864,1625,1729,1958,2096,2048,1813,1822,1940
564020,42188,9244,41763,8995,-272,45,-2488,1843,989,1252,93,2403,44,47,869,1625,1729,1958,2096,2048,1813,1822,1940
565021,42240,9308,41828,9060,44,146,-2570,1953,982,1066,237,2417,44,44,869,1625,1737,1931,2049,1994,1760,1801,1938
566022,42304,9364,41893,9125,-105,256,-2642,2046,982,761,314,2182,29,43,875,1625,1737,1931,2049,1994,1760,1801,1938
567023,42364,9440,41958,9190,-50,-8,-2733,2109,976,1017,509,2544,31,49,874,1625,1737,1931,2049,1994,1760,1801,1938
568024,42440,9504,42023,9255,-264,144,-2815,2167,977,677,392,2267,34,46,870,1625,1737,1931,2049,1994,1760,1801,1938
569025,42488,9568,42088,9320,107,145,-2878,2139,981,72,632,2437,31,39,875,1625,1737,1931,2049,1994,1760,1801,1938
570026,42548,9620,42153,9385,-37,311,-2879,1984,995,-368,684,2935,36,50,874,1613,1725,1924,2054,2019,1784,1814,1937
571027,42612,9688,42218,9450,-85,107,-2801,1729,1001,-609,536,3592,43,49,874,1613,1725,1924,2054,2019,1784,1814,1937
572028,42680,9748,42283,9515,-139,213,-2642,1402,975,-736,298,4162,44,41,873,1613,1725,1924,2054,2019,1784,1814,1937
573029,42744,9808,42348,9580,-88,219,-2432,1088,950,-507,192,4800,43,41,872,1613,1725,1924,2054,2019,1784,1814,1937
574030,42796,9880,42413,9645,77,61,-2221,916,940,-24,393,5282,29,52,868,1613,1725,1924,2054,2019,1784,1814,1937
575031,42860,9952,42478,9710,-72,52,-2063,786,925,838,599,4721,47,53,871,1613,1725,1924,2054,2019,1784,1814,1937
576032,42912,10020,42543,9775,94,98,-1957,575,912,1269,659,4786,30,54,874,1654,1784,1992,2166,2007,1759,1847,1967
577033,42984,10092,42608,9840,-164,39,-1895,403,922,1164,975,5220,37,46,874,1654,1784,1992,2166,2007,1759,1847,1967
578034,43032,10156,42673,9905,156,140,-1842,336,947,846,1025,5200,50,46,874,1654,1784,1992,2166,2007,1759,1847,1967
579035,43096,10248,42738,9970,-43,-243,-1797,417,962,1316,1050,5823,38,52,867,1654,1784,1992,2166,2007,1759,1847,1967
580036,43184,10316,42803,10035,-372,53,-1752,487,978,1596,914,5290,45,40,874,1654,1784,1992,2166,2007,1759,1847,1967
581037,43232,10380,42868,10100,149,105,-1703,429,999,1313,895,4964,39,52,872,2039,2195,2338,2591,1935,1724,1878,1986
582038,43300,10448,42933,10165,-104,51,-1659,260,1033,714,616,4898,49,37,874,2039,2195,2338,2591,1935,1724,1878,1986
583039,43368,10528,42998,10230,-108,-117,-1623,43,1069,218,559,4575,33,53,874,2039,2195,2338,2591,1935,1724,1878,1986
584040,43440,10612,43063,10295,-167,-190,-1578,-74,1129,-28,399,5234,51,39,871,2039,2195,2338,2591,1935,1724,1878,1986
585041,43512,10680,43128,10360,-175,6,-1495,-97,1228,-63,273,5155,48,50,870,2039,2195,2338,2591,1935,1724,1878,1986
586043,43600,10760,43193,10425,-403,-163,-1377,-218,1292,-580,-209,5466,47,38,866,2039,2195,2338,2591,1935,1724,1878,1986
587043,43668,10824,43258,10490,-158,38,-1229,-467,1304,-1279,-638,5679,48,37,866,2410,2523,2615,2871,1931,1737,1860,1954
588044,43752,10912,43323,10555,-381,-290,-1053,-688,1320,-1497,-686,6356,52,39,874,2410,2523,2615,2871,1931,1737,1860,1954
589045,43832,10968,43388,10620,-349,121,-895,-883,1338,-1215,-885,6166,47,32,868,2410,2523,2615,2871,1931,1737,1860,1954
590046,43912,11024,43453,10685,-368,132,-747,-1029,1334,-1031,-861,6579,40,49,874,2410,2523,2615,2871,1931,1737,1860,1954
591047,43984,11120,43518,10750,-276,-406,-620,-1113,1306,-1066,-855,6826,47,51,875,2410,2523,2615,2871,1931,1737,1860,1954
592048,44060,11200,43583,10815,-340,-224,-503,-1170,1272,-1374,-665,6859,53,33,874,2291,2355,2483,2703,1938,1746,1839,1918
593049,44160,11276,43648,10880,-683,-189,-388,-1177,1239,-1274,-383,6834,57,44,872,2291,2355,2483,2703,1938,1746,1839,1918
594050,44240,11364,43713,10945,-452,-367,-292,-1169,1218,-430,-181,6987,47,48,874,2291,2355,2483,2703,1938,1746,1839,1918
595051,44324,11420,43778,11010,-525,44,-185,-1220,1220,245,-167,6431,53,37,874,2291,2355,2483,2703,1938,1746,1839,1918
596052,44424,11484,43843,11075,-768,-55,-67,-1261,1235,-266,-44,6271,56,41,873,2291,2355,2483,2703,1938,1746,1839,1918
597053,44504,11556,43908,11140,-536,-163,56,-1277,1230,-543,121,6115,59,44,874,2047,2083,2240,2486,1981,1807,1886,1945
598054,44588,11612,43973,11205,-610,48,150,-1218,1246,-327,-109,5776,55,35,874,2047,2083,2240,2486,1981,1807,1886,1945
599055,44684,11688,44038,11270,-798,-216,220,-1089,1277,849,-97,5132,53,42,873,2047,2083,2240,2486,1981,1807,1886,1945
600056,44760,11764,44103,11335,-562,-230,262,-897,1294,754,-346,4828,45,43,875,2047,2083,2240,2486,1981,1807,1886,1945
601057,44852,11824,44168,11400,-794,-24,253,-575,1318,197,-558,5360,62,48,874,2047,2083,2240,2486,1981,1807,1886,1945
602058,44944,11896,44233,11465,-828,-183,172,-193,1375,591,-327,5071,51,36,874,2047,2083,2240,2486,1981,1807,1886,1945
603059,45028,11980,44298,11530,-752,-356,62,173,1438,498,-438,4773,61,51,875,1877,1923,2106,2346,2055,1887,1917,1965
604060,45124,12036,44363,11595,-939,5,-27,440,1496,-376,-798,4425,55,34,874,1877,1923,2106,2346,2055,1887,1917,1965
605061,45232,12096,44428,11660,-1142,-39,-68,551,1507,-759,-923,3658,55,49,873,1877,1923,2106,2346,2055,1887,1917,1965
606062,45316,12156,44493,11725,-866,-34,-30,200,1403,-2445,-1633,2496,60,38,867,1877,1923,2106,2346,2055,1887,1917,1965
607063,45436,12224,44558,11790,-1383,-137,9,-107,1315,-2969,-2052,2842,69,50,875,1877,1923,2106,2346,2055,1887,1917,1965
608064,45540,12288,44623,11855,-1231,-86,72,-306,1240,-2626,-2024,3372,56,37,875,1688,1742,1998,2198,2160,1960,1906,1996
609065,45628,12356,44688,11920,-1060,-140,113,-399,1195,-2263,-2367,3275,68,38,874,1688,1742,1998,2198,2160,1960,1906,1996
610066,45744,12444,44753,11985,-1472,-418,147,-282,1167,-1642,-2605,3942,55,41,871,1688,1742,1998,2198,2160,1960,1906,1996
611067,45856,12504,44818,12050,-1481,-62,137,-14,1111,-340,-1825,4524,66,48,874,1688,1742,1998,2198,2160,1960,1906,1996
612068,45980,12560,44883,12115,-1703,-2,99,182,1131,424,-2029,4006,66,47,873,1688,1742,1998,2198,2160,1960,1906,1996
613071,46084,12620,44948,12180,-1500,-46,17,292,1147,724,-1966,3832,61,38,874,1688,1742,1998,2198,2160,1960,1906,1996
614070,46196,12676,45013,12245,-1659,15,-53,533,1163,462,-1546,4614,65,41,872,1611,1711,1946,2096,2072,1836,1848,1978
615071,46316,12752,45078,12310,-1826,-248,-173,838,1211,732,-1188,4252,53,50,874,1611,1711,1946,2096,2072,1836,1848,1978
616072,46408,12812,45143,12375,-1510,-42,-356,1121,1266,1303,-1096,3272,71,42,874,1611,1711,1946,2096,2072,1836,1848,1978
617073,46492,12880,45208,12440,-1433,-147,-612,1324,1258,1288,-535,2904,56,39,874,1611,1711,1946,2096,2072,1836,1848,1978
618074,46628,12948,45273,12505,-2171,-150,-879,1412,1213,337,-617,2260,56,47,873,1611,1711,1946,2096,2072,1836,1848,1978
619075,46720,13008,45338,12570,-1654,-44,-1129,1381,1169,561,-830,2133,71,46,875,1707,1825,1987,2151,2020,1802,1890,2004
620076,46808,13080,45403,12635,-1633,-203,-1299,1152,1124,99,-725,1582,68,47,874,1707,1825,1987,2151,2020,1802,1890,2004
621077,46928,13144,45468,12700,-2100,-101,-1378,847,1056,-1067,-920,2117,67,43,875,1707,1825,1987,2151,2020,1802,1890,2004
622078,47040,13216,45533,12765,-2058,-210,-1403,585,1015,-1798,-1972,2229,56,34,873,1707,1825,1987,2151,2020,1802,1890,2004
623079,47108,13280,45598,12830,-1512,-110,-1360,289,960,-668,-1783,2961,54,47,874,1707,1825,1987,2151,2020,1802,1890,2004
624080,47224,13348,45663,12895,-2175,-163,-1290,-22,881,-874,-1783,2803,64,34,874,1707,1825,1987,2151,2020,1802,1890,2004
625081,47316,13408,45728,12960,-1909,-57,-1208,-258,806,-1214,-2364,3532,49,42,875,1683,1792,1969,2105,2176,1915,1959,2119
626082,47412,13476,45793,13025,-1997,-161,-1140,-403,770,-414,-2752,3696,49,33,874,1683,1792,1969,2105,2176,1915,1959,2119
627083,47472,13524,45858,13090,-1542,110,-1040,-453,729,463,-2620,3683,51,41,875,1683,1792,1969,2105,2176,1915,1959,2119
628084,47592,13588,45923,13155,-2359,-89,-1004,-433,701,356,-1756,4472,63,37,874,1683,1792,1969,2105,2176,1915,1959,2119
629085,47676,13644,45988,13220,-1933,21,-1074,-401,706,364,-1368,4294,63,41,875,1683,1792,1969,2105,2176,1915,1959,2119
630086,47740,13704,46053,13285,-1683,-23,-1086,-353,699,935,-1773,3597,59,32,874,1649,1798,1975,2097,2121,1845,1924,2069
631087,47844,13764,46118,13350,-2230,-17,-1156,-410,634,914,-1654,2781,42,46,875,1649,1798,1975,2097,2121,1845,1924,2069
632088,47928,13820,46183,13415,-2005,44,-1235,-530,601,299,-1370,3511,48,48,874,1649,1798,1975,2097,2121,1845,1924,2069
633089,48012,13876,46248,13480,-2029,55,-1316,-750,603,377,-860,2741,40,30,874,1649,1798,1975,2097,2121,1845,1924,2069
634090,48112,13924,46313,13545,-2272,176,-1391,-1012,599,66,-783,2204,58,46,875,1649,1798,1975,2097,2121,1845,1924,2069
635091,48188,13980,46378,13610,-1986,86,-1458,-1280,581,12,-1124,2331,47,43,875,1649,1798,1975,2097,2121,1845,1924,2069
636092,48264,14016,46443,13675,-2000,371,-1496,-1498,570,-576,-1436,2955,50,40,875,1783,1927,2075,2255,1991,1765,1866,1945
637093,48352,14084,46508,13740,-2178,-32,-1555,-1673,579,-471,-1540,2746,47,40,875,1783,1927,2075,2255,1991,1765,1866,1945
638094,48424,14144,46573,13805,-1988,74,-1619,-1645,577,872,-1292,4386,44,45,873,1783,1927,2075,2255,1991,1765,1866,1945
639095,48496,14160,46638,13870,-1998,683,-1715,-1559,572,1173,-1352,4478,37,33,868,1783,1927,2075,2255,1991,1765,1866,1945
640096,48580,14164,46703,13935,-2172,908,-1818,-1516,533,936,-1175,4948,53,48,874,1783,1927,2075,2255,1991,1765,1866,1945
641097,48648,14208,46768,14000,-1975,434,-1872,-1504,469,772,-1448,5403,41,34,872,1856,1972,2109,2294,1942,1748,1839,1945
642098,48704,14272,46833,14065,-1815,185,-1859,-1525,406,767,-1564,5268,53,54,870,1856,1972,2109,2294,1942,1748,1839,1945
643099,48780,14368,46898,14130,-2080,-253,-1831,-1605,353,351,-1588,5190,43,52,869,1856,1972,2109,2294,1942,1748,1839,1945
644100,48828,14444,46963,14195,-1710,-17,-1746,-1630,292,-76,-2100,6110,48,42,874,1856,1972,2109,2294,1942,1748,1839,1945
645101,48896,14520,47028,14260,-1964,-31,-1585,-1545,231,-70,-2459,7081,38,37,874,1856,1972,2109,2294,1942,1748,1839,1945
646102,48952,14600,47093,14325,-1804,-99,-1370,-1476,145,732,-2461,7052,27,50,875,1856,1972,2109,2294,1942,1748,1839,1945
647103,49016,14660,47158,14390,-1904,157,-1157,-1359,53,1024,-2411,7797,42,36,870,1809,1903,2109,2311,2105,1899,1946,2046
648104,49064,14732,47223,14455,-1683,-2,-984,-1216,-38,1177,-1815,7581,41,35,874,1809,1903,2109,2311,2105,1899,1946,2046
649105,49128,14804,47288,14520,-1883,-10,-873,-1088,-113,975,-1665,7102,22,49,874,1809,1903,2109,2311,2105,1899,1946,2046
650106,49168,14876,47353,14585,-1553,-19,-843,-1038,-157,709,-1330,6148,38,48,874,1809,1903,2109,2311,2105,1899,1946,2046
651107,49212,14948,47418,14650,-1577,-27,-850,-966,-166,409,-1109,5476,19,46,874,1809,1903,2109,2311,2105,1899,1946,2046
652108,49260,15004,47483,14715,-1608,184,-893,-858,-140,469,-716,5254,36,39,875,1935,2043,2291,2647,2157,1985,2039,2043
653109,49296,15060,47548,14780,-1423,194,-926,-702,-85,315,-634,5355,30,44,875,1935,2043,2291,2647,2157,1985,2039,2043
654110,49332,15120,47613,14845,-1389,150,-943,-584,-19,351,-512,5403,13,30,874,1935,2043,2291,2647,2157,1985,2039,2043
655111,49368,15176,47678,14910,-1353,211,-948,-472,38,414,-604,5765,15,44,873,1935,2043,2291,2647,2157,1985,2039,2043
656112,49392,15228,47743,14975,-1154,277,-941,-337,72,848,-765,5762,29,39,875,1935,2043,2291,2647,2157,1985,2039,2043
657113,49412,15292,47808,15040,-1050,128,-938,-162,68,1347,-859,5748,27,38,874,1935,2043,2291,2647,2157,1985,2039,2043
658114,49444,15352,47873,15105,-1160,184,-945,-61,43,1561,-1124,5333,9,34,874,2104,2225,2439,2840,2090,1932,1978,1974
659115,49456,15408,47938,15170,-847,245,-921,60,-1,1465,-1472,5831,16,40,874,2104,2225,2439,2840,2090,1932,1978,1974
660116,49472,15476,48003,15235,-837,91,-865,148,-64,1473,-1888,5624,23,29,874,2104,2225,2439,2840,2090,1932,1978,1974
661118,49496,15516,48068,15300,-888,472,-761,263,-148,1829,-2152,6141,14,41,874,2104,2225,2439,2840,2090,1932,1978,1974
662118,49500,15580,48133,15365,-563,173,-627,361,-253,1781,-2415,6018,13,31,875,2104,2225,2439,2840,2090,1932,1978,1974
663119,49504,15632,48198,15430,-490,338,-475,437,-360,1671,-2542,6196,-3,39,872,2037,2069,2279,2537,1987,1795,1826,1886
664120,49512,15692,48263,15495,-470,244,-331,475,-462,1571,-2506,5945,14,36,874,2037,2069,2279,2537,1987,1795,1826,1886
665121,49512,15748,48328,15560,-292,305,-206,489,-554,1553,-2409,5739,7,27,874,2037,2069,2279,2537,1987,1795,1826,1886
666122,49504,15816,48393,15625,-103,151,-106,505,-621,1519,-2223,5293,0,40,873,2037,2069,2279,2537,1987,1795,1826,1886
667123,49504,15872,48458,15690,-124,312,-38,498,-666,1393,-2007,4782,-1,31,872,2037,2069,2279,2537,1987,1795,1826,1886
668124,49504,15928,48523,15755,-45,323,-6,480,-691,1193,-1659,4389,10,43,875,2037,2069,2279,2537,1987,1795,1826,1886
669125,49504,15984,48588,15820,33,334,-3,462,-693,1255,-1247,3870,-5,35,869,1824,1907,2079,2282,1889,1687,1772,1847
670126,49496,16040,48653,15885,222,345,-15,445,-679,1225,-974,3354,9,32,873,1824,1907,2079,2282,1889,1687,1772,1847
671127,49492,16100,48718,15950,257,301,-50,418,-648,1066,-693,2942,-5,32,873,1824,1907,2079,2282,1889,1687,1772,1847
672128,49504,16148,48783,16015,120,472,-89,403,-604,1140,-502,2566,-2,39,873,1824,1907,2079,2282,1889,1687,1772,1847
673129,49504,16216,48848,16080,350,218,-125,381,-557,1125,-381,2246,14,34,873,1824,1907,2079,2282,1889,1687,1772,1847
674130,49508,16264,48913,16145,374,489,-142,352,-521,1127,-346,2016,11,43,873,1801,1925,2040,2244,1908,1704,1836,1927
675131,49492,16320,48978,16210,723,400,-138,297,-491,1042,-390,1807,16,35,873,1801,1925,2040,2244,1908,1704,1836,1927
676132,49524,16384,49043,16275,163,301,-106,222,-482,1038,-456,1838,6,45,871,1801,1925,2040,2244,1908,1704,1836,1927
677133,49516,16456,49108,16340,751,193,-42,125,-489,1043,-652,1799,13,41,870,1801,1925,2040,2244,1908,1704,1836,1927
678134,49532,16516,49173,16405,511,349,44,13,-514,1006,-867,1857,3,36,873,1801,1925,2040,2244,1908,1704,1836,1927
679135,49548,16576,49238,16470,571,355,153,-107,-554,968,-1012,2024,23,47,870,1801,1925,2040,2244,1908,1704,1836,1927
680136,49556,16632,49303,16535,741,415,277,-231,-607,1098,-1176,2112,22,46,871,1746,1866,1996,2158,2007,1768,1844,1957
681137,49568,16688,49368,16600,755,426,406,-347,-664,999,-1421,2220,22,35,871,1746,1866,1996,2158,2007,1768,1844,1957
682138,49604,16764,49433,16665,491,163,521,-433,-726,1020,-1462,2353,28,45,869,1746,1866,1996,2158,2007,1768,1844,1957
683139,49640,16848,49498,16730,526,39,618,-482,-779,1303,-1484,2451,33,46,867,1746,1866,1996,2158,2007,1768,1844,1957
684140,49648,16904,49563,16795,946,400,688,-507,-819,1347,-1427,2564,23,48,871,1746,1866,1996,2158,2007,1768,1844,1957
685141,49688,16976,49628,16860,576,192,722,-503,-846,1140,-1323,2750,34,44,872,1696,1800,1984,2139,1921,1692,1741,1832
686142,49736,17044,49693,16925,497,238,723,-482,-854,1095,-1059,2735,22,48,868,1696,1800,1984,2139,1921,1692,1741,1832
687143,49772,17096,49758,16990,682,454,690,-452,-841,1050,-870,2731,35,46,871,1696,1800,1984,2139,1921,1692,1741,1832
688144,49816,17164,49823,17055,608,250,638,-427,-810,832,-687,2670,32,40,872,1696,1800,1984,2139,1921,1692,1741,1832
689145,49872,17244,49888,17120,469,82,563,-404,-754,485,-473,2791,41,37,870,1696,1800,1984,2139,1921,1692,1741,1832
690146,49940,17300,49953,17185,315,393,488,-382,-684,285,-297,2716,40,46,871,1696,1800,1984,2139,1921,1692,1741,1832
691147,49988,17360,50018,17250,586,349,417,-342,-623,270,-109,2903,43,48,873,1765,1846,2035,2255,1819,1645,1713,1775
692148,50032,17436,50083,17315,662,136,356,-326,-535,48,-188,2891,38,48,872,1765,1846,2035,2255,1819,1645,1713,1775
693149,50088,17508,50148,17380,523,177,322,-262,-462,75,-55,3316,41,47,870,1765,1846,2035,2255,1819,1645,1713,1775
694150,50152,17548,50213,17445,424,608,332,-212,-397,122,10,3313,29,44,870,1765,1846,2035,2255,1819,1645,1713,1775
695151,50192,17612,50278,17510,754,309,378,-189,-355,241,10,3650,44,46,872,1765,1846,2035,2255,1819,1645,1713,1775
696152,50260,17692,50343,17575,401,91,444,-156,-320,200,-43,3962,44,48,870,1820,1888,2085,2323,1947,1779,1834,1917
697153,50316,17756,50408,17640,562,292,523,-100,-299,375,-28,3872,51,34,870,1820,1888,2085,2323,1947,1779,1834,1917
698154,50368,17812,50473,17705,628,403,633,-38,-275,502,-256,3606,43,34,873,1820,1888,2085,2323,1947,1779,1834,1917
699155,50436,17872,50672,17904,588,523,766,61,-258,682,-192,4175,48,46,871,1820,1888,2085,2323,1947,1779,1834,1917
700156,50492,17948,50737,17969,749,309,887,189,-247,797,-38,4565,38,50,870,1820,1888,2085,2323,1947,1779,1834,1917
701157,50556,18004,50802,18034,650,570,966,289,-237,715,40,4434,51,47,868,1820,1888,2085,2323,1947,1779,1834,1917
702158,50628,18084,50867,18099,541,252,1057,364,-235,739,-250,3624,37,50,870,1809,1882,2118,2343,2124,1904,1926,2024
703159,50692,18136,50932,18164,642,618,1156,471,-227,1108,-219,3832,58,38,869,1809,1882,2118,2343,2124,1904,1926,2024
704160,50764,18204,50997,18229,534,414,1218,576,-177,953,-17,4317,57,46,871,1809,1882,2118,2343,2124,1904,1926,2024
705161,50844,18292,51062,18294,416,136,1228,646,-141,981,414,4214,54,37,869,1809,1882,2118,2343,2124,1904,1926,2024
706162,50928,18352,51127,18359,342,492,1221,718,-109,894,293,3846,40,49,870,1809,1882,2118,2343,2124,1904,1926,2024
707163,51016,18424,51192,18424,264,334,1193,831,-72,1278,313,4400,54,38,873,1866,1945,2174,2400,2056,1832,1864,1939
708164,51088,18496,51257,18489,456,325,1144,910,1,909,-11,4244,41,51,871,1866,1945,2174,2400,2056,1832,1864,1939
709165,51168,18556,51322,18554,338,481,1102,963,63,736,42,4056,56,38,872,1866,1945,2174,2400,2056,1832,1864,1939
710166,51244,18644,51387,18619,375,103,1087,972,125,642,62,4180,54,37,871,1866,1945,2174,2400,2056,1832,1864,1939
711167,51324,18696,51452,18684,307,569,1061,973,176,687,171,4624,44,36,871,1866,1945,2174,2400,2056,1832,1864,1939
712168,51400,18768,51517,18749,343,310,1040,1001,230,712,-73,4823,55,49,873,1866,1945,2174,2400,2056,1832,1864,1939
713169,51464,18832,51582,18814,495,412,1028,1014,277,926,12,4674,35,48,871,1881,1952,2156,2368,1950,1746,1793,1886
714170,51540,18900,51647,18879,331,358,1029,1020,323,932,-83,4826,44,37,872,1881,1952,2156,2368,1950,1746,1793,1886
715171,51612,18976,51712,18944,373,244,1025,1012,364,721,-171,4662,36,48,871,1881,1952,2156,2368,1950,1746,1793,1886
716172,51688,19036,51777,19009,309,451,1033,963,387,584,-47,4427,44,36,872,1881,1952,2156,2368,1950,1746,1793,1886
717173,51736,19092,51842,19074,680,512,1061,893,404,416,-71,4198,52,45,871,1881,1952,2156,2368,1950,1746,1793,1886
718174,51808,19176,51907,19139,371,138,1095,869,416,746,-53,4421,49,37,870,1825,1909,2116,2292,2012,1796,1850,1984
719175,51872,19228,51972,19204,473,554,1135,852,424,1088,-46,4269,35,42,869,1825,1909,2116,2292,2012,1796,1850,1984
720176,51952,19276,52037,19269,254,625,1182,838,432,1233,34,4144,45,45,873,1825,1909,2116,2292,2012,1796,1850,1984
721177,52004,19336,52102,19334,620,481,1228,819,443,1164,90,3961,33,32,870,1825,1909,2116,2292,2012,1796,1850,1984
722178,52076,19400,52167,19399,362,432,1254,800,451,1053,26,3781,49,39,871,1825,1909,2116,2292,2012,1796,1850,1984
723179,52140,19480,52232,19464,463,214,1269,799,434,1195,272,3776,35,47,870,1825,1909,2116,2292,2012,1796,1850,1984
724180,52196,19544,52297,19529,574,415,1267,778,447,1334,462,3295,39,48,872,1798,1910,2112,2277,2123,1879,1935,2075
725181,52256,19596,52362,19594,530,580,1263,753,469,1233,556,3398,38,31,872,1798,1910,2112,2277,2123,1879,1935,2075
726182,52316,19660,52427,19659,536,431,1241,719,482,985,658,3441,38,42,871,1798,1910,2112,2277,2123,1879,1935,2075
727183,52384,19732,52492,19724,432,323,1222,658,497,840,591,3304,39,34,870,1798,1910,2112,2277,2123,1879,1935,2075
728184,52432,19784,52557,19789,703,589,1197,591,518,753,490,3399,47,29,871,1798,1910,2112,2277,2123,1879,1935,2075
729185,52512,19860,52622,19854,285,275,1178,511,528,773,537,3483,49,44,872,1812,1927,2116,2282,2111,1860,1912,2032
730186,52564,19912,52687,19919,651,591,1157,435,534,651,451,3574,50,29,868,1812,1927,2116,2282,2111,1860,1912,2032
731187,52620,19972,52752,19984,612,497,1139,344,544,502,304,3780,44,34,872,1812,1927,2116,2282,2111,1860,1912,2032
732188,52696,20024,52817,20049,348,613,1103,265,542,505,275,3845,40,40,869,1812,1927,2116,2282,2111,1860,1912,2032
733189,52760,20084,52882,20114,499,519,1073,226,532,486,72,4128,51,44,870,1812,1927,2116,2282,2111,1860,1912,2032
734190,52816,20140,52947,20179,611,580,1034,196,524,700,57,4093,33,43,869,1812,1927,2116,2282,2111,1860,1912,2032
735191,52888,20196,53012,20244,403,591,1012,171,510,701,-50,4270,37,36,870,1766,1876,2071,2224,2031,1794,1833,1958
736192,52956,20244,53077,20309,449,713,988,156,490,660,-127,4390,36,42,869,1766,1876,2071,2224,2031,1794,1833,1958
737193,53036,20320,53142,20374,281,349,970,155,458,754,-121,4446,47,38,870,1766,1876,2071,2224,2031,1794,1833,1958
738194,53080,20360,53207,20439,757,830,942,170,448,743,-172,4385,41,43,869,1766,1876,2071,2224,2031,1794,1833,1958
739195,53140,20416,53272,20504,563,641,932,189,429,817,-68,4342,46,37,872,1766,1876,2071,2224,2031,1794,1833,1958
740196,53200,20476,53337,20569,569,597,902,195,413,700,11,4137,43,43,867,1740,1847,2063,2215,2028,1810,1848,1980
741197,53268,20556,53402,20634,465,329,886,191,391,618,110,3960,36,34,869,1740,1847,2063,2215,2028,1810,1848,1980
742198,53340,20608,53467,20699,407,695,852,168,382,409,222,3687,41,42,870,1740,1847,2063,2215,2028,1810,1848,1980
743199,53400,20664,53532,20764,563,656,826,113,376,225,422,3601,39,36,871,1740,1847,2063,2215,2028,1810,1848,1980
744200,53456,20716,53597,20829,624,721,808,49,377,122,561,3639,47,33,870,1740,1847,2063,2215,2028,1810,1848,1980
745201,53528,20780,53662,20894,415,573,803,-16,385,37,659,3705,44,46,869,1740,1847,2063,2215,2028,1810,1848,1980
746202,53584,20856,53727,20959,626,409,809,-49,396,108,787,3676,38,43,868,1776,1881,2108,2292,2104,1888,1922,2038
747203,53640,20924,53792,21024,637,506,795,-81,387,213,947,3527,47,49,871,1776,1881,2108,2292,2104,1888,1922,2038
748204,53712,20992,53857,21089,429,502,769,-78,380,372,1131,3553,52,42,870,1776,1881,2108,2292,2104,1888,1922,2038
749205,53780,21060,53922,21154,475,498,754,-107,382,389,1160,3533,51,37,869,1776,1881,2108,2292,2104,1888,1922,2038
750206,53840,21136,53987,21219,581,385,749,-84,386,346,978,3757,46,34,871,1776,1881,2108,2292,2104,1888,1922,2038
751207,53900,21204,54052,21284,587,481,762,0,364,720,897,4070,35,43,870,1813,1913,2127,2311,2117,1887,1919,2038
752208,53956,21288,54117,21349,648,258,751,108,333,870,958,4172,32,41,869,1813,1913,2127,2311,2117,1887,1919,2038
753209,54036,21336,54182,21414,330,729,748,169,308,420,836,3888,47,32,870,1813,1913,2127,2311,2117,1887,1919,2038
754210,54072,21404,54247,21479,916,475,722,212,286,99,759,4091,32,45,871,1813,1913,2127,2311,2117,1887,1919,2038
755211,54136,21472,54312,21544,567,471,710,222,244,-9,673,4150,41,43,870,1813,1913,2127,2311,2117,1887,1919,2038
756212,54200,21516,54377,21609,569,797,695,204,203,-243,524,4000,38,44,868,1813,1913,2127,2311,2117,1887,1919,2038
757213,54272,21568,54442,21674,460,713,690,199,153,-344,531,4433,37,47,870,1797,1890,2105,2272,2043,1814,1838,1952
758214,54340,21644,54507,21739,506,399,660,191,112,-572,565,4297,45,45,868,1797,1890,2105,2272,2043,1814,1838,1952
759215,54420,21712,54572,21804,338,496,638,188,74,-631,541,4440,42,39,869,1797,1890,2105,2272,2043,1814,1838,1952
760216,54484,21772,54637,21869,539,602,597,170,44,-386,508,4225,34,32,871,1797,1890,2105,2272,2043,1814,1838,1952
761217,54552,21828,54702,21934,486,663,584,108,44,-646,654,4340,32,34,871,1797,1890,2105,2272,2043,1814,1838,1952
762218,54616,21900,54767,21999,537,454,577,31,38,-804,741,4419,51,39,869,1768,1862,2088,2252,1996,1790,1817,1939
763219,54688,21964,54832,22064,428,556,585,6,60,-798,730,4642,46,34,869,1768,1862,2088,2252,1996,1790,1817,1939
764220,54768,22040,54897,22129,310,392,602,36,83,-233,966,4349,39,47,871,1768,1862,2088,2252,1996,1790,1817,1939
765221,54824,22096,54962,22194,621,653,591,85,95,-85,947,4078,46,42,871,1768,1862,2088,2252,1996,1790,1817,1939
766222,54904,22144,55027,22259,303,774,556,185,77,558,1226,3758,29,36,872,1768,1862,2088,2252,1996,1790,1817,1939
767223,54952,22208,55092,22324,723,575,520,287,82,766,1270,3602,50,38,869,1768,1862,2088,2252,1996,1790,1817,1939
768224,55016,22288,55157,22389,525,358,515,327,102,350,1298,3576,28,36,869,1793,1893,2124,2304,2049,1847,1887,2016
769225,55068,22380,55222,22454,690,175,521,339,119,-324,1319,3644,43,51,867,1793,1893,2124,2304,2049,1847,1887,2016
770226,55132,22452,55287,22519,542,416,531,384,96,-282,1300,3623,31,51,871,1793,1893,2124,2304,2049,1847,1887,2016
771227,55208,22512,55352,22584,378,572,525,420,57,118,1478,3383,36,33,871,1793,1893,2124,2304,2049,1847,1887,2016
772228,55260,22604,55417,22649,695,139,508,425,6,20,1448,3255,33,45,871,1793,1893,2124,2304,2049,1847,1887,2016
773229,55316,22664,55482,22714,656,546,487,398,-44,-443,1352,3128,48,47,871,1833,1922,2146,2327,2102,1884,1908,2020
774230,55368,22732,55547,22779,722,442,483,319,-80,-850,1297,3200,34,44,871,1833,1922,2146,2327,2102,1884,1908,2020
775231,55444,22808,55612,22844,409,328,470,208,-128,-1046,1326,3459,34,38,869,1833,1922,2146,2327,2102,1884,1908,2020
776232,55500,22864,55677,22909,670,589,461,141,-179,-1001,1169,3659,38,39,869,1833,1922,2146,2327,2102,1884,1908,2020
777233,55564,22928,55742,22974,571,491,446,89,-214,-728,1129,3806,48,29,871,1833,1922,2146,2327,2102,1884,1908,2020
778234,55628,22988,55807,23039,572,547,432,45,-237,-685,992,4113,48,28,869,1833,1922,2146,2327,2102,1884,1908,2020
779235,55688,23044,55872,23104,628,608,413,23,-256,-738,827,4342,32,44,870,1783,1869,2091,2253,2050,1822,1839,1959
780236,55752,23100,55937,23169,579,619,383,73,-264,-333,808,4429,36,43,870,1783,1869,2091,2253,2050,1822,1839,1959
781237,55784,23164,56002,23234,1020,520,361,104,-254,124,904,4515,40,40,869,1783,1869,2091,2253,2050,1822,1839,1959
782238,55848,23224,56067,23299,621,576,349,117,-225,94,789,4637,37,45,869,1783,1869,2091,2253,2050,1822,1839,1959
783239,55920,23280,56132,23364,512,637,357,110,-169,-471,736,4899,37,35,866,1783,1869,2091,2253,2050,1822,1839,1959
784240,55980,23344,56197,23429,668,538,363,154,-125,-357,873,4879,37,33,869,1735,1835,2056,2194,2013,1792,1829,1974
785241,56032,23412,56262,23494,784,485,356,220,-83,96,865,4558,36,47,868,1735,1835,2056,2194,2013,1792,1829,1974
786242,56104,23460,56327,23559,526,755,331,261,-59,308,946,4293,49,39,868,1735,1835,2056,2194,2013,1792,1829,1974
787243,56168,23532,56392,23624,628,447,298,278,-46,0,953,4028,38,35,868,1735,1835,2056,2194,2013,1792,1829,1974
788246,56232,23596,56457,23689,629,548,252,272,-39,-267,1022,3823,37,31,869,1735,1835,2056,2194,2013,1792,1829,1974
789245,56276,23652,56522,23754,905,659,207,253,-53,-235,1080,3520,44,42,870,1735,1835,2056,2194,2013,1792,1829,1974
790246,56328,23696,56587,23819,821,835,169,212,-80,-150,1233,3495,45,32,869,1782,1894,2124,2288,2081,1864,1904,2040
791247,56380,23764,56652,23884,837,531,133,151,-102,-337,1218,3281,44,33,866,1782,1894,2124,2288,2081,1864,1904,2040
792248,56448,23824,56717,23949,633,637,99,87,-128,-460,1152,3332,42,35,866,1782,1894,2124,2288,2081,1864,1904,2040
793249,56488,23904,56782,24014,1013,369,70,24,-150,-501,1189,3287,34,46,868,1782,1894,2124,2288,2081,1864,1904,2040
794250,56536,23948,56847,24079,934,844,41,-35,-172,-565,951,3427,46,49,869,1782,1894,2124,2288,2081,1864,1904,2040
795251,56612,24024,56912,24144,571,431,22,-71,-170,-362,966,3633,32,36,868,1846,1936,2171,2348,2153,1918,1939,2067
796252,56656,24068,56977,24209,996,857,16,-100,-162,-394,966,3858,47,42,865,1846,1936,2171,2348,2153,1918,1939,2067
797253,56716,24124,57042,24274,803,718,15,-102,-154,-295,727,4092,39,34,870,1846,1936,2171,2348,2153,1918,1939,2067
798254,56764,24204,57107,24339,974,399,18,-79,-114,-20,637,4400,36,44,864,1846,1936,2171,2348,2153,1918,1939,2067
799255,56816,24284,57172,24404,940,381,24,-58,-65,134,601,4527,31,45,867,1846,1936,2171,2348,2153,1918,1939,2067
800256,56872,24336,57237,24469,901,748,28,-23,-24,73,493,4641,32,40,867,1846,1936,2171,2348,2153,1918,1939,2067
801257,56928,24380,57302,24534,912,873,27,-7,22,211,554,4800,47,33,867,1799,1890,2114,2268,2102,1864,1882,2006
802258,56984,24456,57367,24599,923,460,19,11,68,108,541,4915,45,40,865,1799,1890,2114,2268,2102,1864,1882,2006
803259,57052,24508,57432,24664,769,776,6,39,100,153,453,4910,51,35,864,1799,1890,2114,2268,2102,1864,1882,2006
804260,57100,24584,57497,24729,1041,463,-10,52,142,275,485,4863,37,44,867,1799,1890,2114,2268,2102,1864,1882,2006
805261,57176,24648,57562,24794,678,614,-30,45,185,108,572,4873,32,37,866,1799,1890,2114,2268,2102,1864,1882,2006
806262,57224,24700,57627,24859,1048,780,-59,32,212,-42,517,4544,45,40,867,1759,1854,2075,2240,2040,1816,1850,1971
807263,57280,24748,57692,24924,959,850,-92,-1,227,48,670,4551,45,36,868,1759,1854,2075,2240,2040,1816,1850,1971
808264,57344,24796,57757,24989,861,871,-123,-55,246,-258,703,4299,44,37,864,1759,1854,2075,2240,2040,1816,1850,1971
809265,57396,24856,57822,25054,1027,727,-159,-82,259,-325,662,4177,51,35,865,1759,1854,2075,2240,2040,1816,1850,1971
810266,57456,24928,57887,25119,933,569,-193,-100,264,91,570,3817,29,49,865,1759,1854,2075,2240,2040,1816,1850,1971
811267,57508,25008,57952,25184,1049,450,-230,-113,271,138,538,3788,44,50,865,1759,1854,2075,2240,2040,1816,1850,1971
812268,57564,25060,58017,25249,1010,816,-254,-120,280,61,564,3684,29,35,867,1813,1911,2139,2327,2078,1855,1900,2026
813269,57624,25124,58082,25314,967,667,-271,-140,287,124,598,3629,49,41,866,1813,1911,2139,2327,2078,1855,1900,2026
814270,57672,25164,58147,25379,1137,998,-264,-162,300,-29,583,3816,33,37,865,1813,1911,2139,2327,2078,1855,1900,2026
815271,57736,25220,58212,25444,939,809,-255,-160,318,-95,518,3897,33,33,866,1813,1911,2139,2327,2078,1855,1900,2026
816272,57792,25300,58277,25509,1050,492,-230,-127,319,261,336,3979,49,37,862,1813,1911,2139,2327,2078,1855,1900,2026
817273,57856,25348,58342,25574,952,912,-209,-85,326,646,308,3806,45,48,865,1854,1948,2169,2342,2125,1886,1920,2045
818274,57904,25440,58407,25639,1173,329,-191,-75,347,517,281,3884,50,34,866,1854,1948,2169,2342,2125,1886,1920,2045
819275,57956,25496,58472,25704,1138,790,-182,-108,385,268,459,3816,47,43,864,1854,1948,2169,2342,2125,1886,1920,2045
820276,58020,25548,58537,25769,990,856,-162,-131,422,84,426,4048,33,36,865,1854,1948,2169,2342,2125,1886,1920,2045
821277,58064,25616,58602,25834,1265,653,-140,-158,453,44,457,4242,51,41,864,1854,1948,2169,2342,2125,1886,1920,2045
822278,58144,25688,58667,25899,798,594,-118,-149,498,278,347,4228,40,46,864,1854,1948,2169,2342,2125,1886,1920,2045
823279,58184,25764,58732,25964,1328,531,-96,-135,540,283,426,4231,48,35,864,1821,1911,2127,2299,2055,1827,1862,1966
824280,58240,25824,58797,26029,1139,737,-91,-143,565,62,489,4238,41,38,868,1821,1911,2127,2299,2055,1827,1862,1966
825281,58292,25888,58862,26094,1205,688,-101,-150,591,123,502,4181,47,48,864,1821,1911,2127,2299,2055,1827,1862,1966
826282,58348,25952,58927,26159,1166,689,-104,-170,607,321,570,4150,50,37,864,1821,1911,2127,2299,2055,1827,1862,1966
827283,58404,26024,58992,26224,1178,581,-115,-209,633,126,482,4156,39,53,864,1821,1911,2127,2299,2055,1827,1862,1966
828284,58484,26092,59057,26289,860,627,-119,-212,639,165,548,4255,56,39,864,1798,1886,2094,2283,1978,1771,1815,1909
829285,58540,26160,59122,26354,1171,624,-114,-203,634,428,635,4052,43,39,865,1798,1886,2094,2283,1978,1771,1815,1909
830286,58600,26232,59187,26419,1127,566,-97,-215,636,449,503,4103,47,40,867,1798,1886,2094,2283,1978,1771,1815,1909
831287,58656,26300,59252,26484,1189,612,-88,-195,627,511,589,4020,53,43,865,1798,1886,2094,2283,1978,1771,1815,1909
832288,58732,26372,59317,26549,926,554,-66,-213,636,462,415,3737,38,52,865,1798,1886,2094,2283,1978,1771,1815,1909
833289,58784,26452,59382,26614,1241,435,-52,-197,635,430,394,4021,38,51,865,1816,1902,2117,2313,1989,1785,1835,1941
834290,58856,26524,59447,26679,983,527,-19,-172,620,462,441,3767,42,40,867,1816,1902,2117,2313,1989,1785,1835,1941
835291,58896,26600,59512,26744,1413,463,8,-153,617,573,293,3767,41,52,864,1816,1902,2117,2313,1989,1785,1835,1941
836292,58944,26680,59577,26809,1335,395,50,-144,618,509,289,3667,42,43,865,1816,1902,2117,2313,1989,1785,1835,1941
837293,59008,26744,59642,26874,1136,596,80,-148,623,416,352,3550,39,47,862,1816,1902,2117,2313,1989,1785,1835,1941
838294,59056,26816,59707,26939,1357,488,119,-148,633,232,180,3455,34,42,864,1816,1902,2117,2313,1989,1785,1835,1941
839295,59128,26888,59772,27004,1049,479,150,-142,644,358,345,3511,46,39,865,1842,1935,2154,2348,2031,1822,1866,1970
840296,59188,26948,59837,27069,1206,635,190,-118,650,471,348,3636,37,46,864,1842,1935,2154,2348,2031,1822,1866,1970
841297,59228,27024,59902,27134,1486,422,225,-98,658,541,443,3575,49,39,866,1842,1935,2154,2348,2031,1822,1866,1970
842298,59280,27080,59967,27199,1352,683,258,-77,675,316,450,3673,32,50,864,1842,1935,2154,2348,2031,1822,1866,1970
843299,59332,27164,60032,27264,1368,310,285,-76,689,281,539,3787,49,52,862,1842,1935,2154,2348,2031,1822,1866,1970
844300,59384,27240,60097,27329,1385,396,318,-50,691,356,532,3823,38,55,862,1850,1944,2153,2351,2007,1798,1844,1931
845301,59456,27308,60162,27394,1126,492,332,-10,696,510,555,3961,45,53,864,1850,1944,2153,2351,2007,1798,1844,1931
846302,59504,27364,60227,27459,1447,653,352,11,698,541,658,3872,34,52,864,1850,1944,2153,2351,2007,1798,1844,1931
847303,59560,27420,60292,27524,1358,664,384,24,694,487,754,3995,35,35,865,1850,1944,2153,2351,2007,1798,1844,1931
848304,59624,27488,60357,27589,1260,511,411,48,687,486,743,4230,40,43,862,1850,1944,2153,2351,2007,1798,1844,1931
849305,59684,27556,60422,27654,1316,507,429,74,682,645,545,4113,37,48,863,1850,1944,2153,2351,2007,1798,1844,1931
850306,59744,27620,60487,27719,1322,559,456,88,675,751,530,4047,54,40,864,1831,1914,2120,2326,1963,1767,1813,1894
851307,59808,27684,60552,27784,1275,561,475,96,669,554,510,4177,39,43,864,1831,1914,2120,2326,1963,1767,1813,1894
852308,59868,27724,60617,27849,1331,891,497,136,660,589,374,4270,44,40,864,1831,1914,2120,2326,1963,1767,1813,1894
853309,59928,27784,60682,27914,1337,647,520,166,644,992,319,4036,51,37,863,1831,1914,2120,2326,1963,1767,1813,1894
854310,59984,27840,60747,27979,1398,708,551,179,631,841,302,4128,47,49,860,1831,1914,2120,2326,1963,1767,1813,1894
855311,60040,27896,60812,28044,1410,719,563,190,615,636,267,4010,37,41,863,1817,1899,2117,2319,1972,1779,1821,1916
856312,60104,27968,60877,28109,1311,511,592,211,590,812,174,3882,45,50,861,1817,1899,2117,2319,1972,1779,1821,1916
857313,60164,28024,60942,28174,1367,722,610,225,585,953,187,3858,34,50,861,1817,1899,2117,2319,1972,1779,1821,1916
858314,60212,28088,61007,28239,1539,623,632,246,581,835,199,3873,44,50,864,1817,1899,2117,2319,1972,1779,1821,1916
859315,60276,28148,61072,28304,1340,679,646,269,576,718,302,3647,35,41,862,1817,1899,2117,2319,1972,1779,1821,1916
860316,60324,28216,61137,28369,1561,575,660,288,559,814,388,3694,34,44,860,1817,1899,2117,2319,1972,1779,1821,1916
861317,60376,28284,61202,28434,1527,572,665,313,561,822,331,3720,41,44,862,1824,1912,2137,2337,2026,1824,1864,1968
862318,60448,28356,61267,28499,1269,513,680,335,571,782,381,3493,41,52,861,1824,1912,2137,2337,2026,1824,1864,1968
863319,60508,28440,61332,28564,1425,340,687,336,568,724,499,3541,36,58,861,1824,1912,2137,2337,2026,1824,1864,1968
864320,60552,28516,61397,28629,1651,426,677,334,561,631,488,3630,51,55,864,1824,1912,2137,2337,2026,1824,1864,1968
865321,60624,28576,61462,28694,1293,633,671,338,558,763,411,3381,44,43,863,1824,1912,2137,2337,2026,1824,1864,1968
866322,60676,28660,61527,28759,1559,309,669,328,564,727,590,3756,39,49,861,1827,1928,2144,2334,2058,1844,1884,1989
867323,60740,28720,61592,28824,1411,615,666,336,563,691,511,3742,53,53,864,1827,1928,2144,2334,2058,1844,1884,1989
868324,60792,28796,61657,28889,1577,402,662,363,569,841,462,3889,37,40,862,1827,1928,2144,2334,2058,1844,1884,1989
869326,60840,28860,61722,28954,1648,553,662,377,579,1070,475,3844,53,44,861,1827,1928,2144,2334,2058,1844,1884,1989
870326,60900,28960,61787,29019,1504,61,666,400,589,871,348,3996,52,50,859,1827,1928,2144,2334,2058,1844,1884,1989
871327,60972,29036,61852,29084,1347,347,668,418,592,803,323,4060,54,59,863,1827,1928,2144,2334,2058,1844,1884,1989
872328,61016,29076,61917,29149,1722,828,680,439,575,1015,373,4029,37,56,864,1791,1892,2101,2274,2053,1830,1865,1975
873329,61072,29164,61982,29214,1583,200,684,429,570,882,194,4002,42,44,857,1791,1892,2101,2274,2053,1830,1865,1975
874330,61140,29240,62047,29279,1431,337,677,434,549,868,353,4061,49,44,862,1791,1892,2101,2274,2053,1830,1865,1975
875331,61196,29288,62112,29344,1592,708,687,468,502,1295,416,4228,40,56,864,1791,1892,2101,2274,2053,1830,1865,1975
876332,61256,29340,62177,29409,1548,674,692,506,483,1487,353,4356,48,46,859,1791,1892,2101,2274,2053,1830,1865,1975
877333,61332,29436,62242,29474,1335,86,695,503,469,1082,449,4251,54,56,860,1763,1860,2080,2254,2037,1820,1851,1961
878334,61396,29480,62307,29539,1487,762,684,469,453,693,363,3902,42,46,865,1763,1860,2080,2254,2037,1820,1851,1961
879335,61460,29564,62372,29604,1488,238,668,432,435,752,426,3851,38,43,860,1763,1860,2080,2254,2037,1820,1851,1961
880336,61504,29640,62437,29669,1764,325,637,425,434,828,452,3827,50,46,863,1763,1860,2080,2254,2037,1820,1851,1961
881337,61560,29696,62502,29734,1625,586,608,418,419,895,541,3717,37,48,859,1763,1860,2080,2254,2037,1820,1851,1961
882338,61620,29768,62567,29799,1582,377,579,411,419,867,584,3718,35,46,860,1763,1860,2080,2254,2037,1820,1851,1961
883339,61676,29828,62632,29864,1643,533,548,396,432,816,560,3856,44,52,862,1782,1883,2114,2304,2052,1843,1877,1987
884340,61748,29904,62697,29929,1435,320,523,397,434,737,521,3618,48,55,860,1782,1883,2114,2304,2052,1843,1877,1987
885341,61800,29972,62762,29994,1702,416,484,369,458,561,285,3552,53,57,863,1782,1883,2114,2304,2052,1843,1877,1987
886342,61848,30056,62827,30059,1773,193,458,382,469,608,406,3500,46,51,859,1782,1883,2114,2304,2052,1843,1877,1987
887343,61900,30120,62892,30124,1738,444,438,413,470,899,472,3837,34,45,859,1782,1883,2114,2304,2052,1843,1877,1987
888344,61948,30184,62957,30189,1810,446,431,479,477,965,523,3874,43,53,859,1820,1924,2155,2337,2090,1874,1905,2021
889345,62000,30256,63022,30254,1776,337,420,500,474,940,521,3872,30,41,859,1820,1924,2155,2337,2090,1874,1905,2021
890346,62048,30300,63087,30319,1847,713,426,491,485,532,313,3679,48,54,859,1820,1924,2155,2337,2090,1874,1905,2021
891347,62120,30404,63152,30384,1539,-85,420,460,486,343,529,3626,41,41,857,1820,1924,2155,2337,2090,1874,1905,2021
892348,62148,30460,63217,30449,2134,526,416,472,456,567,576,3959,44,43,863,1820,1924,2155,2337,2090,1874,1905,2021
893349,62200,30504,63282,30514,1851,702,414,517,424,938,617,4032,37,44,855,1820,1924,2155,2337,2090,1874,1905,2021
894350,62272,30548,63347,30579,1593,727,416,538,409,858,690,4025,38,46,857,1800,1901,2128,2297,2089,1862,1886,1997
895351,62328,30640,63412,30644,1804,94,430,522,356,736,966,4086,53,57,859,1800,1901,2128,2297,2089,1862,1886,1997
896352,62392,30728,63477,30709,1706,116,424,549,304,745,832,4477,47,45,860,1800,1901,2128,2297,2089,1862,1886,1997
897353,62456,30772,63542,30774,1707,692,422,602,259,988,875,4345,43,60,861,1800,1901,2128,2297,2089,1862,1886,1997
898354,62508,30840,63607,30839,1874,388,417,635,234,790,826,4409,37,56,858,1800,1901,2128,2297,2089,1862,1886,1997
899355,62576,30916,63672,30904,1670,275,395,621,219,315,834,4143,45,43,859,1769,1865,2089,2268,2039,1825,1853,1955
900356,62640,30984,63737,30969,1723,371,374,631,200,307,885,4133,49,49,861,1769,1865,2089,2268,2039,1825,1853,1955
901357,62716,31056,63802,31034,1559,313,360,631,173,662,1096,4277,54,48,860,1769,1865,2089,2268,2039,1825,1853,1955
902358,62780,31136,63867,31099,1710,194,341,669,168,670,857,4273,57,46,862,1769,1865,2089,2268,2039,1825,1853,1955
903359,62840,31220,63932,31164,1768,121,325,719,174,508,895,4414,41,58,860,1769,1865,2089,2268,2039,1825,1853,1955
904360,62904,31248,63997,31229,1719,866,314,737,188,412,711,4145,37,46,860,1769,1865,2089,2268,2039,1825,1853,1955
905361,62972,31324,64062,31294,1666,253,294,734,191,379,814,3889,52,58,857,1780,1880,2113,2306,2032,1834,1861,1968
906362,63040,31396,64127,31359,1662,294,273,704,175,540,1102,3844,53,54,861,1780,1880,2113,2306,2032,1834,1861,1968
907363,63092,31472,64192,31424,1878,231,260,727,166,354,682,3917,36,48,861,1780,1880,2113,2306,2032,1834,1861,1968
908364,63148,31560,64257,31489,1840,52,243,781,160,374,804,3977,39,54,859,1780,1880,2113,2306,2032,1834,1861,1968
909365,63208,31600,64322,31554,1796,682,248,814,145,497,891,3850,33,57,860,1780,1880,2113,2306,2032,1834,1861,1968
910366,63268,31664,64387,31619,1803,384,240,775,123,433,927,3541,42,51,857,1827,1927,2175,2367,2075,1875,1893,2006
911367,63320,31744,64452,31684,1919,165,238,768,84,322,1100,3618,34,57,859,1827,1927,2175,2367,2075,1875,1893,2006
912368,63364,31796,64517,31749,2045,531,234,762,36,402,1097,3808,32,56,858,1827,1927,2175,2367,2075,1875,1893,2006
913369,63424,31856,64582,31814,1852,437,241,811,-4,442,1033,4043,35,46,856,1827,1927,2175,2367,2075,1875,1893,2006
914370,63468,31920,64647,31879,2078,388,230,839,-34,426,1088,3710,42,51,857,1827,1927,2175,2367,2075,1875,1893,2006
915371,63532,31996,64712,31944,1830,225,223,852,-63,247,1107,3983,50,44,856,1827,1927,2175,2367,2075,1875,1893,2006
916372,63588,32040,64777,32009,1941,651,199,820,-106,168,1220,3704,38,56,859,1838,1930,2172,2352,2072,1860,1880,1990
917373,63636,32104,64842,32074,2063,402,192,811,-164,288,1336,3907,45,49,856,1838,1930,2172,2352,2072,1860,1880,1990
918374,63712,32168,64907,32139,1699,403,183,813,-214,488,1407,4223,36,52,856,1838,1930,2172,2352,2072,1860,1880,1990
919375,63780,32224,64972,32204,1797,514,177,871,-243,370,1246,4552,49,52,860,1838,1930,2172,2352,2072,1860,1880,1990
920376,63844,32292,65037,32269,1848,360,187,918,-288,481,1590,4631,45,55,858,1838,1930,2172,2352,2072,1860,1880,1990
921377,63916,32368,65102,32334,1740,247,190,949,-311,466,1241,4555,54,53,857,1791,1885,2108,2273,2033,1819,1847,1962
922378,63976,32420,65167,32399,1896,563,190,973,-330,490,1322,4491,45,45,860,1791,1885,2108,2273,2033,1819,1847,1962
923379,64040,32476,65232,32464,1848,524,183,966,-352,200,1318,4401,36,54,857,1791,1885,2108,2273,2033,1819,1847,1962
924380,64116,32528,65297,32529,1685,590,170,962,-367,-158,1378,4341,50,49,858,1791,1885,2108,2273,2033,1819,1847,1962
925381,64180,32600,65362,32594,1836,331,168,932,-396,1,1443,3990,50,43,859,1791,1885,2108,2273,2033,1819,1847,1962
926382,64236,32648,65427,32659,1948,652,159,922,-399,175,1287,4246,50,54,859,1791,1885,2108,2273,2033,1819,1847,1962
927383,64304,32720,65492,32724,1795,343,153,902,-423,208,1643,4211,51,43,856,1770,1874,2107,2284,2042,1838,1864,1982
928384,64360,32796,65557,32789,1957,280,152,912,-453,-17,1403,3927,35,56,859,1770,1874,2107,2284,2042,1838,1864,1982
929385,64424,32852,65622,32854,1858,541,136,882,-474,195,1387,3818,39,46,857,1770,1874,2107,2284,2042,1838,1864,1982
930386,64492,32900,65687,32919,1805,662,117,848,-499,74,1362,3534,51,44,857,1770,1874,2107,2284,2042,1838,1864,1982
931387,64564,32992,65752,32984,1747,79,101,804,-544,-25,1522,3510,47,54,857,1770,1874,2107,2284,2042,1838,1864,1982
932388,64624,33044,65817,33049,1903,595,76,772,-588,108,1446,3346,45,58,860,1814,1917,2170,2352,2082,1877,1895,2019
933389,64688,33108,65882,33114,1855,446,74,784,-641,321,1617,3656,38,56,857,1814,1917,2170,2352,2082,1877,1895,2019
934390,64764,33172,65947,33179,1692,447,56,773,-695,333,1681,3527,42,46,859,1814,1917,2170,2352,2082,1877,1895,2019
935391,64836,33260,66012,33244,1734,119,58,799,-733,244,1585,3732,48,51,860,1814,1917,2170,2352,2082,1877,1895,2019
936392,64888,33324,66077,33309,2000,420,41,790,-765,429,1632,3618,56,58,860,1814,1917,2170,2352,2082,1877,1895,2019
937393,64988,33396,66142,33374,1358,312,34,778,-807,305,1556,3739,45,46,856,1814,1917,2170,2352,2082,1877,1895,2019
938394,65040,33460,66207,33439,1974,413,11,770,-837,165,1648,3739,45,61,862,1840,1934,2182,2348,2074,1860,1874,1996
939395,65120,33536,66272,33504,1607,249,-1,767,-890,162,1765,3949,42,46,857,1840,1934,2182,2348,2074,1860,1874,1996
940396,65200,33592,66337,33569,1588,510,-20,753,-921,183,1553,3977,59,52,862,1840,1934,2182,2348,2074,1860,1874,1996
941397,65268,33664,66402,33634,1735,302,-37,730,-951,120,1636,3985,51,56,861,1840,1934,2182,2348,2074,1860,1874,1996
942398,65332,33732,66467,33699,1787,348,-51,721,-972,150,1622,4065,55,56,860,1840,1934,2182,2348,2074,1860,1874,1996
943399,65432,33804,66532,33764,1294,290,-69,713,-981,8,1729,4030,50,59,859,1787,1879,2111,2263,2028,1812,1835,1961
944400,65488,33864,66597,33829,1856,446,-79,720,-990,-123,1627,4295,56,48,865,1787,1879,2111,2263,2028,1812,1835,1961
945401,65576,33932,66662,33894,1428,342,-89,744,-999,-46,1657,4137,55,45,858,1787,1879,2111,2263,2028,1812,1835,1961
946402,65652,33996,66727,33959,1566,393,-105,737,-1011,80,1894,4213,52,62,862,1787,1879,2111,2263,2028,1812,1835,1961
947403,65712,34060,66792,34024,1772,395,-121,736,-1016,-76,1690,4177,52,51,862,1787,1879,2111,2263,2028,1812,1835,1961
948404,65808,34152,66857,34089,1284,12,-140,751,-1018,-107,1641,4189,62,45,859,1787,1879,2111,2263,2028,1812,1835,1961
949405,65860,34220,67056,34288,2014,472,-170,767,-1029,135,1662,4087,45,55,865,1744,1846,2079,2236,2039,1827,1853,1984
950406,65936,34284,67121,34353,1701,523,-196,772,-1044,81,1572,3898,46,45,856,1744,1846,2079,2236,2039,1827,1853,1984
951407,66004,34352,67186,34418,1798,469,-220,748,-1073,89,1802,3685,56,52,859,1744,1846,2079,2236,2039,1827,1853,1984
952408,66096,34432,67251,34483,1465,301,-243,733,-1088,-231,1551,3463,47,59,859,1744,1846,2079,2236,2039,1827,1853,1984
953409,66156,34496,67316,34548,1873,502,-265,749,-1101,41,1552,3706,45,65,862,1744,1846,2079,2236,2039,1827,1853,1984
954410,66224,34576,67381,34613,1769,284,-287,778,-1112,330,1466,3550,59,63,857,1771,1872,2125,2294,2106,1889,1900,2035
955411,66308,34652,67446,34678,1546,320,-302,770,-1143,318,1605,3393,59,61,860,1771,1872,2125,2294,2106,1889,1900,2035
956412,66384,34736,67511,34743,1633,197,-322,728,-1186,29,1495,3273,56,61,862,1771,1872,2125,2294,2106,1889,1900,2035
957413,66468,34808,67576,34808,1510,339,-342,732,-1208,10,1308,3456,45,49,861,1771,1872,2125,2294,2106,1889,1900,2035
958414,66540,34896,67641,34873,1652,110,-376,751,-1213,494,1351,3410,61,57,863,1771,1872,2125,2294,2106,1889,1900,2035
959415,66620,34960,67706,34938,1534,412,-397,793,-1233,571,1406,3477,53,60,862,1771,1872,2125,2294,2106,1889,1900,2035
960416,66704,35048,67771,35003,1462,84,-415,801,-1248,191,1691,3513,65,57,862,1806,1896,2158,2322,2120,1892,1894,2020
961417,66780,35116,67836,35068,1549,330,-427,797,-1238,-129,1558,3499,54,52,864,1806,1896,2158,2322,2120,1892,1894,2020
962418,66872,35196,67901,35133,1316,162,-450,834,-1211,9,1348,4111,69,48,862,1806,1896,2158,2322,2120,1892,1894,2020
963422,66952,35264,67966,35198,1448,308,-475,865,-1179,385,1513,3843,51,58,865,1806,1896,2158,2322,2120,1892,1894,2020
964420,67052,35340,68031,35263,1156,195,-477,854,-1179,347,1805,3861,67,58,863,1806,1896,2158,2322,2120,1892,1894,2020
965421,67128,35412,68096,35328,1443,236,-497,822,-1174,-291,1332,3837,57,60,866,1771,1859,2102,2258,2051,1828,1841,1960
966422,67224,35496,68161,35393,1155,63,-539,844,-1167,-36,1378,4253,46,46,864,1771,1859,2102,2258,2051,1828,1841,1960
967423,67300,35564,68226,35458,1392,259,-575,857,-1158,407,1378,3719,61,50,866,1771,1859,2102,2258,2051,1828,1841,1960
968424,67388,35636,68291,35523,1215,201,-597,857,-1155,136,1590,3866,45,45,864,1771,1859,2102,2258,2051,1828,1841,1960
969425,67444,35708,68356,35588,1626,192,-617,845,-1152,-225,1497,3710,50,54,865,1771,1859,2102,2258,2051,1828,1841,1960
970426,67528,35784,68421,35653,1253,129,-641,852,-1154,-77,1528,3783,45,54,861,1771,1859,2102,2258,2051,1828,1841,1960
971427,67620,35864,68486,35718,1121,60,-656,875,-1136,299,1422,3567,57,51,866,1741,1835,2067,2229,2022,1804,1830,1958
972428,67696,35940,68551,35783,1307,97,-671,872,-1125,358,1654,3476,56,57,866,1741,1835,2067,2229,2022,1804,1830,1958
973429,67792,36012,68616,35848,1019,138,-680,844,-1140,-26,1595,3235,59,46,865,1741,1835,2067,2229,2022,1804,1830,1958
974430,67868,36060,68681,35913,1257,459,-689,839,-1151,-25,1348,3311,63,49,868,1741,1835,2067,2229,2022,1804,1830,1958
975431,67964,36132,68746,35978,969,150,-704,855,-1148,455,1250,3353,54,58,864,1741,1835,2067,2229,2022,1804,1830,1958
976432,68036,36212,68811,36043,1261,31,-713,835,-1154,504,1379,2913,52,45,868,1759,1859,2095,2254,2052,1832,1858,1990
977433,68120,36296,68876,36108,1087,-42,-716,798,-1180,100,1337,2852,44,58,866,1759,1859,2095,2254,2052,1832,1858,1990
978434,68204,36380,68941,36173,1065,-65,-717,758,-1200,-37,1220,2943,63,57,867,1759,1859,2095,2254,2052,1832,1858,1990
979435,68288,36440,69006,36238,1042,241,-725,750,-1200,415,1005,2879,64,47,867,1759,1859,2095,2254,2052,1832,1858,1990
980436,68372,36512,69071,36303,1019,82,-723,740,-1188,444,1261,2693,66,49,867,1759,1859,2095,2254,2052,1832,1858,1990
981437,68452,36576,69136,36368,1051,184,-725,697,-1186,62,1335,2777,49,50,868,1759,1859,2095,2254,2052,1832,1858,1990
982438,68544,36640,69201,36433,869,185,-726,669,-1181,-40,1173,2894,49,49,867,1780,1875,2109,2267,2047,1819,1843,1967
983439,68636,36704,69266,36498,836,186,-725,663,-1150,235,1140,2929,48,57,869,1780,1875,2109,2267,2047,1819,1843,1967
984440,68704,36784,69331,36563,1132,-32,-733,634,-1109,233,1201,2849,61,58,869,1780,1875,2109,2267,2047,1819,1843,1967
985441,68788,36860,69396,36628,910,4,-738,591,-1093,-80,1161,2795,59,55,867,1780,1875,2109,2267,2047,1819,1843,1967
986442,68884,36920,69461,36693,722,210,-743,554,-1095,-78,1233,2943,46,60,869,1780,1875,2109,2267,2047,1819,1843,1967
987443,68976,37016,69526,36758,739,-277,-749,530,-1078,-100,1252,2947,62,57,870,1756,1849,2065,2221,1981,1761,1796,1910
988444,69056,37096,69591,36823,871,-97,-766,527,-1068,174,1161,2982,49,49,869,1756,1849,2065,2221,1981,1761,1796,1910
989445,69144,37176,69656,36888,743,-115,-771,499,-1062,147,1128,2955,56,51,868,1756,1849,2065,2221,1981,1761,1796,1910
990446,69228,37228,69721,36953,770,251,-770,457,-1069,144,1256,2913,58,41,870,1756,1849,2065,2221,1981,1761,1796,1910
991447,69304,37300,69786,37018,857,-8,-772,436,-1068,-140,1046,3081,41,48,869,1756,1849,2065,2221,1981,1761,1796,1910
992448,69392,37372,69851,37083,679,-16,-780,439,-1060,28,996,3282,42,46,870,1756,1849,2065,2221,1981,1761,1796,1910
993449,69464,37436,69916,37148,870,85,-778,432,-1054,216,985,2806,52,39,871,1729,1821,2029,2189,1948,1733,1778,1896
994450,69544,37504,69981,37213,752,31,-762,402,-1061,58,1031,2870,58,47,869,1729,1821,2029,2189,1948,1733,1778,1896
995451,69624,37576,70046,37278,734,-27,-755,404,-1066,-198,869,2831,59,44,871,1729,1821,2029,2189,1948,1733,1778,1896
996452,69700,37652,70111,37343,771,-91,-743,418,-1068,68,895,2768,41,49,871,1729,1821,2029,2189,1948,1733,1778,1896
997453,69784,37700,70176,37408,648,279,-745,402,-1076,190,826,2549,45,43,870,1729,1821,2029,2189,1948,1733,1778,1896
998454,69856,37776,70241,37473,789,-84,-744,368,-1089,-131,717,2435,43,48,870,1735,1828,2044,2212,1978,1765,1807,1927
999455,69940,37844,70306,37538,616,12,-750,323,-1099,-221,673,2516,42,42,870,1735,1828,2044,2212,1978,1765,1807,1927
1000456,70032,37908,70371,37603,483,63,-743,310,-1108,-35,651,2459,50,47,872,1735,1828,2044,2212,1978,1765,1807,1927
1001457,70108,37984,70436,37668,670,-100,-739,276,-1113,108,707,2474,43,43,872,1735,1828,2044,2212,1978,1765,1807,1927
1002458,70200,38052,70501,37733,437,-4,-725,235,-1105,-310,576,2526,46,42,871,1735,1828,2044,2212,1978,1765,1807,1927
1003459,70292,38128,70566,37798,405,-117,-719,215,-1085,-362,586,2707,41,54,873,1735,1828,2044,2212,1978,1765,1807,1927
1004460,70352,38192,70631,37863,811,34,-707,201,-1072,-45,710,2662,56,53,872,1759,1850,2068,2241,2000,1784,1825,1939
1005461,70452,38264,70696,37928,268,-76,-703,193,-1058,92,666,2805,36,41,870,1759,1850,2068,2241,2000,1784,1825,1939
1006462,70532,38336,70761,37993,500,-84,-706,161,-1033,-177,486,2658,42,43,872,1759,1850,2068,2241,2000,1784,1825,1939
1007463,70624,38424,70826,38058,317,-312,-715,146,-1013,-230,519,2756,56,39,872,1759,1850,2068,2241,2000,1784,1825,1939
1008464,70708,38500,70891,38123,394,-176,-731,133,-1008,-134,587,3034,58,41,872,1759,1850,2068,2241,2000,1784,1825,1939
1009465,70788,38576,70956,38188,426,-189,-735,136,-1009,209,544,2933,41,52,872,1756,1845,2053,2225,1984,1767,1813,1924
1010466,70884,38660,71021,38253,188,-312,-744,138,-993,179,376,2991,42,48,872,1756,1845,2053,2225,1984,1767,1813,1924
1011467,70976,38716,71086,38318,205,49,-748,141,-982,18,461,3075,42,50,873,1756,1845,2053,2225,1984,1767,1813,1924
1012468,71052,38780,71151,38383,391,-51,-746,144,-983,-114,530,3236,35,49,874,1756,1845,2053,2225,1984,1767,1813,1924
1013470,71136,38848,71216,38448,268,-105,-736,133,-984,-80,478,3186,38,52,873,1756,1845,2053,2225,1984,1767,1813,1924
1014470,71232,38896,71281,38513,80,166,-722,110,-979,-117,371,3233,39,54,873,1756,1845,2053,2225,1984,1767,1813,1924
1015471,71316,38964,71346,38578,207,-88,-710,79,-995,-259,352,3352,52,42,874,1739,1829,2029,2200,1979,1760,1808,1924
1016472,71384,39036,71411,38643,403,-146,-695,34,-1006,-237,287,3302,52,48,874,1739,1829,2029,2200,1979,1760,1808,1924
1017473,71460,39100,71476,38708,290,-45,-682,12,-1013,-161,115,3367,51,41,873,1739,1829,2029,2200,1979,1760,1808,1924
1018474,71548,39164,71541,38773,112,-45,-676,5,-1030,-17,205,3369,45,43,873,1739,1829,2029,2200,1979,1760,1808,1924
1019475,71636,39252,71606,38838,84,-373,-672,-17,-1047,-99,141,3105,44,51,874,1739,1829,2029,2200,1979,1760,1808,1924
1020476,71724,39316,71671,38903,56,-72,-669,-43,-1065,-175,74,3335,48,49,873,1748,1841,2050,2225,2000,1778,1829,1948
1021477,71820,39376,71736,38968,-82,-16,-670,-29,-1065,-137,20,3127,52,41,874,1748,1841,2050,2225,2000,1778,1829,1948
1022478,71888,39440,71801,39033,264,-64,-677,-10,-1056,91,98,3236,40,43,873,1748,1841,2050,2225,2000,1778,1829,1948
1023479,71960,39516,71866,39098,206,-228,-681,10,-1056,35,125,3233,33,49,873,1748,1841,2050,2225,2000,1778,1829,1948
1024480,72052,39604,71931,39163,-77,-406,-691,-21,-1054,-169,39,3053,46,57,873,1748,1841,2050,2225,2000,1778,1829,1948
1025481,72120,39680,71996,39228,219,-270,-686,-19,-1046,-156,14,3408,37,56,871,1748,1841,2050,2225,2000,1778,1829,1948
1026482,72196,39756,72061,39293,106,-284,-691,-3,-1021,-34,31,3296,32,53,873,1785,1879,2088,2273,2015,1796,1850,1962
1027483,72288,39820,72126,39358,-127,-132,-691,27,-999,128,17,3342,44,54,873,1785,1879,2088,2273,2015,1796,1850,1962
1028484,72372,39896,72191,39423,-50,-296,-697,31,-992,-118,48,3391,51,42,869,1785,1879,2088,2273,2015,1796,1850,1962
1029485,72460,39976,72256,39488,-129,-364,-694,19,-980,-194,-125,3430,49,57,874,1785,1879,2088,2273,2015,1796,1850,1962
1030486,72536,40060,72321,39553,8,-438,-692,23,-974,-129,-72,3602,36,48,868,1785,1879,2088,2273,2015,1796,1850,1962
