%  Data file recorded 2016/9/29  17:49:58
%  Stride Frequency         = [1, 1]
%  Lead In /Lead Out        = 
%  Deltas (Fractional)      = [0.25, 0.25, 0.25],[0.25, 0.25, 0.25]
%  Phase                    = 32768
%  Experiment.py 
%  Motor Gains    = [5000, 400, 200, 0, 300, 5000, 400, 200, 0, 300]
% Columns: 
% time | Right Leg Pos | Left Leg Pos | Commanded Right Leg Pos | Commanded Left Leg Pos | DCR | DCL | GyroX | GyroY | GyroZ | AX | AY | AZ | RBEMF | LBEMF | VBatt | S1 | S2 | S3 | S4 | S5 | S6 | S7 | S8
423,-32920,-12708,-39200,-6432,3800,-3800,-9,2,-3,-175,129,3922,11,-3,897,1786,1886,2078,2248,2082,1830,1886,2025
1424,-32916,-12708,-39200,-6432,3800,-3800,-6,1,-3,-181,141,3909,12,4,897,1786,1886,2078,2248,2082,1830,1886,2025
2425,-32928,-12704,-39200,-6432,3800,-3800,-6,1,-3,-190,133,3942,0,-2,896,1786,1886,2078,2248,2082,1830,1886,2025
3426,-32912,-12696,-39200,-6432,3800,-3800,-8,2,-1,-167,142,3948,-7,6,897,1786,1886,2078,2248,2082,1830,1886,2025
4427,-32912,-12696,-39200,-6432,3800,-3800,-10,3,-2,-175,118,3940,-6,2,897,1786,1887,2079,2250,2084,1832,1888,2026
5428,-32920,-12700,-39200,-6432,3800,-3800,-8,0,-1,-175,126,3935,7,-6,897,1786,1887,2079,2250,2084,1832,1888,2026
6429,-32916,-12704,-39200,-6432,3800,-3800,-8,-1,-1,-178,144,3927,12,3,897,1786,1887,2079,2250,2084,1832,1888,2026
7430,-32924,-12700,-39200,-6432,3800,-3800,-8,0,-1,-153,132,3917,10,-6,897,1786,1887,2079,2250,2084,1832,1888,2026
8431,-32920,-12708,-39200,-6432,3800,-3800,-7,0,-1,-179,108,3916,-1,8,897,1786,1887,2079,2250,2084,1832,1888,2026
9432,-32912,-12696,-39200,-6432,3800,-3800,-8,-1,0,-171,118,3908,-7,-5,897,1785,1886,2078,2249,2082,1830,1885,2024
10433,-32916,-12708,-39200,-6432,3800,-3800,-7,2,2,-182,163,3932,-7,8,897,1785,1886,2078,2249,2082,1830,1885,2024
11434,-32920,-12696,-39200,-6432,3800,-3800,-8,3,1,-180,131,3931,-3,-5,897,1785,1886,2078,2249,2082,1830,1885,2024
12435,-32916,-12688,-39200,-6432,3800,-3800,-11,2,-3,-186,120,3894,-5,6,897,1785,1886,2078,2249,2082,1830,1885,2024
13436,-32916,-12692,-39200,-6432,3800,-3800,-10,1,-2,-194,122,3903,-3,1,897,1785,1886,2078,2249,2082,1830,1885,2024
14437,-32920,-12704,-39200,-6432,3800,-3800,-8,1,0,-197,116,3943,9,-2,897,1785,1886,2078,2249,2082,1830,1885,2024
15438,-32920,-12708,-39200,-6432,3800,-3800,-7,2,1,-183,124,3916,12,1,897,1788,1889,2079,2250,2084,1832,1886,2026
16439,-32924,-12704,-39200,-6432,3800,-3800,-5,2,-1,-168,126,3924,8,-6,897,1788,1889,2079,2250,2084,1832,1886,2026
17440,-32916,-12696,-39200,-6432,3800,-3800,-7,-1,-2,-148,114,3944,-5,7,897,1788,1889,2079,2250,2084,1832,1886,2026
18441,-32916,-12700,-39200,-6432,3800,-3800,-9,0,-1,-152,111,3901,-7,-6,897,1788,1889,2079,2250,2084,1832,1886,2026
19442,-32928,-12704,-39200,-6432,3800,-3800,-12,1,1,-153,115,3845,-7,2,895,1788,1889,2079,2250,2084,1832,1886,2026
20443,-32920,-12704,-39200,-6432,3800,-3800,-10,2,1,-177,122,3914,2,8,897,1785,1886,2078,2248,2082,1831,1887,2025
21444,-32916,-12696,-39200,-6432,3800,-3800,-9,0,0,-170,120,3973,9,-7,897,1785,1886,2078,2248,2082,1831,1887,2025
22445,-32904,-12704,-39200,-6432,3800,-3800,-10,0,1,-184,130,3930,12,6,897,1785,1886,2078,2248,2082,1831,1887,2025
23446,-32908,-12700,-39200,-6432,3800,-3800,-11,0,1,-170,127,3924,11,1,897,1785,1886,2078,2248,2082,1831,1887,2025
24447,-32912,-12716,-39200,-6432,3800,-3800,-9,0,-1,-188,124,3895,9,1,897,1785,1886,2078,2248,2082,1831,1887,2025
25448,-32920,-12704,-39200,-6432,3800,-3800,-9,0,-2,-189,128,3874,7,8,897,1785,1886,2078,2248,2082,1831,1887,2025
26449,-32920,-12696,-39200,-6432,3800,-3800,-11,0,0,-183,128,3900,-2,-5,897,1783,1883,2075,2247,2084,1832,1887,2028
27450,-32908,-12704,-39200,-6432,3800,-3800,-14,0,-1,-178,111,3938,-6,8,897,1783,1883,2075,2247,2084,1832,1887,2028
28451,-32912,-12704,-39200,-6432,3800,-3800,-13,3,-1,-185,112,3927,-4,-2,897,1783,1883,2075,2247,2084,1832,1887,2028
29452,-32912,-12696,-39200,-6432,3800,-3800,-9,2,-1,-185,101,3911,10,2,897,1783,1883,2075,2247,2084,1832,1887,2028
30453,-32920,-12696,-39200,-6432,3800,-3800,-8,2,-1,-183,110,3933,12,-2,896,1783,1883,2075,2247,2084,1832,1887,2028
31454,-32920,-12700,-39200,-6432,3800,-3800,-10,3,-1,-185,128,3924,7,-3,897,1785,1887,2079,2249,2083,1831,1886,2025
32455,-32916,-12700,-39200,-6432,3800,-3800,-12,1,-1,-201,121,3927,-7,8,897,1785,1887,2079,2249,2083,1831,1886,2025
33456,-32924,-12696,-39200,-6432,3800,-3800,-10,2,0,-191,123,3897,0,-5,897,1785,1887,2079,2249,2083,1831,1886,2025
34457,-32920,-12720,-39200,-6432,3800,-3800,-8,1,-1,-192,121,3927,8,8,897,1785,1887,2079,2249,2083,1831,1886,2025
35458,-32912,-12716,-39200,-6432,3800,-3800,-9,2,-2,-195,122,3934,11,-6,897,1785,1887,2079,2249,2083,1831,1886,2025
36459,-32920,-12700,-39200,-6432,3800,-3800,-11,1,-2,-180,116,3897,2,8,896,1785,1887,2079,2249,2083,1831,1886,2025
37460,-32916,-12704,-39200,-6432,3800,-3800,-15,1,-3,-184,122,3915,-3,1,897,1785,1887,2077,2247,2082,1831,1887,2027
38461,-32916,-12708,-39200,-6432,3800,-3800,-15,3,-3,-188,132,3924,-6,-2,897,1785,1887,2077,2247,2082,1831,1887,2027
39462,-32916,-12700,-39200,-6432,3800,-3800,-10,3,-2,-177,133,3925,-1,-2,897,1785,1887,2077,2247,2082,1831,1887,2027
40463,-32920,-12696,-39200,-6432,3800,-3800,-8,2,-1,-177,114,3929,6,-1,897,1785,1887,2077,2247,2082,1831,1887,2027
41464,-32924,-12696,-39200,-6432,3800,-3800,-7,0,-2,-180,120,3915,12,5,897,1785,1887,2077,2247,2082,1831,1887,2027
42465,-32924,-12708,-39200,-6432,3800,-3800,-7,0,-2,-172,133,3945,6,0,897,1786,1887,2078,2249,2082,1831,1886,2025
43466,-32916,-12708,-39200,-6432,3800,-3800,-8,2,-2,-171,132,3951,6,2,897,1786,1887,2078,2249,2082,1831,1886,2025
44467,-32912,-12696,-39200,-6432,3800,-3800,-10,2,-3,-174,109,3962,-6,-3,897,1786,1887,2078,2249,2082,1831,1886,2025
45468,-32912,-12700,-39200,-6432,3800,-3800,-9,2,-2,-190,140,3932,-7,-1,897,1786,1887,2078,2249,2082,1831,1886,2025
46469,-32916,-12704,-39200,-6432,3800,-3800,-10,2,1,-163,162,3925,-7,-1,897,1786,1887,2078,2249,2082,1831,1886,2025
47470,-32924,-12708,-39200,-6432,3800,-3800,-11,1,0,-180,151,3912,8,2,897,1786,1887,2078,2249,2082,1831,1886,2025
48471,-32916,-12704,-39200,-6432,3800,-3800,-9,1,0,-177,132,3898,11,8,897,1786,1888,2079,2249,2082,1831,1883,2023
49472,-32908,-12696,-39200,-6432,3800,-3800,-9,3,1,-183,130,3925,12,-5,897,1786,1888,2079,2249,2082,1831,1883,2023
50473,-32916,-12704,-39200,-6432,3800,-3800,-9,4,-1,-178,120,3953,10,5,897,1786,1888,2079,2249,2082,1831,1883,2023
51474,-32920,-12704,-39200,-6432,3800,-3800,-10,5,-2,-154,139,3894,11,-6,897,1786,1888,2079,2249,2082,1831,1883,2023
52475,-32916,-12712,-39200,-6432,3800,-3800,-11,1,1,-177,147,3895,7,6,897,1786,1888,2079,2249,2082,1831,1883,2023
53476,-32916,-12708,-39200,-6432,3800,-3800,-11,-1,1,-194,115,3922,-6,-3,895,1786,1888,2079,2250,2082,1831,1886,2026
54477,-32920,-12708,-39200,-6432,3800,-3800,-10,-1,1,-186,130,3940,-7,2,897,1786,1888,2079,2250,2082,1831,1886,2026
55478,-32916,-12692,-39200,-6432,3800,-3800,-9,-1,0,-212,119,3928,-5,0,897,1786,1888,2079,2250,2082,1831,1886,2026
56479,-32920,-12704,-39200,-6432,3800,-3800,-6,0,-1,-180,111,3922,8,1,897,1786,1888,2079,2250,2082,1831,1886,2026
57480,-32912,-12696,-39200,-6432,3800,-3800,-7,0,-3,-177,129,3920,6,-5,897,1786,1888,2079,2250,2082,1831,1886,2026
58481,-32920,-12708,-39200,-6432,3800,-3800,-9,0,-3,-173,148,3902,7,4,897,1786,1888,2079,2250,2082,1831,1886,2026
59482,-32912,-12692,-39200,-6432,3800,-3800,-9,1,2,-196,138,3945,12,3,897,1786,1887,2078,2249,2082,1831,1886,2026
60483,-32920,-12700,-39200,-6432,3800,-3800,-7,2,3,-202,139,3921,12,1,897,1786,1887,2078,2249,2082,1831,1886,2026
61484,-32924,-12704,-39200,-6432,3800,-3800,-6,3,2,-181,138,3910,12,3,897,1786,1887,2078,2249,2082,1831,1886,2026
62485,-32908,-12696,-39200,-6432,3800,-3800,-7,2,0,-172,127,3920,7,-1,897,1786,1887,2078,2249,2082,1831,1886,2026
63486,-32912,-12708,-39200,-6432,3800,-3800,-9,2,-1,-195,128,3956,7,-5,897,1786,1887,2078,2249,2082,1831,1886,2026
64487,-32912,-12696,-39200,-6432,3800,-3800,-8,4,0,-191,123,3923,11,5,897,1786,1890,2080,2252,2084,1832,1886,2026
65488,-32924,-12696,-39200,-6432,3800,-3800,-9,3,0,-178,118,3921,3,-2,897,1786,1890,2080,2252,2084,1832,1886,2026
66489,-32920,-12712,-39200,-6432,3800,-3800,-8,1,0,-163,139,3946,2,8,897,1786,1890,2080,2252,2084,1832,1886,2026
67490,-32928,-12696,-39200,-6432,3800,-3800,-6,2,-1,-175,125,3921,-1,-6,897,1786,1890,2080,2252,2084,1832,1886,2026
68491,-32932,-12680,-39200,-6432,3800,-3800,-7,0,-1,-205,118,3935,-7,6,897,1786,1890,2080,2252,2084,1832,1886,2026
69492,-32920,-12692,-39200,-6432,3800,-3800,-10,0,1,-182,119,3954,-7,-7,897,1786,1890,2080,2252,2084,1832,1886,2026
70493,-32920,-12704,-39200,-6432,3800,-3800,-10,1,-1,-179,144,3909,-7,8,896,1785,1888,2079,2249,2082,1830,1887,2025
71494,-32924,-12700,-39200,-6432,3800,-3800,-6,0,0,-173,135,3928,-6,-4,897,1785,1888,2079,2249,2082,1830,1887,2025
72495,-32916,-12692,-39200,-6432,3800,-3800,-6,-1,-2,-174,112,3934,-5,8,896,1785,1888,2079,2249,2082,1830,1887,2025
73496,-32912,-12696,-39200,-6432,3800,-3800,-6,-1,-3,-181,105,3947,-6,-4,897,1785,1888,2079,2249,2082,1830,1887,2025
74497,-32928,-12700,-39200,-6432,3800,-3800,-6,2,-3,-209,120,3923,0,-1,897,1785,1888,2079,2249,2082,1830,1887,2025
75498,-32924,-12712,-39200,-6432,3800,-3800,-8,-1,-6,-181,128,3930,-1,4,897,1785,1887,2079,2249,2083,1827,1883,2023
76499,-32908,-12704,-39200,-6432,3800,-3800,-8,0,-2,-170,112,3927,-1,-6,897,1785,1887,2079,2249,2083,1827,1883,2023
77500,-32920,-12696,-39200,-6432,3800,-3800,-6,0,-3,-151,137,3928,7,7,897,1785,1887,2079,2249,2083,1827,1883,2023
78501,-32928,-12696,-39200,-6432,3800,-3800,-6,-1,-2,-148,128,3931,3,-6,897,1785,1887,2079,2249,2083,1827,1883,2023
79502,-32912,-12704,-39200,-6432,3800,-3800,-7,-1,-5,-165,123,3919,0,5,897,1785,1887,2079,2249,2083,1827,1883,2023
80503,-32920,-12696,-39200,-6432,3800,-3800,-8,-2,-5,-181,139,3949,-3,3,897,1785,1887,2079,2249,2083,1827,1883,2023
81504,-32920,-12692,-39200,-6432,3800,-3800,-7,-2,-5,-178,124,3903,-7,-3,897,1786,1888,2079,2249,2082,1831,1886,2026
82505,-32924,-12708,-39200,-6432,3800,-3800,-5,0,-5,-191,129,3939,-5,8,897,1786,1888,2079,2249,2082,1831,1886,2026
83506,-32912,-12704,-39200,-6432,3800,-3800,-5,2,-3,-189,141,3928,-7,-4,896,1786,1888,2079,2249,2082,1831,1886,2026
84507,-32924,-12708,-39200,-6432,3800,-3800,-5,0,-1,-169,143,3906,-6,6,897,1786,1888,2079,2249,2082,1831,1886,2026
85508,-32920,-12696,-39200,-6432,3800,-3800,-6,-1,-1,-172,116,3935,-5,0,897,1786,1888,2079,2249,2082,1831,1886,2026
86509,-32920,-12708,-39200,-6432,3800,-3800,-7,0,-1,-175,125,3907,-7,3,897,1785,1888,2079,2249,2082,1831,1887,2026
87510,-32928,-12692,-39200,-6432,3800,-3800,-9,2,-3,-199,128,3909,-8,-3,896,1785,1888,2079,2249,2082,1831,1887,2026
88511,-32924,-12696,-39200,-6432,3800,-3800,-9,3,-5,-188,106,3916,-6,-4,897,1785,1888,2079,2249,2082,1831,1887,2026
89512,-32912,-12696,-39200,-6432,3800,-3800,-8,1,-4,-189,122,3896,-6,7,897,1785,1888,2079,2249,2082,1831,1887,2026
90513,-32920,-12700,-39200,-6432,3800,-3800,-9,-1,-3,-163,127,3903,-7,-1,897,1785,1888,2079,2249,2082,1831,1887,2026
91514,-32928,-12704,-39200,-6432,3800,-3800,-9,-1,-3,-133,146,3913,-7,4,897,1785,1888,2079,2249,2082,1831,1887,2026
92515,-32912,-12696,-39200,-6432,3800,-3800,-7,0,-1,-166,112,3951,3,-3,897,1785,1888,2080,2249,2084,1832,1888,2025
93516,-32908,-12704,-39200,-6432,3800,-3800,-6,1,-2,-162,121,3915,4,-1,897,1785,1888,2080,2249,2084,1832,1888,2025
94517,-32928,-12700,-39200,-6432,3800,-3800,-8,0,-6,-136,100,3935,0,-1,897,1785,1888,2080,2249,2084,1832,1888,2025
95518,-32924,-12704,-39200,-6432,3800,-3800,-8,1,-5,-176,139,3899,-1,5,897,1785,1888,2080,2249,2084,1832,1888,2025
96519,-32924,-12700,-39200,-6432,3800,-3800,-8,4,-3,-174,145,3932,-3,5,897,1785,1888,2080,2249,2084,1832,1888,2025
97520,-32924,-12696,-39200,-6432,3800,-3800,-8,2,-2,-158,124,3947,-3,-4,897,1784,1888,2078,2248,2082,1830,1885,2025
98521,-32916,-12700,-39200,-6432,3800,-3800,-8,2,-3,-146,143,3936,7,6,897,1784,1888,2078,2248,2082,1830,1885,2025
99522,-32924,-12700,-39200,-6432,3800,-3800,-7,0,0,-186,143,3898,2,-6,897,1784,1888,2078,2248,2082,1830,1885,2025
100523,-32928,-12700,-39200,-6432,3800,-3800,-10,0,0,-190,121,3915,-6,8,897,1784,1888,2078,2248,2082,1830,1885,2025
101524,-32908,-12700,-39200,-6432,3800,-3800,-9,2,0,-155,124,3927,-5,-6,897,1784,1888,2078,2248,2082,1830,1885,2025
102527,-32916,-12688,-39200,-6432,3800,-3800,-9,4,-1,-165,116,3920,-8,8,897,1784,1888,2078,2248,2082,1830,1885,2025
103526,-32916,-12708,-39200,-6432,3800,-3800,-9,5,-3,-150,119,3933,-3,-6,897,1783,1887,2075,2247,2082,1831,1886,2026
104527,-32912,-12704,-39200,-6432,3800,-3800,-9,4,-2,-184,121,3921,-5,3,895,1783,1887,2075,2247,2082,1831,1886,2026
105528,-32916,-12708,-39200,-6432,3800,-3800,-6,3,1,-165,140,3923,0,3,897,1783,1887,2075,2247,2082,1831,1886,2026
106529,-32916,-12700,-39200,-6432,3800,-3800,-8,4,0,-167,130,3953,-3,-5,897,1783,1887,2075,2247,2082,1831,1886,2026
107530,-32912,-12688,-39200,-6432,3800,-3800,-8,3,2,-167,133,3966,-6,8,897,1783,1887,2075,2247,2082,1831,1886,2026
108531,-32916,-12688,-39200,-6432,3800,-3800,-9,4,2,-181,138,3911,-5,-6,897,1785,1888,2078,2249,2083,1831,1886,2026
109532,-32916,-12692,-39200,-6432,3800,-3800,-9,5,1,-171,116,3917,-6,8,897,1785,1888,2078,2249,2083,1831,1886,2026
110533,-32912,-12704,-39200,-6432,3800,-3800,-8,5,0,-181,112,3949,-3,-7,897,1785,1888,2078,2249,2083,1831,1886,2026
111534,-32916,-12692,-39200,-6432,3800,-3800,-7,5,-2,-183,144,3919,0,8,897,1785,1888,2078,2249,2083,1831,1886,2026
112535,-32912,-12704,-39200,-6432,3800,-3800,-7,4,1,-178,146,3905,-5,-4,897,1785,1888,2078,2249,2083,1831,1886,2026
113536,-32920,-12700,-39200,-6432,3800,-3800,-7,4,1,-158,142,3918,-1,0,897,1785,1888,2078,2249,2083,1831,1886,2026
114537,-32912,-12700,-39200,-6432,3800,-3800,-9,5,1,-149,139,3913,2,-3,897,1785,1888,2078,2249,2082,1832,1886,2026
115538,-32916,-12688,-39200,-6432,3800,-3800,-9,6,0,-165,130,3915,1,1,897,1785,1888,2078,2249,2082,1832,1886,2026
116539,-32924,-12696,-39200,-6432,3800,-3800,-7,5,-1,-194,134,3935,10,5,897,1785,1888,2078,2249,2082,1832,1886,2026
117540,-32912,-12704,-39200,-6432,3800,-3800,-11,4,-1,-191,139,3932,11,-1,897,1785,1888,2078,2249,2082,1832,1886,2026
118541,-32916,-12708,-39200,-6432,3800,-3800,-11,4,-1,-178,149,3932,12,8,897,1785,1888,2078,2249,2082,1832,1886,2026
119542,-32908,-12696,-39200,-6432,3800,-3800,-10,3,1,-208,156,3913,2,-4,897,1785,1888,2080,2249,2082,1831,1886,2026
120543,-32920,-12712,-39200,-6432,3800,-3800,-9,5,0,-185,132,3935,0,6,897,1785,1888,2080,2249,2082,1831,1886,2026
121544,-32908,-12688,-39200,-6432,3800,-3800,-10,5,0,-173,142,3925,0,0,895,1785,1888,2080,2249,2082,1831,1886,2026
122545,-32916,-12704,-39200,-6432,3800,-3800,-10,5,-1,-143,137,3914,-5,-6,897,1785,1888,2080,2249,2082,1831,1886,2026
123546,-32920,-12700,-39200,-6432,3800,-3800,-10,5,1,-179,126,3921,-6,8,897,1785,1888,2080,2249,2082,1831,1886,2026
124547,-32916,-12712,-39200,-6432,3800,-3800,-6,7,4,-218,138,3937,-7,-6,897,1785,1888,2080,2249,2082,1831,1886,2026
125548,-32920,-12692,-39200,-6432,3800,-3800,-6,6,1,-203,130,3932,-7,4,897,1785,1887,2078,2248,2082,1831,1886,2025
126549,-32920,-12692,-39200,-6432,3800,-3800,-8,3,-2,-192,118,3914,-7,-3,897,1785,1887,2078,2248,2082,1831,1886,2025
127550,-32916,-12704,-39200,-6432,3800,-3800,-9,1,-3,-174,138,3945,-5,-4,897,1785,1887,2078,2248,2082,1831,1886,2025
128551,-32916,-12696,-39200,-6432,3800,-3800,-11,0,-3,-192,131,3914,-7,8,897,1785,1887,2078,2248,2082,1831,1886,2025
129552,-32900,-12700,-39200,-6432,3800,-3800,-11,1,-2,-184,113,3933,-7,-7,897,1785,1887,2078,2248,2082,1831,1886,2025
130553,-32920,-12696,-39200,-6432,3800,-3800,-9,2,-2,-169,125,3941,-7,8,897,1786,1890,2080,2248,2082,1831,1885,2025
131554,-32920,-12696,-39200,-6432,3800,-3800,-10,4,-1,-196,129,3917,-2,-4,897,1786,1890,2080,2248,2082,1831,1885,2025
132555,-32912,-12704,-39200,-6432,3800,-3800,-9,3,-2,-192,145,3908,-2,7,897,1786,1890,2080,2248,2082,1831,1885,2025
133556,-32916,-12704,-39200,-6432,3800,-3800,-9,2,-3,-192,137,3938,1,-1,897,1786,1890,2080,2248,2082,1831,1885,2025
134557,-32928,-12708,-39200,-6432,3800,-3800,-8,0,-1,-189,102,3980,8,-3,897,1786,1890,2080,2248,2082,1831,1885,2025
135558,-32916,-12704,-39200,-6432,3800,-3800,-8,0,0,-169,133,3945,7,2,897,1786,1890,2080,2248,2082,1831,1885,2025
136559,-32924,-12708,-39200,-6432,3800,-3800,-10,-1,-2,-178,138,3950,11,-5,897,1784,1888,2077,2248,2081,1830,1886,2025
137560,-32920,-12696,-39200,-6432,3800,-3800,-14,0,-1,-171,120,3912,9,7,897,1784,1888,2077,2248,2081,1830,1886,2025
138561,-32920,-12708,-39200,-6432,3800,-3800,-13,1,-1,-171,111,3923,4,-5,896,1784,1888,2077,2248,2081,1830,1886,2025
139562,-32912,-12700,-39200,-6432,3800,-3800,-11,2,-2,-183,100,3927,-5,6,897,1784,1888,2077,2248,2081,1830,1886,2025
140563,-32924,-12708,-39200,-6432,3800,-3800,-10,1,-3,-175,125,3922,-5,-2,897,1784,1888,2077,2248,2081,1830,1886,2025
141564,-32916,-12696,-39200,-6432,3800,-3800,-8,1,-1,-192,140,3906,1,1,897,1783,1890,2079,2250,2084,1832,1887,2026
142565,-32920,-12708,-39200,-6432,3800,-3800,-8,0,0,-181,123,3938,5,6,897,1783,1890,2079,2250,2084,1832,1887,2026
143566,-32912,-12696,-39200,-6432,3800,-3800,-9,-1,0,-187,128,3915,12,-5,897,1783,1890,2079,2250,2084,1832,1887,2026
144567,-32912,-12708,-39200,-6432,3800,-3800,-9,0,-2,-210,124,3922,12,3,897,1783,1890,2079,2250,2084,1832,1887,2026
145568,-32908,-12704,-39200,-6432,3800,-3800,-9,1,-4,-187,119,3905,11,-2,897,1783,1890,2079,2250,2084,1832,1887,2026
146569,-32920,-12704,-39200,-6432,3800,-3800,-11,0,-2,-193,116,3931,-2,4,897,1783,1890,2079,2250,2084,1832,1887,2026
147570,-32916,-12692,-39200,-6432,3800,-3800,-10,0,-2,-180,111,3920,-4,1,897,1784,1888,2078,2248,2082,1831,1886,2025
148571,-32916,-12692,-39200,-6432,3800,-3800,-9,0,-3,-212,104,3944,-6,0,897,1784,1888,2078,2248,2082,1831,1886,2025
149572,-32920,-12712,-39200,-6432,3800,-3800,-7,-2,-2,-186,116,3935,-6,1,897,1784,1888,2078,2248,2082,1831,1886,2025
150574,-32916,-12700,-39200,-6432,3800,-3800,-9,0,-2,-160,120,3938,-6,-4,897,1784,1888,2078,2248,2082,1831,1886,2025
151574,-32924,-12696,-39200,-6432,3800,-3800,-12,1,-1,-175,137,3935,0,3,897,1784,1888,2078,2248,2082,1831,1886,2025
152575,-32920,-12696,-39200,-6432,3800,-3800,-12,0,-2,-199,150,3903,11,-2,897,1785,1888,2078,2249,2081,1829,1883,2023
153576,-32920,-12692,-39200,-6432,3800,-3800,-10,-1,-1,-180,113,3887,11,8,897,1785,1888,2078,2249,2081,1829,1883,2023
154577,-32924,-12696,-39200,-6432,3800,-3800,-10,1,-2,-172,129,3886,12,-6,897,1785,1888,2078,2249,2081,1829,1883,2023
155578,-32916,-12704,-39200,-6432,3800,-3800,-10,0,-2,-185,100,3924,-1,8,895,1785,1888,2078,2249,2081,1829,1883,2023
156579,-32920,-12716,-39200,-6432,3800,-3800,-11,-1,-1,-186,100,3962,-6,-5,897,1785,1888,2078,2249,2081,1829,1883,2023
157580,-32924,-12692,-39200,-6432,3800,-3800,-11,-4,-2,-206,134,3943,-2,4,897,1785,1888,2078,2249,2081,1829,1883,2023
158581,-32920,-12696,-39200,-6432,3800,-3800,-8,-5,0,-184,122,3906,11,1,897,1785,1889,2079,2249,2082,1831,1886,2026
159582,-32928,-12696,-39200,-6432,3800,-3800,-8,-2,1,-174,119,3931,8,5,897,1785,1889,2079,2249,2082,1831,1886,2026
160583,-32920,-12704,-39200,-6432,3800,-3800,-8,0,-1,-175,121,3930,-1,1,897,1785,1889,2079,2249,2082,1831,1886,2026
161584,-32920,-12700,-39200,-6432,3800,-3800,-9,-1,-2,-169,128,3915,-5,-2,897,1785,1889,2079,2249,2082,1831,1886,2026
162585,-32916,-12696,-39200,-6432,3800,-3800,-8,0,0,-195,117,3973,8,1,897,1785,1889,2079,2249,2082,1831,1886,2026
163586,-32928,-12700,-39200,-6432,3800,-3800,-9,1,0,-187,117,3959,12,0,897,1785,1889,2078,2248,2083,1830,1886,2026
164587,-32920,-12696,-39200,-6432,3800,-3800,-9,0,1,-184,121,3954,-4,6,897,1785,1889,2078,2248,2083,1830,1886,2026
165588,-32920,-12708,-39200,-6432,3800,-3800,-9,2,-2,-174,111,3950,-6,-2,897,1785,1889,2078,2248,2083,1830,1886,2026
166589,-32912,-12696,-39200,-6432,3800,-3800,-9,4,-2,-168,103,3955,2,2,897,1785,1889,2078,2248,2083,1830,1886,2026
167590,-32916,-12696,-39200,-6432,3800,-3800,-8,2,-1,-147,114,3927,5,-5,897,1785,1889,2078,2248,2083,1830,1886,2026
168591,-32920,-12696,-39200,-6432,3800,-3800,-8,2,0,-163,109,3934,-7,4,897,1785,1889,2078,2248,2083,1830,1886,2026
169592,-32924,-12704,-39200,-6432,3800,-3800,-9,1,0,-199,120,3931,-3,-6,897,1785,1889,2080,2249,2082,1831,1886,2026
170593,-32912,-12708,-39200,-6432,3800,-3800,-8,1,4,-163,100,3912,12,8,897,1785,1889,2080,2249,2082,1831,1886,2026
171594,-32916,-12712,-39200,-6432,3800,-3800,-9,3,3,-177,96,3912,12,-6,897,1785,1889,2080,2249,2082,1831,1886,2026
172595,-32916,-12724,-39200,-6432,3800,-3800,-10,5,0,-179,103,3916,6,6,896,1785,1889,2080,2249,2082,1831,1886,2026
173596,-32912,-12692,-39200,-6432,3800,-3800,-9,5,-2,-196,126,3921,-5,7,897,1785,1889,2080,2249,2082,1831,1886,2026
174597,-32920,-12700,-39200,-6432,3800,-3800,-9,1,1,-190,118,3939,-4,-5,897,1785,1890,2079,2250,2082,1831,1886,2026
175598,-32900,-12704,-39200,-6432,3800,-3800,-8,2,-2,-176,146,3972,10,7,897,1785,1890,2079,2250,2082,1831,1886,2026
176599,-32924,-12708,-39200,-6432,3800,-3800,-7,3,-3,-166,137,3977,4,-6,897,1785,1890,2079,2250,2082,1831,1886,2026
177600,-32908,-12700,-39200,-6432,3800,-3800,-5,2,-2,-175,105,3943,-3,4,897,1785,1890,2079,2250,2082,1831,1886,2026
178601,-32920,-12720,-39200,-6432,3800,-3800,-6,0,0,-154,132,3943,-7,-3,896,1785,1890,2079,2250,2082,1831,1886,2026
179602,-32916,-12692,-39200,-6432,3800,-3800,-7,0,-2,-144,128,3960,3,6,897,1785,1890,2079,2250,2082,1831,1886,2026
180603,-32908,-12704,-39200,-6432,3800,-3800,-6,0,-2,-160,129,3938,8,1,897,1786,1890,2078,2249,2082,1832,1888,2026
181604,-32916,-12696,-39200,-6432,3800,-3800,-7,3,-1,-160,141,3936,11,0,897,1786,1890,2078,2249,2082,1832,1888,2026
182605,-32932,-12696,-39200,-6432,3800,-3800,-6,6,0,-151,127,3950,10,0,897,1786,1890,2078,2249,2082,1832,1888,2026
183606,-32912,-12708,-39200,-6432,3800,-3800,-5,4,0,-154,151,3904,7,-3,897,1786,1890,2078,2249,2082,1832,1888,2026
184607,-32916,-12700,-39200,-6432,3800,-3800,-5,1,-1,-163,140,3934,2,0,897,1786,1890,2078,2249,2082,1832,1888,2026
185608,-32924,-12708,-39200,-6432,3800,-3800,-5,3,-2,-164,111,3972,-7,2,897,1784,1888,2078,2248,2081,1830,1885,2025
186609,-32916,-12696,-39200,-6432,3800,-3800,-5,4,-1,-161,105,3956,-7,3,897,1784,1888,2078,2248,2081,1830,1885,2025
187610,-32920,-12696,-39200,-6432,3800,-3800,-4,4,-2,-164,111,3958,-6,3,897,1784,1888,2078,2248,2081,1830,1885,2025
188611,-32904,-12708,-39200,-6432,3800,-3800,-7,4,1,-169,101,3930,7,-5,897,1784,1888,2078,2248,2081,1830,1885,2025
189612,-32908,-12696,-39200,-6432,3800,-3800,-8,3,0,-187,112,3940,9,7,896,1784,1888,2078,2248,2081,1830,1885,2025
190613,-32912,-12688,-39200,-6432,3800,-3800,-7,6,-1,-178,114,3916,12,-3,897,1786,1891,2079,2250,2084,1832,1885,2025
191614,-32916,-12704,-39200,-6432,3800,-3800,-5,6,-3,-153,127,3954,5,-3,897,1786,1891,2079,2250,2084,1832,1886,2028
192615,-32920,-12712,-39200,-6432,3800,-3800,-6,3,-1,-160,149,3919,-2,-2,896,1786,1891,2079,2250,2084,1832,1886,2028
193616,-32912,-12704,-39200,-6432,3800,-3800,-7,1,0,-174,129,3927,-6,3,897,1786,1891,2079,2250,2084,1832,1886,2028
194617,-32920,-12696,-39200,-6432,3800,-3800,-6,2,-3,-158,111,3933,-7,1,897,1786,1891,2079,2250,2084,1832,1886,2028
195618,-32912,-12692,-39200,-6432,3800,-3800,-7,3,-2,-183,124,3928,-7,7,897,1786,1891,2079,2250,2084,1832,1886,2028
196619,-32920,-12696,-39200,-6432,3800,-3800,-7,1,-1,-189,134,3920,-7,-4,897,1784,1889,2078,2248,2083,1830,1885,2025
197620,-32904,-12708,-39200,-6432,3800,-3800,-5,1,-2,-194,135,3925,-6,6,897,1784,1889,2078,2248,2083,1830,1885,2025
198621,-32924,-12700,-39200,-6432,3800,-3800,-6,2,-2,-208,143,3924,-6,-5,897,1784,1889,2078,2248,2083,1830,1885,2025
199622,-32920,-12704,-39200,-6432,3800,-3800,-5,3,-4,-201,143,3937,-6,4,897,1784,1889,2078,2248,2083,1830,1885,2025
200623,-32916,-12704,-39135,-6367,-3800,3800,-7,0,-4,-204,155,3939,1,-2,897,1784,1889,2078,2248,2083,1830,1885,2025
201624,-32932,-12704,-39070,-6302,-3800,3800,-8,-1,-4,-179,119,3930,1,-2,854,1785,1889,2079,2247,2081,1830,1885,2026
202625,-32924,-12684,-39005,-6237,-3800,3800,-5,4,-5,-183,133,3830,20,280,857,1785,1889,2079,2247,2081,1830,1885,2026
203626,-32916,-12608,-38940,-6172,-3800,3800,-10,-2,1,-190,153,3938,20,279,859,1785,1889,2079,2247,2081,1830,1885,2026
204627,-32932,-12456,-38875,-6107,-3800,3800,-20,-9,2,-245,158,3968,13,295,862,1785,1889,2079,2247,2081,1830,1885,2026
205628,-32908,-12216,-38810,-6042,-3800,3800,-15,-36,12,-576,251,4237,6,294,866,1785,1889,2079,2247,2081,1830,1885,2026
206629,-32916,-11984,-38745,-5977,-3800,3800,7,-77,21,-579,309,4283,20,310,867,1785,1889,2079,2247,2081,1830,1885,2026
207630,-32916,-11692,-38680,-5912,-3800,3800,46,-157,35,-550,407,4348,5,314,868,1783,1889,2077,2247,2082,1832,1888,2029
208631,-32920,-11380,-38615,-5847,-3800,3298,81,-174,49,-826,495,5060,5,332,871,1783,1889,2077,2247,2082,1832,1888,2029
209632,-32912,-11040,-38550,-5782,-3800,2614,93,-179,32,-679,51,4452,8,329,878,1783,1889,2077,2247,2082,1832,1888,2029
210633,-32904,-10680,-38485,-5717,-3800,2006,140,-204,35,-485,136,4559,21,108,884,1783,1889,2077,2247,2082,1832,1888,2029
211634,-32916,-10224,-38420,-5652,-3800,331,167,-247,23,-498,308,4884,9,180,888,1783,1889,2077,2247,2082,1832,1888,2029
212635,-32908,-9836,-38355,-5587,-3800,787,198,-180,11,-1355,17,5017,24,187,895,1804,1912,2106,2280,2090,1838,1890,2051
213636,-32904,-9480,-38290,-5522,-3800,834,246,-164,-15,181,70,3368,10,195,894,1804,1912,2106,2280,2090,1838,1890,2051
214637,-32920,-9104,-38225,-5457,-3800,205,241,-157,-49,-56,-271,5218,11,193,894,1804,1912,2106,2280,2090,1838,1890,2051
215638,-32900,-8748,-38160,-5392,-3800,102,260,-101,-101,-871,-197,3665,21,186,895,1804,1912,2106,2280,2090,1838,1890,2051
216639,-32904,-8372,-38095,-5327,-3800,-526,276,-74,-113,-419,-14,3863,10,203,896,1804,1912,2106,2280,2090,1838,1890,2051
217640,-32916,-8024,-38030,-5262,-3800,-521,266,-112,-126,-409,-38,3982,16,174,893,1804,1912,2106,2280,2090,1838,1890,2051
218641,-32908,-7724,-37965,-5197,-3800,-207,278,-192,-137,-1339,-348,3674,13,170,893,1873,1980,2164,2340,2077,1832,1903,2034
219642,-32912,-7436,-37900,-5132,-3800,-328,274,-332,-175,-1246,47,4003,17,163,895,1873,1980,2164,2340,2077,1832,1903,2034
220643,-32908,-7180,-37835,-5067,-3800,-160,255,-374,-185,-2262,-167,5352,5,145,879,1873,1980,2164,2340,2077,1832,1903,2034
221644,-32904,-6916,-37770,-5002,-3800,-502,294,-375,-134,-1430,221,4227,10,138,896,1873,1980,2164,2340,2077,1832,1903,2034
222645,-32904,-6700,-37705,-4937,-3800,-85,323,-475,-81,-646,158,4625,10,123,893,1873,1980,2164,2340,2077,1832,1903,2034
223646,-32896,-6460,-37640,-4872,-3800,-599,353,-556,-70,-1374,360,5379,0,122,895,1868,1970,2139,2328,2048,1810,1890,2020
224647,-32908,-6288,-37575,-4807,-3800,121,388,-600,-88,-1703,-106,4576,14,104,887,1868,1970,2139,2328,2048,1810,1890,2020
225648,-32900,-6124,-37510,-4742,-3800,101,437,-581,-101,-932,-181,4894,15,94,896,1868,1970,2139,2328,2048,1810,1890,2020
226649,-32908,-5980,-37445,-4677,-3800,255,474,-546,-90,-159,-89,5298,1,89,896,1868,1970,2139,2328,2048,1810,1890,2020
227650,-32896,-5852,-37380,-4612,-3800,378,523,-493,-58,-348,109,4689,10,63,895,1868,1970,2139,2328,2048,1810,1890,2020
228651,-32904,-5744,-37315,-4547,-3800,577,542,-491,-65,-289,157,4557,5,57,892,1868,1970,2139,2328,2048,1810,1890,2020
229652,-32896,-5640,-37250,-4482,-3800,579,572,-520,-88,-704,148,4546,2,40,894,1845,1948,2115,2298,2058,1816,1896,2034
230653,-32900,-5592,-37185,-4417,-3800,1301,589,-556,-131,-351,62,4113,2,32,894,1845,1948,2115,2298,2058,1816,1896,2034
231654,-32896,-5552,-37120,-4352,-3800,1431,617,-562,-161,-230,78,4121,-3,25,889,1845,1948,2115,2298,2058,1816,1896,2034
232655,-32916,-5492,-37055,-4287,-3800,1188,621,-579,-174,-331,182,3840,2,32,886,1845,1948,2115,2298,2058,1816,1896,2034
233656,-32900,-5440,-36990,-4222,-3800,1304,624,-618,-194,-574,165,3729,-2,20,889,1845,1948,2115,2298,2058,1816,1896,2034
234657,-32904,-5400,-36925,-4157,-3800,1486,628,-669,-217,-721,244,3667,5,23,888,1854,1950,2128,2308,2074,1823,1889,2016
235658,-32892,-5344,-36860,-4092,-3800,1297,637,-726,-229,-778,264,3678,2,17,886,1854,1950,2128,2308,2074,1823,1889,2016
236659,-32896,-5304,-36795,-4027,-3800,1528,639,-769,-238,-648,266,3552,-4,15,887,1854,1950,2128,2308,2074,1823,1889,2016
237660,-32912,-5260,-36730,-3962,-3800,1504,642,-792,-223,-562,271,3803,10,14,886,1854,1950,2128,2308,2074,1823,1889,2016
238661,-32908,-5228,-36665,-3897,-3800,1695,645,-799,-200,-496,220,3586,10,19,886,1854,1950,2128,2308,2074,1823,1889,2016
239662,-32908,-5176,-36600,-3832,-3800,1461,661,-794,-171,-566,138,3704,-2,25,884,1854,1950,2128,2308,2074,1823,1889,2016
240663,-32900,-5132,-36535,-3767,-3800,1588,680,-776,-143,-479,219,3703,4,18,885,1813,1910,2091,2253,2053,1803,1859,1998
241664,-32896,-5080,-36470,-3702,-3800,1504,705,-757,-103,-376,103,3604,15,22,885,1813,1910,2091,2253,2053,1803,1859,1998
242665,-32908,-5032,-36405,-3637,-3773,1575,719,-750,-60,-402,184,3707,15,25,886,1813,1910,2091,2253,2053,1803,1859,1998
243666,-32908,-4980,-36340,-3572,-3800,1541,743,-752,-20,-424,232,3590,15,35,885,1813,1910,2091,2253,2053,1803,1859,1998
244667,-32900,-4920,-36275,-3507,-3800,1448,761,-768,18,-425,375,3691,13,37,886,1813,1910,2091,2253,2053,1803,1859,1998
245668,-32900,-4872,-36210,-3442,-3699,1619,775,-769,56,-272,435,3613,15,38,886,1746,1846,2032,2188,2035,1779,1833,1967
246669,-32888,-4820,-36145,-3377,-3785,1586,770,-764,85,-103,505,3490,16,27,885,1746,1846,2032,2188,2035,1779,1833,1967
247670,-32908,-4760,-36080,-3312,-3283,1492,759,-759,109,38,641,3547,16,-1,885,1746,1846,2032,2188,2035,1779,1833,1967
248671,-32892,-4680,-36015,-3247,-3675,1225,754,-759,133,193,773,3440,0,41,886,1746,1846,2032,2188,2035,1779,1833,1967
249672,-32892,-4616,-35950,-3182,-3396,1426,753,-774,148,302,790,3335,10,26,888,1746,1846,2032,2188,2035,1779,1833,1967
250673,-32904,-4568,-35885,-3117,-3153,1648,739,-769,152,377,879,3445,0,38,887,1746,1846,2032,2188,2035,1779,1833,1967
251674,-32888,-4500,-35820,-3052,-3445,1395,729,-720,148,590,874,3294,-4,34,885,1731,1829,2019,2172,2043,1791,1844,1984
252675,-32904,-4428,-35755,-2987,-2947,1337,704,-694,149,731,833,3114,2,29,887,1731,1829,2019,2172,2043,1791,1844,1984
253676,-32900,-4388,-35690,-2922,-3123,1768,686,-681,176,588,874,3284,-3,38,888,1731,1829,2019,2172,2043,1791,1844,1984
254677,-32904,-4324,-35625,-2857,-2940,1469,674,-675,193,362,784,3056,-3,38,884,1731,1829,2019,2172,2043,1791,1844,1984
255678,-32904,-4256,-35560,-2792,-2913,1417,672,-692,204,235,745,3264,8,36,886,1731,1829,2019,2172,2043,1791,1844,1984
256679,-32896,-4204,-35495,-2727,-2944,1632,667,-697,223,190,717,3369,14,25,887,1738,1844,2044,2207,2081,1822,1869,2018
257680,-32896,-4140,-35430,-2662,-2766,1485,667,-671,247,300,654,3195,14,38,877,1738,1844,2044,2207,2081,1822,1869,2018
258681,-32888,-4072,-35365,-2597,-2797,1431,656,-648,260,286,564,3052,15,26,887,1738,1844,2044,2207,2081,1822,1869,2018
259682,-32892,-4016,-35300,-2532,-2563,1593,644,-636,290,110,617,3273,-1,26,887,1738,1844,2044,2207,2081,1822,1869,2018
260683,-32888,-3964,-35235,-2467,-2589,1660,630,-617,322,199,535,3117,4,33,885,1738,1844,2044,2207,2081,1822,1869,2018
261684,-32904,-3888,-35170,-2402,-2242,1346,611,-623,348,227,499,3172,16,32,881,1738,1844,2044,2207,2081,1822,1869,2018
262685,-32892,-3836,-35105,-2337,-2528,1663,590,-631,372,105,600,3526,-1,32,887,1747,1855,2059,2209,2103,1827,1871,2023
263686,-32912,-3772,-35040,-2272,-2025,1515,574,-617,402,109,583,3379,-4,39,884,1747,1855,2059,2209,2103,1827,1871,2023
264687,-32900,-3712,-34975,-2207,-2361,1572,547,-621,418,170,631,3414,15,27,886,1747,1855,2059,2209,2103,1827,1871,2023
265688,-32888,-3648,-34910,-2142,-2298,1523,516,-629,445,61,726,3778,6,39,884,1747,1855,2059,2209,2103,1827,1871,2023
266689,-32896,-3580,-34845,-2077,-1959,1470,481,-626,467,164,747,3750,15,40,886,1747,1855,2059,2209,2103,1827,1871,2023
267690,-32908,-3520,-34780,-2012,-1816,1577,457,-626,486,249,747,3794,-3,42,886,1728,1842,2039,2184,2094,1826,1872,2176
268691,-32888,-3456,-34715,-1947,-2162,1529,428,-634,491,427,845,4099,6,26,886,1728,1842,2039,2184,2094,1826,1872,2176
269692,-32908,-3384,-34650,-1882,-1559,1421,401,-613,484,550,838,4034,16,29,885,1728,1842,2039,2184,2094,1826,1872,2176
270693,-32888,-3320,-34585,-1817,-2004,1522,359,-604,474,464,877,4018,3,42,887,1728,1842,2039,2184,2094,1826,1872,2176
271694,-32892,-3272,-34520,-1752,-1621,1744,320,-575,477,568,897,4229,14,28,886,1728,1842,2039,2184,2094,1826,1872,2176
272695,-32896,-3196,-34455,-1687,-1537,1381,291,-544,473,999,885,3989,16,28,883,1728,1842,2039,2184,2094,1826,1872,2176
273696,-32892,-3148,-34390,-1622,-1563,1752,273,-534,467,989,897,4095,13,27,886,1723,1839,2036,2185,2107,1855,1907,2063
274697,-32892,-3076,-34325,-1557,-1435,1445,257,-541,469,733,864,4020,-2,36,881,1723,1839,2036,2185,2107,1855,1907,2063
275698,-32892,-3012,-34260,-1492,-1355,1546,228,-556,444,527,720,3849,10,31,886,1723,1839,2036,2185,2107,1855,1907,2063
276699,-32900,-2964,-34195,-1427,-1167,1768,203,-590,429,457,750,4165,16,30,886,1723,1839,2036,2185,2107,1855,1907,2063
277703,-32892,-2916,-34130,-1362,-1298,1788,190,-613,433,497,775,4180,14,23,884,1723,1839,2036,2185,2107,1855,1907,2063
278701,-32892,-2848,-34065,-1297,-1119,1536,178,-612,438,370,648,4111,13,32,883,1746,1839,2069,2223,2171,1895,1939,2099
279702,-32888,-2800,-34000,-1232,-1095,1807,145,-624,441,105,625,4162,1,28,886,1746,1839,2069,2223,2171,1895,1939,2099
280703,-32900,-2732,-33935,-1167,-802,1554,111,-638,438,238,547,4092,7,36,883,1746,1839,2069,2223,2171,1895,1939,2099
281704,-32896,-2680,-33870,-1102,-927,1771,89,-663,447,291,559,4128,15,32,885,1746,1839,2069,2223,2171,1895,1939,2099
282705,-32896,-2612,-33805,-1037,-798,1567,64,-692,456,173,549,4284,9,37,883,1746,1839,2069,2223,2171,1895,1939,2099
283706,-32888,-2552,-33740,-972,-830,1674,47,-694,459,92,488,4361,-1,34,885,1746,1839,2069,2223,2171,1895,1939,2099
284707,-32896,-2484,-33675,-907,-540,1571,30,-713,460,169,537,4348,14,24,884,1773,1897,2109,2258,2176,1896,1936,2095
285708,-32884,-2436,-33610,-842,-726,1842,7,-717,454,96,530,4604,6,34,885,1773,1897,2109,2258,2176,1896,1936,2095
286709,-32888,-2384,-33545,-777,-443,1809,-21,-703,448,248,513,4443,10,35,883,1773,1897,2109,2258,2176,1896,1936,2095
287710,-32888,-2316,-33480,-712,-413,1606,-48,-713,451,259,546,4559,17,36,883,1773,1897,2109,2258,2176,1896,1936,2095
288711,-32872,-2280,-33415,-647,-553,2042,-76,-712,457,296,655,4667,0,32,885,1773,1897,2109,2258,2176,1896,1936,2095
289712,-32876,-2212,-33350,-582,-219,1638,-100,-694,462,331,707,4708,8,23,880,1791,1915,2116,2265,2142,1869,1920,2071
290713,-32864,-2140,-33285,-517,-354,1581,-125,-679,446,370,696,4728,3,28,884,1791,1915,2116,2265,2142,1869,1920,2071
291714,-32880,-2108,-33220,-452,93,2122,-147,-660,432,376,712,4801,1,30,883,1791,1915,2116,2265,2142,1869,1920,2071
292715,-32880,-2040,-33155,-387,-27,1668,-169,-635,426,435,772,4670,-1,23,880,1791,1915,2116,2265,2142,1869,1920,2071
293716,-32864,-1984,-33090,-322,-167,1830,-198,-628,409,331,691,4629,1,32,884,1791,1915,2116,2265,2142,1869,1920,2071
294717,-32868,-1932,-33025,-257,167,1897,-216,-629,408,331,778,4755,15,27,875,1791,1915,2116,2265,2142,1869,1920,2071
295718,-32876,-1876,-32960,-192,306,1858,-229,-623,408,431,751,4568,17,19,881,1779,1894,2103,2267,2123,1862,1919,2062
296719,-32868,-1828,-32895,-127,176,1980,-234,-628,397,244,631,4532,19,30,881,1779,1894,2103,2267,2123,1862,1919,2062
297720,-32868,-1780,-32830,-62,355,2002,-234,-657,397,53,677,4623,11,21,880,1779,1894,2103,2267,2123,1862,1919,2062
298721,-32864,-1724,-32765,3,379,1913,-223,-666,409,52,605,4554,19,17,879,1779,1894,2103,2267,2123,1862,1919,2062
299722,-32856,-1672,-32700,68,399,1980,-210,-682,418,92,504,4353,11,21,879,1779,1894,2103,2267,2123,1862,1919,2062
300723,-32852,-1632,-32635,133,523,2161,-196,-705,424,-33,481,4445,12,31,879,1797,1907,2109,2275,2132,1874,1920,2060
301724,-32844,-1572,-32570,198,543,1917,-190,-714,442,36,488,4498,14,25,876,1797,1907,2109,2275,2132,1874,1920,2060
302725,-32824,-1524,-32505,263,448,2089,-170,-712,468,-3,468,4313,24,20,879,1797,1907,2109,2275,2132,1874,1920,2060
303726,-32792,-1472,-32440,328,338,2056,-155,-699,483,14,560,4350,15,20,877,1797,1907,2109,2275,2132,1874,1920,2060
304727,-32776,-1428,-32375,393,598,2181,-142,-694,497,-123,564,4298,16,31,878,1797,1907,2109,2275,2132,1874,1920,2060
305728,-32752,-1380,-32310,458,549,2153,-137,-687,507,-3,636,4224,15,26,875,1797,1907,2109,2275,2132,1874,1920,2060
306729,-32708,-1328,-32245,523,325,2120,-133,-672,522,-19,600,4176,23,31,875,1803,1915,2117,2283,2107,1848,1900,2034
307730,-32668,-1280,-32180,588,405,2191,-132,-664,521,45,735,4126,24,34,878,1803,1915,2117,2283,2107,1848,1900,2034
308731,-32656,-1208,-32115,653,820,1883,-124,-648,542,-154,695,4175,20,29,877,1803,1915,2117,2283,2107,1848,1900,2034
309732,-32608,-1156,-32050,718,391,2150,-128,-632,554,-50,744,4070,35,37,878,1803,1915,2117,2283,2107,1848,1900,2034
310733,-32580,-1100,-31985,783,687,2111,-122,-624,546,-80,891,4093,27,32,877,1803,1915,2117,2283,2107,1848,1900,2034
311734,-32520,-1032,-31920,848,293,1958,-122,-615,543,-117,791,4101,26,40,876,1820,1927,2117,2285,2059,1807,1865,1996
312735,-32460,-980,-31855,913,299,2175,-112,-609,555,-157,853,4196,28,27,880,1820,1927,2117,2285,2059,1807,1865,1996
313736,-32416,-908,-31790,978,525,1918,-90,-603,567,-148,812,4129,29,34,878,1820,1927,2117,2285,2059,1807,1865,1996
314737,-32360,-836,-31725,1043,386,1909,-64,-616,570,-141,741,4016,29,38,880,1820,1927,2117,2285,2059,1807,1865,1996
315738,-32312,-764,-31660,1108,507,1902,-34,-622,564,-170,878,4253,41,33,880,1820,1927,2117,2285,2059,1807,1865,1996
316739,-32284,-708,-31595,1173,803,2114,-1,-622,575,-152,785,4060,35,38,880,1820,1927,2117,2285,2059,1807,1865,1996
317740,-32220,-636,-31530,1238,354,1905,43,-629,590,-243,842,4063,33,38,876,1810,1914,2099,2265,2029,1786,1845,1978
318741,-32188,-560,-31465,1303,794,1843,83,-642,602,-219,725,4010,47,36,880,1810,1914,2099,2265,2029,1786,1845,1978
319742,-32128,-496,-31400,1368,451,1995,127,-671,611,-267,754,3894,35,34,878,1810,1914,2099,2265,2029,1786,1845,1978
320743,-32048,-424,-31335,1433,183,1887,148,-680,627,-263,838,3969,38,49,878,1810,1914,2099,2265,2029,1786,1845,1978
321744,-31964,-356,-31270,1498,110,1934,175,-691,658,-254,675,3721,53,33,881,1810,1914,2099,2265,2029,1786,1845,1978
322745,-31900,-272,-31205,1563,362,1711,187,-707,692,-327,802,3730,44,41,881,1812,1916,2106,2276,2021,1784,1848,1977
323746,-31828,-200,-31140,1628,253,1854,211,-720,712,-209,964,3517,47,34,882,1812,1916,2106,2276,2021,1784,1848,1977
324747,-31756,-148,-31075,1693,245,2120,231,-737,730,-382,855,3316,53,40,882,1812,1916,2106,2276,2021,1784,1848,1977
325748,-31696,-68,-31010,1758,401,1753,244,-784,737,-396,956,3505,46,37,877,1812,1916,2106,2276,2021,1784,1848,1977
326749,-31612,4,-30945,1823,79,1845,249,-810,738,-348,1302,3468,46,33,881,1812,1916,2106,2276,2021,1784,1848,1977
327751,-31548,76,-30880,1888,330,1836,263,-801,727,-286,1169,3597,49,34,882,1812,1916,2106,2276,2021,1784,1848,1977
328751,-31492,128,-30815,1953,441,2103,281,-788,714,117,1176,3493,54,44,880,1825,1927,2112,2280,2029,1789,1852,1985
329752,-31412,200,-30750,2018,123,1846,308,-802,707,-127,1161,3539,43,31,878,1825,1927,2112,2280,2029,1789,1852,1985
330753,-31340,264,-30685,2083,215,1948,334,-811,710,-481,1130,3588,56,46,882,1825,1927,2112,2280,2029,1789,1852,1985
331754,-31276,336,-30620,2148,316,1839,359,-823,710,-383,970,3450,48,42,881,1825,1927,2112,2280,2029,1789,1852,1985
332755,-31212,420,-30555,2213,318,1667,378,-836,717,-309,1078,3672,53,37,882,1825,1927,2112,2280,2029,1789,1852,1985
333756,-31140,492,-30490,2278,209,1810,410,-835,737,-422,974,3672,37,50,883,1803,1907,2092,2246,2036,1791,1848,1985
334757,-31068,560,-30425,2343,201,1856,439,-839,755,-414,834,3423,36,42,882,1803,1907,2092,2246,2036,1791,1848,1985
335758,-31000,636,-30360,2408,248,1744,457,-879,758,-440,1009,3646,41,52,881,1803,1907,2092,2246,2036,1791,1848,1985
336759,-30940,712,-30295,2473,354,1731,480,-911,766,-467,1039,3596,41,46,883,1803,1907,2092,2246,2036,1791,1848,1985
337760,-30868,808,-30230,2538,195,1443,500,-926,781,-451,1110,3539,52,39,882,1803,1907,2092,2246,2036,1791,1848,1985
338761,-30808,880,-30165,2603,352,1736,512,-921,782,-436,1046,3570,43,47,885,1803,1907,2092,2246,2036,1791,1848,1985
339762,-30712,964,-30100,2668,-135,1564,501,-917,781,-392,1066,3576,48,43,883,1772,1878,2072,2222,2035,1790,1843,1981
340763,-30636,1024,-30035,2733,101,1870,495,-917,776,-361,1175,3532,42,41,880,1772,1878,2072,2222,2035,1790,1843,1981
341764,-30576,1112,-29970,2798,307,1493,470,-913,773,-406,1191,3419,34,33,882,1772,1878,2072,2222,2035,1790,1843,1981
342765,-30508,1176,-29905,2863,204,1795,449,-906,785,-394,1233,3432,47,32,884,1772,1878,2072,2222,2035,1790,1843,1981
343766,-30440,1244,-29840,2928,201,1741,424,-898,774,-324,1274,3318,35,49,883,1772,1878,2072,2222,2035,1790,1843,1981
344767,-30384,1320,-29775,2993,362,1629,407,-889,756,-320,1195,3281,53,38,883,1767,1875,2070,2219,2051,1807,1859,1998
345768,-30300,1396,-29710,3058,-11,1615,384,-875,758,-475,1204,3650,51,39,883,1767,1875,2070,2219,2051,1807,1859,1998
346769,-30260,1452,-29645,3123,569,1877,369,-876,748,-268,1204,3341,45,49,885,1767,1875,2070,2219,2051,1807,1859,1998
347770,-30180,1524,-29580,3188,52,1670,358,-862,738,-131,1087,3482,37,44,881,1767,1875,2070,2219,2051,1807,1859,1998
348771,-30096,1604,-29515,3253,-21,1551,349,-869,744,-264,1055,3473,52,35,883,1767,1875,2070,2219,2051,1807,1859,1998
349772,-30056,1676,-29450,3318,559,1644,345,-874,756,-373,1148,3426,33,47,885,1767,1875,2070,2219,2051,1807,1859,1998
350773,-29984,1756,-29385,3383,151,1527,346,-868,759,-280,888,3407,31,33,883,1745,1852,2057,2205,2092,1841,1882,2025
351774,-29920,1828,-29320,3448,253,1618,337,-870,758,-201,996,3518,53,44,884,1745,1852,2057,2205,2092,1841,1882,2025
352775,-29840,1896,-29255,3513,35,1665,324,-876,759,-292,988,3584,53,46,885,1745,1852,2057,2205,2092,1841,1882,2025
353776,-29772,1948,-29190,3578,181,1881,312,-862,756,-327,1001,3471,33,47,885,1745,1852,2057,2205,2092,1841,1882,2025
354777,-29708,2032,-29125,3643,232,1459,292,-845,758,-244,1091,3620,38,37,882,1745,1852,2057,2205,2092,1841,1882,2025
355778,-29644,2104,-29060,3708,233,1602,270,-838,745,-142,1238,3509,48,41,885,1731,1843,2052,2197,2111,1852,1890,2033
356779,-29568,2172,-28995,3773,71,1648,236,-837,736,-273,1126,3575,49,41,885,1731,1843,2052,2197,2111,1852,1890,2033
357780,-29488,2232,-28930,3838,3,1755,220,-824,722,-104,1086,3536,33,51,884,1731,1843,2052,2197,2111,1852,1890,2033
358781,-29388,2304,-28865,3903,-290,1597,190,-813,715,-155,1160,3391,51,49,883,1731,1843,2052,2197,2111,1852,1890,2033
359782,-29308,2388,-28800,3968,-58,1424,153,-811,715,-223,1216,3627,31,46,881,1731,1843,2052,2197,2111,1852,1890,2033
360783,-29224,2472,-28735,4033,-132,1402,112,-805,711,-239,1054,3428,37,53,886,1731,1843,2052,2197,2111,1852,1890,2033
361784,-29116,2572,-28670,4098,-483,1159,80,-804,705,-163,970,3732,34,46,883,1733,1850,2056,2202,2103,1841,1883,2026
362785,-29012,2644,-28605,4163,-481,1502,62,-800,721,142,984,3457,40,48,884,1733,1850,2056,2202,2103,1841,1883,2026
363786,-28952,2716,-28540,4228,75,1493,50,-816,733,213,1231,3599,44,34,886,1733,1850,2056,2202,2103,1841,1883,2026
364787,-28892,2804,-28475,4293,82,1266,39,-843,691,-29,1242,3453,26,46,885,1733,1850,2056,2202,2103,1841,1883,2026
365788,-28836,2880,-28410,4358,143,1404,41,-875,654,-235,1176,3740,44,41,887,1733,1850,2056,2202,2103,1841,1883,2026
366789,-28776,2952,-28345,4423,99,1445,46,-860,633,315,1169,3897,43,38,886,1739,1857,2060,2205,2094,1833,1877,2021
367790,-28728,3032,-28280,4488,270,1328,49,-843,626,514,1075,3686,27,34,886,1739,1857,2060,2205,2094,1833,1877,2021
368791,-28676,3088,-28215,4553,236,1639,46,-830,623,82,1008,3796,29,38,886,1739,1857,2060,2205,2094,1833,1877,2021
369792,-28616,3164,-28150,4618,142,1376,27,-825,631,72,918,3585,33,46,884,1739,1857,2060,2205,2094,1833,1877,2021
370793,-28536,3240,-28085,4683,-126,1363,9,-818,650,65,786,3573,46,50,886,1739,1857,2060,2205,2094,1833,1877,2021
371794,-28472,3312,-28020,4748,75,1405,-12,-812,677,120,684,3544,30,48,883,1739,1857,2060,2205,2094,1833,1877,2021
372795,-28396,3388,-27955,4813,-88,1342,-34,-789,686,176,873,3632,38,40,886,1762,1884,2086,2238,2078,1826,1874,2008
373796,-28320,3472,-27890,4878,-101,1220,-60,-792,688,111,1047,3454,37,41,886,1762,1884,2086,2238,2078,1826,1874,2008
374797,-28260,3544,-27825,4943,106,1362,-79,-781,691,217,989,3593,28,52,886,1762,1884,2086,2238,2078,1826,1874,2008
375799,-28200,3604,-27760,5008,112,1518,-98,-786,685,386,1146,3500,33,50,886,1762,1884,2086,2238,2078,1826,1874,2008
376799,-28156,3676,-27695,5073,337,1361,-109,-807,665,331,1131,3463,45,45,885,1762,1884,2086,2238,2078,1826,1874,2008
377800,-28084,3764,-27630,5138,-21,1133,-112,-818,639,321,1052,3601,45,56,886,1787,1902,2101,2265,2075,1827,1876,2000
378801,-28028,3856,-27565,5203,190,1051,-126,-838,605,292,1006,3482,28,59,888,1787,1902,2101,2265,2075,1827,1876,2000
379802,-27964,3960,-27500,5268,92,853,-121,-825,615,284,977,3691,41,49,889,1787,1902,2101,2265,2075,1827,1876,2000
380803,-27904,4040,-27435,5333,148,1136,-106,-793,638,568,865,3400,40,48,891,1787,1902,2101,2265,2075,1827,1876,2000
381804,-27844,4132,-27370,5398,154,953,-106,-804,632,410,602,3570,48,53,889,1787,1902,2101,2265,2075,1827,1876,2000
382805,-27776,4208,-27305,5463,50,1140,-100,-822,631,127,649,3860,48,48,891,1787,1902,2101,2265,2075,1827,1876,2000
383806,-27712,4280,-27240,5528,102,1182,-93,-791,645,337,643,3749,47,49,890,1780,1888,2089,2252,2076,1830,1872,1997
384807,-27644,4364,-27175,5593,48,1010,-87,-728,665,697,601,3821,40,54,889,1780,1888,2089,2252,2076,1830,1872,1997
385808,-27576,4440,-27110,5658,45,1096,-78,-679,686,866,875,3999,39,42,890,1780,1888,2089,2252,2076,1830,1872,1997
386809,-27516,4524,-27045,5723,151,974,-58,-652,683,484,915,3650,40,50,890,1780,1888,2089,2252,2076,1830,1872,1997
387810,-27456,4608,-26980,5788,158,951,-47,-636,669,246,826,3647,50,41,890,1780,1888,2089,2252,2076,1830,1872,1997
388811,-27376,4676,-26915,5853,-111,1147,-48,-605,663,590,944,3752,37,50,891,1763,1874,2074,2240,2066,1822,1867,1987
389812,-27312,4744,-26850,5918,90,1145,-54,-575,667,633,858,3460,42,40,886,1763,1874,2074,2240,2066,1822,1867,1987
390813,-27244,4832,-26785,5983,38,867,-59,-561,666,384,781,3428,34,38,888,1763,1874,2074,2240,2066,1822,1867,1987
391814,-27156,4900,-26720,6048,-240,1114,-67,-546,674,360,698,3471,40,43,891,1763,1874,2074,2240,2066,1822,1867,1987
392815,-27100,4972,-26655,6113,171,1055,-62,-550,690,246,612,3216,50,46,882,1763,1874,2074,2240,2066,1822,1867,1987
393816,-27024,5060,-26590,6178,-93,828,-70,-565,682,108,662,3145,35,54,889,1763,1874,2074,2240,2066,1822,1867,1987
394817,-26960,5152,-26525,6243,59,745,-66,-565,687,280,646,3155,39,58,889,1769,1881,2083,2255,2059,1816,1858,1979
395818,-26880,5240,-26460,6308,-160,767,-59,-532,721,798,615,3252,37,45,892,1769,1881,2083,2255,2059,1816,1858,1979
396819,-26804,5316,-26395,6373,-123,905,-59,-474,739,917,330,3235,44,39,887,1769,1881,2083,2255,2059,1816,1858,1979
397820,-26724,5400,-26330,6438,-191,782,-70,-400,741,651,323,3633,43,53,886,1769,1881,2083,2255,2059,1816,1858,1979
398821,-26660,5476,-26265,6503,11,869,-81,-307,753,759,512,3630,41,51,885,1769,1881,2083,2255,2059,1816,1858,1979
399822,-26572,5560,-26200,6568,-317,746,-109,-220,769,1299,430,3668,37,41,888,1774,1882,2080,2248,2040,1805,1852,1960
400823,-26504,5624,-26135,6633,-71,997,-126,-165,798,1119,354,3683,56,42,885,1774,1882,2080,2248,2040,1805,1852,1960
401824,-26424,5704,-26070,6698,-239,780,-155,-158,825,634,398,3324,55,44,888,1774,1882,2080,2248,2040,1805,1852,1960
402825,-26348,5780,-26005,6763,-203,816,-170,-142,814,675,469,3518,45,49,892,1774,1882,2080,2248,2040,1805,1852,1960
403826,-26272,5860,-25940,6828,-216,749,-183,-134,825,432,319,3297,38,44,892,1774,1882,2080,2248,2040,1805,1852,1960
404827,-26164,5928,-25875,6893,-668,895,-183,-123,823,513,412,3493,44,40,883,1774,1882,2080,2248,2040,1805,1852,1960
405828,-26100,6004,-25810,6958,-116,782,-183,-140,823,515,407,3287,48,51,881,1755,1864,2064,2240,2065,1827,1869,1987
406829,-26024,6088,-25745,7023,-280,660,-178,-194,811,612,401,3201,49,44,892,1755,1864,2064,2240,2065,1827,1869,1987
407830,-25932,6148,-25680,7088,-513,966,-146,-235,789,338,388,3166,42,57,883,1755,1864,2064,2240,2065,1827,1869,1987
408831,-25860,6232,-25615,7153,-271,643,-113,-263,776,432,212,3053,39,59,892,1755,1864,2064,2240,2065,1827,1869,1987
409832,-25780,6312,-25550,7218,-390,675,-98,-240,768,326,116,3240,43,43,892,1755,1864,2064,2240,2065,1827,1869,1987
410833,-25700,6384,-25485,7283,-408,767,-104,-203,770,817,351,3192,49,58,892,1743,1854,2059,2220,2072,1842,1887,2004
411834,-25620,6484,-25420,7348,-426,374,-117,-142,778,1059,271,3289,50,57,893,1743,1854,2059,2220,2072,1842,1887,2004
412835,-25548,6564,-25355,7413,-335,607,-136,-59,820,856,344,3177,60,56,894,1743,1854,2059,2220,2072,1842,1887,2004
413836,-25460,6664,-25290,7478,-563,314,-166,34,842,917,321,3256,44,58,894,1743,1854,2059,2220,2072,1842,1887,2004
414837,-25380,6752,-25225,7543,-481,436,-198,108,853,1006,298,3398,44,56,895,1743,1854,2059,2220,2072,1842,1887,2004
415838,-25280,6824,-25160,7608,-773,629,-235,154,858,793,336,3282,43,44,895,1755,1866,2062,2232,2061,1818,1871,2004
416839,-25200,6896,-25095,7673,-541,620,-263,208,875,812,387,3577,59,57,894,1755,1866,2062,2232,2061,1818,1871,1982
417840,-25108,6968,-25030,7738,-724,611,-287,222,893,730,247,3347,64,52,893,1755,1866,2062,2232,2061,1818,1871,1982
418841,-25032,7064,-24965,7803,-538,275,-307,148,912,469,145,3263,50,52,894,1755,1866,2062,2232,2061,1818,1871,1982
419842,-24940,7144,-24900,7868,-771,456,-329,86,900,174,448,3244,53,44,894,1755,1866,2062,2232,2061,1818,1871,1982
420843,-24860,7208,-24835,7933,-639,658,-343,12,884,-109,173,3268,54,54,895,1755,1866,2062,2232,2061,1818,1871,1982
421844,-24760,7288,-24770,7998,-932,439,-348,-35,869,670,112,3551,45,39,894,1750,1861,2059,2231,2061,1824,1866,1988
422845,-24648,7364,-24705,8063,-1139,477,-326,-102,864,1098,123,3395,63,55,894,1750,1861,2059,2231,2061,1824,1866,1988
423846,-24560,7440,-24640,8128,-867,463,-300,-192,859,381,47,3021,67,53,894,1750,1861,2059,2231,2061,1824,1866,1988
424847,-24452,7512,-24575,8193,-1170,505,-262,-247,830,519,70,3437,59,54,894,1750,1861,2059,2231,2061,1824,1866,1988
425848,-24392,7592,-24510,8258,-564,386,-228,-297,814,892,-327,3029,66,40,894,1750,1861,2059,2231,2061,1824,1866,1988
426849,-24288,7668,-24445,8323,-1161,424,-203,-253,818,905,-303,3221,49,51,888,1739,1874,2078,2244,2077,1830,1881,2007
427850,-24188,7752,-24380,8388,-1155,301,-213,-131,858,1219,-3,3657,51,44,894,1739,1874,2078,2244,2077,1830,1881,2007
428851,-24084,7804,-24315,8453,-1252,717,-270,55,883,1388,-218,3758,62,51,895,1739,1874,2078,2244,2077,1830,1881,2007
429852,-23996,7900,-24250,8518,-1081,129,-379,202,915,1550,-161,3713,55,46,894,1739,1874,2078,2244,2077,1830,1881,2007
430853,-23912,7960,-24185,8583,-1054,586,-497,300,950,1076,84,3558,64,39,891,1739,1874,2078,2244,2077,1830,1881,2007
431854,-23800,8040,-24120,8648,-1461,318,-580,369,960,660,206,3511,62,39,895,1739,1874,2078,2244,2077,1830,1881,2007
432855,-23696,8108,-24055,8713,-1409,464,-660,391,975,700,-138,3451,55,44,894,1795,1907,2092,2269,2063,1827,1889,2002
433856,-23592,8180,-23990,8778,-1456,405,-708,337,1009,295,-147,3252,56,51,895,1795,1907,2092,2269,2063,1827,1889,2002
434857,-23456,8248,-23925,8843,-1943,453,-748,222,1019,-420,61,3047,62,39,891,1795,1907,2092,2269,2063,1827,1889,2002
435858,-23372,8328,-23860,8908,-1317,285,-772,105,997,-342,-108,3276,51,54,895,1795,1907,2092,2269,2063,1827,1889,2002
436859,-23280,8388,-23795,8973,-1450,541,-782,11,994,385,-80,3568,67,43,895,1795,1907,2092,2269,2063,1827,1889,2002
437860,-23172,8472,-23730,9038,-1703,217,-776,-47,998,24,-435,3145,65,38,895,1747,1847,2048,2231,2154,1909,1933,2058
438861,-23068,8520,-23665,9103,-1700,688,-760,-53,998,7,-629,4063,62,45,894,1747,1847,2048,2231,2154,1909,1933,2058
439862,-22976,8596,-23600,9168,-1583,326,-722,-11,990,770,-616,4102,57,43,894,1747,1847,2048,2231,2154,1909,1933,2058
440863,-22868,8676,-23535,9233,-1837,257,-685,10,990,1014,-682,3775,64,41,894,1747,1847,2048,2231,2154,1909,1933,2058
441864,-22760,8744,-23470,9298,-1889,404,-653,53,996,899,-555,4177,54,53,895,1747,1847,2048,2231,2154,1909,1933,2058
442865,-22652,8836,-23405,9363,-1942,71,-616,133,998,1099,-535,4108,55,42,895,1747,1847,2048,2231,2154,1909,1933,2058
443866,-22548,8908,-23340,9428,-1939,312,-599,175,999,1128,-507,3597,59,43,895,1710,1820,2037,2207,2166,1910,1937,2059
444867,-22424,8996,-23275,9493,-2262,85,-569,126,1002,1021,-319,3295,64,55,895,1710,1820,2037,2207,2166,1910,1937,2059
445868,-22300,9104,-23210,9558,-2334,-217,-539,94,1023,845,-543,3367,59,45,895,1710,1820,2037,2207,2166,1910,1937,2059
446869,-22192,9252,-23145,9623,-2187,-819,-550,167,1067,530,-573,3434,65,53,895,1710,1820,2037,2207,2166,1910,1937,2059
447870,-22060,9336,-23080,9688,-2570,-42,-608,322,1151,961,-246,3556,54,50,896,1710,1820,2037,2207,2166,1910,1937,2059
448871,-21936,9412,-23015,9753,-2542,45,-703,457,1229,734,-272,3948,75,33,891,1775,1879,2089,2287,2047,1815,1871,1962
449872,-21836,9468,-22816,9952,-1435,1156,-847,490,1269,122,-722,3933,62,50,897,1775,1879,2089,2287,2047,1815,1871,1962
450873,-21708,9532,-22751,10017,-1862,1059,-974,497,1310,423,-359,4090,59,53,896,1775,1879,2089,2287,2047,1815,1871,1962
451874,-21584,9588,-22686,10082,-1884,1170,-1068,479,1350,419,-150,3772,62,53,890,1775,1879,2089,2287,2047,1815,1871,1962
452878,-21480,9696,-22621,10147,-1682,467,-1123,406,1389,-34,-481,3711,66,50,890,1775,1879,2089,2287,2047,1815,1871,1962
453876,-21360,9764,-22556,10212,-1949,963,-1137,266,1414,-270,-465,3377,81,65,890,1775,1879,2089,2287,2047,1815,1871,1962
454877,-21228,9884,-22491,10277,-2182,246,-1101,134,1401,-114,-675,3829,60,54,894,1834,1930,2116,2326,2038,1828,1876,1987
455878,-21128,9992,-22426,10342,-1825,344,-1046,20,1368,-496,-1196,3891,76,66,892,1834,1930,2116,2326,2038,1828,1876,1987
456879,-20992,10092,-22361,10407,-2363,402,-989,-50,1340,-288,-668,4055,67,68,895,1834,1930,2116,2326,2038,1828,1876,1987
457880,-20880,10188,-22296,10472,-2120,414,-922,-73,1310,485,-775,4547,68,64,895,1834,1930,2116,2326,2038,1828,1876,1987
458881,-20768,10296,-22231,10537,-2178,212,-871,-113,1302,881,-1048,4310,64,63,895,1834,1930,2116,2326,2038,1828,1876,1987
459882,-20636,10400,-22166,10602,-2510,214,-790,-112,1337,446,-890,4366,62,71,888,1814,1911,2120,2305,2118,1882,1930,2061
460883,-20524,10536,-22101,10667,-2319,-273,-700,-41,1327,682,-800,4479,65,66,896,1814,1911,2120,2305,2118,1882,1930,2061
461884,-20404,10656,-22036,10732,-2486,-140,-643,51,1339,1045,-771,3958,71,72,895,1814,1911,2120,2305,2118,1882,1930,2061
462885,-20268,10756,-21971,10797,-2773,68,-584,161,1371,1282,-448,3854,80,60,895,1814,1911,2120,2305,2118,1882,1930,2061
463886,-20156,10868,-21906,10862,-2532,-140,-576,141,1367,837,-457,3358,66,71,892,1814,1911,2120,2305,2118,1882,1930,2061
464887,-20008,10972,-21841,10927,-3083,-87,-563,39,1371,642,-304,3466,64,62,896,1814,1911,2120,2305,2118,1882,1930,2061
465888,-19876,11080,-21776,10992,-2966,-190,-580,-99,1373,298,-143,3281,69,58,896,1865,1973,2161,2374,2087,1849,1923,2015
466889,-19776,11180,-21711,11057,-2610,-133,-597,-156,1347,20,-115,3425,80,66,896,1865,1973,2161,2374,2087,1849,1923,2015
467890,-19640,11296,-21646,11122,-3147,-395,-651,-150,1322,-473,-65,4086,82,65,894,1865,1973,2161,2374,2087,1849,1923,2015
468891,-19496,11380,-21581,11187,-3344,-18,-670,-258,1370,461,-340,3710,83,67,896,1865,1973,2161,2374,2087,1849,1923,2015
469892,-19372,11476,-21516,11252,-3167,-206,-626,-413,1373,698,-732,4462,77,59,894,1865,1973,2161,2374,2087,1849,1923,2015
470893,-19236,11572,-21451,11317,-3404,-244,-583,-538,1399,-536,-988,4552,67,66,896,1892,1984,2148,2376,2012,1796,1868,1962
471894,-19108,11684,-21386,11382,-3382,-501,-552,-534,1432,-208,-891,5063,71,53,895,1892,1984,2148,2376,2012,1796,1868,1962
472895,-19004,11796,-21321,11447,-3131,-560,-541,-449,1458,827,-969,5160,71,63,895,1892,1984,2148,2376,2012,1796,1868,1962
473896,-18844,11884,-21256,11512,-3800,-288,-567,-356,1483,698,-1389,5110,70,60,894,1892,1984,2148,2376,2012,1796,1868,1962
474897,-18736,11952,-21191,11577,-3350,-41,-614,-228,1506,672,-1372,5666,64,47,894,1892,1984,2148,2376,2012,1796,1868,1962
475898,-18608,12028,-21126,11642,-3678,-155,-629,-134,1489,1316,-1314,5443,83,49,894,1892,1984,2148,2376,2012,1796,1868,1962
476899,-18468,12112,-21061,11707,-3800,-278,-595,-27,1475,785,-1662,5129,82,44,896,1860,1961,2141,2351,2037,1831,1897,2009
477900,-18368,12196,-20996,11772,-3465,-301,-563,45,1444,806,-1999,5156,82,45,896,1860,1961,2141,2351,2037,1831,1897,2009
478901,-18236,12268,-20931,11837,-3800,-160,-483,65,1387,945,-1843,5125,78,43,894,1860,1961,2141,2351,2037,1831,1897,2009
479902,-18120,12344,-20866,11902,-3800,-224,-428,33,1329,399,-1891,4649,64,41,894,1860,1961,2141,2351,2037,1831,1897,2009
480903,-18008,12396,-20801,11967,-3800,92,-392,16,1259,212,-1851,4640,77,53,895,1860,1961,2141,2351,2037,1831,1897,2009
481904,-17868,12464,-20736,12032,-3800,-112,-392,-51,1187,214,-1611,4313,72,48,895,1867,1921,2185,2432,2174,1960,2000,2088
482905,-17744,12540,-20671,12097,-3800,-225,-412,-108,1104,349,-1398,4455,77,40,897,1867,1921,2185,2432,2174,1960,2000,2088
483906,-17636,12612,-20606,12162,-3800,-184,-419,-150,1045,856,-1113,4292,65,50,896,1867,1921,2185,2432,2174,1960,2000,2088
484907,-17516,12668,-20541,12227,-3800,27,-407,-170,1011,838,-1396,4407,57,50,895,1867,1921,2185,2432,2174,1960,2000,2088
485908,-17396,12712,-20476,12292,-3800,202,-388,-164,950,985,-1447,4535,59,50,895,1867,1921,2185,2432,2174,1960,2000,2088
486909,-17260,12784,-20411,12357,-3800,-157,-354,-93,913,1242,-1480,4628,73,44,896,1867,1921,2185,2432,2174,1960,2000,2088
487910,-17164,12860,-20346,12422,-3800,-220,-324,35,904,1226,-1647,4914,57,37,895,1898,1984,2200,2463,2207,1980,2022,2095
488911,-17040,12920,-20281,12487,-3800,-14,-315,168,936,1230,-1516,4882,57,44,896,1898,1984,2200,2463,2207,1980,2022,2095
489912,-16908,12992,-20216,12552,-3800,-173,-314,297,957,1509,-1506,5014,54,46,895,1898,1984,2200,2463,2207,1980,2022,2095
490913,-16816,13044,-20151,12617,-3800,93,-318,380,955,1273,-1689,5104,55,39,897,1898,1984,2200,2463,2207,1980,2022,2095
491914,-16712,13092,-20086,12682,-3800,163,-322,455,937,1422,-1680,5488,66,31,895,1898,1984,2200,2463,2207,1980,2022,2095
492915,-16604,13152,-20021,12747,-3800,19,-313,524,934,1269,-1832,5597,51,46,889,1862,1959,2144,2384,2098,1875,1932,2003
493916,-16496,13192,-19956,12812,-3800,300,-299,591,916,893,-2140,5400,65,45,895,1862,1959,2144,2384,2098,1875,1932,2003
494917,-16376,13260,-19891,12877,-3800,-54,-281,608,861,893,-2219,5710,60,35,896,1862,1959,2144,2384,2098,1875,1932,2003
495918,-16296,13324,-19826,12942,-3800,-3,-256,587,810,771,-2430,5321,65,41,894,1862,1959,2144,2384,2098,1875,1932,2003
496919,-16192,13368,-19761,13007,-3800,273,-228,545,747,849,-2314,5183,59,38,891,1862,1959,2144,2384,2098,1875,1932,2003
497920,-16092,13424,-19696,13072,-3800,133,-199,489,659,675,-2373,5268,60,33,896,1862,1959,2144,2384,2098,1875,1932,2003
498921,-16008,13480,-19631,13137,-3800,144,-177,444,567,570,-2529,5002,57,43,895,1828,1930,2123,2361,2049,1839,1895,1983
499922,-15940,13540,-19566,13202,-3800,100,-154,463,491,1125,-2183,5123,40,44,896,1828,1930,2123,2361,2049,1839,1895,1983
500923,-15868,13604,-19501,13267,-3800,51,-115,462,408,1677,-1839,4811,44,34,894,1828,1930,2123,2361,2049,1839,1895,1983
501924,-15792,13648,-19436,13332,-3800,327,-73,457,327,1440,-1883,4864,55,45,896,1828,1930,2123,2361,2049,1839,1895,1983
502926,-15720,13696,-19371,13397,-3800,298,-53,373,243,1250,-1864,4166,37,34,896,1828,1930,2123,2361,2049,1839,1895,1983
503926,-15640,13736,-19306,13462,-3800,428,-21,300,167,1203,-1666,4300,40,34,895,1894,2004,2175,2439,2067,1853,1943,2035
504927,-15564,13764,-19241,13527,-3800,623,7,251,131,1296,-1555,3572,47,47,894,1894,2004,2175,2439,2067,1853,1943,2035
505928,-15484,13796,-19176,13592,-3800,613,50,208,103,1185,-1505,3520,46,46,894,1894,2004,2175,2439,2067,1853,1943,2035
506929,-15452,13828,-19111,13657,-3800,653,62,163,75,796,-1403,3702,42,38,893,1894,2004,2175,2439,2067,1853,1943,2035
507930,-15384,13844,-19046,13722,-3800,913,65,140,71,943,-1432,3640,37,45,894,1894,2004,2175,2439,2067,1853,1943,2035
508931,-15328,13896,-18981,13787,-3800,478,89,112,64,1621,-1398,3843,41,55,893,1894,2004,2175,2439,2067,1853,1943,2035
509932,-15280,13988,-18916,13852,-3800,-55,163,122,66,1462,-1673,3806,35,49,892,1954,2067,2220,2464,2072,1843,1942,2026
510933,-15244,14072,-18851,13917,-3800,22,252,174,79,1053,-1460,3997,40,59,894,1954,2067,2220,2464,2072,1843,1942,2026
511934,-15188,14160,-18786,13982,-3800,-56,324,192,75,950,-1294,4004,40,50,896,1954,2067,2220,2464,2072,1843,1942,2026
512935,-15148,14256,-18721,14047,-3800,-194,374,132,55,512,-1338,3939,24,51,896,1954,2067,2220,2464,2072,1843,1942,2026
513936,-15112,14348,-18656,14112,-3800,-177,403,9,35,50,-1170,4227,26,52,895,1954,2067,2220,2464,2072,1843,1942,2026
514937,-15084,14420,-18591,14177,-3686,65,474,-231,8,671,-1167,3446,33,45,895,1884,1983,2131,2349,2000,1773,1851,1934
515938,-15052,14496,-18526,14242,-3696,1,609,-394,-23,134,-1876,3852,32,38,896,1884,1983,2131,2349,2000,1773,1851,1934
516939,-15016,14568,-18461,14307,-3713,43,713,-414,-71,286,-1415,4285,17,52,896,1884,1983,2131,2349,2000,1773,1851,1934
517940,-14980,14632,-18396,14372,-3678,144,795,-411,-119,1057,-1195,3933,31,34,896,1884,1983,2131,2349,2000,1773,1851,1934
518941,-14960,14712,-18331,14437,-3424,-74,811,-385,-163,784,-1252,3838,26,34,896,1884,1983,2131,2349,2000,1773,1851,1934
519942,-14928,14768,-18266,14502,-3536,236,780,-340,-204,719,-1099,4085,28,39,896,1884,1983,2131,2349,2000,1773,1851,1934
520943,-14904,14836,-18201,14567,-3387,82,753,-282,-270,1050,-967,4212,7,30,896,1820,1906,2075,2295,1933,1716,1783,1885
521944,-14896,14880,-18136,14632,-3119,408,742,-257,-324,981,-933,3637,25,30,895,1820,1906,2075,2295,1933,1716,1783,1885
522945,-14856,14952,-18071,14697,-3489,49,698,-262,-348,234,-801,3068,15,39,896,1820,1906,2075,2295,1933,1716,1783,1885
523946,-14844,15000,-18006,14762,-3076,370,631,-254,-337,-168,-689,2660,11,41,895,1820,1906,2075,2295,1933,1716,1783,1885
524947,-14836,15068,-17941,14827,-2958,116,585,-280,-283,-117,-814,2385,23,40,896,1820,1906,2075,2295,1933,1716,1783,1885
525948,-14816,15128,-17876,14892,-3054,222,584,-323,-248,-341,-770,2676,6,29,887,1834,1912,2101,2312,1995,1792,1856,1963
526949,-14812,15172,-17811,14957,-2780,448,635,-304,-219,-511,-1086,3078,16,30,896,1834,1912,2101,2312,1995,1792,1856,1963
527950,-14792,15236,-17746,15022,-2926,199,707,-256,-187,130,-1192,3169,14,26,896,1834,1912,2101,2312,1995,1792,1856,1963
528951,-14788,15312,-17681,15087,-2653,36,805,-134,-153,212,-1097,3794,19,36,894,1834,1912,2101,2312,1995,1792,1856,1963
529952,-14780,15356,-17616,15152,-2635,460,883,-36,-123,199,-923,3444,15,35,890,1834,1912,2101,2312,1995,1792,1856,1963
530953,-14760,15436,-17551,15217,-2731,-8,957,13,-112,-186,-761,3390,10,27,895,1834,1912,2101,2312,1995,1792,1856,1963
531954,-14756,15492,-17486,15282,-2458,303,1009,39,-108,-390,-588,3232,-1,30,894,1775,1860,2078,2275,2106,1883,1910,2013
532955,-14748,15544,-17421,15347,-2439,369,1056,55,-104,-470,-322,3100,4,38,896,1775,1860,2078,2275,2106,1883,1910,2013
533956,-14744,15600,-17356,15412,-2316,330,1084,50,-100,-368,-155,3141,9,32,892,1775,1860,2078,2275,2106,1883,1910,2013
534957,-14748,15660,-17291,15477,-2133,286,1112,45,-99,-284,-1,3171,-1,40,895,1775,1860,2078,2275,2106,1883,1910,2013
535958,-14740,15720,-17226,15542,-2214,292,1117,70,-100,-154,180,3312,5,24,895,1775,1860,2078,2275,2106,1883,1910,2013
536959,-14736,15780,-17161,15607,-2091,298,1118,133,-114,7,166,3392,-1,25,895,1769,1848,2068,2284,2068,1843,1874,1956
537960,-14736,15820,-17096,15672,-1962,579,1109,211,-138,230,261,3614,5,36,894,1769,1848,2068,2284,2068,1843,1874,1956
538961,-14732,15876,-17031,15737,-1939,390,1093,317,-154,311,249,3735,9,25,895,1769,1848,2068,2284,2068,1843,1874,1956
539962,-14732,15932,-16966,15802,-1810,401,1066,404,-162,454,242,3755,6,36,894,1769,1848,2068,2284,2068,1843,1874,1956
540963,-14736,16004,-16901,15867,-1676,192,1047,473,-163,276,58,4044,-1,29,895,1769,1848,2068,2284,2068,1843,1874,1956
541964,-14740,16064,-16836,15932,-1593,348,1028,557,-177,331,81,3891,11,40,894,1769,1848,2068,2284,2068,1843,1874,1956
542965,-14728,16116,-16771,15997,-1729,464,995,598,-170,218,2,3702,14,40,896,1793,1867,2078,2291,1997,1786,1826,1914
543966,-14724,16184,-16706,16062,-1556,260,963,582,-150,-181,-58,3705,6,35,895,1793,1867,2078,2291,1997,1786,1826,1914
544967,-14736,16228,-16641,16127,-1262,585,950,558,-129,-410,-98,3874,11,36,895,1793,1867,2078,2291,1997,1786,1826,1914
545968,-14736,16280,-16576,16192,-1334,501,960,527,-107,-254,-264,4047,9,27,895,1793,1867,2078,2291,1997,1786,1826,1914
546969,-14724,16340,-16511,16257,-1420,407,995,509,-104,79,-300,4268,15,31,892,1793,1867,2078,2291,1997,1786,1826,1914
547970,-14724,16424,-16446,16322,-1192,84,1034,475,-109,191,-225,4238,15,31,893,1806,1895,2121,2308,2036,1830,1868,2000
548971,-14712,16488,-16381,16387,-1277,335,1039,421,-113,135,-42,3845,-4,30,895,1806,1895,2121,2308,2036,1830,1868,2000
549972,-14708,16576,-16316,16452,-1103,7,1003,334,-123,-69,257,3415,2,44,896,1806,1895,2121,2308,2036,1830,1868,2000
550973,-14704,16636,-16251,16517,-1029,363,953,232,-115,-210,548,3210,4,44,895,1806,1895,2121,2308,2036,1830,1868,2000
551974,-14716,16708,-16186,16582,-736,205,914,151,-100,-121,605,3232,2,34,897,1806,1895,2121,2308,2036,1830,1868,2000
552975,-14708,16768,-16121,16647,-917,361,897,117,-89,315,711,3603,6,29,895,1806,1895,2121,2308,2036,1830,1868,2000
553976,-14696,16840,-16056,16712,-903,202,893,140,-89,763,752,3999,10,38,895,1834,1942,2167,2329,2152,1905,1954,2114
554977,-14704,16896,-15991,16777,-565,413,902,196,-97,1058,789,4250,-4,27,895,1834,1942,2167,2329,2152,1905,1954,2114
555978,-14700,16976,-15926,16842,-640,95,906,279,-109,1070,966,4575,-2,29,895,1834,1942,2167,2329,2152,1905,1954,2114
556979,-14712,17024,-15861,16907,-347,516,920,333,-124,1060,1121,4535,2,27,895,1834,1942,2167,2329,2152,1905,1954,2114
557980,-14704,17100,-15796,16972,-528,152,930,348,-145,793,1233,4710,-3,43,896,1834,1942,2167,2329,2152,1905,1954,2114
558981,-14708,17168,-15731,17037,-294,249,937,296,-164,539,1394,4499,-2,30,894,1817,1936,2140,2282,2209,1935,1975,2127
559982,-14696,17216,-15666,17102,-430,519,912,248,-208,254,1278,4526,-2,34,896,1817,1936,2140,2282,2209,1935,1975,2127
560983,-14700,17300,-15601,17167,-145,46,869,170,-277,331,1266,4549,12,43,895,1817,1936,2140,2282,2209,1935,1975,2127
561984,-14704,17356,-15536,17232,-62,407,834,69,-312,-67,1386,4627,-3,43,894,1817,1936,2140,2282,2209,1935,1975,2127
562985,-14704,17424,-15471,17297,-33,253,805,-58,-330,-73,1330,4535,14,29,893,1817,1936,2140,2282,2209,1935,1975,2127
563986,-14704,17492,-15406,17362,47,250,770,-176,-355,-366,1263,4647,-3,33,894,1817,1936,2140,2282,2209,1935,1975,2127
564987,-14704,17580,-15341,17427,126,-29,739,-260,-394,-212,1190,5148,10,26,895,1775,1902,2130,2286,2196,1930,1948,2094
565988,-14704,17624,-15276,17492,204,546,734,-276,-427,76,1023,5380,0,43,895,1775,1902,2130,2286,2196,1930,1948,2094
566989,-14700,17692,-15211,17557,229,243,695,-278,-443,413,1084,4891,12,37,896,1775,1902,2130,2286,2196,1930,1948,2094
567990,-14700,17752,-15146,17622,358,349,630,-296,-440,264,1086,4779,9,28,894,1775,1902,2130,2286,2196,1930,1948,2094
568991,-14692,17824,-15081,17687,328,190,579,-243,-421,76,982,4950,15,45,895,1775,1902,2130,2286,2196,1930,1948,2094
569992,-14680,17888,-15016,17752,342,291,568,-98,-408,789,588,4740,10,42,893,1800,1918,2172,2328,2191,1942,1950,2104
570993,-14688,17952,-14951,17817,680,293,580,47,-389,1536,143,4343,22,30,895,1800,1918,2172,2328,2191,1942,1950,2104
571994,-14676,18016,-14886,17882,495,294,600,154,-376,1841,301,4349,9,33,894,1800,1918,2172,2328,2191,1942,1950,2104
572995,-14656,18076,-14821,17947,450,350,621,191,-353,948,601,4284,18,35,892,1800,1918,2172,2328,2191,1942,1950,2104
573996,-14648,18156,-14756,18012,670,82,619,199,-374,102,1114,4101,12,46,893,1800,1918,2172,2328,2191,1942,1950,2104
574997,-14608,18208,-14691,18077,300,448,568,199,-408,21,1270,3980,16,36,893,1800,1918,2172,2328,2191,1942,1950,2104
575998,-14568,18280,-14626,18142,331,189,491,134,-431,53,1524,3363,35,35,892,1836,1940,2200,2379,2173,1930,1933,2041
576999,-14524,18348,-14561,18207,306,235,417,0,-448,-59,1761,3689,33,41,894,1836,1940,2200,2379,2173,1930,1933,2041
578000,-14488,18420,-14496,18272,442,177,359,-103,-475,-382,1690,3843,19,40,894,1836,1940,2200,2379,2173,1930,1933,2041
579001,-14440,18472,-14431,18337,312,443,321,-168,-510,-188,1709,3787,32,42,894,1836,1940,2200,2379,2173,1930,1933,2041
580002,-14400,18544,-14366,18402,443,184,286,-167,-550,405,1778,4227,20,30,894,1836,1940,2200,2379,2173,1930,1933,2041
581003,-14344,18600,-14301,18467,254,395,265,-145,-572,536,1574,4177,35,43,892,1819,1905,2135,2319,2121,1878,1896,2012
582004,-14300,18676,-14236,18532,430,132,246,-64,-590,652,1487,4492,32,41,893,1819,1905,2135,2319,2121,1878,1896,2012
583005,-14252,18732,-14171,18597,400,392,244,24,-602,793,1371,4213,36,43,894,1819,1905,2135,2319,2121,1878,1896,2012
584006,-14192,18792,-14106,18662,256,348,252,97,-614,862,1120,4121,25,45,894,1819,1905,2135,2319,2121,1878,1896,2012
585007,-14148,18840,-14041,18727,482,519,262,183,-628,911,1140,4133,44,39,893,1819,1905,2135,2319,2121,1878,1896,2012
586008,-14108,18928,-13976,18792,563,-10,264,248,-611,908,974,3946,43,42,894,1819,1905,2135,2319,2121,1878,1896,2012
587009,-14040,18980,-13911,18857,209,456,285,291,-589,532,774,3743,26,39,892,1753,1852,2074,2222,2113,1858,1881,2021
588010,-13992,19044,-13846,18922,480,308,298,313,-572,365,745,3599,38,32,893,1753,1852,2074,2222,2113,1858,1881,2021
589011,-13928,19112,-13781,18987,281,254,313,323,-549,183,648,3564,43,43,894,1753,1852,2074,2222,2113,1858,1881,2021
590012,-13856,19164,-13716,19052,172,470,337,337,-522,94,301,3281,29,34,893,1753,1852,2074,2222,2113,1858,1881,2021
591013,-13796,19224,-13651,19117,329,376,356,291,-503,567,411,3163,42,43,895,1753,1852,2074,2222,2113,1858,1881,2021
592014,-13736,19280,-13586,19182,335,437,362,221,-472,314,388,3121,30,46,894,1737,1848,2080,2229,2097,1847,1867,1993
593015,-13676,19348,-13521,19247,342,283,349,152,-441,-142,571,2964,47,38,893,1737,1848,2080,2229,2097,1847,1867,1993
594016,-13612,19420,-13456,19312,293,225,324,124,-424,-210,819,3162,46,32,894,1737,1848,2080,2229,2097,1847,1867,1993
595017,-13548,19492,-13391,19377,294,216,277,133,-415,213,782,3018,44,42,894,1737,1848,2080,2229,2097,1847,1867,1993
596018,-13500,19548,-13326,19442,515,427,218,128,-409,581,1011,2932,38,35,895,1737,1848,2080,2229,2097,1847,1867,1993
597019,-13416,19620,-13261,19507,42,219,155,95,-398,177,1064,2895,35,33,895,1737,1848,2080,2229,2097,1847,1867,1993
598020,-13356,19676,-13196,19572,348,430,80,67,-387,-37,1033,2840,45,41,891,1782,1885,2101,2277,2063,1821,1859,1973
599021,-13288,19756,-13131,19637,244,111,17,45,-393,427,1250,3066,48,32,895,1782,1885,2101,2277,2063,1821,1859,1973
600022,-13244,19816,-13066,19702,570,367,-32,32,-385,545,1017,3017,31,28,894,1782,1885,2101,2277,2063,1821,1859,1973
601023,-13176,19876,-13001,19767,266,373,-64,35,-369,478,808,3196,32,41,895,1782,1885,2101,2277,2063,1821,1859,1973
602024,-13112,19936,-12936,19832,317,380,-80,52,-372,620,936,3270,47,41,893,1782,1885,2101,2277,2063,1821,1859,1973
603025,-13052,20000,-12871,19897,373,331,-82,45,-352,503,602,3257,41,36,894,1784,1872,2080,2246,2096,1851,1882,2016
604026,-13000,20060,-12806,19962,489,387,-64,33,-330,470,521,3370,33,36,894,1784,1872,2080,2246,2096,1851,1882,2016
605027,-12928,20116,-12741,20027,231,447,-44,35,-301,427,557,3525,44,31,894,1784,1872,2080,2246,2096,1851,1882,2016
606028,-12864,20188,-12676,20092,332,238,-3,21,-278,240,306,3530,33,28,893,1784,1872,2080,2246,2096,1851,1882,2016
607029,-12788,20248,-12611,20157,169,394,30,5,-244,329,238,3540,35,30,894,1784,1872,2080,2246,2096,1851,1882,2016
608030,-12744,20308,-12546,20222,594,401,69,-33,-218,461,291,3651,48,39,894,1784,1872,2080,2246,2096,1851,1882,2016
609031,-12668,20360,-12481,20287,182,516,95,-80,-165,21,107,3416,31,44,894,1733,1833,2057,2208,2134,1878,1895,2030
610032,-12600,20412,-12416,20352,278,532,114,-100,-135,86,360,3699,48,45,892,1733,1833,2057,2208,2134,1878,1895,2030
611033,-12548,20480,-12351,20417,494,329,102,-98,-100,191,415,3647,44,29,894,1733,1833,2057,2208,2134,1878,1895,2030
612034,-12488,20552,-12286,20482,400,270,86,-86,-68,206,486,3681,44,44,893,1733,1833,2057,2208,2134,1878,1895,2030
613035,-12408,20616,-12221,20547,132,371,48,-52,-43,257,601,3750,34,34,893,1733,1833,2057,2208,2134,1878,1895,2030
614036,-12356,20672,-12156,20612,498,482,11,-17,-9,182,489,3724,43,28,894,1759,1868,2092,2264,2108,1854,1888,2008
615037,-12296,20740,-12091,20677,404,329,-44,6,16,238,606,3769,46,30,894,1759,1868,2092,2264,2108,1854,1888,2008
616038,-12240,20796,-12026,20742,465,490,-93,15,32,241,709,3702,30,37,891,1759,1868,2092,2264,2108,1854,1888,2008
617039,-12172,20848,-11961,20807,311,555,-149,20,45,110,639,3886,31,34,893,1759,1868,2092,2264,2108,1854,1888,2008
618040,-12112,20944,-11896,20872,417,-32,-185,30,54,50,642,3868,42,29,893,1759,1868,2092,2264,2108,1854,1888,2008
619041,-12052,21000,-11831,20937,423,479,-226,35,63,210,537,3820,46,46,893,1759,1868,2092,2264,2108,1854,1888,2008
620042,-12008,21072,-11766,21002,649,270,-245,28,72,329,559,3818,27,36,895,1816,1916,2131,2322,2106,1867,1901,2017
621043,-11948,21136,-11701,21067,455,371,-249,28,82,131,499,4016,41,32,893,1816,1916,2131,2322,2106,1867,1901,2017
622044,-11908,21216,-11636,21132,737,153,-246,34,93,89,337,4066,47,34,892,1816,1916,2131,2322,2106,1867,1901,2017
623045,-11828,21252,-11571,21197,218,738,-219,43,102,245,241,4200,33,33,893,1816,1916,2131,2322,2106,1867,1901,2017
624046,-11772,21324,-11506,21262,529,280,-179,71,109,434,214,4494,32,27,892,1816,1916,2131,2322,2106,1867,1901,2017
625047,-11720,21376,-11441,21327,595,546,-131,98,122,508,129,4479,31,29,892,1821,1911,2146,2331,2150,1909,1927,2046
626048,-11652,21448,-11376,21392,391,287,-76,129,130,415,115,4497,39,44,893,1821,1911,2146,2331,2150,1909,1927,2046
627049,-11600,21500,-11311,21457,607,553,-36,163,140,377,115,4506,33,31,891,1821,1911,2146,2331,2150,1909,1927,2046
628050,-11568,21580,-11246,21522,898,185,0,198,150,401,197,4560,30,41,894,1821,1911,2146,2331,2150,1909,1927,2046
629051,-11488,21644,-11181,21587,279,386,21,228,168,369,301,4442,38,44,891,1821,1911,2146,2331,2150,1909,1927,2046
630058,-11436,21692,-11116,21652,645,607,27,241,187,276,371,4427,48,40,891,1821,1911,2146,2331,2150,1909,1927,2046
631053,-11384,21760,-11051,21717,662,353,12,245,194,244,459,4400,35,27,894,1835,1929,2164,2367,2127,1891,1916,2015
632054,-11320,21808,-10986,21782,513,624,-5,232,203,116,513,4307,30,29,889,1835,1929,2164,2367,2127,1891,1916,2015
633055,-11268,21880,-10921,21847,679,315,-37,212,214,25,477,4164,49,29,890,1835,1929,2164,2367,2127,1891,1916,2015
634056,-11196,21940,-10856,21912,421,471,-54,205,209,105,506,4336,46,30,891,1835,1929,2164,2367,2127,1891,1916,2015
635057,-11128,21992,-10791,21977,467,587,-85,198,209,127,505,4284,32,38,892,1835,1929,2164,2367,2127,1891,1916,2015
636058,-11076,22048,-10726,22042,683,548,-95,206,205,132,472,4358,44,32,893,1870,1961,2176,2387,2087,1856,1899,2002
637059,-11000,22104,-10661,22107,369,559,-112,206,207,35,414,4332,45,37,892,1870,1961,2176,2387,2087,1856,1899,2002
638060,-10940,22168,-10596,22172,575,460,-105,214,194,98,231,4309,38,42,891,1870,1961,2176,2387,2087,1856,1899,2002
639061,-10892,22204,-10531,22237,747,846,-93,210,189,189,163,4439,28,29,892,1870,1961,2176,2387,2087,1856,1899,2002
640062,-10816,22272,-10466,22302,384,442,-67,228,169,251,145,4452,37,44,891,1870,1961,2176,2387,2087,1856,1899,2002
641063,-10760,22340,-10401,22367,645,438,-39,234,143,192,-6,4417,40,39,888,1870,1961,2176,2387,2087,1856,1899,2002
642064,-10692,22432,-10336,22432,491,106,-5,254,119,355,-108,4451,29,31,893,1850,1947,2154,2337,2101,1861,1904,2026
643065,-10636,22488,-10271,22497,652,566,39,265,119,379,-142,4326,44,29,892,1850,1947,2154,2337,2101,1861,1904,2026
644066,-10568,22544,-10206,22562,498,577,85,269,109,209,-109,4304,45,37,894,1850,1947,2154,2337,2101,1861,1904,2026
645067,-10532,22620,-10141,22627,934,314,120,249,90,64,-40,4257,44,30,891,1850,1947,2154,2337,2101,1861,1904,2026
646068,-10464,22688,-10076,22692,530,410,153,243,73,41,44,4242,33,41,891,1850,1947,2154,2337,2101,1861,1904,2026
647069,-10404,22736,-10011,22757,637,681,176,202,59,125,130,4013,37,30,890,1819,1926,2135,2315,2107,1865,1906,2019
648070,-10328,22800,-9946,22822,424,482,190,157,39,134,211,4049,41,32,892,1819,1926,2135,2315,2107,1865,1906,2019
649071,-10268,22880,-9881,22887,630,264,192,98,21,37,292,3946,40,29,889,1819,1926,2135,2315,2107,1865,1906,2019
650072,-10224,22932,-9816,22952,856,630,180,47,12,17,241,3706,28,35,891,1819,1926,2135,2315,2107,1865,1906,2019
651073,-10172,22976,-9751,23017,771,756,157,0,0,192,312,3708,45,34,892,1819,1926,2135,2315,2107,1865,1906,2019
652074,-10112,23048,-9686,23082,678,397,121,-37,-15,285,391,3721,39,34,889,1838,1940,2143,2342,2084,1850,1900,2006
653075,-10052,23116,-9621,23147,685,443,88,-60,-30,319,390,3760,49,40,889,1838,1940,2143,2342,2084,1850,1900,2006
654076,-9992,23172,-9556,23212,691,604,63,-67,-39,384,350,3881,44,40,891,1838,1940,2143,2342,2084,1850,1900,2006
655077,-9940,23216,-9491,23277,807,780,45,-86,-45,352,241,3856,47,36,891,1838,1940,2143,2342,2084,1850,1900,2006
656078,-9884,23308,-9426,23342,768,147,48,-83,-51,331,171,4036,45,42,890,1838,1940,2143,2342,2084,1850,1900,2006
657079,-9820,23344,-9361,23407,669,882,57,-77,-60,430,83,4079,35,42,888,1838,1940,2143,2342,2084,1850,1900,2006
658080,-9768,23416,-9296,23472,835,424,84,-60,-73,424,-60,4059,35,27,892,1825,1922,2122,2304,2093,1857,1896,2016
659081,-9692,23480,-9231,23537,522,525,110,-46,-87,387,-87,4212,31,44,888,1825,1922,2122,2304,2093,1857,1896,2016
660082,-9660,23524,-9166,23602,1113,801,146,-34,-96,327,-111,4162,35,43,890,1825,1922,2122,2304,2093,1857,1896,2016
661083,-9596,23584,-9101,23667,714,607,184,-34,-106,125,-159,4118,30,44,891,1825,1922,2122,2304,2093,1857,1896,2016
662084,-9536,23644,-9036,23732,770,613,224,-58,-118,-81,-73,4029,37,40,885,1825,1922,2122,2304,2093,1857,1896,2016
663085,-9472,23712,-8971,23797,721,509,252,-79,-124,-93,-23,4041,32,35,890,1787,1891,2105,2282,2111,1868,1895,2011
664086,-9416,23788,-8906,23862,832,396,274,-87,-142,61,7,3965,32,39,890,1787,1891,2105,2282,2111,1868,1895,2011
665087,-9348,23844,-8841,23927,679,657,276,-104,-155,50,40,3829,48,32,891,1787,1891,2105,2282,2111,1868,1895,2011
666088,-9296,23900,-8776,23992,895,668,276,-116,-168,-75,179,3885,36,41,890,1787,1891,2105,2282,2111,1868,1895,2011
667089,-9236,23952,-8711,24057,801,734,260,-116,-169,-85,319,3746,32,45,889,1787,1891,2105,2282,2111,1868,1895,2011
668090,-9192,24016,-8646,24122,1027,585,247,-127,-175,18,449,3790,33,40,888,1787,1891,2105,2282,2111,1868,1895,2011
669091,-9132,24100,-8581,24187,833,312,217,-116,-185,158,415,3778,42,33,888,1811,1913,2129,2332,2092,1857,1895,1997
670092,-9080,24152,-8516,24252,950,728,193,-80,-195,354,403,3725,31,40,888,1811,1913,2129,2332,2092,1857,1895,1997
671093,-9024,24228,-8451,24317,911,414,160,-42,-183,484,442,3848,33,43,890,1811,1913,2129,2332,2092,1857,1895,1997
672094,-8972,24280,-8386,24382,977,730,142,-6,-178,391,426,3926,50,36,887,1811,1913,2129,2332,2092,1857,1895,1997
673095,-8912,24336,-8321,24447,883,691,124,25,-171,339,353,3948,40,35,889,1811,1913,2129,2332,2092,1857,1895,1997
674096,-8852,24412,-8256,24512,889,428,130,53,-160,442,395,4091,44,41,887,1835,1925,2137,2337,2086,1860,1893,1998
675097,-8800,24464,-8191,24577,1006,743,146,71,-141,376,203,4079,43,44,888,1835,1925,2137,2337,2086,1860,1893,1998
676098,-8732,24540,-8126,24642,802,430,171,74,-136,474,133,4122,43,31,890,1835,1925,2137,2337,2086,1860,1893,1998
677099,-8704,24628,-8061,24707,1347,252,199,85,-124,365,155,4255,31,46,887,1835,1925,2137,2337,2086,1860,1893,1998
678102,-8648,24664,-7996,24772,1008,937,233,73,-111,353,35,4094,47,35,890,1835,1925,2137,2337,2086,1860,1893,1998
679101,-8576,24728,-7931,24837,801,589,266,76,-112,409,20,4175,35,37,886,1835,1925,2137,2337,2086,1860,1893,1998
680102,-8532,24784,-7866,24902,1176,701,303,65,-109,287,136,4209,47,37,885,1810,1900,2128,2313,2106,1872,1894,2006
681103,-8472,24848,-7801,24967,983,602,333,61,-105,136,118,4096,43,39,889,1810,1900,2128,2313,2106,1872,1894,2006
682104,-8408,24900,-7736,25032,934,768,355,66,-106,325,84,4024,43,35,885,1810,1900,2128,2313,2106,1872,1894,2006
683105,-8340,24964,-7671,25097,881,619,367,90,-103,614,253,4114,46,43,887,1810,1900,2128,2313,2106,1872,1894,2006
684106,-8272,25032,-7606,25162,877,565,374,105,-95,477,312,3952,51,39,886,1810,1900,2128,2313,2106,1872,1894,2006
685107,-8220,25092,-7541,25227,1093,671,377,122,-83,240,357,3848,51,30,889,1813,1912,2133,2325,2091,1854,1888,1996
686108,-8160,25144,-7476,25292,999,787,373,133,-76,305,511,3984,50,42,889,1813,1912,2133,2325,2091,1854,1888,1996
687109,-8096,25204,-7411,25357,952,693,365,141,-73,306,646,4001,40,39,886,1813,1912,2133,2325,2091,1854,1888,1996
688110,-8032,25244,-7346,25422,953,974,351,145,-65,365,673,3758,32,47,886,1813,1912,2133,2325,2091,1854,1888,1996
689111,-7988,25312,-7281,25487,1229,620,332,137,-44,368,631,3645,45,45,887,1813,1912,2133,2325,2091,1854,1888,1996
690112,-7928,25388,-7216,25552,1035,507,314,125,-28,372,485,3710,43,44,886,1813,1912,2133,2325,2091,1854,1888,1996
691113,-7876,25448,-7151,25617,1152,713,299,133,-16,368,534,3886,35,33,885,1839,1939,2147,2341,2081,1846,1889,1998
692114,-7820,25496,-7086,25682,1112,884,312,136,-2,447,473,3758,34,39,888,1839,1939,2147,2341,2081,1846,1889,1998
693115,-7764,25584,-7021,25747,1123,355,320,129,10,368,498,4022,43,37,886,1839,1939,2147,2341,2081,1846,1889,1998
694116,-7700,25660,-6956,25812,1026,492,348,140,21,315,413,4009,40,46,885,1839,1939,2147,2341,2081,1846,1889,1998
695117,-7644,25720,-6891,25877,1137,698,368,151,28,595,326,3960,45,46,888,1839,1939,2147,2341,2081,1846,1889,1998
696118,-7588,25788,-6826,25942,1148,594,407,146,45,500,351,3960,32,42,888,1827,1925,2138,2317,2097,1859,1889,2006
697119,-7536,25840,-6761,26007,1214,810,440,126,66,343,279,3990,49,46,886,1827,1925,2138,2317,2097,1859,1889,2006
698120,-7468,25896,-6696,26072,1011,772,475,120,77,320,223,3994,48,46,886,1827,1925,2138,2317,2097,1859,1889,2006
699121,-7412,25972,-6631,26137,1172,509,507,113,83,508,342,4102,37,44,884,1827,1925,2138,2317,2097,1859,1889,2006
700122,-7360,26040,-6432,26336,1401,769,536,111,92,557,215,4039,34,45,885,1827,1925,2138,2317,2097,1859,1889,2006
701123,-7308,26112,-6367,26401,1418,710,558,109,91,520,322,4001,35,53,885,1827,1925,2138,2317,2097,1859,1889,2006
702124,-7252,26172,-6302,26466,1379,866,565,98,99,544,440,3836,54,40,883,1809,1906,2130,2310,2087,1852,1879,1988
703125,-7184,26236,-6237,26531,1226,818,549,70,111,524,589,3905,53,40,884,1809,1906,2130,2310,2087,1852,1879,1988
704126,-7124,26312,-6172,26596,1333,654,534,51,116,461,699,3753,57,43,882,1809,1906,2130,2310,2087,1852,1879,1988
705127,-7068,26384,-6107,26661,1394,696,524,28,130,283,701,3883,42,55,884,1809,1906,2130,2310,2087,1852,1879,1988
706128,-6980,26468,-6042,26726,966,522,503,20,149,303,618,3987,60,43,885,1809,1906,2130,2310,2087,1852,1879,1988
707129,-6932,26544,-5977,26791,1487,609,506,48,154,705,800,4041,60,45,883,1824,1920,2140,2332,2081,1854,1887,1996
708130,-6848,26612,-5912,26856,1014,705,502,63,165,745,732,3943,47,53,888,1824,1920,2140,2332,2081,1854,1887,1996
709131,-6772,26692,-5847,26921,1102,538,511,69,178,487,702,3965,59,45,884,1824,1920,2140,2332,2081,1854,1887,1996
710132,-6712,26760,-5782,26986,1308,684,518,71,200,255,587,3936,43,46,887,1824,1920,2140,2332,2081,1854,1887,1996
711133,-6632,26832,-5717,27051,1039,626,537,74,213,376,579,3963,41,47,887,1824,1920,2140,2332,2081,1854,1887,1996
712134,-6576,26920,-5652,27116,1351,398,561,88,213,490,643,4057,44,51,884,1824,1920,2140,2332,2081,1854,1887,1996
713135,-6516,26976,-5587,27181,1308,809,595,87,228,329,443,3975,35,42,887,1826,1925,2146,2332,2110,1875,1901,2014
714136,-6448,27044,-5522,27246,1204,655,629,86,229,350,607,4131,41,53,886,1826,1925,2146,2332,2110,1875,1901,2014
715137,-6396,27128,-5457,27311,1421,432,651,70,250,105,383,4120,49,40,883,1826,1925,2146,2332,2110,1875,1901,2014
716138,-6340,27208,-5392,27376,1382,464,679,81,255,462,522,4094,35,48,886,1826,1925,2146,2332,2110,1875,1901,2014
717139,-6268,27280,-5327,27441,1173,555,710,101,260,539,451,4007,38,46,884,1826,1925,2146,2332,2110,1875,1901,2014
718140,-6228,27340,-5262,27506,1605,711,734,98,268,447,563,4145,53,37,885,1829,1931,2160,2345,2107,1870,1895,2001
719141,-6152,27424,-5197,27571,1141,388,748,109,268,338,722,4099,43,38,886,1829,1931,2160,2345,2107,1870,1895,2001
720142,-6096,27476,-5132,27636,1402,804,751,110,280,392,765,4047,46,35,881,1829,1931,2160,2345,2107,1870,1895,2001
721143,-6036,27524,-5067,27701,1359,875,741,121,294,455,802,4118,43,45,887,1829,1931,2160,2345,2107,1870,1895,2001
722144,-5988,27572,-5002,27766,1530,895,728,137,301,568,839,4068,46,43,882,1829,1931,2160,2345,2107,1870,1895,2001
723145,-5920,27648,-4937,27831,1277,533,708,140,301,563,871,4124,52,34,882,1829,1931,2160,2345,2107,1870,1895,2001
724146,-5868,27700,-4872,27896,1493,849,701,147,298,476,842,4056,50,39,880,1846,1941,2166,2360,2081,1853,1881,1984
725147,-5812,27760,-4807,27961,1454,755,690,172,289,642,846,4263,49,42,885,1846,1941,2166,2360,2081,1853,1881,1984
726148,-5744,27824,-4742,28026,1302,706,686,177,296,572,643,3888,51,47,881,1846,1941,2166,2360,2081,1853,1881,1984
727149,-5704,27892,-4677,28091,1682,652,687,176,303,461,867,4251,36,43,882,1846,1941,2166,2360,2081,1853,1881,1984
728151,-5636,27940,-4612,28156,1329,923,687,206,298,554,792,4215,53,38,884,1846,1941,2166,2360,2081,1853,1881,1984
729151,-5564,28016,-4547,28221,1271,560,700,219,297,582,712,3968,53,46,881,1835,1926,2155,2341,2098,1871,1892,2002
730152,-5516,28072,-4482,28286,1592,821,718,217,286,476,773,4074,47,36,882,1835,1926,2155,2341,2098,1871,1892,2002
731153,-5440,28128,-4417,28351,1229,832,737,233,277,520,742,4183,39,41,885,1835,1926,2155,2341,2098,1871,1892,2002
732154,-5380,28212,-4352,28416,1435,459,763,237,279,497,628,4019,36,37,880,1835,1926,2155,2341,2098,1871,1892,2002
733155,-5328,28260,-4287,28481,1551,929,786,247,271,464,741,4033,35,52,884,1835,1926,2155,2341,2098,1871,1892,2002
734156,-5272,28324,-4222,28546,1513,730,798,234,262,406,665,3945,45,52,884,1835,1926,2155,2341,2098,1871,1892,2002
735157,-5216,28404,-4157,28611,1524,512,800,215,270,236,720,3775,45,51,879,1811,1910,2146,2327,2125,1890,1906,2015
736158,-5152,28480,-4092,28676,1426,550,802,190,265,213,865,3805,52,49,882,1811,1910,2146,2327,2125,1890,1906,2015
737159,-5084,28560,-4027,28741,1373,481,801,191,270,198,701,3900,49,43,883,1811,1910,2146,2327,2125,1890,1906,2015
738160,-5036,28624,-3962,28806,1644,683,807,208,275,285,724,3885,51,50,884,1811,1910,2146,2327,2125,1890,1906,2015
739161,-4988,28704,-3897,28871,1665,464,796,217,281,510,898,3970,32,53,885,1811,1910,2146,2327,2125,1890,1906,2015
740162,-4928,28760,-3832,28936,1521,775,788,237,291,581,866,3867,52,52,881,1810,1915,2144,2322,2115,1876,1898,2008
741163,-4872,28844,-3767,29001,1583,402,781,250,303,345,950,3941,55,40,882,1810,1915,2144,2322,2115,1876,1898,2008
742164,-4820,28928,-3702,29066,1649,379,784,307,288,421,1048,4337,52,39,882,1810,1915,2144,2322,2115,1876,1898,2008
743165,-4728,28976,-3637,29131,1116,850,771,358,291,704,763,4250,50,43,884,1810,1915,2144,2322,2115,1876,1898,2008
744166,-4676,29052,-3572,29196,1633,486,774,412,283,691,772,4150,53,39,883,1810,1915,2144,2322,2115,1876,1898,2008
745167,-4608,29116,-3507,29261,1429,638,768,440,263,703,832,4432,47,39,885,1810,1915,2144,2322,2115,1876,1898,2008
746168,-4552,29180,-3442,29326,1591,639,760,444,242,779,679,4219,55,52,882,1807,1912,2136,2316,2103,1868,1890,1996
747169,-4504,29244,-3377,29391,1712,640,738,419,233,612,678,4053,47,46,883,1807,1912,2136,2316,2103,1868,1890,1996
748170,-4440,29312,-3312,29456,1514,586,727,382,192,305,920,3945,37,49,882,1807,1912,2136,2316,2103,1868,1890,1996
749171,-4384,29376,-3247,29521,1625,638,694,331,186,-54,792,3812,55,52,880,1807,1912,2136,2316,2103,1868,1890,1996
750172,-4308,29440,-3182,29586,1362,639,665,299,177,173,909,3657,41,52,883,1807,1912,2136,2316,2103,1868,1890,1996
751173,-4252,29508,-3117,29651,1624,585,640,287,144,520,935,3772,53,55,881,1814,1916,2152,2337,2128,1896,1908,2020
752174,-4176,29560,-3052,29716,1361,801,614,296,119,511,729,3701,44,54,883,1814,1916,2152,2337,2128,1896,1908,2020
753176,-4112,29640,-2987,29781,1513,434,587,292,97,395,800,3667,46,49,883,1814,1916,2152,2337,2128,1896,1908,2020
754176,-4052,29712,-2922,29846,1569,525,565,311,82,239,565,3745,41,53,884,1814,1916,2152,2337,2128,1896,1908,2020
755177,-3988,29764,-2857,29911,1521,791,544,336,76,729,694,3950,50,49,883,1814,1916,2152,2337,2128,1896,1908,2020
756178,-3920,29856,-2792,29976,1467,258,525,381,86,707,795,3778,49,49,882,1814,1916,2152,2337,2128,1896,1908,2020
757179,-3856,29908,-2727,30041,1519,774,503,424,85,273,894,3848,54,48,885,1804,1907,2144,2312,2156,1915,1923,2043
758180,-3792,29976,-2662,30106,1521,570,489,472,77,33,743,3721,46,52,882,1804,1907,2144,2312,2156,1915,1923,2043
759181,-3720,30060,-2597,30171,1412,347,471,470,103,487,698,4074,55,41,883,1804,1907,2144,2312,2156,1915,1923,2043
760182,-3668,30104,-2532,30236,1679,873,459,411,131,254,821,3494,53,55,885,1804,1907,2144,2312,2156,1915,1923,2043
761183,-3612,30176,-2467,30301,1640,514,437,340,123,-228,888,3673,33,42,879,1804,1907,2144,2312,2156,1915,1923,2043
762184,-3568,30256,-2402,30366,1817,396,424,315,100,-38,929,3655,48,52,882,1763,1871,2107,2270,2162,1915,1917,2034
763185,-3504,30316,-2337,30431,1568,652,408,282,111,207,890,3738,38,51,880,1763,1871,2107,2270,2162,1915,1917,2034
764186,-3444,30384,-2272,30496,1624,548,385,273,101,214,1145,3726,51,38,882,1763,1871,2107,2270,2162,1915,1917,2034
765187,-3392,30444,-2207,30561,1741,654,364,244,82,155,1102,3555,33,42,882,1763,1871,2107,2270,2162,1915,1917,2034
766188,-3340,30504,-2142,30626,1757,660,329,220,64,383,1117,3730,50,46,880,1763,1871,2107,2270,2162,1915,1917,2034
767189,-3288,30552,-2077,30691,1774,831,295,199,41,399,1176,3690,35,42,880,1763,1871,2107,2270,2162,1915,1917,2034
768190,-3212,30616,-2012,30756,1460,632,259,214,4,349,1238,3853,40,42,878,1749,1858,2087,2246,2132,1883,1893,2014
769191,-3152,30688,-1947,30821,1667,524,227,250,-27,490,1304,3795,39,57,883,1749,1858,2087,2246,2132,1883,1893,2014
770192,-3096,30756,-1882,30886,1728,570,187,296,-40,574,1076,3785,36,46,881,1749,1858,2087,2246,2132,1883,1893,2014
771193,-3024,30812,-1817,30951,1521,731,166,329,-50,449,1136,3677,55,41,881,1749,1858,2087,2246,2132,1883,1893,2014
772194,-2984,30876,-1752,31016,1951,632,145,360,-65,343,1166,3787,37,48,881,1749,1858,2087,2246,2132,1883,1893,2014
773195,-2916,30940,-1687,31081,1599,634,123,363,-81,397,1103,3650,55,52,878,1761,1872,2104,2264,2125,1880,1890,2013
774196,-2848,31008,-1622,31146,1595,580,106,326,-94,169,996,3593,43,56,882,1761,1872,2104,2264,2125,1880,1890,2013
775197,-2788,31076,-1557,31211,1701,577,87,298,-121,-8,1023,3696,43,47,882,1761,1872,2104,2264,2125,1880,1890,2013
776198,-2724,31144,-1492,31276,1653,574,60,250,-129,-153,833,3477,42,40,881,1761,1872,2104,2264,2125,1880,1890,2013
777199,-2656,31208,-1427,31341,1600,625,28,222,-137,-86,1042,3655,45,42,881,1761,1872,2104,2264,2125,1880,1890,2013
778200,-2588,31264,-1362,31406,1597,736,11,207,-138,-7,1049,3543,50,52,882,1761,1872,2104,2264,2125,1880,1890,2013
779201,-2516,31352,-1297,31471,1539,308,4,209,-124,5,1041,3719,36,45,881,1788,1898,2145,2315,2134,1899,1902,2016
780202,-2472,31412,-1232,31536,1915,664,-8,211,-121,106,1190,3744,34,54,883,1788,1898,2145,2315,2134,1899,1902,2016
781203,-2412,31480,-1167,31601,1721,560,-29,204,-106,89,1045,3643,33,51,878,1788,1898,2145,2315,2134,1899,1902,2016
782204,-2360,31544,-1102,31666,1838,611,-53,200,-95,72,1087,3751,36,46,880,1788,1898,2145,2315,2134,1899,1902,2016
783205,-2304,31608,-1037,31731,1799,613,-82,202,-82,20,1274,3851,38,39,880,1788,1898,2145,2315,2134,1899,1902,2016
784206,-2240,31676,-972,31796,1701,559,-96,212,-84,229,1291,3728,44,42,880,1809,1915,2159,2337,2134,1900,1906,2015
785207,-2184,31728,-907,31861,1812,775,-111,240,-82,150,1296,3680,39,46,880,1809,1915,2159,2337,2134,1900,1906,2015
786208,-2140,31788,-842,31926,1989,681,-121,281,-100,392,1471,3889,38,43,877,1809,1915,2159,2337,2134,1900,1906,2015
787209,-2092,31852,-777,31991,1960,632,-124,305,-98,278,1440,3978,44,53,877,1809,1915,2159,2337,2134,1900,1906,2015
788210,-2032,31912,-712,32056,1817,688,-134,355,-99,487,1421,4168,33,50,877,1809,1915,2159,2337,2134,1900,1906,2015
789211,-1988,31972,-647,32121,2042,694,-133,414,-132,584,1497,4087,31,45,878,1809,1915,2159,2337,2134,1900,1906,2015
790212,-1940,32032,-582,32186,2014,700,-131,446,-145,390,1306,4264,50,43,876,1806,1901,2141,2320,2125,1889,1895,2000
791213,-1876,32088,-517,32251,1815,761,-130,444,-165,326,1419,4061,47,42,877,1806,1901,2141,2320,2125,1889,1895,2000
792214,-1816,32156,-452,32316,1873,608,-129,455,-199,232,1445,4112,52,53,878,1806,1901,2141,2320,2125,1889,1895,2000
793215,-1760,32224,-387,32381,1934,604,-123,479,-231,298,1500,4370,50,42,879,1806,1901,2141,2320,2125,1889,1895,2000
794216,-1700,32276,-322,32446,1891,820,-120,492,-252,75,1356,4278,51,54,878,1806,1901,2141,2320,2125,1889,1895,2000
795217,-1628,32336,-257,32511,1732,727,-102,507,-254,28,1346,4326,56,47,877,1793,1888,2134,2317,2114,1881,1885,1991
796218,-1560,32412,-192,32576,1779,514,-97,511,-248,70,1346,4293,49,56,879,1793,1888,2134,2317,2114,1881,1885,1991
797219,-1504,32480,-127,32641,1940,610,-89,520,-247,133,1254,4191,46,44,880,1793,1888,2134,2317,2114,1881,1885,1991
798220,-1432,32528,-62,32706,1733,881,-87,560,-229,59,1199,4023,36,56,878,1793,1888,2134,2317,2114,1881,1885,1991
799221,-1368,32604,3,32771,1834,517,-93,603,-210,76,1247,4162,36,51,879,1793,1888,2134,2317,2114,1881,1885,1991
800222,-1308,32652,68,32836,1891,888,-100,653,-198,99,1276,4094,47,44,879,1793,1888,2134,2317,2114,1881,1885,1991
801223,-1256,32716,133,32901,2007,689,-107,687,-174,238,1235,3940,55,49,876,1826,1930,2183,2376,2116,1889,1896,2004
802224,-1188,32788,198,32966,1804,581,-124,706,-156,207,1408,4052,48,45,875,1826,1930,2183,2376,2116,1889,1896,2004
803225,-1120,32848,263,33031,1801,737,-128,723,-161,166,1479,3729,50,55,879,1826,1930,2183,2376,2116,1889,1896,2004
804226,-1056,32928,328,33096,1853,469,-144,728,-149,217,1270,3865,39,44,878,1826,1930,2183,2376,2116,1889,1896,2004
805227,-1008,32980,393,33161,2074,834,-162,736,-151,261,1497,3881,35,60,880,1826,1930,2183,2376,2116,1889,1896,2004
806228,-944,33064,458,33226,1876,411,-178,733,-158,111,1486,3874,50,49,875,1862,1958,2208,2396,2120,1891,1900,2007
807229,-892,33124,523,33291,2043,717,-179,763,-171,292,1541,3915,35,47,880,1862,1958,2208,2396,2120,1891,1900,2007
808230,-820,33188,588,33356,1784,669,-178,762,-190,387,1624,3933,37,55,876,1862,1958,2208,2396,2120,1891,1900,2007
809231,-752,33264,653,33421,1832,505,-152,791,-227,365,1759,4268,56,52,879,1862,1958,2208,2396,2120,1891,1900,2007
810232,-684,33328,718,33486,1828,656,-147,799,-245,341,1615,4137,41,44,879,1862,1958,2208,2396,2120,1891,1900,2007
811233,-616,33404,783,33551,1825,494,-132,810,-260,499,1715,4248,56,45,879,1862,1958,2208,2396,2120,1891,1900,2007
812234,-544,33476,848,33616,1767,535,-130,822,-266,360,1531,4331,42,57,880,1831,1920,2162,2337,2115,1881,1889,2001
813235,-468,33532,913,33681,1704,746,-121,815,-272,183,1596,4173,57,45,880,1831,1920,2162,2337,2115,1881,1889,2001
814236,-412,33604,978,33746,1965,538,-115,800,-301,300,1737,4163,57,47,879,1831,1920,2162,2337,2115,1881,1889,2001
815237,-344,33668,1043,33811,1813,639,-125,773,-316,338,1580,3987,48,51,878,1831,1920,2162,2337,2115,1881,1889,2001
816238,-260,33740,1108,33876,1589,531,-119,744,-335,284,1688,4105,41,59,880,1831,1920,2162,2337,2115,1881,1889,2001
817239,-196,33812,1173,33941,1842,522,-128,749,-348,102,1605,4249,50,45,882,1793,1891,2134,2304,2113,1876,1888,2009
818240,-116,33864,1238,34006,1623,788,-125,750,-350,279,1762,3865,52,54,879,1793,1891,2134,2304,2113,1876,1888,2009
819241,-52,33940,1303,34071,1826,474,-124,753,-351,364,1706,4098,43,61,880,1793,1891,2134,2304,2113,1876,1888,2009
820242,24,34016,1368,34136,1662,461,-137,748,-335,128,1572,3953,40,59,880,1793,1891,2134,2304,2113,1876,1888,2009
821243,100,34084,1433,34201,1650,557,-152,741,-327,145,1784,3644,55,62,881,1793,1891,2134,2304,2113,1876,1888,2009
822244,148,34156,1498,34266,2020,499,-172,713,-339,137,1915,3908,55,49,881,1793,1891,2134,2304,2113,1876,1888,2009
823245,224,34224,1563,34331,1658,545,-185,697,-333,25,1477,3693,50,56,878,1799,1910,2158,2322,2127,1886,1900,2029
824246,288,34308,1628,34396,1809,322,-204,687,-343,245,1570,3645,49,55,881,1799,1910,2158,2322,2127,1886,1900,2029
825247,356,34368,1693,34461,1757,628,-229,670,-349,401,1704,3645,54,48,881,1799,1910,2158,2322,2127,1886,1900,2029
826248,424,34444,1758,34526,1753,415,-254,634,-353,116,1530,3652,53,54,880,1799,1910,2158,2322,2127,1886,1900,2029
827249,484,34520,1823,34591,1860,401,-255,620,-375,289,1692,3465,39,56,881,1799,1910,2158,2322,2127,1886,1900,2029
828250,572,34580,1888,34656,1482,607,-277,605,-387,378,1724,3577,51,49,880,1816,1924,2174,2330,2137,1894,1904,2032
829251,620,34644,1953,34721,2004,558,-300,594,-393,150,1590,3692,52,61,882,1816,1924,2174,2330,2137,1894,1904,2032
830252,684,34736,2018,34786,1805,176,-319,598,-409,439,1532,3713,53,49,877,1816,1924,2174,2330,2137,1894,1904,2032
831253,752,34792,2083,34851,1752,637,-341,580,-421,504,1623,3627,53,64,882,1816,1924,2174,2330,2137,1894,1904,2032
832254,820,34888,2148,34916,1749,99,-369,539,-466,490,1912,3718,58,61,880,1816,1924,2174,2330,2137,1894,1904,2032
833255,876,34956,2213,34981,1911,445,-388,513,-498,150,1739,3485,43,49,882,1816,1924,2174,2330,2137,1894,1904,2032
834256,956,35028,2278,35046,1592,386,-413,529,-509,287,1664,3783,43,60,879,1795,1896,2144,2294,2129,1882,1891,2017
835257,1024,35096,2343,35111,1740,433,-447,541,-522,816,1735,3951,51,61,883,1795,1896,2144,2294,2129,1882,1891,2017
836258,1108,35168,2408,35176,1516,374,-462,540,-531,546,1852,3659,44,52,880,1795,1896,2144,2294,2129,1882,1891,2017
837259,1196,35236,2473,35241,1439,421,-474,521,-543,159,1933,3822,55,46,884,1795,1896,2144,2294,2129,1882,1891,2017
838260,1252,35312,2538,35306,1850,307,-488,505,-559,194,1915,3802,55,49,884,1795,1896,2144,2294,2129,1882,1891,2017
839261,1336,35380,2603,35371,1478,404,-510,503,-563,174,1621,3796,44,60,881,1756,1856,2103,2255,2127,1883,1890,2018
840262,1404,35444,2668,35436,1674,455,-542,527,-550,501,1521,3815,50,48,884,1756,1856,2103,2255,2127,1883,1890,2018
841263,1484,35532,2733,35501,1507,127,-563,530,-563,553,1967,3840,44,53,881,1756,1856,2103,2255,2127,1883,1890,2018
842264,1568,35604,2798,35566,1434,318,-577,504,-593,155,1884,3520,62,61,884,1756,1856,2103,2255,2127,1883,1890,2018
843265,1644,35660,2863,35631,1522,529,-588,494,-601,-233,1504,3558,48,56,885,1756,1856,2103,2255,2127,1883,1890,2018
844266,1732,35740,2928,35696,1343,211,-612,535,-594,380,1570,3829,54,58,883,1756,1856,2103,2255,2127,1883,1890,2018
845267,1820,35796,2993,35761,1316,522,-622,546,-582,480,1536,3438,54,52,885,1750,1856,2112,2270,2139,1896,1900,2028
846268,1876,35880,3058,35826,1727,149,-631,546,-597,159,1712,3398,43,40,885,1750,1856,2112,2270,2139,1896,1900,2028
847269,1960,35940,3123,35891,1355,455,-643,544,-600,-152,1625,3429,55,59,883,1750,1856,2112,2270,2139,1896,1900,2028
848270,2040,36008,3188,35956,1387,351,-658,541,-600,142,1596,3308,50,58,884,1750,1856,2112,2270,2139,1896,1900,2028
849271,2132,36068,3253,36021,1204,457,-697,565,-593,429,1508,3475,55,55,885,1750,1856,2112,2270,2139,1896,1900,2028
850272,2192,36136,3318,36086,1611,353,-729,565,-612,442,1827,3377,47,59,886,1773,1878,2136,2298,2124,1883,1888,2011
851273,2280,36212,3383,36151,1233,240,-751,542,-654,134,1741,3044,59,57,883,1773,1878,2136,2298,2124,1883,1888,2011
852274,2356,36284,3448,36216,1371,281,-782,540,-675,-32,1503,3187,48,59,887,1773,1878,2136,2298,2124,1883,1888,2011
853275,2428,36352,3513,36281,1412,328,-833,584,-689,654,1494,3685,46,44,884,1773,1878,2136,2298,2124,1883,1888,2011
854276,2528,36424,3578,36346,1020,269,-861,592,-718,865,1689,3175,46,56,885,1773,1878,2136,2298,2124,1883,1888,2011
855283,2600,36492,3643,36411,1362,316,-877,591,-749,209,1670,3300,46,43,889,1773,1878,2136,2298,2124,1883,1888,2011
856278,2680,36552,3708,36476,1243,422,-889,600,-776,55,1607,3455,46,46,886,1783,1879,2127,2287,2091,1856,1865,1989
857279,2776,36628,3773,36541,1007,208,-906,617,-797,373,1563,3497,49,47,886,1783,1879,2127,2287,2091,1856,1865,1989
858280,2860,36700,3838,36606,1133,250,-931,618,-807,489,1549,3315,66,50,889,1783,1879,2127,2287,2091,1856,1865,1989
859281,2948,36788,3903,36671,1056,22,-935,599,-828,293,1654,3249,47,57,888,1783,1879,2127,2287,2091,1856,1865,1989
860282,3040,36828,3968,36736,973,652,-936,582,-848,82,1527,3240,62,52,890,1783,1879,2127,2287,2091,1856,1865,1989
861283,3120,36900,4033,36801,1105,244,-947,587,-858,109,1522,3502,43,53,887,1757,1854,2092,2251,2074,1840,1857,1982
862284,3204,36968,4098,36866,1033,290,-964,589,-855,355,1398,3311,59,61,888,1757,1854,2092,2251,2074,1840,1857,1982
863285,3288,37056,4163,36931,1010,12,-969,572,-866,156,1506,3056,57,60,888,1757,1854,2092,2251,2074,1840,1857,1982
864286,3360,37136,4228,36996,1151,94,-968,531,-879,-74,1517,2944,42,56,890,1757,1854,2092,2251,2074,1840,1857,1982
865287,3444,37204,4293,37061,979,240,-972,513,-893,-100,1580,3078,47,50,889,1757,1854,2092,2251,2074,1840,1857,1982
866288,3516,37296,4358,37126,1120,-93,-990,474,-895,-46,1376,2983,45,48,889,1748,1854,2092,2251,2074,1840,1857,1982
867289,3604,37360,4423,37191,892,257,-995,451,-902,141,1428,2868,48,45,889,1748,1850,2084,2244,2072,1836,1862,1988
868290,3696,37436,4488,37256,810,94,-996,412,-918,17,1650,2942,49,44,890,1748,1850,2084,2244,2072,1836,1862,1988
869291,3776,37512,4553,37321,942,80,-993,384,-939,-184,1365,2833,46,60,891,1748,1850,2084,2244,2072,1836,1862,1988
870292,3856,37612,4618,37386,924,-262,-999,374,-950,153,1289,3143,48,47,890,1748,1850,2084,2244,2072,1836,1862,1988
871293,3932,37668,4683,37451,960,299,-1013,374,-953,276,1243,2939,44,47,890,1748,1850,2084,2244,2072,1836,1862,1988
872294,4008,37740,4748,37516,948,90,-1012,351,-971,186,1182,2715,57,54,890,1752,1861,2086,2246,2061,1821,1854,1980
873295,4100,37808,4813,37581,715,136,-1012,350,-989,219,1228,2751,50,56,890,1752,1861,2086,2246,2061,1821,1854,1980
874296,4172,37880,4878,37646,956,78,-1016,339,-1009,12,1186,2760,51,46,891,1752,1861,2086,2246,2061,1821,1854,1980
875297,4248,37964,4943,37711,894,-95,-1033,316,-1042,109,1208,2851,54,46,891,1752,1861,2086,2246,2061,1821,1854,1980
876298,4340,38040,5008,37776,661,-9,-1037,282,-1061,254,1055,2580,42,45,891,1752,1861,2086,2246,2061,1821,1854,1980
877299,4424,38112,5073,37841,738,33,-1048,224,-1079,-66,1249,2749,53,48,893,1761,1863,2081,2243,2035,1794,1834,1957
878300,4500,38176,5138,37906,824,134,-1055,180,-1105,-209,1131,2697,52,43,892,1761,1863,2081,2243,2035,1794,1834,1957
879301,4600,38264,5203,37971,483,-195,-1059,145,-1121,-67,937,2669,48,43,891,1761,1863,2081,2243,2035,1794,1834,1957
880302,4680,38324,5268,38036,714,161,-1068,122,-1129,-201,1081,2964,42,39,893,1761,1863,2081,2243,2035,1794,1834,1957
881303,4772,38400,5333,38101,531,-52,-1090,93,-1137,-82,931,2792,51,50,892,1761,1863,2081,2243,2035,1794,1834,1957
882304,4848,38480,5398,38166,718,-121,-1096,48,-1151,-131,809,2591,56,55,894,1761,1863,2081,2243,2035,1794,1834,1957
883305,4940,38560,5463,38231,485,-139,-1095,26,-1151,-68,974,2838,43,50,892,1756,1852,2064,2232,2023,1788,1830,1953
884306,5040,38628,5528,38296,343,7,-1098,11,-1158,-92,758,3040,56,41,893,1756,1852,2064,2232,2023,1788,1830,1953
885307,5124,38700,5593,38361,520,-51,-1110,-5,-1170,-122,595,2697,50,39,895,1756,1852,2064,2232,2023,1788,1830,1953
886308,5208,38772,5658,38426,497,-60,-1103,-44,-1156,-252,753,2549,53,51,894,1756,1852,2064,2232,2023,1788,1830,1953
887309,5292,38840,5723,38491,474,-15,-1107,-71,-1154,-306,775,2874,57,42,893,1756,1852,2064,2232,2023,1788,1830,1953
888310,5384,38900,5788,38556,341,92,-1104,-94,-1151,-68,751,2839,40,49,894,1743,1843,2051,2223,2036,1801,1845,1967
889311,5488,38956,5853,38621,143,153,-1105,-120,-1138,-138,757,2621,39,50,894,1743,1843,2051,2223,2036,1801,1845,1967
890312,5592,39024,5918,38686,96,-1,-1090,-146,-1135,-147,758,2714,54,42,895,1743,1843,2051,2223,2036,1801,1845,1967
891313,5668,39092,5983,38751,433,-5,-1088,-167,-1130,-108,670,2782,47,39,895,1743,1843,2051,2223,2036,1801,1845,1967
892314,5756,39156,6048,38816,255,46,-1076,-183,-1126,-112,667,2689,39,40,894,1743,1843,2051,2223,2036,1801,1845,1967
893315,5876,39224,6113,38881,-212,-7,-1087,-210,-1122,-24,508,2703,45,53,895,1743,1843,2051,2223,2036,1801,1845,1967
894316,5944,39296,6178,38946,434,-67,-1074,-214,-1145,-94,624,2792,35,40,886,1740,1840,2045,2224,2044,1805,1849,1971
895317,6028,39356,6243,39011,211,89,-1068,-266,-1164,-681,257,2321,34,39,894,1740,1840,2045,2224,2044,1805,1849,1971
896318,6100,39420,6308,39076,352,41,-1078,-243,-1163,-664,62,3112,36,39,895,1740,1840,2045,2224,2044,1805,1849,1971
897319,6184,39488,6373,39141,179,-13,-1095,-208,-1169,406,483,2941,33,38,895,1740,1840,2045,2224,2044,1805,1849,1971
898320,6268,39560,6438,39206,156,-72,-1105,-218,-1168,98,317,2611,48,53,895,1740,1840,2045,2224,2044,1805,1849,1971
899321,6336,39644,6503,39271,352,-245,-1114,-219,-1154,-376,228,3013,52,51,895,1745,1845,2048,2231,2034,1799,1843,1965
900322,6404,39720,6568,39336,349,-158,-1144,-208,-1154,-364,177,2923,41,39,894,1745,1845,2048,2231,2034,1799,1843,1965
901323,6500,39772,6633,39401,-39,158,-1154,-205,-1160,-7,262,3037,39,40,894,1745,1845,2048,2231,2034,1799,1843,1965
902324,6580,39828,6698,39466,144,118,-1155,-203,-1144,-102,96,2981,38,48,895,1745,1845,2048,2231,2034,1799,1843,1965
903328,6668,39908,6763,39531,15,-201,-1165,-198,-1135,-216,89,2938,45,46,894,1745,1845,2048,2231,2034,1799,1843,1965
904326,6760,39984,6828,39596,-67,-164,-1172,-180,-1123,-259,-15,3173,50,50,895,1745,1845,2048,2231,2034,1799,1843,1965
905327,6848,40060,6893,39661,-46,-178,-1170,-161,-1113,97,-36,3238,52,51,895,1752,1844,2051,2241,2040,1810,1851,1972
906328,6924,40144,6958,39726,91,-301,-1163,-150,-1098,-153,-30,3199,39,40,895,1752,1844,2051,2241,2040,1810,1851,1972
907329,7024,40204,7023,39791,-252,5,-1154,-142,-1074,-324,-93,3423,55,53,895,1752,1844,2051,2241,2040,1810,1851,1972
908330,7084,40264,7088,39856,254,10,-1144,-116,-1056,-216,-36,3461,37,45,892,1752,1844,2051,2241,2040,1810,1851,1972
909331,7184,40340,7153,39921,-288,-203,-1127,-87,-1032,-25,-43,3508,54,36,896,1752,1844,2051,2241,2040,1810,1851,1972
910332,7256,40416,7218,39986,53,-216,-1109,-74,-1020,-93,-74,3436,53,44,895,1755,1846,2056,2258,2056,1808,1869,1984
911333,7336,40484,7283,40051,-65,-120,-1101,-46,-1005,-240,-60,3606,37,45,895,1755,1846,2056,2258,2056,1808,1869,1984
912334,7416,40544,7348,40116,-84,-14,-1098,-36,-968,-215,-182,3309,58,48,895,1755,1846,2056,2258,2056,1808,1869,1984
913335,7516,40616,7413,40181,-376,-173,-1094,-19,-956,-144,17,3407,51,37,895,1755,1846,2056,2258,2056,1808,1869,1984
914336,7588,40696,7478,40246,-35,-292,-1109,-11,-948,-65,-145,3310,39,54,895,1755,1846,2056,2258,2056,1808,1869,1984
915337,7676,40756,7543,40311,-264,-36,-1113,7,-938,-152,-72,3185,57,42,895,1755,1846,2056,2258,2056,1808,1869,1984
916338,7768,40816,7608,40376,-347,-30,-1122,35,-917,-26,-191,3562,55,38,896,1781,1871,2080,2294,2059,1828,1875,1985
917339,7860,40876,7673,40441,-380,-24,-1119,82,-903,190,-34,3471,56,48,897,1781,1871,2080,2294,2059,1828,1875,1985
918340,7944,40952,7738,40506,-303,-237,-1118,105,-894,119,-98,3569,45,55,897,1781,1871,2080,2294,2059,1828,1875,1985
919341,8020,41032,7803,40571,-216,-305,-1116,145,-887,-34,-176,3581,44,41,895,1781,1871,2080,2294,2059,1828,1875,1985
920342,8140,41100,7868,40636,-834,-160,-1097,209,-881,231,-466,4126,44,45,885,1781,1871,2080,2294,2059,1828,1875,1985
921343,8236,41172,7933,40701,-571,-218,-1061,255,-878,358,-442,3746,61,49,894,1796,1884,2086,2296,2176,1823,1871,2048
922344,8320,41244,7998,40766,-445,-227,-1020,285,-852,5,-426,4003,45,45,895,1796,1884,2086,2296,2176,1823,1871,2048
923345,8432,41316,8063,40831,-852,-236,-983,327,-826,171,-579,3944,44,41,895,1796,1884,2086,2296,2176,1823,1871,2048
924346,8520,41368,8128,40896,-580,30,-954,369,-802,313,-660,4140,53,51,895,1796,1884,2086,2296,2176,1823,1871,2048
925347,8616,41424,8193,40961,-719,-9,-912,437,-784,400,-579,4066,63,44,897,1796,1884,2086,2296,2176,1823,1871,2048
926348,8708,41500,8258,41026,-702,-273,-887,511,-742,145,-739,4133,53,53,897,1796,1884,2086,2296,2176,1823,1871,2048
927349,8792,41568,8323,41091,-625,-177,-867,576,-692,96,-607,4312,53,53,895,1801,1883,2094,2313,2039,1809,1862,1968
928350,8916,41640,8388,41156,-1197,-235,-860,646,-641,213,-501,4337,49,42,895,1801,1883,2094,2313,2039,1809,1862,1968
929351,9016,41704,8453,41221,-940,-134,-851,699,-585,89,-600,4024,60,49,889,1801,1883,2094,2313,2039,1809,1862,1968
930352,9104,41764,8518,41286,-818,-78,-847,679,-537,-71,-497,3828,65,46,895,1801,1883,2094,2313,2039,1809,1862,1968
931353,9248,41824,8583,41351,-1615,-73,-854,718,-484,12,-707,4460,68,53,896,1801,1883,2094,2313,2039,1809,1862,1968
932354,9344,41896,8648,41416,-1053,-231,-848,768,-454,327,-636,3901,52,41,897,1834,1919,2117,2359,2043,1821,1873,1978
933355,9460,41952,8713,41481,-1365,-20,-823,805,-434,142,-759,4212,59,39,888,1834,1919,2117,2359,2043,1821,1873,1978
934356,9584,42016,8778,41546,-1538,-119,-801,797,-407,150,-1202,4397,54,53,896,1834,1919,2117,2359,2043,1821,1873,1978
935357,9696,42076,8843,41611,-1446,-63,-772,808,-376,123,-1269,4415,75,39,896,1834,1919,2117,2359,2043,1821,1873,1978
936358,9804,42136,8908,41676,-1448,-58,-723,878,-351,354,-1308,4600,72,38,896,1834,1919,2117,2359,2043,1821,1873,1978
937359,9928,42212,8973,41741,-1721,-271,-664,903,-341,478,-1593,4322,73,46,893,1834,1919,2117,2359,2043,1821,1873,1978
938360,10044,42276,9038,41806,-1684,-120,-595,878,-337,152,-1851,4966,73,50,895,1848,1928,2126,2364,2084,1850,1908,2012
939361,10160,42332,9103,41871,-1746,-9,-509,867,-314,43,-1952,4762,70,49,896,1848,1928,2126,2364,2084,1850,1908,2012
940362,10268,42388,9168,41936,-1699,2,-411,876,-245,396,-2110,5220,66,39,896,1848,1928,2126,2364,2084,1850,1908,2012
941363,10388,42448,9233,42001,-1916,-42,-322,931,-170,589,-2046,4986,63,43,895,1848,1928,2126,2364,2084,1850,1908,2012
942364,10500,42520,9298,42066,-1875,-202,-259,1020,-110,528,-1758,4655,74,44,897,1848,1928,2126,2364,2084,1850,1908,2012
943365,10636,42568,9363,42131,-2261,119,-226,1046,-63,757,-1802,4209,78,58,895,1868,1958,2139,2390,2067,1815,1915,2005
944366,10752,42644,9428,42196,-2074,-244,-197,1060,-21,679,-1854,4376,66,54,896,1868,1958,2139,2390,2067,1815,1915,2005
945367,10888,42720,9493,42261,-2411,-258,-177,1140,46,575,-1635,4085,80,52,895,1868,1958,2139,2390,2067,1815,1915,2005
946368,11020,42784,9558,42326,-2444,-107,-181,1240,85,1008,-1240,3129,78,44,895,1868,1958,2139,2390,2067,1815,1915,2005
947369,11164,42840,9623,42391,-2691,4,-213,1184,101,945,-1267,2802,78,41,896,1868,1958,2139,2390,2067,1815,1915,2005
948370,11296,42908,9688,42456,-2623,-150,-235,1000,71,200,-1339,3167,74,47,896,1868,1958,2139,2390,2067,1815,1915,2005
949371,11428,42972,9753,42521,-2705,-99,-247,653,-2,-725,-1740,2212,66,54,895,1926,2011,2144,2412,2016,1784,1877,1960
950372,11560,43036,9952,42720,-2624,66,-243,382,-25,-870,-2489,3930,77,57,896,1926,2011,2144,2412,2016,1784,1877,1960
951373,11692,43096,10017,42785,-2707,122,-246,151,-3,-1474,-2795,3514,83,45,896,1926,2011,2144,2412,2016,1784,1877,1960
952374,11816,43152,10082,42850,-2679,183,-266,60,-8,-992,-3035,4521,70,42,896,1926,2011,2144,2412,2016,1784,1877,1960
953377,11944,43224,10147,42915,-2807,-26,-285,-12,-29,1013,-3273,4920,68,53,895,1926,2011,2144,2412,2016,1784,1877,1960
954376,12076,43292,10212,42980,-2940,21,-234,-38,-34,970,-3888,5406,75,57,897,1825,1926,2051,2237,1996,1751,1862,2006
955377,12212,43372,10277,43045,-3077,-149,-181,-82,-11,334,-3990,5088,86,49,895,1825,1926,2051,2237,1996,1751,1862,2006
956378,12348,43420,10342,43110,-3164,272,-122,-79,12,450,-3982,5822,80,49,895,1825,1926,2051,2237,1996,1751,1862,2006
957379,12484,43480,10407,43175,-3252,128,-91,-20,62,502,-3981,5473,78,55,895,1825,1926,2051,2237,1996,1751,1862,2006
958380,12604,43544,10472,43240,-3120,79,-66,67,115,1113,-3922,5359,70,55,896,1825,1926,2051,2237,1996,1751,1862,2006
959381,12744,43592,10537,43305,-3462,300,-52,123,146,861,-3870,5270,71,55,896,1825,1926,2051,2237,1996,1751,1862,2006
960382,12868,43668,10602,43370,-3335,-63,-75,18,155,-285,-3969,4345,79,46,895,1752,2046,2018,2194,2101,1844,1980,2130
961383,13008,43744,10667,43435,-3627,-77,-142,-232,117,-1138,-3266,3689,68,57,896,1752,2046,2018,2194,2101,1844,1980,2130
962384,13136,43808,10732,43500,-3555,75,-229,-511,57,-559,-2779,3587,83,49,889,1752,2046,2018,2194,2101,1844,1980,2130
963385,13256,43884,10797,43565,-3523,-90,-311,-733,-38,-802,-3108,3162,72,45,896,1752,2046,2018,2194,2101,1844,1980,2130
964386,13396,43956,10862,43630,-3800,-48,-382,-989,-159,-726,-2981,3272,90,49,896,1752,2046,2018,2194,2101,1844,1980,2130
965387,13504,44016,10927,43695,-3519,108,-411,-1130,-264,-939,-3343,4429,81,46,896,1810,1947,2073,2298,2251,1976,2097,2229
966388,13628,44080,10992,43760,-3792,59,-424,-1227,-354,-766,-3551,4001,69,43,892,1810,1947,2073,2298,2251,1976,2097,2229
967389,13756,44148,11057,43825,-3800,5,-409,-1266,-429,-337,-3744,5417,75,41,896,1810,1947,2073,2298,2251,1976,2097,2229
968390,13872,44204,11122,43890,-3800,166,-365,-1260,-502,101,-3518,4834,77,53,896,1810,1947,2073,2298,2251,1976,2097,2229
969391,13992,44264,11187,43955,-3800,122,-311,-1234,-577,180,-3554,5104,75,49,895,1810,1947,2073,2298,2251,1976,2097,2229
970392,14116,44336,11252,44020,-3800,-36,-261,-1170,-622,-96,-3796,5686,67,46,894,1810,1947,2073,2298,2251,1976,2097,2229
971393,14240,44388,11317,44085,-3800,229,-201,-1067,-627,-571,-3873,6171,77,48,897,1799,1935,2071,2285,2235,1958,2049,2148
972394,14344,44444,11382,44150,-3800,190,-130,-959,-598,-633,-3895,6384,40,39,894,1799,1935,2071,2285,2235,1958,2049,2148
973395,14480,44492,11447,44215,-3800,310,-65,-998,-568,-849,-3558,5518,79,46,896,1799,1935,2071,2285,2235,1958,2049,2148
974396,14580,44556,11512,44280,-3800,112,-23,-1016,-538,-1180,-3738,6753,80,49,894,1799,1935,2071,2285,2235,1958,2049,2148
975397,14708,44628,11577,44345,-3800,3,-16,-1039,-521,-1572,-3406,5664,74,50,896,1799,1935,2071,2285,2235,1958,2049,2148
976398,14832,44704,11642,44410,-3800,-60,-14,-1039,-467,-1617,-3369,6527,68,36,896,1823,1942,2106,2379,2047,1839,1903,1958
977399,14928,44776,11707,44475,-3800,-19,-17,-1024,-451,-1231,-3070,6110,64,51,896,1823,1942,2106,2379,2047,1839,1903,1958
978400,15044,44828,11772,44540,-3800,247,-26,-1022,-421,-1266,-2989,6335,64,41,895,1823,1942,2106,2379,2047,1839,1903,1958
979401,15144,44888,11837,44605,-3800,153,-62,-960,-408,-1193,-2612,5901,66,34,895,1823,1942,2106,2379,2047,1839,1903,1958
980402,15260,44928,11902,44670,-3800,433,-92,-856,-434,-929,-2321,5983,70,32,896,1823,1942,2106,2379,2047,1839,1903,1958
981403,15360,45020,11967,44735,-3800,-250,-115,-715,-472,-144,-2352,6139,56,45,895,1823,1942,2106,2379,2047,1839,1903,1958
982404,15464,45048,12032,44800,-3800,595,-128,-573,-500,-72,-2181,5706,69,41,895,1978,2052,2212,2560,1980,1801,1888,1944
983405,15560,45108,12097,44865,-3800,201,-114,-443,-531,-279,-2036,5621,53,27,894,1978,2052,2212,2560,1980,1801,1888,1944
984406,15664,45160,12162,44930,-3800,317,-84,-313,-568,-124,-2031,5294,54,45,896,1978,2052,2212,2560,1980,1801,1888,1944
985407,15756,45208,12227,44995,-3800,387,-34,-213,-612,-278,-1911,4950,64,42,895,1978,2052,2212,2560,1980,1801,1888,1944
986408,15840,45276,12292,45060,-3800,134,15,-132,-645,-483,-1885,4631,49,45,895,1978,2052,2212,2560,1980,1801,1888,1944
987409,15928,45340,12357,45125,-3800,185,88,-99,-648,-733,-1730,4488,43,37,896,2059,2091,2283,2592,2077,1881,1942,2015
988410,16000,45392,12422,45190,-3800,351,172,-71,-627,-1067,-1716,4531,43,44,896,2059,2091,2283,2592,2077,1881,1942,2015
989411,16096,45440,12487,45255,-3800,422,263,-55,-607,-1142,-1491,4206,49,36,894,2059,2091,2283,2592,2077,1881,1942,2015
990412,16172,45492,12552,45320,-3800,388,364,-20,-545,-1078,-1454,4294,41,43,894,2059,2091,2283,2592,2077,1881,1942,2015
991413,16256,45536,12617,45385,-3800,512,489,13,-475,-1369,-1326,4302,39,33,895,2059,2091,2283,2592,2077,1881,1942,2015
992414,16332,45600,12682,45450,-3800,263,578,82,-392,-1337,-1063,4055,53,33,894,2059,2091,2283,2592,2077,1881,1942,2015
993415,16412,45676,12747,45515,-3800,100,671,161,-311,-1030,-807,4008,33,40,895,1926,1983,2162,2399,2071,1839,1895,1975
994416,16480,45724,12812,45580,-3800,471,742,205,-204,-791,-704,4374,42,35,895,1926,1983,2162,2399,2071,1839,1895,1975
995417,16544,45764,12877,45645,-3800,601,823,221,-89,-982,-578,4417,44,33,886,1926,1983,2162,2399,2071,1839,1895,1975
996418,16596,45816,12942,45710,-3800,467,884,265,13,-997,-322,4382,39,43,894,1926,1983,2162,2399,2071,1839,1895,1975
997419,16656,45888,13007,45775,-3800,209,932,301,93,-683,-116,4447,35,48,894,1926,1983,2162,2399,2071,1839,1895,1975
998420,16720,45952,13072,45840,-3800,310,962,306,172,-210,42,4106,29,46,895,1781,1864,2016,2216,1950,1718,1775,1892
999421,16776,46036,13137,45905,-3800,37,980,303,223,-591,187,4302,28,48,891,1781,1864,2016,2216,1950,1718,1775,1892
1000422,16820,46100,13202,45970,-3800,288,977,280,262,-391,293,3654,38,50,896,1781,1864,2016,2216,1950,1718,1775,1892
1001423,16848,46188,13267,46035,-3791,-40,961,251,291,289,159,3766,22,47,895,1781,1864,2016,2216,1950,1718,1775,1892
1002424,16892,46260,13332,46100,-3800,151,975,301,307,818,310,3616,27,37,896,1781,1864,2016,2216,1950,1718,1775,1892
1003425,16940,46320,13397,46165,-3800,307,954,300,301,544,89,2850,36,37,894,1781,1864,2016,2216,1950,1718,1775,1892
1004426,16972,46376,13462,46230,-3758,368,952,302,272,-88,127,2898,28,44,895,1755,1845,2014,2186,1941,1713,1780,1927
1005427,17000,46460,13527,46295,-3664,-5,918,272,247,182,261,2599,30,42,895,1755,1845,2014,2186,1941,1713,1780,1927
1006428,17036,46528,13592,46360,-3730,191,931,212,243,578,62,2569,29,45,895,1755,1845,2014,2186,1941,1713,1780,1927
1007429,17064,46592,13657,46425,-3586,243,929,134,258,326,75,2304,26,41,895,1755,1845,2014,2186,1941,1713,1780,1927
1008430,17068,46672,13722,46490,-3213,23,940,34,284,-203,211,2445,9,45,895,1755,1845,2014,2186,1941,1713,1780,1927
1009431,17104,46724,13787,46555,-3579,389,967,-99,306,-540,65,2143,27,37,896,1771,1874,2075,2225,2057,1814,1856,2026
1010432,17104,46788,13852,46620,-3050,240,1025,-218,337,-783,57,2508,15,46,895,1771,1874,2075,2225,2057,1814,1856,2026
1011433,17124,46884,13917,46685,-3247,-197,1075,-312,376,-727,375,2470,6,48,895,1771,1874,2075,2225,2057,1814,1856,2026
1012434,17136,46960,13982,46750,-3084,39,1115,-436,433,-388,590,2369,14,37,895,1771,1874,2075,2225,2057,1814,1856,2026
1013435,17148,47024,14047,46815,-3020,190,1117,-501,519,-65,921,2535,1,47,896,1771,1874,2075,2225,2057,1814,1856,2026
1014436,17140,47104,14112,46880,-2682,-28,1107,-477,591,225,1175,2684,-1,41,896,1771,1874,2075,2225,2057,1814,1856,2026
1015437,17148,47180,14177,46945,-2813,9,1082,-415,644,593,1412,2970,14,40,895,1752,1872,2069,2218,2094,1836,1887,2036
1016438,17136,47240,14242,47010,-2471,215,1060,-369,670,146,1675,3155,-3,34,897,1752,1872,2069,2218,2094,1836,1887,2036
1017439,17140,47332,14307,47075,-2598,-218,1037,-332,693,449,1950,3394,9,44,895,1752,1872,2069,2218,2094,1836,1887,2036
1018440,17148,47380,14372,47140,-2579,353,1047,-366,702,965,1727,3870,9,37,895,1752,1872,2069,2218,2094,1836,1887,2036
1019441,17144,47452,14437,47205,-2346,44,1115,-385,735,467,1400,4976,7,34,895,1752,1872,2069,2218,2094,1836,1887,2036
1020442,17144,47516,14502,47270,-2318,144,1159,-306,780,-153,1797,5148,-2,45,896,1722,1837,2018,2182,2060,1811,1855,1979
