%  Data file recorded 2016/9/29  17:2:33
%  Stride Frequency         = [1, 1]
%  Lead In /Lead Out        = 
%  Deltas (Fractional)      = [0.25, 0.25, 0.25],[0.25, 0.25, 0.25]
%  Phase                    = 32768
%  Experiment.py 
%  Motor Gains    = [5000, 400, 200, 0, 300, 5000, 400, 200, 0, 300]
% Columns: 
% time | Right Leg Pos | Left Leg Pos | Commanded Right Leg Pos | Commanded Left Leg Pos | DCR | DCL | GyroX | GyroY | GyroZ | AX | AY | AZ | RBEMF | LBEMF | VBatt | S1 | S2 | S3 | S4 | S5 | S6 | S7 | S8
992,18308,-16684,17196,-15572,-3800,2736,12,20,-42,-39,142,3937,-8,6,907,1741,1850,2051,2217,2083,1839,1884,2021
1993,18312,-16680,17196,-15572,-3800,2732,12,18,-44,-39,145,3917,-6,-7,907,1741,1850,2051,2217,2083,1839,1884,2021
2994,18304,-16692,17196,-15572,-3800,2947,12,18,-42,-42,147,3942,-3,0,907,1741,1850,2051,2217,2083,1839,1884,2021
3995,18304,-16684,17196,-15572,-3800,2688,11,20,-41,-55,152,3914,2,7,907,1741,1850,2051,2217,2083,1839,1884,2021
4996,18304,-16692,17196,-15572,-3800,2898,10,20,-41,-57,143,3920,-3,-6,908,1741,1850,2051,2217,2083,1839,1884,2021
5997,18316,-16680,17196,-15572,-3800,2634,11,17,-43,-58,153,3920,-6,-2,907,1741,1850,2051,2217,2083,1839,1884,2021
6998,18312,-16692,17196,-15572,-3800,2949,12,17,-43,-65,175,3910,-2,7,907,1741,1850,2051,2217,2083,1839,1884,2021
7999,18312,-16676,17196,-15572,-3800,2579,14,17,-43,-40,177,3891,-8,-6,908,1741,1850,2051,2217,2083,1839,1884,2021
9000,18300,-16680,17196,-15572,-3800,2835,13,19,-44,-78,154,3914,-9,2,907,1741,1850,2051,2217,2083,1839,1884,2021
10001,18312,-16700,17196,-15572,-3800,3059,10,21,-43,-72,168,3888,-8,5,907,1741,1850,2051,2217,2083,1839,1884,2021
11002,18308,-16684,17196,-15572,-3800,2591,11,21,-40,-71,171,3920,-8,-5,907,1741,1850,2051,2217,2083,1839,1884,2021
12003,18308,-16684,17196,-15572,-3800,2791,17,20,-43,-45,164,3935,-7,8,908,1741,1850,2051,2217,2083,1839,1884,2021
13004,18304,-16692,17196,-15572,-3800,2902,17,20,-44,-36,123,3938,5,-2,907,1741,1850,2051,2217,2083,1839,1884,2021
14005,18312,-16692,17196,-15572,-3800,2802,15,18,-46,-70,130,3928,8,4,907,1741,1850,2051,2217,2083,1839,1884,2021
15006,18308,-16688,17196,-15572,-3800,2747,11,18,-44,-55,139,3929,9,4,907,1741,1850,2051,2217,2083,1839,1884,2021
16007,18316,-16692,17196,-15572,-3800,2853,12,17,-44,-68,160,3920,5,-6,907,1741,1850,2051,2217,2083,1839,1884,2021
17008,18308,-16688,17196,-15572,-3800,2748,14,18,-44,-66,176,3932,0,4,908,1741,1850,2051,2217,2083,1839,1884,2021
18009,18312,-16684,17196,-15572,-3800,2744,14,17,-44,-52,166,3933,-2,-7,907,1741,1850,2051,2217,2083,1839,1884,2021
19010,18304,-16704,17196,-15572,-3800,3068,13,17,-44,-50,180,3914,-9,8,907,1741,1850,2051,2217,2083,1839,1884,2021
20011,18312,-16696,17196,-15572,-3800,2710,12,16,-46,-68,149,3907,-7,-6,907,1741,1850,2051,2217,2083,1839,1884,2021
21012,18308,-16688,17196,-15572,-3800,2700,12,18,-47,-56,120,3935,-9,2,906,1741,1850,2051,2217,2083,1839,1884,2021
22013,18312,-16692,17196,-15572,-3800,2855,12,21,-45,-63,156,3908,-8,5,907,1741,1850,2051,2217,2083,1839,1884,2021
23014,18312,-16684,17196,-15572,-3800,2696,13,19,-45,-72,149,3903,-8,-5,907,1741,1850,2051,2217,2083,1839,1884,2021
24015,18304,-16692,17196,-15572,-3800,2906,13,19,-48,-77,132,3890,-6,8,908,1741,1850,2051,2217,2083,1839,1884,2021
25016,18308,-16692,17196,-15572,-3800,2807,15,21,-46,-68,165,3918,6,-6,907,1741,1850,2051,2217,2083,1839,1884,2021
26017,18308,-16688,17196,-15572,-3800,2752,15,21,-46,-59,163,3919,8,8,907,1741,1850,2051,2217,2083,1839,1884,2021
27018,18312,-16700,17196,-15572,-3800,2966,15,18,-45,-45,137,3920,8,-7,907,1741,1850,2051,2217,2083,1839,1884,2021
28019,18304,-16688,17196,-15572,-3800,2653,14,16,-45,-56,141,3918,10,4,907,1741,1850,2051,2217,2083,1839,1884,2021
29020,18308,-16688,17196,-15572,-3800,2803,15,18,-47,-69,141,3940,9,-4,907,1741,1850,2051,2217,2083,1839,1884,2021
30021,18312,-16680,17196,-15572,-3800,2694,16,19,-48,-60,159,3946,8,-1,907,1741,1850,2051,2217,2083,1839,1884,2021
31022,18308,-16692,17196,-15572,-3800,2959,15,19,-48,-84,169,3916,7,7,907,1741,1850,2051,2217,2083,1839,1884,2021
32023,18304,-16696,17196,-15572,-3800,2865,14,18,-47,-70,156,3895,3,-7,907,1741,1850,2051,2217,2083,1839,1884,2021
33024,18308,-16692,17196,-15572,-3800,2760,14,21,-48,-50,130,3897,-1,6,907,1741,1850,2051,2217,2083,1839,1884,2021
34025,18304,-16688,17196,-15572,-3800,2755,12,21,-49,-28,146,3913,-3,3,908,1741,1850,2051,2217,2083,1839,1884,2021
35026,18304,-16696,17196,-15572,-3800,2916,12,18,-48,-55,176,3917,3,-5,907,1741,1850,2051,2217,2083,1839,1884,2021
36027,18304,-16696,17196,-15572,-3800,2816,10,17,-48,-85,149,3928,8,7,907,1741,1850,2051,2217,2083,1839,1884,2021
37028,18312,-16680,17196,-15572,-3800,2597,12,17,-49,-48,154,3929,6,5,906,1741,1850,2051,2217,2083,1839,1884,2021
38029,18312,-16680,17196,-15572,-3800,2797,13,19,-49,-42,133,3917,7,-7,907,1741,1850,2051,2217,2083,1839,1884,2021
39030,18308,-16680,17196,-15572,-3800,2798,14,20,-46,-54,154,3919,7,5,908,1741,1850,2051,2217,2083,1839,1884,2021
40031,18312,-16688,17196,-15572,-3800,2908,14,18,-46,-60,154,3917,6,3,907,1741,1850,2051,2217,2083,1839,1884,2021
41032,18304,-16692,17196,-15572,-3800,2863,13,15,-46,-53,140,3901,7,-4,907,1741,1850,2051,2217,2083,1839,1884,2021
42033,18312,-16680,17196,-15572,-3800,2649,10,16,-45,-54,146,3888,9,7,908,1741,1850,2051,2217,2083,1839,1884,2021
43034,18312,-16688,17196,-15572,-3800,2909,13,18,-46,-77,157,3925,2,1,907,1741,1850,2051,2217,2083,1839,1884,2021
44035,18312,-16684,17196,-15572,-3800,2755,13,21,-47,-84,175,3926,3,-6,907,1741,1850,2051,2217,2083,1839,1884,2021
45036,18312,-16688,17196,-15572,-3800,2860,11,19,-49,-77,153,3924,-3,4,907,1741,1850,2051,2217,2083,1839,1884,2021
46037,18308,-16696,17196,-15572,-3800,2921,12,16,-48,-73,134,3906,-7,4,907,1741,1850,2051,2217,2083,1839,1884,2021
47038,18316,-16688,17196,-15572,-3800,2711,13,17,-47,-44,140,3922,0,-6,907,1741,1850,2051,2217,2083,1839,1884,2021
48039,18312,-16684,17196,-15572,-3800,2756,14,19,-47,-40,135,3934,6,7,907,1741,1850,2051,2217,2083,1839,1884,2021
49040,18312,-16692,17196,-15572,-3800,2917,11,20,-46,-83,143,3955,2,-3,908,1741,1850,2051,2217,2083,1839,1884,2021
50041,18300,-16692,17196,-15572,-3800,2817,11,20,-45,-74,150,3918,5,-2,907,1741,1850,2051,2217,2083,1839,1884,2021
51042,18308,-16688,17196,-15572,-3800,2763,12,17,-44,-51,147,3955,1,6,907,1741,1850,2051,2217,2083,1839,1884,2021
52043,18324,-16692,17196,-15572,-3800,2868,12,17,-46,-40,158,3937,-4,5,908,1741,1850,2051,2217,2083,1839,1884,2021
53044,18308,-16688,17196,-15572,-3800,2763,12,18,-45,-47,153,3900,-6,-7,907,1741,1850,2051,2217,2083,1839,1884,2021
54045,18304,-16688,17196,-15572,-3800,2814,11,19,-46,-78,138,3919,-8,-5,906,1741,1850,2051,2217,2083,1839,1884,2021
55046,18312,-16692,17196,-15572,-3800,2869,12,20,-46,-74,149,3900,-3,0,906,1741,1850,2051,2217,2083,1839,1884,2021
56047,18312,-16684,17196,-15572,-3800,2710,11,20,-46,-61,156,3965,-9,5,907,1741,1850,2051,2217,2083,1839,1884,2021
57048,18312,-16688,17196,-15572,-3800,2865,10,17,-45,-52,136,3968,-9,-7,907,1741,1850,2051,2217,2083,1839,1884,2021
58049,18300,-16684,17196,-15572,-3800,2761,11,14,-46,-48,129,3928,-7,5,907,1741,1850,2051,2217,2083,1839,1884,2021
59050,18312,-16692,17196,-15572,-3800,2921,11,17,-45,-53,138,3906,2,-4,907,1741,1850,2051,2217,2083,1839,1884,2021
60051,18300,-16684,17196,-15572,-3800,2711,11,19,-46,-51,148,3933,7,-1,907,1741,1850,2051,2217,2083,1839,1884,2021
61052,18308,-16692,17196,-15572,-3800,2922,12,16,-44,-52,160,3903,2,8,907,1741,1850,2051,2217,2083,1839,1884,2021
62053,18308,-16684,17196,-15572,-3800,2712,13,17,-44,-70,150,3904,7,-7,907,1741,1850,2051,2217,2083,1839,1884,2021
63054,18300,-16688,17196,-15572,-3800,2868,14,19,-45,-45,139,3930,4,4,907,1741,1850,2051,2217,2083,1839,1884,2021
64055,18308,-16688,17196,-15572,-3800,2818,15,22,-45,-61,154,3928,2,6,907,1741,1850,2051,2217,2083,1839,1884,2021
65056,18300,-16700,17196,-15572,-3800,2983,14,21,-45,-66,144,3875,9,-6,907,1741,1850,2051,2217,2083,1839,1884,2021
66057,18308,-16684,17196,-15572,-3800,2614,16,20,-45,-74,151,3909,10,4,907,1741,1850,2051,2217,2083,1839,1884,2021
67058,18316,-16684,17196,-15572,-3800,2814,14,18,-46,-57,157,3905,5,4,907,1741,1850,2051,2217,2083,1839,1884,2021
68059,18308,-16688,17196,-15572,-3800,2870,13,17,-43,-62,129,3913,5,-5,907,1741,1850,2051,2217,2083,1839,1884,2021
69060,18312,-16692,17196,-15572,-3800,2875,15,19,-43,-22,119,3907,5,6,908,1741,1850,2051,2217,2083,1839,1884,2021
70061,18308,-16684,17196,-15572,-3800,2716,16,19,-46,-19,133,3911,1,5,907,1741,1850,2051,2217,2083,1839,1884,2021
71062,18296,-16696,17196,-15572,-3800,2981,14,18,-47,-49,161,3951,10,-7,907,1741,1850,2051,2217,2083,1839,1884,2021
72063,18296,-16700,17196,-15572,-3800,2886,12,20,-46,-43,150,3950,11,-4,906,1741,1850,2051,2217,2083,1839,1884,2021
73064,18312,-16684,17196,-15572,-3800,2617,13,17,-46,-67,142,3938,10,7,908,1741,1850,2051,2217,2083,1839,1884,2021
74065,18324,-16696,17196,-15572,-3800,2982,15,17,-45,-49,175,3955,6,-6,907,1741,1850,2051,2217,2083,1839,1884,2021
75066,18308,-16688,17196,-15572,-3800,2723,13,20,-45,-58,174,3925,2,-4,908,1741,1850,2051,2217,2083,1839,1884,2021
76067,18312,-16696,17196,-15572,-3800,2933,12,21,-46,-38,156,3924,-2,7,907,1741,1850,2051,2217,2083,1839,1884,2021
77068,18312,-16692,17196,-15572,-3800,2779,12,20,-46,-51,143,3926,-9,-6,907,1741,1850,2051,2217,2083,1839,1884,2021
78069,18300,-16676,17196,-15572,-3800,2609,12,20,-43,-90,137,3892,-4,7,907,1741,1850,2051,2217,2083,1839,1884,2021
79070,18312,-16692,17196,-15572,-3800,3030,14,18,-43,-64,171,3913,-7,2,907,1741,1850,2051,2217,2083,1839,1884,2021
80071,18308,-16684,17196,-15572,-3800,2720,15,17,-44,-66,166,3920,-5,-1,907,1741,1850,2051,2217,2083,1839,1884,2021
81072,18304,-16692,17196,-15572,-3800,2930,18,17,-45,-100,145,3915,-7,5,907,1741,1850,2051,2217,2083,1839,1884,2021
82073,18304,-16688,17196,-15572,-3800,2776,19,16,-46,-57,153,3932,-8,-6,907,1741,1850,2051,2217,2083,1839,1884,2021
83074,18312,-16688,17196,-15572,-3800,2826,19,16,-48,-50,143,3930,-5,7,907,1741,1850,2051,2217,2083,1839,1884,2021
84075,18316,-16676,17196,-15572,-3800,2662,18,18,-47,-57,151,3901,-2,0,907,1741,1850,2051,2217,2083,1839,1884,2021
85076,18304,-16692,17196,-15572,-3800,3032,18,20,-46,-55,163,3903,10,-6,907,1741,1850,2051,2217,2083,1839,1884,2021
86077,18296,-16684,17196,-15572,-3800,2722,16,18,-46,-27,155,3899,10,6,908,1741,1850,2051,2217,2083,1839,1884,2021
87078,18312,-16684,17196,-15572,-3800,2823,12,16,-46,-79,135,3960,8,-7,907,1741,1850,2051,2217,2083,1839,1884,2021
88079,18316,-16684,17196,-15572,-3800,2823,13,15,-48,-91,159,3945,-3,1,906,1741,1850,2051,2217,2083,1839,1884,2021
89080,18308,-16692,17196,-15572,-3800,2934,14,18,-48,-68,159,3956,-7,3,906,1741,1850,2051,2217,2083,1839,1884,2021
90081,18312,-16704,17196,-15572,-3800,2998,16,21,-47,-50,149,3940,-6,-7,907,1741,1850,2051,2217,2083,1839,1884,2021
91082,18312,-16696,17196,-15572,-3800,2740,15,20,-45,-67,159,3940,-8,8,907,1741,1850,2051,2217,2083,1839,1884,2021
92083,18304,-16688,17196,-15572,-3800,2730,13,19,-46,-83,153,3940,-4,-4,907,1741,1850,2051,2217,2083,1839,1884,2021
93084,18304,-16692,17196,-15572,-3800,2885,15,18,-46,-78,135,3916,4,7,907,1741,1850,2051,2217,2083,1839,1884,2021
94085,18312,-16692,17196,-15572,-3800,2836,14,19,-46,-46,123,3867,-1,-7,907,1741,1850,2051,2217,2083,1839,1884,2021
95086,18316,-16688,17196,-15572,-3800,2781,12,20,-46,-34,149,3895,3,7,907,1741,1850,2051,2217,2083,1839,1884,2021
96087,18308,-16684,17196,-15572,-3800,2777,12,19,-45,-68,173,3884,7,-6,907,1741,1850,2051,2217,2083,1839,1884,2021
97088,18300,-16688,17196,-15572,-3800,2882,10,19,-46,-73,147,3903,2,1,907,1741,1850,2051,2217,2083,1839,1884,2021
98089,18308,-16688,17196,-15572,-3800,2833,13,19,-45,-54,138,3914,7,0,907,1741,1850,2051,2217,2083,1839,1884,2021
99090,18300,-16688,17196,-15572,-3800,2833,12,22,-45,-62,155,3943,10,-6,907,1741,1850,2051,2217,2083,1839,1884,2021
100091,18308,-16688,17196,-15572,-3800,2833,12,21,-45,-70,132,3919,7,8,907,1741,1850,2051,2217,2083,1839,1884,2021
101092,18320,-16688,17196,-15572,-3800,2834,12,19,-43,-64,143,3934,10,-6,907,1741,1850,2051,2217,2083,1839,1884,2021
102093,18316,-16692,17196,-15572,-3800,2889,11,19,-44,-77,160,3923,8,-2,907,1741,1850,2051,2217,2083,1839,1884,2021
103094,18304,-16684,17196,-15572,-3800,2730,10,20,-45,-80,151,3936,7,7,908,1741,1850,2051,2217,2083,1839,1884,2021
104095,18316,-16688,17196,-15572,-3800,2885,11,21,-48,-59,164,3934,-1,-3,908,1741,1850,2051,2217,2083,1839,1884,2021
105096,18312,-16688,17196,-15572,-3800,2836,10,20,-47,-80,175,3931,-4,-7,906,1741,1850,2051,2217,2083,1839,1884,2021
106097,18296,-16700,17196,-15572,-3800,3000,10,20,-46,-77,165,3928,-2,-3,906,1741,1850,2051,2217,2083,1839,1884,2021
107098,18304,-16700,17196,-15572,-3800,2850,11,17,-47,-69,164,3950,-8,4,907,1741,1850,2051,2217,2083,1839,1884,2021
108099,18304,-16688,17196,-15572,-3800,2687,11,18,-46,-54,159,3910,-9,-6,907,1741,1850,2051,2217,2083,1839,1884,2021
109100,18308,-16692,17196,-15572,-3800,2892,12,19,-45,-52,153,3907,-8,-1,907,1741,1850,2051,2217,2083,1839,1884,2021
110101,18308,-16684,17196,-15572,-3800,2733,13,21,-43,-73,178,3911,-4,4,907,1741,1850,2051,2217,2083,1839,1884,2021
111102,18312,-16692,17196,-15572,-3800,2943,13,21,-46,-67,160,3915,2,-7,907,1741,1850,2051,2217,2083,1839,1884,2021
112103,18304,-16688,17196,-15572,-3800,2788,13,21,-48,-46,130,3919,7,4,908,1741,1850,2051,2217,2083,1839,1884,2021
113104,18308,-16684,17196,-15572,-3800,2784,12,21,-42,-61,134,3904,9,-5,908,1741,1850,2051,2217,2083,1839,1884,2021
114105,18312,-16696,17196,-15572,-3800,2999,11,19,-42,-68,150,3899,-6,-1,907,1741,1850,2051,2217,2083,1839,1884,2021
115106,18316,-16692,17196,-15572,-3800,2795,11,18,-45,-57,150,3934,-7,8,907,1741,1850,2051,2217,2083,1839,1884,2021
116107,18316,-16688,17196,-15572,-3800,2790,11,19,-47,-46,150,3933,-8,-7,907,1741,1850,2051,2217,2083,1839,1884,2021
117108,18312,-16696,17196,-15572,-3800,2951,10,19,-49,-64,151,3901,-2,3,907,1741,1850,2051,2217,2083,1839,1884,2021
118109,18316,-16684,17196,-15572,-3800,2686,11,16,-49,-56,170,3896,-5,6,907,1741,1850,2051,2217,2083,1839,1884,2021
119110,18304,-16680,17196,-15572,-3800,2781,11,18,-46,-82,167,3901,7,-7,907,1741,1850,2051,2217,2083,1839,1884,2021
120111,18296,-16692,17196,-15572,-3800,2997,14,19,-45,-58,164,3924,8,6,907,1741,1850,2051,2217,2083,1839,1884,2021
121112,18296,-16684,17196,-15572,-3800,2737,16,20,-46,-71,158,3912,2,-1,907,1741,1850,2051,2217,2083,1839,1884,2021
122113,18304,-16688,17196,-15572,-3800,2893,17,17,-46,-73,174,3901,9,-5,907,1741,1850,2051,2217,2083,1839,1884,2021
123114,18312,-16692,17196,-15572,-3800,2898,15,16,-49,-51,160,3910,10,5,906,1741,1850,2051,2217,2083,1839,1884,2021
124115,18312,-16688,17196,-15572,-3800,2794,14,16,-49,-27,141,3943,10,4,907,1741,1850,2051,2217,2083,1839,1884,2021
125116,18300,-16696,17196,-15572,-3800,2954,14,17,-49,-55,121,3938,10,-6,907,1741,1850,2051,2217,2083,1839,1884,2021
126117,18312,-16692,17196,-15572,-3800,2799,15,19,-49,-45,141,3929,4,7,907,1741,1850,2051,2217,2083,1839,1884,2021
127118,18308,-16688,17196,-15572,-3800,2795,14,19,-49,-45,145,3920,8,-1,907,1741,1850,2051,2217,2083,1839,1884,2021
128119,18304,-16696,17196,-15572,-3800,2955,13,19,-47,-27,130,3940,3,3,907,1741,1850,2051,2217,2083,1839,1884,2021
129120,18308,-16688,17196,-15572,-3800,2746,15,18,-45,-57,118,3932,-9,1,907,1741,1850,2051,2217,2083,1839,1884,2021
130121,18312,-16680,17196,-15572,-3800,2736,15,17,-43,-41,133,3937,-9,-3,907,1741,1850,2051,2217,2083,1839,1884,2021
131122,18316,-16684,17196,-15572,-3800,2892,16,21,-44,-37,140,3927,-6,-2,907,1741,1850,2051,2217,2083,1839,1884,2021
132123,18312,-16692,17196,-15572,-3800,2952,16,21,-46,-63,138,3940,4,-5,907,1741,1850,2051,2217,2083,1839,1884,2021
133124,18312,-16684,17196,-15572,-3800,2742,17,19,-47,-66,136,3945,7,6,907,1741,1850,2051,2217,2083,1839,1884,2021
134125,18320,-16688,17196,-15572,-3800,2898,16,19,-46,-47,166,3922,8,1,907,1741,1850,2051,2217,2083,1839,1884,2021
135126,18312,-16692,17196,-15572,-3800,2903,15,21,-46,-58,142,3919,-1,-7,907,1741,1850,2051,2217,2083,1839,1884,2021
136127,18304,-16688,17196,-15572,-3800,2799,13,20,-47,-46,159,3919,-5,3,907,1741,1850,2051,2217,2083,1839,1884,2021
137128,18304,-16680,17196,-15572,-3800,2739,12,19,-46,-60,168,3896,-9,-3,907,1741,1850,2051,2217,2083,1839,1884,2021
138129,18308,-16684,17196,-15572,-3800,2894,13,19,-45,-52,181,3928,-5,-5,907,1741,1850,2051,2217,2083,1839,1884,2021
139130,18300,-16688,17196,-15572,-3800,2900,15,18,-45,-63,141,3911,-3,6,906,1741,1850,2051,2217,2083,1839,1884,2021
140131,18300,-16696,17196,-15572,-3800,2960,17,18,-43,-53,144,3918,1,-4,907,1741,1850,2051,2217,2083,1839,1884,2021
141132,18312,-16696,17196,-15572,-3800,2861,15,18,-46,-73,150,3902,9,1,907,1741,1850,2051,2217,2083,1839,1884,2021
142133,18312,-16692,17196,-15572,-3800,2806,15,19,-49,-49,119,3891,8,6,907,1741,1850,2051,2217,2083,1839,1884,2021
143134,18308,-16680,17196,-15572,-3800,2692,14,17,-47,-39,141,3938,10,-7,907,1741,1850,2051,2217,2083,1839,1884,2021
144135,18312,-16684,17196,-15572,-3800,2897,13,18,-44,-46,124,3932,6,6,907,1741,1850,2051,2217,2083,1839,1884,2021
145136,18308,-16684,17196,-15572,-3800,2847,12,19,-41,-48,143,3914,6,0,907,1741,1850,2051,2217,2083,1839,1884,2021
146137,18296,-16684,17196,-15572,-3800,2848,13,20,-43,-64,142,3931,-4,-4,907,1741,1850,2051,2217,2083,1839,1884,2021
147138,18308,-16688,17196,-15572,-3800,2903,12,18,-42,-63,144,3932,-8,7,908,1741,1850,2051,2217,2083,1839,1884,2021
148139,18316,-16692,17196,-15572,-3800,2909,12,18,-44,-54,149,3918,-6,2,907,1741,1850,2051,2217,2083,1839,1884,2021
149140,18308,-16688,17196,-15572,-3800,2804,11,18,-45,-83,135,3922,-9,-5,907,1741,1850,2051,2217,2083,1839,1884,2021
150141,18316,-16700,17196,-15572,-3800,3019,11,20,-46,-68,151,3920,-8,8,907,1741,1850,2051,2217,2083,1839,1884,2021
151142,18308,-16696,17196,-15572,-3800,2815,13,20,-44,-68,146,3930,-9,-5,907,1741,1850,2051,2217,2083,1839,1884,2021
152143,18304,-16688,17196,-15572,-3800,2755,12,19,-41,-47,144,3926,-7,0,907,1741,1850,2051,2217,2083,1839,1884,2021
153144,18308,-16696,17196,-15572,-3800,2966,12,20,-41,-58,153,3960,-1,8,907,1741,1850,2051,2217,2083,1839,1884,2021
154145,18312,-16692,17196,-15572,-3800,2811,13,21,-44,-62,173,3921,5,-4,908,1741,1850,2051,2217,2083,1839,1884,2021
155146,18312,-16692,17196,-15572,-3800,2862,12,22,-45,-50,174,3939,10,5,907,1741,1850,2051,2217,2083,1839,1884,2021
156147,18316,-16680,17196,-15572,-3800,2697,12,20,-44,-74,185,3935,4,8,906,1741,1850,2051,2217,2083,1839,1884,2021
157148,18304,-16684,17196,-15572,-3800,2903,11,18,-43,-56,177,3921,8,-2,906,1741,1850,2051,2217,2083,1839,1884,2021
158149,18304,-16688,17196,-15572,-3800,2908,11,19,-43,-52,152,3929,4,-1,908,1741,1850,2051,2217,2083,1839,1884,2021
159150,18312,-16672,17196,-15572,-3800,2638,12,18,-44,-61,133,3922,-7,7,907,1741,1850,2051,2217,2083,1839,1884,2021
160151,18312,-16688,17196,-15572,-3800,3059,12,17,-44,-58,136,3907,-6,-5,907,1741,1850,2051,2217,2083,1839,1884,2021
161152,18316,-16692,17196,-15572,-3800,2914,13,16,-44,-69,157,3933,-9,6,907,1741,1850,2051,2217,2083,1839,1884,2021
162153,18300,-16684,17196,-15572,-3800,2755,13,18,-45,-75,136,3952,-6,2,908,1741,1850,2051,2217,2083,1839,1884,2021
163154,18308,-16692,17196,-15572,-3800,2965,12,18,-46,-72,146,3936,-6,-7,908,1741,1850,2051,2217,2083,1839,1884,2021
164155,18308,-16692,17196,-15572,-3800,2865,12,18,-44,-48,162,3926,-1,7,907,1741,1850,2051,2217,2083,1839,1884,2021
165156,18312,-16676,17196,-15572,-3800,2646,12,19,-41,-54,143,3934,5,0,907,1741,1850,2051,2217,2083,1839,1884,2021
166157,18316,-16688,17196,-15572,-3800,3011,11,18,-44,-64,114,3932,-3,-7,907,1741,1850,2051,2217,2083,1839,1884,2021
167158,18312,-16684,17196,-15572,-3800,2807,13,18,-44,-89,115,3919,0,6,907,1741,1850,2051,2217,2083,1839,1884,2021
168159,18304,-16680,17196,-15572,-3800,2802,12,19,-45,-51,141,3929,6,1,907,1741,1850,2051,2217,2083,1839,1884,2021
169160,18308,-16680,17196,-15572,-3800,2853,12,22,-47,-46,140,3935,3,-7,907,1741,1850,2051,2217,2083,1839,1884,2021
170161,18308,-16692,17196,-15572,-3800,3018,11,17,-48,-41,155,3889,8,6,907,1741,1850,2051,2217,2083,1839,1884,2021
171162,18308,-16692,17196,-15572,-3800,2868,13,17,-46,-83,167,3927,10,4,908,1741,1850,2051,2217,2083,1839,1884,2021
172163,18316,-16684,17196,-15572,-3800,2759,15,18,-46,-64,169,3922,8,-6,907,1741,1850,2051,2217,2083,1839,1884,2021
173164,18308,-16688,17196,-15572,-3800,2914,13,18,-46,-58,158,3945,10,-3,906,1741,1850,2051,2217,2083,1839,1884,2021
174165,18308,-16688,17196,-15572,-3800,2865,10,18,-45,-62,134,3896,10,5,906,1741,1850,2051,2217,2083,1839,1884,2021
175166,18312,-16692,17196,-15572,-3800,2920,13,22,-45,-64,123,3935,8,6,907,1741,1850,2051,2217,2083,1839,1884,2021
176167,18308,-16692,17196,-15572,-3800,2871,13,20,-48,-56,135,3921,10,-7,907,1741,1850,2051,2217,2083,1839,1884,2021
177168,18312,-16692,17196,-15572,-3800,2871,13,19,-47,-63,136,3939,10,3,907,1741,1850,2051,2217,2083,1839,1884,2021
178169,18308,-16688,17196,-15572,-3800,2816,12,18,-48,-66,117,3903,9,8,907,1741,1850,2051,2217,2083,1839,1884,2021
179170,18300,-16688,17196,-15572,-3800,2867,11,19,-49,-70,129,3917,2,-5,907,1741,1850,2051,2217,2083,1839,1884,2021
180171,18312,-16680,17196,-15572,-3800,2757,12,19,-49,-75,160,3938,-2,-6,907,1741,1850,2051,2217,2083,1839,1884,2021
181172,18304,-16696,17196,-15572,-3800,3078,13,18,-46,-50,164,3950,-4,3,907,1741,1850,2051,2217,2083,1839,1884,2021
182173,18304,-16688,17196,-15572,-3800,2768,13,17,-44,-60,157,3932,-7,3,907,1741,1850,2051,2217,2083,1839,1884,2021
183174,18312,-16684,17196,-15572,-3800,2814,14,18,-45,-68,147,3946,-8,-7,907,1741,1850,2051,2217,2083,1839,1884,2021
184175,18312,-16680,17196,-15572,-3800,2809,15,21,-47,-62,136,3930,-7,3,907,1741,1850,2051,2217,2083,1839,1884,2021
185176,18308,-16684,17196,-15572,-3800,2914,14,22,-47,-54,120,3910,-9,-4,907,1741,1850,2051,2217,2083,1839,1884,2021
186177,18300,-16684,17196,-15572,-3800,2865,11,21,-45,-45,147,3935,-9,-4,907,1741,1850,2051,2217,2083,1839,1884,2021
187178,18308,-16688,17196,-15572,-3800,2920,12,18,-46,-69,157,3931,-8,7,907,1741,1850,2051,2217,2083,1839,1884,2021
188179,18296,-16688,17196,-15572,-3800,2871,13,16,-49,-53,154,3882,-6,-5,907,1741,1850,2051,2217,2083,1839,1884,2021
189180,18316,-16692,17196,-15572,-3800,2926,15,17,-48,-73,174,3916,-8,-1,907,1741,1850,2051,2217,2083,1839,1884,2021
190181,18308,-16684,17196,-15572,-3800,2766,14,17,-48,-55,171,3952,-9,7,907,1741,1850,2051,2217,2083,1839,1884,2021
191182,18312,-16684,17196,-15572,-3800,2867,12,18,-49,-59,162,3926,-7,-2,906,1741,1850,2051,2217,2083,1839,1884,2021
192183,18296,-16696,17196,-15572,-3800,3032,13,20,-47,-42,138,3894,-8,-6,907,1741,1850,2051,2217,2083,1839,1884,2021
193184,18308,-16692,17196,-15572,-3800,2828,13,19,-48,-71,129,3903,-2,7,907,1741,1850,2051,2217,2083,1839,1884,2021
194185,18324,-16688,17196,-15572,-3800,2823,12,19,-49,-43,141,3932,-2,-6,907,1741,1850,2051,2217,2083,1839,1884,2021
195186,18312,-16708,17196,-15572,-3800,3148,13,18,-47,-44,141,3951,-6,1,907,1741,1850,2051,2217,2083,1839,1884,2021
196187,18304,-16688,17196,-15572,-3800,2624,12,17,-45,-51,166,3922,-6,5,907,1741,1850,2051,2217,2083,1839,1884,2021
197188,18304,-16700,17196,-15572,-3800,3038,13,19,-46,-44,137,3938,-8,-5,907,1741,1850,2051,2217,2083,1839,1884,2021
198189,18312,-16700,17196,-15572,-3800,2889,15,19,-45,-36,142,3928,-9,6,907,1741,1850,2051,2217,2083,1839,1884,2021
199190,18308,-16692,17196,-15572,-3800,2780,16,20,-44,-68,157,3965,-7,1,907,1741,1850,2051,2217,2083,1839,1884,2021
200191,18312,-16688,17261,-15507,-908,1816,14,16,-44,-74,152,3952,-5,-5,907,1741,1850,2051,2217,2083,1839,1884,2021
201192,18308,-16688,17326,-15442,-725,1945,14,13,-45,-43,163,3916,-7,7,907,1741,1850,2051,2217,2083,1839,1884,2021
202193,18304,-16692,17391,-15377,-641,2080,12,20,-45,-42,148,3897,-3,9,892,1741,1850,2051,2217,2083,1839,1884,2021
203194,18304,-16668,17456,-15312,-613,1781,11,5,-40,-89,162,3846,14,19,891,1741,1850,2051,2217,2083,1839,1884,2021
204195,18312,-16588,17521,-15247,-643,1062,10,4,-39,-123,137,4016,9,39,889,1741,1850,2051,2217,2083,1839,1884,2021
205196,18312,-16504,17586,-15182,-464,990,12,-6,-46,-259,200,4077,-2,46,894,1741,1850,2051,2217,2083,1839,1884,2021
206197,18308,-16380,17651,-15117,-331,418,6,-48,-54,-370,172,4228,-1,50,894,1741,1850,2051,2217,2083,1839,1884,2021
207198,18320,-16284,17716,-15052,-466,731,18,-73,-61,-275,126,4121,-4,63,900,1741,1850,2051,2217,2083,1839,1884,2021
208199,18308,-16172,17781,-14987,-72,474,26,-78,-66,11,92,4185,14,60,904,1741,1850,2051,2217,2083,1839,1884,2021
209200,18312,-16056,17846,-14922,-197,363,17,-70,-75,205,88,3976,2,69,903,1741,1850,2051,2217,2083,1839,1884,2021
210201,18312,-15940,17911,-14857,-68,301,0,-43,-85,145,3,3944,10,57,904,1741,1850,2051,2217,2083,1839,1884,2021
211202,18300,-15836,17976,-14792,175,404,-22,-4,-108,129,20,3819,3,72,895,1741,1850,2051,2217,2083,1839,1884,2021
212203,18312,-15712,18041,-14727,-60,82,-43,18,-132,-25,8,3880,-1,57,905,1741,1850,2051,2217,2083,1839,1884,2021
213204,18312,-15620,18106,-14662,169,449,-59,31,-141,-101,-38,3782,-2,56,905,1741,1850,2051,2217,2083,1839,1884,2021
214205,18312,-15496,18171,-14597,248,-22,-61,3,-143,-39,-44,3791,13,66,907,1741,1850,2051,2217,2083,1839,1884,2021
215206,18304,-15384,18236,-14532,437,71,-56,-47,-143,-578,-16,4097,10,61,905,1741,1850,2051,2217,2083,1839,1884,2021
216207,18308,-15284,18301,-14467,362,178,-39,-134,-142,-575,5,3968,17,56,906,1741,1850,2051,2217,2083,1839,1884,2021
217208,18308,-15164,18366,-14402,491,-138,-24,-198,-135,-679,-30,4393,6,54,905,1741,1850,2051,2217,2083,1839,1884,2021
218209,18316,-15068,18431,-14337,461,124,-13,-252,-139,-460,15,4201,21,53,905,1741,1850,2051,2217,2083,1839,1884,2021
219210,18336,-14952,18496,-14272,366,-188,-3,-260,-134,-264,-1,4405,23,66,904,1741,1850,2051,2217,2083,1839,1884,2021
220211,18344,-14864,18561,-14207,585,135,-9,-245,-144,-111,51,4365,24,64,904,1741,1850,2051,2217,2083,1839,1884,2021
221212,18368,-14752,18626,-14142,435,-223,-12,-205,-144,1,-25,4143,16,47,905,1741,1850,2051,2217,2083,1839,1884,2021
222213,18376,-14680,18691,-14077,705,269,-18,-148,-153,240,90,4297,15,59,904,1741,1850,2051,2217,2083,1839,1884,2021
223214,18400,-14580,18756,-14012,555,-124,-24,-97,-156,195,20,4032,10,57,904,1741,1850,2051,2217,2083,1839,1884,2021
224215,18444,-14504,18821,-13947,332,163,-35,-72,-167,55,10,4048,27,43,901,1741,1850,2051,2217,2083,1839,1884,2021
225216,18464,-14428,18886,-13882,687,150,-44,-78,-173,-256,2,3982,36,43,903,1741,1850,2051,2217,2083,1839,1884,2021
226217,18512,-14352,18951,-13817,357,137,-49,-110,-179,-505,73,3976,25,52,905,1741,1850,2051,2217,2083,1839,1884,2021
227218,18544,-14288,19016,-13752,598,288,-54,-168,-188,-577,25,3852,35,52,903,1741,1850,2051,2217,2083,1839,1884,2021
228219,18588,-14204,19081,-13687,473,15,-57,-234,-192,-590,44,3905,23,37,905,1741,1850,2051,2217,2083,1839,1884,2021
229220,18648,-14128,19146,-13622,279,102,-60,-301,-190,-649,11,3900,35,48,903,1741,1850,2051,2217,2083,1839,1884,2021
230221,18684,-14060,19211,-13557,616,199,-61,-332,-198,-539,-5,3868,23,35,905,1741,1850,2051,2217,2083,1839,1884,2021
231222,18732,-14024,19276,-13492,487,634,-55,-328,-205,-231,-109,3979,25,41,905,1741,1850,2051,2217,2083,1839,1884,2021
232223,18780,-13940,19341,-13427,507,11,-46,-300,-206,-20,-112,4023,46,47,903,1741,1850,2051,2217,2083,1839,1884,2021
233224,18840,-13884,19406,-13362,363,372,-37,-252,-201,-26,-145,3867,45,43,902,1741,1850,2051,2217,2083,1839,1884,2021
234225,18896,-13812,19471,-13297,424,163,-31,-207,-196,-11,-118,3971,31,34,905,1741,1850,2051,2217,2083,1839,1884,2021
235226,18948,-13772,19536,-13232,491,595,-18,-162,-192,-41,-101,3973,36,44,904,1741,1850,2051,2217,2083,1839,1884,2021
236227,19012,-13688,19601,-13167,342,21,-11,-144,-181,-66,-109,3978,45,33,905,1741,1850,2051,2217,2083,1839,1884,2021
237228,19072,-13636,19666,-13102,399,437,10,-157,-169,-276,-23,3868,49,39,902,1741,1850,2051,2217,2083,1839,1884,2021
238229,19132,-13600,19731,-13037,405,673,5,-150,-155,-471,-5,3908,45,40,905,1741,1850,2051,2217,2083,1839,1884,2021
239230,19208,-13544,19796,-12972,192,435,12,-147,-149,-292,30,3812,41,35,904,1741,1850,2051,2217,2083,1839,1884,2021
240231,19276,-13480,19861,-12907,289,336,0,-153,-141,-201,16,3567,49,44,902,1741,1850,2051,2217,2083,1839,1884,2021
241232,19344,-13404,19926,-12842,285,173,5,-152,-129,-293,107,3707,32,44,904,1741,1850,2051,2217,2083,1839,1884,2021
242233,19400,-13348,19991,-12777,446,434,1,-171,-113,-440,130,3647,41,41,904,1741,1850,2051,2217,2083,1839,1884,2021
243234,19464,-13304,20056,-12712,347,609,5,-174,-109,-346,111,3895,35,32,905,1741,1850,2051,2217,2083,1839,1884,2021
244235,19520,-13248,20121,-12647,459,471,4,-138,-113,-112,129,3881,45,41,903,1741,1850,2051,2217,2083,1839,1884,2021
245236,19604,-13180,20186,-12582,86,317,9,-114,-106,-1,38,3801,29,36,903,1741,1850,2051,2217,2083,1839,1884,2021
246237,19652,-13128,20251,-12517,557,533,14,-113,-91,-146,37,3767,46,37,903,1741,1850,2051,2217,2083,1839,1884,2021
247238,19716,-13064,20316,-12452,358,385,41,-113,-94,-194,117,3917,48,32,906,1741,1850,2051,2217,2083,1839,1884,2021
248239,19780,-13012,20381,-12387,360,551,55,-123,-92,-27,85,3813,36,36,902,1741,1850,2051,2217,2083,1839,1884,2021
249240,19852,-12968,20446,-12322,252,677,78,-104,-87,-13,-1,3868,32,38,904,1741,1850,2051,2217,2083,1839,1884,2021
250241,19932,-12900,20511,-12257,133,373,97,-64,-85,82,82,3787,44,31,903,1741,1850,2051,2217,2083,1839,1884,2021
251242,19980,-12836,20576,-12192,554,425,109,-47,-64,24,21,3791,45,30,903,1741,1850,2051,2217,2083,1839,1884,2021
252243,20048,-12780,20641,-12127,300,536,131,-25,-49,-5,52,3903,29,35,905,1741,1850,2051,2217,2083,1839,1884,2021
253244,20096,-12740,20706,-12062,572,767,135,-20,-45,-43,80,3736,32,28,903,1741,1850,2051,2217,2083,1839,1884,2021
254245,20144,-12672,20771,-11997,593,413,140,-10,-47,-34,70,3760,38,42,903,1741,1850,2051,2217,2083,1839,1884,2021
255246,20228,-12608,20836,-11932,120,465,144,-15,-40,77,99,3719,33,33,900,1741,1850,2051,2217,2083,1839,1884,2021
256247,20296,-12572,20901,-11867,316,850,151,-34,-27,7,149,3740,44,42,903,1741,1850,2051,2217,2083,1839,1884,2021
257248,20360,-12492,20966,-11802,368,283,151,-75,-22,-116,133,3740,40,38,904,1741,1850,2051,2217,2083,1839,1884,2021
258249,20420,-12424,21031,-11737,424,429,153,-94,-20,-191,167,3865,37,41,900,1741,1850,2051,2217,2083,1839,1884,2021
259250,20484,-12380,21096,-11672,376,755,148,-87,-15,-11,139,3917,29,46,903,1741,1850,2051,2217,2083,1839,1884,2021
260251,20564,-12304,21161,-11607,157,342,143,-80,-12,128,170,3889,32,35,903,1741,1850,2051,2217,2083,1839,1884,2021
261252,20616,-12244,21226,-11542,523,548,137,-82,-17,175,174,3927,29,43,901,1741,1850,2051,2217,2083,1839,1884,2021
262253,20672,-12184,21291,-11477,485,555,139,-94,-16,118,195,4085,25,34,905,1741,1850,2051,2217,2083,1839,1884,2021
263254,20728,-12120,21356,-11412,496,506,144,-102,-11,95,200,4073,31,41,902,1741,1850,2051,2217,2083,1839,1884,2021
264255,20800,-12040,21421,-11347,288,288,151,-111,-16,109,168,4158,47,37,902,1741,1850,2051,2217,2083,1839,1884,2021
265256,20860,-11992,21486,-11282,444,709,160,-99,-17,150,136,4137,44,37,902,1741,1850,2051,2217,2083,1839,1884,2021
266257,20924,-11940,21551,-11217,396,675,179,-95,-17,146,145,3998,37,28,905,1741,1850,2051,2217,2083,1839,1884,2021
267258,20972,-11880,21616,-11152,617,581,198,-91,-34,-3,85,4088,43,46,901,1741,1850,2051,2217,2083,1839,1884,2021
268259,21044,-11808,21681,-11087,308,424,226,-105,-50,-108,88,4112,44,35,902,1741,1850,2051,2217,2083,1839,1884,2021
269260,21084,-11752,21746,-11022,739,635,245,-108,-61,-240,150,4123,32,42,901,1741,1850,2051,2217,2083,1839,1884,2021
270261,21148,-11688,21811,-10957,441,536,251,-94,-75,-135,198,4170,24,41,904,1741,1850,2051,2217,2083,1839,1884,2021
271262,21204,-11628,21876,-10892,552,593,254,-79,-86,80,267,4337,44,30,900,1741,1850,2051,2217,2083,1839,1884,2021
272263,21264,-11576,21941,-10827,508,709,258,-89,-90,-117,317,4082,47,44,902,1741,1850,2051,2217,2083,1839,1884,2021
273264,21324,-11500,22006,-10762,514,395,261,-86,-99,-248,340,4232,30,32,902,1741,1850,2051,2217,2083,1839,1884,2021
274265,21372,-11444,22071,-10697,686,656,260,-89,-109,-179,325,4037,40,35,901,1741,1850,2051,2217,2083,1839,1884,2021
275266,21432,-11376,22136,-10632,542,504,261,-102,-121,-231,278,4076,30,45,901,1741,1850,2051,2217,2083,1839,1884,2021
276267,21492,-11332,22201,-10567,548,829,259,-93,-131,-251,309,4073,48,39,899,1741,1850,2051,2217,2083,1839,1884,2021
277268,21532,-11252,22266,-10502,828,361,258,-96,-135,-114,338,4106,29,32,902,1741,1850,2051,2217,2083,1839,1884,2021
278269,21600,-11200,22331,-10437,476,727,265,-96,-149,16,323,4200,38,38,899,1741,1850,2051,2217,2083,1839,1884,2021
279270,21652,-11124,22396,-10372,692,414,268,-110,-145,-47,253,4002,52,31,901,1741,1850,2051,2217,2083,1839,1884,2021
280271,21724,-11064,22461,-10307,433,621,278,-139,-147,-184,184,4104,47,36,901,1741,1850,2051,2217,2083,1839,1884,2021
281272,21796,-11012,22526,-10242,426,736,275,-152,-152,-371,228,3991,54,34,902,1741,1850,2051,2217,2083,1839,1884,2021
282273,21880,-10956,22591,-10177,252,698,264,-143,-153,-261,252,3912,33,33,902,1741,1850,2051,2217,2083,1839,1884,2021
283274,21928,-10884,22656,-10112,723,490,268,-106,-149,-59,171,4131,33,28,902,1741,1850,2051,2217,2083,1839,1884,2021
284275,22000,-10836,22721,-10047,415,811,277,-67,-157,11,203,4220,40,39,903,1741,1850,2051,2217,2083,1839,1884,2021
285276,22064,-10756,22786,-9982,517,393,292,-43,-168,-108,202,4120,39,46,901,1741,1850,2051,2217,2083,1839,1884,2021
286277,22144,-10700,22851,-9917,299,704,301,-15,-180,-356,366,4179,31,32,901,1741,1850,2051,2217,2083,1839,1884,2021
287278,22212,-10620,22916,-9852,445,386,316,5,-183,-198,331,4157,34,29,903,1741,1850,2051,2217,2083,1839,1884,2021
288279,22268,-10560,22981,-9787,606,642,319,26,-190,-109,328,4209,49,38,902,1741,1850,2051,2217,2083,1839,1884,2021
289280,22356,-10504,23046,-9722,179,704,318,39,-201,-435,426,4007,50,41,904,1741,1850,2051,2217,2083,1839,1884,2021
290281,22404,-10468,23111,-9657,700,989,310,71,-213,-538,507,4204,43,33,901,1741,1850,2051,2217,2083,1839,1884,2021
291282,22476,-10396,23176,-9592,391,531,302,95,-214,-415,355,4226,27,37,902,1741,1850,2051,2217,2083,1839,1884,2021
292283,22532,-10348,23241,-9527,603,853,301,93,-217,-456,512,3995,51,31,897,1741,1850,2051,2217,2083,1839,1884,2021
293284,22604,-10276,23306,-9462,394,544,303,77,-224,-607,434,4042,42,30,902,1741,1850,2051,2217,2083,1839,1884,2021
294285,22664,-10220,23371,-9397,551,755,303,69,-227,-520,412,4116,33,32,899,1741,1850,2051,2217,2083,1839,1884,2021
295286,22724,-10180,23436,-9332,557,987,297,67,-229,-369,480,3911,43,36,903,1741,1850,2051,2217,2083,1839,1884,2021
296287,22804,-10100,23501,-9267,289,468,296,85,-236,-167,390,4056,46,32,901,1741,1850,2051,2217,2083,1839,1884,2021
297288,22868,-10048,23566,-9202,491,834,300,88,-231,-130,377,3943,37,43,898,1741,1850,2051,2217,2083,1839,1884,2021
298289,22928,-9972,23631,-9137,547,521,301,65,-216,-413,269,3717,50,29,904,1741,1850,2051,2217,2083,1839,1884,2021
299290,22984,-9924,23696,-9072,608,893,303,77,-220,-302,407,3950,45,31,900,1741,1850,2051,2217,2083,1839,1884,2021
300291,23068,-9848,23761,-9007,235,529,286,53,-209,-124,297,3373,44,28,902,1741,1850,2051,2217,2083,1839,1884,2021
301292,23132,-9820,23826,-8942,487,1174,287,45,-199,-87,236,3887,33,33,899,1741,1850,2051,2217,2083,1839,1884,2021
302293,23192,-9748,23891,-8877,543,617,280,45,-189,-98,255,3699,32,32,903,1741,1850,2051,2217,2083,1839,1884,2021
303294,23260,-9692,23956,-8812,439,828,276,47,-188,-139,263,3735,49,32,897,1741,1850,2051,2217,2083,1839,1884,2021
304295,23332,-9616,24021,-8747,382,564,259,35,-170,-19,198,3725,49,31,902,1741,1850,2051,2217,2083,1839,1884,2021
305296,23392,-9576,24086,-8682,538,1046,255,30,-165,84,301,3898,42,31,900,1741,1850,2051,2217,2083,1839,1884,2021
306298,23460,-9512,24151,-8617,434,747,242,12,-160,-18,204,3801,41,40,898,1741,1850,2051,2217,2083,1839,1884,2021
307298,23524,-9456,24216,-8552,485,858,240,-3,-162,-15,317,3890,38,37,901,1741,1850,2051,2217,2083,1839,1884,2021
308299,23596,-9416,24281,-8487,378,1090,221,-17,-151,-160,152,3679,40,29,899,1741,1850,2051,2217,2083,1839,1884,2021
309300,23648,-9340,24346,-8422,644,626,210,-32,-148,-71,211,3945,49,33,897,1741,1850,2051,2217,2083,1839,1884,2021
310301,23696,-9280,24411,-8357,714,832,210,-26,-154,-10,339,3943,32,44,901,1741,1850,2051,2217,2083,1839,1884,2021
311302,23780,-9228,24476,-8292,242,949,205,-53,-159,-113,304,3931,50,44,899,1741,1850,2051,2217,2083,1839,1884,2021
312303,23836,-9152,24541,-8227,603,636,201,-61,-159,-96,336,4086,33,33,900,1741,1850,2051,2217,2083,1839,1884,2021
313304,23900,-9108,24606,-8162,504,1062,193,-92,-146,-160,230,3667,30,41,901,1741,1850,2051,2217,2083,1839,1884,2021
314305,23960,-9036,24671,-8097,560,704,201,-80,-158,-80,330,4075,31,40,898,1741,1850,2051,2217,2083,1839,1884,2021
315306,24016,-8984,24736,-8032,622,970,203,-87,-164,-74,281,3812,34,29,901,1741,1850,2051,2217,2083,1839,1884,2021
316307,24072,-8924,24801,-7967,633,877,231,-74,-179,-49,377,4161,31,39,898,1741,1850,2051,2217,2083,1839,1884,2021
317308,24128,-8872,24866,-7902,644,993,239,-62,-193,-140,352,3770,34,42,899,1741,1850,2051,2217,2083,1839,1884,2021
318309,24192,-8820,24931,-7837,546,1008,252,-54,-204,-27,379,3882,41,39,898,1741,1850,2051,2217,2083,1839,1884,2021
319310,24260,-8768,24996,-7772,493,1025,268,-62,-210,95,469,3835,49,37,898,1741,1850,2051,2217,2083,1839,1884,2021
320311,24328,-8700,25061,-7707,489,822,288,-90,-218,53,455,3748,42,42,899,1741,1850,2051,2217,2083,1839,1884,2021
321312,24408,-8648,25126,-7642,321,1038,302,-114,-222,21,495,3758,48,32,900,1741,1850,2051,2217,2083,1839,1884,2021
322313,24476,-8580,25191,-7577,468,835,323,-137,-220,141,602,3855,36,32,899,1741,1850,2051,2217,2083,1839,1884,2021
323314,24540,-8524,25256,-7512,520,996,329,-144,-219,185,515,3633,33,34,900,1741,1850,2051,2217,2083,1839,1884,2021
324315,24612,-8464,25321,-7447,411,953,322,-175,-206,-17,403,3546,42,39,899,1741,1850,2051,2217,2083,1839,1884,2021
325316,24696,-8396,25386,-7382,238,849,313,-170,-197,116,482,3877,37,29,898,1741,1850,2051,2217,2083,1839,1884,2021
326317,24740,-8344,25451,-7317,764,1065,305,-152,-190,397,364,3744,41,28,900,1741,1850,2051,2217,2083,1839,1884,2021
327318,24816,-8280,25516,-7252,351,917,300,-142,-179,375,365,3922,31,38,897,1741,1850,2051,2217,2083,1839,1884,2021
328319,24864,-8228,25581,-7187,722,1083,303,-137,-166,176,332,3949,35,38,900,1741,1850,2051,2217,2083,1839,1884,2021
329320,24932,-8164,25646,-7122,468,935,301,-142,-157,171,294,3976,29,39,896,1741,1850,2051,2217,2083,1839,1884,2021
330321,25004,-8096,25711,-7057,411,882,312,-138,-153,317,257,4036,31,33,899,1741,1850,2051,2217,2083,1839,1884,2021
331322,25052,-8040,25776,-6992,731,1043,336,-145,-152,316,295,4049,40,43,900,1741,1850,2051,2217,2083,1839,1884,2021
332323,25116,-7988,25841,-6927,533,1110,355,-141,-158,271,271,4205,45,27,896,1741,1850,2051,2217,2083,1839,1884,2021
333324,25176,-7956,25906,-6862,589,1400,368,-119,-181,313,356,4237,47,30,897,1741,1850,2051,2217,2083,1839,1884,2021
334325,25244,-7888,25971,-6797,486,947,387,-113,-191,237,328,4152,31,39,894,1741,1850,2051,2217,2083,1839,1884,2021
335326,25292,-7820,26036,-6732,757,944,408,-108,-197,177,355,4175,37,30,899,1741,1850,2051,2217,2083,1839,1884,2021
336327,25344,-7764,26101,-6667,723,1105,418,-100,-214,176,418,4207,48,39,897,1741,1850,2051,2217,2083,1839,1884,2021
337328,25412,-7712,26166,-6602,520,1171,432,-98,-236,101,434,4212,39,31,896,1741,1850,2051,2217,2083,1839,1884,2021
338329,25448,-7664,26231,-6537,955,1242,444,-97,-254,128,473,4050,42,30,897,1741,1850,2051,2217,2083,1839,1884,2021
339330,25532,-7616,26296,-6472,332,1264,451,-92,-259,148,493,3946,34,40,893,1741,1850,2051,2217,2083,1839,1884,2021
340331,25608,-7556,26361,-6407,419,1120,451,-100,-254,32,498,3766,40,43,897,1741,1850,2051,2217,2083,1839,1884,2021
341332,25684,-7500,26426,-6342,406,1182,458,-96,-258,9,540,3900,42,31,898,1741,1850,2051,2217,2083,1839,1884,2021
342333,25736,-7416,26491,-6277,722,809,461,-114,-257,-71,381,3612,44,34,897,1741,1850,2051,2217,2083,1839,1884,2021
343334,25820,-7364,26556,-6212,299,1225,467,-118,-249,29,489,3953,29,33,898,1741,1850,2051,2217,2083,1839,1884,2021
344335,25876,-7292,26621,-6147,661,967,473,-103,-242,163,495,3907,46,32,898,1741,1850,2051,2217,2083,1839,1884,2021
345336,25952,-7244,26686,-6082,397,1288,480,-89,-230,243,362,3830,46,41,897,1741,1850,2051,2217,2083,1839,1884,2021
346337,26000,-7172,26751,-6017,768,980,473,-82,-211,312,400,4044,46,41,897,1741,1850,2051,2217,2083,1839,1884,2021
347338,26080,-7104,26816,-5952,350,1027,485,-70,-194,226,357,4020,40,42,897,1741,1850,2051,2217,2083,1839,1884,2021
348339,26132,-7040,26881,-5887,717,1079,482,-95,-181,248,297,4061,36,45,899,1741,1850,2051,2217,2083,1839,1884,2021
349340,26188,-6996,26946,-5822,678,1355,492,-95,-174,163,248,4087,30,46,896,1741,1850,2051,2217,2083,1839,1884,2021
350341,26260,-6920,27011,-5757,469,941,485,-107,-168,362,209,4182,43,48,894,1741,1850,2051,2217,2083,1839,1884,2021
351342,26320,-6860,27076,-5692,626,1148,490,-120,-155,314,32,4185,44,36,899,1741,1850,2051,2217,2083,1839,1884,2021
352343,26380,-6796,27141,-5627,632,1100,477,-176,-146,-5,119,4359,44,45,896,1741,1850,2051,2217,2083,1839,1884,2021
353344,26436,-6724,27206,-5562,693,992,469,-192,-144,140,81,4223,47,38,896,1741,1850,2051,2217,2083,1839,1884,2021
354345,26512,-6664,27271,-5497,430,1148,451,-212,-137,336,168,4277,44,33,897,1741,1850,2051,2217,2083,1839,1884,2021
355346,26568,-6604,27336,-5432,692,1155,431,-229,-138,333,187,4022,50,45,897,1741,1850,2051,2217,2083,1839,1884,2021
356347,26632,-6552,27401,-5367,593,1271,402,-241,-136,172,214,4030,32,33,895,1741,1850,2051,2217,2083,1839,1884,2021
357348,26688,-6488,27466,-5302,704,1123,371,-257,-130,73,290,4084,48,40,895,1741,1850,2051,2217,2083,1839,1884,2021
358349,26744,-6424,27531,-5237,716,1124,338,-245,-133,234,343,3990,46,43,895,1741,1850,2051,2217,2083,1839,1884,2021
359350,26812,-6360,27596,-5172,563,1126,310,-217,-130,212,197,4054,41,30,895,1741,1850,2051,2217,2083,1839,1884,2021
360351,26880,-6316,27661,-5107,559,1402,303,-190,-121,278,240,4095,33,30,895,1741,1850,2051,2217,2083,1839,1884,2021
361352,26920,-6264,27726,-5042,940,1318,289,-189,-121,75,228,3694,43,27,894,1741,1850,2051,2217,2083,1839,1884,2021
362353,26992,-6188,27791,-4977,532,1006,293,-189,-131,-114,264,3757,48,29,892,1741,1850,2051,2217,2083,1839,1884,2021
363354,27068,-6144,27856,-4912,468,1431,289,-197,-138,-20,402,3734,46,39,898,1741,1850,2051,2217,2083,1839,1884,2021
364355,27136,-6112,27921,-4847,565,1623,304,-209,-136,-59,337,3580,53,32,894,1741,1850,2051,2217,2083,1839,1884,2021
365356,27204,-6048,27986,-4782,562,1224,312,-230,-132,-30,341,3699,50,30,891,1741,1850,2051,2217,2083,1839,1884,2021
366357,27272,-5996,28051,-4717,558,1391,328,-240,-118,-121,368,3678,40,35,895,1741,1850,2051,2217,2083,1839,1884,2021
367358,27344,-5956,28116,-4652,500,1571,329,-253,-98,-111,392,3791,47,27,894,1741,1850,2051,2217,2083,1839,1884,2021
368359,27404,-5928,28181,-4587,657,1767,331,-239,-92,108,295,3846,34,21,892,1741,1850,2051,2217,2083,1839,1884,2021
369360,27468,-5864,28246,-4522,608,1319,326,-230,-85,131,206,3782,47,28,889,1741,1850,2051,2217,2083,1839,1884,2021
370361,27540,-5828,28311,-4457,500,1705,323,-208,-60,191,271,4012,31,34,894,1741,1850,2051,2217,2083,1839,1884,2021
371362,27612,-5792,28376,-4392,491,1740,316,-189,-24,171,247,3990,28,25,891,1741,1850,2051,2217,2083,1839,1884,2021
372363,27644,-5736,28441,-4327,1032,1502,307,-171,1,249,213,4066,47,23,890,1741,1850,2051,2217,2083,1839,1884,2021
373364,27724,-5696,28506,-4262,414,1733,298,-178,21,227,263,4108,45,34,889,1741,1850,2051,2217,2083,1839,1884,2021
374365,27764,-5644,28571,-4197,945,1600,284,-180,46,193,278,4262,52,34,891,1741,1850,2051,2217,2083,1839,1884,2021
375366,27828,-5604,28636,-4132,647,1780,258,-184,68,126,123,4052,29,31,889,1741,1850,2051,2217,2083,1839,1884,2021
376367,27888,-5544,28701,-4067,703,1537,242,-146,79,265,200,4262,42,30,888,1741,1850,2051,2217,2083,1839,1884,2021
377368,27936,-5492,28766,-4002,874,1654,218,-111,93,394,124,4056,42,28,890,1741,1850,2051,2217,2083,1839,1884,2021
378369,27996,-5412,28831,-3937,731,1286,202,-76,98,454,155,4105,38,32,889,1741,1850,2051,2217,2083,1839,1884,2021
379370,28044,-5364,28896,-3872,902,1708,200,-69,85,419,263,4032,38,46,894,1741,1850,2051,2217,2083,1839,1884,2021
380371,28104,-5292,28961,-3807,758,1399,202,-121,67,154,290,3892,49,33,889,1741,1850,2051,2217,2083,1839,1884,2021
381372,28160,-5236,29026,-3742,820,1611,225,-159,39,283,462,3951,55,41,893,1741,1850,2051,2217,2083,1839,1884,2021
382373,28216,-5180,29091,-3677,831,1622,239,-186,22,234,389,3953,39,39,890,1741,1850,2051,2217,2083,1839,1884,2021
383374,28304,-5116,29156,-3612,403,1524,258,-225,6,-7,360,3764,34,39,890,1741,1850,2051,2217,2083,1839,1884,2021
384375,28360,-5044,29221,-3547,815,1416,258,-251,1,-224,364,3935,36,48,894,1741,1850,2051,2217,2083,1839,1884,2021
385376,28420,-4988,29286,-3482,771,1628,276,-221,-15,5,560,3919,38,39,891,1741,1850,2051,2217,2083,1839,1884,2021
386377,28496,-4908,29351,-3417,557,1311,281,-195,-24,344,529,3828,35,50,890,1741,1850,2051,2217,2083,1839,1884,2021
387378,28564,-4840,29416,-3352,654,1457,300,-165,-13,347,457,3974,35,43,895,1741,1850,2051,2217,2083,1839,1884,2021
388379,28624,-4784,29481,-3287,761,1619,292,-141,4,315,578,3785,47,44,893,1741,1850,2051,2217,2083,1839,1884,2021
389380,28712,-4724,29546,-3222,383,1575,297,-117,11,256,665,4095,34,48,890,1741,1850,2051,2217,2083,1839,1884,2021
390381,28764,-4648,29611,-3157,848,1363,294,-74,27,308,619,3924,43,45,893,1741,1850,2051,2217,2083,1839,1884,2021
391382,28828,-4592,29676,-3092,701,1624,304,-62,48,233,549,4135,29,35,892,1741,1850,2051,2217,2083,1839,1884,2021
392383,28892,-4524,29741,-3027,702,1471,312,-57,78,77,607,4304,47,30,891,1741,1850,2051,2217,2083,1839,1884,2021
393384,28960,-4464,29806,-2962,648,1578,335,-94,92,25,524,4175,44,45,893,1741,1850,2051,2217,2083,1839,1884,2021
394385,29016,-4400,29871,-2897,810,1529,344,-127,96,-152,512,4348,36,44,891,1741,1850,2051,2217,2083,1839,1884,2021
395386,29072,-4336,29936,-2832,821,1531,357,-159,106,-163,562,4329,42,32,891,1741,1850,2051,2217,2083,1839,1884,2021
396387,29120,-4284,30001,-2767,942,1697,378,-190,100,-64,540,4430,34,33,890,1741,1850,2051,2217,2083,1839,1884,2021
397388,29192,-4212,30066,-2702,634,1440,391,-212,82,58,536,4617,45,38,888,1741,1850,2051,2217,2083,1839,1884,2021
398389,29252,-4188,30131,-2637,790,2090,411,-215,61,318,590,4448,48,30,893,1741,1850,2051,2217,2083,1839,1884,2021
399390,29284,-4116,30196,-2572,1181,1482,424,-215,33,448,505,4310,30,34,885,1741,1850,2051,2217,2083,1839,1884,2021
400391,29356,-4068,30261,-2507,673,1804,435,-221,4,469,583,4464,37,41,888,1741,1850,2051,2217,2083,1839,1884,2021
401392,29416,-4028,30326,-2442,829,1935,439,-225,-25,429,669,4274,45,32,889,1741,1850,2051,2217,2083,1839,1884,2021
402393,29464,-3956,30391,-2377,1000,1527,443,-211,-54,412,644,4402,32,37,886,1741,1850,2051,2217,2083,1839,1884,2021
403394,29548,-3900,30456,-2312,528,1738,450,-208,-84,450,610,4239,52,38,889,1741,1850,2051,2217,2083,1839,1884,2021
404395,29604,-3844,30521,-2247,889,1750,449,-239,-95,193,596,4098,34,45,890,1741,1850,2051,2217,2083,1839,1884,2021
405396,29688,-3784,30586,-2182,516,1707,452,-252,-116,71,711,4039,40,30,887,1741,1850,2051,2217,2083,1839,1884,2021
406397,29752,-3720,30651,-2117,768,1658,441,-274,-130,-51,741,3940,50,42,890,1741,1850,2051,2217,2083,1839,1884,2021
407398,29824,-3652,30716,-2052,659,1606,438,-300,-133,30,780,3983,31,32,890,1741,1850,2051,2217,2083,1839,1884,2021
408399,29872,-3604,30781,-1987,980,1876,448,-329,-128,-81,718,4238,44,34,891,1741,1850,2051,2217,2083,1839,1884,2021
409400,29924,-3528,30846,-1922,947,1514,482,-394,-135,-165,682,4159,42,45,886,1741,1850,2051,2217,2083,1839,1884,2021
410401,29984,-3460,30911,-1857,853,1611,519,-438,-139,-148,621,4448,46,40,890,1741,1850,2051,2217,2083,1839,1884,2021
411402,30072,-3408,30976,-1792,476,1827,565,-445,-150,-69,500,4333,35,46,888,1741,1850,2051,2217,2083,1839,1884,2021
412403,30100,-3340,31041,-1727,1271,1624,594,-445,-148,-90,546,4522,32,33,890,1741,1850,2051,2217,2083,1839,1884,2021
413404,30156,-3284,31106,-1662,932,1786,610,-418,-134,39,618,4522,43,28,887,1741,1850,2051,2217,2083,1839,1884,2021
414405,30224,-3208,31171,-1597,780,1523,630,-338,-114,254,683,4522,45,43,886,1741,1850,2051,2217,2083,1839,1884,2021
415406,30284,-3152,31236,-1532,886,1785,625,-289,-90,147,778,4350,50,32,891,1741,1850,2051,2217,2083,1839,1884,2021
416407,30328,-3092,31301,-1467,1111,1741,631,-244,-70,113,869,4468,50,41,887,1741,1850,2051,2217,2083,1839,1884,2021
417408,30404,-3036,31366,-1402,699,1803,622,-221,-84,78,889,4268,50,32,886,1741,1850,2051,2217,2083,1839,1884,2021
418409,30464,-2964,31431,-1337,905,1596,620,-220,-122,-90,859,4494,50,36,889,1741,1850,2051,2217,2083,1839,1884,2021
419410,30536,-2912,31496,-1272,746,1861,626,-238,-132,-267,820,4418,50,36,890,1741,1850,2051,2217,2083,1839,1884,2021
420411,30592,-2832,31561,-1207,958,1494,630,-259,-169,-327,1000,4523,48,48,888,1741,1850,2051,2217,2083,1839,1884,2021
421412,30664,-2764,31626,-1142,750,1640,632,-298,-209,-208,846,4352,50,40,890,1741,1850,2051,2217,2083,1839,1884,2021
422413,30732,-2696,31691,-1077,796,1638,653,-359,-249,26,650,4515,46,48,890,1741,1850,2051,2217,2083,1839,1884,2021
423414,30784,-2644,31756,-1012,1013,1855,666,-402,-256,-523,784,4457,43,45,890,1741,1850,2051,2217,2083,1839,1884,2021
424415,30844,-2572,31821,-947,919,1596,670,-385,-293,-324,852,4188,53,42,885,1741,1850,2051,2217,2083,1839,1884,2021
425416,30884,-2492,31886,-882,1201,1479,674,-346,-319,338,625,4427,35,43,890,1741,1850,2051,2217,2083,1839,1884,2021
426417,30948,-2428,31951,-817,902,1681,699,-352,-317,573,667,4444,52,43,888,1741,1850,2051,2217,2083,1839,1884,2021
427418,31024,-2360,32016,-752,738,1627,714,-411,-309,505,288,4008,46,46,889,1741,1850,2051,2217,2083,1839,1884,2021
428419,31072,-2296,32081,-687,1110,1680,678,-478,-312,-997,336,4354,45,38,889,1741,1850,2051,2217,2083,1839,1884,2021
429420,31144,-2240,32146,-622,802,1791,659,-366,-359,-2200,187,5687,48,45,887,1741,1850,2051,2217,2083,1839,1884,2021
430421,31228,-2184,32211,-557,628,1803,703,-214,-339,923,767,3953,58,34,888,1741,1850,2051,2217,2083,1839,1884,2021
431422,31292,-2104,32276,-492,881,1485,692,-258,-268,1633,661,3807,60,43,889,1741,1850,2051,2217,2083,1839,1884,2021
432423,31388,-2036,32341,-427,443,1632,635,-388,-250,-582,945,3687,47,35,891,1741,1850,2051,2217,2083,1839,1884,2021
433424,31468,-1984,32406,-362,626,1848,637,-329,-240,-1830,1016,4756,44,37,892,1741,1850,2051,2217,2083,1839,1884,2021
434425,31524,-1920,32471,-297,937,1700,635,-267,-239,164,1118,3117,36,32,889,1741,1850,2051,2217,2083,1839,1884,2021
435426,31604,-1856,32536,-232,618,1702,617,-274,-207,919,1033,3959,35,46,888,1741,1850,2051,2217,2083,1839,1884,2021
436427,31672,-1784,32601,-167,766,1594,607,-272,-186,-209,1182,3973,56,36,890,1741,1850,2051,2217,2083,1839,1884,2021
437428,31736,-1716,32666,-102,817,1641,611,-248,-202,-767,1179,3659,40,31,891,1741,1850,2051,2217,2083,1839,1884,2021
438429,31804,-1656,32731,-37,763,1748,621,-245,-226,-54,1331,3854,36,43,889,1741,1850,2051,2217,2083,1839,1884,2021
439430,31868,-1600,32796,28,815,1810,625,-255,-241,73,1139,3597,34,38,889,1741,1850,2051,2217,2083,1839,1884,2021
440431,31932,-1540,32861,93,817,1766,623,-296,-252,-361,1031,3558,47,30,887,1741,1850,2051,2217,2083,1839,1884,2021
441432,31988,-1480,32926,158,928,1773,632,-328,-271,-195,1252,3832,38,37,889,1741,1850,2051,2217,2083,1839,1884,2021
442433,32060,-1428,32991,223,720,1889,647,-358,-289,33,1080,3788,34,27,887,1741,1850,2051,2217,2083,1839,1884,2021
443434,32120,-1364,33056,288,876,1741,665,-394,-309,-373,1086,4159,51,39,888,1741,1850,2051,2217,2083,1839,1884,2021
444435,32188,-1308,33121,353,772,1853,675,-414,-322,-293,1174,3942,54,42,889,1741,1850,2051,2217,2083,1839,1884,2021
445436,32276,-1244,33186,418,495,1754,662,-444,-333,3,1097,3983,46,34,887,1741,1850,2051,2217,2083,1839,1884,2021
446437,32336,-1172,33251,483,851,1647,644,-454,-325,-254,1079,4015,39,29,891,1741,1850,2051,2217,2083,1839,1884,2021
447438,32396,-1120,33316,548,859,1914,621,-422,-302,-201,1132,3898,39,41,889,1741,1850,2051,2217,2083,1839,1884,2021
448439,32468,-1060,33381,613,700,1820,600,-377,-292,108,1111,3844,35,44,886,1741,1850,2051,2217,2083,1839,1884,2021
449440,32536,-992,33580,812,1597,2568,589,-348,-274,255,1143,3729,37,41,888,1741,1850,2051,2217,2083,1839,1884,2021
450441,32588,-928,33645,877,1814,2619,576,-362,-248,162,1189,3734,51,42,873,1741,1850,2051,2217,2083,1839,1884,2021
451442,32676,-840,33710,942,1336,2292,560,-380,-229,116,1329,3488,59,33,871,1741,1850,2051,2217,2083,1839,1884,2021
452443,32768,-740,33775,1007,1253,2100,541,-409,-201,-10,1204,3326,67,56,880,1741,1850,2051,2217,2083,1839,1884,2021
453444,32836,-656,33840,1072,1550,2278,519,-433,-180,37,1243,3247,68,67,882,1741,1850,2051,2217,2083,1839,1884,2021
454445,32956,-564,33905,1137,833,2145,490,-463,-135,-225,1289,3155,75,65,878,1741,1850,2051,2217,2083,1839,1884,2021
455446,33040,-432,33970,1202,1261,1564,462,-489,-117,-182,1495,3212,78,62,886,1741,1850,2051,2217,2083,1839,1884,2021
456447,33140,-300,34035,1267,1018,1482,424,-575,-110,-241,1410,3122,61,71,888,1741,1850,2051,2217,2083,1839,1884,2021
457448,33240,-192,34100,1332,975,1731,429,-641,-104,-377,1588,3709,82,66,891,1741,1850,2051,2217,2083,1839,1884,2021
458449,33348,-92,34165,1397,824,1789,441,-634,-112,121,1859,3446,67,63,889,1741,1850,2051,2217,2083,1839,1884,2021
459450,33492,24,34230,1462,277,1527,464,-612,-136,758,1643,3528,62,57,889,1741,1850,2051,2217,2083,1839,1884,2021
460451,33604,128,34295,1527,620,1630,487,-685,-144,136,1567,3764,66,65,895,1741,1850,2051,2217,2083,1839,1884,2021
461452,33700,224,34360,1592,782,1692,494,-743,-147,-704,1464,3921,57,53,892,1741,1850,2051,2217,2083,1839,1884,2021
462453,33804,328,34425,1657,636,1546,517,-740,-171,-94,1789,3999,59,68,890,1741,1850,2051,2217,2083,1839,1884,2021
463454,33892,428,34490,1722,807,1553,528,-731,-176,270,1826,3906,67,63,893,1741,1850,2051,2217,2083,1839,1884,2021
464455,33984,504,34555,1787,725,1841,522,-762,-164,73,1661,3997,65,50,892,1741,1850,2051,2217,2083,1839,1884,2021
465456,34064,592,34620,1852,856,1663,526,-738,-160,-117,2025,4275,59,50,889,1741,1850,2051,2217,2083,1839,1884,2021
466457,34168,700,34685,1917,510,1361,527,-735,-172,2,1856,3927,63,49,891,1741,1850,2051,2217,2083,1839,1884,2021
467458,34260,796,34750,1982,627,1473,541,-734,-174,50,1646,4194,68,63,895,1741,1850,2051,2217,2083,1839,1884,2021
468459,34328,880,34815,2047,923,1601,530,-828,-144,103,1802,3853,49,49,894,1741,1850,2051,2217,2083,1839,1884,2021
469460,34424,988,34880,2112,535,1249,510,-946,-134,-631,1189,4123,61,51,890,1741,1850,2051,2217,2083,1839,1884,2021
470461,34496,1072,34945,2177,827,1526,448,-947,-177,-778,1426,4596,45,54,895,1741,1850,2051,2217,2083,1839,1884,2021
471462,34580,1160,35010,2242,653,1448,376,-838,-186,246,1599,3776,53,44,892,1741,1850,2051,2217,2083,1839,1884,2021
472463,34660,1244,35075,2307,686,1475,307,-769,-162,823,1449,4057,48,48,894,1741,1850,2051,2217,2083,1839,1884,2021
473464,34728,1324,35140,2372,832,1508,253,-761,-154,230,1399,3896,42,49,894,1741,1850,2051,2217,2083,1839,1884,2021
474465,34808,1404,35205,2437,664,1489,236,-810,-134,-300,1620,3856,45,56,892,1741,1850,2051,2217,2083,1839,1884,2021
475466,34892,1464,35270,2502,591,1747,254,-849,-110,-334,1517,4292,53,53,893,1741,1850,2051,2217,2083,1839,1884,2021
476467,34960,1544,35335,2567,787,1478,271,-863,-89,121,1325,3900,54,39,891,1741,1850,2051,2217,2083,1839,1884,2021
477468,35032,1628,35400,2632,729,1405,279,-871,-73,297,1401,3899,40,53,892,1741,1850,2051,2217,2083,1839,1884,2021
478469,35100,1692,35465,2697,775,1657,278,-885,-54,-265,1457,3873,44,57,893,1741,1850,2051,2217,2083,1839,1884,2021
479470,35180,1784,35530,2762,608,1274,264,-875,-51,-146,1579,3947,48,41,889,1741,1850,2051,2217,2083,1839,1884,2021
480471,35260,1860,35595,2827,589,1461,248,-869,-56,209,1691,3799,41,50,895,1741,1850,2051,2217,2083,1839,1884,2021
481472,35328,1932,35660,2892,736,1503,246,-879,-75,284,1721,3907,45,54,894,1741,1850,2051,2217,2083,1839,1884,2021
482473,35400,2008,35725,2957,677,1440,244,-892,-102,136,1885,3877,36,44,892,1741,1850,2051,2217,2083,1839,1884,2021
483474,35472,2092,35790,3022,669,1318,246,-913,-123,26,1900,3884,52,45,893,1741,1850,2051,2217,2083,1839,1884,2021
484475,35540,2140,35855,3087,715,1789,242,-930,-148,72,1922,3938,37,49,895,1741,1850,2051,2217,2083,1839,1884,2021
485476,35612,2208,35920,3152,656,1535,239,-928,-163,55,1907,3926,40,48,890,1741,1850,2051,2217,2083,1839,1884,2021
486477,35692,2284,35985,3217,538,1422,219,-913,-168,96,1835,3881,53,43,893,1741,1850,2051,2217,2083,1839,1884,2021
487478,35752,2352,36050,3282,795,1519,199,-890,-173,91,1955,3980,38,48,895,1741,1850,2051,2217,2083,1839,1884,2021
488479,35816,2432,36115,3347,746,1350,177,-858,-169,150,1835,3885,55,52,892,1741,1850,2051,2217,2083,1839,1884,2021
489480,35892,2516,36180,3412,583,1278,162,-837,-164,176,1655,3885,48,54,893,1741,1850,2051,2217,2083,1839,1884,2021
490481,35968,2604,36245,3477,570,1200,138,-804,-146,110,1624,3994,53,48,895,1741,1850,2051,2217,2083,1839,1884,2021
491482,36032,2704,36310,3542,721,1007,141,-761,-110,383,1650,3861,40,51,896,1741,1850,2051,2217,2083,1839,1884,2021
492483,36100,2780,36375,3607,667,1295,135,-734,-73,275,1491,3780,35,42,897,1741,1850,2051,2217,2083,1839,1884,2021
493484,36176,2848,36440,3672,554,1391,140,-733,-58,52,1246,3612,53,39,895,1741,1850,2051,2217,2083,1839,1884,2021
494485,36248,2924,36505,3737,595,1278,141,-731,-19,-257,1070,3652,46,47,895,1741,1850,2051,2217,2083,1839,1884,2021
495486,36328,3000,36570,3802,477,1266,140,-718,10,-77,1164,3534,55,46,895,1741,1850,2051,2217,2083,1839,1884,2021
496487,36400,3076,36635,3867,568,1252,116,-694,55,35,1277,3645,37,40,895,1741,1850,2051,2217,2083,1839,1884,2021
497488,36472,3148,36700,3932,561,1294,97,-658,100,154,1366,3533,34,36,895,1741,1850,2051,2217,2083,1839,1884,2021
498489,36552,3216,36765,3997,443,1340,76,-636,129,174,1354,3360,49,50,895,1741,1850,2051,2217,2083,1839,1884,2021
499490,36620,3284,36830,4062,589,1337,61,-648,132,-3,1521,3328,51,36,895,1741,1850,2051,2217,2083,1839,1884,2021
500491,36700,3364,36895,4127,421,1169,32,-671,141,-29,1535,3330,34,45,895,1741,1850,2051,2217,2083,1839,1884,2021
501492,36768,3432,36960,4192,567,1315,22,-677,139,152,1466,3194,41,44,897,1741,1850,2051,2217,2083,1839,1884,2021
502493,36852,3508,37025,4257,344,1203,6,-685,137,250,1588,3078,41,42,895,1741,1850,2051,2217,2083,1839,1884,2021
503494,36924,3580,37090,4322,485,1244,-15,-682,142,389,1563,3250,41,49,897,1741,1850,2051,2217,2083,1839,1884,2021
504495,36988,3656,37155,4387,586,1181,-25,-669,155,382,1464,3059,33,55,897,1741,1850,2051,2217,2083,1839,1884,2021
505496,37068,3724,37220,4452,368,1277,-39,-633,149,466,1666,3235,38,44,896,1741,1850,2051,2217,2083,1839,1884,2021
506497,37132,3816,37285,4517,569,945,-67,-619,152,524,1733,3107,34,54,897,1741,1850,2051,2217,2083,1839,1884,2021
507498,37192,3908,37350,4582,625,912,-89,-582,154,513,1484,3499,39,43,899,1741,1850,2051,2217,2083,1839,1884,2021
508499,37268,3992,37415,4647,412,989,-76,-530,185,593,1545,3150,41,44,899,1741,1850,2051,2217,2083,1839,1884,2021
509500,37340,4076,37480,4712,453,967,-68,-514,223,655,1523,2958,38,49,899,1741,1850,2051,2217,2083,1839,1884,2021
510501,37400,4176,37545,4777,610,724,-63,-516,247,410,1240,3333,37,42,899,1741,1850,2051,2217,2083,1839,1884,2021
511502,37468,4260,37610,4842,506,901,-56,-525,283,85,1172,3111,52,53,900,1741,1850,2051,2217,2083,1839,1884,2021
512503,37540,4336,37675,4907,448,988,-49,-526,328,44,1148,3015,49,44,900,1741,1850,2051,2217,2083,1839,1884,2021
513504,37620,4424,37740,4972,330,809,-66,-519,380,153,1042,3137,50,46,898,1741,1850,2051,2217,2083,1839,1884,2021
514505,37704,4500,37805,5037,257,947,-76,-502,441,204,1092,3104,45,55,901,1741,1850,2051,2217,2083,1839,1884,2021
515506,37768,4580,37870,5102,508,879,-86,-491,492,51,1126,2834,47,44,900,1741,1850,2051,2217,2083,1839,1884,2021
516507,37844,4664,37935,5167,345,806,-102,-485,522,-60,1047,3070,37,42,899,1741,1850,2051,2217,2083,1839,1884,2021
517508,37916,4756,38000,5232,386,673,-120,-488,551,85,1125,3051,56,57,901,1741,1850,2051,2217,2083,1839,1884,2021
518509,37996,4812,38065,5297,268,1134,-139,-491,580,218,1078,2912,51,53,902,1741,1850,2051,2217,2083,1839,1884,2021
519510,38072,4884,38130,5362,304,926,-161,-466,606,234,956,2857,42,46,899,1741,1850,2051,2217,2083,1839,1884,2021
520511,38148,4964,38195,5427,291,808,-192,-441,625,294,960,2904,50,54,900,1741,1850,2051,2217,2083,1839,1884,2021
521512,38228,5056,38260,5492,223,625,-231,-405,649,390,910,2755,46,59,901,1741,1850,2051,2217,2083,1839,1884,2021
522513,38292,5144,38325,5557,424,647,-268,-364,661,442,955,2848,43,52,903,1741,1850,2051,2217,2083,1839,1884,2021
523514,38364,5236,38390,5622,315,564,-296,-328,685,564,1080,2643,48,54,902,1741,1850,2051,2217,2083,1839,1884,2021
524515,38464,5316,38455,5687,-77,695,-324,-278,702,754,949,2699,36,54,903,1741,1850,2051,2217,2083,1839,1884,2021
525516,38520,5372,38520,5752,484,1007,-351,-244,700,698,1018,2648,50,46,901,1741,1850,2051,2217,2083,1839,1884,2021
526517,38608,5468,38585,5817,55,470,-392,-237,703,484,1052,2588,47,43,899,1741,1850,2051,2217,2083,1839,1884,2021
527518,38688,5544,38650,5882,137,706,-437,-193,706,425,999,2642,37,56,904,1741,1850,2051,2217,2083,1839,1884,2021
528519,38760,5624,38715,5947,229,638,-489,-159,728,611,953,2623,47,52,903,1741,1850,2051,2217,2083,1839,1884,2021
529520,38808,5704,38780,6012,549,619,-534,-115,760,651,942,2561,54,40,903,1741,1850,2051,2217,2083,1839,1884,2021
530521,38888,5788,38845,6077,131,546,-574,-93,785,415,897,2528,35,55,900,1741,1850,2051,2217,2083,1839,1884,2021
531522,38976,5860,38910,6142,3,688,-607,-80,810,358,834,2629,54,54,904,1741,1850,2051,2217,2083,1839,1884,2021
532523,39056,5940,38975,6207,85,569,-641,-74,844,419,773,2678,52,42,903,1741,1850,2051,2217,2083,1839,1884,2021
533524,39140,6020,39040,6272,11,551,-667,-62,879,360,616,2545,42,41,904,1741,1850,2051,2217,2083,1839,1884,2021
534525,39200,6100,39105,6337,318,534,-703,-31,910,292,656,2714,33,45,904,1741,1850,2051,2217,2083,1839,1884,2021
535526,39272,6172,39170,6402,159,625,-720,32,959,288,507,2847,35,52,903,1741,1850,2051,2217,2083,1839,1884,2021
536527,39332,6232,39235,6467,315,781,-740,96,1002,567,539,2905,43,44,903,1741,1850,2051,2217,2083,1839,1884,2021
537528,39416,6324,39300,6532,-9,348,-754,137,1028,639,541,2796,52,49,902,1741,1850,2051,2217,2083,1839,1884,2021
538529,39484,6408,39365,6597,187,425,-775,192,1044,620,475,2863,54,57,906,1741,1850,2051,2217,2083,1839,1884,2021
539530,39556,6500,39430,6662,129,292,-793,252,1062,441,605,2941,32,53,904,1741,1850,2051,2217,2083,1839,1884,2021
540531,39640,6600,39495,6727,-45,150,-819,325,1089,450,813,2740,33,58,905,1741,1850,2051,2217,2083,1839,1884,2021
541532,39720,6680,39560,6792,-13,381,-852,413,1103,569,621,2870,51,48,907,1741,1850,2051,2217,2083,1839,1884,2021
542533,39776,6768,39625,6857,298,253,-910,495,1093,813,446,2551,48,41,906,1741,1850,2051,2217,2083,1839,1884,2021
543534,39852,6848,39690,6922,35,335,-951,525,1097,620,653,2701,45,48,905,1741,1850,2051,2217,2083,1839,1884,2021
544535,39936,6916,39755,6987,-88,481,-1009,506,1073,424,1047,2174,40,46,906,1741,1850,2051,2217,2083,1839,1884,2021
545536,39988,7004,39820,7052,327,203,-1069,525,1034,290,901,2290,34,54,903,1741,1850,2051,2217,2083,1839,1884,2021
546537,40068,7096,39885,7117,-41,120,-1169,539,1026,207,1055,1982,48,43,905,1741,1850,2051,2217,2083,1839,1884,2021
547538,40136,7172,39950,7182,105,307,-1242,664,1022,453,893,2620,35,41,906,1741,1850,2051,2217,2083,1839,1884,2021
548539,40204,7248,40015,7247,102,293,-1314,771,1008,893,552,2334,42,40,905,1741,1850,2051,2217,2083,1839,1884,2021
549540,40284,7324,40080,7312,-67,280,-1371,815,998,786,631,2441,48,51,905,1741,1850,2051,2217,2083,1839,1884,2021
550541,40332,7400,40145,7377,354,266,-1427,854,1000,687,512,2407,39,42,905,1741,1850,2051,2217,2083,1839,1884,2021
551542,40420,7484,40210,7442,-174,143,-1486,913,1001,735,519,2461,46,44,905,1741,1850,2051,2217,2083,1839,1884,2021
552543,40508,7560,40275,7507,-202,230,-1540,1019,1016,915,472,2553,33,44,897,1741,1850,2051,2217,2083,1839,1884,2021
553544,40588,7632,40340,7572,-121,271,-1588,1112,1040,956,269,2521,42,43,895,1741,1850,2051,2217,2083,1839,1884,2021
554545,40696,7728,40405,7637,-524,-67,-1652,1180,1054,773,294,2910,40,41,900,1741,1850,2051,2217,2083,1839,1884,2021
555546,40784,7808,40470,7702,-302,115,-1698,1241,1069,621,507,2722,37,55,905,1741,1850,2051,2217,2083,1839,1884,2021
556547,40876,7900,40535,7767,-385,-68,-1723,1285,1097,599,410,2253,46,43,907,1741,1850,2051,2217,2083,1839,1884,2021
557548,40964,7976,40600,7832,-363,119,-1793,1345,1072,696,620,3097,33,46,906,1741,1850,2051,2217,2083,1839,1884,2021
558549,41052,8044,40665,7897,-391,215,-1846,1387,1058,501,572,2509,47,53,907,1741,1850,2051,2217,2083,1839,1884,2021
559550,41124,8112,40730,7962,-199,211,-1884,1351,1091,-17,757,2627,37,45,906,1741,1850,2051,2217,2083,1839,1884,2021
560551,41176,8196,40795,8027,65,-12,-1896,1284,1106,-345,1055,3320,30,39,907,1741,1850,2051,2217,2083,1839,1884,2021
561552,41216,8304,40860,8092,246,-364,-1833,1149,1104,-299,270,2394,31,40,906,1741,1850,2051,2217,2083,1839,1884,2021
562553,41292,8392,40925,8157,-217,-142,-1731,922,1052,-6,231,4259,41,51,904,1741,1850,2051,2217,2083,1839,1884,2021
563554,41396,8544,40990,8222,-615,-1049,-1574,714,1039,-351,314,4425,44,47,895,1741,1850,2051,2217,2083,1839,1884,2021
564555,41432,8616,41055,8287,270,-58,-1397,634,1032,365,394,4294,48,39,899,1741,1850,2051,2217,2083,1839,1884,2021
565556,41504,8680,41120,8352,-188,43,-1274,598,1029,1139,559,4105,44,34,907,1741,1850,2051,2217,2083,1839,1884,2021
566557,41544,8740,41185,8417,242,99,-1227,565,1020,1202,675,4583,45,34,897,1741,1850,2051,2217,2083,1839,1884,2021
567558,41624,8796,41250,8482,-277,160,-1191,540,1012,776,798,3704,38,42,905,1741,1850,2051,2217,2083,1839,1884,2021
568559,41688,8864,41315,8547,-76,7,-1184,551,1032,1032,961,4316,44,39,906,1741,1850,2051,2217,2083,1839,1884,2021
569560,41756,8916,41380,8612,-129,222,-1178,601,1040,1638,992,4454,35,37,907,1741,1850,2051,2217,2083,1839,1884,2021
570561,41800,8980,41445,8677,196,74,-1183,645,1041,1483,1078,3821,28,35,901,1741,1850,2051,2217,2083,1839,1884,2021
571562,41864,9024,41510,8742,-53,349,-1184,620,1035,816,1010,3797,28,42,906,1741,1850,2051,2217,2083,1839,1884,2021
572563,41920,9088,41575,8807,58,99,-1182,519,1031,148,1007,3563,41,43,906,1741,1850,2051,2217,2083,1839,1884,2021
573564,42012,9136,41640,8872,-425,320,-1176,375,1025,-122,827,3720,48,43,906,1741,1850,2051,2217,2083,1839,1884,2021
574565,42068,9212,41705,8937,35,-43,-1140,201,1034,-324,557,3624,31,32,906,1741,1850,2051,2217,2083,1839,1884,2021
575566,42140,9276,41770,9002,-173,108,-1065,-2,1037,-542,281,3868,30,44,907,1741,1850,2051,2217,2083,1839,1884,2021
576567,42204,9348,41835,9067,-72,-1,-975,-202,1046,-771,-13,4090,48,41,897,1741,1850,2051,2217,2083,1839,1884,2021
577568,42260,9416,41900,9132,39,46,-858,-399,1055,-770,-102,4440,49,33,905,1741,1850,2051,2217,2083,1839,1884,2021
578569,42324,9480,41965,9197,-60,97,-719,-584,1064,-734,-412,4454,28,38,907,1741,1850,2051,2217,2083,1839,1884,2021
579570,42400,9540,42030,9262,-223,153,-567,-744,1059,-284,-515,4896,44,46,906,1741,1850,2051,2217,2083,1839,1884,2021
580571,42456,9632,42095,9327,38,-280,-417,-878,1053,-167,-525,5090,42,50,894,1741,1850,2051,2217,2083,1839,1884,2021
581572,42524,9704,42160,9392,-117,-39,-288,-959,1043,-58,-421,5280,50,38,904,1741,1850,2051,2217,2083,1839,1884,2021
582573,42592,9780,42225,9457,-120,-103,-173,-966,1044,277,-361,5512,41,38,902,1741,1850,2051,2217,2083,1839,1884,2021
583574,42652,9848,42290,9522,-14,-6,-73,-921,1048,593,-116,5421,45,39,902,1741,1850,2051,2217,2083,1839,1884,2021
584575,42724,9936,42355,9587,-173,-285,4,-853,1061,618,90,5247,33,46,907,1741,1850,2051,2217,2083,1839,1884,2021
585576,42800,10012,42420,9652,-236,-148,68,-807,1061,661,274,4924,39,43,897,1741,1850,2051,2217,2083,1839,1884,2021
586577,42872,10080,42485,9717,-195,-52,115,-790,1043,679,364,4589,44,43,906,1741,1850,2051,2217,2083,1839,1884,2021
587578,42932,10152,42550,9782,-39,-110,148,-815,1014,593,466,4244,33,41,896,1741,1850,2051,2217,2083,1839,1884,2021
588579,43012,10224,42615,9847,-308,-119,158,-853,988,161,477,3884,50,51,906,1741,1850,2051,2217,2083,1839,1884,2021
589580,43092,10304,42680,9912,-326,-238,138,-873,951,-26,479,3800,54,36,906,1741,1850,2051,2217,2083,1839,1884,2021
590581,43164,10376,42745,9977,-235,-147,107,-881,912,-112,412,3575,38,35,906,1741,1850,2051,2217,2083,1839,1884,2021
591582,43236,10456,42810,10042,-244,-265,92,-889,898,-370,268,3509,51,36,906,1741,1850,2051,2217,2083,1839,1884,2021
592583,43328,10524,42875,10107,-526,-119,89,-893,881,-579,100,3614,52,43,900,1741,1850,2051,2217,2083,1839,1884,2021
593584,43404,10596,42940,10172,-340,-177,96,-877,853,-548,-284,3629,39,44,906,1741,1850,2051,2217,2083,1839,1884,2021
594585,43504,10668,43005,10237,-684,-186,113,-837,816,-396,-612,3641,40,35,906,1741,1850,2051,2217,2083,1839,1884,2021
595586,43572,10736,43070,10302,-287,-140,150,-757,790,-296,-777,3879,45,49,906,1741,1850,2051,2217,2083,1839,1884,2021
596587,43664,10796,43135,10367,-620,-34,193,-667,779,-261,-1088,3782,38,49,906,1741,1850,2051,2217,2083,1839,1884,2021
597588,43752,10880,43200,10432,-598,-357,216,-567,761,-382,-1302,3906,56,37,907,1741,1850,2051,2217,2083,1839,1884,2021
598589,43844,10944,43265,10497,-681,-106,225,-502,754,-448,-1298,3783,58,40,904,1741,1850,2051,2217,2083,1839,1884,2021
599590,43928,11024,43330,10562,-605,-324,241,-434,752,-673,-1438,3774,57,45,906,1741,1850,2051,2217,2083,1839,1884,2021
600591,44036,11080,43395,10627,-958,-13,244,-376,739,-564,-1431,3786,45,44,905,1741,1850,2051,2217,2083,1839,1884,2021
601592,44128,11128,43460,10692,-791,106,205,-247,708,-310,-1395,3803,46,38,907,1741,1850,2051,2217,2083,1839,1884,2021
602593,44224,11208,43525,10757,-879,-312,130,-68,682,223,-1229,3436,46,43,907,1741,1850,2051,2217,2083,1839,1884,2021
603594,44308,11276,43590,10822,-753,-166,41,60,657,208,-849,3136,45,35,905,1741,1850,2051,2217,2083,1839,1884,2021
604595,44420,11340,43655,10887,-1160,-114,-78,148,620,-305,-308,2965,56,46,906,1741,1850,2051,2217,2083,1839,1884,2021
605596,44520,11412,43720,10952,-1053,-223,-210,199,591,-337,-359,2850,48,34,907,1741,1850,2051,2217,2083,1839,1884,2021
606597,44596,11472,43785,11017,-766,-67,-351,215,552,222,-737,2436,49,33,906,1741,1850,2051,2217,2083,1839,1884,2021
607598,44704,11540,43850,11082,-1220,-172,-474,254,497,461,-637,2984,47,40,907,1741,1850,2051,2217,2083,1839,1884,2021
608599,44812,11616,43915,11147,-1272,-285,-574,356,476,145,-907,3145,53,47,906,1741,1850,2051,2217,2083,1839,1884,2021
609600,44896,11672,43980,11212,-996,-24,-696,439,458,165,-1204,3301,47,36,905,1741,1850,2051,2217,2083,1839,1884,2021
610601,44984,11736,44045,11277,-1075,-123,-827,436,448,-159,-1386,3072,64,36,907,1741,1850,2051,2217,2083,1839,1884,2021
611602,45108,11796,44110,11342,-1597,-67,-939,402,418,-284,-1122,3875,66,39,906,1741,1850,2051,2217,2083,1839,1884,2021
612603,45192,11884,44175,11407,-1121,-446,-1029,392,390,-1031,-1392,4121,63,35,907,1741,1850,2051,2217,2083,1839,1884,2021
613604,45292,11948,44240,11472,-1364,-145,-1102,357,402,-825,-1861,4095,62,36,897,1741,1850,2051,2217,2083,1839,1884,2021
614605,45388,12032,44305,11537,-1352,-418,-1119,236,416,-216,-1812,3988,56,37,906,1741,1850,2051,2217,2083,1839,1884,2021
615606,45516,12092,44370,11602,-1829,-112,-1078,87,411,-421,-1759,4277,61,46,904,1741,1850,2051,2217,2083,1839,1884,2021
616607,45596,12152,44435,11667,-1248,-106,-1023,-73,365,-622,-2301,4044,46,33,906,1741,1850,2051,2217,2083,1839,1884,2021
617608,45684,12216,44500,11732,-1377,-154,-978,-161,314,-493,-2216,4091,58,43,903,1741,1850,2051,2217,2083,1839,1884,2021
618609,45804,12276,44565,11797,-1844,-99,-945,-190,266,57,-1999,4068,63,39,907,1741,1850,2051,2217,2083,1839,1884,2021
619610,45912,12360,44630,11862,-1747,-422,-942,-167,228,281,-1882,4122,45,36,907,1741,1850,2051,2217,2083,1839,1884,2021
620611,46024,12416,44695,11927,-1855,-61,-979,-124,229,-21,-1978,4175,45,35,905,1741,1850,2051,2217,2083,1839,1884,2021
621612,46124,12492,44760,11992,-1749,-325,-1029,-221,227,317,-1217,3181,53,33,905,1741,1850,2051,2217,2083,1839,1884,2021
622613,46216,12544,44825,12057,-1681,-9,-1076,-412,212,97,-819,3553,47,44,906,1741,1850,2051,2217,2083,1839,1884,2021
623614,46324,12608,44890,12122,-1935,-159,-1127,-635,162,-1420,-972,3278,45,31,907,1741,1850,2051,2217,2083,1839,1884,2021
624615,46396,12680,44955,12187,-1494,-267,-1168,-867,150,-1858,-1012,3064,44,49,906,1741,1850,2051,2217,2083,1839,1884,2021
625616,46524,12732,45020,12252,-2271,-1,-1217,-1045,150,-332,-1295,3355,46,35,905,1741,1850,2051,2217,2083,1839,1884,2021
626617,46612,12792,45085,12317,-1800,-95,-1253,-1163,175,-21,-1576,3563,59,41,907,1741,1850,2051,2217,2083,1839,1884,2021
627618,46716,12848,45150,12382,-2048,-34,-1327,-1133,228,-402,-1886,4481,62,46,907,1741,1850,2051,2217,2083,1839,1884,2021
628619,46792,12908,45215,12447,-1712,-79,-1446,-1045,263,130,-1620,4760,55,34,907,1741,1850,2051,2217,2083,1839,1884,2021
629620,46916,12960,45280,12512,-2385,37,-1581,-931,268,942,-1488,5397,51,42,906,1741,1850,2051,2217,2083,1839,1884,2021
630621,46988,13012,45345,12577,-1744,52,-1681,-891,276,482,-1834,5687,53,33,907,1741,1850,2051,2217,2083,1839,1884,2021
631622,47052,13088,45410,12642,-1643,-261,-1746,-919,301,-310,-2058,6040,48,39,907,1741,1850,2051,2217,2083,1839,1884,2021
632623,47180,13144,45475,12707,-2521,0,-1731,-1077,295,-663,-1805,5887,48,35,905,1741,1850,2051,2217,2083,1839,1884,2021
633624,47236,13208,45540,12772,-1611,-99,-1673,-1311,289,-1138,-2372,5686,54,38,907,1741,1850,2051,2217,2083,1839,1884,2021
634625,47304,13272,45605,12837,-1764,-99,-1568,-1496,275,-1021,-2587,5917,39,32,907,1741,1850,2051,2217,2083,1839,1884,2021
635626,47404,13332,45670,12902,-2208,-42,-1445,-1609,256,-885,-2842,5987,41,41,907,1741,1850,2051,2217,2083,1839,1884,2021
636627,47476,13400,45735,12967,-1868,-146,-1281,-1649,203,-153,-2872,6709,34,31,907,1741,1850,2051,2217,2083,1839,1884,2021
637628,47540,13456,45800,13032,-1767,15,-1118,-1582,127,846,-2663,7258,44,35,906,1741,1850,2051,2217,2083,1839,1884,2021
638629,47620,13508,45865,13097,-1986,81,-1001,-1445,43,1566,-2078,7087,34,37,907,1741,1850,2051,2217,2083,1839,1884,2021
639630,47692,13548,45930,13162,-1895,261,-943,-1221,-28,1404,-1909,6657,33,46,907,1741,1850,2051,2217,2083,1839,1884,2021
640631,47768,13612,45995,13227,-1959,-38,-963,-1058,-85,1288,-1545,6151,40,32,906,1741,1850,2051,2217,2083,1839,1884,2021
641632,47828,13668,46060,13292,-1754,73,-1015,-981,-119,1013,-1254,5307,47,36,907,1741,1850,2051,2217,2083,1839,1884,2021
642633,47888,13736,46125,13357,-1749,-81,-1108,-947,-118,535,-1323,4698,44,36,907,1741,1850,2051,2217,2083,1839,1884,2021
643634,47956,13792,46190,13422,-1852,80,-1189,-914,-105,450,-1367,4831,39,30,907,1741,1850,2051,2217,2083,1839,1884,2021
644635,48012,13856,46255,13487,-1692,-19,-1256,-879,-57,316,-1445,4624,26,40,907,1741,1850,2051,2217,2083,1839,1884,2021
645636,48052,13920,46320,13552,-1463,-18,-1264,-818,17,195,-1479,5386,37,28,907,1741,1850,2051,2217,2083,1839,1884,2021
646637,48108,13976,46385,13617,-1652,93,-1226,-782,83,-131,-1800,5490,38,43,900,1741,1850,2051,2217,2083,1839,1884,2021
647638,48156,14048,46450,13682,-1532,-116,-1174,-740,149,-8,-1983,6143,23,40,907,1741,1850,2051,2217,2083,1839,1884,2021
648639,48180,14108,46515,13747,-1183,40,-1101,-647,198,366,-2054,6373,15,37,907,1741,1850,2051,2217,2083,1839,1884,2021
649640,48220,14152,46580,13812,-1352,265,-1044,-505,210,1013,-2337,6080,12,30,906,1741,1850,2051,2217,2083,1839,1884,2021
650641,48252,14172,46645,13877,-1213,620,-989,-367,220,1585,-2686,6122,23,40,902,1741,1850,2051,2217,2083,1839,1884,2021
651642,48276,14176,46710,13942,-1064,895,-923,-257,202,1443,-2937,6138,11,30,904,1741,1850,2051,2217,2083,1839,1884,2021
652643,48300,14208,46775,14007,-1014,585,-841,-187,158,1422,-3015,6195,6,43,902,1741,1850,2051,2217,2083,1839,1884,2021
653644,48308,14288,46840,14072,-745,-33,-747,-101,103,1796,-3183,6210,3,31,904,1741,1850,2051,2217,2083,1839,1884,2021
654645,48336,14372,46905,14137,-950,-106,-635,64,70,2064,-2947,6245,21,43,905,1741,1850,2051,2217,2083,1839,1884,2021
655646,48352,14452,46970,14202,-742,-75,-533,210,51,2055,-2802,5656,12,48,907,1741,1850,2051,2217,2083,1839,1884,2021
656647,48372,14540,47035,14267,-737,-204,-455,301,3,1676,-2692,5435,17,44,907,1741,1850,2051,2217,2083,1839,1884,2021
657648,48372,14612,47100,14332,-408,-12,-428,329,-57,1484,-2400,5154,-3,34,906,1741,1850,2051,2217,2083,1839,1884,2021
658649,48368,14660,47165,14397,-274,308,-418,292,-113,1564,-2187,4510,0,38,905,1741,1850,2051,2217,2083,1839,1884,2021
659650,48372,14740,47230,14462,-301,-110,-432,226,-161,1658,-1794,4178,-7,31,906,1741,1850,2051,2217,2083,1839,1884,2021
660651,48368,14808,47295,14527,-116,36,-469,171,-195,1371,-1454,3824,-7,44,907,1741,1850,2051,2217,2083,1839,1884,2021
661652,48356,14848,47360,14592,77,417,-507,116,-214,1330,-1259,3321,-7,30,907,1741,1850,2051,2217,2083,1839,1884,2021
662653,48364,14916,47425,14657,-104,63,-536,96,-251,1396,-1206,3458,-2,30,905,1741,1850,2051,2217,2083,1839,1884,2021
663654,48360,14984,47490,14722,130,60,-561,91,-291,1919,-1076,3183,-8,29,903,1741,1850,2051,2217,2083,1839,1884,2021
664655,48364,15040,47555,14787,104,221,-546,121,-288,1948,-1051,3343,-7,31,906,1741,1850,2051,2217,2083,1839,1884,2021
665656,48348,15100,47620,14852,453,176,-509,167,-246,1754,-1126,3059,8,30,906,1741,1850,2051,2217,2083,1839,1884,2021
666657,48356,15160,47685,14917,222,182,-447,200,-221,1508,-1244,3211,-2,36,903,1741,1850,2051,2217,2083,1839,1884,2021
667658,48364,15208,47750,14982,291,353,-358,218,-202,1264,-1447,3042,16,45,906,1741,1850,2051,2217,2083,1839,1884,2021
668659,48356,15268,47815,15047,580,209,-254,177,-191,1547,-1583,2969,12,40,904,1741,1850,2051,2217,2083,1839,1884,2021
669660,48356,15332,47880,15112,559,160,-139,100,-173,1553,-1416,2997,12,44,903,1741,1850,2051,2217,2083,1839,1884,2021
670661,48368,15420,47945,15177,474,-168,-4,-23,-168,1024,-1526,2559,9,43,903,1741,1850,2051,2217,2083,1839,1884,2021
671662,48380,15480,48010,15242,539,188,121,-114,-177,806,-1555,2848,7,37,904,1741,1850,2051,2217,2083,1839,1884,2021
672663,48392,15520,48075,15307,603,468,241,-141,-179,1113,-1543,2942,16,36,903,1741,1850,2051,2217,2083,1839,1884,2021
673664,48408,15588,48140,15372,612,115,359,-193,-210,1223,-1559,2787,14,41,902,1741,1850,2051,2217,2083,1839,1884,2021
674665,48432,15640,48205,15437,562,331,448,-237,-250,1192,-1460,2956,17,36,903,1741,1850,2051,2217,2083,1839,1884,2021
675666,48460,15708,48270,15502,558,127,512,-292,-274,1211,-1165,2902,16,31,903,1741,1850,2051,2217,2083,1839,1884,2021
676667,48480,15784,48335,15567,712,14,546,-330,-306,1190,-907,2809,30,46,903,1741,1850,2051,2217,2083,1839,1884,2021
677668,48520,15836,48400,15632,493,328,549,-329,-349,1393,-701,2888,30,36,903,1741,1850,2051,2217,2083,1839,1884,2021
678669,48560,15900,48465,15697,524,180,535,-261,-391,1676,-445,2849,33,48,903,1741,1850,2051,2217,2083,1839,1884,2021
679670,48600,15956,48530,15762,554,291,505,-222,-439,1637,-325,2741,15,45,904,1741,1850,2051,2217,2083,1839,1884,2021
680671,48624,16016,48595,15827,804,247,459,-194,-478,1294,-453,2714,34,46,903,1741,1850,2051,2217,2083,1839,1884,2021
681672,48668,16068,48660,15892,580,363,422,-159,-512,1354,-253,2641,29,32,902,1741,1850,2051,2217,2083,1839,1884,2021
682673,48728,16136,48725,15957,386,159,400,-136,-537,1148,-260,2727,33,34,903,1741,1850,2051,2217,2083,1839,1884,2021
683674,48772,16200,48790,16022,611,210,385,-118,-552,1098,-307,2666,36,39,903,1741,1850,2051,2217,2083,1839,1884,2021
684675,48816,16252,48855,16087,637,376,406,-74,-561,950,-221,3059,24,34,903,1741,1850,2051,2217,2083,1839,1884,2021
685676,48856,16320,48920,16152,718,172,443,-66,-555,775,-387,2828,36,45,902,1741,1850,2051,2217,2083,1839,1884,2021
686677,48912,16380,48985,16217,529,279,507,-62,-534,609,-472,3010,30,38,903,1741,1850,2051,2217,2083,1839,1884,2021
687678,48968,16440,49050,16282,540,285,598,-36,-521,556,-432,3333,30,43,904,1741,1850,2051,2217,2083,1839,1884,2021
688679,49024,16508,49115,16347,551,181,699,-19,-488,553,-600,3035,25,35,903,1741,1850,2051,2217,2083,1839,1884,2021
689680,49072,16580,49180,16412,671,122,811,9,-453,603,-559,3276,39,34,904,1741,1850,2051,2217,2083,1839,1884,2021
690681,49136,16632,49245,16477,473,388,917,48,-413,499,-438,3107,31,48,903,1741,1850,2051,2217,2083,1839,1884,2021
691682,49196,16684,49310,16542,529,403,1014,105,-392,572,-285,3233,30,40,903,1741,1850,2051,2217,2083,1839,1884,2021
692683,49264,16748,49375,16607,425,254,1094,212,-376,824,-158,3423,43,43,903,1741,1850,2051,2217,2083,1839,1884,2021
693684,49324,16832,49440,16672,531,-19,1164,325,-357,1087,-55,3389,47,41,904,1741,1850,2051,2217,2083,1839,1884,2021
694685,49388,16900,49505,16737,482,178,1206,440,-345,1160,99,3344,36,37,905,1741,1850,2051,2217,2083,1839,1884,2021
695686,49428,16964,49570,16802,813,229,1226,539,-340,1018,212,3335,43,50,904,1741,1850,2051,2217,2083,1839,1884,2021
696687,49504,17040,49635,16867,349,65,1224,609,-325,898,227,3215,41,45,902,1741,1850,2051,2217,2083,1839,1884,2021
697688,49560,17100,49700,16932,610,271,1215,692,-334,1034,502,3597,47,41,905,1741,1850,2051,2217,2083,1839,1884,2021
698689,49620,17164,49765,16997,567,223,1201,765,-340,908,409,3521,46,33,903,1741,1850,2051,2217,2083,1839,1884,2021
699690,49684,17216,49964,17196,681,552,1185,819,-346,949,434,3859,31,38,903,1741,1850,2051,2217,2083,1839,1884,2021
700691,49756,17284,50029,17261,574,348,1181,828,-323,604,182,3443,30,40,899,1741,1850,2051,2217,2083,1839,1884,2021
701692,49800,17340,50094,17326,949,509,1173,839,-328,706,264,4191,49,45,903,1741,1850,2051,2217,2083,1839,1884,2021
702693,49892,17400,50159,17391,316,466,1151,867,-315,343,114,3915,37,49,899,1741,1850,2051,2217,2083,1839,1884,2021
703694,49968,17492,50224,17456,503,33,1168,864,-289,672,-8,3721,53,54,903,1741,1850,2051,2217,2083,1839,1884,2021
704695,50028,17560,50289,17521,709,329,1211,881,-258,895,-232,4459,49,44,905,1741,1850,2051,2217,2083,1839,1884,2021
705696,50092,17624,50354,17586,660,380,1224,903,-224,546,-280,4459,47,45,902,1741,1850,2051,2217,2083,1839,1884,2021
706697,50152,17696,50419,17651,716,272,1247,960,-192,494,-283,4711,37,51,902,1741,1850,2051,2217,2083,1839,1884,2021
707698,50224,17760,50484,17716,558,373,1272,1000,-148,875,-302,4079,44,43,902,1741,1850,2051,2217,2083,1839,1884,2021
708699,50296,17820,50549,17781,549,429,1324,1054,-105,1247,-302,4614,36,38,903,1741,1850,2051,2217,2083,1839,1884,2021
709700,50368,17884,50614,17846,541,380,1379,1100,-59,1075,-174,4733,46,37,903,1741,1850,2051,2217,2083,1839,1884,2021
710701,50432,17948,50679,17911,643,381,1430,1123,-12,786,-124,4508,43,45,903,1741,1850,2051,2217,2083,1839,1884,2021
711702,50492,18016,50744,17976,699,328,1455,1140,21,941,96,4451,42,49,902,1741,1850,2051,2217,2083,1839,1884,2021
712703,50560,18084,50809,18041,595,324,1446,1128,64,801,81,3806,52,37,902,1741,1850,2051,2217,2083,1839,1884,2021
713704,50640,18164,50874,18106,427,156,1411,1054,118,150,-171,2927,52,40,903,1741,1850,2051,2217,2083,1839,1884,2021
714705,50720,18236,50939,18171,409,247,1396,955,178,35,214,2685,58,35,905,1741,1850,2051,2217,2083,1839,1884,2021
715706,50796,18300,51004,18236,445,348,1379,903,238,310,408,3326,38,46,904,1741,1850,2051,2217,2083,1839,1884,2021
716707,50872,18376,51069,18301,432,185,1370,939,256,901,524,3927,36,33,904,1741,1850,2051,2217,2083,1839,1884,2021
717708,50940,18420,51134,18366,528,611,1378,951,273,1334,485,3715,47,48,904,1741,1850,2051,2217,2083,1839,1884,2021
718709,51016,18496,51199,18431,415,197,1396,950,289,1335,470,4061,34,38,902,1741,1850,2051,2217,2083,1839,1884,2021
719710,51100,18572,51264,18496,292,184,1407,952,285,882,400,4464,45,36,904,1741,1850,2051,2217,2083,1839,1884,2021
720711,51172,18628,51329,18561,433,445,1401,943,270,713,413,4133,40,46,905,1741,1850,2051,2217,2083,1839,1884,2021
721712,51252,18684,51394,18626,315,455,1406,866,279,962,225,3927,44,29,903,1741,1850,2051,2217,2083,1839,1884,2021
722713,51312,18760,51459,18691,571,191,1410,783,295,777,41,4362,37,29,904,1741,1850,2051,2217,2083,1839,1884,2021
723714,51396,18808,51524,18756,248,562,1405,680,306,357,98,4241,45,35,903,1741,1850,2051,2217,2083,1839,1884,2021
724715,51460,18876,51589,18821,500,308,1409,610,321,320,-164,4587,35,39,904,1741,1850,2051,2217,2083,1839,1884,2021
725716,51532,18936,51654,18886,391,414,1421,629,310,967,-37,5037,34,29,903,1741,1850,2051,2217,2083,1839,1884,2021
726717,51592,19000,51719,18951,548,366,1397,613,324,1105,24,4510,43,44,903,1741,1850,2051,2217,2083,1839,1884,2021
727718,51668,19044,51784,19016,334,641,1366,548,361,538,-223,4497,35,29,903,1741,1850,2051,2217,2083,1839,1884,2021
728719,51732,19104,51849,19081,485,447,1347,524,386,436,-108,4861,33,39,902,1741,1850,2051,2217,2083,1839,1884,2021
729720,51796,19160,51914,19146,487,508,1321,528,409,568,-121,4589,45,43,902,1741,1850,2051,2217,2083,1839,1884,2021
730721,51852,19220,51979,19211,598,465,1283,522,431,783,39,4518,48,31,902,1741,1850,2051,2217,2083,1839,1884,2021
731722,51908,19280,52044,19276,609,471,1235,497,455,525,148,4429,48,43,902,1741,1850,2051,2217,2083,1839,1884,2021
732723,51984,19328,52109,19341,345,641,1168,436,471,302,223,4541,36,42,902,1741,1850,2051,2217,2083,1839,1884,2021
733724,52056,19392,52174,19406,387,443,1105,374,459,268,510,4345,44,43,902,1741,1850,2051,2217,2083,1839,1884,2021
734725,52104,19464,52239,19471,707,334,1035,281,463,125,336,4328,38,32,902,1741,1850,2051,2217,2083,1839,1884,2021
735726,52180,19532,52304,19536,344,380,983,258,430,491,523,4875,38,38,902,1741,1850,2051,2217,2083,1839,1884,2021
736727,52220,19604,52369,19601,824,322,927,188,398,787,786,4082,33,41,904,1741,1850,2051,2217,2083,1839,1884,2021
737728,52292,19672,52434,19666,416,368,854,59,371,409,850,3750,34,31,901,1741,1850,2051,2217,2083,1839,1884,2021
738729,52368,19744,52499,19731,352,310,770,-39,338,55,1032,3808,47,41,904,1741,1850,2051,2217,2083,1839,1884,2021
739730,52424,19796,52564,19796,613,576,700,-116,313,136,857,3634,32,29,904,1741,1850,2051,2217,2083,1839,1884,2021
740731,52500,19848,52629,19861,350,591,650,-142,278,467,708,4042,29,40,901,1741,1850,2051,2217,2083,1839,1884,2021
741732,52552,19920,52694,19926,666,333,610,-171,240,605,841,3799,32,36,903,1741,1850,2051,2217,2083,1839,1884,2021
742733,52612,19972,52759,19991,572,599,607,-190,205,521,718,4213,43,40,902,1741,1850,2051,2217,2083,1839,1884,2021
743734,52688,20032,52824,20056,359,505,598,-214,183,417,707,4504,50,46,901,1741,1850,2051,2217,2083,1839,1884,2021
744735,52756,20108,52889,20121,455,291,606,-211,158,511,638,4668,52,41,903,1741,1850,2051,2217,2083,1839,1884,2021
745736,52812,20156,52954,20186,617,662,596,-140,136,628,543,4980,37,37,904,1741,1850,2051,2217,2083,1839,1884,2021
746737,52884,20216,53019,20251,408,518,577,-63,108,811,765,5017,36,31,901,1741,1850,2051,2217,2083,1839,1884,2021
747738,52968,20284,53084,20316,235,415,549,-38,74,402,905,4776,46,45,903,1741,1850,2051,2217,2083,1839,1884,2021
748739,53044,20344,53149,20381,322,521,517,-67,44,-403,850,4958,32,32,904,1741,1850,2051,2217,2083,1839,1884,2021
749740,53096,20408,53214,20446,638,472,484,-69,-7,-417,983,4842,34,31,903,1741,1850,2051,2217,2083,1839,1884,2021
750741,53164,20476,53279,20511,434,418,414,-98,-42,-233,1020,4653,33,41,902,1741,1850,2051,2217,2083,1839,1884,2021
751742,53236,20544,53344,20576,375,415,335,-159,-70,-418,1098,4268,49,46,901,1741,1850,2051,2217,2083,1839,1884,2021
752743,53300,20616,53409,20641,477,356,262,-232,-97,-898,1189,4383,42,36,904,1741,1850,2051,2217,2083,1839,1884,2021
753744,53364,20672,53474,20706,478,567,190,-282,-132,-1024,1174,4375,42,34,903,1741,1850,2051,2217,2083,1839,1884,2021
754745,53420,20716,53539,20771,589,743,122,-281,-188,-539,1270,4191,47,41,902,1741,1850,2051,2217,2083,1839,1884,2021
755746,53488,20788,53604,20836,435,384,64,-291,-233,-108,1244,4022,39,38,900,1741,1850,2051,2217,2083,1839,1884,2021
756747,53564,20868,53669,20901,322,266,19,-299,-252,-238,1078,4000,47,35,904,1741,1850,2051,2217,2083,1839,1884,2021
757748,53612,20924,53734,20966,692,577,-12,-251,-286,-349,1007,4016,38,48,904,1741,1850,2051,2217,2083,1839,1884,2021
758749,53668,21008,53799,21031,603,204,-55,-168,-351,19,972,3618,42,41,901,1741,1850,2051,2217,2083,1839,1884,2021
759750,53728,21084,53864,21096,560,290,-69,-50,-401,520,841,3447,44,36,903,1741,1850,2051,2217,2083,1839,1884,2021
760751,53796,21160,53929,21161,456,277,-47,26,-417,528,644,3017,32,43,903,1741,1850,2051,2217,2083,1839,1884,2021
761752,53864,21236,53994,21226,452,263,2,44,-426,163,377,3535,32,38,904,1741,1850,2051,2217,2083,1839,1884,2021
762753,53940,21296,54059,21291,339,469,66,70,-443,-1,332,3572,33,31,904,1741,1850,2051,2217,2083,1839,1884,2021
763754,53980,21360,54124,21356,819,421,109,93,-480,491,617,3392,38,35,903,1741,1850,2051,2217,2083,1839,1884,2021
764755,54064,21416,54189,21421,246,532,92,20,-518,433,956,2700,31,31,900,1741,1850,2051,2217,2083,1839,1884,2021
765756,54120,21496,54254,21486,607,213,40,-103,-556,-371,1188,2440,48,34,903,1741,1850,2051,2217,2083,1839,1884,2021
766757,54180,21548,54319,21551,563,579,-21,-135,-585,-594,1120,2655,39,31,903,1741,1850,2051,2217,2083,1839,1884,2021
767758,54232,21600,54384,21616,679,595,-48,-130,-601,-72,985,2753,32,33,901,1741,1850,2051,2217,2083,1839,1884,2021
768759,54300,21684,54449,21681,476,172,-61,-104,-598,290,952,3159,32,33,900,1741,1850,2051,2217,2083,1839,1884,2021
769760,54376,21748,54514,21746,363,423,-62,-67,-595,10,1015,3435,48,49,904,1741,1850,2051,2217,2083,1839,1884,2021
770761,54456,21812,54579,21811,295,424,-39,28,-614,-30,1110,3930,47,43,904,1741,1850,2051,2217,2083,1839,1884,2021
771762,54524,21864,54644,21876,441,590,-26,83,-635,21,1111,3843,30,39,904,1741,1850,2051,2217,2083,1839,1884,2021
772763,54588,21932,54709,21941,492,386,-7,158,-655,-112,903,3890,46,33,902,1741,1850,2051,2217,2083,1839,1884,2021
773764,54656,21988,54774,22006,439,547,23,235,-680,-59,741,3874,47,40,903,1741,1850,2051,2217,2083,1839,1884,2021
774765,54724,22048,54839,22071,435,504,59,264,-698,-49,757,3690,41,43,902,1741,1850,2051,2217,2083,1839,1884,2021
775766,54784,22124,54904,22136,541,290,77,243,-708,-262,671,3705,41,32,903,1741,1850,2051,2217,2083,1839,1884,2021
776767,54852,22176,54969,22201,437,606,105,233,-727,-460,584,3566,48,45,903,1741,1850,2051,2217,2083,1839,1884,2021
777768,54912,22224,55034,22266,543,677,122,245,-748,-393,648,3616,37,31,902,1741,1850,2051,2217,2083,1839,1884,2021
778769,54976,22308,55099,22331,495,204,153,248,-778,-192,661,3524,40,34,901,1741,1850,2051,2217,2083,1839,1884,2021
779770,55024,22360,55164,22396,715,619,170,254,-790,-206,541,3379,45,43,903,1741,1850,2051,2217,2083,1839,1884,2021
780771,55096,22436,55229,22461,407,306,197,272,-793,-81,427,3268,33,33,900,1741,1850,2051,2217,2083,1839,1884,2021
781772,55168,22520,55294,22526,398,183,204,313,-799,119,550,3185,38,42,904,1741,1850,2051,2217,2083,1839,1884,2021
782773,55220,22564,55359,22591,664,708,208,320,-790,2,616,2953,29,41,904,1741,1850,2051,2217,2083,1839,1884,2021
783774,55272,22624,55424,22656,680,515,179,333,-776,-7,603,2764,39,41,900,1741,1850,2051,2217,2083,1839,1884,2021
784775,55348,22700,55489,22721,367,301,156,335,-757,150,566,2661,45,30,901,1741,1850,2051,2217,2083,1839,1884,2021
785776,55392,22756,55554,22786,792,562,125,293,-731,149,594,2656,47,45,903,1741,1850,2051,2217,2083,1839,1884,2021
786777,55444,22820,55619,22851,708,464,109,251,-707,-54,572,2988,28,40,900,1741,1850,2051,2217,2083,1839,1884,2021
787778,55492,22876,55684,22916,779,575,91,221,-675,51,567,3187,27,38,901,1741,1850,2051,2217,2083,1839,1884,2021
788779,55532,22932,55749,22981,910,586,81,176,-647,196,591,3328,27,30,900,1741,1850,2051,2217,2083,1839,1884,2021
789780,55628,22976,55814,23046,173,762,69,159,-627,316,676,3796,35,37,899,1741,1850,2051,2217,2083,1839,1884,2021
790781,55680,23052,55879,23111,738,349,79,164,-605,379,527,3788,32,34,902,1741,1850,2051,2217,2083,1839,1884,2021
791782,55728,23128,55944,23176,809,335,92,155,-588,385,560,4103,28,39,901,1741,1850,2051,2217,2083,1839,1884,2021
792783,55780,23184,56009,23241,775,596,104,152,-576,263,500,4343,29,41,901,1741,1850,2051,2217,2083,1839,1884,2021
793784,55836,23236,56074,23306,736,662,120,158,-556,268,493,4377,39,43,900,1741,1850,2051,2217,2083,1839,1884,2021
794785,55900,23296,56139,23371,637,568,134,156,-532,195,507,4595,30,29,900,1741,1850,2051,2217,2083,1839,1884,2021
795786,55952,23352,56204,23436,803,629,159,168,-510,139,553,4627,30,40,901,1741,1850,2051,2217,2083,1839,1884,2021
796787,56016,23428,56269,23501,654,366,170,181,-492,38,426,4711,47,28,899,1741,1850,2051,2217,2083,1839,1884,2021
797788,56080,23492,56334,23566,656,517,188,215,-473,78,369,4638,31,37,902,1741,1850,2051,2217,2083,1839,1884,2021
798789,56128,23532,56399,23631,876,847,193,223,-454,63,435,4639,29,28,901,1741,1850,2051,2217,2083,1839,1884,2021
799790,56184,23592,56464,23696,787,603,200,254,-439,-53,485,4564,36,38,897,1741,1850,2051,2217,2083,1839,1884,2021
800791,56228,23640,56529,23761,964,774,198,277,-411,-127,454,4467,46,43,899,1741,1850,2051,2217,2083,1839,1884,2021
801792,56308,23708,56594,23826,496,521,197,305,-383,-60,366,4273,36,33,897,1741,1850,2051,2217,2083,1839,1884,2021
802793,56348,23776,56659,23891,1026,517,186,316,-360,-71,453,4277,38,37,900,1741,1850,2051,2217,2083,1839,1884,2021
803794,56416,23828,56724,23956,672,733,171,315,-330,-221,344,3995,40,40,898,1741,1850,2051,2217,2083,1839,1884,2021
804795,56468,23876,56789,24021,888,804,148,306,-292,-80,290,3785,45,45,899,1741,1850,2051,2217,2083,1839,1884,2021
805796,56516,23944,56854,24086,959,550,117,277,-256,-83,283,3792,45,41,898,1741,1850,2051,2217,2083,1839,1884,2021
806797,56572,23996,56919,24151,870,766,89,268,-215,-151,199,3795,39,43,898,1741,1850,2051,2217,2083,1839,1884,2021
807798,56620,24064,56984,24216,991,562,67,268,-165,147,156,3840,38,31,898,1741,1850,2051,2217,2083,1839,1884,2021
808799,56684,24124,57049,24281,793,668,67,255,-108,308,213,4102,44,42,898,1741,1850,2051,2217,2083,1839,1884,2021
809800,56740,24180,57114,24346,904,729,80,269,-66,318,195,4157,41,32,899,1741,1850,2051,2217,2083,1839,1884,2021
810801,56788,24220,57179,24411,1025,960,90,275,-13,521,87,4238,30,35,898,1741,1850,2051,2217,2083,1839,1884,2021
811802,56860,24292,57244,24476,716,551,116,273,36,756,11,4433,43,28,895,1741,1850,2051,2217,2083,1839,1884,2021
812803,56892,24348,57309,24541,1257,762,179,267,92,654,-254,4327,34,42,900,1741,1850,2051,2217,2083,1839,1884,2021
813804,56960,24388,57374,24606,803,994,242,253,147,687,48,4494,29,31,894,1741,1850,2051,2217,2083,1839,1884,2021
814805,57000,24448,57439,24671,1183,750,274,225,207,463,200,4701,45,46,897,1741,1850,2051,2217,2083,1839,1884,2021
815806,57080,24516,57504,24736,666,646,279,233,241,332,303,4632,34,34,895,1741,1850,2051,2217,2083,1839,1884,2021
816807,57144,24572,57569,24801,867,807,283,235,255,661,260,4412,37,48,900,1741,1850,2051,2217,2083,1839,1884,2021
817808,57196,24644,57634,24866,1033,598,297,170,282,624,370,4583,32,33,898,1741,1850,2051,2217,2083,1839,1884,2021
818809,57256,24720,57699,24931,939,535,283,99,312,-102,508,4637,36,43,897,1741,1850,2051,2217,2083,1839,1884,2021
819810,57328,24784,57764,24996,781,686,261,74,320,-44,462,4552,49,46,898,1741,1850,2051,2217,2083,1839,1884,2021
820811,57380,24840,57829,25061,1047,797,255,86,334,332,445,4495,34,31,899,1741,1850,2051,2217,2083,1839,1884,2021
821812,57452,24900,57894,25126,789,753,270,96,360,291,485,4501,39,40,896,1741,1850,2051,2217,2083,1839,1884,2021
822813,57480,24952,57959,25191,1384,869,300,145,394,116,326,4467,39,43,898,1741,1850,2051,2217,2083,1839,1884,2021
823814,57548,25024,58024,25256,881,611,322,197,445,167,263,4351,35,46,893,1741,1850,2051,2217,2083,1839,1884,2021
824815,57612,25084,58089,25321,932,767,353,241,498,133,328,4150,31,43,898,1741,1850,2051,2217,2083,1839,1884,2021
825816,57668,25144,58154,25386,1043,774,377,244,540,-141,314,4061,48,39,897,1741,1850,2051,2217,2083,1839,1884,2021
826817,57744,25204,58219,25451,779,780,405,254,568,-116,197,4128,51,44,896,1741,1850,2051,2217,2083,1839,1884,2021
827818,57800,25240,58284,25516,1041,1115,439,201,599,-139,256,3925,45,46,898,1741,1850,2051,2217,2083,1839,1884,2021
828819,57852,25324,58349,25581,1107,492,487,131,626,-196,111,3853,31,45,893,1741,1850,2051,2217,2083,1839,1884,2021
829820,57908,25388,58414,25646,1068,743,542,87,655,-71,32,3708,35,46,897,1741,1850,2051,2217,2083,1839,1884,2021
830821,57976,25472,58479,25711,915,470,591,57,690,340,190,3793,47,49,896,1741,1850,2051,2217,2083,1839,1884,2021
831822,58032,25532,58544,25776,1076,776,631,55,727,410,304,3843,50,37,899,1741,1850,2051,2217,2083,1839,1884,2021
832823,58092,25576,58609,25841,1033,1002,666,52,758,498,475,3703,34,44,896,1741,1850,2051,2217,2083,1839,1884,2021
833824,58140,25652,58674,25906,1203,589,686,11,800,551,475,3603,50,43,895,1741,1850,2051,2217,2083,1839,1884,2021
834825,58196,25720,58739,25971,1114,685,718,-27,832,474,534,3717,45,41,896,1741,1850,2051,2217,2083,1839,1884,2021
835826,58268,25788,58804,26036,906,681,726,-63,851,525,494,3565,54,49,896,1741,1850,2051,2217,2083,1839,1884,2021
836827,58328,25856,58869,26101,1062,679,736,-95,864,672,537,3739,47,49,897,1741,1850,2051,2217,2083,1839,1884,2021
837828,58376,25944,58934,26166,1234,400,737,-135,867,793,729,3666,42,46,896,1741,1850,2051,2217,2083,1839,1884,2021
838829,58444,25988,58999,26231,980,976,734,-170,879,685,547,3586,51,42,897,1741,1850,2051,2217,2083,1839,1884,2021
839830,58508,26060,59064,26296,1031,618,729,-172,898,720,667,3927,52,46,895,1741,1850,2051,2217,2083,1839,1884,2021
840831,58572,26124,59129,26361,1032,719,741,-178,903,646,752,3841,35,39,897,1741,1850,2051,2217,2083,1839,1884,2021
841832,58628,26204,59194,26426,1143,500,760,-167,910,423,572,3990,39,54,897,1741,1850,2051,2217,2083,1839,1884,2021
842833,58700,26276,59259,26491,936,592,774,-155,909,486,754,4053,47,48,897,1741,1850,2051,2217,2083,1839,1884,2021
843834,58768,26340,59324,26556,982,693,805,-155,920,325,519,4031,48,53,898,1741,1850,2051,2217,2083,1839,1884,2021
844835,58836,26424,59389,26621,979,420,828,-169,940,149,408,4178,52,49,897,1741,1850,2051,2217,2083,1839,1884,2021
845836,58872,26492,59454,26686,1414,616,869,-180,945,-5,518,4020,50,52,898,1741,1850,2051,2217,2083,1839,1884,2021
846837,58944,26568,59519,26751,955,503,889,-201,953,-211,280,3941,33,41,894,1741,1850,2051,2217,2083,1839,1884,2021
847838,58996,26636,59584,26816,1222,599,914,-206,956,-228,508,4005,47,52,898,1741,1850,2051,2217,2083,1839,1884,2021
848839,59076,26716,59649,26881,854,432,930,-206,955,-184,513,3862,32,42,895,1741,1850,2051,2217,2083,1839,1884,2021
849840,59128,26760,59714,26946,1220,908,953,-198,957,-182,587,3840,49,52,899,1741,1850,2051,2217,2083,1839,1884,2021
850841,59172,26844,59779,27011,1345,384,964,-178,966,-160,637,3700,37,48,894,1741,1850,2051,2217,2083,1839,1884,2021
851842,59240,26896,59844,27076,1043,800,969,-151,958,97,679,3873,36,44,896,1741,1850,2051,2217,2083,1839,1884,2021
852843,59276,26960,59909,27141,1478,651,965,-108,955,161,690,3576,32,37,896,1741,1850,2051,2217,2083,1839,1884,2021
853844,59336,27020,59974,27206,1184,708,963,-63,938,336,626,3695,36,48,892,1741,1850,2051,2217,2083,1839,1884,2021
854845,59412,27104,60039,27271,971,384,978,-11,944,385,539,3498,36,41,895,1741,1850,2051,2217,2083,1839,1884,2021
855846,59456,27156,60104,27336,1397,800,973,50,959,363,736,3662,43,44,898,1741,1850,2051,2217,2083,1839,1884,2021
856847,59500,27220,60169,27401,1423,651,975,169,958,483,472,3822,32,36,893,1741,1850,2051,2217,2083,1839,1884,2021
857848,59560,27300,60234,27466,1229,433,984,251,973,1037,456,3384,32,53,893,1741,1850,2051,2217,2083,1839,1884,2021
858849,59616,27364,60299,27531,1290,634,1012,266,1010,734,825,3809,50,49,897,1741,1850,2051,2217,2083,1839,1884,2021
859850,59684,27436,60364,27596,1137,526,1028,297,1027,62,784,4062,50,37,895,1741,1850,2051,2217,2083,1839,1884,2021
860851,59740,27500,60429,27661,1299,627,1027,305,1023,147,718,3626,36,48,897,1741,1850,2051,2217,2083,1839,1884,2021
861852,59800,27556,60494,27726,1255,738,1020,293,1024,400,982,3838,33,40,895,1741,1850,2051,2217,2083,1839,1884,2021
862853,59868,27612,60559,27791,1151,749,1005,266,1003,260,700,3983,33,47,894,1741,1850,2051,2217,2083,1839,1884,2021
863854,59920,27664,60624,27856,1368,815,977,213,976,101,828,3621,44,30,895,1741,1850,2051,2217,2083,1839,1884,2021
864855,59988,27752,60689,27921,1164,338,948,176,952,-221,686,3902,33,32,893,1741,1850,2051,2217,2083,1839,1884,2021
865856,60064,27808,60754,27986,1051,749,923,185,923,300,523,4265,32,34,897,1741,1850,2051,2217,2083,1839,1884,2021
866857,60092,27872,60819,28051,1696,650,913,212,909,694,526,4018,40,46,896,1741,1850,2051,2217,2083,1839,1884,2021
867858,60148,27936,60884,28116,1358,651,908,247,894,462,668,4245,47,37,891,1741,1850,2051,2217,2083,1839,1884,2021
868859,60220,27980,60949,28181,1149,927,907,325,874,396,555,4384,49,40,894,1741,1850,2051,2217,2083,1839,1884,2021
869860,60276,28060,61014,28246,1360,459,881,385,882,339,535,3948,36,49,894,1741,1850,2051,2217,2083,1839,1884,2021
870861,60336,28128,61079,28311,1316,605,861,442,867,-71,379,3751,35,35,894,1741,1850,2051,2217,2083,1839,1884,2021
871862,60392,28184,61144,28376,1378,766,865,544,858,1420,-87,5059,34,46,894,1741,1850,2051,2217,2083,1839,1884,2021
872863,60452,28248,61209,28441,1335,667,869,558,867,1773,512,4136,31,45,893,1741,1850,2051,2217,2083,1839,1884,2021
873864,60508,28308,61274,28506,1396,723,878,529,858,-596,586,3379,37,39,893,1741,1850,2051,2217,2083,1839,1884,2021
874865,60564,28396,61339,28571,1408,345,873,547,817,-615,597,4321,51,46,893,1741,1850,2051,2217,2083,1839,1884,2021
875866,60612,28460,61404,28636,1528,646,852,534,810,647,681,3558,32,56,895,1741,1850,2051,2217,2083,1839,1884,2021
876867,60684,28532,61469,28701,1220,538,845,468,797,679,824,3565,52,51,893,1741,1850,2051,2217,2083,1839,1884,2021
877868,60744,28604,61534,28766,1376,529,831,442,776,-357,677,3470,35,47,895,1741,1850,2051,2217,2083,1839,1884,2021
878869,60808,28684,61599,28831,1328,411,825,400,761,-162,940,3851,54,39,895,1741,1850,2051,2217,2083,1839,1884,2021
879870,60876,28748,61664,28896,1274,613,826,374,755,438,804,3468,52,51,895,1741,1850,2051,2217,2083,1839,1884,2021
880871,60916,28840,61729,28961,1655,230,820,318,749,476,922,3446,38,37,895,1741,1850,2051,2217,2083,1839,1884,2021
881872,60988,28916,61794,29026,1247,417,829,410,740,48,1186,4124,33,49,893,1741,1850,2051,2217,2083,1839,1884,2021
882873,61048,28980,61859,29091,1403,568,829,489,695,827,1221,4742,33,45,896,1741,1850,2051,2217,2083,1839,1884,2021
883874,61108,29048,61924,29156,1410,514,840,589,664,1116,753,3971,42,38,895,1741,1850,2051,2217,2083,1839,1884,2021
884875,61168,29096,61989,29221,1417,785,835,488,646,927,897,3553,44,41,894,1741,1850,2051,2217,2083,1839,1884,2021
885876,61232,29172,62054,29286,1368,422,818,443,622,-426,701,4047,54,52,893,1741,1850,2051,2217,2083,1839,1884,2021
886877,61308,29256,62119,29351,1204,298,780,444,571,-115,782,4157,43,51,894,1741,1850,2051,2217,2083,1839,1884,2021
887878,61372,29332,62184,29416,1356,385,775,454,495,1086,799,4099,44,48,897,1741,1850,2051,2217,2083,1839,1884,2021
888879,61428,29372,62249,29481,1468,866,750,420,447,1035,870,4291,48,40,895,1741,1850,2051,2217,2083,1839,1884,2021
889880,61492,29432,62314,29546,1369,622,732,368,423,83,707,4298,35,48,891,1741,1850,2051,2217,2083,1839,1884,2021
890881,61540,29484,62379,29611,1590,738,687,287,400,-298,595,4054,50,36,893,1741,1850,2051,2217,2083,1839,1884,2021
891882,61612,29552,62444,29676,1282,534,662,230,346,372,548,4293,37,37,891,1741,1850,2051,2217,2083,1839,1884,2021
892883,61656,29632,62509,29741,1658,366,620,197,312,624,575,4028,36,54,895,1741,1850,2051,2217,2083,1839,1884,2021
893884,61736,29680,62574,29806,1189,786,579,149,261,370,811,4286,34,39,893,1741,1850,2051,2217,2083,1839,1884,2021
894885,61784,29740,62639,29871,1611,642,533,149,200,291,917,4401,45,38,894,1741,1850,2051,2217,2083,1839,1884,2021
895886,61840,29796,62704,29936,1522,703,520,189,198,518,658,4621,42,50,891,1741,1850,2051,2217,2083,1839,1884,2021
896887,61896,29856,62769,30001,1533,660,501,211,191,723,861,4389,49,54,892,1741,1850,2051,2217,2083,1839,1884,2021
897888,61952,29948,62834,30066,1545,227,502,223,167,339,753,4141,40,45,892,1741,1850,2051,2217,2083,1839,1884,2021
898889,61992,30012,62899,30131,1776,578,468,216,149,295,934,3783,30,44,893,1741,1850,2051,2217,2083,1839,1884,2021
899890,62044,30076,62964,30196,1642,579,440,192,127,127,897,3832,34,47,890,1741,1850,2051,2217,2083,1839,1884,2021
900891,62108,30140,63029,30261,1494,580,403,173,116,-120,867,3685,35,45,891,1741,1850,2051,2217,2083,1839,1884,2021
901892,62156,30208,63094,30326,1715,527,387,164,98,-131,1125,3700,45,50,893,1741,1850,2051,2217,2083,1839,1884,2021
902893,62216,30272,63159,30391,1571,578,377,156,70,261,884,3807,32,39,891,1741,1850,2051,2217,2083,1839,1884,2021
903894,62268,30328,63224,30456,1687,690,371,151,50,364,936,3913,50,39,892,1741,1850,2051,2217,2083,1839,1884,2021
904895,62332,30388,63289,30521,1539,646,366,126,34,-143,1134,3643,48,37,889,1741,1850,2051,2217,2083,1839,1884,2021
905896,62392,30436,63354,30586,1595,817,361,142,-4,-44,1039,4166,39,39,891,1741,1850,2051,2217,2083,1839,1884,2021
906897,62448,30496,63419,30651,1657,673,359,154,-52,609,973,3951,33,45,891,1741,1850,2051,2217,2083,1839,1884,2021
907898,62496,30564,63484,30716,1778,569,348,156,-103,822,1176,4060,35,40,890,1741,1850,2051,2217,2083,1839,1884,2021
908899,62560,30616,63549,30781,1580,785,334,164,-164,527,1165,4140,39,57,890,1741,1850,2051,2217,2083,1839,1884,2021
909900,62620,30696,63614,30846,1636,417,309,193,-213,389,856,4482,51,44,891,1741,1850,2051,2217,2083,1839,1884,2021
910901,62696,30756,63679,30911,1422,673,282,205,-263,686,874,4088,37,42,891,1741,1850,2051,2217,2083,1839,1884,2021
911902,62760,30828,63744,30976,1575,514,254,181,-312,510,735,4132,56,41,893,1741,1850,2051,2217,2083,1839,1884,2021
912903,62820,30880,63809,31041,1631,780,210,193,-348,276,938,4292,52,46,893,1741,1850,2051,2217,2083,1839,1884,2021
913904,62880,30948,63874,31106,1637,576,167,230,-382,984,798,4804,50,52,890,1741,1850,2051,2217,2083,1839,1884,2021
914905,62952,31012,63939,31171,1479,628,126,277,-395,1235,650,4947,38,40,891,1741,1850,2051,2217,2083,1839,1884,2021
915906,63016,31072,64004,31236,1581,684,91,255,-397,322,744,4119,41,47,892,1741,1850,2051,2217,2083,1839,1884,2021
916907,63076,31128,64069,31301,1638,745,45,201,-402,-102,592,4347,32,48,891,1741,1850,2051,2217,2083,1839,1884,2021
917908,63124,31188,64134,31366,1808,701,-5,176,-396,169,611,4142,33,53,891,1741,1850,2051,2217,2083,1839,1884,2021
918909,63172,31256,64199,31431,1829,597,-47,181,-404,640,966,3950,45,44,889,1741,1850,2051,2217,2083,1839,1884,2021
919910,63228,31316,64264,31496,1741,703,-81,218,-415,679,715,4146,33,50,889,1741,1850,2051,2217,2083,1839,1884,2021
920911,63288,31384,64329,31561,1697,601,-117,210,-395,384,811,3750,47,41,889,1741,1850,2051,2217,2083,1839,1884,2021
921912,63356,31468,64394,31626,1595,377,-127,172,-368,-201,927,3485,44,53,888,1741,1850,2051,2217,2083,1839,1884,2021
922913,63412,31512,64459,31691,1756,903,-156,174,-353,-487,874,3892,36,37,892,1741,1850,2051,2217,2083,1839,1884,2021
923914,63456,31572,64524,31756,1931,709,-186,292,-351,227,670,3536,42,37,889,1741,1850,2051,2217,2083,1839,1884,2021
924915,63524,31632,64589,31821,1629,715,-213,385,-311,1308,591,3776,32,48,887,1741,1850,2051,2217,2083,1839,1884,2021
925916,63580,31696,64654,31886,1790,666,-243,371,-277,1058,993,3187,49,44,890,1741,1850,2051,2217,2083,1839,1884,2021
926917,63624,31748,64719,31951,1966,832,-251,326,-302,19,1317,3236,52,40,889,1741,1850,2051,2217,2083,1839,1884,2021
927918,63704,31804,64784,32016,1498,793,-245,376,-365,325,1251,4142,51,43,887,1741,1850,2051,2217,2083,1839,1884,2021
928919,63776,31880,64849,32081,1589,530,-212,515,-414,1171,1187,4294,46,46,890,1741,1850,2051,2217,2083,1839,1884,2021
929920,63828,31932,64914,32146,1856,846,-173,619,-470,1236,1353,4096,53,49,892,1741,1850,2051,2217,2083,1839,1884,2021
930921,63904,31988,64979,32211,1543,807,-145,675,-512,337,1361,3930,49,54,888,1741,1850,2051,2217,2083,1839,1884,2021
931922,63992,32068,65044,32276,1366,488,-137,711,-548,166,1262,4189,39,52,890,1741,1850,2051,2217,2083,1839,1884,2021
932923,64068,32128,65109,32341,1502,745,-140,701,-596,281,1340,3765,37,48,893,1741,1850,2051,2217,2083,1839,1884,2021
933924,64136,32192,65174,32406,1599,696,-123,649,-674,260,1562,3656,36,45,892,1741,1850,2051,2217,2083,1839,1884,2021
934925,64192,32252,65239,32471,1761,753,-130,579,-706,-154,1184,3771,46,39,892,1741,1850,2051,2217,2083,1839,1884,2021
935926,64260,32316,65304,32536,1607,704,-132,573,-728,157,1457,4058,47,48,889,1741,1850,2051,2217,2083,1839,1884,2021
936927,64328,32368,65369,32601,1604,870,-138,595,-722,180,1326,3965,53,45,891,1741,1850,2051,2217,2083,1839,1884,2021
937928,64404,32436,65434,32666,1491,666,-152,648,-700,405,1190,4122,45,39,890,1741,1850,2051,2217,2083,1839,1884,2021
938929,64464,32492,65499,32731,1697,827,-175,656,-662,432,1219,3509,37,46,891,1741,1850,2051,2217,2083,1839,1884,2021
939930,64540,32552,65564,32796,1485,783,-199,634,-609,78,1037,3481,36,40,889,1741,1850,2051,2217,2083,1839,1884,2021
940931,64600,32612,65629,32861,1691,789,-244,658,-561,229,1073,3656,46,42,891,1741,1850,2051,2217,2083,1839,1884,2021
941932,64672,32672,65694,32926,1533,796,-271,725,-526,786,1242,3596,39,41,889,1741,1850,2051,2217,2083,1839,1884,2021
942933,64728,32728,65759,32991,1744,857,-292,771,-495,856,1284,3553,58,45,891,1741,1850,2051,2217,2083,1839,1884,2021
943934,64820,32800,65824,33056,1261,648,-294,796,-483,665,1278,3563,42,46,889,1741,1850,2051,2217,2083,1839,1884,2021
944935,64884,32860,65889,33121,1613,804,-294,802,-486,570,1249,3270,48,46,893,1741,1850,2051,2217,2083,1839,1884,2021
945936,64960,32928,65954,33186,1450,701,-291,788,-506,531,1306,3487,54,45,891,1741,1850,2051,2217,2083,1839,1884,2021
946937,65032,32980,66019,33251,1491,917,-302,766,-538,422,1352,3271,52,49,892,1741,1850,2051,2217,2083,1839,1884,2021
947938,65100,33044,66084,33316,1539,769,-290,717,-574,372,1439,3166,54,52,891,1741,1850,2051,2217,2083,1839,1884,2021
948939,65176,33112,66149,33381,1425,715,-290,664,-609,604,1495,3350,50,44,891,1741,1850,2051,2217,2083,1839,1884,2021
949940,65236,33196,66348,33580,1796,655,-277,580,-653,435,1602,3019,54,43,892,1741,1850,2051,2217,2083,1839,1884,2021
950941,65312,33256,66413,33645,1582,961,-276,485,-698,184,1650,3116,56,44,891,1741,1850,2051,2217,2083,1839,1884,2021
951942,65400,33324,66478,33710,1404,858,-262,429,-758,375,1727,3301,54,43,889,1741,1850,2051,2217,2083,1839,1884,2021
952943,65468,33380,66543,33775,1652,1019,-248,386,-813,383,1819,3178,45,44,891,1741,1850,2051,2217,2083,1839,1884,2021
953944,65552,33460,66608,33840,1429,700,-221,392,-862,427,1903,3567,57,61,890,1741,1850,2051,2217,2083,1839,1884,2021
954945,65616,33540,66673,33905,1681,683,-200,438,-891,577,1781,3730,61,46,891,1741,1850,2051,2217,2083,1839,1884,2021
955946,65708,33628,66738,33970,1298,555,-178,492,-909,849,1860,3870,43,53,890,1741,1850,2051,2217,2083,1839,1884,2021
956947,65772,33708,66803,34035,1649,637,-168,478,-908,626,1673,3506,45,53,893,1741,1850,2051,2217,2083,1839,1884,2021
957948,65860,33772,66868,34100,1322,838,-166,486,-887,202,1766,4008,53,51,893,1741,1850,2051,2217,2083,1839,1884,2021
958949,65932,33828,66933,34165,1513,949,-185,508,-851,353,1821,3843,56,46,892,1741,1850,2051,2217,2083,1839,1884,2021
959950,66020,33908,66998,34230,1286,631,-178,548,-829,551,1722,4112,51,46,891,1741,1850,2051,2217,2083,1839,1884,2021
960951,66080,33992,67063,34295,1642,557,-171,546,-808,495,1691,3963,52,61,892,1741,1850,2051,2217,2083,1839,1884,2021
961952,66140,34056,67128,34360,1649,809,-165,544,-765,-39,1384,3919,40,48,893,1741,1850,2051,2217,2083,1839,1884,2021
962953,66212,34132,67193,34425,1491,646,-186,534,-721,99,1244,4130,46,52,890,1741,1850,2051,2217,2083,1839,1884,2021
963954,66292,34204,67258,34490,1373,688,-200,528,-689,399,1329,3841,50,44,891,1741,1850,2051,2217,2083,1839,1884,2021
964955,66364,34284,67323,34555,1464,569,-219,475,-684,454,1539,3740,43,49,893,1741,1850,2051,2217,2083,1839,1884,2021
965956,66420,34372,67388,34620,1676,441,-234,405,-691,12,1425,3618,52,47,893,1741,1850,2051,2217,2083,1839,1884,2021
966957,66488,34452,67453,34685,1522,523,-257,344,-697,-64,1454,3767,42,48,893,1741,1850,2051,2217,2083,1839,1884,2021
967958,66564,34512,67518,34750,1409,779,-280,347,-695,566,1460,3656,52,62,893,1741,1850,2051,2217,2083,1839,1884,2021
968959,66632,34592,67583,34815,1506,511,-297,338,-700,763,1488,3554,50,48,893,1741,1850,2051,2217,2083,1839,1884,2021
969960,66716,34680,67648,34880,1283,383,-316,355,-742,705,1584,3584,43,59,893,1741,1850,2051,2217,2083,1839,1884,2021
970961,66792,34752,67713,34945,1371,574,-329,328,-777,591,1722,3306,52,45,895,1741,1850,2051,2217,2083,1839,1884,2021
971962,66860,34828,67778,35010,1467,511,-351,356,-816,665,1548,3751,48,43,895,1741,1850,2051,2217,2083,1839,1884,2021
972963,66936,34892,67843,35075,1354,662,-391,409,-830,1087,1777,3534,59,53,892,1741,1850,2051,2217,2083,1839,1884,2021
973964,67008,34968,67908,35140,1396,499,-390,483,-854,1152,2010,3791,45,54,894,1741,1850,2051,2217,2083,1839,1884,2021
974965,67092,35044,67973,35205,1223,486,-390,503,-871,532,1849,3867,57,46,894,1741,1850,2051,2217,2083,1839,1884,2021
975966,67164,35088,68038,35270,1364,912,-382,548,-874,384,1914,4052,46,48,895,1741,1850,2051,2217,2083,1839,1884,2021
976967,67240,35160,68103,35335,1302,553,-398,589,-855,600,1676,3914,40,49,894,1741,1850,2051,2217,2083,1839,1884,2021
977968,67300,35244,68168,35400,1508,380,-394,631,-837,512,1825,4065,40,50,894,1741,1850,2051,2217,2083,1839,1884,2021
978969,67384,35304,68233,35465,1185,686,-403,630,-834,32,1830,3897,42,43,895,1741,1850,2051,2217,2083,1839,1884,2021
979970,67456,35364,68298,35530,1327,692,-396,625,-827,-43,1704,4042,38,46,895,1741,1850,2051,2217,2083,1839,1884,2021
980971,67532,35432,68363,35595,1264,588,-396,624,-798,5,1876,4180,37,48,895,1741,1850,2051,2217,2083,1839,1884,2021
981972,67600,35512,68428,35660,1360,420,-395,623,-764,-178,1791,4209,58,51,894,1741,1850,2051,2217,2083,1839,1884,2021
982973,67680,35568,68493,35725,1193,731,-388,631,-724,-200,1678,4209,40,41,895,1741,1850,2051,2217,2083,1839,1884,2021
983974,67764,35656,68558,35790,1120,303,-379,623,-692,-103,1813,4308,46,42,895,1741,1850,2051,2217,2083,1839,1884,2021
984975,67828,35708,68623,35855,1371,769,-379,622,-665,39,1802,4104,59,49,897,1741,1850,2051,2217,2083,1839,1884,2021
985976,67896,35780,68688,35920,1317,510,-388,638,-646,136,1523,4245,56,52,895,1741,1850,2051,2217,2083,1839,1884,2021
986977,67984,35848,68753,35985,1040,557,-400,680,-642,469,1713,3900,43,42,894,1741,1850,2051,2217,2083,1839,1884,2021
987978,68064,35912,68818,36050,1122,608,-424,712,-645,524,1781,3923,57,51,896,1741,1850,2051,2217,2083,1839,1884,2021
988979,68136,35988,68883,36115,1213,445,-442,722,-664,388,1614,3695,42,43,897,1741,1850,2051,2217,2083,1839,1884,2021
989980,68220,36044,68948,36180,1041,706,-459,765,-679,429,1596,3976,52,45,896,1741,1850,2051,2217,2083,1839,1884,2021
990981,68296,36124,69013,36245,1128,387,-482,801,-687,785,1531,3574,42,42,896,1741,1850,2051,2217,2083,1839,1884,2021
991982,68384,36200,69078,36310,950,425,-506,818,-725,695,1595,3656,43,42,897,1741,1850,2051,2217,2083,1839,1884,2021
992983,68452,36252,69143,36375,1196,741,-527,811,-779,417,1622,3472,55,55,899,1741,1850,2051,2217,2083,1839,1884,2021
993984,68544,36336,69208,36440,864,317,-545,762,-827,265,1574,3392,40,51,897,1741,1850,2051,2217,2083,1839,1884,2021
994985,68612,36420,69273,36505,1160,294,-573,702,-869,345,1641,3372,57,46,898,1741,1850,2051,2217,2083,1839,1884,2021
995986,68692,36484,69338,36570,992,545,-597,658,-898,268,1564,3272,39,57,899,1741,1850,2051,2217,2083,1839,1884,2021
996987,68756,36564,69403,36635,1193,327,-620,588,-921,152,1636,3171,56,48,898,1741,1850,2051,2217,2083,1839,1884,2021
997988,68832,36624,69468,36700,1031,583,-629,524,-933,-47,1645,3401,43,59,897,1741,1850,2051,2217,2083,1839,1884,2021
998989,68924,36696,69533,36765,798,425,-640,468,-929,-184,1591,3209,58,51,898,1741,1850,2051,2217,2083,1839,1884,2021
999990,69000,36784,69598,36830,984,197,-649,436,-912,-93,1503,3527,40,56,899,1741,1850,2051,2217,2083,1839,1884,2021
1000991,69076,36856,69663,36895,971,388,-647,413,-903,26,1645,3515,52,52,900,1741,1850,2051,2217,2083,1839,1884,2021
1001992,69176,36916,69728,36960,629,544,-645,396,-889,-34,1560,3427,44,45,900,1741,1850,2051,2217,2083,1839,1884,2021
1002993,69248,36992,69793,37025,971,331,-639,379,-872,-169,1574,3669,36,44,899,1741,1850,2051,2217,2083,1839,1884,2021
1003994,69320,37068,69858,37090,962,317,-636,375,-858,-148,1568,3536,37,45,901,1741,1850,2051,2217,2083,1839,1884,2021
1004995,69392,37148,69923,37155,954,249,-643,382,-837,-2,1482,3607,39,53,899,1741,1850,2051,2217,2083,1839,1884,2021
1005996,69472,37224,69988,37220,835,286,-635,379,-824,-100,1563,3564,41,54,900,1741,1850,2051,2217,2083,1839,1884,2021
1006997,69568,37304,70053,37285,599,217,-627,364,-829,-262,1617,3598,45,44,899,1741,1850,2051,2217,2083,1839,1884,2021
1007998,69636,37372,70118,37350,945,364,-620,343,-841,-305,1581,3604,43,54,900,1741,1850,2051,2217,2083,1839,1884,2021
1008999,69716,37452,70183,37415,777,195,-617,317,-864,-182,1582,3438,38,49,903,1741,1850,2051,2217,2083,1839,1884,2021
1010000,69784,37536,70248,37480,923,122,-615,270,-905,-198,1532,3366,53,59,900,1741,1850,2051,2217,2083,1839,1884,2021
1011001,69868,37596,70313,37545,700,428,-618,214,-948,-385,1552,3305,37,54,902,1741,1850,2051,2217,2083,1839,1884,2021
1012002,69948,37676,70378,37610,731,160,-617,164,-1001,-373,1470,3294,56,53,901,1741,1850,2051,2217,2083,1839,1884,2021
1013003,70036,37760,70443,37675,604,87,-621,118,-1056,-167,1397,3037,39,55,901,1741,1850,2051,2217,2083,1839,1884,2021
1014004,70116,37828,70508,37740,686,283,-618,76,-1102,-187,1362,3044,54,42,902,1741,1850,2051,2217,2083,1839,1884,2021
1015005,70188,37900,70573,37805,777,225,-628,33,-1142,-216,1315,2823,49,44,903,1741,1850,2051,2217,2083,1839,1884,2021
1016006,70256,37968,70638,37870,824,271,-635,2,-1179,-334,1220,2785,39,48,902,1741,1850,2051,2217,2083,1839,1884,2021
1017007,70356,38028,70703,37935,381,377,-644,-14,-1209,24,1146,2808,51,50,901,1741,1850,2051,2217,2083,1839,1884,2021
1018008,70440,38124,70768,38000,558,-111,-663,-37,-1222,104,1219,2744,48,42,901,1741,1850,2051,2217,2083,1839,1884,2021
1019009,70516,38196,70833,38065,644,180,-690,-70,-1222,-136,1159,2521,47,44,904,1741,1850,2051,2217,2083,1839,1884,2021
1020010,70600,38272,70898,38130,522,116,-716,-121,-1231,-312,1175,2320,58,48,903,1741,1850,2051,2217,2083,1839,1884,2021
1021011,70700,38344,70963,38195,280,158,-749,-133,-1233,-220,1074,2632,38,46,903,1741,1850,2051,2217,2083,1839,1884,2021
1022012,70784,38420,71028,38260,456,94,-781,-156,-1217,-102,1071,2458,49,46,904,1741,1850,2051,2217,2083,1839,1884,2021
1023013,70856,38496,71093,38325,598,81,-815,-203,-1193,-383,992,2516,48,41,905,1741,1850,2051,2217,2083,1839,1884,2021
1024014,70928,38576,71158,38390,589,12,-833,-248,-1170,-377,998,2569,38,41,903,1741,1850,2051,2217,2083,1839,1884,2021
1025015,71016,38640,71223,38455,361,214,-855,-285,-1151,-354,1041,2539,50,46,903,1741,1850,2051,2217,2083,1839,1884,2021
1026016,71120,38716,71288,38520,114,50,-864,-305,-1140,-270,1026,2792,51,45,904,1741,1850,2051,2217,2083,1839,1884,2021
1027017,71176,38772,71353,38585,725,311,-876,-328,-1121,-296,1094,2676,37,51,904,1741,1850,2051,2217,2083,1839,1884,2021
1028018,71280,38836,71418,38650,77,212,-871,-361,-1106,-529,1034,2863,43,55,906,1741,1850,2051,2217,2083,1839,1884,2021
