%  Data file recorded 2016/9/11  22:38:20
%  Stride Frequency         = [1, 1]
%  Lead In /Lead Out        = 
%  Deltas (Fractional)      = [0.25, 0.25, 0.25],[0.25, 0.25, 0.25]
%  Phase                    = 32768
%  Experiment.py 
%  Motor Gains    = [5000, 400, 200, 0, 300, 5000, 400, 200, 0, 300]
% Columns: 
% time | Right Leg Pos | Left Leg Pos | Commanded Right Leg Pos | Commanded Left Leg Pos | DCR | DCL | GyroX | GyroY | GyroZ | AX | AY | AZ | RBEMF | LBEMF | VBatt | S1 | S2 | S3 | S4 | S5 | S6 | S7 | S8
266,15536,-48520,-116,-32884,-3800,3800,-10,4,0,213,271,3904,-6,1,926,1760,1832,2069,2245,2007,1767,1843,1986
1267,15528,-48540,-116,-32884,-3800,3800,-11,3,1,199,270,3894,0,-4,927,1760,1832,2069,2245,2007,1767,1843,1986
2268,15536,-48528,-116,-32884,-3800,3800,-12,1,0,213,275,3906,9,6,926,1759,1832,2068,2245,2007,1770,1846,1985
3269,15536,-48536,-116,-32884,-3800,3800,-13,-2,0,206,299,3876,4,-3,926,1759,1832,2068,2245,2007,1770,1846,1985
4270,15524,-48536,-116,-32884,-3800,3800,-13,-1,1,219,287,3870,-1,3,926,1759,1832,2068,2245,2007,1770,1846,1985
5271,15532,-48536,-116,-32884,-3800,3800,-12,1,1,258,283,3871,6,-1,927,1759,1832,2068,2245,2007,1770,1846,1985
6272,15520,-48524,-116,-32884,-3800,3800,-11,1,2,240,308,3915,9,-6,926,1759,1832,2068,2245,2007,1770,1846,1985
7273,15528,-48540,-116,-32884,-3800,3800,-13,0,3,241,297,3926,7,7,926,1759,1832,2068,2245,2007,1770,1846,1985
8274,15524,-48536,-116,-32884,-3800,3800,-13,0,2,231,284,3902,6,-6,926,1761,1834,2070,2248,2008,1770,1846,1985
9275,15528,-48532,-116,-32884,-3800,3800,-13,0,0,230,292,3938,10,-4,926,1761,1834,2070,2248,2008,1770,1846,1985
10276,15528,-48536,-116,-32884,-3800,3800,-11,-1,0,249,289,3935,7,6,926,1761,1834,2070,2248,2008,1770,1846,1985
11277,15532,-48532,-116,-32884,-3800,3800,-9,-1,1,222,268,3904,10,-7,926,1761,1834,2070,2248,2008,1770,1846,1985
12278,15536,-48536,-116,-32884,-3800,3800,-9,1,4,213,265,3907,10,-1,926,1761,1834,2070,2248,2008,1770,1846,1985
13279,15520,-48536,-116,-32884,-3800,3800,-10,2,3,224,265,3914,10,1,926,1760,1833,2068,2245,2006,1770,1847,1985
14280,15536,-48536,-116,-32884,-3800,3800,-11,1,1,210,281,3909,7,-3,926,1760,1833,2068,2245,2006,1770,1847,1985
15281,15532,-48532,-116,-32884,-3800,3800,-12,0,1,233,271,3880,6,-7,926,1760,1833,2068,2245,2006,1770,1847,1985
16282,15528,-48532,-116,-32884,-3800,3800,-13,-1,3,214,270,3908,5,-2,926,1760,1833,2068,2245,2006,1770,1847,1985
17283,15532,-48544,-116,-32884,-3800,3800,-13,-3,2,180,271,3882,5,-7,926,1760,1833,2068,2245,2006,1770,1847,1985
18284,15524,-48512,-116,-32884,-3800,3800,-9,-2,1,185,267,3890,5,-1,926,1760,1833,2068,2245,2006,1770,1847,1985
19285,15524,-48528,-116,-32884,-3800,3800,-8,-1,2,208,263,3910,-6,-1,925,1760,1832,2067,2245,2008,1771,1847,1986
20286,15528,-48536,-116,-32884,-3800,3800,-10,0,1,212,285,3869,-7,-8,926,1760,1832,2067,2245,2008,1771,1847,1986
21287,15528,-48524,-116,-32884,-3800,3800,-7,0,1,201,295,3918,-6,3,926,1760,1832,2067,2245,2008,1771,1847,1986
22288,15524,-48552,-116,-32884,-3800,3800,-6,0,0,234,290,3924,-1,-3,926,1760,1832,2067,2245,2008,1771,1847,1986
23289,15520,-48540,-116,-32884,-3800,3800,-8,0,4,231,297,3903,-2,-7,926,1760,1832,2067,2245,2008,1771,1847,1986
24290,15528,-48536,-116,-32884,-3800,3800,-9,0,3,222,300,3901,-6,4,926,1755,1831,2070,2246,2008,1772,1846,1984
25291,15528,-48548,-116,-32884,-3800,3800,-8,0,3,221,268,3946,4,-7,926,1755,1831,2070,2246,2008,1772,1846,1984
26292,15528,-48524,-116,-32884,-3800,3800,-9,1,0,249,286,3933,-4,0,926,1755,1831,2070,2246,2008,1772,1846,1984
27293,15528,-48536,-116,-32884,-3800,3800,-10,0,0,249,293,3919,-7,6,926,1755,1831,2070,2246,2008,1772,1846,1984
28294,15528,-48548,-116,-32884,-3800,3800,-9,-2,1,210,303,3905,-2,-6,926,1755,1831,2070,2246,2008,1772,1846,1984
29295,15532,-48528,-116,-32884,-3800,3800,-9,-2,1,222,287,3890,-3,5,927,1755,1831,2070,2246,2008,1772,1846,1984
30296,15520,-48536,-116,-32884,-3800,3800,-10,-2,3,238,271,3902,-5,-6,926,1760,1833,2068,2245,2007,1770,1846,1986
31297,15520,-48536,-116,-32884,-3800,3800,-12,-2,1,260,301,3900,3,6,926,1760,1833,2068,2245,2007,1770,1846,1986
32298,15532,-48536,-116,-32884,-3800,3800,-11,-2,2,238,314,3914,0,-4,926,1760,1833,2068,2245,2007,1770,1846,1986
33299,15532,-48536,-116,-32884,-3800,3800,-9,-1,2,250,315,3922,0,-3,926,1760,1833,2068,2245,2007,1770,1846,1986
34301,15532,-48520,-116,-32884,-3800,3800,-8,-1,0,251,291,3914,9,4,926,1760,1833,2068,2245,2007,1770,1846,1986
35301,15528,-48548,-116,-32884,-3800,3800,-9,0,1,234,291,3889,10,-7,926,1760,1831,2067,2245,2007,1771,1847,1986
36302,15528,-48532,-116,-32884,-3800,3800,-9,0,2,224,274,3897,10,7,924,1760,1831,2067,2245,2007,1771,1847,1986
37303,15532,-48528,-116,-32884,-3800,3800,-7,-1,0,232,289,3904,-3,-8,926,1760,1831,2067,2245,2007,1771,1847,1986
38304,15528,-48536,-116,-32884,-3800,3800,-9,-1,-1,235,299,3901,0,-1,926,1760,1831,2067,2245,2007,1771,1847,1986
39305,15528,-48528,-116,-32884,-3800,3800,-8,-1,0,241,302,3890,3,-1,926,1760,1831,2067,2245,2007,1771,1847,1986
40306,15528,-48536,-116,-32884,-3800,3800,-6,-1,3,213,279,3911,-4,0,926,1760,1831,2067,2245,2007,1771,1847,1986
41307,15516,-48524,-116,-32884,-3800,3800,-7,2,0,243,262,3902,-6,6,926,1759,1832,2067,2241,2007,1772,1848,1988
42308,15532,-48528,-116,-32884,-3800,3800,-10,1,-1,237,302,3920,-5,-7,926,1759,1832,2067,2241,2007,1772,1848,1988
43309,15524,-48524,-116,-32884,-3800,3800,-9,0,-1,238,284,3926,-8,1,926,1759,1832,2067,2241,2007,1772,1848,1988
44310,15528,-48528,-116,-32884,-3800,3800,-11,0,1,246,258,3934,-6,7,926,1759,1832,2067,2241,2007,1772,1848,1988
45311,15532,-48540,-116,-32884,-3800,3800,-11,3,3,242,286,3941,-1,-4,926,1759,1832,2067,2241,2007,1772,1848,1988
46312,15524,-48536,-116,-32884,-3800,3800,-11,2,3,249,281,3904,2,6,926,1759,1832,2068,2243,2006,1769,1846,1985
47313,15532,-48532,-116,-32884,-3800,3800,-10,2,2,222,293,3883,7,4,926,1759,1832,2068,2243,2006,1769,1846,1985
48314,15520,-48528,-116,-32884,-3800,3800,-9,-1,1,224,313,3889,8,-8,926,1759,1832,2068,2243,2006,1769,1846,1985
49315,15520,-48536,-116,-32884,-3800,3800,-11,0,1,246,281,3893,8,4,926,1759,1832,2068,2243,2006,1769,1846,1985
50316,15516,-48540,-116,-32884,-3800,3800,-11,1,0,238,285,3886,10,4,926,1759,1832,2068,2243,2006,1769,1846,1985
51317,15532,-48532,-116,-32884,-3800,3800,-10,1,-1,230,266,3889,10,-6,926,1759,1832,2068,2243,2006,1769,1846,1985
52318,15520,-48528,-116,-32884,-3800,3800,-9,2,-1,216,281,3910,10,7,926,1760,1832,2067,2243,2007,1771,1847,1986
53319,15528,-48532,-116,-32884,-3800,3800,-11,1,0,222,294,3922,10,-7,924,1760,1832,2067,2243,2007,1771,1847,1986
54320,15532,-48548,-116,-32884,-3800,3800,-12,0,1,214,327,3901,8,6,926,1760,1832,2067,2243,2007,1771,1847,1986
55321,15512,-48544,-116,-32884,-3800,3800,-12,1,0,223,292,3905,9,0,926,1760,1832,2067,2243,2007,1771,1847,1986
56322,15524,-48528,-116,-32884,-3800,3800,-11,1,1,238,278,3909,9,-6,926,1760,1832,2067,2243,2007,1771,1847,1986
57323,15532,-48536,-116,-32884,-3800,3800,-11,1,0,226,283,3920,4,-3,926,1758,1832,2067,2245,2003,1767,1846,1988
58324,15520,-48528,-116,-32884,-3800,3800,-9,1,1,229,287,3936,6,6,926,1758,1832,2067,2245,2003,1767,1846,1988
59325,15520,-48540,-116,-32884,-3800,3800,-12,0,1,230,294,3913,-1,2,926,1758,1832,2067,2245,2003,1767,1846,1988
60326,15532,-48536,-116,-32884,-3800,3800,-12,-2,1,205,306,3906,-5,-6,926,1758,1832,2067,2245,2003,1767,1846,1988
61327,15524,-48532,-116,-32884,-3800,3800,-11,0,0,192,280,3922,-4,-4,926,1758,1832,2067,2245,2003,1767,1846,1988
62328,15536,-48536,-116,-32884,-3800,3800,-11,-1,-2,190,293,3900,-8,1,926,1759,1832,2069,2244,2007,1770,1847,1986
63329,15540,-48532,-116,-32884,-3800,3800,-13,-2,2,181,272,3925,-8,6,926,1759,1832,2069,2244,2007,1770,1847,1986
64330,15536,-48536,-116,-32884,-3800,3800,-13,-3,5,184,295,3924,-8,7,926,1759,1832,2069,2244,2007,1770,1847,1986
65331,15532,-48524,-116,-32884,-3800,3800,-13,-2,0,218,295,3883,-8,-4,926,1759,1832,2069,2244,2007,1770,1847,1986
66332,15536,-48540,-116,-32884,-3800,3800,-12,0,0,211,291,3884,-7,-5,926,1759,1832,2069,2244,2007,1770,1847,1986
67333,15524,-48532,-116,-32884,-3800,3800,-13,-1,1,205,274,3923,5,-3,926,1759,1832,2069,2244,2007,1770,1847,1986
68334,15536,-48540,-116,-32884,-3800,3800,-12,2,3,220,269,3952,10,0,926,1760,1832,2068,2245,2007,1771,1847,1986
69335,15532,-48536,-116,-32884,-3800,3800,-14,3,3,227,280,3944,10,-7,926,1760,1832,2068,2245,2007,1771,1847,1986
70336,15524,-48544,-116,-32884,-3800,3800,-13,2,3,198,272,3931,0,-3,925,1760,1832,2068,2245,2007,1771,1847,1986
71337,15532,-48536,-116,-32884,-3800,3800,-12,1,1,213,291,3898,-8,-7,926,1760,1832,2068,2245,2007,1771,1847,1986
72338,15524,-48548,-116,-32884,-3800,3800,-14,3,2,210,275,3890,-5,-6,926,1760,1832,2068,2245,2007,1771,1847,1986
73339,15528,-48532,-116,-32884,-3800,3800,-12,-1,4,213,262,3866,-8,4,926,1759,1832,2069,2245,2006,1769,1847,1983
74340,15536,-48524,-116,-32884,-3800,3800,-11,0,4,225,284,3909,-6,-4,926,1759,1832,2069,2245,2006,1769,1847,1983
75341,15524,-48512,-116,-32884,-3800,3800,-12,0,3,214,271,3938,0,-8,926,1759,1832,2069,2245,2006,1769,1847,1983
76342,15524,-48528,-116,-32884,-3800,3800,-15,1,2,208,305,3882,-3,-4,926,1759,1832,2069,2245,2006,1769,1847,1983
77343,15536,-48520,-116,-32884,-3800,3800,-13,1,0,219,313,3929,0,5,926,1759,1832,2069,2245,2006,1769,1847,1983
78344,15524,-48532,-116,-32884,-3800,3800,-12,1,-1,222,303,3926,7,-5,926,1759,1832,2069,2245,2006,1769,1847,1983
79345,15532,-48532,-116,-32884,-3800,3800,-12,1,3,218,276,3893,6,6,926,1760,1834,2069,2245,2006,1769,1845,1984
80346,15524,-48520,-116,-32884,-3800,3800,-11,1,2,208,302,3911,10,2,926,1760,1834,2069,2245,2006,1769,1845,1984
81347,15528,-48524,-116,-32884,-3800,3800,-10,-2,0,232,282,3897,9,-8,926,1760,1834,2069,2245,2006,1769,1845,1984
82348,15524,-48544,-116,-32884,-3800,3800,-11,-4,0,239,278,3894,10,6,926,1760,1834,2069,2245,2006,1769,1845,1984
83349,15536,-48528,-116,-32884,-3800,3800,-10,-1,1,211,263,3879,10,5,926,1760,1834,2069,2245,2006,1769,1845,1984
84350,15528,-48536,-116,-32884,-3800,3800,-10,0,2,219,273,3893,10,-8,926,1758,1831,2070,2247,2008,1770,1848,1986
85351,15528,-48532,-116,-32884,-3800,3800,-11,-1,2,217,259,3911,10,4,926,1758,1831,2070,2247,2008,1770,1848,1986
86352,15536,-48540,-116,-32884,-3800,3800,-13,-2,0,215,266,3891,10,7,926,1758,1831,2070,2247,2008,1770,1848,1986
87353,15532,-48536,-116,-32884,-3800,3800,-11,0,-1,211,290,3890,3,-7,924,1758,1831,2070,2247,2008,1770,1848,1986
88354,15544,-48536,-116,-32884,-3800,3800,-9,0,1,208,295,3899,-8,1,926,1758,1831,2070,2247,2008,1770,1848,1986
89355,15528,-48524,-116,-32884,-3800,3800,-7,0,1,218,286,3894,-8,-8,926,1758,1831,2070,2247,2008,1770,1848,1986
90356,15532,-48536,-116,-32884,-3800,3800,-8,-1,2,215,290,3860,-7,3,926,1759,1832,2068,2245,2005,1769,1845,1984
91357,15532,-48536,-116,-32884,-3800,3800,-7,-1,3,208,294,3875,-8,1,926,1759,1832,2068,2245,2005,1769,1845,1984
92358,15532,-48540,-116,-32884,-3800,3800,-7,-1,1,224,294,3868,-6,-6,926,1759,1832,2068,2245,2005,1769,1845,1984
93359,15532,-48532,-116,-32884,-3800,3800,-10,0,1,227,291,3906,-2,3,926,1759,1832,2068,2245,2005,1769,1845,1984
94360,15524,-48524,-116,-32884,-3800,3800,-10,0,1,203,288,3897,-8,-5,926,1759,1832,2068,2245,2005,1769,1845,1984
95361,15528,-48548,-116,-32884,-3800,3800,-8,-1,0,229,295,3920,-8,-3,926,1760,1834,2069,2245,2006,1769,1847,1985
96362,15536,-48544,-116,-32884,-3800,3800,-8,-1,0,250,301,3884,-7,6,926,1760,1834,2069,2245,2006,1769,1847,1985
97363,15524,-48532,-116,-32884,-3800,3800,-9,0,-4,218,307,3895,-8,-8,926,1760,1834,2069,2245,2006,1769,1847,1985
98364,15528,-48528,-116,-32884,-3800,3800,-10,1,-2,215,296,3874,-3,0,926,1760,1834,2069,2245,2006,1769,1847,1985
99365,15524,-48536,-116,-32884,-3800,3800,-10,-1,0,223,286,3860,-1,6,926,1760,1834,2069,2245,2006,1769,1847,1985
100366,15532,-48532,-116,-32884,-3800,3800,-9,-1,0,222,278,3880,6,-8,926,1760,1834,2069,2245,2006,1769,1847,1985
101367,15524,-48532,-116,-32884,-3800,3800,-7,-1,-1,216,271,3888,3,-1,926,1758,1831,2067,2244,2007,1770,1846,1986
102368,15528,-48544,-116,-32884,-3800,3800,-7,-1,1,228,261,3898,-4,3,926,1758,1831,2067,2244,2007,1770,1846,1986
103369,15528,-48532,-116,-32884,-3800,3800,-7,2,1,223,286,3905,5,-7,926,1758,1831,2067,2244,2007,1770,1846,1986
104370,15524,-48536,-116,-32884,-3800,3800,-8,2,0,216,303,3927,3,6,924,1758,1831,2067,2244,2007,1770,1846,1986
105371,15532,-48528,-116,-32884,-3800,3800,-8,-1,0,219,282,3890,10,-4,926,1758,1831,2067,2244,2007,1770,1846,1986
106372,15536,-48540,-116,-32884,-3800,3800,-8,-2,0,213,287,3908,7,-2,926,1758,1831,2067,2244,2007,1770,1846,1985
107373,15532,-48544,-116,-32884,-3800,3800,-8,-2,1,234,279,3917,10,6,926,1758,1831,2067,2244,2007,1770,1846,1985
108374,15520,-48532,-116,-32884,-3800,3800,-8,0,1,233,284,3913,10,-2,926,1758,1831,2067,2244,2007,1770,1846,1985
109375,15528,-48528,-116,-32884,-3800,3800,-8,0,2,230,311,3847,3,1,926,1758,1831,2067,2244,2007,1770,1846,1985
110376,15532,-48532,-116,-32884,-3800,3800,-7,-2,3,237,270,3884,5,6,926,1758,1831,2067,2244,2007,1770,1846,1985
111377,15528,-48520,-116,-32884,-3800,3800,-7,-1,4,241,287,3929,7,-8,926,1758,1831,2067,2244,2007,1770,1846,1985
112378,15528,-48536,-116,-32884,-3800,3800,-6,0,3,235,305,3950,4,7,926,1759,1833,2069,2243,2003,1772,1848,1988
113379,15528,-48540,-116,-32884,-3800,3800,-6,0,3,263,300,3956,7,-4,926,1759,1833,2069,2243,2003,1772,1848,1988
114380,15528,-48528,-116,-32884,-3800,3800,-8,2,3,235,288,3904,9,-4,926,1759,1833,2069,2243,2003,1772,1848,1988
115381,15528,-48544,-116,-32884,-3800,3800,-8,1,2,210,275,3897,3,6,926,1759,1833,2069,2243,2003,1772,1848,1988
116382,15528,-48540,-116,-32884,-3800,3800,-7,0,3,236,292,3882,5,-7,926,1759,1833,2069,2243,2003,1772,1848,1988
117383,15532,-48528,-116,-32884,-3800,3800,-10,1,3,218,307,3857,4,-5,926,1758,1832,2068,2244,2007,1771,1847,1987
118384,15528,-48536,-116,-32884,-3800,3800,-13,1,2,249,302,3892,-6,6,926,1758,1832,2068,2244,2007,1771,1847,1987
119385,15528,-48532,-116,-32884,-3800,3800,-12,0,6,245,298,3891,-8,-5,926,1758,1832,2068,2244,2007,1771,1847,1987
120386,15528,-48548,-116,-32884,-3800,3800,-11,1,4,235,309,3885,-8,3,926,1758,1832,2068,2244,2007,1771,1847,1987
121387,15528,-48532,-116,-32884,-3800,3800,-9,1,2,252,304,3919,4,-3,924,1758,1832,2068,2244,2007,1771,1847,1987
122388,15524,-48532,-116,-32884,-3800,3800,-10,1,3,222,295,3902,6,6,926,1758,1832,2068,2244,2007,1771,1847,1987
123389,15524,-48540,-116,-32884,-3800,3800,-12,0,3,221,273,3891,-1,-7,926,1759,1832,2068,2244,2006,1770,1845,1985
124390,15524,-48536,-116,-32884,-3800,3800,-13,-1,3,234,295,3923,-8,4,926,1759,1832,2068,2244,2006,1770,1845,1985
125391,15528,-48536,-116,-32884,-3800,3800,-14,-2,1,263,333,3920,-8,-7,926,1759,1832,2068,2244,2006,1770,1845,1985
126392,15536,-48536,-116,-32884,-3800,3800,-13,-4,0,245,312,3919,-8,6,926,1759,1832,2068,2244,2006,1770,1845,1985
127393,15524,-48540,-116,-32884,-3800,3800,-12,-3,1,230,316,3897,-2,-6,926,1759,1832,2068,2244,2006,1770,1845,1985
128394,15528,-48532,-116,-32884,-3800,3800,-12,-2,2,213,282,3893,3,-2,926,1759,1832,2068,2245,2008,1769,1847,1985
129395,15524,-48548,-116,-32884,-3800,3800,-11,1,2,211,273,3912,5,4,926,1759,1832,2068,2245,2008,1769,1847,1985
130396,15524,-48532,-116,-32884,-3800,3800,-11,3,3,221,268,3891,10,-3,926,1759,1832,2068,2245,2008,1769,1847,1985
131397,15532,-48528,-116,-32884,-3800,3800,-13,2,2,226,273,3896,10,6,926,1759,1832,2068,2245,2008,1769,1847,1985
132398,15532,-48528,-116,-32884,-3800,3800,-13,-1,0,218,303,3927,9,2,926,1759,1832,2068,2245,2008,1769,1847,1985
133399,15528,-48528,-116,-32884,-3800,3800,-14,1,1,222,306,3933,1,-7,926,1759,1832,2068,2245,2008,1769,1847,1985
134400,15532,-48540,-116,-32884,-3800,3800,-14,1,-1,216,290,3897,9,5,927,1759,1832,2068,2245,2006,1770,1847,1986
135401,15524,-48532,-116,-32884,-3800,3800,-13,-1,1,209,291,3897,7,-1,926,1759,1832,2068,2245,2006,1770,1847,1986
136402,15528,-48536,-116,-32884,-3800,3800,-11,-1,1,220,289,3904,-4,-8,926,1759,1832,2068,2245,2006,1770,1847,1986
137403,15536,-48536,-116,-32884,-3800,3800,-11,2,0,241,285,3879,-3,5,926,1759,1832,2068,2245,2006,1770,1847,1986
138404,15536,-48548,-116,-32884,-3800,3800,-11,3,-2,239,274,3930,-8,-6,925,1759,1832,2068,2245,2006,1770,1847,1986
139405,15528,-48524,-116,-32884,-3800,3800,-11,2,1,225,276,3938,2,5,925,1761,1834,2072,2248,2008,1770,1847,1985
140406,15532,-48536,-116,-32884,-3800,3800,-11,1,1,213,270,3909,5,-4,926,1761,1834,2072,2248,2008,1770,1847,1985
141407,15524,-48528,-116,-32884,-3800,3800,-11,1,1,200,288,3901,9,0,926,1761,1834,2072,2248,2008,1770,1847,1985
142408,15528,-48540,-116,-32884,-3800,3800,-13,1,1,201,286,3929,10,-7,926,1761,1834,2072,2248,2008,1770,1847,1985
143409,15524,-48528,-116,-32884,-3800,3800,-11,1,0,233,290,3948,7,6,926,1761,1834,2072,2248,2008,1770,1847,1985
144410,15528,-48532,-116,-32884,-3800,3800,-10,1,0,219,295,3928,0,-7,926,1761,1834,2072,2248,2008,1770,1847,1985
145411,15524,-48536,-116,-32884,-3800,3800,-11,1,0,213,282,3902,2,3,926,1759,1833,2070,2245,2007,1770,1847,1985
146412,15524,-48528,-116,-32884,-3800,3800,-11,1,0,226,272,3872,-3,4,926,1759,1833,2070,2245,2007,1770,1847,1985
147413,15524,-48536,-116,-32884,-3800,3800,-11,0,-1,225,257,3898,-8,-5,926,1759,1833,2070,2245,2007,1770,1847,1985
148414,15532,-48524,-116,-32884,-3800,3800,-10,0,1,225,280,3921,-7,6,926,1759,1833,2070,2245,2007,1770,1847,1985
149415,15528,-48536,-116,-32884,-3800,3800,-12,2,1,228,266,3914,-8,-6,926,1759,1833,2070,2245,2007,1770,1847,1985
150416,15524,-48544,-116,-32884,-3800,3800,-13,1,0,225,295,3921,-6,2,926,1760,1832,2067,2245,2006,1770,1846,1986
151417,15532,-48540,-116,-32884,-3800,3800,-13,0,1,220,258,3913,-8,-7,926,1760,1832,2067,2245,2006,1770,1846,1986
152418,15536,-48532,-116,-32884,-3800,3800,-11,1,1,222,273,3933,-9,6,926,1760,1832,2067,2245,2006,1770,1846,1986
153419,15536,-48536,-116,-32884,-3800,3800,-10,1,1,209,286,3927,-6,-7,926,1760,1832,2067,2245,2006,1770,1846,1986
154420,15532,-48532,-116,-32884,-3800,3800,-11,2,3,225,293,3906,-6,6,926,1760,1832,2067,2245,2006,1770,1846,1986
155421,15524,-48536,-116,-32884,-3800,3800,-12,2,3,222,272,3895,-7,-4,924,1760,1832,2067,2245,2006,1770,1846,1986
156422,15532,-48536,-116,-32884,-3800,3800,-11,4,2,216,285,3919,-8,-1,925,1759,1833,2068,2244,2005,1767,1843,1983
157423,15532,-48536,-116,-32884,-3800,3800,-10,2,3,223,284,3917,-8,5,926,1759,1833,2068,2244,2005,1767,1843,1983
158424,15524,-48548,-116,-32884,-3800,3800,-8,0,3,224,280,3885,-8,0,926,1759,1833,2068,2244,2005,1767,1843,1983
159425,15532,-48524,-116,-32884,-3800,3800,-7,0,3,209,288,3916,-3,-7,926,1759,1833,2068,2244,2005,1767,1843,1983
160426,15520,-48536,-116,-32884,-3800,3800,-9,0,2,236,272,3923,-4,-6,926,1759,1833,2068,2244,2005,1767,1843,1983
161427,15524,-48540,-116,-32884,-3800,3800,-10,1,2,244,260,3901,0,-2,926,1759,1833,2070,2245,2006,1769,1846,1984
162428,15532,-48532,-116,-32884,-3800,3800,-11,1,1,232,274,3912,6,3,926,1759,1833,2070,2245,2006,1769,1846,1984
163429,15528,-48536,-116,-32884,-3800,3800,-10,2,1,228,280,3902,6,-6,926,1759,1833,2070,2245,2006,1769,1846,1984
164430,15524,-48528,-116,-32884,-3800,3800,-10,0,2,222,283,3884,9,3,926,1759,1833,2070,2245,2006,1769,1846,1984
165431,15528,-48532,-116,-32884,-3800,3800,-10,0,2,224,275,3915,10,2,926,1759,1833,2070,2245,2006,1769,1846,1984
166432,15520,-48540,-116,-32884,-3800,3800,-8,-2,2,219,264,3936,10,-6,926,1759,1833,2070,2245,2006,1769,1846,1984
167433,15520,-48540,-116,-32884,-3800,3800,-7,-1,0,236,291,3930,7,4,926,1755,1831,2069,2246,2008,1772,1848,1986
168434,15524,-48536,-116,-32884,-3800,3800,-8,-1,0,242,298,3924,1,0,926,1755,1831,2069,2246,2008,1772,1848,1986
169435,15528,-48532,-116,-32884,-3800,3800,-7,-1,1,233,296,3905,-1,0,926,1755,1831,2069,2246,2008,1772,1848,1986
170436,15528,-48536,-116,-32884,-3800,3800,-7,-2,4,212,265,3896,-8,5,926,1755,1831,2069,2246,2008,1772,1848,1986
171437,15528,-48528,-116,-32884,-3800,3800,-8,0,5,226,256,3928,-8,-7,926,1755,1831,2069,2246,2008,1772,1848,1986
172438,15536,-48548,-116,-32884,-3800,3800,-8,1,3,216,296,3942,-2,4,924,1758,1832,2067,2243,2006,1770,1845,1985
173439,15528,-48536,-116,-32884,-3800,3800,-7,0,0,209,301,3904,8,-6,924,1758,1832,2067,2243,2006,1770,1845,1985
174440,15536,-48536,-116,-32884,-3800,3800,-8,0,1,225,282,3880,9,5,926,1758,1832,2067,2243,2006,1770,1845,1985
175441,15532,-48544,-116,-32884,-3800,3800,-9,-1,2,217,278,3864,10,-5,926,1758,1832,2067,2243,2006,1770,1845,1985
176442,15528,-48528,-116,-32884,-3800,3800,-9,-3,3,236,286,3882,2,6,926,1758,1832,2067,2243,2006,1770,1845,1985
177443,15528,-48540,-116,-32884,-3800,3800,-9,-2,4,220,293,3931,-5,-7,926,1758,1832,2067,2243,2006,1770,1845,1985
178444,15520,-48540,-116,-32884,-3800,3800,-9,-2,2,210,280,3898,-6,6,926,1760,1832,2069,2245,2008,1770,1847,1985
179445,15532,-48532,-116,-32884,-3800,3800,-9,-2,-1,212,304,3903,-8,-4,926,1760,1832,2069,2245,2008,1770,1847,1985
180446,15528,-48520,-116,-32884,-3800,3800,-12,-4,-1,227,308,3910,-4,-1,926,1760,1832,2069,2245,2008,1770,1847,1985
181447,15528,-48536,-116,-32884,-3800,3800,-11,-4,1,213,305,3909,1,0,926,1760,1832,2069,2245,2008,1770,1847,1985
182448,15532,-48532,-116,-32884,-3800,3800,-10,-2,2,219,284,3936,10,1,926,1760,1832,2069,2245,2008,1770,1847,1985
183449,15520,-48532,-116,-32884,-3800,3800,-10,-2,2,210,284,3900,5,-8,926,1758,1831,2067,2243,2006,1770,1847,1986
184450,15528,-48528,-116,-32884,-3800,3800,-9,-2,-1,230,281,3870,1,7,926,1758,1831,2067,2243,2006,1770,1847,1986
185451,15524,-48532,-116,-32884,-3800,3800,-10,-2,-3,205,299,3845,-8,2,926,1758,1831,2067,2243,2006,1770,1847,1986
186452,15524,-48532,-116,-32884,-3800,3800,-11,-2,-1,218,317,3886,-8,-5,926,1758,1831,2067,2243,2006,1770,1847,1986
187453,15536,-48532,-116,-32884,-3800,3800,-12,-3,0,246,300,3903,-8,1,926,1758,1831,2067,2243,2006,1770,1847,1986
188454,15532,-48528,-116,-32884,-3800,3800,-10,-3,-1,234,278,3901,-5,-7,926,1758,1831,2067,2243,2006,1770,1847,1986
189455,15528,-48532,-116,-32884,-3800,3800,-10,1,1,236,271,3874,4,2,924,1758,1831,2067,2243,2007,1770,1847,1985
190456,15528,-48536,-116,-32884,-3800,3800,-9,0,0,230,286,3882,-7,4,924,1758,1831,2067,2243,2007,1770,1847,1985
191457,15540,-48532,-116,-32884,-3800,3800,-10,-1,-1,235,271,3901,-1,2,926,1758,1831,2067,2243,2007,1770,1847,1985
192458,15528,-48532,-116,-32884,-3800,3800,-10,0,1,229,280,3926,10,1,926,1758,1831,2067,2243,2007,1770,1847,1985
193459,15544,-48532,-116,-32884,-3800,3800,-12,0,0,207,287,3932,9,-1,926,1758,1831,2067,2243,2007,1770,1847,1985
194460,15536,-48540,-116,-32884,-3800,3800,-12,1,1,209,291,3903,-1,-6,926,1758,1832,2068,2245,2008,1771,1843,1983
195461,15532,-48520,-116,-32884,-3800,3800,-12,1,1,232,308,3919,-6,5,926,1758,1832,2068,2245,2008,1771,1843,1983
196462,15528,-48536,-116,-32884,-3800,3800,-13,-1,-1,233,299,3912,-4,-5,926,1758,1832,2068,2245,2008,1771,1843,1983
197463,15528,-48540,-116,-32884,-3800,3800,-14,0,0,214,279,3908,5,6,926,1758,1832,2068,2245,2008,1771,1843,1983
198464,15528,-48548,-116,-32884,-3800,3800,-12,2,0,261,292,3904,8,-8,926,1758,1832,2068,2245,2008,1771,1843,1983
199465,15520,-48524,-116,-32884,-3800,3800,-10,1,1,252,279,3914,0,6,927,1758,1832,2068,2245,2008,1771,1843,1983
200466,15520,-48544,-116,-32884,-3800,3800,-10,1,1,250,274,3911,-7,-7,926,1758,1831,2068,2244,2006,1769,1846,1985
201467,15532,-48540,-116,-32884,-3800,3800,-12,2,-1,237,297,3935,-8,7,926,1758,1831,2068,2244,2006,1769,1846,1985
202468,15528,-48540,-116,-32884,-3800,3800,-11,3,0,252,287,3910,-8,-6,926,1758,1831,2068,2244,2006,1769,1846,1985
203469,15536,-48540,-116,-32884,-3800,3800,-14,3,3,226,284,3908,-4,6,926,1758,1831,2068,2244,2006,1769,1846,1985
204470,15536,-48540,-116,-32884,-3800,3800,-12,2,1,239,280,3907,8,-6,926,1758,1831,2068,2244,2006,1769,1846,1985
205471,15524,-48528,16268,-16500,2170,3800,-11,1,1,237,272,3915,10,2,926,1758,1833,2070,2248,2008,1770,1848,1984
206472,15524,-48532,16333,-16435,2099,3800,-12,0,2,258,283,3911,-2,278,924,1758,1833,2070,2248,2008,1770,1848,1984
207473,15556,-48520,16398,-16370,1739,3800,-15,8,1,238,317,3928,44,306,830,1758,1833,2070,2248,2008,1770,1848,1984
208474,15596,-48460,16463,-16305,1670,3800,-25,4,4,202,154,3752,57,308,839,1758,1833,2070,2248,2008,1770,1848,1984
209477,15664,-48288,16528,-16240,1317,3800,-35,-1,15,307,0,3799,68,290,848,1758,1833,2070,2248,2008,1770,1848,1984
210476,15748,-48064,16593,-16175,1094,3800,-48,57,19,560,146,3409,73,297,855,1758,1833,2070,2248,2008,1770,1848,1984
211477,15856,-47796,16658,-16110,742,3800,-29,129,38,909,99,3347,81,313,864,1756,1830,2065,2241,2006,1769,1846,1982
212478,15952,-47500,16723,-16045,855,3800,-28,174,33,474,49,3131,89,328,868,1756,1830,2065,2241,2006,1769,1846,1982
213479,16044,-47148,16788,-15980,872,3800,-12,228,2,401,-23,3447,77,302,875,1756,1830,2065,2241,2006,1769,1846,1982
214480,16188,-46792,16853,-15915,125,3800,-33,293,-20,734,-197,3551,81,346,879,1756,1830,2065,2241,2006,1769,1846,1982
215481,16296,-46380,16918,-15850,524,3800,-17,375,-64,291,-325,3092,90,319,880,1756,1830,2065,2241,2006,1769,1846,1982
216482,16416,-45980,16983,-15785,307,3800,-16,332,-89,1318,-259,2857,90,346,888,1746,1812,2045,2224,1988,1754,1822,1941
217483,16548,-45448,17048,-15720,75,3800,-26,334,-151,324,-343,3720,90,328,889,1746,1812,2045,2224,1988,1754,1822,1941
218484,16652,-45008,17113,-15655,377,3800,-36,416,-218,-152,-310,2331,76,350,895,1746,1812,2045,2224,1988,1754,1822,1941
219485,16780,-44524,17178,-15590,0,3800,-75,352,-228,1966,-216,2752,86,327,898,1746,1812,2045,2224,1988,1754,1822,1941
220486,16872,-43976,17243,-15525,417,3800,-70,359,-238,-282,-212,3235,86,335,897,1746,1812,2045,2224,1988,1754,1822,1941
221487,16988,-43452,17308,-15460,56,3800,-110,302,-268,-169,9,3318,80,325,900,1746,1812,2045,2224,1988,1754,1822,1941
222488,17088,-42860,17373,-15395,213,3800,-84,268,-253,546,-187,3687,70,358,899,1700,1764,1988,2174,1943,1721,1793,1901
223489,17180,-42264,17438,-15330,280,3800,-21,68,-192,590,100,3547,65,345,901,1700,1764,1988,2174,1943,1721,1793,1901
224490,17276,-41684,17503,-15265,193,3800,21,-6,-191,-161,-181,5187,74,362,902,1700,1764,1988,2174,1943,1721,1793,1901
225491,17364,-41108,17568,-15200,265,3800,111,-207,-125,533,688,3254,71,353,904,1700,1764,1988,2174,1943,1721,1793,1901
226492,17460,-40508,17633,-15135,127,3800,198,-336,-121,-89,148,5267,56,357,905,1700,1764,1988,2174,1943,1721,1793,1901
227493,17536,-39828,17698,-15070,363,3800,291,-403,-61,1559,190,3669,53,366,906,1663,1747,1963,2147,1946,1720,1824,1956
228494,17620,-39224,17763,-15005,240,3800,408,-391,48,1967,1166,6360,70,342,908,1663,1747,1963,2147,1946,1720,1824,1956
229495,17696,-38596,17828,-14940,327,3800,420,-342,40,416,218,3687,65,353,904,1663,1747,1963,2147,1946,1720,1824,1956
230496,17788,-37972,17893,-14875,94,3800,500,-374,143,1387,1345,4941,47,348,905,1663,1747,1963,2147,1946,1720,1824,1956
231497,17848,-37332,17958,-14810,500,3800,518,-488,183,1571,1143,4370,53,365,905,1663,1747,1963,2147,1946,1720,1824,1956
232498,17928,-36712,18023,-14745,231,3800,561,-666,191,771,773,3848,48,357,907,1663,1747,1963,2147,1946,1720,1824,1956
233499,17980,-36016,18088,-14680,597,3800,581,-782,221,959,1346,5397,46,360,907,1780,1886,2088,2278,1994,1746,1877,2033
234500,18040,-35428,18153,-14615,503,3800,536,-1049,180,151,800,2760,42,370,909,1780,1886,2088,2278,1994,1746,1877,2033
235501,18112,-34812,18218,-14550,345,3800,529,-1247,252,377,1712,4989,43,339,903,1780,1886,2088,2278,1994,1746,1877,2033
236502,18176,-34188,18283,-14485,447,3800,412,-1489,227,-575,1604,4410,49,354,904,1780,1886,2088,2278,1994,1746,1877,2033
237503,18220,-33564,18348,-14420,723,3800,377,-1609,253,-447,1155,4818,39,363,905,1780,1886,2088,2278,1994,1746,1877,2033
238504,18292,-32912,18413,-14355,364,3800,366,-1608,216,1260,467,5531,52,374,904,1941,2044,2241,2392,2037,1753,1885,2092
239505,18336,-32328,18478,-14290,740,3800,518,-1816,293,172,345,3762,39,354,900,1941,2044,2241,2392,2037,1753,1885,2092
240506,18392,-31740,18543,-14225,601,3800,648,-1728,328,-1022,673,7994,40,360,905,1941,2044,2241,2392,2037,1753,1885,2092
241507,18448,-31168,18608,-14160,612,3800,751,-1681,328,-533,236,4399,53,371,902,1941,2044,2241,2392,2037,1753,1885,2092
242508,18504,-30564,18673,-14095,623,3800,928,-1512,347,655,27,7174,38,361,902,1941,2044,2241,2392,2037,1753,1885,2092
243509,18568,-30016,18738,-14030,524,3800,1062,-1503,444,-301,133,5572,40,347,902,1941,2044,2241,2392,2037,1753,1885,2092
244510,18600,-29416,18803,-13965,964,3800,1263,-1491,586,-2025,754,6752,57,343,902,1937,2051,2247,2340,2018,1710,1830,2014
245511,18652,-28884,18868,-13900,730,3800,1325,-1495,656,-1960,769,6466,47,336,902,1937,2051,2247,2340,2018,1710,1830,2014
246512,18708,-28360,18933,-13835,691,3800,1450,-1648,853,-2264,1144,5345,57,336,896,1937,2051,2247,2340,2018,1710,1830,2014
247513,18764,-27836,18998,-13770,702,3800,1453,-1704,981,-1989,1634,6827,40,366,899,1937,2051,2247,2340,2018,1710,1830,2014
248514,18824,-27288,19063,-13705,658,3800,1453,-1843,1109,-3271,1865,4166,44,362,901,1937,2051,2247,2340,2018,1710,1830,2014
249515,18868,-26708,19128,-13640,884,3800,1388,-1907,1226,-1803,2245,6124,44,363,902,1963,2065,2251,2439,1851,1603,1742,1860
250516,18928,-26200,19193,-13575,690,3800,1277,-1976,1340,-2548,1859,4944,44,350,902,1963,2065,2251,2439,1851,1603,1742,1860
251517,18992,-25672,19258,-13510,642,3800,1245,-1912,1520,-1910,2709,5680,43,370,898,1963,2065,2251,2439,1851,1603,1742,1860
252518,19060,-25136,19323,-13445,589,3800,1144,-1885,1551,-1151,2052,5246,49,347,900,1963,2065,2251,2439,1851,1603,1742,1860
253519,19116,-24612,19388,-13380,750,3800,1172,-1792,1670,-2105,1964,5818,58,369,900,1963,2065,2251,2439,1851,1603,1742,1860
254520,19168,-24100,19453,-13315,815,3800,1164,-1625,1785,377,2277,5507,56,338,899,1963,2065,2251,2439,1851,1603,1742,1860
255521,19228,-23552,19518,-13250,722,3800,1275,-1588,1927,-298,1623,3568,42,366,900,2082,2113,2309,2526,1876,1661,1786,1936
256522,19288,-23048,19583,-13185,728,3800,1310,-1386,1925,-772,1100,6463,59,391,898,2082,2113,2309,2526,1876,1661,1786,1936
257523,19328,-22552,19648,-13120,1008,3800,1457,-1236,2055,-564,1349,4101,57,340,899,2082,2113,2309,2526,1876,1661,1786,1936
258524,19384,-22036,19713,-13055,819,3800,1595,-983,2126,268,866,5401,41,365,899,2082,2113,2309,2526,1876,1661,1786,1936
259525,19460,-21476,19778,-12990,556,3800,1731,-856,2195,-54,578,3493,45,351,898,2082,2113,2309,2526,1876,1661,1786,1936
260526,19520,-20920,19843,-12925,763,3800,1865,-649,2197,-1057,954,5375,50,355,899,2050,2053,2320,2490,1996,1756,1820,1970
261527,19576,-20380,19908,-12860,824,3800,1886,-550,2206,-243,742,3162,60,359,901,2050,2053,2320,2490,1996,1756,1820,1970
262528,19648,-19904,19973,-12795,615,3800,2001,-464,2339,684,1444,2311,48,372,900,2050,2053,2320,2490,1996,1756,1820,1970
263529,19704,-19388,20038,-12730,826,3251,1869,-753,2171,-113,109,1641,49,358,897,2050,2053,2320,2490,1996,1756,1820,1970
264530,19764,-18884,20103,-12665,782,2868,1528,-775,1848,-2365,-28,2373,44,293,903,2050,2053,2320,2490,1996,1756,1820,1970
265531,19816,-18296,20168,-12600,898,1182,1107,-168,1428,-1643,-1117,2145,45,312,908,2050,2053,2320,2490,1996,1756,1820,1970
266532,19868,-17784,20233,-12535,914,1588,734,510,1376,3271,-754,-1315,59,324,912,1935,1933,2203,2379,1948,1720,1773,1895
267533,19932,-17220,20298,-12470,765,331,491,1769,1559,6939,138,3572,52,317,914,1935,1933,2203,2379,1948,1720,1773,1895
268534,19996,-16616,20363,-12405,767,-825,323,2538,1620,2794,-476,-3361,63,324,914,1935,1933,2203,2379,1948,1720,1773,1895
269535,20060,-16056,20428,-12340,769,-877,316,2220,1675,-5899,163,1558,49,318,919,1935,1933,2203,2379,1948,1720,1773,1895
270536,20112,-15488,20493,-12275,935,-1590,463,1459,1758,-8688,-223,2749,42,302,907,1935,1933,2203,2379,1948,1720,1773,1895
271537,20192,-14860,20558,-12210,566,-3027,738,969,1931,-4042,-1042,3574,44,299,906,1531,1555,1782,1918,1994,1792,1758,1836
272538,20256,-14328,20623,-12145,767,-2396,988,990,2228,-1110,-724,5196,39,360,886,1531,1555,1782,1918,1994,1792,1758,1836
273539,20320,-13912,20688,-12080,769,-1373,1174,701,2549,-2181,-358,70,39,227,842,1531,1555,1782,1918,1994,1792,1758,1836
274540,20384,-13508,20753,-12015,770,-1636,1314,394,2788,-4578,-210,4531,44,205,862,1531,1555,1782,1918,1994,1792,1758,1836
275541,20448,-13124,20818,-11950,772,-1774,1367,276,2910,-1895,991,1492,44,192,892,1531,1555,1782,1918,1994,1792,1758,1836
276542,20524,-12820,20883,-11885,609,-1066,1309,703,2931,668,814,4716,39,172,889,1270,1356,1601,1767,1995,1777,1817,1836
277543,20584,-12572,20948,-11820,815,-590,1094,1197,2895,3844,615,866,49,148,887,1270,1356,1601,1767,1995,1777,1817,1946
278544,20632,-12332,21013,-11755,986,-702,843,1523,2921,5129,758,2819,38,134,905,1270,1356,1601,1767,1995,1777,1817,1946
279545,20692,-12124,21078,-11690,842,-477,619,1872,2902,2950,2003,3000,55,140,911,1270,1356,1601,1767,1995,1777,1817,1946
280546,20772,-11908,21143,-11625,573,-761,420,2173,2748,1945,1490,1517,36,123,908,1270,1356,1601,1767,1995,1777,1817,1946
281547,20832,-11708,21208,-11560,829,-726,259,2394,2479,3227,966,1951,45,130,913,1270,1356,1601,1767,1995,1777,1817,1946
282548,20888,-11500,21273,-11495,890,-1000,179,2589,2262,3345,367,1846,49,120,912,1493,1578,1820,1986,2149,1888,1954,2164
283549,20940,-11300,21338,-11430,957,-1065,135,2780,2061,2756,645,1262,50,108,910,1493,1578,1820,1986,2149,1888,1954,2164
284550,21012,-11132,21403,-11365,699,-791,115,2852,1836,1885,128,-159,44,106,905,1493,1578,1820,1986,2149,1888,1954,2164
285551,21060,-10972,21468,-11300,1020,-807,65,2742,1570,1706,-415,-60,40,76,903,1493,1578,1820,1986,2149,1888,1954,2164
286552,21132,-10832,21533,-11235,711,-648,-35,2489,1352,124,-722,-487,36,74,910,1493,1578,1820,1986,2149,1888,1954,2164
287553,21204,-10688,21598,-11170,702,-795,-191,2208,1190,-1474,-829,-315,36,69,907,1707,1771,2087,2234,2220,1924,1921,2096
288554,21272,-10552,21663,-11105,749,-782,-375,1886,1090,-2091,-701,-417,37,55,913,1707,1771,2087,2234,2220,1924,1921,2096
289555,21308,-10460,21728,-11040,1185,-266,-606,1605,1049,-2666,-709,480,32,49,911,1707,1771,2087,2234,2220,1924,1921,2096
290556,21372,-10368,21793,-10975,836,-298,-837,1367,1059,-2809,-759,744,35,45,911,1707,1771,2087,2234,2220,1924,1921,2096
291557,21452,-10288,21858,-10910,618,-167,-1087,1140,1127,-2687,-799,1141,45,42,909,1707,1771,2087,2234,2220,1924,1921,2096
292558,21496,-10236,21923,-10845,1094,199,-1320,949,1252,-2731,-767,1851,40,50,914,1707,1771,2087,2234,2220,1924,1921,2096
293559,21572,-10148,21988,-10780,680,-280,-1531,929,1416,-2368,-652,2927,51,38,919,1624,1727,1965,2046,1981,1706,1769,1959
294560,21616,-10104,22053,-10715,1106,296,-1705,1012,1591,-1305,-578,3371,46,33,914,1624,1727,1965,2046,1981,1706,1769,1959
295561,21684,-10044,22118,-10650,802,102,-1837,1105,1769,-493,-451,3739,43,42,918,1624,1727,1965,2046,1981,1706,1769,1959
296562,21764,-9992,22183,-10585,635,218,-1945,1190,1934,-136,-334,4028,44,29,913,1624,1727,1965,2046,1981,1706,1769,1959
297563,21836,-9948,22248,-10520,726,342,-2039,1273,2062,319,-118,4205,36,33,918,1624,1727,1965,2046,1981,1706,1769,1959
298564,21908,-9900,22313,-10455,718,313,-2115,1387,2124,980,232,4468,46,25,919,1442,1584,1740,1785,1945,1672,1792,2031
299565,21968,-9844,22378,-10390,874,224,-2193,1481,2131,1609,399,4231,41,28,917,1442,1584,1740,1785,1945,1672,1792,2031
300566,22044,-9812,22443,-10325,661,564,-2239,1584,2053,2087,963,4613,51,34,917,1442,1584,1740,1785,1945,1672,1792,2031
301567,22100,-9764,22508,-10260,922,385,-2253,1689,1885,2709,1068,4677,35,19,916,1442,1584,1740,1785,1945,1672,1792,2031
302568,22164,-9732,22573,-10195,824,624,-2234,1787,1662,3200,949,4637,36,29,916,1442,1584,1740,1785,1945,1672,1792,2031
303569,22224,-9704,22638,-10130,880,719,-2225,1790,1431,2307,1180,3946,34,32,914,1442,1584,1740,1785,1945,1672,1792,2031
304570,22284,-9664,22703,-10065,886,600,-2250,1651,1192,937,1159,3316,40,34,913,1426,1545,1749,1861,2193,1902,1972,2169
305571,22332,-9628,22768,-10000,1057,685,-2296,1416,968,541,1081,2968,33,23,911,1426,1545,1749,1861,2193,1902,1972,2169
306572,22392,-9592,22833,-9935,913,721,-2338,1113,748,392,1168,2867,32,26,913,1426,1545,1749,1861,2193,1902,1972,2169
307573,22460,-9540,22898,-9870,809,537,-2343,767,529,57,1107,3202,35,32,909,1426,1545,1749,1861,2193,1902,1972,2169
308574,22520,-9488,22963,-9805,916,553,-2350,436,321,214,1059,3399,39,24,909,1426,1545,1749,1861,2193,1902,1972,2169
309575,22580,-9448,23028,-9740,922,732,-2353,156,131,522,1141,3596,43,24,912,1594,1669,1969,2194,2276,2011,2024,2140
310576,22628,-9424,23093,-9675,1093,982,-2374,-38,-18,593,1071,4099,41,34,912,1594,1669,1969,2194,2276,2011,2024,2140
311577,22680,-9356,23158,-9610,1059,428,-2389,-107,-136,884,653,5019,39,41,910,1594,1669,1969,2194,2276,2011,2024,2140
312578,22740,-9332,23223,-9545,965,1028,-2347,-90,-219,1633,487,6135,45,42,905,1594,1669,1969,2194,2276,2011,2024,2140
313579,22800,-9276,23288,-9480,971,639,-2230,-52,-205,2382,-74,6847,38,43,911,1594,1669,1969,2194,2276,2011,2024,2140
314580,22876,-9220,23353,-9415,759,650,-2083,28,-176,2818,-239,8220,38,44,906,1594,1669,1969,2194,2276,2011,2024,2140
315581,22932,-9172,23418,-9350,1020,771,-1930,136,-133,2546,-570,8581,54,43,911,1735,1835,2104,2326,2010,1780,1856,1952
316582,22996,-9108,23483,-9285,921,572,-1788,290,-49,2809,-394,9377,48,41,913,1735,1835,2104,2326,2010,1780,1856,1952
317583,23064,-9044,23548,-9220,867,574,-1669,505,27,3327,-157,9540,42,36,909,1735,1835,2104,2326,2010,1780,1856,1952
318584,23132,-9004,23613,-9155,864,904,-1615,691,81,3213,-142,9341,50,29,912,1735,1835,2104,2326,2010,1780,1856,1952
319585,23192,-8956,23678,-9090,970,825,-1582,847,112,2849,-21,9382,51,35,913,1735,1835,2104,2326,2010,1780,1856,1952
320586,23248,-8896,23743,-9025,1032,681,-1578,926,122,2059,246,8843,35,41,909,1906,2055,2247,2520,1759,1585,1736,1805
321587,23328,-8856,23808,-8960,713,961,-1586,921,92,1315,450,8498,44,31,908,1906,2055,2247,2520,1759,1585,1736,1805
322588,23368,-8796,23873,-8895,1244,717,-1613,817,26,1236,601,7958,50,33,909,1906,2055,2247,2520,1759,1585,1736,1805
323589,23424,-8740,23938,-8830,1055,778,-1632,610,-80,1135,651,7486,47,33,909,1906,2055,2247,2520,1759,1585,1736,1805
324590,23484,-8704,24003,-8765,1011,1063,-1642,397,-219,866,440,7201,36,31,905,1906,2055,2247,2520,1759,1585,1736,1805
325591,23544,-8632,24068,-8700,1018,604,-1618,227,-402,1019,472,7046,37,45,906,1906,2055,2247,2520,1759,1585,1736,1805
326592,23588,-8568,24133,-8635,1244,706,-1560,109,-613,1443,255,6740,48,43,902,2139,2247,2419,2731,1845,1659,1829,1943
327593,23644,-8508,24198,-8570,1105,762,-1465,32,-826,1867,-26,6649,47,49,910,2139,2247,2419,2731,1845,1659,1829,1943
328594,23708,-8440,24263,-8505,1006,658,-1338,5,-1023,2132,-200,6277,36,46,906,2139,2247,2419,2731,1845,1659,1829,1943
329595,23772,-8380,24328,-8440,1007,764,-1172,39,-1211,2261,-742,5958,36,39,907,2139,2247,2419,2731,1845,1659,1829,1943
330596,23828,-8332,24393,-8375,1119,935,-976,90,-1373,2643,-782,6012,37,43,910,2139,2247,2419,2731,1845,1659,1829,1943
331597,23884,-8284,24458,-8310,1130,956,-760,168,-1484,2610,-978,5501,52,45,908,2084,2155,2334,2504,2037,1775,1911,2084
332598,23944,-8216,24523,-8245,1086,702,-558,251,-1557,2493,-1080,5488,36,47,905,2084,2155,2334,2504,2037,1775,1911,2084
333599,23996,-8176,24588,-8180,1202,1083,-367,311,-1569,1848,-1174,4915,41,37,905,2084,2155,2334,2504,2037,1775,1911,2084
334600,24052,-8108,24653,-8115,1164,729,-199,329,-1534,1337,-1077,4731,39,37,908,2084,2155,2334,2504,2037,1775,1911,2084
335601,24116,-8024,24718,-8050,1065,506,-76,332,-1457,933,-1044,4333,45,42,903,2084,2155,2334,2504,2037,1775,1911,2084
336602,24180,-7972,24783,-7985,1067,922,31,275,-1362,431,-648,4156,50,48,907,2084,2155,2334,2504,2037,1775,1911,2084
337603,24228,-7932,24848,-7920,1287,1102,114,199,-1250,-283,-349,4073,36,43,911,1805,1900,2062,2186,1952,1683,1801,1932
338604,24292,-7888,24913,-7855,1089,1078,178,109,-1148,-441,-90,3924,48,46,906,1805,1900,2062,2186,1952,1683,1801,1932
339605,24376,-7836,24978,-7790,816,994,231,14,-1064,-524,84,3851,49,49,900,1805,1900,2062,2186,1952,1683,1801,1932
340606,24448,-7752,25043,-7725,958,570,263,-133,-961,-1034,27,3428,54,35,904,1805,1900,2062,2186,1952,1683,1801,1932
341607,24504,-7676,25108,-7660,1169,657,283,-278,-873,-1047,351,3388,35,38,909,1805,1900,2062,2186,1952,1683,1801,1932
342608,24572,-7616,25173,-7595,1015,863,292,-421,-816,-1104,544,3036,39,33,910,1656,1756,1912,2066,1856,1609,1744,1882
343609,24644,-7576,25238,-7530,958,1144,311,-537,-786,-874,596,2991,55,42,906,1656,1756,1912,2066,1856,1609,1744,1882
344610,24692,-7512,25303,-7465,1278,845,342,-614,-787,-281,482,2795,51,31,907,1656,1756,1912,2066,1856,1609,1744,1882
345611,24740,-7440,25368,-7400,1299,736,365,-663,-802,-176,144,2373,42,35,905,1656,1756,1912,2066,1856,1609,1744,1882
346612,24816,-7380,25433,-7335,936,892,403,-662,-849,340,404,2338,41,48,904,1656,1756,1912,2066,1856,1609,1744,1882
347613,24876,-7316,25498,-7270,1142,844,439,-658,-917,491,175,1801,38,43,905,1656,1756,1912,2066,1856,1609,1744,1882
348614,24932,-7248,25563,-7205,1204,790,480,-635,-1006,606,-85,1555,51,36,909,1696,1794,1990,2152,1972,1709,1834,2021
349615,25004,-7176,25628,-7140,995,731,523,-637,-1078,597,-198,1410,45,51,907,1696,1794,1990,2152,1972,1709,1834,2021
350616,25064,-7128,25693,-7075,1151,1052,563,-627,-1170,819,54,930,50,46,907,1696,1794,1990,2152,1972,1709,1834,2021
351617,25128,-7064,25758,-7010,1103,853,590,-619,-1232,396,-500,867,48,39,910,1696,1794,1990,2152,1972,1709,1834,2021
352618,25184,-6972,25823,-6945,1215,470,624,-645,-1278,316,-451,954,42,45,904,1696,1794,1990,2152,1972,1709,1834,2021
353619,25248,-6904,25888,-6880,1116,767,662,-688,-1288,-18,-360,792,40,49,906,1839,1923,2164,2322,2068,1798,1884,2049
354620,25312,-6832,25953,-6815,1117,708,668,-714,-1260,-326,-310,931,42,40,909,1839,1923,2164,2322,2068,1798,1884,2049
355621,25388,-6776,26018,-6750,954,919,687,-748,-1208,-373,-215,950,43,53,908,1839,1923,2164,2322,2068,1798,1884,2049
356622,25464,-6688,26083,-6685,941,491,675,-812,-1112,-816,-297,904,47,54,909,1839,1923,2164,2322,2068,1798,1884,2049
357623,25524,-6632,26148,-6620,1147,902,651,-849,-1019,-860,73,1517,42,44,908,1839,1923,2164,2322,2068,1798,1884,2049
358624,25608,-6548,26213,-6555,824,529,635,-870,-897,-1068,51,1548,54,53,913,1839,1923,2164,2322,2068,1798,1884,2049
359625,25664,-6484,26278,-6490,1185,780,605,-936,-761,-1172,69,1906,41,42,905,1807,1871,2099,2271,1978,1736,1808,1922
360626,25740,-6412,26343,-6425,923,672,596,-984,-633,-1012,16,2305,37,54,913,1807,1871,2099,2271,1978,1736,1808,1922
361627,25808,-6356,26408,-6360,1019,883,600,-1019,-520,-1041,263,2721,57,37,907,1807,1871,2099,2271,1978,1736,1808,1922
362628,25888,-6268,26473,-6295,851,455,605,-1023,-425,-758,318,2896,37,39,911,1807,1871,2099,2271,1978,1736,1808,1922
363629,25960,-6208,26538,-6230,942,811,626,-995,-341,-474,242,3441,54,49,908,1807,1871,2099,2271,1978,1736,1808,1922
364630,26000,-6156,26603,-6165,1373,927,649,-966,-268,-188,406,3336,38,34,915,1676,1731,1948,2124,1931,1706,1787,1916
365631,26052,-6084,26668,-6100,1239,668,675,-876,-228,85,248,3536,51,48,910,1676,1731,1948,2124,1931,1706,1787,1916
366632,26140,-6016,26733,-6035,761,714,695,-799,-223,314,417,3547,42,37,902,1676,1731,1948,2124,1931,1706,1787,1916
367633,26176,-5964,26798,-5970,1447,930,719,-723,-238,431,390,3504,43,38,907,1676,1731,1948,2124,1931,1706,1787,1916
368634,26264,-5896,26863,-5905,769,727,771,-618,-268,556,314,3653,50,39,912,1676,1731,1948,2124,1931,1706,1787,1916
369635,26328,-5836,26928,-5840,1071,833,809,-517,-323,435,362,3445,52,46,901,1676,1731,1948,2124,1931,1706,1787,1916
370636,26388,-5788,26993,-5775,1127,1003,847,-430,-380,257,219,3114,45,42,912,1667,1728,1973,2162,2063,1813,1887,2045
371637,26444,-5724,27058,-5710,1188,805,863,-366,-433,313,206,2948,44,44,907,1667,1728,1973,2162,2063,1813,1887,2045
372638,26488,-5688,27123,-5645,1364,1190,875,-307,-482,-15,207,2736,40,29,904,1667,1728,1973,2162,2063,1813,1887,2045
373639,26568,-5644,27188,-5580,896,1116,868,-259,-515,-262,106,2775,57,44,906,1667,1728,1973,2162,2063,1813,1887,2045
374640,26640,-5584,27253,-5515,988,922,869,-211,-530,-387,-10,2735,42,43,898,1667,1728,1973,2162,2063,1813,1887,2045
375641,26684,-5524,27318,-5450,1363,928,854,-179,-514,-639,-153,2649,42,42,906,1794,1853,2132,2343,2165,1899,1959,2111
376642,26748,-5484,27383,-5385,1115,1208,836,-152,-475,-757,-44,2912,52,44,906,1794,1853,2132,2343,2165,1899,1959,2111
377643,26816,-5436,27448,-5320,1061,1129,820,-106,-421,-755,-38,2998,44,40,899,1794,1853,2132,2343,2165,1899,1959,2111
378644,26880,-5392,27513,-5255,1113,1205,794,-72,-348,-603,-226,3175,41,36,902,1794,1853,2132,2343,2165,1899,1959,2111
379645,26972,-5320,27578,-5190,730,846,762,-33,-244,-876,-423,3560,56,43,904,1794,1853,2132,2343,2165,1899,1959,2111
380646,27032,-5252,27643,-5125,1136,893,733,40,-131,-1152,-434,3869,42,34,902,1794,1853,2132,2343,2165,1899,1959,2111
381647,27092,-5212,27708,-5060,1142,1274,698,119,-12,-1101,-512,4264,38,35,911,1826,1886,2153,2340,2099,1839,1896,2033
382648,27160,-5148,27773,-4995,1040,975,667,205,109,-614,-467,4690,41,36,906,1826,1886,2153,2340,2099,1839,1896,2033
383649,27232,-5100,27838,-4930,981,1196,639,281,214,-212,-384,4928,36,34,900,1826,1886,2153,2340,2099,1839,1896,2033
384653,27284,-5052,27903,-4865,1247,1217,613,365,304,-101,-392,5295,50,33,906,1826,1886,2153,2340,2099,1839,1896,2033
385651,27368,-5000,27968,-4800,824,1183,597,446,371,-37,-318,5653,43,35,903,1826,1886,2153,2340,2099,1839,1896,2033
386652,27420,-4928,28033,-4735,1241,924,584,517,407,51,-262,5684,53,47,900,1737,1806,2038,2193,2008,1754,1832,1989
387653,27468,-4860,28098,-4670,1312,970,578,576,416,188,-181,6053,38,42,906,1737,1806,2038,2193,2008,1754,1832,1989
388654,27536,-4816,28163,-4605,1058,1296,575,634,411,391,-4,6053,39,39,904,1737,1806,2038,2193,2008,1754,1832,1989
389655,27588,-4764,28228,-4540,1274,1212,567,649,391,307,81,5782,35,33,901,1737,1806,2038,2193,2008,1754,1832,1989
390656,27648,-4708,28293,-4475,1180,1173,543,638,345,240,116,5697,38,35,901,1737,1806,2038,2193,2008,1754,1832,1989
391657,27700,-4668,28358,-4410,1297,1403,523,606,291,152,268,5601,49,35,899,1737,1806,2038,2193,2008,1754,1832,1989
392658,27764,-4604,28423,-4345,1148,1105,490,563,244,250,291,5223,43,32,901,1709,1781,2019,2191,2071,1811,1905,2082
393659,27816,-4536,28488,-4280,1314,1051,462,524,185,294,314,5104,56,47,894,1709,1781,2019,2191,2071,1811,1905,2082
394660,27872,-4484,28553,-4215,1275,1268,433,437,138,-153,359,4914,45,40,900,1709,1781,2019,2191,2071,1811,1905,2082
395661,27932,-4444,28618,-4150,1232,1448,420,370,114,0,291,4689,55,33,901,1709,1781,2019,2191,2071,1811,1905,2082
396662,28004,-4380,28683,-4085,1073,1150,394,285,100,501,186,4428,58,37,899,1709,1781,2019,2191,2071,1811,1905,2082
397663,28076,-4336,28748,-4020,1065,1425,367,212,102,148,230,4600,45,47,896,1797,1880,2134,2309,2192,1913,2004,2197
398664,28148,-4260,28813,-3955,1057,1012,349,153,126,-162,186,4403,59,31,903,1797,1880,2134,2309,2192,1913,2004,2197
399665,28252,-4212,28878,-3890,610,1383,327,123,181,-257,-68,4654,56,34,898,1797,1880,2134,2309,2192,1913,2004,2197
400666,28324,-4152,28943,-3825,1001,1239,314,75,247,76,-35,4670,51,26,905,1797,1880,2134,2309,2192,1913,2004,2197
401667,28376,-4116,29008,-3760,1267,1574,299,29,331,-72,-7,4838,51,43,905,1797,1880,2134,2309,2192,1913,2004,2197
402668,28440,-4048,29073,-3695,1118,1170,289,10,414,-300,42,5073,54,42,902,1797,1880,2134,2309,2192,1913,2004,2197
403669,28500,-4000,29138,-3630,1175,1442,274,-11,487,-384,78,5160,43,41,894,1814,1912,2143,2281,2159,1871,1958,2136
404670,28572,-3940,29203,-3565,1017,1298,252,-86,555,-22,144,5269,36,36,901,1814,1912,2143,2281,2159,1871,1958,2136
405671,28636,-3884,29268,-3500,1118,1359,238,-190,605,439,310,5310,44,47,897,1814,1912,2143,2281,2159,1871,1958,2136
406672,28704,-3816,29333,-3435,1064,1206,227,-302,638,-152,287,5350,55,44,901,1814,1912,2143,2281,2159,1871,1958,2136
407673,28784,-3764,29398,-3370,897,1421,204,-398,655,-595,430,5675,37,39,899,1814,1912,2143,2281,2159,1871,1958,2136
408674,28824,-3704,29463,-3305,1428,1328,189,-468,655,-86,570,5693,49,31,902,1727,1818,2029,2160,2050,1772,1863,2037
409675,28896,-3648,29528,-3240,1019,1389,155,-548,646,412,578,5564,53,36,901,1727,1818,2029,2160,2050,1772,1863,2037
410676,28956,-3600,29593,-3175,1175,1510,130,-635,611,249,754,5572,50,46,894,1727,1818,2029,2160,2050,1772,1863,2037
411677,29020,-3544,29658,-3110,1127,1421,90,-713,572,-22,780,5460,48,44,898,1727,1818,2029,2160,2050,1772,1863,2037
412678,29092,-3476,29723,-3045,1019,1268,61,-755,524,292,696,5280,40,42,895,1727,1818,2029,2160,2050,1772,1863,2037
413679,29152,-3416,29788,-2980,1175,1374,37,-790,470,602,871,5216,39,48,898,1727,1818,2029,2160,2050,1772,1863,2037
414680,29216,-3360,29853,-2915,1126,1435,18,-800,421,416,836,5000,43,38,902,1700,1788,2012,2160,2072,1798,1899,2095
415681,29248,-3304,29918,-2850,1567,1446,-6,-812,378,425,799,4617,40,38,898,1700,1788,2012,2160,2072,1798,1899,2095
416682,29332,-3240,29983,-2785,894,1348,-17,-827,323,532,851,4626,37,51,892,1700,1788,2012,2160,2072,1798,1899,2095
417683,29436,-3188,30048,-2720,597,1514,-25,-852,315,500,714,4087,56,43,902,1700,1788,2012,2160,2072,1798,1899,2095
418684,29492,-3096,30113,-2655,1208,981,-30,-849,333,181,559,3805,54,45,903,1700,1788,2012,2160,2072,1798,1899,2095
419685,29556,-3036,30178,-2590,1110,1387,-40,-835,362,-516,449,3562,47,50,902,1776,1877,2126,2284,2196,1906,1998,2205
420686,29632,-2984,30243,-2525,946,1503,-36,-814,385,-672,629,3578,50,50,898,1776,1877,2126,2284,2196,1906,1998,2205
421687,29696,-2896,30308,-2460,1098,1025,-29,-799,419,-403,581,3458,34,37,898,1776,1877,2126,2284,2196,1906,1998,2205
422688,29756,-2832,30373,-2395,1154,1327,-24,-807,475,-386,564,3501,35,41,904,1776,1877,2126,2284,2196,1906,1998,2205
423689,29812,-2780,30438,-2330,1215,1493,-23,-814,537,-577,749,3427,32,40,899,1776,1877,2126,2284,2196,1906,1998,2205
424690,29868,-2712,30503,-2265,1227,1289,-12,-833,579,-652,863,3579,34,43,895,1776,1877,2126,2284,2196,1906,1998,2205
425691,29928,-2620,30568,-2200,1183,956,-3,-845,608,-492,879,3614,35,53,899,1810,1913,2163,2311,2193,1892,1964,2142
426692,30004,-2564,30633,-2135,969,1417,10,-855,639,-340,897,3672,56,50,903,1810,1913,2163,2311,2193,1892,1964,2142
427693,30064,-2484,30698,-2070,1175,1099,13,-854,672,-405,902,3942,50,36,897,1810,1913,2163,2311,2193,1892,1964,2142
428694,30140,-2420,30763,-2005,963,1301,10,-828,693,-309,787,3870,37,48,902,1810,1913,2163,2311,2193,1892,1964,2142
429695,30204,-2352,30828,-1940,1114,1247,0,-822,704,-151,832,4126,38,48,901,1810,1913,2163,2311,2193,1892,1964,2142
430696,30260,-2288,30893,-1875,1225,1299,-5,-817,707,-157,969,4247,34,50,901,1765,1851,2087,2234,2068,1788,1862,2025
431697,30332,-2228,30958,-1810,1017,1355,-12,-784,698,96,915,4017,45,44,899,1765,1851,2087,2234,2068,1788,1862,2025
432698,30400,-2156,31023,-1745,1064,1196,-15,-746,676,447,997,4210,49,41,900,1765,1851,2087,2234,2068,1788,1862,2025
433699,30448,-2080,31088,-1680,1335,1133,-19,-720,649,503,1069,3989,48,48,902,1765,1851,2087,2234,2068,1788,1862,2025
434701,30500,-2032,31153,-1615,1301,1504,-13,-690,613,571,1074,3996,41,48,899,1765,1851,2087,2234,2068,1788,1862,2025
435701,30552,-1976,31218,-1550,1316,1416,-8,-644,577,724,1026,3976,44,44,895,1765,1851,2087,2234,2068,1788,1862,2025
436702,30636,-1916,31283,-1485,894,1372,-6,-610,535,1021,1026,3626,57,49,895,1757,1834,2080,2248,2039,1784,1864,2031
437703,30700,-1848,31348,-1420,1146,1268,-14,-579,515,747,1014,3485,60,35,901,1757,1834,2080,2248,2039,1784,1864,2031
438704,30756,-1784,31413,-1355,1257,1319,-16,-548,503,566,1158,3233,57,38,900,1757,1834,2080,2248,2039,1784,1864,2031
439705,30832,-1728,31478,-1290,993,1430,-12,-514,496,416,1212,3002,45,33,898,1757,1834,2080,2248,2039,1784,1864,2031
440706,30880,-1664,31543,-1225,1365,1331,-3,-486,498,236,1059,2891,43,33,899,1757,1834,2080,2248,2039,1784,1864,2031
441707,30976,-1612,31608,-1160,727,1498,10,-465,513,75,1102,2785,57,34,895,1837,1906,2183,2380,2115,1872,1937,2097
442708,31052,-1552,31673,-1095,964,1404,23,-458,546,-75,951,2601,65,41,901,1837,1906,2183,2380,2115,1872,1937,2097
443709,31120,-1496,31738,-1030,1060,1465,27,-452,590,-243,817,2583,41,35,898,1837,1906,2183,2380,2115,1872,1937,2097
444710,31204,-1420,31803,-965,837,1202,30,-470,634,-183,1097,2672,41,33,896,1837,1906,2183,2380,2115,1872,1937,2097
445711,31276,-1388,31868,-900,979,1792,54,-503,672,361,1154,2752,57,44,904,1837,1906,2183,2380,2115,1872,1937,2097
446712,31344,-1320,31933,-835,1025,1339,78,-546,703,259,1145,2673,49,28,893,1837,1906,2183,2380,2115,1872,1937,2097
447713,31408,-1260,31998,-770,1077,1446,110,-561,731,-426,1094,2832,38,42,900,1858,1921,2201,2395,2132,1879,1930,2077
448714,31484,-1224,32063,-705,913,1781,139,-550,744,-138,1202,3140,43,39,899,1858,1921,2201,2395,2132,1879,1930,2077
449715,31552,-1148,32128,-640,1011,1268,177,-509,749,482,1349,3366,55,31,895,1858,1921,2201,2395,2132,1879,1930,2077
450716,31628,-1080,32193,-575,897,1364,212,-474,754,730,1271,3519,39,41,902,1858,1921,2201,2395,2132,1879,1930,2077
451717,31688,-1028,32258,-510,1103,1580,246,-430,752,554,1150,3849,39,46,901,1858,1921,2201,2395,2132,1879,1930,2077
452718,31740,-972,32323,-445,1219,1542,270,-370,759,199,1123,3934,34,43,895,1789,1860,2112,2272,2044,1783,1847,2003
453719,31796,-900,32388,-380,1180,1333,273,-288,734,653,1397,3981,40,50,894,1789,1860,2112,2272,2044,1783,1847,2003
454720,31856,-836,32652,-116,1380,1677,280,-175,715,1033,1286,4123,38,37,899,1789,1860,2112,2272,2044,1783,1847,2003
455721,31904,-784,32717,-51,1551,1843,293,-116,703,1192,1229,4132,38,51,891,1789,1860,2112,2272,2044,1783,1847,2003
456722,31992,-708,32782,14,1023,1531,316,-61,676,825,1383,4117,44,46,886,1789,1860,2112,2272,2044,1783,1847,2003
457723,32080,-628,32847,79,996,1463,308,-14,634,458,1438,3934,50,56,898,1789,1860,2112,2272,2044,1783,1847,2003
458724,32144,-556,32912,144,1297,1554,304,27,601,680,1507,3950,60,59,898,1764,1844,2088,2250,2018,1763,1848,2017
459725,32224,-488,32977,209,1079,1600,293,50,593,366,1158,3858,59,53,894,1764,1844,2088,2250,2018,1763,1848,2017
460726,32296,-400,33042,274,1170,1323,287,62,575,78,1145,3686,60,58,894,1764,1844,2088,2250,2018,1763,1848,2017
461727,32380,-312,33107,339,998,1295,270,58,557,-117,1322,3761,59,57,898,1764,1844,2088,2250,2018,1763,1848,2017
462728,32444,-220,33172,404,1249,1212,259,48,564,172,1267,3404,42,47,901,1764,1844,2088,2250,2018,1763,1848,2017
463729,32516,-152,33237,469,1141,1509,271,-2,571,651,1359,3431,60,57,900,1819,1909,2174,2352,2109,1852,1931,2114
464730,32600,-80,33302,534,968,1451,273,-74,569,697,1211,3270,61,56,897,1819,1909,2174,2352,2109,1852,1931,2114
465731,32668,-8,33367,599,1165,1442,294,-110,554,198,1260,3206,42,51,900,1819,1909,2174,2352,2109,1852,1931,2114
466732,32748,80,33432,664,996,1214,313,-144,571,-171,1251,3545,42,57,897,1819,1909,2174,2352,2109,1852,1931,2114
467733,32832,152,33497,729,923,1406,335,-149,581,570,1273,3422,45,43,903,1819,1909,2174,2352,2109,1852,1931,2114
468734,32892,224,33562,794,1230,1397,364,-131,595,997,1074,3697,42,40,901,1819,1909,2174,2352,2109,1852,1931,2114
469735,32976,284,33627,859,907,1554,401,-131,623,583,1313,3763,45,55,897,1857,1951,2222,2380,2178,1899,1970,2162
470736,33028,348,33692,924,1323,1506,421,-113,632,349,1474,3758,59,50,899,1857,1951,2222,2380,2178,1899,1970,2162
471737,33084,452,33757,989,1284,958,434,-87,631,783,1264,3794,46,49,894,1857,1951,2222,2380,2178,1899,1970,2162
472738,33152,516,33822,1054,1131,1459,449,-97,632,1414,1476,4181,59,48,902,1857,1951,2222,2380,2178,1899,1970,2162
473739,33220,584,33887,1119,1128,1407,458,-90,627,1093,1680,4257,46,44,897,1857,1951,2222,2380,2178,1899,1970,2162
474740,33312,656,33952,1184,795,1348,473,-48,595,812,1646,4327,40,43,897,1833,1929,2179,2327,2150,1868,1940,2128
475741,33412,732,34017,1249,652,1285,471,-63,550,769,1644,4385,38,54,903,1833,1929,2179,2327,2150,1868,1940,2128
476742,33484,792,34082,1314,994,1491,463,-135,534,740,1575,4117,52,40,905,1833,1929,2179,2327,2150,1868,1940,2128
477743,33548,876,34147,1379,1096,1168,439,-155,523,487,1489,4433,45,52,897,1833,1929,2179,2327,2150,1868,1940,2128
478744,33608,936,34212,1444,1152,1475,404,-142,479,248,1579,4284,45,45,900,1833,1929,2179,2327,2150,1868,1940,2128
479745,33660,1012,34277,1509,1268,1261,376,-138,452,295,1399,4591,40,43,896,1833,1929,2179,2327,2150,1868,1940,2128
480746,33716,1080,34342,1574,1229,1358,355,-168,440,1004,1512,4255,35,55,897,1821,1912,2176,2338,2151,1877,1948,2144
481747,33776,1160,34407,1639,1186,1189,335,-217,421,1028,1532,4086,39,40,897,1821,1912,2176,2338,2151,1877,1948,2144
482748,33852,1236,34472,1704,972,1226,320,-267,381,661,1556,4115,55,48,900,1821,1912,2176,2338,2151,1877,1948,2144
483749,33928,1292,34537,1769,959,1487,290,-310,344,592,1343,3954,38,51,902,1821,1912,2176,2338,2151,1877,1948,2144
484750,33976,1352,34602,1834,1330,1444,283,-313,317,794,1236,4041,38,50,899,1821,1912,2176,2338,2151,1877,1948,2144
485751,34052,1440,34667,1899,967,1066,270,-315,329,581,1281,4211,44,42,894,1843,1941,2222,2370,2229,1939,1999,2214
486752,34136,1508,34732,1964,844,1312,287,-300,327,727,1180,4240,53,55,905,1843,1941,2222,2370,2229,1939,1999,2214
487753,34192,1584,34797,2029,1205,1199,311,-313,354,305,964,4393,47,37,903,1843,1941,2222,2370,2229,1939,1999,2214
488754,34252,1652,34862,2094,1161,1295,316,-303,378,449,1295,4285,53,43,900,1843,1941,2222,2370,2229,1939,1999,2214
489755,34320,1724,34927,2159,1058,1237,300,-246,401,438,1414,4294,42,43,899,1843,1941,2222,2370,2229,1939,1999,2214
490756,34392,1796,34992,2224,1000,1229,259,-194,400,741,1616,4104,43,54,901,1843,1941,2222,2370,2229,1939,1999,2214
491757,34456,1872,35057,2289,1101,1166,242,-137,397,1091,1495,4610,51,53,902,1819,1927,2199,2327,2228,1927,1987,2191
492758,34536,1928,35122,2354,883,1427,231,-126,390,972,1521,4540,59,44,902,1819,1927,2199,2327,2228,1927,1987,2191
493759,34616,2004,35187,2419,865,1163,219,-101,355,696,1669,4560,60,55,901,1819,1927,2199,2327,2228,1927,1987,2191
494760,34676,2080,35252,2484,1122,1150,194,-45,326,605,1755,4571,42,52,903,1819,1927,2199,2327,2228,1927,1987,2191
495761,34744,2156,35317,2549,1018,1136,157,-15,307,652,1752,4454,43,54,901,1819,1927,2199,2327,2228,1927,1987,2191
496762,34828,2224,35382,2614,795,1234,109,-14,275,857,1832,4564,41,46,903,1773,1872,2134,2273,2197,1908,1961,2155
497763,34896,2284,35447,2679,991,1340,80,7,249,725,1724,4515,42,51,905,1773,1872,2134,2273,2197,1908,1961,2155
498764,34968,2356,35512,2744,934,1181,47,35,223,467,1554,4381,57,54,901,1773,1872,2134,2273,2197,1908,1961,2155
499765,35044,2428,35577,2809,870,1173,15,50,201,450,1479,4338,55,60,904,1773,1872,2134,2273,2197,1908,1961,2155
500766,35128,2536,35642,2874,747,670,-2,39,158,1145,1602,4171,55,61,905,1773,1872,2134,2273,2197,1908,1961,2155
501767,35196,2620,35707,2939,943,947,-12,7,136,1233,1346,4180,41,46,913,1773,1872,2134,2273,2197,1908,1961,2155
502768,35248,2696,35772,3004,1159,1033,-8,11,144,728,1469,3962,49,54,907,1768,1858,2148,2306,2237,1956,1996,2198
503769,35332,2772,35837,3069,737,1021,-19,54,135,604,1535,3649,46,44,903,1768,1858,2148,2306,2237,1956,1996,2198
504770,35388,2864,35902,3134,1098,788,-49,84,103,804,1394,3554,41,55,908,1768,1858,2148,2306,2237,1956,1996,2198
505771,35476,2952,35967,3199,670,810,-69,83,93,1060,1341,3584,41,40,907,1768,1858,2148,2306,2237,1956,1996,2198
506772,35552,3020,36032,3264,806,1056,-97,112,99,825,1296,3581,42,53,912,1768,1858,2148,2306,2237,1956,1996,2198
507773,35612,3084,36097,3329,1013,1108,-133,173,98,753,1320,3412,38,41,907,1800,1896,2192,2343,2257,1965,1999,2204
508774,35704,3156,36162,3394,580,999,-164,216,96,981,1468,3395,58,45,904,1800,1896,2192,2343,2257,1965,1999,2204
509775,35740,3232,36227,3459,1316,936,-203,254,96,946,1483,3342,57,54,910,1800,1896,2192,2343,2257,1965,1999,2204
510776,35824,3312,36292,3524,693,867,-239,297,93,801,1493,3547,35,54,902,1800,1896,2192,2343,2257,1965,1999,2204
511777,35896,3384,36357,3589,834,959,-277,352,82,741,1533,3667,45,46,910,1800,1896,2192,2343,2257,1965,1999,2204
512778,35956,3460,36422,3654,990,895,-303,402,72,814,1514,3707,42,58,907,1784,1876,2144,2277,2183,1893,1935,2119
513779,36040,3536,36487,3719,667,882,-333,453,64,900,1524,3955,40,49,908,1784,1876,2144,2277,2183,1893,1935,2119
514780,36112,3620,36552,3784,809,759,-349,499,52,972,1555,3861,51,61,911,1784,1876,2144,2277,2183,1893,1935,2119
515781,36200,3676,36617,3849,582,1121,-385,520,40,622,1347,3764,40,58,910,1784,1876,2144,2277,2183,1893,1935,2119
516782,36264,3780,36682,3914,883,473,-405,548,22,476,1379,4037,55,45,909,1784,1876,2144,2277,2183,1893,1935,2119
517783,36336,3848,36747,3979,774,919,-436,552,5,619,1359,3789,44,48,913,1784,1876,2144,2277,2183,1893,1935,2119
518784,36416,3944,36812,4044,656,532,-455,572,-17,670,1267,3856,50,52,910,1712,1801,2061,2192,2121,1841,1891,2075
519785,36480,4032,36877,4109,857,603,-468,595,-16,659,1437,3745,49,54,915,1712,1801,2061,2192,2121,1841,1891,2075
520786,36556,4108,36942,4174,694,740,-473,626,-32,845,1391,3420,45,53,912,1712,1801,2061,2192,2121,1841,1891,2075
521787,36620,4208,37007,4239,846,397,-488,639,-57,744,1219,3381,42,60,913,1712,1801,2061,2192,2121,1841,1891,2075
522788,36708,4292,37072,4304,518,574,-504,644,-76,637,1248,3267,55,57,915,1712,1801,2061,2192,2121,1841,1891,2075
523789,36784,4368,37137,4369,654,661,-535,669,-77,633,1178,3134,38,56,917,1707,1808,2074,2215,2135,1859,1917,2107
524790,36860,4452,37202,4434,641,538,-550,716,-77,915,1217,2844,52,41,914,1707,1808,2074,2215,2135,1859,1917,2107
525791,36920,4524,37267,4499,847,679,-577,741,-72,952,1104,2691,36,47,916,1707,1808,2074,2215,2135,1859,1917,2107
526792,37004,4600,37332,4564,524,616,-592,758,-72,785,1227,2633,42,51,912,1707,1808,2074,2215,2135,1859,1917,2107
527793,37060,4684,37397,4629,885,492,-615,776,-77,814,1294,2469,39,45,916,1707,1808,2074,2215,2135,1859,1917,2107
528794,37140,4764,37462,4694,567,524,-633,798,-80,887,1290,2540,38,54,914,1707,1808,2074,2215,2135,1859,1917,2107
529795,37204,4836,37527,4759,769,616,-651,818,-83,872,1309,2409,53,41,915,1762,1864,2125,2270,2157,1877,1936,2116
530796,37268,4908,37592,4824,770,607,-663,835,-89,780,1237,2434,48,40,914,1762,1864,2125,2270,2157,1877,1936,2116
531797,37324,4976,37657,4889,881,653,-678,837,-91,786,1208,2479,35,54,914,1762,1864,2125,2270,2157,1877,1936,2116
532798,37396,5064,37722,4954,672,375,-684,826,-95,749,1046,2454,41,53,912,1762,1864,2125,2270,2157,1877,1936,2116
533799,37480,5136,37787,5019,499,567,-695,799,-109,602,1002,2575,45,43,917,1762,1864,2125,2270,2157,1877,1936,2116
534800,37540,5228,37852,5084,805,283,-700,776,-101,494,922,2612,37,50,917,1756,1844,2093,2235,2103,1829,1886,2050
535801,37620,5308,37917,5149,537,414,-698,759,-91,686,993,2795,46,41,916,1756,1844,2093,2235,2103,1829,1886,2050
536802,37680,5376,37982,5214,793,561,-701,728,-98,602,805,2653,40,53,918,1756,1844,2093,2235,2103,1829,1886,2050
537803,37764,5452,38047,5279,471,447,-701,682,-108,534,819,2903,50,40,914,1756,1844,2093,2235,2103,1829,1886,2050
538804,37848,5536,38112,5344,448,324,-701,637,-108,408,832,2874,50,53,919,1756,1844,2093,2235,2103,1829,1886,2050
539805,37908,5608,38177,5409,754,466,-704,612,-104,489,834,2992,36,52,920,1756,1844,2093,2235,2103,1829,1886,2050
540806,37980,5676,38242,5474,595,512,-702,590,-101,653,771,3006,35,39,915,1712,1803,2040,2179,2039,1775,1850,2020
541807,38056,5748,38307,5539,532,453,-698,586,-104,694,794,2994,53,54,917,1712,1803,2040,2179,2039,1775,1850,2020
542808,38132,5820,38372,5604,518,445,-681,601,-105,689,789,3036,43,53,918,1712,1803,2040,2179,2039,1775,1850,2020
543809,38208,5900,38437,5669,505,327,-681,597,-110,653,709,2862,57,55,919,1712,1803,2040,2179,2039,1775,1850,2020
544810,38268,5976,38502,5734,711,363,-675,579,-103,674,633,2874,52,52,920,1712,1803,2040,2179,2039,1775,1850,2020
545811,38356,6052,38567,5799,333,350,-680,574,-92,703,669,2825,55,44,917,1734,1838,2069,2215,2050,1787,1877,2050
546812,38428,6132,38632,5864,525,281,-678,581,-81,540,673,2764,50,45,919,1734,1838,2069,2215,2050,1787,1877,2050
547813,38488,6200,38697,5929,681,427,-682,579,-80,568,597,2676,53,52,919,1734,1838,2069,2215,2050,1787,1877,2050
548814,38560,6288,38762,5994,523,149,-667,563,-73,596,577,2712,39,50,917,1734,1838,2069,2215,2050,1787,1877,2050
549815,38636,6356,38827,6059,460,395,-661,531,-60,317,569,2649,43,57,921,1734,1838,2069,2215,2050,1787,1877,2050
550816,38704,6440,38892,6124,556,172,-642,513,-50,364,631,2714,45,53,920,1734,1838,2069,2215,2050,1787,1877,2050
551817,38792,6524,38957,6189,278,149,-627,488,-50,384,579,2650,47,44,920,1788,1892,2117,2268,2079,1813,1903,2065
552818,38868,6612,39022,6254,414,70,-611,449,-49,234,528,2776,58,58,923,1788,1892,2117,2268,2079,1813,1903,2065
553819,38952,6676,39087,6319,291,372,-591,390,-48,107,424,2799,46,53,922,1788,1892,2117,2268,2079,1813,1903,2065
554820,39016,6768,39152,6384,543,-11,-573,344,-30,-41,329,2983,55,46,921,1788,1892,2117,2268,2079,1813,1903,2065
555821,39092,6848,39217,6449,379,119,-557,307,-16,99,384,3054,40,40,921,1788,1892,2117,2268,2079,1813,1903,2065
556822,39172,6924,39282,6514,311,156,-528,272,9,72,383,3029,50,56,922,1797,1893,2114,2271,2063,1799,1888,2047
557823,39244,7012,39347,6579,402,-22,-505,263,14,181,373,3444,56,45,923,1797,1893,2114,2271,2063,1799,1888,2047
558824,39320,7092,39412,6644,339,60,-477,255,20,277,186,3275,47,53,923,1797,1893,2114,2271,2063,1799,1888,2047
559825,39408,7180,39477,6709,161,-68,-452,230,32,308,269,3499,38,53,923,1797,1893,2114,2271,2063,1799,1888,2047
560826,39476,7272,39542,6774,407,-151,-422,229,43,210,183,3491,39,50,924,1797,1893,2114,2271,2063,1799,1888,2047
561829,39556,7384,39607,6839,239,-460,-401,239,51,338,307,3609,54,40,922,1797,1893,2114,2271,2063,1799,1888,2047
562828,39640,7488,39672,6904,166,-407,-372,260,53,491,272,3444,37,46,920,1800,1894,2115,2279,2058,1802,1895,2051
563829,39696,7564,39737,6969,527,-71,-352,242,70,397,147,3236,33,42,919,1800,1894,2115,2279,2058,1802,1895,2051
564830,39768,7628,39802,7034,318,80,-329,219,82,100,228,3599,54,31,921,1800,1894,2115,2279,2058,1802,1895,2051
565831,39860,7684,39867,7099,35,190,-330,189,65,-60,267,3135,46,33,923,1800,1894,2115,2279,2058,1802,1895,2051
566832,39932,7764,39932,7164,277,-128,-338,146,59,-102,70,3317,51,40,924,1800,1894,2115,2279,2058,1802,1895,2051
567833,40020,7828,39997,7229,48,73,-340,108,77,256,219,3324,52,32,923,1841,1928,2159,2342,2094,1842,1931,2084
568834,40084,7892,40062,7294,350,75,-331,90,104,231,300,3221,52,31,925,1841,1928,2159,2342,2094,1842,1931,2084
569835,40168,7956,40127,7359,76,76,-326,83,107,-73,264,3327,54,30,923,1841,1928,2159,2342,2094,1842,1931,2084
570836,40256,8008,40192,7424,-2,241,-308,59,107,-158,219,3293,54,33,925,1841,1928,2159,2342,2094,1842,1931,2084
571837,40356,8088,40257,7489,-194,-128,-294,43,110,-189,155,3737,38,34,924,1841,1928,2159,2342,2094,1842,1931,2084
572838,40460,8160,40322,7554,-292,-36,-270,46,140,-37,-106,3662,42,30,911,1841,1928,2159,2342,2094,1842,1931,2084
573839,40568,8228,40387,7619,-394,10,-249,78,176,179,-67,4097,42,46,916,1853,1933,2163,2339,2119,1862,1940,2096
574840,40720,8292,40452,7684,-1051,60,-209,91,198,-162,-136,4062,43,39,927,1853,1933,2163,2339,2119,1862,1940,2096
575841,40856,8356,40517,7749,-937,62,-175,86,218,-233,-326,4228,39,43,927,1853,1933,2163,2339,2119,1862,1940,2096
576842,40920,8424,40582,7814,-36,8,-140,106,245,156,-436,4481,40,33,927,1853,1933,2163,2339,2119,1862,1940,2096
577843,41008,8496,40647,7879,-364,-51,-112,89,262,-91,-108,4084,49,45,928,1853,1933,2163,2339,2119,1862,1940,2096
578844,41076,8556,40712,7944,-119,104,-71,81,255,-642,308,4218,36,37,928,1822,1905,2137,2317,2119,1862,1938,2089
579845,41156,8628,40777,8009,-287,-54,-42,83,247,-259,120,4233,52,34,927,1822,1905,2137,2317,2119,1862,1938,2089
580846,41216,8688,40842,8074,-31,102,-17,44,244,92,38,3939,52,35,925,1822,1905,2137,2317,2119,1862,1938,2089
581847,41288,8752,40907,8139,-190,53,-5,-20,244,-169,90,3876,35,32,927,1822,1905,2137,2317,2119,1862,1938,2089
582848,41356,8828,40972,8204,-143,-110,-8,-46,239,-357,232,3965,38,34,913,1822,1905,2137,2317,2119,1862,1938,2089
583849,41456,8896,41037,8269,-586,-15,-18,-54,235,-85,252,3629,49,42,917,1822,1905,2137,2317,2119,1862,1938,2089
584850,41512,8972,41102,8334,-25,-128,-22,-15,244,277,-119,3958,38,39,927,1843,1927,2172,2372,2124,1873,1951,2103
585851,41588,9032,41167,8399,-289,78,-47,73,289,310,-497,4106,40,32,927,1843,1927,2172,2372,2124,1873,1951,2103
586852,41652,9104,41232,8464,-138,-81,-82,121,309,-40,-158,3762,36,39,927,1843,1927,2172,2372,2124,1873,1951,2103
587853,41752,9184,41297,8529,-631,-200,-122,123,318,-312,-177,3786,37,35,927,1843,1927,2172,2372,2124,1873,1951,2103
588854,41816,9268,41362,8594,-180,-273,-145,213,335,320,-378,4222,36,35,926,1843,1927,2172,2372,2124,1873,1951,2103
589855,41888,9328,41427,8659,-288,33,-157,293,370,600,-494,3715,51,45,914,1891,1962,2208,2406,2160,1914,1985,2137
590856,41988,9400,41492,8724,-681,-126,-152,360,368,-186,-266,4169,51,47,927,1891,1962,2208,2406,2160,1914,1985,2137
591857,42076,9460,41557,8789,-560,29,-141,382,352,-685,-427,3949,44,40,927,1891,1962,2208,2406,2160,1914,1985,2137
592858,42160,9540,41622,8854,-533,-239,-132,358,342,-129,-420,3956,40,49,927,1891,1962,2208,2406,2160,1914,1985,2137
593859,42220,9608,41687,8919,-227,-93,-114,303,340,-232,-435,3714,45,47,926,1891,1962,2208,2406,2160,1914,1985,2137
594860,42316,9696,41752,8984,-715,-372,-102,282,339,-764,-513,3800,44,35,927,1891,1962,2208,2406,2160,1914,1985,2137
595861,42400,9752,41817,9049,-588,39,-90,275,338,-924,-475,3870,55,38,925,1851,1918,2180,2376,2197,1940,1984,2136
596862,42468,9828,41882,9114,-393,-224,-74,233,354,-562,-523,3714,38,42,928,1851,1918,2180,2376,2197,1940,1984,2136
597863,42556,9912,41947,9179,-671,-347,-65,203,366,-320,-640,3816,61,49,924,1851,1918,2180,2376,2197,1940,1984,2136
598864,42660,10000,42012,9244,-919,-426,-72,211,371,-375,-622,3956,60,47,925,1851,1918,2180,2376,2197,1940,1984,2136
599865,42744,10068,42077,9309,-692,-180,-75,251,378,-202,-452,4074,56,45,925,1851,1918,2180,2376,2197,1940,1984,2136
600866,42812,10140,42142,9374,-496,-239,-89,325,391,82,-502,4193,57,50,927,1812,1878,2128,2312,2162,1907,1968,2108
601867,42904,10208,42207,9439,-829,-193,-97,428,410,299,-516,4254,44,39,926,1812,1878,2128,2312,2162,1907,1968,2108
602868,43008,10268,42272,9504,-1027,-87,-114,510,420,246,-581,4157,49,36,927,1812,1878,2128,2312,2162,1907,1968,2108
603869,43100,10356,42337,9569,-910,-465,-137,571,429,-28,-511,4052,48,37,927,1812,1878,2128,2312,2162,1907,1968,2108
604870,43180,10424,42402,9634,-779,-219,-179,606,436,-125,-449,3924,48,38,924,1812,1878,2128,2312,2162,1907,1968,2108
605871,43280,10496,42467,9699,-1072,-278,-216,631,454,82,-631,3873,63,35,926,1812,1878,2128,2312,2162,1907,1968,2108
606872,43384,10568,42532,9764,-1170,-287,-237,641,477,226,-629,3636,52,49,916,1788,1856,2097,2293,2146,1888,1962,2101
607873,43508,10620,42597,9829,-1493,-21,-256,633,484,-292,-606,3504,48,37,926,1788,1856,2097,2293,2146,1888,1962,2101
608874,43604,10696,42662,9894,-1180,-336,-279,620,476,-736,-639,3664,69,39,928,1788,1856,2097,2293,2146,1888,1962,2101
609877,43716,10772,42727,9959,-1438,-349,-304,574,475,-363,-767,3665,53,37,926,1788,1856,2097,2293,2146,1888,1962,2101
610876,43820,10856,42792,10024,-1386,-472,-318,554,491,-365,-639,3662,51,50,922,1788,1856,2097,2293,2146,1888,1962,2101
611877,43924,10924,42857,10089,-1434,-277,-326,542,501,-626,-652,3529,51,46,924,1785,1853,2096,2299,2175,1925,1979,2131
612878,44036,10996,42922,10154,-1592,-335,-331,537,498,-559,-805,3809,54,36,926,1785,1853,2096,2299,2175,1925,1979,2131
613879,44144,11068,42987,10219,-1595,-344,-332,501,494,-417,-836,3465,70,29,926,1785,1853,2096,2299,2175,1925,1979,2131
614880,44244,11120,43052,10284,-1538,-79,-327,449,492,-462,-968,3274,71,36,922,1785,1853,2096,2299,2175,1925,1979,2131
615881,44372,11180,43117,10349,-1965,-173,-329,454,492,-379,-994,3546,53,38,927,1785,1853,2096,2299,2175,1925,1979,2131
616882,44476,11240,43182,10414,-1713,-167,-353,443,490,-187,-752,3059,67,36,927,1785,1853,2096,2299,2175,1925,1979,2131
617883,44600,11296,43247,10479,-2036,-107,-373,440,496,-446,-715,3228,59,47,927,1788,1868,2121,2300,2194,1929,1989,2144
618884,44708,11356,43312,10544,-1889,-151,-400,441,508,-443,-694,3224,60,46,925,1788,1868,2121,2300,2194,1929,1989,2144
619885,44832,11420,43377,10609,-2162,-199,-432,411,510,-5,-607,3344,63,34,927,1788,1868,2121,2300,2194,1929,1989,2144
620886,44964,11488,43442,10674,-2344,-253,-465,391,512,-336,-706,3337,65,48,927,1788,1868,2121,2300,2194,1929,1989,2144
621887,45072,11564,43507,10739,-2097,-368,-471,368,507,-128,-637,3618,59,44,927,1788,1868,2121,2300,2194,1929,1989,2144
622888,45220,11620,43572,10804,-2699,-107,-481,335,511,-43,-889,3439,61,48,924,1793,1879,2111,2287,2155,1895,1970,2124
623889,45340,11704,43637,10869,-2416,-480,-500,287,507,-152,-864,3562,74,36,927,1793,1879,2111,2287,2155,1895,1970,2124
624890,45456,11756,43702,10934,-2430,-65,-537,240,528,-199,-902,3739,80,38,924,1793,1879,2111,2287,2155,1895,1970,2124
625891,45596,11808,43767,10999,-2822,-49,-569,168,551,-165,-854,3604,61,34,927,1793,1879,2111,2287,2155,1895,1970,2124
626892,45716,11872,43832,11064,-2639,-198,-597,114,555,-607,-593,3935,80,36,927,1793,1879,2111,2287,2155,1895,1970,2124
627893,45864,11948,43897,11129,-3092,-362,-625,88,549,-710,-575,4253,80,50,927,1793,1879,2111,2287,2155,1895,1970,2124
628894,46000,12012,43962,11194,-3029,-211,-650,32,588,-342,-936,3710,71,37,926,1789,1875,2100,2275,2147,1888,1960,2132
629895,46124,12072,44027,11259,-2952,-155,-652,-37,612,-283,-751,4226,66,42,927,1789,1875,2100,2275,2147,1888,1960,2132
630896,46272,12144,44092,11324,-3354,-314,-664,-117,601,-754,-736,3812,83,46,926,1789,1875,2100,2275,2147,1888,1960,2132
631897,46392,12216,44157,11389,-3072,-323,-688,-216,584,-572,-796,3796,81,39,924,1789,1875,2100,2275,2147,1888,1960,2132
632898,46536,12284,44222,11454,-3469,-277,-694,-307,548,147,-644,3786,69,39,926,1789,1875,2100,2275,2147,1888,1960,2132
633899,46676,12336,44287,11519,-3512,-62,-688,-473,521,-57,-575,3199,68,46,926,1807,1899,2134,2310,2194,1928,2008,2178
634900,46816,12404,44352,11584,-3604,-265,-641,-533,483,-417,-980,3944,74,35,927,1807,1899,2134,2310,2194,1928,2008,2178
635901,46964,12472,44417,11649,-3800,-269,-613,-613,472,-571,-1197,3575,87,46,926,1807,1899,2134,2310,2194,1928,2008,2178
636902,47100,12532,44482,11714,-3744,-163,-594,-623,467,75,-1212,3946,80,37,926,1807,1899,2134,2310,2194,1928,2008,2178
637903,47236,12600,44547,11779,-3800,-268,-609,-606,476,607,-1203,4108,75,37,927,1807,1899,2134,2310,2194,1928,2008,2178
638904,47388,12648,44612,11844,-3800,3,-640,-599,458,120,-1007,4088,74,49,926,1807,1899,2134,2310,2194,1928,2008,2178
639905,47532,12712,44677,11909,-3800,-196,-701,-597,466,-304,-1223,4266,72,34,915,1833,1932,2157,2325,2149,1879,1965,2118
640906,47696,12768,44742,11974,-3800,-86,-777,-595,480,429,-1208,4384,73,36,926,1833,1932,2157,2325,2149,1879,1965,2118
641907,47832,12840,44807,12039,-3800,-294,-830,-587,485,152,-940,4602,78,36,927,1833,1932,2157,2325,2149,1879,1965,2118
642908,47980,12908,44872,12104,-3800,-248,-866,-607,501,-515,-1222,4817,89,34,926,1833,1932,2157,2325,2149,1879,1965,2118
643909,48132,12972,44937,12169,-3800,-198,-886,-649,520,-471,-973,5165,79,47,919,1833,1932,2157,2325,2149,1879,1965,2118
644910,48268,13020,45002,12234,-3800,23,-886,-675,534,-402,-978,5290,91,45,927,1796,1884,2090,2252,2085,1828,1913,2061
645911,48424,13080,45067,12299,-3800,-121,-873,-764,530,-406,-1266,4981,86,37,928,1796,1884,2090,2252,2085,1828,1913,2061
646912,48560,13152,45132,12364,-3800,-280,-873,-843,512,-412,-1324,5110,83,47,927,1796,1884,2090,2252,2085,1828,1913,2061
647913,48696,13216,45197,12429,-3800,-179,-871,-908,503,-10,-1434,5133,74,44,919,1796,1884,2090,2252,2085,1828,1913,2061
648914,48852,13264,45262,12494,-3800,42,-881,-965,486,-203,-1297,4833,81,35,925,1796,1884,2090,2252,2085,1828,1913,2061
649915,49000,13344,45327,12559,-3800,-378,-893,-939,462,-288,-1464,5405,91,48,928,1796,1884,2090,2252,2085,1828,1913,2061
650916,49144,13416,45392,12624,-3800,-286,-902,-875,424,558,-1352,5602,75,39,925,1726,1816,2034,2193,2097,1841,1919,2067
651917,49300,13448,45457,12689,-3800,254,-899,-870,403,770,-1636,4893,74,45,923,1726,1816,2034,2193,2097,1841,1919,2067
652918,49448,13512,45522,12754,-3800,-145,-906,-850,374,942,-1566,5276,88,33,926,1726,1816,2034,2193,2097,1841,1919,2067
653919,49588,13560,45587,12819,-3800,75,-898,-805,329,697,-1399,4897,86,48,927,1726,1816,2034,2193,2097,1841,1919,2067
654920,49744,13612,45652,12884,-3800,41,-902,-799,319,164,-1876,4625,71,37,927,1726,1816,2034,2193,2097,1841,1919,2067
655921,49872,13672,45717,12949,-3800,-53,-885,-776,295,750,-1459,4907,92,35,927,1705,1794,2019,2177,2131,1879,1949,2099
656922,49996,13744,45782,13014,-3800,-213,-860,-768,286,1026,-1513,4671,87,42,928,1705,1794,2019,2177,2131,1879,1949,2099
657923,50132,13796,45847,13079,-3800,53,-841,-780,295,329,-1692,4665,88,48,927,1705,1794,2019,2177,2131,1879,1949,2099
658924,50236,13856,45912,13144,-3800,-41,-814,-759,295,193,-1604,5106,67,45,928,1705,1794,2019,2177,2131,1879,1949,2099
659925,50372,13908,45977,13209,-3800,75,-761,-708,299,984,-1649,5477,85,34,927,1705,1794,2019,2177,2131,1879,1949,2099
660926,50512,13980,46042,13274,-3800,-184,-661,-628,319,798,-1696,5692,79,45,927,1705,1794,2019,2177,2131,1879,1949,2099
661927,50620,14032,46107,13339,-3800,82,-557,-499,324,704,-1439,6212,76,35,927,1673,1760,1979,2143,2108,1846,1912,2036
662928,50764,14100,46172,13404,-3800,-122,-464,-376,347,802,-1623,6381,81,47,927,1673,1760,1979,2143,2108,1846,1912,2036
663929,50896,14152,46237,13469,-3800,94,-402,-307,366,775,-1688,5925,74,34,927,1673,1760,1979,2143,2108,1846,1912,2036
664930,51016,14216,46302,13534,-3800,-56,-361,-262,360,785,-1490,5914,79,36,927,1673,1760,1979,2143,2108,1846,1912,2036
665931,51168,14280,46367,13599,-3800,-55,-345,-226,351,264,-1471,5782,79,35,927,1673,1760,1979,2143,2108,1846,1912,2036
666932,51268,14328,46432,13664,-3800,166,-355,-249,337,223,-1521,5137,65,46,928,1676,1762,1983,2185,2003,1769,1847,1943
667933,51408,14396,46497,13729,-3800,-89,-372,-286,315,786,-1372,5056,66,35,927,1676,1762,1983,2185,2003,1769,1847,1943
668934,51532,14460,46562,13794,-3800,-37,-397,-308,306,248,-1387,4866,73,45,927,1676,1762,1983,2185,2003,1769,1847,1943
669935,51648,14512,46627,13859,-3800,128,-382,-276,287,287,-1213,5324,56,33,928,1676,1762,1983,2185,2003,1769,1847,1943
670936,51764,14572,46692,13924,-3800,34,-355,-231,274,578,-1456,5138,76,35,927,1676,1762,1983,2185,2003,1769,1847,1943
671937,51872,14628,46757,13989,-3800,94,-315,-144,252,725,-1740,5373,65,47,928,1676,1762,1983,2185,2003,1769,1847,1943
672938,51976,14672,46822,14054,-3800,270,-285,-9,249,1173,-1852,5116,71,45,928,1728,1814,2032,2240,1972,1748,1833,1944
673939,52104,14736,46887,14119,-3800,21,-260,140,232,1441,-1699,5379,71,31,927,1728,1814,2032,2240,1972,1748,1833,1944
674940,52188,14780,46952,14184,-3800,297,-223,208,218,1042,-1784,4648,61,44,928,1728,1814,2032,2240,1972,1748,1833,1944
675941,52288,14812,47017,14249,-3800,487,-197,256,206,998,-1977,4961,68,39,926,1728,1814,2032,2240,1972,1748,1833,1944
676942,52376,14892,47082,14314,-3800,-132,-156,325,197,1155,-1925,4656,68,39,913,1728,1814,2032,2240,1972,1748,1833,1944
677943,52468,14956,47147,14379,-3800,69,-96,416,179,1339,-1763,4536,64,38,927,1758,1823,2047,2237,1994,1765,1841,1963
678944,52576,15016,47212,14444,-3800,125,-22,479,176,1478,-1762,4515,64,47,927,1758,1823,2047,2237,1994,1765,1841,1963
679945,52660,15072,47277,14509,-3800,186,47,514,186,892,-1784,4229,57,34,927,1758,1823,2047,2237,1994,1765,1841,1963
680946,52736,15112,47342,14574,-3800,416,104,563,165,568,-1508,4364,53,40,920,1758,1823,2047,2237,1994,1765,1841,1963
681947,52836,15140,47407,14639,-3800,611,165,616,139,781,-1327,4253,58,35,925,1758,1823,2047,2237,1994,1765,1841,1963
682948,52924,15200,47472,14704,-3800,217,222,582,151,417,-1417,4008,57,46,922,1758,1823,2047,2237,1994,1765,1841,1963
683949,52988,15256,47537,14769,-3800,278,292,566,155,576,-997,4096,40,36,927,1720,1784,2005,2202,1998,1773,1843,1945
684950,53076,15328,47602,14834,-3800,69,344,523,168,451,-883,3673,50,43,922,1720,1784,2005,2202,1998,1773,1843,1945
685951,53156,15396,47667,14899,-3800,115,394,505,155,330,-704,4034,53,43,927,1720,1784,2005,2202,1998,1773,1843,1945
686952,53240,15468,47732,14964,-3800,56,424,508,175,398,-870,3279,51,37,927,1720,1784,2005,2202,1998,1773,1843,1945
687953,53304,15548,47797,15029,-3800,-62,439,523,191,817,-630,3536,41,46,928,1720,1784,2005,2202,1998,1773,1843,1945
688954,53368,15600,47862,15094,-3800,304,464,553,197,907,-609,3115,41,46,925,1699,1767,1985,2195,1967,1751,1829,1934
689955,53448,15664,47927,15159,-3800,155,477,580,199,559,-544,3274,43,34,926,1699,1767,1985,2195,1967,1751,1829,1934
690956,53496,15720,47992,15224,-3800,265,488,581,202,547,-614,2989,32,41,927,1699,1767,1985,2195,1967,1751,1829,1934
691957,53564,15796,48057,15289,-3800,2,493,588,195,776,-527,3079,47,39,926,1699,1767,1985,2195,1967,1751,1829,1934
692958,53616,15860,48122,15354,-3800,153,507,592,189,794,-690,2869,31,41,926,1699,1767,1985,2195,1967,1751,1829,1934
693959,53660,15912,48187,15419,-3800,319,529,585,176,834,-594,2901,27,28,927,1699,1767,1985,2195,1967,1751,1829,1934
694960,53724,15972,48252,15484,-3800,225,565,578,165,666,-753,2836,30,43,926,1707,1761,1994,2189,1986,1763,1836,1960
695961,53776,16040,48317,15549,-3800,121,600,559,139,658,-750,2755,25,35,927,1707,1761,1994,2189,1986,1763,1836,1960
696962,53828,16108,48382,15614,-3800,116,638,545,123,798,-744,2790,24,32,927,1707,1761,1994,2189,1986,1763,1836,1960
697963,53884,16168,48447,15679,-3800,223,674,511,113,631,-637,2708,26,45,927,1707,1761,1994,2189,1986,1763,1836,1960
698964,53924,16212,48512,15744,-3800,448,711,470,88,552,-685,2584,22,37,927,1707,1761,1994,2189,1986,1763,1836,1960
699965,53956,16280,48577,15809,-3800,145,742,458,57,711,-685,2534,24,32,923,1699,1767,2001,2175,2027,1789,1858,1999
700966,54012,16344,48642,15874,-3800,196,766,458,34,669,-652,2411,18,44,927,1699,1767,2001,2175,2027,1789,1858,1999
701967,54020,16404,48707,15939,-3800,251,778,440,23,583,-563,2103,34,45,927,1699,1767,2001,2175,2027,1789,1858,1999
702968,54060,16468,48772,16004,-3800,202,781,426,15,529,-453,2257,31,31,927,1699,1767,2001,2175,2027,1789,1858,1999
703969,54088,16512,48837,16069,-3800,478,776,410,11,333,-467,2150,25,43,927,1699,1767,2001,2175,2027,1789,1858,1999
704970,54144,16588,49036,16268,-3800,228,776,383,3,394,-353,2313,30,42,925,1699,1767,2001,2175,2027,1789,1858,1999
705971,54164,16660,49101,16333,-3800,269,782,345,10,295,-296,2254,11,31,927,1703,1779,2011,2184,2038,1795,1866,2000
706972,54184,16700,49166,16398,-3800,700,785,305,15,278,-151,2508,29,32,926,1703,1779,2011,2184,2038,1795,1866,2000
707973,54212,16780,49231,16463,-3800,181,782,279,28,288,-145,2426,10,36,923,1703,1779,2011,2184,2038,1795,1866,2000
708974,54224,16848,49296,16528,-3800,327,775,252,44,261,-104,2688,15,44,927,1703,1779,2011,2184,2038,1795,1866,2000
709975,54252,16932,49361,16593,-3800,104,785,248,61,349,-61,2777,25,32,1008,1703,1779,2011,2184,2038,1795,1866,2000
710976,54264,16996,49426,16658,-3800,355,803,246,75,420,-123,2882,11,33,927,1689,1767,1990,2159,2039,1784,1870,2008
711977,54272,17060,49491,16723,-3800,356,823,249,88,376,-88,2982,6,32,926,1689,1767,1990,2159,2039,1784,1870,2008
712978,54284,17124,49556,16788,-3800,357,835,240,98,295,-33,3164,20,29,926,1689,1767,1990,2159,2039,1784,1870,2008
713979,54300,17192,49621,16853,-3800,304,852,243,95,368,-41,3228,11,31,915,1689,1767,1990,2159,2039,1784,1870,2008
714980,54308,17264,49686,16918,-3800,245,869,228,89,374,-14,3305,11,32,926,1689,1767,1990,2159,2039,1784,1870,2008
715981,54320,17344,49751,16983,-3800,126,894,217,89,344,-66,3459,18,40,927,1689,1767,1990,2159,2039,1784,1870,2008
716982,54324,17388,49816,17048,-3800,601,924,199,82,397,1,3614,1,28,926,1680,1764,1981,2160,2053,1802,1876,2024
717983,54336,17472,49881,17113,-3800,78,935,190,62,400,82,3638,11,44,917,1680,1764,1981,2160,2053,1802,1876,2024
718984,54344,17548,49946,17178,-3800,165,934,174,46,309,152,3779,11,30,928,1680,1764,1981,2160,2053,1802,1876,2024
719985,54340,17596,50011,17243,-3800,536,914,143,38,262,190,3771,0,28,927,1680,1764,1981,2160,2053,1802,1876,2024
720986,54336,17680,50076,17308,-3800,62,902,103,20,365,173,3831,-5,42,924,1680,1764,1981,2160,2053,1802,1876,2024
721987,54332,17756,50141,17373,-3800,149,889,86,3,319,260,4022,-4,43,924,1715,1802,2039,2212,2086,1828,1904,2066
722988,54344,17816,50206,17438,-3800,354,871,61,-11,343,243,4023,12,29,927,1715,1802,2039,2212,2086,1828,1904,2066
723989,54336,17872,50271,17503,-3800,415,842,39,-11,310,270,4180,0,32,926,1715,1802,2039,2212,2086,1828,1904,2066
724990,54332,17952,50336,17568,-3800,97,810,20,-4,306,345,4279,8,27,925,1715,1802,2039,2212,2086,1828,1904,2066
725991,54340,18012,50401,17633,-3800,353,785,36,6,286,316,4426,2,29,925,1715,1802,2039,2212,2086,1828,1904,2066
726992,54336,18096,50466,17698,-3682,30,766,51,19,198,391,4622,12,31,926,1754,1847,2085,2240,2129,1861,1938,2123
727993,54348,18164,50531,17763,-3800,226,749,54,27,148,356,4728,-4,32,928,1754,1847,2085,2240,2129,1861,1938,2123
728994,54328,18240,50596,17828,-3316,113,729,63,30,109,302,4792,0,27,927,1754,1847,2085,2240,2129,1861,1938,2123
730996,54344,18352,50726,17958,-3580,484,713,59,82,448,267,4958,5,25,927,1754,1847,2085,2240,2129,1861,1938,2123
731997,54336,18424,50791,18023,-3242,175,713,75,87,84,408,5170,0,26,925,1754,1847,2085,2240,2129,1861,1938,2123
732998,54336,18484,50856,18088,-3264,331,714,81,86,-98,501,5108,12,25,927,1739,1839,2076,2208,2164,1876,1940,2144
733999,54336,18544,50921,18153,-3186,337,698,74,97,-125,685,5180,-6,38,924,1739,1839,2076,2208,2164,1876,1940,2144
735000,54340,18604,50986,18218,-3163,343,664,51,111,-119,740,5189,7,32,926,1739,1839,2076,2208,2164,1876,1940,2144
736001,54348,18664,51051,18283,-3144,348,621,22,98,-214,825,5459,4,38,926,1739,1839,2076,2208,2164,1876,1940,2144
737002,54332,18728,51116,18348,-2746,300,573,5,81,-158,828,5242,-4,38,926,1739,1839,2076,2208,2164,1876,1940,2144
738003,54340,18784,51181,18413,-2979,411,533,1,68,-89,892,5502,6,36,926,1708,1814,2040,2153,2159,1863,1941,2142
739004,54348,18852,51246,18478,-2910,257,485,-3,43,22,886,5181,-5,37,925,1708,1814,2040,2153,2159,1863,1941,2142
740005,54332,18920,51311,18543,-2512,253,440,14,26,41,845,5301,-4,30,927,1708,1814,2040,2153,2159,1863,1941,2142
741006,54340,18964,51376,18608,-2744,579,390,38,14,93,784,5160,-4,35,927,1708,1814,2040,2153,2159,1863,1941,2142
742007,54348,19036,51441,18673,-2675,220,353,63,-7,60,684,5213,9,37,924,1708,1814,2040,2153,2159,1863,1941,2142
743008,54344,19116,51506,18738,-2443,101,321,92,-29,93,682,5147,12,39,927,1708,1814,2040,2153,2159,1863,1941,2142
744009,54340,19156,51571,18803,-2360,632,280,110,-45,134,640,4792,-4,28,927,1680,1798,2024,2138,2173,1873,1946,2156
745010,54348,19216,51636,18868,-2441,388,238,132,-55,105,497,4804,-6,23,923,1680,1798,2024,2138,2173,1873,1946,2156
746011,54328,19268,51701,18933,-1988,504,204,112,-61,-90,438,4609,-6,29,925,1680,1798,2024,2138,2173,1873,1946,2156
747012,54348,19344,51766,18998,-2434,190,183,123,-73,-58,332,4727,-5,26,925,1680,1798,2024,2138,2173,1873,1946,2156
748013,54336,19408,51831,19063,-1941,341,182,155,-82,174,245,4538,-3,28,927,1680,1798,2024,2138,2173,1873,1946,2156
749014,54336,19476,51896,19128,-2013,288,188,191,-95,196,230,4497,1,26,926,1673,1785,2021,2138,2166,1869,1936,2124
750015,54340,19540,51961,19193,-1990,339,199,206,-105,-39,239,4386,6,36,926,1673,1785,2021,2138,2166,1869,1936,2124
751016,54360,19592,52026,19258,-2135,504,191,209,-103,-226,287,4237,-6,36,914,1673,1785,2021,2138,2166,1869,1936,2124
752017,54356,19660,52091,19323,-1751,300,173,233,-111,-41,449,4128,8,37,925,1673,1785,2021,2138,2166,1869,1936,2124
753018,54356,19724,52156,19388,-1723,351,139,248,-107,8,287,3971,2,25,926,1673,1785,2021,2138,2166,1869,1936,2124
754019,54352,19780,52221,19453,-1590,462,94,194,-79,7,247,3417,2,37,926,1673,1785,2021,2138,2166,1869,1936,2124
755020,54360,19852,52286,19518,-1671,254,23,105,-57,-229,547,3396,-2,34,913,1679,1784,2011,2161,2087,1816,1889,2023
756021,54364,19904,52351,19583,-1548,520,-63,36,-50,-320,672,3475,2,37,926,1679,1784,2011,2161,2087,1816,1889,2023
757022,54360,19968,52416,19648,-1364,371,-193,-31,-79,194,623,3711,-6,33,924,1679,1784,2011,2161,2087,1816,1889,2023
758023,54356,20004,52481,19713,-1280,755,-213,-20,-98,295,534,3740,12,23,926,1679,1784,2011,2161,2087,1816,1889,2023
759024,54356,20076,52546,19778,-1252,297,-215,3,-122,387,429,3764,-1,20,917,1679,1784,2011,2161,2087,1816,1889,2023
760025,54360,20140,52611,19843,-1229,398,-206,37,-148,453,372,3677,3,25,926,1684,1774,1991,2143,2044,1787,1869,2029
761026,54364,20184,52676,19908,-1154,674,-185,65,-178,561,274,3560,2,39,926,1684,1774,1991,2143,2044,1787,1869,2029
762027,54352,20256,52741,19973,-861,315,-163,78,-201,541,188,3412,6,29,923,1684,1774,1991,2143,2044,1787,1869,2029
763028,54344,20316,52806,20038,-823,471,-147,74,-216,486,113,3229,6,26,924,1684,1774,1991,2143,2044,1787,1869,2029
764029,54356,20376,52871,20103,-1008,477,-126,54,-228,451,42,3160,5,26,925,1684,1774,1991,2143,2044,1787,1869,2029
765030,54360,20444,52936,20168,-835,374,-94,29,-233,264,-7,3058,-4,30,925,1684,1774,1991,2143,2044,1787,1869,2029
766031,54360,20496,53001,20233,-705,589,-70,1,-232,30,75,2950,-5,35,926,1683,1768,2003,2152,2054,1792,1868,2028
767032,54356,20564,53066,20298,-572,385,-47,-28,-230,-10,120,2993,7,34,921,1683,1768,2003,2152,2054,1792,1868,2028
768033,54356,20620,53131,20363,-543,546,-25,-79,-221,-21,148,2934,11,38,925,1683,1768,2003,2152,2054,1792,1868,2028
769034,54356,20692,53196,20428,-465,337,-8,-133,-209,-16,221,2847,12,28,924,1683,1768,2003,2152,2054,1792,1868,2028
770035,54364,20732,53261,20493,-495,768,2,-161,-194,-90,364,2939,11,41,926,1683,1768,2003,2152,2054,1792,1868,2028
771036,54352,20812,53326,20558,-152,249,-6,-180,-186,-73,496,2806,6,40,921,1721,1815,2043,2210,2025,1771,1853,1998
772037,54360,20864,53391,20623,-332,615,-26,-210,-177,-37,546,2827,5,27,926,1721,1815,2043,2210,2025,1771,1853,1998
773038,54348,20952,53456,20688,12,137,-62,-241,-169,48,556,2766,3,40,922,1721,1815,2043,2210,2025,1771,1853,1998
774039,54372,21032,53521,20753,-389,219,-96,-256,-171,96,588,2861,-3,37,927,1721,1815,2043,2210,2025,1771,1853,1998
775040,54356,21092,53586,20818,210,475,-124,-271,-175,378,643,2841,6,27,926,1721,1815,2043,2210,2025,1771,1853,1998
776041,54356,21156,53651,20883,89,426,-144,-283,-178,481,650,2926,-5,36,925,1721,1815,2043,2210,2025,1771,1853,1998
777042,54360,21216,53716,20948,112,481,-156,-284,-191,358,598,3053,10,39,925,1762,1848,2064,2235,1993,1748,1840,1985
778043,54356,21288,53781,21013,297,323,-157,-277,-212,477,431,3190,11,35,924,1762,1848,2064,2235,1993,1748,1840,1985
779044,54356,21344,53846,21078,326,534,-141,-255,-226,550,382,3328,14,35,925,1762,1848,2064,2235,1993,1748,1840,1985
780045,54364,21396,53911,21143,296,600,-113,-243,-239,596,341,3261,13,37,922,1762,1848,2064,2235,1993,1748,1840,1985
781046,54368,21476,53976,21208,420,231,-72,-219,-258,580,251,3407,7,26,922,1762,1848,2064,2235,1993,1748,1840,1985
782047,54376,21528,54041,21273,439,597,-29,-209,-278,498,297,3434,3,34,924,1733,1815,2039,2194,2018,1764,1844,2002
783048,54392,21584,54106,21338,398,558,11,-209,-281,446,190,3419,11,33,921,1733,1815,2039,2194,2018,1764,1844,2002
784049,54408,21648,54171,21403,458,459,58,-199,-282,263,245,3592,4,31,921,1733,1815,2039,2194,2018,1764,1844,2002
785050,54420,21716,54236,21468,573,406,107,-174,-284,193,293,3671,6,28,920,1733,1815,2039,2194,2018,1764,1844,2002
786051,54440,21772,54301,21533,528,567,157,-149,-283,273,317,3796,18,40,921,1733,1815,2039,2194,2018,1764,1844,2002
787054,54464,21832,54366,21598,528,522,202,-128,-275,194,312,3853,29,31,920,1733,1815,2039,2194,2018,1764,1844,2002
788053,54500,21920,54431,21663,413,144,236,-119,-266,35,530,3923,31,29,921,1706,1800,2029,2183,2027,1773,1850,2000
789054,54532,21976,54496,21728,504,555,251,-115,-254,-101,542,3788,25,38,924,1706,1800,2029,2183,2027,1773,1850,2000
790055,54580,22032,54561,21793,324,566,252,-105,-244,58,708,3829,19,40,921,1706,1800,2029,2183,2027,1773,1850,2000
791056,54600,22100,54626,21858,729,412,249,-75,-236,181,832,3893,23,27,922,1706,1800,2029,2183,2027,1773,1850,2000
792057,54656,22168,54691,21923,290,408,238,-39,-228,131,843,3902,24,28,919,1706,1800,2029,2183,2027,1773,1850,2000
793058,54688,22216,54756,21988,631,679,233,14,-225,247,857,4056,40,28,924,1736,1830,2060,2241,2016,1771,1857,1993
794059,54740,22284,54821,22053,396,426,223,72,-222,268,821,4148,23,28,919,1736,1830,2060,2241,2016,1771,1857,1993
795060,54796,22344,54886,22118,357,532,215,122,-225,278,762,4119,43,37,923,1736,1830,2060,2241,2016,1771,1857,1993
796061,54868,22396,54951,22183,149,647,212,175,-233,447,689,4425,41,41,922,1736,1830,2060,2241,2016,1771,1857,1993
797062,54912,22472,55016,22248,524,334,226,223,-242,492,580,4335,32,29,922,1736,1830,2060,2241,2016,1771,1857,1993
798063,54964,22528,55081,22313,440,594,248,254,-247,485,481,4541,37,25,922,1736,1830,2060,2241,2016,1771,1857,1993
799064,55020,22584,55146,22378,401,605,280,302,-250,544,506,4568,31,35,921,1773,1853,2085,2264,2029,1785,1863,2009
800065,55092,22668,55211,22443,193,232,312,354,-260,463,458,4743,45,30,921,1773,1853,2085,2264,2029,1785,1863,2009
801066,55144,22716,55276,22508,459,703,348,398,-277,465,341,4696,37,33,925,1773,1853,2085,2264,2029,1785,1863,2009
802067,55204,22772,55341,22573,365,614,386,413,-275,296,339,4748,43,27,918,1773,1853,2085,2264,2029,1785,1863,2009
803068,55256,22856,55406,22638,481,240,412,417,-279,52,325,4663,40,37,921,1773,1853,2085,2264,2029,1785,1863,2009
804069,55300,22916,55471,22703,606,546,430,405,-284,77,267,4756,28,30,924,1762,1844,2082,2244,2040,1786,1861,2015
805070,55356,22964,55536,22768,467,717,446,399,-291,223,326,4707,35,28,920,1762,1844,2082,2244,2040,1786,1861,2015
806071,55432,23028,55601,22833,204,518,448,397,-279,-54,369,4715,32,41,919,1762,1844,2082,2244,2040,1786,1861,2015
807072,55484,23104,55666,22898,520,355,446,407,-270,-13,394,4741,44,40,923,1762,1844,2082,2244,2040,1786,1861,2015
808073,55536,23160,55731,22963,537,616,453,411,-264,77,428,4775,32,30,922,1762,1844,2082,2244,2040,1786,1861,2015
809074,55600,23236,55796,23028,388,353,441,419,-248,9,466,4660,31,30,920,1762,1844,2082,2244,2040,1786,1861,2015
810075,55664,23284,55861,23093,389,722,423,430,-227,-41,574,4564,30,40,923,1758,1850,2076,2232,2028,1770,1859,2017
811076,55740,23336,55926,23158,226,688,392,415,-204,-75,529,4402,33,25,920,1758,1850,2076,2232,2028,1770,1859,2017
812077,55792,23388,55991,23223,541,704,372,383,-176,-41,494,4574,32,32,922,1758,1850,2076,2232,2028,1770,1859,2017
813078,55852,23468,56056,23288,448,336,364,352,-156,-52,375,4581,30,34,919,1758,1850,2076,2232,2028,1770,1859,2017
814079,55916,23512,56121,23353,399,811,364,336,-139,67,157,4751,46,43,923,1758,1850,2076,2232,2028,1770,1859,2017
815080,55968,23572,56186,23418,565,618,375,330,-131,285,236,4655,44,38,919,1757,1856,2073,2218,2029,1771,1863,2031
816081,56016,23624,56251,23483,635,733,381,305,-117,217,222,4429,32,28,919,1757,1856,2073,2218,2029,1771,1863,2031
817082,56080,23688,56316,23548,437,585,377,268,-100,-7,249,4387,42,41,917,1757,1856,2073,2218,2029,1771,1863,2031
818083,56144,23744,56381,23613,438,696,371,228,-97,14,281,4319,42,43,920,1757,1856,2073,2218,2029,1771,1863,2031
819084,56220,23796,56446,23678,274,761,373,193,-105,180,211,4448,38,41,919,1757,1856,2073,2218,2029,1771,1863,2031
820085,56272,23852,56511,23743,590,722,374,169,-107,263,107,4271,45,32,920,1757,1856,2073,2218,2029,1771,1863,2031
821086,56332,23924,56576,23808,497,514,373,131,-124,212,181,4165,44,31,919,1757,1855,2073,2215,2047,1787,1871,2039
822087,56396,23980,56641,23873,449,725,363,79,-141,-39,191,4137,42,42,921,1757,1855,2073,2215,2047,1787,1871,2039
823088,56452,24032,56706,23938,560,791,356,16,-144,-59,205,4076,46,38,919,1757,1855,2073,2215,2047,1787,1871,2039
824089,56524,24080,56771,24003,351,862,358,-28,-148,57,409,4037,48,40,918,1757,1855,2073,2215,2047,1787,1871,2039
825090,56552,24172,56836,24068,946,279,346,-57,-145,-88,382,4003,33,37,918,1757,1855,2073,2215,2047,1787,1871,2039
826091,56632,24224,56901,24133,278,794,339,-88,-134,-51,357,3948,27,42,918,1746,1838,2060,2209,2037,1778,1863,2020
827092,56676,24272,56966,24198,754,865,332,-124,-120,-48,391,4005,37,40,920,1746,1838,2060,2209,2037,1778,1863,2020
828093,56736,24344,57031,24263,560,557,313,-153,-111,-162,361,3949,32,29,915,1746,1838,2060,2209,2037,1778,1863,2020
829094,56788,24412,57096,24328,675,602,299,-184,-96,-51,353,3861,39,44,920,1746,1838,2060,2209,2037,1778,1863,2020
830095,56844,24460,57161,24393,636,873,288,-207,-73,-34,380,4055,32,32,919,1746,1838,2060,2209,2037,1778,1863,2020
831096,56904,24528,57226,24458,594,619,280,-208,-63,69,395,3824,35,36,917,1746,1838,2060,2209,2037,1778,1863,2020
832097,56976,24596,57291,24523,435,615,273,-196,-39,25,267,3861,48,37,919,1739,1828,2049,2204,2028,1774,1856,2009
833098,57024,24680,57356,24588,756,392,271,-195,-7,38,309,3869,34,42,921,1739,1828,2049,2204,2028,1774,1856,2009
834099,57096,24740,57421,24653,447,698,281,-191,23,20,311,3832,34,35,920,1739,1828,2049,2204,2028,1774,1856,2009
835101,57156,24792,57486,24718,603,814,274,-177,44,47,231,3878,29,30,919,1739,1828,2049,2204,2028,1774,1856,2009
836101,57212,24844,57551,24783,664,830,283,-176,59,18,429,3788,47,40,915,1739,1828,2049,2204,2028,1774,1856,2009
837102,57268,24900,57616,24848,675,791,284,-184,70,-143,292,3755,34,32,916,1732,1822,2052,2210,2036,1786,1860,2009
838103,57324,24984,57681,24913,686,418,303,-165,79,143,76,3718,32,34,916,1732,1822,2052,2210,2036,1786,1860,2009
839104,57356,25044,57746,24978,1028,724,326,-159,94,362,187,3450,32,39,920,1732,1822,2052,2210,2036,1786,1860,2009
840105,57428,25116,57811,25043,519,565,344,-152,107,71,282,3539,44,45,914,1732,1822,2052,2210,2036,1786,1860,2009
841106,57504,25164,57876,25108,456,886,339,-142,111,-68,449,3344,51,46,920,1732,1822,2052,2210,2036,1786,1860,2009
842107,57556,25232,57941,25173,771,632,328,-156,102,-109,516,3426,38,27,917,1732,1822,2052,2210,2036,1786,1860,2009
843108,57608,25284,58006,25238,787,848,303,-176,106,-119,449,3349,40,38,917,1744,1825,2067,2240,2039,1792,1861,2001
844109,57656,25360,58071,25303,858,535,301,-159,96,71,434,3623,47,44,915,1744,1825,2067,2240,2039,1792,1861,2001
845110,57724,25420,58136,25368,604,741,293,-146,90,387,331,3334,40,32,917,1744,1825,2067,2240,2039,1792,1861,2001
846111,57780,25472,58201,25433,766,857,299,-126,91,493,413,3597,33,31,918,1744,1825,2067,2240,2039,1792,1861,2001
847112,57836,25548,58266,25498,777,543,291,-83,96,181,496,3737,36,35,915,1744,1825,2067,2240,2039,1792,1861,2001
848113,57900,25588,58331,25563,679,1024,292,-25,110,82,517,3689,45,34,918,1763,1837,2079,2257,2029,1787,1858,1994
849114,57956,25640,58396,25628,790,890,298,27,123,218,524,3819,32,43,914,1763,1837,2079,2257,2029,1787,1858,1994
850115,58000,25724,58461,25693,965,467,313,71,135,326,361,3701,32,38,914,1763,1837,2079,2257,2029,1787,1858,1994
851116,58072,25772,58526,25758,607,937,323,103,148,335,332,3715,35,45,916,1763,1837,2079,2257,2029,1787,1858,1994
852117,58112,25840,58591,25823,1038,684,339,122,163,164,443,3738,45,46,915,1763,1837,2079,2257,2029,1787,1858,1994
853118,58200,25904,58656,25888,410,735,348,139,192,9,393,3730,33,33,912,1763,1837,2079,2257,2029,1787,1858,1994
854119,58220,25972,58721,25953,1315,681,355,148,212,61,373,3783,35,35,919,1763,1838,2085,2263,2027,1794,1860,1993
855120,58276,26040,58786,26018,876,678,371,164,232,-25,411,3772,32,44,911,1763,1838,2085,2263,2027,1794,1860,1993
856121,58348,26128,58851,26083,668,400,376,183,249,20,377,3710,44,39,916,1763,1838,2085,2263,2027,1794,1860,1993
857122,58400,26176,58916,26148,933,920,394,197,260,48,557,3687,40,37,920,1763,1838,2085,2263,2027,1794,1860,1993
858123,58448,26248,58981,26213,1005,612,407,195,280,-211,478,3620,46,33,913,1763,1838,2085,2263,2027,1794,1860,1993
859124,58516,26320,59046,26278,751,603,400,199,297,-58,466,3768,51,39,914,1772,1848,2099,2288,2031,1796,1863,1997
860125,58584,26400,59111,26343,748,485,417,228,303,242,610,3773,44,50,917,1772,1848,2099,2288,2031,1796,1863,1997
861126,58656,26476,59176,26408,689,521,407,230,302,152,475,3718,53,47,918,1772,1848,2099,2288,2031,1796,1863,1997
862127,58716,26528,59241,26473,845,837,415,254,293,48,453,3841,48,40,919,1772,1848,2099,2288,2031,1796,1863,1997
863128,58756,26596,59306,26538,1127,634,416,247,303,220,555,3786,52,32,914,1772,1848,2099,2288,2031,1796,1863,1997
864129,58824,26676,59371,26603,773,465,423,266,299,184,462,3898,44,35,913,1772,1848,2099,2288,2031,1796,1863,1997
865130,58888,26720,59436,26668,824,941,423,296,297,353,624,3959,53,50,918,1796,1872,2120,2306,2020,1785,1857,1991
866131,58936,26792,59501,26733,1045,582,443,333,291,531,613,4087,33,46,914,1796,1872,2120,2306,2020,1785,1857,1991
867132,59008,26864,59566,26798,737,574,447,356,305,347,531,3973,31,44,915,1796,1872,2120,2306,2020,1785,1857,1991
868133,59072,26928,59631,26863,839,675,470,382,307,263,669,4200,46,47,917,1796,1872,2120,2306,2020,1785,1857,1991
869134,59112,26972,59696,26928,1169,951,479,398,315,102,442,4046,46,31,916,1796,1872,2120,2306,2020,1785,1857,1991
870135,59160,27028,59761,26993,1090,812,482,387,315,175,637,4143,45,42,909,1816,1892,2136,2322,2008,1773,1848,1981
871136,59216,27096,59826,27058,1001,658,480,380,320,109,639,4120,49,48,911,1816,1892,2136,2322,2008,1773,1848,1981
872137,59276,27172,59891,27123,958,544,459,353,302,123,631,4008,41,41,914,1816,1892,2136,2322,2008,1773,1848,1981
873138,59324,27228,59956,27188,1129,805,440,313,292,-36,562,3940,32,32,916,1816,1892,2136,2322,2008,1773,1848,1981
874139,59360,27280,60021,27253,1314,871,434,285,285,48,673,4044,32,45,911,1816,1892,2136,2322,2008,1773,1848,1981
875140,59428,27364,60086,27318,911,447,428,277,293,-5,629,4029,50,31,908,1816,1892,2136,2322,2008,1773,1848,1981
876141,59496,27400,60151,27383,908,1083,420,293,298,103,587,4173,41,45,917,1831,1905,2151,2340,1999,1770,1846,1980
877142,59560,27452,60216,27448,959,899,419,290,303,120,732,4118,38,39,910,1831,1905,2151,2340,1999,1770,1846,1980
878143,59604,27508,60281,27513,1235,860,416,290,308,53,749,4228,33,30,911,1831,1905,2151,2340,1999,1770,1846,1980
879144,59672,27568,60346,27578,931,816,426,291,312,166,536,4169,49,40,909,1831,1905,2151,2340,1999,1770,1846,1980
880145,59728,27636,60411,27643,1093,712,435,273,320,200,563,4171,35,38,913,1831,1905,2151,2340,1999,1770,1846,1980
881146,59776,27684,60476,27708,1214,983,447,272,320,77,697,4359,48,32,913,1831,1905,2151,2335,2008,1780,1853,1990
882147,59840,27748,60541,27773,1015,784,453,288,326,91,567,4430,42,42,908,1831,1905,2151,2335,2008,1780,1853,1990
883148,59916,27800,60606,27838,852,950,466,303,330,275,625,4412,36,44,912,1831,1905,2151,2335,2008,1780,1853,1990
884149,59968,27860,60671,27903,1169,856,482,307,326,339,711,4358,34,34,912,1831,1905,2151,2335,2008,1780,1853,1990
885150,60024,27900,60736,27968,1130,1137,488,298,320,166,696,4456,32,37,910,1831,1905,2151,2335,2008,1780,1853,1990
886151,60060,27988,60801,28033,1415,508,483,274,305,165,782,4268,39,43,907,1831,1905,2151,2335,2008,1780,1853,1990
887152,60128,28044,60866,28098,1011,919,484,246,295,18,874,4297,49,47,908,1827,1904,2152,2339,2012,1784,1857,1988
888153,60200,28100,60931,28163,954,930,468,232,282,73,746,4195,45,48,911,1827,1904,2152,2339,2012,1784,1857,1988
889154,60248,28160,60996,28228,1275,888,456,211,274,177,791,4208,40,35,912,1827,1904,2152,2339,2012,1784,1857,1988
890155,60300,28216,61061,28293,1240,948,446,180,266,133,875,4080,51,35,909,1827,1904,2152,2339,2012,1784,1857,1988
891156,60372,28300,61126,28358,983,575,444,173,248,40,905,4272,44,53,908,1827,1904,2152,2339,2012,1784,1857,1988
892157,60424,28368,61191,28423,1249,772,440,184,227,239,841,4169,34,43,914,1838,1911,2162,2359,2011,1788,1860,1989
893158,60492,28448,61256,28488,1045,603,426,174,214,315,860,4293,33,50,910,1838,1911,2162,2359,2011,1788,1860,1989
894159,60544,28516,61321,28553,1261,750,421,170,198,67,757,4228,34,53,914,1838,1911,2162,2359,2011,1788,1860,1989
895160,60592,28576,61386,28618,1333,856,415,143,193,139,897,4243,33,44,910,1838,1911,2162,2359,2011,1788,1860,1989
896161,60660,28656,61451,28683,1079,587,423,128,198,22,937,4249,35,50,908,1838,1911,2162,2359,2011,1788,1860,1989
897162,60712,28720,61516,28748,1295,789,424,116,186,197,884,4247,54,44,914,1838,1911,2162,2359,2011,1788,1860,1989
898163,60768,28788,61581,28813,1257,735,434,116,192,192,755,4284,54,50,909,1839,1912,2166,2358,2015,1791,1859,1991
899164,60832,28852,61646,28878,1158,786,433,111,206,179,891,4279,46,38,910,1839,1912,2166,2358,2015,1791,1859,1991
900165,60900,28924,61711,28943,1104,678,451,129,207,74,876,4373,42,49,910,1839,1912,2166,2358,2015,1791,1859,1991
901166,60952,28996,61776,29008,1321,669,457,120,213,176,871,4259,54,37,912,1839,1912,2166,2358,2015,1791,1859,1991
902167,61012,29068,61841,29073,1227,661,474,131,208,148,890,4194,49,33,910,1839,1912,2166,2358,2015,1791,1859,1991
903168,61064,29124,61906,29138,1343,872,473,160,187,263,1001,4261,53,39,911,1832,1909,2167,2354,2018,1795,1861,1996
904169,61140,29180,61971,29203,1030,883,477,161,160,250,892,3995,39,44,906,1832,1909,2167,2354,2018,1795,1861,1996
905170,61212,29260,62036,29268,1072,564,470,159,143,99,813,3971,53,42,911,1832,1909,2167,2354,2018,1795,1861,1996
906171,61264,29292,62101,29333,1338,1205,471,162,118,221,960,3979,37,35,914,1832,1909,2167,2354,2018,1795,1861,1996
907172,61324,29360,62166,29398,1244,751,457,157,108,155,1031,3857,51,34,905,1832,1909,2167,2354,2018,1795,1861,1996
908173,61388,29428,62231,29463,1197,747,451,155,88,88,1038,3887,37,49,909,1832,1909,2167,2354,2018,1795,1861,1996
909174,61468,29488,62296,29528,978,853,431,157,60,155,992,3799,39,50,910,1845,1917,2183,2383,2024,1804,1866,1996
910175,61524,29560,62361,29593,1289,695,426,148,43,84,1026,3839,35,51,912,1845,1917,2183,2383,2024,1804,1866,1996
911176,61588,29616,62426,29658,1191,906,406,140,28,82,1000,3739,51,42,910,1845,1917,2183,2383,2024,1804,1866,1996
912177,61648,29684,62491,29723,1248,752,392,123,12,77,996,3817,53,45,909,1845,1917,2183,2383,2024,1804,1866,1996
913178,61700,29736,62556,29788,1363,968,385,122,1,182,1202,3903,42,50,910,1845,1917,2183,2383,2024,1804,1866,1996
914179,61760,29816,62621,29853,1271,600,385,131,-7,138,1104,3962,45,50,906,1853,1918,2186,2384,2034,1817,1875,2008
915180,61840,29880,62686,29918,1002,801,392,164,-19,285,991,4055,47,42,911,1853,1918,2186,2384,2034,1817,1875,2008
916181,61872,29964,62751,29983,1642,528,402,176,-27,270,918,3802,54,49,912,1853,1918,2186,2384,2034,1817,1875,2008
917182,61948,30024,62816,30048,1080,834,417,202,-24,237,963,3957,36,44,907,1853,1918,2186,2384,2034,1817,1875,2008
918183,62012,30092,62881,30113,1231,730,432,197,-8,173,1039,3721,44,43,911,1853,1918,2186,2384,2034,1817,1875,2008
919184,62056,30160,62946,30178,1507,726,452,209,-10,291,1123,3933,44,45,910,1853,1918,2186,2384,2034,1817,1875,2008
920185,62112,30220,63011,30243,1369,833,458,223,-8,320,932,3688,30,46,907,1834,1904,2174,2366,2058,1840,1890,2026
921186,62168,30280,63076,30308,1380,839,472,251,-9,133,1063,3883,48,46,906,1834,1904,2174,2366,2058,1840,1890,2026
922187,62256,30348,63141,30373,952,735,480,266,-15,70,1080,3733,34,51,907,1834,1904,2174,2366,2058,1840,1890,2026
923188,62324,30416,63206,30438,1199,731,479,289,-13,82,983,3698,38,53,913,1834,1904,2174,2366,2058,1840,1890,2026
924189,62388,30476,63271,30503,1250,837,448,274,6,26,969,3365,39,38,911,1834,1904,2174,2366,2058,1840,1890,2026
925190,62448,30544,63336,30568,1306,734,388,243,42,460,668,3329,44,40,909,1827,1898,2176,2374,2070,1849,1898,2032
926191,62504,30620,63401,30633,1368,620,300,197,88,447,754,3086,45,50,910,1827,1898,2176,2374,2070,1849,1898,2032
927192,62584,30708,63466,30698,1050,442,233,131,99,184,838,3118,54,54,910,1827,1898,2176,2374,2070,1849,1898,2032
928193,62656,30744,63531,30763,1142,1128,201,135,84,166,816,3779,44,55,915,1827,1898,2176,2374,2070,1849,1898,2032
929194,62720,30808,63596,30828,1244,779,205,158,67,312,958,3610,40,48,907,1827,1898,2176,2374,2070,1849,1898,2032
930195,62776,30892,63661,30893,1355,506,223,200,32,572,849,3795,40,39,910,1827,1898,2176,2374,2070,1849,1898,2032
931196,62848,30968,63726,30958,1146,592,234,212,15,518,561,3548,47,54,911,1827,1890,2170,2351,2115,1881,1925,2081
932197,62932,31044,63791,31023,974,579,255,214,-17,374,884,3576,45,39,912,1827,1890,2170,2351,2115,1881,1925,2081
933198,63016,31092,63856,31088,951,950,282,211,-55,260,872,3602,58,50,915,1827,1890,2170,2351,2115,1881,1925,2081
934199,63084,31160,63921,31153,1147,696,311,232,-76,373,896,3936,39,46,912,1827,1890,2170,2351,2115,1881,1925,2081
935200,63148,31212,63986,31218,1199,912,331,263,-95,397,1013,3927,56,43,912,1827,1890,2170,2351,2115,1881,1925,2081
936201,63228,31292,64051,31283,981,544,336,319,-100,352,827,3799,52,47,910,1795,1867,2152,2322,2155,1904,1943,2098
937202,63288,31360,64116,31348,1237,690,331,360,-93,435,995,3699,38,43,915,1795,1867,2152,2322,2155,1904,1943,2098
938203,63360,31436,64181,31413,1080,576,316,365,-83,174,1051,3542,42,45,910,1795,1867,2152,2322,2155,1904,1943,2098
939204,63428,31480,64246,31478,1126,1002,273,340,-54,-9,1130,3364,46,35,914,1795,1867,2152,2322,2155,1904,1943,2098
940205,63488,31536,64311,31543,1232,863,245,302,-23,-56,1351,3383,49,39,909,1795,1867,2152,2322,2155,1904,1943,2098
941206,63556,31608,64376,31608,1128,655,212,292,8,-115,1189,3458,39,45,909,1795,1867,2152,2322,2155,1904,1943,2098
942207,63600,31664,64441,31673,1455,865,183,316,30,-2,1187,3573,35,45,912,1803,1883,2163,2354,2138,1900,1942,2081
943208,63656,31720,64506,31738,1316,876,160,333,54,134,1202,3601,43,41,907,1803,1883,2163,2354,2138,1900,1942,2081
944209,63724,31796,64571,31803,1162,613,143,315,87,-26,1174,3517,50,50,908,1803,1883,2163,2354,2138,1900,1942,2081
945210,63784,31832,64636,31868,1270,1148,120,311,107,-23,1053,3670,52,46,912,1803,1883,2163,2354,2138,1900,1942,2081
946211,63844,31912,64701,31933,1276,580,98,312,114,227,1038,3655,40,40,906,1803,1883,2163,2354,2138,1900,1942,2081
947212,63920,31992,64766,31998,1062,562,87,334,107,355,918,3710,41,51,911,1815,1889,2171,2370,2132,1898,1937,2088
948213,63988,32044,64831,32063,1160,928,77,373,98,450,820,3813,56,52,914,1815,1889,2171,2370,2132,1898,1937,2088
949214,64052,32120,64896,32128,1211,614,78,410,86,419,950,3903,52,46,910,1815,1889,2171,2370,2132,1898,1937,2088
950215,64104,32164,64961,32193,1377,1040,88,430,85,360,847,3823,44,42,911,1815,1889,2171,2370,2132,1898,1937,2088
951216,64188,32232,65026,32258,954,736,101,464,73,398,957,3943,42,46,906,1815,1889,2171,2370,2132,1898,1937,2088
952217,64248,32304,65091,32323,1261,678,117,490,63,394,882,3837,55,49,913,1815,1889,2171,2370,2132,1898,1937,2088
953218,64300,32368,65156,32388,1376,779,115,521,45,576,857,3769,40,48,911,1823,1892,2188,2369,2153,1913,1944,2100
954219,64372,32424,65221,32453,1119,890,112,528,34,300,983,3793,54,37,908,1823,1892,2188,2369,2153,1913,1944,2100
955220,64436,32488,65420,32652,1384,955,93,520,17,117,1145,3732,38,35,908,1823,1892,2188,2369,2153,1913,1944,2100
956221,64484,32544,65485,32717,1604,1066,83,520,-11,71,1239,3756,41,47,907,1823,1892,2188,2369,2153,1913,1944,2100
957222,64564,32604,65550,32782,1187,1022,57,509,-25,84,1180,3557,52,52,901,1823,1892,2188,2369,2153,1913,1944,2100
958223,64624,32684,65615,32847,1443,753,31,500,-35,169,1262,3675,39,43,907,1844,1912,2212,2410,2153,1920,1954,2098
959224,64688,32760,65680,32912,1394,790,-2,483,-39,57,1243,3487,51,51,907,1844,1912,2212,2410,2153,1920,1954,2098
960225,64760,32820,65745,32977,1287,996,-39,449,-42,16,1253,3488,39,54,907,1844,1912,2212,2410,2153,1920,1954,2098
961226,64832,32904,65810,33042,1278,673,-69,423,-50,-17,1331,3721,41,46,907,1844,1912,2212,2410,2153,1920,1954,2098
962230,64912,32960,65875,33107,1161,1034,-85,413,-33,-40,1308,3727,43,58,910,1844,1912,2212,2410,2153,1920,1954,2098
963228,64980,33048,65940,33172,1307,606,-87,438,-20,78,1278,4075,49,46,908,1856,1922,2214,2411,2160,1927,1965,2116
964229,65056,33128,66005,33237,1194,688,-77,478,-4,324,1219,4093,50,56,910,1856,1922,2214,2411,2160,1927,1965,2116
965230,65112,33212,66070,33302,1456,614,-66,503,31,249,1156,4248,58,43,911,1856,1922,2214,2411,2160,1927,1965,2116
966231,65192,33280,66135,33367,1138,811,-44,537,51,137,1265,4282,45,42,909,1856,1922,2214,2411,2160,1927,1965,2116
967232,65280,33360,66200,33432,1010,642,-31,551,79,89,1098,4139,53,45,911,1856,1922,2214,2411,2160,1927,1965,2116
968233,65348,33408,66265,33497,1257,1063,-9,564,92,184,1189,4168,61,54,914,1856,1922,2214,2411,2160,1927,1965,2116
969234,65420,33512,66330,33562,1198,317,9,562,79,106,1248,4080,43,45,908,1833,1911,2205,2388,2172,1931,1966,2125
970235,65496,33592,66395,33627,1135,598,24,581,69,5,1096,4063,44,45,913,1833,1911,2205,2388,2172,1931,1966,2125
971236,65576,33664,66460,33692,1068,690,18,574,58,145,1126,3984,44,46,913,1833,1911,2205,2388,2172,1931,1966,2125
972237,65656,33728,66525,33757,1049,791,24,577,62,-29,1232,3914,48,51,912,1833,1911,2205,2388,2172,1931,1966,2125
973238,65724,33796,66590,33822,1196,737,18,534,21,95,1617,3864,40,39,912,1833,1911,2205,2388,2172,1931,1966,2125
974239,65792,33860,66655,33887,1193,788,7,491,-20,-221,1277,3746,38,40,911,1853,1928,2228,2420,2165,1925,1961,2113
975240,65860,33948,66720,33952,1189,460,-29,460,-39,-102,1210,3913,38,56,911,1853,1928,2228,2420,2165,1925,1961,2113
976241,65916,34028,66785,34017,1350,542,-63,454,-69,2,1387,3737,45,53,913,1853,1928,2228,2420,2165,1925,1961,2113
977242,65980,34080,66850,34082,1253,908,-112,443,-108,23,1347,3851,38,52,911,1853,1928,2228,2420,2165,1925,1961,2113
978243,66072,34148,66915,34147,870,704,-143,393,-143,76,1527,3583,40,55,909,1853,1928,2228,2420,2165,1925,1961,2113
979244,66136,34224,66980,34212,1221,591,-168,350,-164,-282,1380,3551,39,56,914,1853,1928,2228,2420,2165,1925,1961,2113
980245,66184,34308,67045,34277,1443,468,-201,329,-184,-324,1180,3916,53,46,912,1882,1949,2244,2436,2155,1919,1961,2122
981246,66256,34380,67110,34342,1134,609,-220,363,-189,114,1085,3917,50,40,910,1882,1949,2244,2436,2155,1919,1961,2122
982247,66320,34444,67175,34407,1235,710,-235,386,-181,243,1292,3937,53,54,912,1882,1949,2244,2436,2155,1919,1961,2122
983248,66384,34520,67240,34472,1237,547,-224,399,-200,10,1267,3872,44,56,911,1882,1949,2244,2436,2155,1919,1961,2122
984249,66472,34596,67305,34537,909,532,-215,393,-203,-251,1104,3937,44,55,912,1882,1949,2244,2436,2155,1919,1961,2122
985250,66536,34660,67370,34602,1211,684,-193,395,-193,-213,1003,3799,45,53,916,1851,1925,2215,2387,2172,1932,1972,2140
986251,66592,34752,67435,34667,1323,301,-185,412,-173,-211,955,4013,51,38,912,1851,1925,2215,2387,2172,1932,1972,2140
987252,66676,34820,67500,34732,949,597,-167,416,-166,-104,1264,3947,51,49,913,1851,1925,2215,2387,2172,1932,1972,2140
988253,66732,34880,67565,34797,1310,703,-149,386,-168,-453,1365,3745,40,55,914,1851,1925,2215,2387,2172,1932,1972,2140
989254,66820,34956,67630,34862,883,490,-133,334,-168,-581,1392,3741,46,46,909,1851,1925,2215,2387,2172,1932,1972,2140
990255,66880,35020,67695,34927,1239,641,-118,291,-160,-615,1205,3745,49,43,916,1851,1925,2215,2387,2172,1932,1972,2140
991256,66952,35092,67760,34992,1081,532,-134,254,-155,-351,1355,3787,55,40,912,1819,1900,2190,2368,2168,1928,1964,2119
992257,67052,35164,67825,35057,688,524,-143,234,-162,-240,1576,3479,47,43,914,1819,1900,2190,2368,2168,1928,1964,2119
993258,67120,35232,67890,35122,1085,570,-151,146,-211,-726,1517,3436,59,41,918,1819,1900,2190,2368,2168,1928,1964,2119
994259,67200,35300,67955,35187,917,567,-169,117,-249,-585,1371,3572,51,36,915,1819,1900,2190,2368,2168,1928,1964,2119
995260,67296,35376,68020,35252,679,453,-187,114,-270,-98,1223,3718,48,53,915,1819,1900,2190,2368,2168,1928,1964,2119
996261,67372,35448,68085,35317,917,495,-217,127,-298,-44,1275,3643,57,49,919,1833,1905,2195,2385,2146,1908,1948,2100
997262,67432,35524,68150,35382,1123,431,-247,128,-346,41,1372,3541,38,51,917,1833,1905,2195,2385,2146,1908,1948,2100
998263,67516,35588,68215,35447,800,582,-267,101,-391,-152,1131,3329,58,45,915,1833,1905,2195,2385,2146,1908,1948,2100
999264,67604,35676,68280,35512,722,254,-282,112,-423,-506,1191,3718,54,55,917,1833,1905,2195,2385,2146,1908,1948,2100
1000265,67684,35728,68345,35577,804,720,-310,143,-450,84,1136,3673,45,51,920,1833,1905,2195,2385,2146,1908,1948,2100
1001266,67756,35788,68410,35642,896,626,-324,135,-462,198,1036,3482,36,51,917,1833,1905,2195,2385,2146,1908,1948,2100
1002267,67840,35868,68475,35707,723,358,-339,118,-486,-217,1180,3553,49,51,916,1839,1904,2193,2375,2134,1902,1941,2100
1003268,67920,35932,68540,35772,754,559,-347,84,-508,-374,977,3371,55,53,919,1839,1904,2193,2375,2134,1902,1941,2100
1004269,68004,36012,68605,35837,682,341,-326,75,-525,-944,673,3682,51,41,918,1839,1904,2193,2375,2134,1902,1941,2100
1005270,68072,36084,68670,35902,878,431,-340,70,-524,-474,833,3690,57,42,920,1839,1904,2193,2375,2134,1902,1941,2100
1006271,68152,36148,68735,35967,710,533,-334,50,-525,-306,881,3344,47,54,916,1839,1904,2193,2375,2134,1902,1941,2100
1007272,68244,36224,68800,36032,527,369,-349,1,-513,-895,929,3467,51,52,919,1814,1885,2174,2352,2139,1904,1943,2101
1008273,68312,36312,68865,36097,824,191,-357,-4,-506,-830,945,3587,58,40,921,1814,1885,2174,2352,2139,1904,1943,2101
1009274,68392,36388,68930,36162,656,328,-378,-3,-509,-392,1104,3409,40,40,920,1814,1885,2174,2352,2139,1904,1943,2101
1010275,68464,36460,68995,36227,748,369,-415,-20,-493,-540,985,3312,40,44,921,1814,1885,2174,2352,2139,1904,1943,2101
1011276,68548,36524,69060,36292,575,470,-444,-28,-493,-556,1142,3466,59,54,920,1814,1885,2174,2352,2139,1904,1943,2101
1012278,68628,36604,69125,36357,606,252,-469,-51,-485,-669,1068,3164,60,45,921,1814,1885,2174,2352,2139,1904,1943,2101
1013278,68712,36680,69190,36422,533,289,-483,-44,-501,-268,1170,3599,56,54,922,1808,1884,2168,2348,2154,1917,1960,2119
1014279,68812,36764,69255,36487,291,165,-498,-50,-502,-365,1042,3113,41,56,922,1808,1884,2168,2348,2154,1917,1960,2119
1015280,68860,36824,69320,36552,962,471,-519,-57,-512,-337,889,3392,40,54,924,1808,1884,2168,2348,2154,1917,1960,2119
1016281,68968,36892,69385,36617,160,367,-536,-41,-529,-171,921,3276,49,49,919,1808,1884,2168,2348,2154,1917,1960,2119
1017282,69036,36964,69450,36682,656,308,-546,-49,-554,-272,1015,3365,41,44,923,1808,1884,2168,2348,2154,1917,1960,2119
1018283,69116,37040,69515,36747,488,245,-549,-66,-581,-338,960,3423,52,43,922,1801,1872,2157,2335,2178,1933,1968,2130
1019284,69204,37128,69580,36812,359,67,-557,-89,-606,-337,795,3349,40,41,923,1801,1872,2157,2335,2178,1933,1968,2130
1020285,69288,37200,69645,36877,387,258,-559,-117,-639,-9,841,3529,38,50,925,1801,1872,2157,2335,2178,1933,1968,2130
1021286,69356,37284,69710,36942,584,85,-570,-117,-656,-162,778,3379,39,53,924,1801,1872,2157,2335,2178,1933,1968,2130
1022287,69440,37348,69775,37007,360,336,-585,-130,-675,-184,863,3695,44,49,923,1801,1872,2157,2335,2178,1933,1968,2130
1023288,69508,37436,69840,37072,557,8,-613,-140,-682,-397,549,3108,49,53,922,1801,1872,2157,2335,2178,1933,1968,2130
1024289,69592,37504,69905,37137,334,254,-642,-168,-689,-183,774,3510,40,41,924,1792,1859,2147,2325,2174,1925,1960,2121
1025290,69664,37568,69970,37202,475,305,-668,-195,-687,-317,659,3199,37,52,924,1792,1859,2147,2325,2174,1925,1960,2121
1026291,69752,37632,70035,37267,247,306,-703,-198,-680,-408,732,3398,35,54,924,1792,1859,2147,2325,2174,1925,1960,2121
1027292,69800,37708,70100,37332,768,143,-729,-210,-670,-245,808,3349,38,51,924,1792,1859,2147,2325,2174,1925,1960,2121
1028293,69896,37776,70165,37397,131,239,-753,-229,-661,-459,813,3227,37,41,922,1792,1859,2147,2325,2174,1925,1960,2121
1029294,69980,37848,70230,37462,258,180,-777,-256,-646,-466,744,3303,38,39,925,1786,1858,2141,2315,2159,1911,1955,2119
1030295,70040,37920,70295,37527,564,172,-790,-270,-635,-390,739,3165,50,50,926,1786,1858,2141,2315,2159,1911,1955,2119
1031296,70116,37984,70360,37592,350,272,-816,-268,-620,-432,786,3454,36,53,924,1786,1858,2141,2315,2159,1911,1955,2119
1032297,70196,38052,70425,37657,282,218,-831,-236,-612,-228,737,3447,38,42,924,1786,1858,2141,2315,2159,1911,1955,2119
1033298,70280,38128,70490,37722,209,105,-851,-251,-614,-356,781,3145,38,45,925,1786,1858,2141,2315,2159,1911,1955,2119
