%  Data file recorded 2016/4/18  12:58:11
%  Stride Frequency         = [0.1, 0.1]
%  Lead In /Lead Out        = 
%  Deltas (Fractional)      = [0.25, 0.25, 0.25],[0.25, 0.25, 0.25]
%  Phase                    = 32768
%  Experiment.py 
%  Motor Gains    = [100, 0, 100, 0, 0, 100, 0, 100, 0, 0]
% Columns: 
% time | Right Leg Pos | Left Leg Pos | Commanded Right Leg Pos | Commanded Left Leg Pos | DCR | DCL | GyroX | GyroY | GyroZ | AX | AY | AZ | RBEMF | LBEMF | VBatt | S1 | S2 | S3 | S4 | S5 | S6 | S7 | S8
907,32704,-9952,0,0,-749,317,-153,215,-300,430,-28,3884,-8,0,813,1258,1430,1159,1293,1369,1071,1306,1453
1908,32712,-9944,0,0,-849,192,-151,211,-299,409,-50,3923,4,-6,812,1258,1430,1159,1293,1369,1071,1306,1453
2909,32716,-9948,0,0,-824,267,-150,212,-301,410,-50,3913,0,4,813,1258,1430,1159,1293,1369,1071,1306,1453
3910,32696,-9948,0,0,-674,242,-151,212,-301,415,-44,3900,-8,-5,813,1258,1430,1159,1293,1369,1071,1306,1453
4911,32712,-9948,0,0,-899,242,-151,210,-300,425,-46,3883,2,7,813,1258,1430,1159,1293,1369,1071,1306,1453
5912,32712,-9956,0,0,-799,293,-150,210,-298,433,-63,3894,1,-7,812,1258,1430,1159,1293,1369,1071,1306,1453
6913,32700,-9944,0,0,-724,167,-151,210,-298,437,-39,3900,-9,3,813,1258,1430,1159,1293,1369,1071,1306,1453
7914,32704,-9940,0,0,-824,217,-153,214,-298,428,-52,3935,5,4,813,1258,1430,1159,1293,1369,1071,1306,1453
8915,32700,-9940,0,0,-774,242,-152,216,-301,416,-75,3902,-1,-6,812,1258,1430,1159,1293,1369,1071,1306,1453
9916,32708,-9936,0,0,-849,217,-152,214,-299,430,-69,3906,-8,6,813,1258,1430,1159,1293,1369,1071,1306,1453
10917,32704,-9944,0,0,-774,292,-155,212,-300,414,-64,3913,6,-3,812,1258,1430,1159,1293,1369,1071,1306,1453
11918,32708,-9948,0,0,-824,267,-154,212,-300,403,-49,3884,-5,-1,813,1258,1430,1159,1293,1369,1071,1306,1453
12919,32700,-9940,0,0,-749,192,-153,211,-300,407,-47,3918,-5,1,813,1258,1430,1159,1293,1369,1071,1306,1453
13920,32700,-9944,0,0,-799,267,-152,211,-300,418,-65,3932,8,-8,813,1258,1430,1159,1293,1369,1071,1306,1453
14921,32708,-9944,0,0,-849,242,-153,211,-297,426,-42,3913,-8,7,813,1258,1430,1159,1293,1369,1071,1306,1453
15922,32712,-9948,0,0,-824,267,-152,211,-295,413,-29,3922,-5,-8,813,1258,1430,1159,1293,1369,1071,1306,1453
16923,32704,-9944,0,0,-749,217,-153,213,-299,428,-44,3927,5,2,813,1258,1430,1159,1293,1369,1071,1306,1453
17924,32712,-9944,0,0,-849,242,-153,214,-297,443,-49,3917,-3,-1,813,1258,1430,1159,1293,1369,1071,1306,1453
18925,32708,-9940,0,0,-774,217,-152,213,-296,436,-59,3929,5,3,813,1258,1430,1159,1293,1369,1071,1306,1453
19926,32708,-9948,0,0,-799,292,-152,211,-297,420,-66,3934,-6,-2,809,1258,1430,1159,1293,1369,1071,1306,1453
20927,32712,-9952,0,0,-824,267,-153,209,-298,427,-36,3883,0,3,813,1258,1430,1159,1293,1369,1071,1306,1453
21928,32716,-9924,0,0,-824,67,-153,211,-299,449,-38,3886,-4,-6,813,1258,1430,1159,1293,1369,1071,1306,1453
22929,32700,-9932,0,0,-699,292,-153,212,-299,428,-42,3892,3,-3,812,1258,1430,1159,1293,1369,1071,1306,1453
23930,32712,-9948,0,0,-874,342,-155,212,-300,416,-55,3897,-3,2,813,1258,1430,1159,1293,1369,1071,1306,1453
24931,32696,-9944,0,0,-699,217,-155,211,-300,399,-41,3882,6,-4,813,1258,1430,1159,1293,1369,1071,1306,1453
25932,32716,-9944,0,0,-924,242,-153,212,-301,423,-42,3866,-7,5,813,1258,1430,1159,1293,1369,1071,1306,1453
26933,32700,-9944,0,0,-699,242,-153,209,-300,440,-53,3876,6,-5,813,1258,1430,1159,1293,1369,1071,1306,1453
27934,32704,-9940,0,0,-824,217,-154,211,-299,434,-46,3859,-8,4,813,1258,1430,1159,1293,1369,1071,1306,1453
28935,32708,-9944,0,0,-824,267,-153,212,-302,442,-52,3901,8,-7,813,1258,1430,1159,1293,1369,1071,1306,1453
29936,32712,-9948,0,0,-824,267,-153,213,-301,452,-45,3913,-7,6,812,1258,1430,1159,1293,1369,1071,1306,1453
30937,32704,-9936,0,0,-749,167,-153,214,-300,427,-51,3917,5,-7,812,1258,1430,1159,1293,1369,1071,1306,1453
31938,32712,-9936,0,0,-849,242,-153,213,-299,410,-66,3930,-6,4,813,1258,1430,1159,1293,1369,1071,1306,1453
32939,32712,-9944,0,0,-799,292,-153,212,-300,427,-55,3915,2,-3,813,1258,1430,1159,1293,1369,1071,1306,1453
33940,32712,-9944,0,0,-799,242,-152,211,-300,427,-49,3900,1,-5,813,1258,1430,1159,1293,1369,1071,1306,1453
34941,32700,-9952,0,0,-724,292,-152,210,-299,450,-66,3901,-4,6,813,1258,1430,1159,1293,1369,1071,1306,1453
35942,32704,-9944,0,0,-824,192,-151,210,-299,429,-56,3894,3,-3,813,1258,1430,1159,1293,1369,1071,1306,1453
36943,32712,-9940,0,0,-849,217,-151,210,-300,403,-63,3900,-8,-4,809,1258,1430,1159,1293,1369,1071,1306,1453
37944,32700,-9940,0,0,-724,242,-153,212,-298,401,-64,3878,6,7,813,1258,1430,1159,1293,1369,1071,1306,1453
38945,32708,-9944,0,0,-849,267,-154,211,-300,428,-47,3889,-5,-8,813,1258,1430,1159,1293,1369,1071,1306,1453
39946,32700,-9948,0,0,-749,267,-155,211,-303,428,-63,3919,5,2,813,1258,1430,1159,1293,1369,1071,1306,1453
40947,32700,-9936,0,0,-799,167,-153,211,-305,448,-54,3915,1,6,813,1258,1430,1159,1293,1369,1071,1306,1453
41948,32704,-9936,0,0,-824,242,-154,211,-302,448,-59,3914,-6,-7,813,1258,1430,1159,1293,1369,1071,1306,1453
42949,32712,-9936,0,0,-849,242,-153,210,-298,445,-60,3890,2,-2,813,1258,1430,1159,1293,1369,1071,1306,1453
43950,32712,-9944,0,0,-799,292,-154,211,-297,425,-43,3929,-8,4,813,1258,1430,1159,1293,1369,1071,1306,1453
44951,32712,-9940,0,0,-799,217,-155,209,-299,430,-33,3882,3,4,813,1258,1430,1159,1293,1369,1071,1306,1453
45952,32712,-9952,0,0,-799,317,-156,208,-300,447,-56,3882,-1,-6,813,1258,1430,1159,1293,1369,1071,1306,1453
46953,32712,-9944,0,0,-799,192,-153,211,-300,437,-73,3891,-7,-6,813,1258,1430,1159,1293,1369,1071,1306,1453
47954,32708,-9940,0,0,-774,217,-152,214,-300,408,-78,3909,6,7,813,1258,1430,1159,1293,1369,1071,1306,1453
48955,32708,-9948,0,0,-799,292,-152,215,-300,411,-66,3907,-5,-4,813,1258,1430,1159,1293,1369,1071,1306,1453
49956,32708,-9952,0,0,-799,267,-155,212,-298,440,-72,3910,-6,-8,813,1258,1430,1159,1293,1369,1071,1306,1453
50957,32712,-9952,0,0,-824,242,-154,211,-300,444,-47,3903,7,0,813,1258,1430,1159,1293,1369,1071,1306,1453
51958,32716,-9936,0,0,-824,142,-154,212,-299,441,-48,3866,-8,6,813,1258,1430,1159,1293,1369,1071,1306,1453
52959,32708,-9948,0,0,-749,317,-156,212,-300,441,-66,3896,4,-5,813,1258,1430,1159,1293,1369,1071,1306,1453
53960,32708,-9936,0,0,-799,167,-153,213,-300,459,-40,3902,2,1,809,1258,1430,1159,1293,1369,1071,1306,1453
54961,32716,-9940,0,0,-849,267,-152,214,-300,421,-40,3863,-6,-1,813,1258,1430,1159,1293,1369,1071,1306,1453
55962,32708,-9940,0,0,-749,242,-153,213,-300,434,-82,3869,7,-8,813,1258,1430,1159,1293,1369,1071,1306,1453
56963,32708,-9944,0,0,-799,267,-153,212,-299,417,-66,3854,-7,2,813,1258,1430,1159,1293,1369,1071,1306,1453
57964,32696,-9936,0,0,-724,192,-152,212,-297,411,-61,3909,7,1,813,1258,1430,1159,1293,1369,1071,1306,1453
58965,32708,-9944,0,0,-874,292,-153,214,-298,398,-59,3913,-9,-7,813,1258,1430,1159,1293,1369,1071,1306,1453
59966,32704,-9944,0,0,-774,242,-155,214,-299,425,-60,3913,4,0,812,1258,1430,1159,1293,1369,1071,1306,1453
60967,32700,-9948,0,0,-774,267,-155,212,-301,428,-76,3929,-5,4,813,1258,1430,1159,1293,1369,1071,1306,1453
61968,32716,-9936,0,0,-899,167,-154,212,-300,431,-77,3897,-4,-5,813,1258,1430,1159,1293,1369,1071,1306,1453
62969,32708,-9940,0,0,-749,267,-152,214,-300,424,-37,3895,7,-4,813,1258,1430,1159,1293,1369,1071,1306,1453
63970,32700,-9944,0,0,-749,267,-152,214,-299,453,-38,3912,-8,7,813,1258,1430,1159,1293,1369,1071,1306,1453
64971,32704,-9940,0,0,-824,217,-154,212,-299,462,-59,3899,3,-3,813,1258,1430,1159,1293,1369,1071,1306,1453
65972,32712,-9944,0,0,-849,267,-154,213,-301,452,-50,3901,5,-6,812,1258,1430,1159,1293,1369,1071,1306,1453
66973,32720,-9940,0,0,-849,217,-151,213,-301,417,-66,3902,-5,6,813,1258,1430,1159,1293,1369,1071,1306,1453
67974,32716,-9944,0,0,-774,267,-150,211,-300,429,-48,3911,8,6,813,1258,1430,1159,1293,1369,1071,1306,1453
68975,32704,-9948,0,0,-724,267,-151,209,-299,433,-42,3907,-4,-7,812,1258,1430,1159,1293,1369,1071,1306,1453
69976,32716,-9944,0,0,-874,217,-152,211,-298,443,-49,3907,3,4,813,1258,1430,1159,1293,1369,1071,1306,1453
70977,32716,-9956,0,0,-799,318,-151,214,-299,410,-70,3912,4,4,809,1258,1430,1159,1293,1369,1071,1306,1453
71978,32704,-9948,0,0,-724,192,-152,213,-299,427,-49,3908,-9,-5,813,1258,1430,1159,1293,1369,1071,1306,1453
72979,32728,-9956,0,0,-950,293,-151,212,-298,433,-50,3879,8,5,813,1258,1430,1159,1293,1369,1071,1306,1453
73980,32708,-9936,0,0,-674,117,-150,212,-298,404,-36,3869,-8,-6,813,1258,1430,1159,1293,1369,1071,1306,1453
74981,32712,-9956,0,0,-824,368,-151,212,-301,426,-50,3877,7,0,813,1258,1430,1159,1293,1369,1071,1306,1453
75982,32712,-9944,0,0,-799,167,-152,212,-301,463,-58,3882,-7,2,813,1258,1430,1159,1293,1369,1071,1306,1453
76983,32704,-9952,0,0,-749,292,-151,210,-299,462,-64,3921,3,-8,813,1258,1430,1159,1293,1369,1071,1306,1453
77984,32712,-9956,0,0,-849,268,-152,211,-298,443,-65,3898,5,7,813,1258,1430,1159,1293,1369,1071,1306,1453
78985,32700,-9944,0,0,-724,167,-152,210,-297,430,-61,3905,-5,-8,813,1258,1430,1159,1293,1369,1071,1306,1453
79986,32704,-9944,0,0,-824,242,-154,210,-297,431,-49,3869,8,-3,813,1258,1430,1159,1293,1369,1071,1306,1453
80987,32720,-9948,0,0,-899,267,-153,211,-298,424,-62,3890,-8,3,813,1258,1430,1159,1293,1369,1071,1306,1453
81988,32700,-9952,0,0,-674,267,-151,213,-298,430,-52,3876,5,-6,813,1258,1430,1159,1293,1369,1071,1306,1453
82989,32712,-9936,0,0,-874,142,-150,211,-298,422,-58,3897,3,6,813,1258,1430,1159,1293,1369,1071,1306,1453
83990,32712,-9948,0,0,-799,317,-151,211,-299,417,-44,3898,-8,-5,813,1258,1430,1159,1293,1369,1071,1306,1453
84991,32712,-9944,0,0,-799,217,-153,213,-300,422,-53,3865,6,4,813,1258,1430,1159,1293,1369,1071,1306,1453
85992,32708,-9936,0,0,-774,192,-153,211,-298,419,-74,3882,3,-2,813,1258,1430,1159,1293,1369,1071,1306,1453
86993,32712,-9940,0,0,-824,267,-150,211,-299,415,-55,3900,-8,0,812,1258,1430,1159,1293,1369,1071,1306,1453
87994,32720,-9944,0,0,-849,267,-153,211,-300,433,-71,3908,7,-3,809,1258,1430,1159,1293,1369,1071,1306,1453
88995,32712,-9936,0,0,-749,192,-153,210,-299,450,-68,3915,-3,2,813,1258,1430,1159,1293,1369,1071,1306,1453
89996,32692,-9940,0,0,-674,267,-153,211,-299,435,-61,3911,-5,-2,813,1258,1430,1159,1293,1369,1071,1306,1453
90997,32712,-9936,0,0,-924,217,-154,212,-301,441,-67,3874,5,0,813,1258,1430,1159,1293,1369,1071,1306,1453
91998,32704,-9948,0,0,-749,317,-155,215,-299,442,-57,3892,-8,3,813,1258,1430,1159,1293,1369,1071,1306,1453
92999,32704,-9940,0,0,-799,192,-153,212,-299,435,-41,3863,5,-3,813,1258,1430,1159,1293,1369,1071,1306,1453
94000,32708,-9940,0,0,-824,242,-152,212,-298,436,-49,3872,-6,3,813,1258,1430,1159,1293,1369,1071,1306,1453
95001,32708,-9936,0,0,-799,217,-154,213,-297,442,-81,3922,-2,-8,813,1258,1430,1159,1293,1369,1071,1306,1453
96002,32716,-9928,0,0,-849,192,-156,213,-300,435,-81,3928,7,7,813,1258,1430,1159,1293,1369,1071,1306,1453
97003,32716,-9940,0,0,-799,317,-153,213,-301,431,-57,3887,-8,-7,813,1258,1430,1159,1293,1369,1071,1306,1453
98004,32720,-9944,0,0,-824,267,-150,212,-302,433,-49,3864,5,6,813,1258,1430,1159,1293,1369,1071,1306,1453
99020,32724,-9944,0,0,-824,242,-150,210,-303,425,-54,3892,-2,-7,813,1258,1430,1159,1293,1369,1071,1306,1453
100006,32708,-9944,6,6,-693,248,-151,213,-301,437,-52,3899,2,3,813,1258,1430,1159,1293,1369,1071,1306,1453
101007,32704,-9948,12,12,-768,274,-152,212,-301,436,-43,3899,3,6,801,1258,1430,1159,1293,1369,1071,1306,1453
102008,32712,-9944,18,18,-843,224,-152,212,-298,422,-52,3900,1,4,799,1258,1430,1159,1293,1369,1071,1306,1453
103009,32704,-9936,24,24,-742,199,-153,213,-297,432,-53,3933,0,-4,798,1258,1430,1159,1293,1369,1071,1306,1453
104010,32696,-9948,30,30,-742,324,-155,211,-301,434,-41,3931,-11,-8,800,1258,1430,1159,1293,1369,1071,1306,1453
105011,32668,-9940,36,36,-616,199,-161,209,-302,423,-25,3930,-12,-3,794,1258,1430,1159,1293,1369,1071,1306,1453
106012,32572,-9936,42,42,-189,224,-158,204,-302,395,26,3799,-8,0,803,1258,1430,1159,1293,1369,1071,1306,1453
107013,32508,-9944,48,48,-387,299,-160,153,-310,312,108,3675,-21,-6,808,1258,1430,1159,1293,1369,1071,1306,1453
108014,32416,-9940,54,54,-210,224,-144,160,-318,316,-109,3759,-9,0,805,1258,1430,1159,1293,1369,1071,1306,1453
109015,32344,-9944,60,60,-333,275,-141,137,-325,432,57,3748,-11,-1,808,1258,1430,1159,1293,1369,1071,1306,1453
110016,32252,-9936,66,66,-205,200,-124,159,-337,431,-38,3938,-10,-1,806,1258,1430,1159,1293,1369,1071,1306,1453
111017,32180,-9960,72,72,-328,400,-109,143,-352,359,26,3861,-7,5,809,1258,1430,1159,1293,1369,1071,1306,1453
112018,32112,-9960,78,78,-352,251,-93,125,-367,382,35,3854,-14,5,804,1258,1430,1159,1293,1369,1071,1306,1453
113019,32052,-9940,84,84,-400,125,-71,108,-373,400,-35,3864,-5,-9,806,1258,1430,1159,1293,1369,1071,1306,1453
114020,31984,-9940,90,90,-348,250,-51,126,-372,482,-41,4062,-5,-7,807,1258,1430,1159,1293,1369,1071,1306,1453
115021,31916,-9948,96,96,-346,301,-49,147,-377,539,14,4056,-8,-5,806,1258,1430,1159,1293,1369,1071,1306,1453
116022,31856,-9956,102,102,-395,301,-58,143,-379,462,112,3893,-4,4,806,1258,1430,1159,1293,1369,1071,1306,1453
117023,31800,-9956,108,108,-418,251,-77,141,-371,368,-89,3891,-4,-3,805,1258,1430,1159,1293,1369,1071,1306,1453
118024,31768,-9960,114,114,-567,276,-81,144,-368,361,-24,3873,-2,5,805,1258,1430,1159,1293,1369,1071,1306,1453
119025,31704,-9948,120,120,-366,176,-92,143,-368,428,-58,3835,-3,5,802,1258,1430,1159,1293,1369,1071,1306,1453
120026,31668,-9956,126,126,-540,302,-104,122,-365,472,-26,3817,-4,2,807,1258,1430,1159,1293,1369,1071,1306,1453
121027,31640,-9956,132,132,-589,252,-121,125,-362,463,-61,3900,0,-7,802,1258,1430,1159,1293,1369,1071,1306,1453
122028,31604,-9952,138,138,-538,227,-118,137,-369,412,-85,3829,0,-10,798,1258,1430,1159,1293,1369,1071,1306,1453
123029,31560,-9964,144,144,-486,327,-102,148,-377,492,-140,3902,-12,-3,803,1258,1430,1159,1293,1369,1071,1306,1453
124030,31532,-9952,150,150,-586,177,-86,150,-381,564,-94,3932,-10,5,803,1258,1430,1159,1293,1369,1071,1306,1453
125031,31504,-9956,156,156,-585,277,-78,155,-387,469,-212,3935,-6,1,803,1258,1430,1159,1293,1369,1071,1306,1453
126032,31476,-9960,162,162,-584,278,-66,153,-397,403,-188,3854,-2,-10,802,1258,1430,1159,1293,1369,1071,1306,1453
127033,31444,-9952,168,168,-558,203,-54,150,-406,385,-156,3838,-13,2,802,1258,1430,1159,1293,1369,1071,1306,1453
128034,31424,-9956,174,174,-632,278,-44,146,-412,378,-180,3850,1,3,803,1258,1430,1159,1293,1369,1071,1306,1453
129035,31396,-9952,180,180,-582,228,-49,136,-413,398,-143,3835,-13,-2,801,1258,1430,1159,1293,1369,1071,1306,1453
130036,31368,-9952,186,186,-581,253,-63,133,-407,388,-149,3904,-14,-3,803,1258,1430,1159,1293,1369,1071,1306,1453
131037,31344,-9964,192,192,-605,328,-79,126,-403,444,-114,3921,1,4,802,1258,1430,1159,1293,1369,1071,1306,1453
132038,31316,-9956,198,198,-579,203,-95,130,-395,334,-92,3946,-14,0,801,1258,1430,1159,1293,1369,1071,1306,1453
133039,31300,-9952,204,204,-654,228,-108,144,-385,362,-85,3960,1,4,803,1258,1430,1159,1293,1369,1071,1306,1453
134040,31260,-9956,210,210,-503,279,-121,163,-368,495,-100,3981,-5,-3,801,1258,1430,1159,1293,1369,1071,1306,1453
135041,31240,-9960,216,216,-627,279,-144,173,-358,538,-93,4025,-14,4,803,1258,1430,1159,1293,1369,1071,1306,1453
136042,31212,-9952,222,222,-576,204,-164,169,-355,431,-30,4030,-7,4,800,1258,1430,1159,1293,1369,1071,1306,1453
137043,31196,-9952,228,228,-651,254,-173,195,-352,425,-154,4137,3,1,803,1258,1430,1159,1293,1369,1071,1306,1453
138044,31184,-9952,234,234,-675,254,-162,223,-343,544,-125,3887,-11,4,801,1258,1430,1159,1293,1369,1071,1306,1453
139045,31192,-9964,240,240,-800,330,-148,231,-336,414,-127,3983,-3,-2,797,1258,1430,1159,1293,1369,1071,1306,1453
140046,31188,-9960,246,246,-725,230,-140,220,-342,409,-110,3993,6,-10,797,1258,1430,1159,1293,1369,1071,1306,1453
141047,31168,-9968,252,252,-624,305,-142,218,-339,509,-80,4035,-6,1,800,1258,1430,1159,1293,1369,1071,1306,1453
142048,31184,-9952,258,258,-850,155,-146,211,-332,538,-100,3919,-4,-1,801,1258,1430,1159,1293,1369,1071,1306,1453
143049,31196,-9960,264,264,-825,305,-142,208,-326,439,-73,3924,-5,5,798,1258,1430,1159,1293,1369,1071,1306,1453
144050,31184,-9960,270,270,-674,255,-140,215,-323,413,-87,3917,0,-5,797,1258,1430,1159,1293,1369,1071,1306,1453
145051,31176,-9964,276,276,-699,281,-141,223,-320,451,10,3896,5,-6,800,1258,1430,1159,1293,1369,1071,1306,1453
146052,31176,-9972,282,282,-749,306,-147,224,-317,502,37,3882,6,-1,800,1258,1430,1159,1293,1369,1071,1306,1453
147053,31180,-9956,288,288,-774,156,-157,225,-312,548,16,3936,-2,1,798,1258,1430,1159,1293,1369,1071,1306,1453
148054,31176,-9960,294,294,-723,281,-172,235,-303,558,70,3945,6,-9,799,1258,1430,1159,1293,1369,1071,1306,1453
149055,31168,-9968,300,300,-698,306,-180,245,-299,519,89,3919,-9,-8,799,1258,1430,1159,1293,1369,1071,1306,1453
150056,31164,-9956,306,306,-723,181,-179,258,-301,515,92,3916,-10,5,799,1258,1430,1159,1293,1369,1071,1306,1453
151057,31172,-9956,312,312,-798,256,-170,264,-300,516,66,3914,-6,4,800,1258,1430,1159,1293,1369,1071,1306,1453
152058,31172,-9964,318,318,-748,307,-163,262,-295,467,39,3908,-4,-10,798,1258,1430,1159,1293,1369,1071,1306,1453
153059,31168,-9952,324,324,-723,181,-160,259,-289,458,31,3899,6,-8,798,1258,1430,1159,1293,1369,1071,1306,1453
154060,31168,-9960,330,330,-747,307,-156,249,-288,440,29,3868,5,4,800,1258,1430,1159,1293,1369,1071,1306,1453
155061,31156,-9952,336,336,-672,207,-146,236,-287,387,37,3818,-6,-10,798,1258,1430,1159,1293,1369,1071,1306,1453
156062,31156,-9960,342,342,-747,307,-133,227,-285,396,-4,3805,4,-9,797,1258,1430,1159,1293,1369,1071,1306,1453
157063,31156,-9960,348,348,-747,257,-123,218,-282,454,3,3808,7,-2,798,1258,1430,1159,1293,1369,1071,1306,1453
158064,31164,-9960,354,354,-797,257,-118,214,-281,474,-10,3810,-5,0,799,1258,1430,1159,1293,1369,1071,1306,1453
159065,31168,-9960,360,360,-772,257,-118,216,-279,449,11,3826,-6,-6,798,1258,1430,1159,1293,1369,1071,1306,1453
160066,31160,-9960,366,366,-696,258,-120,214,-278,484,0,3810,6,-10,798,1258,1430,1159,1293,1369,1071,1306,1453
161067,31160,-9964,372,372,-746,283,-123,213,-277,488,-32,3821,-4,-7,799,1258,1430,1159,1293,1369,1071,1306,1453
162068,31152,-9964,378,378,-696,258,-130,213,-276,478,-6,3821,-10,-2,799,1258,1430,1159,1293,1369,1071,1306,1453
163069,31148,-9960,384,384,-721,233,-138,216,-273,461,-23,3825,-10,-10,800,1258,1430,1159,1293,1369,1071,1306,1453
164070,31140,-9964,390,390,-695,283,-144,221,-277,457,-20,3788,1,-10,800,1258,1430,1159,1293,1369,1071,1306,1453
165071,31144,-9964,396,396,-770,258,-149,220,-281,446,-10,3775,-3,1,799,1258,1430,1159,1293,1369,1071,1306,1453
166072,31148,-9952,402,402,-770,183,-152,214,-280,423,-41,3814,-9,4,799,1258,1430,1159,1293,1369,1071,1306,1453
167073,31148,-9960,408,408,-745,309,-152,208,-283,399,-34,3832,-10,-4,799,1258,1430,1159,1293,1369,1071,1306,1453
168074,31136,-9952,414,414,-670,209,-152,201,-287,396,-55,3847,-9,-10,798,1258,1430,1159,1293,1369,1071,1306,1453
169075,31132,-9956,420,420,-719,284,-152,196,-288,367,-64,3836,4,1,801,1258,1430,1159,1293,1369,1071,1306,1453
170076,31124,-9960,426,426,-694,284,-149,188,-289,369,-87,3842,2,4,799,1258,1430,1159,1293,1369,1071,1306,1453
171077,31132,-9956,432,432,-794,234,-144,184,-293,351,-70,3884,-3,-1,799,1258,1430,1159,1293,1369,1071,1306,1453
172078,31128,-9956,438,438,-719,259,-143,183,-293,363,-69,3880,6,4,798,1258,1430,1159,1293,1369,1071,1306,1453
173079,31128,-9960,444,444,-744,285,-143,185,-292,407,-41,3897,3,4,796,1258,1430,1159,1293,1369,1071,1306,1453
174080,31120,-9952,450,450,-693,209,-146,188,-295,376,-36,3919,-6,-6,798,1258,1430,1159,1293,1369,1071,1306,1453
175081,31108,-9968,456,456,-668,360,-150,188,-296,396,-49,3954,2,4,801,1258,1430,1159,1293,1369,1071,1306,1453
176082,31112,-9960,462,462,-768,210,-158,191,-295,396,-72,3959,-10,-8,799,1258,1430,1159,1293,1369,1071,1306,1453
177083,31104,-9964,468,468,-692,285,-164,198,-294,374,-47,3975,6,5,799,1258,1430,1159,1293,1369,1071,1306,1453
178084,31108,-9956,474,474,-767,210,-167,209,-297,392,-68,3972,-10,4,799,1258,1430,1159,1293,1369,1071,1306,1453
179085,31092,-9956,480,480,-642,260,-173,216,-300,409,-17,3950,2,-9,799,1258,1430,1159,1293,1369,1071,1306,1453
180086,31096,-9956,486,486,-767,260,-177,215,-302,391,-50,3967,-10,1,801,1258,1430,1159,1293,1369,1071,1306,1453
181087,31096,-9956,492,492,-742,261,-183,207,-304,399,-60,3919,6,-5,799,1258,1430,1159,1293,1369,1071,1306,1453
182088,31084,-9960,498,498,-666,286,-186,203,-308,374,-58,3962,-9,-5,799,1258,1430,1159,1293,1369,1071,1306,1453
183089,31080,-9956,504,504,-716,236,-186,201,-310,377,-96,3933,3,-10,800,1258,1430,1159,1293,1369,1071,1306,1453
184090,31088,-9956,510,510,-791,261,-184,197,-311,370,-49,3932,6,4,800,1258,1430,1159,1293,1369,1071,1306,1453
185091,31080,-9968,516,516,-691,336,-185,199,-317,408,-107,3952,5,4,798,1258,1430,1159,1293,1369,1071,1306,1453
186092,31076,-9952,522,522,-715,161,-185,199,-322,403,-55,3978,-7,-1,799,1258,1430,1159,1293,1369,1071,1306,1453
187093,31072,-9968,528,528,-715,362,-180,198,-322,440,-56,3991,-10,-10,801,1258,1430,1159,1293,1369,1071,1306,1453
188094,31076,-9968,534,534,-765,262,-178,199,-323,422,-60,3964,3,-10,798,1258,1430,1159,1293,1369,1071,1306,1453
189095,31068,-9964,540,540,-690,237,-176,201,-323,449,-94,3929,4,-6,799,1258,1430,1159,1293,1369,1071,1306,1453
190096,31068,-9960,546,546,-740,237,-175,204,-322,460,-87,3959,-5,-9,796,1258,1430,1159,1293,1369,1071,1306,1453
191097,31036,-9960,552,552,-539,262,-174,207,-322,438,-54,3940,-7,5,799,1258,1430,1159,1293,1369,1071,1306,1453
192098,31040,-9952,558,558,-764,212,-177,210,-323,449,-26,3937,-5,4,803,1258,1430,1159,1293,1369,1071,1306,1453
193099,31036,-9956,564,564,-713,287,-177,210,-320,472,-62,3909,-8,2,799,1258,1430,1159,1293,1369,1071,1306,1453
194100,31036,-9960,570,570,-738,288,-176,210,-317,441,-71,3954,-4,-2,799,1258,1430,1159,1293,1369,1071,1306,1453
195101,31020,-9960,576,576,-638,263,-175,208,-313,413,-72,3900,3,4,799,1258,1430,1159,1293,1369,1071,1306,1453
196102,31016,-9964,582,582,-713,288,-171,204,-312,422,-26,3872,-6,-3,801,1258,1430,1159,1293,1369,1071,1306,1453
197103,31012,-9964,588,588,-712,263,-169,203,-312,412,-80,3844,5,3,799,1258,1430,1159,1293,1369,1071,1306,1453
198104,30992,-9960,594,594,-612,238,-166,202,-313,420,-57,3892,-11,2,799,1258,1430,1159,1293,1369,1071,1306,1453
199105,30988,-9952,600,600,-711,213,-161,200,-312,429,-97,3867,-7,4,802,1258,1430,1159,1293,1369,1071,1306,1453
200106,30984,-9952,606,606,-711,263,-154,197,-314,450,-54,3891,3,-3,801,1258,1430,1159,1293,1369,1071,1306,1453
201107,30976,-9960,612,612,-686,314,-146,199,-316,474,-108,3861,-6,1,800,1258,1430,1159,1293,1369,1071,1306,1453
202108,30972,-9964,618,618,-711,289,-141,201,-314,502,-97,3833,-9,2,799,1258,1430,1159,1293,1369,1071,1306,1453
203109,30964,-9960,624,624,-685,239,-138,202,-316,485,-83,3865,-10,-2,799,1258,1430,1159,1293,1369,1071,1306,1453
204110,30956,-9952,630,630,-685,214,-133,202,-317,464,-94,3847,3,-4,801,1258,1430,1159,1293,1369,1071,1306,1453
205111,30956,-9964,636,636,-735,339,-131,204,-314,471,-68,3852,1,0,801,1258,1430,1159,1293,1369,1071,1306,1453
206112,30948,-9968,642,642,-684,290,-129,207,-313,493,-92,3884,2,-10,798,1258,1430,1159,1293,1369,1071,1306,1453
207113,30940,-9956,648,648,-684,189,-129,210,-311,476,-118,3897,1,-10,795,1258,1430,1159,1293,1369,1071,1306,1453
208114,30948,-9968,654,654,-784,340,-127,209,-309,417,-73,3871,6,2,801,1258,1430,1159,1293,1369,1071,1306,1453
209115,30944,-9960,660,660,-709,215,-127,208,-306,447,-64,3849,2,2,797,1258,1430,1159,1293,1369,1071,1306,1453
210116,30932,-9968,666,666,-658,315,-128,210,-303,470,-57,3854,-9,-3,799,1258,1430,1159,1293,1369,1071,1306,1453
211117,30940,-9960,672,672,-783,215,-129,208,-299,446,-60,3871,5,4,799,1258,1430,1159,1293,1369,1071,1306,1453
212118,30936,-9964,678,678,-708,290,-126,205,-297,402,-63,3904,4,-4,799,1258,1430,1159,1293,1369,1071,1306,1453
213119,30944,-9952,684,684,-783,190,-126,204,-296,450,-67,3883,-10,-6,799,1258,1430,1159,1293,1369,1071,1306,1453
214120,30940,-9968,690,690,-708,366,-126,204,-302,483,-62,3884,-8,3,799,1258,1430,1159,1293,1369,1071,1306,1453
215121,30936,-9964,696,696,-708,241,-128,208,-300,456,-70,3898,-9,-8,798,1258,1430,1159,1293,1369,1071,1306,1453
216122,30944,-9964,702,702,-783,266,-126,211,-300,467,-51,3873,-9,4,799,1258,1430,1159,1293,1369,1071,1306,1453
217123,30940,-9956,708,708,-708,216,-122,214,-301,509,-46,3918,-8,4,798,1258,1430,1159,1293,1369,1071,1306,1453
218124,30936,-9948,714,714,-707,216,-123,220,-301,495,-68,3931,-8,2,799,1258,1430,1159,1293,1369,1071,1306,1453
219125,30944,-9956,720,720,-782,316,-126,223,-302,453,-43,3968,-8,2,800,1258,1430,1159,1293,1369,1071,1306,1453
220126,30936,-9964,726,726,-682,316,-125,225,-299,452,-63,3919,2,-7,798,1258,1430,1159,1293,1369,1071,1306,1453
221127,30948,-9952,732,732,-807,191,-126,229,-300,465,-52,3885,4,1,799,1258,1430,1159,1293,1369,1071,1306,1453
222128,30932,-9944,738,738,-632,216,-126,229,-301,469,-42,3906,-5,0,798,1258,1430,1159,1293,1369,1071,1306,1453
223129,30936,-9968,744,744,-757,417,-128,225,-298,466,-45,3920,-1,-5,801,1258,1430,1159,1293,1369,1071,1306,1453
224130,30940,-9960,750,750,-757,217,-133,223,-299,443,-36,3924,6,1,792,1258,1430,1159,1293,1369,1071,1306,1453
225131,30924,-9960,756,756,-631,267,-139,222,-298,447,-70,3977,7,-9,798,1258,1430,1159,1293,1369,1071,1306,1453
226132,30932,-9948,762,762,-781,192,-142,218,-297,417,-42,3927,1,0,800,1258,1430,1159,1293,1369,1071,1306,1453
227133,30940,-9960,768,768,-781,342,-144,219,-296,452,19,3953,3,2,799,1258,1430,1159,1293,1369,1071,1306,1453
228134,30936,-9956,774,774,-706,242,-148,220,-296,495,-30,3903,-4,3,797,1258,1430,1159,1293,1369,1071,1306,1453
229135,30936,-9964,780,780,-731,318,-151,217,-297,486,41,3870,-9,-8,799,1258,1430,1159,1293,1369,1071,1306,1453
230136,30928,-9960,786,786,-680,243,-153,219,-301,432,-22,3902,-9,4,798,1258,1430,1159,1293,1369,1071,1306,1453
231137,30940,-9952,792,792,-806,218,-153,222,-303,430,-13,3895,-10,3,799,1258,1430,1159,1293,1369,1071,1306,1453
232138,30940,-9948,798,798,-730,243,-152,219,-306,483,21,3901,5,-1,798,1258,1430,1159,1293,1369,1071,1306,1453
233139,30936,-9960,804,804,-705,343,-154,220,-305,463,-38,3911,-10,-1,799,1258,1430,1159,1293,1369,1071,1306,1453
234140,30940,-9952,810,810,-755,218,-154,220,-306,410,11,3904,-7,1,798,1258,1430,1159,1293,1369,1071,1306,1453
235141,30936,-9952,816,816,-705,268,-152,220,-309,405,-54,3876,-2,-10,799,1258,1430,1159,1293,1369,1071,1306,1453
236142,30944,-9956,822,822,-780,294,-151,216,-308,417,-5,3886,-4,-2,799,1258,1430,1159,1293,1369,1071,1306,1453
237143,30940,-9952,828,828,-705,244,-153,212,-307,441,-14,3883,-9,0,798,1258,1430,1159,1293,1369,1071,1306,1453
238144,30936,-9956,834,834,-704,294,-155,211,-307,421,-59,3867,-10,-1,799,1258,1430,1159,1293,1369,1071,1306,1453
239145,30928,-9956,840,840,-679,269,-157,211,-308,382,-18,3846,-9,-8,799,1258,1430,1159,1293,1369,1071,1306,1453
240146,30936,-9956,846,846,-779,269,-160,213,-306,404,-31,3864,-9,4,799,1258,1430,1159,1293,1369,1071,1306,1453
241147,30928,-9960,852,852,-679,294,-160,210,-305,418,-15,3878,1,-4,795,1258,1430,1159,1293,1369,1071,1306,1453
242148,30948,-9956,858,858,-854,245,-161,209,-304,408,-14,3869,-8,-10,799,1258,1430,1159,1293,1369,1071,1306,1453
243149,30924,-9964,864,864,-578,320,-160,211,-305,393,-23,3866,0,-5,797,1258,1430,1159,1293,1369,1071,1306,1453
244150,30932,-9952,870,870,-778,195,-162,213,-308,408,-33,3887,6,3,800,1258,1430,1159,1293,1369,1071,1306,1453
245151,30940,-9956,876,876,-778,295,-163,211,-310,418,-9,3869,7,4,799,1258,1430,1159,1293,1369,1071,1306,1453
246152,30928,-9956,882,882,-653,270,-163,211,-310,395,-60,3904,-8,-6,797,1258,1430,1159,1293,1369,1071,1306,1453
247153,30940,-9956,888,888,-803,270,-164,211,-306,378,-56,3870,-10,-1,799,1258,1430,1159,1293,1369,1071,1306,1453
248154,30940,-9960,894,894,-728,295,-163,209,-306,407,-19,3899,6,-2,797,1258,1430,1159,1293,1369,1071,1306,1453
249155,30936,-9964,900,900,-703,296,-161,210,-305,400,-124,3884,-8,-11,798,1258,1430,1159,1293,1369,1071,1306,1453
250156,30932,-9952,906,906,-703,196,-162,205,-302,397,-3,3893,-2,-6,799,1258,1430,1159,1293,1369,1071,1306,1453
251157,30944,-9952,912,912,-803,271,-161,198,-300,443,-82,3902,-2,3,800,1258,1430,1159,1293,1369,1071,1306,1453
252158,30928,-9944,918,918,-627,221,-160,195,-302,404,-43,3877,-9,4,797,1258,1430,1159,1293,1369,1071,1306,1453
253159,30928,-9948,924,924,-727,296,-160,197,-299,386,-17,3860,1,0,801,1258,1430,1159,1293,1369,1071,1306,1453
254160,30928,-9968,930,930,-727,397,-163,199,-295,394,-47,3857,5,4,798,1258,1430,1159,1293,1369,1071,1306,1453
255161,30932,-9948,936,936,-752,146,-163,201,-295,386,-36,3922,-6,-2,797,1258,1430,1159,1293,1369,1071,1306,1453
256162,30936,-9956,942,942,-752,322,-162,199,-296,451,-26,3894,-10,-9,799,1258,1430,1159,1293,1369,1071,1306,1453
257163,30936,-9956,948,948,-727,272,-163,196,-294,445,-15,3896,5,-7,798,1258,1430,1159,1293,1369,1071,1306,1453
258164,30928,-9952,954,954,-676,247,-165,200,-293,409,-32,3924,-10,2,794,1258,1430,1159,1293,1369,1071,1306,1453
259165,30936,-9964,960,960,-776,347,-165,204,-293,437,-9,3905,0,3,799,1258,1430,1159,1293,1369,1071,1306,1453
260166,30940,-9952,966,966,-751,197,-164,205,-293,419,-55,3890,4,-3,797,1258,1430,1159,1293,1369,1071,1306,1453
261167,30928,-9960,972,972,-651,322,-163,206,-294,427,-9,3957,-10,-10,799,1258,1430,1159,1293,1369,1071,1306,1453
262168,30932,-9956,978,978,-751,247,-161,205,-293,450,-41,3932,1,4,799,1258,1430,1159,1293,1369,1071,1306,1453
263169,30932,-9956,984,984,-726,273,-161,206,-294,423,-39,3931,4,3,799,1258,1430,1159,1293,1369,1071,1306,1453
264170,30936,-9948,990,990,-751,223,-158,206,-293,435,-43,3921,-5,3,799,1258,1430,1159,1293,1369,1071,1306,1453
265171,30932,-9952,996,996,-700,298,-158,204,-291,446,-48,3872,3,-2,799,1258,1430,1159,1293,1369,1071,1306,1453
266172,30936,-9956,1002,1002,-750,298,-158,203,-293,447,-78,3958,0,3,799,1258,1430,1159,1293,1369,1071,1306,1453
267173,30916,-9948,1008,1008,-600,223,-158,202,-295,469,-71,3938,5,1,798,1258,1430,1159,1293,1369,1071,1306,1453
268174,30920,-9952,1014,1014,-750,298,-159,203,-291,451,-62,3944,-9,2,801,1258,1430,1159,1293,1369,1071,1306,1453
269175,30936,-9948,1020,1020,-825,248,-160,204,-287,453,-67,3935,-4,-10,799,1258,1430,1159,1293,1369,1071,1306,1453
270176,30940,-9968,1026,1026,-750,399,-162,207,-289,466,-49,3961,-10,3,797,1258,1430,1159,1293,1369,1071,1306,1453
271177,30924,-9964,1032,1032,-624,249,-162,205,-290,485,-32,3900,-6,-10,796,1258,1430,1159,1293,1369,1071,1306,1453
272178,30932,-9952,1038,1038,-774,199,-165,206,-291,477,-25,3905,-5,1,799,1258,1430,1159,1293,1369,1071,1306,1453
273179,30924,-9944,1044,1044,-674,224,-163,207,-291,499,-85,3902,-7,1,799,1258,1430,1159,1293,1369,1071,1306,1453
274180,30916,-9964,1050,1050,-674,399,-163,207,-292,478,-100,3928,6,-7,800,1258,1430,1159,1293,1369,1071,1306,1453
275181,30912,-9952,1056,1056,-698,199,-161,213,-291,481,-36,3900,2,-9,794,1258,1430,1159,1293,1369,1071,1306,1453
276182,30928,-9944,1062,1062,-824,224,-160,214,-293,457,-70,3887,-9,5,799,1258,1430,1159,1293,1369,1071,1306,1453
277183,30932,-9952,1068,1068,-749,325,-157,210,-296,414,-69,3870,-10,-7,798,1258,1430,1159,1293,1369,1071,1306,1453
278184,30932,-9944,1074,1074,-723,224,-157,208,-297,475,-33,3881,4,-8,797,1258,1430,1159,1293,1369,1071,1306,1453
279185,30928,-9936,1080,1080,-698,224,-157,208,-295,490,-88,3852,-2,-6,799,1258,1430,1159,1293,1369,1071,1306,1453
280186,30936,-9956,1086,1086,-773,400,-156,208,-298,438,-93,3880,2,-6,800,1258,1430,1159,1293,1369,1071,1306,1453
281187,30928,-9952,1092,1092,-673,250,-154,212,-303,405,-79,3864,-9,-9,796,1258,1430,1159,1293,1369,1071,1306,1453
282188,30928,-9944,1098,1098,-723,225,-154,212,-301,442,-53,3854,7,-4,799,1258,1430,1159,1293,1369,1071,1306,1453
283189,30924,-9952,1104,1104,-698,325,-152,210,-300,477,-91,3872,-5,-9,799,1258,1430,1159,1293,1369,1071,1306,1453
284190,30940,-9960,1110,1110,-823,326,-153,214,-303,455,-59,3909,-9,4,798,1258,1430,1159,1293,1369,1071,1306,1453
285191,30940,-9944,1116,1116,-723,176,-154,216,-301,484,-66,3865,-4,-10,796,1258,1430,1159,1293,1369,1071,1306,1453
286192,30924,-9952,1122,1122,-622,326,-154,217,-299,490,-83,3832,-8,-10,799,1258,1430,1159,1293,1369,1071,1306,1453
287193,30924,-9956,1128,1128,-722,301,-151,218,-303,430,-33,3857,-7,1,799,1258,1430,1159,1293,1369,1071,1306,1453
288194,30916,-9952,1134,1134,-672,251,-153,221,-303,464,-49,3883,-2,4,799,1258,1430,1159,1293,1369,1071,1306,1453
289195,30928,-9952,1140,1140,-797,276,-151,223,-303,498,-72,3888,5,4,799,1258,1430,1159,1293,1369,1071,1306,1453
290196,30932,-9952,1146,1146,-747,276,-149,220,-306,477,-38,3912,-5,4,798,1258,1430,1159,1293,1369,1071,1306,1453
291197,30920,-9952,1152,1152,-646,277,-148,220,-308,410,-73,3886,3,0,798,1258,1430,1159,1293,1369,1071,1306,1453
292198,30928,-9940,1158,1158,-771,201,-145,216,-309,470,-119,3847,-2,2,796,1258,1430,1159,1293,1369,1071,1306,1453
293199,30924,-9952,1164,1164,-696,352,-144,215,-307,450,-56,3905,-10,-6,799,1258,1430,1159,1293,1369,1071,1306,1453
294200,30916,-9944,1170,1170,-671,227,-143,216,-307,417,-42,3922,5,3,798,1258,1430,1159,1293,1369,1071,1306,1453
295201,30924,-9940,1176,1176,-771,252,-144,215,-310,433,-18,3910,5,-5,800,1258,1430,1159,1293,1369,1071,1306,1453
296202,30924,-9944,1182,1182,-721,302,-140,213,-313,437,-74,3927,-9,-4,799,1258,1430,1159,1293,1369,1071,1306,1453
297203,30928,-9952,1188,1188,-746,327,-139,216,-313,405,-71,3914,-7,-2,798,1258,1430,1159,1293,1369,1071,1306,1453
298204,30928,-9952,1194,1194,-720,278,-141,218,-311,430,-43,3936,-6,-1,797,1258,1430,1159,1293,1369,1071,1306,1453
299205,30928,-9948,1200,1200,-720,253,-143,218,-310,428,-84,3907,-3,1,798,1258,1430,1159,1293,1369,1071,1306,1453
300206,30924,-9948,1206,1206,-695,278,-144,218,-309,377,-6,3889,-3,4,799,1258,1430,1159,1293,1369,1071,1306,1453
301207,30936,-9948,1212,1212,-795,278,-144,218,-310,459,-38,3941,-4,3,799,1258,1430,1159,1293,1369,1071,1306,1453
302208,30928,-9940,1218,1218,-670,228,-144,218,-307,428,-36,3941,-9,1,798,1258,1430,1159,1293,1369,1071,1306,1453
303209,30924,-9948,1224,1224,-695,328,-143,219,-306,398,-37,3911,6,4,799,1258,1430,1159,1293,1369,1071,1306,1453
304210,30928,-9948,1230,1230,-745,278,-143,218,-306,410,-57,3933,6,1,799,1258,1430,1159,1293,1369,1071,1306,1453
305211,30936,-9948,1236,1236,-770,279,-144,214,-307,401,-57,3930,-3,3,798,1258,1430,1159,1293,1369,1071,1306,1453
306212,30920,-9956,1242,1242,-619,329,-145,214,-304,397,-48,3956,-10,2,798,1258,1430,1159,1293,1369,1071,1306,1453
307213,30932,-9948,1248,1248,-794,229,-144,214,-301,391,-47,3944,-4,-4,799,1258,1430,1159,1293,1369,1071,1306,1453
308214,30920,-9936,1254,1254,-644,204,-145,212,-298,416,-66,3922,3,1,798,1258,1430,1159,1293,1369,1071,1306,1453
309215,30928,-9944,1260,1260,-769,329,-144,210,-301,434,-56,3936,6,-3,797,1258,1430,1159,1293,1369,1071,1306,1453
310216,30920,-9956,1266,1266,-668,354,-143,210,-302,419,-29,3917,-9,-3,798,1258,1430,1159,1293,1369,1071,1306,1453
311217,30932,-9944,1272,1272,-794,204,-143,208,-301,419,-64,3931,5,-10,798,1258,1430,1159,1293,1369,1071,1306,1453
312218,30932,-9952,1278,1278,-718,330,-146,207,-302,441,-63,3887,4,4,798,1258,1430,1159,1293,1369,1071,1306,1453
313219,30924,-9940,1284,1284,-668,205,-150,210,-300,435,1,3920,2,-3,798,1258,1430,1159,1293,1369,1071,1306,1453
314220,30928,-9948,1290,1290,-743,330,-151,209,-296,439,-36,3914,7,1,799,1258,1430,1159,1293,1369,1071,1306,1453
315221,30920,-9940,1296,1296,-668,230,-151,208,-297,455,-32,3927,-9,-1,799,1258,1430,1159,1293,1369,1071,1306,1453
316222,30920,-9948,1302,1302,-718,330,-150,210,-300,422,-57,3898,4,3,799,1258,1430,1159,1293,1369,1071,1306,1453
317223,30920,-9944,1308,1308,-717,255,-151,210,-298,376,16,3871,-2,4,799,1258,1430,1159,1293,1369,1071,1306,1453
318224,30936,-9952,1314,1314,-818,331,-153,207,-295,447,-22,3843,7,-9,799,1258,1430,1159,1293,1369,1071,1306,1453
319225,30932,-9952,1320,1320,-692,281,-154,208,-294,450,-11,3865,1,4,797,1258,1430,1159,1293,1369,1071,1306,1453
320226,30928,-9952,1326,1326,-692,281,-154,208,-295,428,-43,3854,-10,1,798,1258,1430,1159,1293,1369,1071,1306,1453
321227,30928,-9952,1332,1332,-717,281,-153,209,-295,405,-22,3884,2,-2,799,1258,1430,1159,1293,1369,1071,1306,1453
322228,30920,-9948,1338,1338,-667,256,-152,203,-296,445,-29,3903,-2,2,799,1258,1430,1159,1293,1369,1071,1306,1453
323229,30936,-9952,1344,1344,-817,306,-151,202,-298,445,-31,3895,7,5,799,1258,1430,1159,1293,1369,1071,1306,1453
324230,30920,-9952,1350,1350,-616,281,-153,206,-298,421,-11,3868,-9,-11,798,1258,1430,1159,1293,1369,1071,1306,1453
325231,30920,-9952,1356,1356,-716,282,-153,210,-297,406,-53,3875,-8,-3,798,1258,1430,1159,1293,1369,1071,1306,1453
326232,30924,-9960,1362,1362,-741,332,-150,207,-299,406,-11,3864,-8,-1,795,1258,1430,1159,1293,1369,1071,1306,1453
327233,30920,-9964,1368,1368,-691,307,-151,207,-300,422,-63,3894,-3,0,797,1258,1430,1159,1293,1369,1071,1306,1453
328234,30924,-9944,1374,1374,-741,157,-153,206,-298,429,-18,3868,2,-6,798,1258,1430,1159,1293,1369,1071,1306,1453
329235,30924,-9944,1380,1380,-716,282,-155,205,-297,439,11,3900,6,-8,799,1258,1430,1159,1293,1369,1071,1306,1453
330236,30928,-9952,1386,1386,-741,332,-156,209,-296,440,-37,3867,7,-1,799,1258,1430,1159,1293,1369,1071,1306,1453
331237,30928,-9944,1392,1392,-716,232,-159,209,-295,453,-8,3846,-9,3,798,1258,1430,1159,1293,1369,1071,1306,1453
332238,30924,-9940,1398,1398,-690,257,-158,210,-297,456,-44,3860,-8,4,799,1258,1430,1159,1293,1369,1071,1306,1453
333239,30916,-9944,1404,1404,-665,308,-158,208,-302,431,-40,3871,-1,-3,799,1258,1430,1159,1293,1369,1071,1306,1453
334240,30920,-9936,1410,1410,-740,233,-158,208,-300,440,-46,3894,7,4,799,1258,1430,1159,1293,1369,1071,1306,1453
335241,30928,-9944,1416,1416,-765,333,-157,209,-297,507,-32,3853,-6,4,799,1258,1430,1159,1293,1369,1071,1306,1453
336242,30924,-9948,1422,1422,-690,308,-156,211,-297,460,-45,3871,-7,-8,798,1258,1430,1159,1293,1369,1071,1306,1453
337243,30936,-9952,1428,1428,-790,308,-159,211,-300,430,-34,3908,-2,-10,798,1258,1430,1159,1293,1369,1071,1306,1453
338244,30916,-9940,1434,1434,-589,208,-160,207,-301,479,-70,3871,-6,3,797,1258,1430,1159,1293,1369,1071,1306,1453
339245,30928,-9948,1440,1440,-789,334,-159,205,-298,485,-32,3884,7,-7,799,1258,1430,1159,1293,1369,1071,1306,1453
340246,30920,-9948,1446,1446,-664,284,-158,210,-298,426,-2,3909,-8,-3,799,1258,1430,1159,1293,1369,1071,1306,1453
341247,30924,-9952,1452,1452,-739,309,-158,214,-300,461,-52,3922,7,-10,798,1258,1430,1159,1293,1369,1071,1306,1453
342248,30928,-9952,1458,1458,-739,284,-161,210,-299,479,-30,3923,-6,-10,799,1258,1430,1159,1293,1369,1071,1306,1453
343249,30928,-9956,1464,1464,-714,309,-161,208,-299,456,-13,3931,4,4,794,1258,1430,1159,1293,1369,1071,1306,1453
344250,30916,-9952,1470,1470,-638,259,-163,210,-298,450,-62,3873,4,-10,797,1258,1430,1159,1293,1369,1071,1306,1453
345251,30936,-9960,1476,1476,-839,335,-164,211,-297,472,-9,3913,6,-10,799,1258,1430,1159,1293,1369,1071,1306,1453
346252,30928,-9960,1482,1482,-663,285,-164,214,-297,427,-78,3933,7,4,797,1258,1430,1159,1293,1369,1071,1306,1453
347253,30916,-9940,1488,1488,-638,160,-161,213,-296,454,-39,3906,7,0,797,1258,1430,1159,1293,1369,1071,1306,1453
348254,30920,-9952,1494,1494,-738,360,-160,210,-298,466,-45,3876,3,-3,801,1258,1430,1159,1293,1369,1071,1306,1453
349255,30924,-9952,1500,1500,-738,285,-162,212,-297,449,-45,3930,-9,4,799,1258,1430,1159,1293,1369,1071,1306,1453
350256,30924,-9940,1506,1506,-713,210,-164,212,-296,439,-48,3919,-9,5,798,1258,1430,1159,1293,1369,1071,1306,1453
351257,30920,-9948,1512,1512,-687,335,-162,213,-295,431,-23,3900,6,-7,799,1258,1430,1159,1293,1369,1071,1306,1453
352258,30916,-9960,1518,1518,-687,361,-161,214,-297,410,-87,3945,3,2,798,1258,1430,1159,1293,1369,1071,1306,1453
353259,30932,-9944,1524,1524,-812,185,-160,214,-298,424,-39,3933,-4,4,798,1258,1430,1159,1293,1369,1071,1306,1453
354260,30932,-9944,1530,1530,-712,286,-158,214,-296,466,-64,3890,-7,-1,798,1258,1430,1159,1293,1369,1071,1306,1453
355261,30920,-9944,1536,1536,-637,286,-158,216,-297,404,-20,3930,-9,2,799,1258,1430,1159,1293,1369,1071,1306,1453
356262,30920,-9948,1542,1542,-712,311,-158,214,-296,409,-24,3922,5,-7,800,1258,1430,1159,1293,1369,1071,1306,1453
357263,30920,-9952,1548,1548,-712,311,-157,210,-294,469,-90,3909,-2,-3,799,1258,1430,1159,1293,1369,1071,1306,1453
358264,30908,-9960,1554,1554,-636,337,-155,208,-293,435,-75,3946,6,4,798,1258,1430,1159,1293,1369,1071,1306,1453
359265,30912,-9952,1560,1560,-736,237,-157,213,-294,379,-29,3931,4,-9,799,1258,1430,1159,1293,1369,1071,1306,1453
360266,30924,-9940,1566,1566,-786,211,-157,216,-296,432,-55,3899,-9,2,794,1258,1430,1159,1293,1369,1071,1306,1453
361267,30916,-9948,1572,1572,-661,337,-156,212,-296,464,-66,3876,-1,-5,798,1258,1430,1159,1293,1369,1071,1306,1453
362268,30912,-9940,1578,1578,-686,237,-154,214,-297,422,-61,3908,6,1,798,1258,1430,1159,1293,1369,1071,1306,1453
363269,30924,-9948,1584,1584,-786,337,-154,215,-296,368,-47,3896,3,4,799,1258,1430,1159,1293,1369,1071,1306,1453
364270,30920,-9952,1590,1590,-686,312,-151,210,-298,427,-56,3893,-10,4,800,1258,1430,1159,1293,1369,1071,1306,1453
365271,30932,-9952,1596,1596,-786,287,-152,212,-297,466,-41,3935,6,-3,796,1258,1430,1159,1293,1369,1071,1306,1453
366272,30916,-9936,1602,1602,-610,187,-150,216,-296,426,-30,3911,-9,4,799,1258,1430,1159,1293,1369,1071,1306,1453
367273,30924,-9948,1608,1608,-760,363,-149,215,-297,412,-88,3869,-9,1,797,1258,1430,1159,1293,1369,1071,1306,1453
368274,30924,-9952,1614,1614,-710,313,-149,213,-300,429,-21,3868,-9,-8,802,1258,1430,1159,1293,1369,1071,1306,1453
369275,30920,-9948,1620,1620,-685,263,-146,214,-303,452,-48,3881,5,2,796,1258,1430,1159,1293,1369,1071,1306,1453
370276,30928,-9936,1626,1626,-760,213,-145,213,-303,432,-52,3875,-4,0,798,1258,1430,1159,1293,1369,1071,1306,1453
371277,30920,-9944,1632,1632,-660,338,-145,209,-301,428,-49,3903,-4,4,800,1258,1430,1159,1293,1369,1071,1306,1453
372278,30924,-9944,1638,1638,-734,288,-148,210,-300,438,-88,3881,6,2,799,1258,1430,1159,1293,1369,1071,1306,1453
373279,30928,-9940,1644,1644,-734,263,-144,208,-298,489,-50,3851,-3,0,799,1258,1430,1159,1293,1369,1071,1306,1453
374280,30920,-9948,1650,1650,-659,339,-145,211,-298,428,-99,3920,6,0,798,1258,1430,1159,1293,1369,1071,1306,1453
375281,30916,-9964,1656,1656,-684,389,-146,208,-302,411,-31,3900,4,-9,798,1258,1430,1159,1293,1369,1071,1306,1453
376282,30916,-9940,1662,1662,-709,139,-145,206,-304,471,-75,3905,-3,-8,799,1258,1430,1159,1293,1369,1071,1306,1453
377283,30912,-9944,1668,1668,-683,314,-144,206,-300,466,-86,3905,-9,-1,793,1258,1430,1159,1293,1369,1071,1306,1453
378284,30924,-9952,1674,1674,-784,339,-145,209,-300,388,-44,3932,0,-7,799,1258,1430,1159,1293,1369,1071,1306,1453
379285,30920,-9940,1680,1680,-683,214,-145,213,-306,423,-35,3924,-9,1,799,1258,1430,1159,1293,1369,1071,1306,1453
380286,30912,-9948,1686,1686,-658,340,-145,209,-305,469,-42,3885,-4,4,796,1258,1430,1159,1293,1369,1071,1306,1453
381287,30928,-9940,1692,1692,-808,239,-146,202,-301,442,-48,3900,4,-10,801,1258,1430,1159,1293,1369,1071,1306,1453
382288,30908,-9944,1698,1698,-583,315,-148,207,-303,373,-22,3925,2,4,799,1258,1430,1159,1293,1369,1071,1306,1453
383289,30920,-9956,1704,1704,-783,365,-146,209,-308,471,-43,3881,-10,4,797,1258,1430,1159,1293,1369,1071,1306,1453
384290,30928,-9948,1710,1710,-758,240,-144,210,-307,469,-39,3910,-9,2,801,1258,1430,1159,1293,1369,1071,1306,1453
385291,30932,-9960,1716,1716,-733,366,-143,215,-304,406,-55,3923,-3,1,796,1258,1430,1159,1293,1369,1071,1306,1453
386292,30924,-9944,1722,1722,-657,190,-146,209,-306,429,-59,3876,-2,-4,798,1258,1430,1159,1293,1369,1071,1306,1453
387293,30924,-9952,1728,1728,-707,341,-146,206,-307,481,-17,3927,5,5,797,1258,1430,1159,1293,1369,1071,1306,1453
388294,30920,-9940,1734,1734,-682,216,-145,208,-301,481,-92,3907,-10,-4,801,1258,1430,1159,1293,1369,1071,1306,1453
389295,30924,-9944,1740,1740,-732,316,-147,208,-304,436,-31,3886,-2,-1,797,1258,1430,1159,1293,1369,1071,1306,1453
390296,30912,-9948,1746,1746,-632,316,-149,211,-308,446,-68,3914,-9,4,800,1258,1430,1159,1293,1369,1071,1306,1453
391297,30924,-9952,1752,1752,-782,316,-148,211,-305,461,-41,3916,1,4,797,1258,1430,1159,1293,1369,1071,1306,1453
392298,30912,-9948,1758,1758,-631,266,-147,210,-299,416,0,3899,-10,-3,799,1258,1430,1159,1293,1369,1071,1306,1453
393299,30928,-9944,1764,1764,-807,266,-148,210,-302,430,-36,3867,3,-7,796,1258,1430,1159,1293,1369,1071,1306,1453
394300,30916,-9948,1770,1770,-631,317,-152,211,-303,418,-4,3884,-10,-9,797,1258,1430,1159,1293,1369,1071,1306,1453
395301,30916,-9948,1776,1776,-706,292,-154,212,-303,450,-62,3915,6,-6,795,1258,1430,1159,1293,1369,1071,1306,1453
396302,30912,-9944,1782,1782,-681,267,-151,211,-301,443,-33,3865,1,4,800,1258,1430,1159,1293,1369,1071,1306,1453
397303,30928,-9952,1788,1788,-806,342,-150,210,-300,437,-3,3909,3,-8,799,1258,1430,1159,1293,1369,1071,1306,1453
398304,30916,-9944,1794,1794,-630,242,-151,213,-299,442,-82,3914,-9,-1,799,1258,1430,1159,1293,1369,1071,1306,1453
399305,30916,-9948,1800,1800,-705,317,-152,212,-300,457,-7,3898,3,5,796,1258,1430,1159,1293,1369,1071,1306,1453
400306,30920,-9952,1806,1806,-730,318,-151,212,-302,443,-63,3887,-9,3,801,1258,1430,1159,1293,1369,1071,1306,1453
401307,30920,-9944,1812,1812,-705,243,-151,212,-302,436,-12,3891,4,1,798,1258,1430,1159,1293,1369,1071,1306,1453
402308,30920,-9944,1818,1818,-705,293,-153,213,-302,457,-46,3846,-6,4,797,1258,1430,1159,1293,1369,1071,1306,1453
403309,30920,-9944,1824,1824,-705,293,-154,213,-297,446,-20,3896,0,4,799,1258,1430,1159,1293,1369,1071,1306,1453
404310,30912,-9948,1830,1830,-655,318,-154,215,-300,425,-32,3897,-4,2,799,1258,1430,1159,1293,1369,1071,1306,1453
405311,30912,-9944,1836,1836,-704,268,-153,212,-298,452,-22,3881,-2,4,799,1258,1430,1159,1293,1369,1071,1306,1453
406312,30908,-9948,1842,1842,-679,318,-153,210,-294,432,-35,3899,6,0,799,1258,1430,1159,1293,1369,1071,1306,1453
407313,30916,-9948,1848,1848,-754,293,-154,211,-295,435,-38,3875,3,2,799,1258,1430,1159,1293,1369,1071,1306,1453
408314,30916,-9952,1854,1854,-704,319,-156,213,-297,439,-41,3892,-8,2,799,1258,1430,1159,1293,1369,1071,1306,1453
409315,30928,-9940,1860,1860,-779,219,-154,215,-296,438,-37,3904,-9,4,798,1258,1430,1159,1293,1369,1071,1306,1453
410316,30912,-9944,1866,1866,-604,319,-153,215,-294,439,-52,3850,4,4,798,1258,1430,1159,1293,1369,1071,1306,1453
411317,30920,-9944,1872,1872,-754,294,-155,214,-295,454,-47,3869,4,-2,794,1258,1430,1159,1293,1369,1071,1306,1453
412318,30916,-9952,1878,1878,-678,344,-154,213,-294,452,-36,3895,-9,-1,797,1258,1430,1159,1293,1369,1071,1306,1453
413319,30912,-9948,1884,1884,-678,269,-155,213,-294,438,-65,3914,6,0,798,1258,1430,1159,1293,1369,1071,1306,1453
414320,30924,-9960,1890,1890,-778,370,-156,212,-296,431,-58,3883,6,5,798,1258,1430,1159,1293,1369,1071,1306,1453
415321,30912,-9944,1896,1896,-628,195,-155,210,-300,415,-34,3876,6,-10,799,1258,1430,1159,1293,1369,1071,1306,1453
416322,30916,-9936,1902,1902,-728,245,-155,210,-295,444,-72,3867,3,5,796,1258,1430,1159,1293,1369,1071,1306,1453
417323,30908,-9952,1908,1908,-653,395,-155,211,-294,425,-18,3881,1,-1,802,1258,1430,1159,1293,1369,1071,1306,1453
418324,30916,-9944,1914,1914,-753,245,-156,213,-296,431,-90,3876,4,-10,799,1258,1430,1159,1293,1369,1071,1306,1453
419325,30924,-9952,1920,1920,-753,345,-156,212,-294,422,-69,3887,7,3,798,1258,1430,1159,1293,1369,1071,1306,1453
420326,30912,-9952,1926,1926,-627,295,-156,209,-293,436,-89,3893,6,-10,798,1258,1430,1159,1293,1369,1071,1306,1453
421327,30912,-9956,1932,1932,-702,321,-160,210,-296,389,-21,3906,0,-6,796,1258,1430,1159,1293,1369,1071,1306,1453
422328,30908,-9948,1938,1938,-677,246,-160,213,-298,442,-15,3921,-8,-6,800,1258,1430,1159,1293,1369,1071,1306,1453
423329,30916,-9952,1944,1944,-752,321,-157,212,-295,443,-61,3895,3,-7,798,1258,1430,1159,1293,1369,1071,1306,1453
424330,30908,-9948,1950,1950,-651,271,-158,212,-296,394,14,3909,-3,-6,800,1258,1430,1159,1293,1369,1071,1306,1453
425331,30908,-9936,1956,1956,-701,221,-158,212,-300,442,-51,3886,-9,-7,797,1258,1430,1159,1293,1369,1071,1306,1453
426332,30916,-9948,1962,1962,-751,371,-156,211,-299,438,-29,3884,0,5,800,1258,1430,1159,1293,1369,1071,1306,1453
427333,30908,-9948,1968,1968,-651,296,-156,211,-297,409,-51,3903,7,-9,800,1258,1430,1159,1293,1369,1071,1306,1453
428334,30912,-9948,1974,1974,-726,297,-159,212,-295,413,-33,3873,5,1,792,1258,1430,1159,1293,1369,1071,1306,1453
429335,30912,-9948,1980,1980,-701,297,-159,211,-296,464,-45,3889,-7,1,796,1258,1430,1159,1293,1369,1071,1306,1453
430336,30912,-9952,1986,1986,-701,322,-158,210,-297,431,-97,3915,-5,1,798,1258,1430,1159,1293,1369,1071,1306,1453
431337,30908,-9940,1992,1992,-675,222,-156,210,-298,426,-37,3886,-9,-9,798,1258,1430,1159,1293,1369,1071,1306,1453
432338,30924,-9952,1998,1998,-801,372,-155,210,-301,435,-82,3911,7,3,798,1258,1430,1159,1293,1369,1071,1306,1453
433339,30920,-9936,2004,2004,-675,197,-158,211,-302,418,-56,3912,-4,0,800,1258,1430,1159,1293,1369,1071,1306,1453
434340,30912,-9944,2010,2010,-650,347,-157,209,-301,451,-52,3912,6,-9,795,1258,1430,1159,1293,1369,1071,1306,1453
435341,30912,-9944,2016,2016,-700,297,-158,208,-300,483,-66,3911,5,-1,800,1258,1430,1159,1293,1369,1071,1306,1453
436342,30920,-9936,2022,2022,-750,247,-159,208,-303,439,-48,3940,3,-4,798,1258,1430,1159,1293,1369,1071,1306,1453
437343,30908,-9952,2028,2028,-625,398,-159,210,-301,428,-74,3909,4,4,799,1258,1430,1159,1293,1369,1071,1306,1453
438344,30908,-9944,2034,2034,-699,248,-157,208,-300,470,-53,3898,-3,-7,798,1258,1430,1159,1293,1369,1071,1306,1453
439345,30908,-9948,2040,2040,-699,323,-155,207,-303,445,-19,3895,-10,-2,798,1258,1430,1159,1293,1369,1071,1306,1453
440346,30908,-9948,2046,2046,-699,298,-154,207,-301,465,-61,3877,-7,3,799,1258,1430,1159,1293,1369,1071,1306,1453
441347,30928,-9936,2052,2052,-824,223,-158,208,-301,426,-40,3884,0,-6,798,1258,1430,1159,1293,1369,1071,1306,1453
442348,30900,-9936,2058,2058,-524,298,-158,210,-301,431,-61,3892,-8,-1,798,1258,1430,1159,1293,1369,1071,1306,1453
443349,30900,-9944,2064,2064,-699,349,-156,206,-301,438,-133,3861,5,-5,797,1258,1430,1159,1293,1369,1071,1306,1453
444350,30904,-9948,2070,2070,-723,324,-155,204,-302,435,-17,3879,-2,4,801,1258,1430,1159,1293,1369,1071,1306,1453
445351,30916,-9948,2076,2076,-774,299,-152,207,-302,469,-49,3927,-4,-9,794,1258,1430,1159,1293,1369,1071,1306,1453
446352,30904,-9944,2082,2082,-623,274,-153,208,-303,442,-47,3921,-9,-3,793,1258,1430,1159,1293,1369,1071,1306,1453
447353,30908,-9944,2088,2088,-723,299,-152,205,-307,448,7,3942,-10,5,797,1258,1430,1159,1293,1369,1071,1306,1453
448354,30912,-9952,2094,2094,-723,350,-152,210,-301,452,-83,3909,-4,2,800,1258,1430,1159,1293,1369,1071,1306,1453
449355,30908,-9936,2100,2100,-673,199,-148,209,-301,444,-9,3894,-7,0,798,1258,1430,1159,1293,1369,1071,1306,1453
450356,30916,-9940,2106,2106,-748,325,-150,212,-302,436,-55,3897,6,-8,797,1258,1430,1159,1293,1369,1071,1306,1453
451357,30908,-9944,2112,2112,-648,325,-151,212,-302,465,-11,3899,-8,4,801,1258,1430,1159,1293,1369,1071,1306,1453
452358,30904,-9944,2118,2118,-672,300,-151,212,-301,460,-61,3849,5,-4,797,1258,1430,1159,1293,1369,1071,1306,1453
453359,30908,-9944,2124,2124,-722,300,-148,210,-302,475,-21,3891,6,-9,799,1258,1430,1159,1293,1369,1071,1306,1453
454360,30924,-9952,2130,2130,-797,350,-146,211,-302,439,-67,3892,0,2,799,1258,1430,1159,1293,1369,1071,1306,1453
455361,30908,-9952,2136,2136,-597,301,-147,210,-300,435,-41,3929,-1,-10,798,1258,1430,1159,1293,1369,1071,1306,1453
456362,30916,-9948,2142,2142,-747,276,-149,208,-299,500,-66,3896,-5,-9,795,1258,1430,1159,1293,1369,1071,1306,1453
457363,30904,-9936,2148,2148,-622,226,-149,210,-300,449,-26,3878,6,3,800,1258,1430,1159,1293,1369,1071,1306,1453
458364,30908,-9944,2154,2154,-722,351,-148,212,-304,428,-44,3912,-2,-3,798,1258,1430,1159,1293,1369,1071,1306,1453
459365,30908,-9944,2160,2160,-696,301,-147,213,-301,440,-56,3886,5,-8,801,1258,1430,1159,1293,1369,1071,1306,1453
460366,30904,-9940,2166,2166,-671,276,-146,213,-299,470,-27,3918,-8,-9,797,1258,1430,1159,1293,1369,1071,1306,1453
461367,30908,-9956,2172,2172,-721,402,-146,216,-300,416,-73,3913,6,4,799,1258,1430,1159,1293,1369,1071,1306,1453
462368,30904,-9956,2178,2178,-671,302,-148,213,-300,413,-13,3936,2,1,796,1258,1430,1159,1293,1369,1071,1306,1453
463369,30904,-9944,2184,2184,-696,227,-147,212,-300,471,-58,3904,6,3,792,1258,1430,1159,1293,1369,1071,1306,1453
464370,30904,-9944,2190,2190,-696,302,-147,211,-299,430,-26,3888,-8,5,799,1258,1430,1159,1293,1369,1071,1306,1453
465371,30904,-9952,2196,2196,-695,352,-148,215,-299,396,-42,3902,-9,-7,799,1258,1430,1159,1293,1369,1071,1306,1453
466372,30912,-9948,2202,2202,-745,277,-149,216,-299,431,-52,3913,-10,-8,798,1258,1430,1159,1293,1369,1071,1306,1453
467373,30904,-9936,2208,2208,-645,227,-148,212,-298,461,-78,3903,-8,4,798,1258,1430,1159,1293,1369,1071,1306,1453
468374,30920,-9948,2214,2214,-795,377,-150,211,-300,411,-31,3912,7,2,798,1258,1430,1159,1293,1369,1071,1306,1453
469375,30904,-9944,2220,2220,-595,277,-149,216,-298,400,-41,3909,4,-7,801,1258,1430,1159,1293,1369,1071,1306,1453
470376,30908,-9952,2226,2226,-720,353,-150,219,-294,451,-66,3916,-8,-2,795,1258,1430,1159,1293,1369,1071,1306,1453
471377,30908,-9944,2232,2232,-695,253,-150,213,-294,477,-35,3880,6,-9,801,1258,1430,1159,1293,1369,1071,1306,1453
472378,30908,-9948,2238,2238,-694,328,-149,212,-298,408,-38,3908,-9,4,797,1258,1430,1159,1293,1369,1071,1306,1453
473379,30908,-9952,2244,2244,-694,328,-152,210,-295,450,-50,3862,4,-5,799,1258,1430,1159,1293,1369,1071,1306,1453
474380,30916,-9956,2250,2250,-744,328,-152,212,-295,495,-24,3895,-6,-9,798,1258,1430,1159,1293,1369,1071,1306,1453
475381,30912,-9944,2256,2256,-669,228,-153,217,-297,413,-73,3935,-5,0,798,1258,1430,1159,1293,1369,1071,1306,1453
476382,30908,-9956,2262,2262,-669,379,-151,215,-297,418,-30,3905,2,0,797,1258,1430,1159,1293,1369,1071,1306,1453
477383,30896,-9940,2268,2268,-618,204,-150,214,-297,450,-63,3890,6,-8,800,1258,1430,1159,1293,1369,1071,1306,1453
478384,30912,-9948,2274,2274,-794,354,-149,213,-298,442,-58,3920,-9,0,798,1258,1430,1159,1293,1369,1071,1306,1453
479385,30908,-9948,2280,2280,-668,304,-152,214,-298,405,-62,3881,-4,4,797,1258,1430,1159,1293,1369,1071,1306,1453
480386,30908,-9940,2286,2286,-693,254,-154,214,-300,413,-28,3875,5,-8,791,1258,1430,1159,1293,1369,1071,1306,1453
481387,30908,-9944,2292,2292,-693,329,-154,211,-299,461,-13,3866,-9,-10,799,1258,1430,1159,1293,1369,1071,1306,1453
482388,30908,-9952,2298,2298,-693,355,-153,208,-297,452,-56,3913,-4,-11,799,1258,1430,1159,1293,1369,1071,1306,1453
483389,30908,-9952,2304,2304,-693,305,-153,208,-296,423,-23,3934,-9,-2,798,1258,1430,1159,1293,1369,1071,1306,1453
484390,30904,-9944,2310,2310,-668,255,-154,210,-300,458,-39,3924,-5,-1,798,1258,1430,1159,1293,1369,1071,1306,1453
485391,30908,-9952,2316,2316,-718,355,-156,212,-303,436,-66,3904,7,-4,798,1258,1430,1159,1293,1369,1071,1306,1453
486392,30904,-9944,2322,2322,-667,255,-155,213,-301,430,-43,3912,1,-4,799,1258,1430,1159,1293,1369,1071,1306,1453
487393,30904,-9944,2328,2328,-692,305,-155,214,-299,461,-77,3918,7,3,797,1258,1430,1159,1293,1369,1071,1306,1453
488394,30908,-9952,2334,2334,-717,355,-155,212,-300,443,-33,3875,-9,0,800,1258,1430,1159,1293,1369,1071,1306,1453
489395,30896,-9952,2340,2340,-617,306,-158,211,-301,420,-41,3850,-1,-10,799,1258,1430,1159,1293,1369,1071,1306,1453
490396,30900,-9944,2346,2346,-717,256,-156,208,-301,422,-40,3881,7,3,797,1258,1430,1159,1293,1369,1071,1306,1453
491397,30904,-9948,2352,2352,-717,331,-155,208,-301,421,-55,3908,-2,-6,800,1258,1430,1159,1293,1369,1071,1306,1453
492398,30908,-9940,2358,2358,-717,256,-155,209,-302,385,-38,3912,3,-7,799,1258,1430,1159,1293,1369,1071,1306,1453
493399,30904,-9944,2364,2364,-666,331,-156,208,-300,426,-43,3886,5,-4,797,1258,1430,1159,1293,1369,1071,1306,1453
494400,30904,-9944,2370,2370,-691,306,-154,209,-299,436,-54,3905,7,4,799,1258,1430,1159,1293,1369,1071,1306,1453
495401,30908,-9940,2376,2376,-716,281,-155,211,-301,430,-55,3881,-6,-5,798,1258,1430,1159,1293,1369,1071,1306,1453
496402,30908,-9936,2382,2382,-691,281,-156,209,-303,455,-64,3881,6,5,795,1258,1430,1159,1293,1369,1071,1306,1453
497403,30904,-9944,2388,2388,-666,357,-157,209,-303,457,-50,3897,-8,2,795,1258,1430,1159,1293,1369,1071,1306,1453
498404,30904,-9944,2394,2394,-691,307,-157,212,-299,428,-39,3887,5,-8,799,1258,1430,1159,1293,1369,1071,1306,1453
499405,30904,-9928,2400,2400,-690,206,-155,211,-299,434,-76,3861,-5,-11,798,1258,1430,1159,1293,1369,1071,1306,1453
500406,30908,-9944,2406,2406,-715,407,-156,209,-301,423,-44,3863,-9,1,799,1258,1430,1159,1293,1369,1071,1306,1453
501407,30892,-9944,2412,2412,-590,307,-159,208,-300,442,-26,3900,7,-6,800,1258,1430,1159,1293,1369,1071,1306,1453
502408,30896,-9940,2418,2418,-715,282,-156,208,-302,427,-67,3928,-9,-10,796,1258,1430,1159,1293,1369,1071,1306,1453
503409,30908,-9936,2424,2424,-765,282,-154,210,-303,425,-86,3876,-4,4,800,1258,1430,1159,1293,1369,1071,1306,1453
504410,30900,-9948,2430,2430,-640,383,-154,212,-300,414,-57,3886,6,-8,798,1258,1430,1159,1293,1369,1071,1306,1453
505411,30904,-9952,2436,2436,-715,333,-154,209,-298,447,-14,3895,6,-3,797,1258,1430,1159,1293,1369,1071,1306,1453
506412,30908,-9952,2442,2442,-714,308,-154,207,-299,467,-42,3877,3,-7,798,1258,1430,1159,1293,1369,1071,1306,1453
507413,30912,-9944,2448,2448,-714,258,-156,209,-302,395,-76,3905,5,0,798,1258,1430,1159,1293,1369,1071,1306,1453
508414,30912,-9952,2454,2454,-689,358,-155,209,-302,435,0,3871,5,-8,798,1258,1430,1159,1293,1369,1071,1306,1453
509415,30900,-9948,2460,2460,-614,283,-153,210,-301,455,-16,3896,-1,-2,799,1258,1430,1159,1293,1369,1071,1306,1453
510416,30908,-9940,2466,2466,-739,258,-153,211,-298,465,-62,3925,-7,3,798,1258,1430,1159,1293,1369,1071,1306,1453
511417,30904,-9932,2472,2472,-664,258,-154,210,-299,440,-35,3938,6,3,800,1258,1430,1159,1293,1369,1071,1306,1453
512418,30904,-9944,2478,2478,-688,384,-155,209,-300,460,-49,3889,7,3,798,1258,1430,1159,1293,1369,1071,1306,1453
513419,30908,-9952,2484,2484,-713,359,-154,208,-299,470,-35,3897,4,-10,796,1258,1430,1159,1293,1369,1071,1306,1453
514420,30900,-9956,2490,2490,-638,334,-152,209,-298,440,-41,3892,7,-4,793,1258,1430,1159,1293,1369,1071,1306,1453
515421,30908,-9944,2496,2496,-738,234,-151,210,-299,400,-22,3890,2,-8,797,1258,1430,1159,1293,1369,1071,1306,1453
516422,30904,-9952,2502,2502,-663,360,-151,208,-302,449,-44,3915,-10,1,799,1258,1430,1159,1293,1369,1071,1306,1453
517423,30896,-9948,2508,2508,-638,285,-154,210,-301,480,-61,3900,4,-10,798,1258,1430,1159,1293,1369,1071,1306,1453
518424,30904,-9952,2514,2514,-738,335,-154,210,-300,479,-38,3878,7,-2,798,1258,1430,1159,1293,1369,1071,1306,1453
519425,30908,-9944,2520,2520,-713,260,-152,212,-297,450,-33,3922,-9,3,799,1258,1430,1159,1293,1369,1071,1306,1453
520426,30904,-9956,2526,2526,-662,385,-153,213,-299,448,-57,3891,4,-7,797,1258,1430,1159,1293,1369,1071,1306,1453
521427,30900,-9944,2532,2532,-662,235,-151,214,-297,467,-29,3877,-1,-8,799,1258,1430,1159,1293,1369,1071,1306,1453
522428,30904,-9952,2538,2538,-712,360,-150,214,-296,457,-78,3888,-2,2,798,1258,1430,1159,1293,1369,1071,1306,1453
523429,30904,-9940,2544,2544,-687,235,-150,214,-299,402,-24,3908,-4,-10,800,1258,1430,1159,1293,1369,1071,1306,1453
524430,30908,-9948,2550,2550,-712,361,-151,213,-303,436,-49,3941,-9,-1,797,1258,1430,1159,1293,1369,1071,1306,1453
525431,30912,-9956,2556,2556,-712,361,-151,214,-299,465,-41,3916,4,-1,799,1258,1430,1159,1293,1369,1071,1306,1453
526432,30908,-9940,2562,2562,-662,211,-151,211,-296,457,-74,3905,4,-3,797,1258,1430,1159,1293,1369,1071,1306,1453
527433,30904,-9944,2568,2568,-661,336,-153,212,-298,450,-33,3926,3,4,797,1258,1430,1159,1293,1369,1071,1306,1453
528434,30896,-9928,2574,2574,-636,211,-154,209,-299,469,-80,3894,-2,4,800,1258,1430,1159,1293,1369,1071,1306,1453
529435,30900,-9944,2580,2580,-711,411,-154,212,-296,436,-22,3910,6,5,798,1258,1430,1159,1293,1369,1071,1306,1453
530436,30904,-9944,2586,2586,-711,311,-150,212,-298,475,-69,3880,3,-3,797,1258,1430,1159,1293,1369,1071,1306,1453
531437,30908,-9948,2592,2592,-711,337,-150,211,-299,435,-55,3867,-7,-9,791,1258,1430,1159,1293,1369,1071,1306,1453
532438,30908,-9940,2598,2598,-686,262,-151,212,-298,455,-47,3890,2,-3,798,1258,1430,1159,1293,1369,1071,1306,1453
533439,30884,-9952,2604,2604,-535,387,-152,213,-297,466,-84,3907,-9,4,797,1258,1430,1159,1293,1369,1071,1306,1453
534440,30908,-9952,2610,2610,-835,312,-154,215,-299,428,4,3933,6,-7,799,1258,1430,1159,1293,1369,1071,1306,1453
535441,30896,-9944,2616,2616,-610,262,-152,213,-298,456,-81,3912,2,3,800,1258,1430,1159,1293,1369,1071,1306,1453
536442,30896,-9948,2622,2622,-685,337,-150,213,-297,432,-24,3924,-2,4,795,1258,1430,1159,1293,1369,1071,1306,1453
537443,30900,-9948,2628,2628,-710,313,-151,209,-299,436,-35,3900,5,-9,800,1258,1430,1159,1293,1369,1071,1306,1453
538444,30896,-9948,2634,2634,-659,313,-153,211,-301,418,-28,3908,7,-8,798,1258,1430,1159,1293,1369,1071,1306,1453
539445,30904,-9948,2640,2640,-735,313,-152,211,-300,407,-128,3873,-5,-10,798,1258,1430,1159,1293,1369,1071,1306,1453
540446,30904,-9940,2646,2646,-684,263,-150,213,-301,428,32,3934,-8,-2,798,1258,1430,1159,1293,1369,1071,1306,1453
541447,30896,-9952,2652,2652,-634,388,-152,219,-301,425,-75,3925,5,1,797,1258,1430,1159,1293,1369,1071,1306,1453
542448,30900,-9944,2658,2658,-709,263,-150,216,-305,429,-34,3891,6,-10,799,1258,1430,1159,1293,1369,1071,1306,1453
543449,30904,-9944,2664,2664,-709,313,-151,213,-302,434,-22,3875,4,3,798,1258,1430,1159,1293,1369,1071,1306,1453
544450,30916,-9944,2670,2670,-759,313,-151,212,-299,428,-45,3898,7,-1,799,1258,1430,1159,1293,1369,1071,1306,1453
545451,30904,-9944,2676,2676,-609,314,-151,211,-303,423,-41,3872,-4,-5,798,1258,1430,1159,1293,1369,1071,1306,1453
546452,30904,-9948,2682,2682,-684,339,-151,212,-303,461,-60,3900,-10,4,797,1258,1430,1159,1293,1369,1071,1306,1453
547453,30896,-9948,2688,2688,-633,314,-150,211,-300,455,-76,3888,3,-1,796,1258,1430,1159,1293,1369,1071,1306,1453
548454,30904,-9932,2694,2694,-733,214,-150,211,-302,407,-27,3929,1,5,794,1258,1430,1159,1293,1369,1071,1306,1453
549455,30908,-9940,2700,2700,-708,364,-150,209,-301,452,-40,3918,-9,-4,799,1258,1430,1159,1293,1369,1071,1306,1453
550456,30904,-9944,2706,2706,-658,339,-153,211,-298,447,-23,3932,5,4,799,1258,1430,1159,1293,1369,1071,1306,1453
551457,30908,-9948,2712,2712,-708,340,-153,211,-303,449,-60,3873,3,5,797,1258,1430,1159,1293,1369,1071,1306,1453
552458,30908,-9944,2718,2718,-683,290,-151,211,-304,420,-44,3931,2,-5,798,1258,1430,1159,1293,1369,1071,1306,1453
553459,30908,-9952,2724,2724,-683,365,-151,211,-304,451,-54,3932,0,-5,797,1258,1430,1159,1293,1369,1071,1306,1453
554460,30880,-9928,2730,2730,-507,165,-153,211,-303,471,-17,3891,-1,-2,798,1258,1430,1159,1293,1369,1071,1306,1453
555461,30908,-9948,2736,2736,-857,440,-151,210,-302,449,-71,3897,-8,-8,797,1258,1430,1159,1293,1369,1071,1306,1453
556462,30900,-9952,2742,2742,-632,340,-151,212,-303,414,-35,3891,-7,3,804,1258,1430,1159,1293,1369,1071,1306,1453
557463,30904,-9936,2748,2748,-707,215,-152,214,-301,438,-57,3865,3,-8,793,1258,1430,1159,1293,1369,1071,1306,1453
558464,30896,-9952,2754,2754,-632,416,-155,209,-301,468,-20,3853,6,-2,799,1258,1430,1159,1293,1369,1071,1306,1453
559465,30908,-9936,2760,2760,-757,215,-152,201,-304,441,-32,3912,3,3,799,1258,1430,1159,1293,1369,1071,1306,1453
560466,30896,-9936,2766,2766,-606,316,-154,205,-301,445,-120,3925,6,-7,797,1258,1430,1159,1293,1369,1071,1306,1453
561467,30888,-9944,2772,2772,-631,366,-153,209,-298,510,2,3872,-9,-5,798,1258,1430,1159,1293,1369,1071,1306,1453
562468,30904,-9940,2778,2778,-781,291,-154,214,-300,411,-34,3919,-8,-9,800,1258,1430,1159,1293,1369,1071,1306,1453
563469,30900,-9944,2784,2784,-656,341,-152,215,-304,399,16,3918,2,-2,798,1258,1430,1159,1293,1369,1071,1306,1453
564470,30896,-9940,2790,2790,-656,291,-152,210,-300,486,-136,3859,1,-8,793,1258,1430,1159,1293,1369,1071,1306,1453
565471,30888,-9944,2796,2796,-630,342,-155,210,-301,433,20,3879,4,-2,794,1258,1430,1159,1293,1369,1071,1306,1453
566472,30888,-9948,2802,2802,-680,342,-155,210,-303,431,-69,3859,4,1,799,1258,1430,1159,1293,1369,1071,1306,1453
567473,30888,-9948,2808,2808,-680,317,-153,209,-302,452,-53,3849,5,-10,799,1258,1430,1159,1293,1369,1071,1306,1453
568474,30892,-9944,2814,2814,-705,292,-153,207,-301,468,3,3926,0,-10,798,1258,1430,1159,1293,1369,1071,1306,1453
569475,30904,-9944,2820,2820,-755,317,-154,212,-299,455,-80,3917,3,-6,798,1258,1430,1159,1293,1369,1071,1306,1453
570476,30904,-9960,2826,2826,-680,418,-152,212,-299,411,-21,3879,7,-8,798,1258,1430,1159,1293,1369,1071,1306,1453
571477,30900,-9936,2832,2832,-655,167,-151,211,-298,445,-67,3882,7,2,797,1258,1430,1159,1293,1369,1071,1306,1453
572478,30892,-9940,2838,2838,-629,342,-151,210,-298,435,-41,3902,-1,-1,796,1258,1430,1159,1293,1369,1071,1306,1453
573479,30900,-9944,2844,2844,-729,343,-153,210,-302,441,-57,3874,0,-9,801,1258,1430,1159,1293,1369,1071,1306,1453
574480,30888,-9948,2850,2850,-604,343,-154,212,-301,471,-56,3901,-2,4,799,1258,1430,1159,1293,1369,1071,1306,1453
575481,30892,-9948,2856,2856,-704,318,-152,214,-296,469,-38,3899,-10,-7,797,1258,1430,1159,1293,1369,1071,1306,1453
576482,30888,-9944,2862,2862,-654,293,-152,215,-299,420,-99,3875,2,2,799,1258,1430,1159,1293,1369,1071,1306,1453
577483,30896,-9944,2868,2868,-729,318,-153,213,-302,394,3,3864,0,-9,798,1258,1430,1159,1293,1369,1071,1306,1453
578484,30892,-9948,2874,2874,-654,344,-153,209,-298,475,-64,3867,2,4,799,1258,1430,1159,1293,1369,1071,1306,1453
579485,30896,-9948,2880,2880,-703,319,-153,211,-296,453,-17,3919,-10,-10,797,1258,1430,1159,1293,1369,1071,1306,1453
580486,30900,-9948,2886,2886,-703,319,-153,214,-300,392,-61,3891,6,4,798,1258,1430,1159,1293,1369,1071,1306,1453
581487,30896,-9936,2892,2892,-653,244,-153,214,-301,420,-50,3904,5,5,794,1258,1430,1159,1293,1369,1071,1306,1453
582488,30892,-9948,2898,2898,-653,394,-153,209,-301,450,-33,3906,-3,4,794,1258,1430,1159,1293,1369,1071,1306,1453
583489,30904,-9940,2904,2904,-753,269,-150,210,-300,437,-38,3932,7,-10,800,1258,1430,1159,1293,1369,1071,1306,1453
584490,30896,-9944,2910,2910,-628,344,-153,211,-299,433,-68,3895,6,4,797,1258,1430,1159,1293,1369,1071,1306,1453
585491,30888,-9940,2916,2916,-627,294,-155,211,-299,435,-37,3892,6,-9,798,1258,1430,1159,1293,1369,1071,1306,1453
586492,30896,-9948,2922,2922,-727,370,-154,210,-301,434,-46,3881,-1,-8,799,1258,1430,1159,1293,1369,1071,1306,1453
587493,30888,-9940,2928,2928,-627,270,-151,212,-297,438,-48,3923,5,-10,800,1258,1430,1159,1293,1369,1071,1306,1453
588494,30904,-9932,2934,2934,-777,270,-152,211,-300,448,-91,3929,-7,4,796,1258,1430,1159,1293,1369,1071,1306,1453
589495,30888,-9932,2940,2940,-577,320,-152,214,-300,427,-17,3915,-5,-3,800,1258,1430,1159,1293,1369,1071,1306,1453
590496,30888,-9948,2946,2946,-677,420,-150,215,-297,457,-71,3920,-6,4,797,1258,1430,1159,1293,1369,1071,1306,1453
591497,30900,-9964,2952,2952,-752,421,-153,212,-296,443,-23,3883,-3,-6,800,1258,1430,1159,1293,1369,1071,1306,1453
592498,30896,-9948,2958,2958,-652,221,-154,210,-299,456,-60,3910,7,-10,796,1258,1430,1159,1293,1369,1071,1306,1453
593499,30900,-9952,2964,2964,-702,346,-158,211,-297,425,-78,3919,3,-4,795,1258,1430,1159,1293,1369,1071,1306,1453
594500,30892,-9948,2970,2970,-626,296,-156,212,-299,457,-21,3894,6,-10,800,1258,1430,1159,1293,1369,1071,1306,1453
595501,30892,-9948,2976,2976,-676,321,-153,215,-299,458,-82,3912,2,-1,797,1258,1430,1159,1293,1369,1071,1306,1453
596502,30896,-9936,2982,2982,-701,246,-151,213,-297,452,-41,3910,6,-10,799,1258,1430,1159,1293,1369,1071,1306,1453
597503,30888,-9940,2988,2988,-626,346,-153,210,-296,459,-74,3908,4,4,798,1258,1430,1159,1293,1369,1071,1306,1453
598504,30892,-9936,2994,2994,-701,296,-155,211,-298,438,-11,3929,7,4,795,1258,1430,1159,1293,1369,1071,1306,1453
599505,30896,-9952,3000,3000,-701,422,-155,211,-298,481,-62,3935,-5,-5,794,1258,1430,1159,1293,1369,1071,1306,1453
600506,30884,-9948,3006,3006,-600,297,-154,213,-297,437,-34,3905,-4,-4,798,1258,1430,1159,1293,1369,1071,1306,1453
601507,30884,-9948,3012,3012,-675,322,-153,213,-302,420,-37,3888,-3,-4,795,1258,1430,1159,1293,1369,1071,1306,1453
602508,30884,-9952,3018,3018,-675,347,-154,213,-300,445,-73,3888,3,1,800,1258,1430,1159,1293,1369,1071,1306,1453
603509,30884,-9952,3024,3024,-675,322,-151,208,-296,465,-66,3895,2,-8,798,1258,1430,1159,1293,1369,1071,1306,1453
604510,30896,-9940,3030,3030,-750,247,-154,211,-297,443,-33,3896,2,-5,798,1258,1430,1159,1293,1369,1071,1306,1453
605511,30896,-9940,3036,3036,-675,322,-157,212,-300,429,-57,3895,4,3,798,1258,1430,1159,1293,1369,1071,1306,1453
606512,30888,-9936,3042,3042,-624,297,-155,211,-300,413,-17,3889,2,-3,798,1258,1430,1159,1293,1369,1071,1306,1453
607513,30888,-9940,3048,3048,-674,348,-152,208,-299,452,-62,3923,2,-6,798,1258,1430,1159,1293,1369,1071,1306,1453
608514,30884,-9944,3054,3054,-649,348,-152,209,-300,418,-54,3919,-9,-1,799,1258,1430,1159,1293,1369,1071,1306,1453
609515,30892,-9948,3060,3060,-724,348,-155,209,-303,381,-46,3870,4,-1,798,1258,1430,1159,1293,1369,1071,1306,1453
610516,30876,-9944,3066,3066,-573,298,-153,211,-298,462,-57,3880,2,-9,798,1258,1430,1159,1293,1369,1071,1306,1453
611517,30888,-9944,3072,3072,-749,323,-151,210,-299,415,-33,3884,-9,-9,797,1258,1430,1159,1293,1369,1071,1306,1453
612518,30892,-9944,3078,3078,-699,323,-150,212,-300,438,-59,3893,4,4,800,1258,1430,1159,1293,1369,1071,1306,1453
613519,30896,-9944,3084,3084,-699,324,-151,212,-299,445,-51,3890,-6,4,796,1258,1430,1159,1293,1369,1071,1306,1453
614520,30896,-9948,3090,3090,-673,349,-151,213,-302,457,-25,3900,-10,-1,798,1258,1430,1159,1293,1369,1071,1306,1453
615521,30888,-9944,3096,3096,-623,299,-154,212,-300,435,-74,3874,-4,-9,794,1258,1430,1159,1293,1369,1071,1306,1453
616522,30884,-9948,3102,3102,-648,349,-153,209,-299,452,-19,3900,7,-2,794,1258,1430,1159,1293,1369,1071,1306,1453
617523,30892,-9948,3108,3108,-723,324,-153,210,-298,438,-77,3883,-5,4,799,1258,1430,1159,1293,1369,1071,1306,1453
618524,30888,-9936,3114,3114,-648,249,-154,214,-301,430,-51,3886,3,0,798,1258,1430,1159,1293,1369,1071,1306,1453
619525,30884,-9948,3120,3120,-647,400,-154,213,-301,453,-54,3891,-5,4,797,1258,1430,1159,1293,1369,1071,1306,1453
620526,30884,-9948,3126,3126,-672,325,-152,214,-300,435,-46,3887,6,-10,799,1258,1430,1159,1293,1369,1071,1306,1453
621527,30884,-9952,3132,3132,-672,350,-150,210,-301,412,-72,3896,7,-9,797,1258,1430,1159,1293,1369,1071,1306,1453
622528,30900,-9952,3138,3138,-772,325,-151,212,-303,436,-44,3923,3,-4,798,1258,1430,1159,1293,1369,1071,1306,1453
623529,30884,-9948,3144,3144,-572,300,-150,212,-301,458,-8,3907,7,2,798,1258,1430,1159,1293,1369,1071,1306,1453
624530,30888,-9944,3150,3150,-697,300,-148,209,-300,448,-42,3902,-7,-6,796,1258,1430,1159,1293,1369,1071,1306,1453
625531,30880,-9940,3156,3156,-621,300,-147,211,-303,425,-31,3897,-9,-8,801,1258,1430,1159,1293,1369,1071,1306,1453
626532,30884,-9940,3162,3162,-696,325,-150,212,-303,429,-37,3924,-5,-7,798,1258,1430,1159,1293,1369,1071,1306,1453
627533,30888,-9944,3168,3168,-696,351,-152,211,-300,450,6,3939,-9,4,799,1258,1430,1159,1293,1369,1071,1306,1453
628534,30904,-9940,3174,3174,-772,301,-153,209,-300,466,-63,3919,-2,-5,798,1258,1430,1159,1293,1369,1071,1306,1453
629535,30884,-9940,3180,3180,-546,326,-153,210,-303,446,-34,3913,1,1,797,1258,1430,1159,1293,1369,1071,1306,1453
630536,30892,-9940,3186,3186,-721,326,-151,209,-301,456,-57,3854,-1,4,796,1258,1430,1159,1293,1369,1071,1306,1453
631537,30888,-9948,3192,3192,-646,376,-151,213,-300,466,-53,3886,-9,-7,800,1258,1430,1159,1293,1369,1071,1306,1453
632538,30884,-9952,3198,3198,-645,352,-153,211,-300,446,-48,3857,-6,-10,793,1258,1430,1159,1293,1369,1071,1306,1453
633539,30884,-9944,3204,3204,-670,276,-153,211,-301,449,27,3915,1,-10,793,1258,1430,1159,1293,1369,1071,1306,1453
634540,30884,-9936,3210,3210,-670,276,-153,211,-299,447,-87,3917,6,-3,798,1258,1430,1159,1293,1369,1071,1306,1453
635541,30888,-9952,3216,3216,-695,427,-151,210,-299,457,-15,3912,2,1,799,1258,1430,1159,1293,1369,1071,1306,1453
636542,30896,-9952,3222,3222,-720,327,-150,213,-300,446,-71,3882,7,-7,799,1258,1430,1159,1293,1369,1071,1306,1453
637543,30884,-9956,3228,3228,-595,352,-150,212,-299,393,-26,3932,-1,5,796,1258,1430,1159,1293,1369,1071,1306,1453
638544,30880,-9944,3234,3234,-644,252,-153,210,-300,431,-33,3920,-7,-8,797,1258,1430,1159,1293,1369,1071,1306,1453
639545,30888,-9944,3240,3240,-719,327,-153,211,-300,452,-42,3913,-9,4,799,1258,1430,1159,1293,1369,1071,1306,1453
640546,30888,-9940,3246,3246,-669,302,-153,212,-298,456,-49,3913,5,2,800,1258,1430,1159,1293,1369,1071,1306,1453
641547,30888,-9952,3252,3252,-669,403,-151,213,-297,410,-19,3897,3,4,797,1258,1430,1159,1293,1369,1071,1306,1453
642548,30884,-9948,3258,3258,-644,303,-149,210,-300,416,-93,3873,6,-9,799,1258,1430,1159,1293,1369,1071,1306,1453
643549,30884,-9932,3264,3264,-669,228,-150,208,-300,475,-61,3867,7,-10,797,1258,1430,1159,1293,1369,1071,1306,1453
644550,30892,-9940,3270,3270,-719,378,-153,210,-298,453,-56,3876,5,5,798,1258,1430,1159,1293,1369,1071,1306,1453
645551,30880,-9944,3276,3276,-593,353,-156,214,-297,394,-38,3899,7,-6,800,1258,1430,1159,1293,1369,1071,1306,1453
646552,30896,-9940,3282,3282,-769,303,-154,215,-300,435,-93,3892,-3,2,796,1258,1430,1159,1293,1369,1071,1306,1453
647553,30884,-9944,3288,3288,-593,354,-153,213,-303,432,-43,3915,7,-5,799,1258,1430,1159,1293,1369,1071,1306,1453
648554,30888,-9948,3294,3294,-693,354,-154,209,-299,437,-15,3876,-8,-7,797,1258,1430,1159,1293,1369,1071,1306,1453
649555,30884,-9952,3300,3300,-643,354,-152,209,-297,452,-53,3877,-7,-1,796,1258,1430,1159,1293,1369,1071,1306,1453
650556,30888,-9948,3306,3306,-693,304,-152,212,-299,425,-47,3870,-6,-8,793,1258,1430,1159,1293,1369,1071,1306,1453
651557,30880,-9940,3312,3312,-618,279,-152,213,-301,413,-10,3905,7,0,798,1258,1430,1159,1293,1369,1071,1306,1453
652558,30876,-9940,3318,3318,-642,329,-153,212,-298,459,-82,3920,7,5,798,1258,1430,1159,1293,1369,1071,1306,1453
653559,30884,-9940,3324,3324,-717,329,-155,212,-299,431,-17,3911,-2,-8,799,1258,1430,1159,1293,1369,1071,1306,1453
654560,30884,-9944,3330,3330,-667,355,-154,212,-298,411,-59,3889,5,2,799,1258,1430,1159,1293,1369,1071,1306,1453
655561,30880,-9940,3336,3336,-642,305,-152,214,-297,428,-39,3905,4,2,798,1258,1430,1159,1293,1369,1071,1306,1453
656562,30884,-9952,3342,3342,-692,405,-151,210,-296,444,-62,3866,6,-4,798,1258,1430,1159,1293,1369,1071,1306,1453
657563,30888,-9944,3348,3348,-692,280,-152,212,-298,449,-56,3879,6,1,799,1258,1430,1159,1293,1369,1071,1306,1453
658564,30896,-9956,3354,3354,-717,405,-152,212,-299,417,-27,3873,0,4,796,1258,1430,1159,1293,1369,1071,1306,1453
659565,30880,-9940,3360,3360,-566,230,-152,213,-299,420,-50,3866,-9,-3,798,1258,1430,1159,1293,1369,1071,1306,1453
660566,30888,-9948,3366,3366,-716,381,-152,212,-297,417,-47,3855,7,4,796,1258,1430,1159,1293,1369,1071,1306,1453
661567,30880,-9948,3372,3372,-616,331,-152,212,-298,413,-98,3853,-9,-9,801,1258,1430,1159,1293,1369,1071,1306,1453
662568,30880,-9944,3378,3378,-666,306,-155,212,-299,396,-5,3870,4,1,796,1258,1430,1159,1293,1369,1071,1306,1453
663569,30892,-9944,3384,3384,-741,331,-155,210,-303,439,-79,3912,3,-1,799,1258,1430,1159,1293,1369,1071,1306,1453
664570,30880,-9948,3390,3390,-591,356,-154,213,-301,433,-43,3921,7,3,798,1258,1430,1159,1293,1369,1071,1306,1453
665572,30880,-9944,3396,3396,-665,306,-152,208,-298,488,-35,3908,-9,4,796,1258,1430,1159,1293,1369,1071,1306,1453
666572,30888,-9940,3402,3402,-716,306,-153,212,-297,424,-38,3908,-9,4,795,1258,1430,1159,1293,1369,1071,1306,1453
667573,30884,-9944,3408,3408,-640,356,-154,209,-301,422,-2,3870,6,-10,797,1258,1430,1159,1293,1369,1071,1306,1453
668574,30896,-9936,3414,3414,-740,281,-157,209,-303,449,-47,3893,-7,-10,798,1258,1430,1159,1293,1369,1071,1306,1453
669575,30892,-9940,3420,3420,-640,357,-156,208,-301,424,-38,3902,6,3,797,1258,1430,1159,1293,1369,1071,1306,1453
670576,30896,-9936,3426,3426,-690,307,-156,210,-302,443,-49,3941,2,-5,798,1258,1430,1159,1293,1369,1071,1306,1453
671577,30892,-9932,3432,3432,-640,307,-154,210,-301,449,-59,3930,7,2,798,1258,1430,1159,1293,1369,1071,1306,1453
672578,30880,-9952,3438,3438,-589,457,-154,208,-297,424,-67,3911,-7,-10,799,1258,1430,1159,1293,1369,1071,1306,1453
673579,30896,-9952,3444,3444,-765,333,-150,210,-296,441,-27,3905,5,-6,797,1258,1430,1159,1293,1369,1071,1306,1453
674580,30884,-9940,3450,3450,-589,257,-149,211,-301,438,-80,3903,2,-9,796,1258,1430,1159,1293,1369,1071,1306,1453
675581,30892,-9948,3456,3456,-714,383,-152,209,-301,403,-22,3895,-4,0,801,1258,1430,1159,1293,1369,1071,1306,1453
676582,30880,-9940,3462,3462,-589,283,-155,211,-298,460,-51,3896,-8,4,796,1258,1430,1159,1293,1369,1071,1306,1453
677583,30880,-9928,3468,3468,-664,258,-155,210,-296,446,-96,3881,6,-7,800,1258,1430,1159,1293,1369,1071,1306,1453
678584,30880,-9932,3474,3474,-664,358,-150,209,-303,428,-9,3917,-8,3,799,1258,1430,1159,1293,1369,1071,1306,1453
679585,30884,-9952,3480,3480,-689,458,-152,212,-300,432,-43,3902,4,3,797,1258,1430,1159,1293,1369,1071,1306,1453
680586,30888,-9940,3486,3486,-688,258,-153,210,-299,435,-24,3865,5,-5,795,1258,1430,1159,1293,1369,1071,1306,1453
681587,30880,-9948,3492,3492,-613,384,-156,210,-299,415,-46,3900,-9,1,799,1258,1430,1159,1293,1369,1071,1306,1453
682588,30880,-9944,3498,3498,-663,309,-156,210,-299,436,-15,3904,-2,-9,795,1258,1430,1159,1293,1369,1071,1306,1453
683589,30880,-9944,3504,3504,-663,334,-154,211,-295,477,-65,3878,2,-4,794,1258,1430,1159,1293,1369,1071,1306,1453
684590,30888,-9940,3510,3510,-713,309,-152,210,-299,475,-61,3906,6,-2,798,1258,1430,1159,1293,1369,1071,1306,1453
685591,30896,-9936,3516,3516,-713,309,-155,216,-303,422,-28,3916,5,1,798,1258,1430,1159,1293,1369,1071,1306,1453
686592,30872,-9948,3522,3522,-512,409,-155,214,-298,450,-62,3883,2,0,797,1258,1430,1159,1293,1369,1071,1306,1453
687593,30884,-9936,3528,3528,-737,259,-156,212,-299,470,-35,3912,6,-7,799,1258,1430,1159,1293,1369,1071,1306,1453
688594,30884,-9944,3534,3534,-662,385,-153,213,-301,447,-70,3914,7,-10,797,1258,1430,1159,1293,1369,1071,1306,1453
689595,30880,-9948,3540,3540,-637,360,-153,213,-300,426,-47,3875,4,-2,797,1258,1430,1159,1293,1369,1071,1306,1453
690596,30876,-9936,3546,3546,-637,260,-152,208,-299,450,-2,3902,6,-2,798,1258,1430,1159,1293,1369,1071,1306,1453
691597,30888,-9948,3552,3552,-737,410,-154,209,-300,439,-154,3881,7,-6,799,1258,1430,1159,1293,1369,1071,1306,1453
692598,30880,-9932,3558,3558,-612,235,-153,210,-302,433,22,3917,2,-4,795,1258,1430,1159,1293,1369,1071,1306,1453
693599,30884,-9948,3564,3564,-686,435,-152,213,-301,460,-101,3892,-1,3,801,1258,1430,1159,1293,1369,1071,1306,1453
694600,30880,-9932,3570,3570,-636,235,-149,215,-302,406,-34,3869,6,-9,795,1258,1430,1159,1293,1369,1071,1306,1453
695601,30888,-9960,3576,3576,-711,511,-149,213,-301,416,-40,3855,-8,-4,800,1258,1430,1159,1293,1369,1071,1306,1453
696602,30884,-9948,3582,3582,-636,261,-148,211,-301,449,-76,3901,6,2,793,1258,1430,1159,1293,1369,1071,1306,1453
697603,30884,-9940,3588,3588,-661,286,-152,211,-298,383,4,3879,1,3,799,1258,1430,1159,1293,1369,1071,1306,1453
698604,30880,-9944,3594,3594,-636,361,-148,209,-303,445,-90,3899,7,4,799,1258,1430,1159,1293,1369,1071,1306,1453
699605,30888,-9936,3600,3600,-711,286,-148,212,-302,423,-1,3882,3,-1,794,1258,1430,1159,1293,1369,1071,1306,1453
700606,30880,-9928,3606,3606,-610,286,-147,211,-300,461,-109,3858,4,2,794,1258,1430,1159,1293,1369,1071,1306,1453
701607,30888,-9944,3612,3612,-710,436,-151,214,-300,412,-19,3870,-9,-2,799,1258,1430,1159,1293,1369,1071,1306,1453
702608,30880,-9940,3618,3618,-610,312,-151,211,-301,450,-40,3885,-8,-3,795,1258,1430,1159,1293,1369,1071,1306,1453
703609,30876,-9940,3624,3624,-635,337,-152,212,-299,487,-116,3869,-9,-1,799,1258,1430,1159,1293,1369,1071,1306,1453
704610,30884,-9944,3630,3630,-710,362,-149,214,-298,412,-2,3902,-9,-4,798,1258,1430,1159,1293,1369,1071,1306,1453
705611,30872,-9952,3636,3636,-584,387,-150,213,-298,428,-54,3873,6,-9,796,1258,1430,1159,1293,1369,1071,1306,1453
706612,30880,-9928,3642,3642,-709,187,-150,210,-299,449,-51,3885,-9,-9,798,1258,1430,1159,1293,1369,1071,1306,1453
707613,30888,-9944,3648,3648,-710,437,-151,211,-298,409,-32,3881,7,5,799,1258,1430,1159,1293,1369,1071,1306,1453
708614,30884,-9944,3654,3654,-634,337,-148,213,-298,435,-36,3855,-8,-5,795,1258,1430,1159,1293,1369,1071,1306,1453
709615,30888,-9944,3660,3660,-684,338,-148,212,-303,472,-42,3873,-8,-9,798,1258,1430,1159,1293,1369,1071,1306,1453
710616,30888,-9944,3666,3666,-659,338,-150,213,-303,439,-85,3903,7,1,797,1258,1430,1159,1293,1369,1071,1306,1453
711617,30888,-9960,3672,3672,-659,438,-150,215,-298,428,17,3869,6,-2,797,1258,1430,1159,1293,1369,1071,1306,1453
712618,30876,-9948,3678,3678,-584,263,-151,211,-299,464,-111,3865,5,-9,796,1258,1430,1159,1293,1369,1071,1306,1453
713619,30884,-9932,3684,3684,-709,238,-152,211,-301,418,-37,3926,7,2,800,1258,1430,1159,1293,1369,1071,1306,1453
714620,30884,-9936,3690,3690,-658,363,-153,212,-300,415,-52,3920,-9,-9,798,1258,1430,1159,1293,1369,1071,1306,1453
715621,30888,-9932,3696,3696,-683,313,-152,211,-297,462,-59,3904,4,-10,797,1258,1430,1159,1293,1369,1071,1306,1453
716622,30896,-9948,3702,3702,-708,439,-148,210,-299,454,-70,3899,-1,-8,795,1258,1430,1159,1293,1369,1071,1306,1453
717623,30888,-9944,3708,3708,-608,314,-150,214,-300,399,-70,3903,0,-10,791,1258,1430,1159,1293,1369,1071,1306,1453
718624,30880,-9928,3714,3714,-608,239,-154,215,-300,445,-32,3915,-9,-9,799,1258,1430,1159,1293,1369,1071,1306,1453
719625,30888,-9936,3720,3720,-708,389,-153,213,-297,482,-63,3882,5,-9,800,1258,1430,1159,1293,1369,1071,1306,1453
720626,30884,-9944,3726,3726,-633,389,-153,215,-299,416,4,3904,-6,-10,795,1258,1430,1159,1293,1369,1071,1306,1453
721627,30880,-9940,3732,3732,-632,314,-151,213,-299,440,-64,3858,-9,-9,797,1258,1430,1159,1293,1369,1071,1306,1453
722628,30876,-9940,3738,3738,-632,339,-153,212,-298,451,-41,3869,7,2,798,1258,1430,1159,1293,1369,1071,1306,1453
723629,30880,-9928,3744,3744,-682,264,-155,211,-294,462,-22,3900,0,-7,798,1258,1430,1159,1293,1369,1071,1306,1453
724630,30892,-9944,3750,3750,-732,440,-156,212,-294,467,-60,3897,-1,-7,798,1258,1430,1159,1293,1369,1071,1306,1453
725631,30892,-9944,3756,3756,-657,340,-155,214,-298,415,-39,3906,-4,-11,794,1258,1430,1159,1293,1369,1071,1306,1453
726632,30884,-9940,3762,3762,-607,315,-154,215,-303,418,-38,3915,-7,-7,798,1258,1430,1159,1293,1369,1071,1306,1453
727633,30888,-9952,3768,3768,-682,415,-153,209,-303,474,-59,3897,3,-3,799,1258,1430,1159,1293,1369,1071,1306,1453
728634,30884,-9936,3774,3774,-631,240,-153,208,-297,459,-15,3936,-1,-10,795,1258,1430,1159,1293,1369,1071,1306,1453
729635,30884,-9940,3780,3780,-656,365,-155,211,-294,435,-67,3940,5,-4,799,1258,1430,1159,1293,1369,1071,1306,1453
730636,30880,-9944,3786,3786,-631,366,-155,212,-299,408,-38,3870,3,-2,797,1258,1430,1159,1293,1369,1071,1306,1453
731637,30896,-9940,3792,3792,-756,316,-153,211,-303,459,-45,3878,3,-4,797,1258,1430,1159,1293,1369,1071,1306,1453
732638,30872,-9940,3798,3798,-505,341,-152,209,-298,484,-73,3870,-3,-4,796,1258,1430,1159,1293,1369,1071,1306,1453
733639,30884,-9944,3804,3804,-731,366,-155,208,-299,394,16,3897,-7,4,798,1258,1430,1159,1293,1369,1071,1306,1453
734640,30884,-9932,3810,3810,-655,266,-153,209,-302,437,-67,3930,-1,4,792,1258,1430,1159,1293,1369,1071,1306,1453
735641,30884,-9948,3816,3816,-655,442,-154,213,-301,437,-56,3895,6,3,798,1258,1430,1159,1293,1369,1071,1306,1453
736642,30892,-9936,3822,3822,-705,266,-151,212,-301,421,22,3933,7,-8,795,1258,1430,1159,1293,1369,1071,1306,1453
737643,30892,-9940,3828,3828,-655,367,-154,213,-300,409,-122,3939,7,4,797,1258,1430,1159,1293,1369,1071,1306,1453
738644,30888,-9936,3834,3834,-630,317,-153,207,-299,448,10,3915,1,-10,797,1258,1430,1159,1293,1369,1071,1306,1453
739645,30888,-9936,3840,3840,-655,342,-154,213,-296,464,-31,3919,6,-3,798,1258,1430,1159,1293,1369,1071,1306,1453
740646,30888,-9948,3846,3846,-655,417,-152,213,-297,455,-71,3900,-1,-8,797,1258,1430,1159,1293,1369,1071,1306,1453
741647,30880,-9928,3852,3852,-604,217,-150,212,-302,402,-29,3892,7,-3,796,1258,1430,1159,1293,1369,1071,1306,1453
742648,30880,-9940,3858,3858,-654,417,-149,209,-303,448,-79,3907,2,-2,800,1258,1430,1159,1293,1369,1071,1306,1453
743649,30884,-9936,3864,3864,-679,317,-153,210,-300,434,-35,3881,-9,-10,796,1258,1430,1159,1293,1369,1071,1306,1453
744650,30884,-9940,3870,3870,-654,368,-155,209,-301,433,-55,3871,6,-10,797,1258,1430,1159,1293,1369,1071,1306,1453
745651,30884,-9948,3876,3876,-654,393,-156,208,-306,431,-95,3915,4,0,797,1258,1430,1159,1293,1369,1071,1306,1453
746652,30888,-9936,3882,3882,-679,268,-155,212,-302,450,12,3908,0,-9,796,1258,1430,1159,1293,1369,1071,1306,1453
747653,30880,-9936,3888,3888,-603,343,-152,212,-299,504,-70,3920,7,-1,798,1258,1430,1159,1293,1369,1071,1306,1453
748654,30880,-9948,3894,3894,-653,418,-152,212,-298,421,16,3875,4,3,798,1258,1430,1159,1293,1369,1071,1306,1453
749655,30880,-9936,3900,3900,-653,268,-151,211,-300,447,-66,3901,5,-10,795,1258,1430,1159,1293,1369,1071,1306,1453
750656,30888,-9924,3906,3906,-703,268,-151,211,-301,448,-51,3887,-7,-5,796,1258,1430,1159,1293,1369,1071,1306,1453
751657,30884,-9936,3912,3912,-628,419,-150,212,-301,424,6,3889,3,-9,794,1258,1430,1159,1293,1369,1071,1306,1453
752658,30888,-9936,3918,3918,-678,344,-153,213,-302,482,-56,3929,6,-9,796,1258,1430,1159,1293,1369,1071,1306,1453
753659,30884,-9936,3924,3924,-628,344,-152,208,-300,427,-57,3926,0,-10,796,1258,1430,1159,1293,1369,1071,1306,1453
754660,30884,-9928,3930,3930,-653,294,-151,208,-302,400,-26,3877,3,-7,797,1258,1430,1159,1293,1369,1071,1306,1453
755661,30884,-9932,3936,3936,-652,369,-152,211,-302,470,-42,3875,6,-4,798,1258,1430,1159,1293,1369,1071,1306,1453
756662,30884,-9936,3942,3942,-652,369,-150,209,-299,476,-92,3877,-3,-4,796,1258,1430,1159,1293,1369,1071,1306,1453
757663,30880,-9944,3948,3948,-627,395,-151,213,-299,373,-32,3937,7,1,797,1258,1430,1159,1293,1369,1071,1306,1453
758664,30888,-9944,3954,3954,-702,345,-151,212,-302,405,-38,3924,7,-8,796,1258,1430,1159,1293,1369,1071,1306,1453
759665,30880,-9940,3960,3960,-602,320,-150,208,-302,441,-63,3871,-5,-5,796,1258,1430,1159,1293,1369,1071,1306,1453
760666,30880,-9940,3966,3966,-652,345,-149,208,-301,433,-62,3921,3,-1,798,1258,1430,1159,1293,1369,1071,1306,1453
761667,30876,-9940,3972,3972,-626,345,-151,215,-300,407,-36,3892,5,4,797,1258,1430,1159,1293,1369,1071,1306,1453
762668,30884,-9932,3978,3978,-701,295,-151,214,-302,424,-45,3860,6,3,797,1258,1430,1159,1293,1369,1071,1306,1453
763669,30880,-9944,3984,3984,-626,421,-149,211,-302,448,-47,3905,-4,-4,797,1258,1430,1159,1293,1369,1071,1306,1453
764670,30888,-9936,3990,3990,-701,295,-150,209,-297,475,-55,3885,-6,-1,796,1258,1430,1159,1293,1369,1071,1306,1453
765671,30880,-9944,3996,3996,-601,396,-152,211,-297,451,-25,3884,-9,-8,796,1258,1430,1159,1293,1369,1071,1306,1453
766672,30876,-9952,4002,4002,-626,396,-152,212,-301,447,-47,3900,-10,2,796,1258,1430,1159,1293,1369,1071,1306,1453
767673,30880,-9936,4008,4008,-676,246,-152,213,-300,474,-34,3916,6,-6,795,1258,1430,1159,1293,1369,1071,1306,1453
768674,30880,-9928,4014,4014,-650,296,-151,209,-297,452,-76,3905,-6,-6,795,1258,1430,1159,1293,1369,1071,1306,1453
769675,30880,-9940,4020,4020,-650,421,-151,212,-300,415,0,3916,6,0,798,1258,1430,1159,1293,1369,1071,1306,1453
770676,30884,-9932,4026,4026,-675,296,-151,213,-302,462,-104,3894,7,1,796,1258,1430,1159,1293,1369,1071,1306,1453
771677,30884,-9936,4032,4032,-650,372,-152,212,-300,469,-78,3921,-2,-2,797,1258,1430,1159,1293,1369,1071,1306,1453
772678,30880,-9940,4038,4038,-625,372,-152,211,-298,413,-34,3931,6,2,796,1258,1430,1159,1293,1369,1071,1306,1453
773679,30884,-9944,4044,4044,-675,372,-151,213,-299,442,-55,3902,-5,4,797,1258,1430,1159,1293,1369,1071,1306,1453
774680,30884,-9932,4050,4050,-650,272,-149,211,-297,453,-61,3877,-3,-10,796,1258,1430,1159,1293,1369,1071,1306,1453
775681,30892,-9932,4056,4056,-700,347,-151,215,-298,397,-45,3900,2,-10,798,1258,1430,1159,1293,1369,1071,1306,1453
776682,30888,-9940,4062,4062,-624,397,-152,213,-299,426,-52,3909,7,-5,796,1258,1430,1159,1293,1369,1071,1306,1453
777683,30868,-9948,4068,4068,-524,398,-153,210,-301,456,-67,3905,2,-1,797,1258,1430,1159,1293,1369,1071,1306,1453
778684,30880,-9940,4074,4074,-724,298,-155,210,-297,435,-43,3898,-7,-8,799,1258,1430,1159,1293,1369,1071,1306,1453
779685,30888,-9940,4080,4080,-699,348,-157,214,-296,398,-39,3900,6,-4,797,1258,1430,1159,1293,1369,1071,1306,1453
780686,30888,-9940,4086,4086,-649,348,-156,214,-297,427,-16,3854,-5,-10,796,1258,1430,1159,1293,1369,1071,1306,1453
781687,30880,-9932,4092,4092,-599,298,-151,211,-298,451,-12,3859,-5,-2,797,1258,1430,1159,1293,1369,1071,1306,1453
782688,30884,-9948,4098,4098,-673,448,-149,211,-298,406,-60,3903,6,-10,799,1258,1430,1159,1293,1369,1071,1306,1453
783689,30880,-9924,4104,4104,-623,198,-149,209,-300,440,-1,3918,-9,4,795,1258,1430,1159,1293,1369,1071,1306,1453
784690,30876,-9952,4110,4110,-623,524,-152,210,-299,493,-53,3871,7,5,800,1258,1430,1159,1293,1369,1071,1306,1453
785691,30884,-9936,4116,4116,-698,249,-155,213,-298,448,-34,3921,-5,-9,791,1258,1430,1159,1293,1369,1071,1306,1453
786692,30880,-9940,4122,4122,-623,374,-156,214,-299,426,-29,3944,-8,5,798,1258,1430,1159,1293,1369,1071,1306,1453
787693,30880,-9944,4128,4128,-648,374,-154,208,-301,458,-65,3916,-9,3,797,1258,1430,1159,1293,1369,1071,1306,1453
788694,30876,-9928,4134,4134,-622,249,-155,209,-298,406,28,3915,-8,-10,797,1258,1430,1159,1293,1369,1071,1306,1453
789695,30888,-9936,4140,4140,-723,399,-153,208,-294,493,-97,3905,6,-10,799,1258,1430,1159,1293,1369,1071,1306,1453
790696,30876,-9936,4146,4146,-572,349,-152,211,-298,427,1,3949,-8,-3,795,1258,1430,1159,1293,1369,1071,1306,1453
791697,30872,-9940,4152,4152,-622,375,-152,210,-300,438,-47,3886,-8,-8,799,1258,1430,1159,1293,1369,1071,1306,1453
792698,30892,-9932,4158,4158,-772,299,-154,211,-300,451,-64,3899,6,-7,797,1258,1430,1159,1293,1369,1071,1306,1453
793699,30888,-9936,4164,4164,-622,375,-154,209,-298,402,-12,3910,-1,4,796,1258,1430,1159,1293,1369,1071,1306,1453
794700,30880,-9940,4170,4170,-597,375,-157,210,-298,449,-51,3943,-5,-2,797,1258,1430,1159,1293,1369,1071,1306,1453
795701,30876,-9940,4176,4176,-621,350,-155,210,-298,408,-34,3908,-7,-9,798,1258,1430,1159,1293,1369,1071,1306,1453
796702,30872,-9940,4182,4182,-621,350,-153,211,-299,447,-120,3940,6,-6,798,1258,1430,1159,1293,1369,1071,1306,1453
797703,30892,-9940,4188,4188,-771,350,-153,210,-303,464,-18,3893,1,-10,798,1258,1430,1159,1293,1369,1071,1306,1453
798704,30872,-9944,4194,4194,-521,376,-154,211,-302,447,-58,3869,-6,-10,795,1258,1430,1159,1293,1369,1071,1306,1453
799705,30880,-9948,4200,4200,-696,376,-153,212,-299,441,-50,3906,-6,-9,799,1258,1430,1159,1293,1369,1071,1306,1453
800706,30884,-9936,4206,4206,-671,276,-151,210,-299,428,-44,3865,-4,-7,796,1258,1430,1159,1293,1369,1071,1306,1453
801707,30872,-9936,4212,4212,-570,351,-155,207,-301,437,-77,3872,4,-5,798,1258,1430,1159,1293,1369,1071,1306,1453
802708,30876,-9936,4218,4218,-670,351,-154,205,-300,453,29,3887,7,5,795,1258,1430,1159,1293,1369,1071,1306,1453
803709,30880,-9924,4224,4224,-670,276,-154,211,-299,428,-136,3906,-1,-8,797,1258,1430,1159,1293,1369,1071,1306,1453
804710,30876,-9932,4230,4230,-620,401,-155,210,-302,429,-41,3863,7,-6,798,1258,1430,1159,1293,1369,1071,1306,1453
805711,30880,-9940,4236,4236,-670,402,-156,212,-300,454,-36,3888,7,4,797,1258,1430,1159,1293,1369,1071,1306,1453
806712,30884,-9940,4242,4242,-670,352,-152,210,-296,454,-80,3864,-7,-1,797,1258,1430,1159,1293,1369,1071,1306,1453
807713,30876,-9932,4248,4248,-595,302,-152,210,-300,423,-28,3852,4,-10,797,1258,1430,1159,1293,1369,1071,1306,1453
808714,30864,-9928,4254,4254,-569,327,-155,211,-303,452,-40,3862,4,-2,799,1258,1430,1159,1293,1369,1071,1306,1453
809715,30880,-9932,4260,4260,-744,377,-156,213,-300,460,-84,3852,4,-10,799,1258,1430,1159,1293,1369,1071,1306,1453
810716,30884,-9936,4266,4266,-669,377,-154,212,-299,455,-56,3872,-7,-1,795,1258,1430,1159,1293,1369,1071,1306,1453
811717,30880,-9940,4272,4272,-619,377,-152,211,-303,455,-53,3910,-10,-10,797,1258,1430,1159,1293,1369,1071,1306,1453
812718,30880,-9928,4278,4278,-644,277,-150,210,-303,451,-53,3873,7,-10,798,1258,1430,1159,1293,1369,1071,1306,1453
813719,30880,-9928,4284,4284,-644,352,-151,209,-299,460,-87,3913,-5,-9,799,1258,1430,1159,1293,1369,1071,1306,1453
814720,30876,-9940,4290,4290,-619,428,-152,212,-300,450,-23,3938,7,3,798,1258,1430,1159,1293,1369,1071,1306,1453
815721,30876,-9936,4296,4296,-643,328,-152,212,-304,419,-43,3908,5,-4,797,1258,1430,1159,1293,1369,1071,1306,1453
816722,30884,-9932,4302,4302,-693,328,-151,209,-303,445,-61,3891,-8,0,798,1258,1430,1159,1293,1369,1071,1306,1453
817723,30872,-9932,4308,4308,-568,353,-153,208,-300,443,-40,3865,1,-6,797,1258,1430,1159,1293,1369,1071,1306,1453
818724,30868,-9928,4314,4314,-618,328,-155,212,-300,468,-57,3903,-9,3,802,1258,1430,1159,1293,1369,1071,1306,1453
819725,30872,-9928,4320,4320,-668,353,-154,212,-303,423,-64,3916,-7,-10,795,1258,1430,1159,1293,1369,1071,1306,1453
820726,30872,-9936,4326,4326,-643,404,-151,212,-301,408,-28,3904,-9,0,798,1258,1430,1159,1293,1369,1071,1306,1453
821727,30864,-9936,4332,4332,-592,354,-149,211,-300,469,-41,3880,7,-9,797,1258,1430,1159,1293,1369,1071,1306,1453
822728,30880,-9928,4338,4338,-742,304,-152,210,-301,443,-74,3903,6,-6,799,1258,1430,1159,1293,1369,1071,1306,1453
823729,30884,-9936,4344,4344,-667,404,-154,210,-301,435,-55,3933,-7,-8,797,1258,1430,1159,1293,1369,1071,1306,1453
824730,30876,-9928,4350,4350,-592,304,-155,211,-301,449,-46,3920,-4,-5,797,1258,1430,1159,1293,1369,1071,1306,1453
825731,30880,-9940,4356,4356,-667,430,-149,209,-303,447,-52,3904,5,-8,800,1258,1430,1159,1293,1369,1071,1306,1453
826732,30880,-9944,4362,4362,-642,380,-147,209,-304,434,-75,3922,-7,1,797,1258,1430,1159,1293,1369,1071,1306,1453
827733,30872,-9940,4368,4368,-592,330,-149,211,-300,466,-5,3906,7,-10,798,1258,1430,1159,1293,1369,1071,1306,1453
828734,30880,-9936,4374,4374,-692,330,-150,212,-299,448,-70,3900,7,-10,800,1258,1430,1159,1293,1369,1071,1306,1453
829735,30880,-9932,4380,4380,-641,330,-151,215,-300,379,-18,3943,-3,-4,798,1258,1430,1159,1293,1369,1071,1306,1453
830736,30888,-9948,4386,4386,-692,455,-151,212,-300,443,-66,3894,-8,1,799,1258,1430,1159,1293,1369,1071,1306,1453
831737,30880,-9928,4392,4392,-591,230,-152,212,-298,418,-41,3888,6,-3,795,1258,1430,1159,1293,1369,1071,1306,1453
832738,30892,-9944,4398,4398,-716,456,-152,213,-298,405,-20,3892,-2,4,802,1258,1430,1159,1293,1369,1071,1306,1453
833739,30880,-9940,4404,4404,-566,331,-153,216,-300,445,-38,3917,-9,-4,795,1258,1430,1159,1293,1369,1071,1306,1453
834740,30884,-9944,4410,4410,-666,381,-153,211,-298,449,-17,3906,7,5,800,1258,1430,1159,1293,1369,1071,1306,1453
835741,30872,-9940,4416,4416,-565,331,-152,208,-297,432,-94,3888,-8,-10,797,1258,1430,1159,1293,1369,1071,1306,1453
836742,30868,-9936,4422,4422,-615,331,-153,213,-301,407,-11,3873,6,-1,797,1258,1430,1159,1293,1369,1071,1306,1453
837743,30872,-9936,4428,4428,-665,356,-151,213,-299,491,-52,3915,0,-6,799,1258,1430,1159,1293,1369,1071,1306,1453
838744,30872,-9932,4434,4434,-640,331,-154,214,-294,422,-60,3915,-4,-1,798,1258,1430,1159,1293,1369,1071,1306,1453
839745,30880,-9940,4440,4440,-690,407,-153,213,-296,407,-19,3895,6,-10,799,1258,1430,1159,1293,1369,1071,1306,1453
840746,30900,-9936,4446,4446,-765,332,-156,216,-299,426,-47,3910,7,-9,796,1258,1430,1159,1293,1369,1071,1306,1453
841747,30880,-9944,4452,4452,-515,407,-153,212,-296,441,-11,3893,-9,-9,796,1258,1430,1159,1293,1369,1071,1306,1453
842748,30880,-9944,4458,4458,-640,357,-152,212,-298,436,-64,3872,-8,-5,799,1258,1430,1159,1293,1369,1071,1306,1453
843749,30888,-9940,4464,4464,-690,332,-152,214,-298,437,-42,3867,0,-10,798,1258,1430,1159,1293,1369,1071,1306,1453
844750,30884,-9936,4470,4470,-614,332,-153,212,-299,440,-127,3911,7,-1,798,1258,1430,1159,1293,1369,1071,1306,1453
845751,30880,-9928,4476,4476,-614,307,-153,213,-298,473,32,3930,-10,1,799,1258,1430,1159,1293,1369,1071,1306,1453
846752,30880,-9928,4482,4482,-639,357,-153,212,-299,440,-103,3916,-5,-3,799,1258,1430,1159,1293,1369,1071,1306,1453
847753,30880,-9928,4488,4488,-639,357,-154,210,-300,433,-56,3880,1,4,798,1258,1430,1159,1293,1369,1071,1306,1453
848754,30880,-9936,4494,4494,-639,408,-154,210,-298,424,-46,3892,6,-9,799,1258,1430,1159,1293,1369,1071,1306,1453
849755,30880,-9936,4500,4500,-639,358,-153,214,-298,421,-41,3869,7,-10,797,1258,1430,1159,1293,1369,1071,1306,1453
850756,30872,-9928,4506,4506,-588,308,-152,212,-300,386,-10,3866,6,-7,798,1258,1430,1159,1293,1369,1071,1306,1453
851757,30880,-9936,4512,4512,-688,408,-151,213,-299,466,-45,3901,7,3,800,1258,1430,1159,1293,1369,1071,1306,1453
852758,30868,-9928,4518,4518,-563,308,-152,214,-297,441,-37,3905,-8,-10,796,1258,1430,1159,1293,1369,1071,1306,1453
853759,30884,-9936,4524,4524,-738,409,-152,212,-298,423,-79,3898,-7,-4,796,1258,1430,1159,1293,1369,1071,1306,1453
854760,30876,-9944,4530,4530,-588,409,-152,212,-301,426,-72,3876,-9,-10,795,1258,1430,1159,1293,1369,1071,1306,1453
855761,30880,-9936,4536,4536,-663,309,-155,212,-300,435,-75,3860,-9,-3,798,1258,1430,1159,1293,1369,1071,1306,1453
856762,30876,-9928,4542,4542,-612,309,-154,213,-299,449,-66,3879,-8,-5,799,1258,1430,1159,1293,1369,1071,1306,1453
857763,30876,-9924,4548,4548,-637,334,-156,213,-299,387,-49,3903,6,-10,800,1258,1430,1159,1293,1369,1071,1306,1453
858764,30884,-9944,4554,4554,-687,484,-153,208,-300,463,-29,3886,-3,2,799,1258,1430,1159,1293,1369,1071,1306,1453
859765,30880,-9940,4560,4560,-612,335,-153,208,-301,415,-67,3918,7,-7,795,1258,1430,1159,1293,1369,1071,1306,1453
860766,30884,-9928,4566,4566,-662,284,-151,210,-302,396,-16,3930,-8,1,799,1258,1430,1159,1293,1369,1071,1306,1453
861767,30884,-9928,4572,4572,-637,360,-152,213,-301,456,-64,3942,-1,-9,799,1258,1430,1159,1293,1369,1071,1306,1453
862768,30876,-9916,4578,4578,-587,284,-151,212,-296,468,-5,3895,2,4,798,1258,1430,1159,1293,1369,1071,1306,1453
863769,30876,-9936,4584,4584,-636,485,-150,210,-295,441,-84,3895,6,3,800,1258,1430,1159,1293,1369,1071,1306,1453
864770,30888,-9936,4590,4590,-712,360,-151,209,-301,405,-47,3924,-9,2,796,1258,1430,1159,1293,1369,1071,1306,1453
865771,30872,-9932,4596,4596,-536,335,-150,208,-302,427,-3,3915,6,-5,797,1258,1430,1159,1293,1369,1071,1306,1453
866772,30876,-9928,4602,4602,-661,335,-151,208,-301,465,-60,3927,4,-5,801,1258,1430,1159,1293,1369,1071,1306,1453
867773,30884,-9932,4608,4608,-686,385,-153,210,-301,417,-6,3936,4,-5,798,1258,1430,1159,1293,1369,1071,1306,1453
868774,30880,-9940,4614,4614,-611,411,-153,211,-302,456,-84,3902,6,2,797,1258,1430,1159,1293,1369,1071,1306,1453
869775,30864,-9928,4620,4620,-535,286,-150,211,-301,441,-9,3905,2,-10,798,1258,1430,1159,1293,1369,1071,1306,1453
870776,30868,-9928,4626,4626,-660,361,-150,210,-298,416,-73,3919,-9,-1,797,1258,1430,1159,1293,1369,1071,1306,1453
871777,30888,-9932,4632,4632,-761,386,-154,207,-301,446,-70,3936,-9,2,798,1258,1430,1159,1293,1369,1071,1306,1453
872778,30880,-9916,4638,4638,-585,261,-156,208,-300,459,-12,3909,4,-5,795,1258,1430,1159,1293,1369,1071,1306,1453
873779,30872,-9928,4644,4644,-585,436,-154,211,-303,437,-33,3884,-5,-10,801,1258,1430,1159,1293,1369,1071,1306,1453
874780,30880,-9928,4650,4650,-685,361,-152,209,-303,415,-36,3881,7,0,798,1258,1430,1159,1293,1369,1071,1306,1453
875781,30876,-9940,4656,4656,-610,437,-153,212,-301,492,-74,3878,-9,-8,797,1258,1430,1159,1293,1369,1071,1306,1453
876782,30888,-9928,4662,4662,-710,287,-153,210,-298,439,-22,3910,-4,-9,797,1258,1430,1159,1293,1369,1071,1306,1453
877783,30880,-9916,4668,4668,-584,287,-153,211,-298,403,-30,3938,-2,-7,798,1258,1430,1159,1293,1369,1071,1306,1453
878784,30880,-9928,4674,4674,-634,437,-153,210,-303,491,-111,3937,4,0,801,1258,1430,1159,1293,1369,1071,1306,1453
879785,30868,-9936,4680,4680,-559,412,-152,212,-303,483,-31,3892,-9,-6,797,1258,1430,1159,1293,1369,1071,1306,1453
880786,30888,-9920,4686,4686,-759,262,-151,209,-297,400,-108,3895,1,-3,799,1258,1430,1159,1293,1369,1071,1306,1453
881787,30872,-9924,4692,4692,-534,387,-154,208,-298,378,-16,3931,-9,-9,798,1258,1430,1159,1293,1369,1071,1306,1453
882788,30872,-9932,4698,4698,-634,413,-153,207,-299,481,-40,3855,4,-9,799,1258,1430,1159,1293,1369,1071,1306,1453
883789,30876,-9932,4704,4704,-658,363,-153,211,-296,504,-64,3889,-8,-7,798,1258,1430,1159,1293,1369,1071,1306,1453
884790,30872,-9936,4710,4710,-608,388,-155,211,-295,386,-114,3903,7,-7,798,1258,1430,1159,1293,1369,1071,1306,1453
885791,30884,-9928,4716,4716,-708,313,-153,214,-304,405,28,3896,0,-2,798,1258,1430,1159,1293,1369,1071,1306,1453
886792,30880,-9928,4722,4722,-608,363,-152,214,-303,483,-57,3880,6,-10,798,1258,1430,1159,1293,1369,1071,1306,1453
887793,30884,-9916,4728,4728,-658,288,-151,212,-298,460,-35,3903,-6,4,795,1258,1430,1159,1293,1369,1071,1306,1453
888794,30872,-9920,4734,4734,-558,388,-153,213,-298,397,-33,3886,-4,-7,799,1258,1430,1159,1293,1369,1071,1306,1453
889795,30880,-9932,4740,4740,-683,439,-152,215,-302,430,-56,3872,5,4,799,1258,1430,1159,1293,1369,1071,1306,1453
890796,30868,-9920,4746,4746,-557,289,-152,215,-299,453,4,3870,-10,-9,796,1258,1430,1159,1293,1369,1071,1306,1453
891797,30876,-9924,4752,4752,-682,389,-151,212,-298,472,-83,3891,-6,0,801,1258,1430,1159,1293,1369,1071,1306,1453
892798,30880,-9928,4758,4758,-657,389,-153,214,-302,420,-9,3928,-9,5,797,1258,1430,1159,1293,1369,1071,1306,1453
893799,30880,-9924,4764,4764,-632,339,-153,213,-302,430,-81,3874,-6,-10,798,1258,1430,1159,1293,1369,1071,1306,1453
894800,30880,-9928,4770,4770,-632,389,-153,211,-300,445,-26,3873,1,-4,799,1258,1430,1159,1293,1369,1071,1306,1453
895801,30872,-9928,4776,4776,-582,364,-152,213,-298,407,-68,3898,3,-1,798,1258,1430,1159,1293,1369,1071,1306,1453
896802,30884,-9932,4782,4782,-707,390,-153,212,-300,448,-51,3900,5,-9,799,1258,1430,1159,1293,1369,1071,1306,1453
897803,30876,-9936,4788,4788,-581,390,-154,210,-301,457,-70,3867,-9,4,797,1258,1430,1159,1293,1369,1071,1306,1453
898804,30864,-9932,4794,4794,-556,340,-152,213,-300,418,-22,3879,-9,-9,799,1258,1430,1159,1293,1369,1071,1306,1453
899805,30876,-9948,4800,4800,-706,466,-150,215,-299,445,-34,3876,4,-10,800,1258,1430,1159,1293,1369,1071,1306,1453
900806,30868,-9940,4806,4806,-581,316,-151,215,-299,453,-50,3863,2,-6,795,1258,1430,1159,1293,1369,1071,1306,1453
901807,30872,-9932,4812,4812,-656,315,-150,213,-296,445,-40,3892,3,0,800,1258,1430,1159,1293,1369,1071,1306,1453
902808,30888,-9936,4818,4818,-731,391,-149,213,-297,405,-53,3936,-9,3,799,1258,1430,1159,1293,1369,1071,1306,1453
903809,30880,-9936,4824,4824,-581,366,-150,213,-301,425,-41,3919,6,-8,796,1258,1430,1159,1293,1369,1071,1306,1453
904810,30872,-9920,4830,4830,-580,266,-151,211,-299,460,-78,3900,-9,-8,795,1258,1430,1159,1293,1369,1071,1306,1453
905811,30868,-9936,4836,4836,-605,466,-152,210,-296,396,-46,3913,-6,4,801,1258,1430,1159,1293,1369,1071,1306,1453
906812,30872,-9932,4842,4842,-655,341,-154,210,-296,432,-49,3926,5,4,797,1258,1430,1159,1293,1369,1071,1306,1453
907813,30872,-9936,4848,4848,-630,391,-152,208,-298,465,-45,3903,-5,1,798,1258,1430,1159,1293,1369,1071,1306,1453
908814,30880,-9928,4854,4854,-680,316,-152,208,-299,414,-68,3921,3,0,798,1258,1430,1159,1293,1369,1071,1306,1453
909815,30876,-9928,4860,4860,-605,367,-156,211,-302,421,-35,3902,4,-10,798,1258,1430,1159,1293,1369,1071,1306,1453
910816,30880,-9928,4866,4866,-655,367,-156,210,-300,497,-89,3854,-5,-3,799,1258,1430,1159,1293,1369,1071,1306,1453
911817,30868,-9920,4872,4872,-554,317,-155,210,-298,474,-30,3909,-9,-1,798,1258,1430,1159,1293,1369,1071,1306,1453
912818,30872,-9932,4878,4878,-654,442,-151,210,-298,421,-78,3942,-5,-1,801,1258,1430,1159,1293,1369,1071,1306,1453
913819,30888,-9928,4884,4884,-729,342,-153,213,-298,461,-45,3932,-6,-1,797,1258,1430,1159,1293,1369,1071,1306,1453
914820,30872,-9932,4890,4890,-529,392,-154,209,-297,472,-75,3877,-1,5,797,1258,1430,1159,1293,1369,1071,1306,1453
915821,30880,-9912,4896,4896,-679,242,-152,210,-298,438,-39,3874,-9,-7,799,1258,1430,1159,1293,1369,1071,1306,1453
916822,30876,-9932,4902,4902,-604,493,-151,211,-299,389,-21,3830,1,-7,799,1258,1430,1159,1293,1369,1071,1306,1453
917823,30868,-9916,4908,4908,-578,267,-150,209,-300,443,-90,3876,-1,-7,796,1258,1430,1159,1293,1369,1071,1306,1453
918824,30888,-9924,4914,4914,-754,418,-149,208,-298,449,13,3880,1,-1,801,1258,1430,1159,1293,1369,1071,1306,1453
919825,30868,-9928,4920,4920,-503,393,-151,209,-296,416,-99,3897,6,3,795,1258,1430,1159,1293,1369,1071,1306,1453
920826,30868,-9928,4926,4926,-628,368,-153,207,-300,433,16,3922,-8,-9,800,1258,1430,1159,1293,1369,1071,1306,1453
921827,30876,-9936,4932,4932,-678,418,-152,205,-302,483,-94,3910,-2,-10,794,1258,1430,1159,1293,1369,1071,1306,1453
922828,30868,-9932,4938,4938,-578,344,-153,215,-297,404,-44,3899,4,-5,796,1258,1430,1159,1293,1369,1071,1306,1453
923829,30868,-9936,4944,4944,-627,394,-154,211,-297,425,18,3844,1,-10,799,1258,1430,1159,1293,1369,1071,1306,1453
924830,30872,-9924,4950,4950,-652,294,-155,213,-302,469,-77,3886,-8,-10,798,1258,1430,1159,1293,1369,1071,1306,1453
925831,30884,-9924,4956,4956,-703,369,-153,207,-302,429,-5,3891,2,-10,799,1258,1430,1159,1293,1369,1071,1306,1453
926832,30876,-9924,4962,4962,-577,369,-155,208,-299,483,-38,3870,2,3,797,1258,1430,1159,1293,1369,1071,1306,1453
927833,30872,-9932,4968,4968,-602,419,-155,212,-300,442,-31,3875,7,-10,799,1258,1430,1159,1293,1369,1071,1306,1453
928834,30880,-9924,4974,4974,-677,319,-154,213,-302,458,-68,3895,-7,1,798,1258,1430,1159,1293,1369,1071,1306,1453
929835,30876,-9932,4980,4980,-602,420,-155,213,-296,437,-30,3881,-3,-7,799,1258,1430,1159,1293,1369,1071,1306,1453
930836,30872,-9928,4986,4986,-601,345,-155,210,-297,454,-13,3936,6,-10,798,1258,1430,1159,1293,1369,1071,1306,1453
931837,30876,-9932,4992,4992,-651,395,-153,212,-303,433,-67,3936,-6,-10,799,1258,1430,1159,1293,1369,1071,1306,1453
932838,30876,-9936,4998,4998,-626,395,-152,209,-303,454,-37,3900,-9,-10,798,1258,1430,1159,1293,1369,1071,1306,1453
933839,30872,-9924,5004,5004,-601,295,-152,212,-299,454,-25,3892,7,-8,798,1258,1430,1159,1293,1369,1071,1306,1453
934840,30880,-9932,5010,5010,-676,420,-150,210,-299,430,-78,3894,-6,-11,800,1258,1430,1159,1293,1369,1071,1306,1453
935841,30876,-9928,5016,5016,-601,345,-153,213,-304,423,-24,3905,-4,-6,797,1258,1430,1159,1293,1369,1071,1306,1453
936842,30880,-9928,5022,5022,-651,370,-153,211,-300,453,-62,3875,5,-9,799,1258,1430,1159,1293,1369,1071,1306,1453
937843,30880,-9928,5028,5028,-626,371,-155,212,-299,454,-72,3895,-8,3,798,1258,1430,1159,1293,1369,1071,1306,1453
938844,30872,-9920,5034,5034,-575,321,-153,212,-303,432,-14,3915,5,-2,795,1258,1430,1159,1293,1369,1071,1306,1453
939845,30860,-9920,5040,5040,-550,371,-151,213,-303,459,-59,3923,-7,-8,800,1258,1430,1159,1293,1369,1071,1306,1453
940846,30868,-9924,5046,5046,-675,396,-152,213,-299,450,-11,3857,-3,5,800,1258,1430,1159,1293,1369,1071,1306,1453
941847,30884,-9920,5052,5052,-725,346,-153,214,-300,448,-53,3894,6,-2,797,1258,1430,1159,1293,1369,1071,1306,1453
942848,30868,-9936,5058,5058,-525,472,-150,211,-302,463,-63,3913,4,-7,797,1258,1430,1159,1293,1369,1071,1306,1453
943849,30876,-9916,5064,5064,-675,246,-150,211,-300,458,-38,3906,-8,-11,798,1258,1430,1159,1293,1369,1071,1306,1453
944850,30868,-9928,5070,5070,-574,447,-151,214,-298,447,-74,3891,-2,2,799,1258,1430,1159,1293,1369,1071,1306,1453
945851,30880,-9928,5076,5076,-699,372,-155,211,-298,432,-46,3882,5,2,798,1258,1430,1159,1293,1369,1071,1306,1453
946852,30876,-9928,5082,5082,-599,372,-153,211,-301,454,4,3882,-5,3,797,1258,1430,1159,1293,1369,1071,1306,1453
947853,30868,-9924,5088,5088,-574,347,-152,211,-297,431,-121,3902,4,-10,799,1258,1430,1159,1293,1369,1071,1306,1453
948854,30868,-9932,5094,5094,-624,422,-153,210,-300,397,24,3936,-8,-1,800,1258,1430,1159,1293,1369,1071,1306,1453
949855,30880,-9920,5100,5100,-699,297,-152,212,-300,459,-100,3939,6,-7,798,1258,1430,1159,1293,1369,1071,1306,1453
950856,30872,-9920,5106,5106,-574,372,-152,213,-300,454,-22,3940,-7,-10,798,1258,1430,1159,1293,1369,1071,1306,1453
951857,30868,-9924,5112,5112,-598,398,-152,212,-300,419,-63,3910,3,-1,799,1258,1430,1159,1293,1369,1071,1306,1453
952858,30876,-9928,5118,5118,-673,398,-153,213,-302,455,-46,3933,-9,5,798,1258,1430,1159,1293,1369,1071,1306,1453
953859,30880,-9932,5124,5124,-648,398,-154,209,-300,447,-82,3920,3,-7,797,1258,1430,1159,1293,1369,1071,1306,1453
954860,30880,-9932,5130,5130,-623,373,-154,210,-299,407,3,3943,6,-9,798,1258,1430,1159,1293,1369,1071,1306,1453
955861,30868,-9936,5136,5136,-548,398,-153,212,-298,419,-69,3921,2,-7,795,1258,1430,1159,1293,1369,1071,1306,1453
956862,30872,-9932,5142,5142,-648,349,-154,213,-302,464,-60,3919,-6,3,799,1258,1430,1159,1293,1369,1071,1306,1453
957863,30876,-9928,5148,5148,-648,349,-153,213,-302,443,-47,3921,6,-6,799,1258,1430,1159,1293,1369,1071,1306,1453
958864,30880,-9928,5154,5154,-648,374,-155,216,-299,437,-79,3914,5,-7,798,1258,1430,1159,1293,1369,1071,1306,1453
959865,30864,-9912,5160,5160,-522,273,-155,213,-299,437,-35,3907,6,-10,798,1258,1430,1159,1293,1369,1071,1306,1453
960866,30876,-9916,5166,5166,-697,399,-153,213,-300,457,-86,3919,3,-8,802,1258,1430,1159,1293,1369,1071,1306,1453
961867,30876,-9924,5172,5172,-622,424,-152,215,-300,418,-42,3912,7,2,796,1258,1430,1159,1293,1369,1071,1306,1453
962868,30872,-9924,5178,5178,-597,374,-152,214,-299,424,-68,3846,-6,-5,797,1258,1430,1159,1293,1369,1071,1306,1453
963869,30864,-9924,5184,5184,-571,374,-152,210,-306,443,-19,3872,4,0,799,1258,1430,1159,1293,1369,1071,1306,1453
964870,30876,-9916,5190,5190,-697,324,-152,212,-302,425,-35,3903,0,-7,799,1258,1430,1159,1293,1369,1071,1306,1453
965871,30876,-9924,5196,5196,-621,425,-152,209,-294,494,-43,3886,-7,3,798,1258,1430,1159,1293,1369,1071,1306,1453
966872,30868,-9928,5202,5202,-571,400,-151,212,-295,450,-72,3849,4,-10,797,1258,1430,1159,1293,1369,1071,1306,1453
967873,30868,-9916,5208,5208,-621,300,-153,214,-300,413,-39,3893,-8,-10,798,1258,1430,1159,1293,1369,1071,1306,1453
968874,30864,-9920,5214,5214,-596,400,-153,212,-299,443,-63,3886,-9,0,800,1258,1430,1159,1293,1369,1071,1306,1453
969875,30864,-9940,5220,5220,-621,501,-153,211,-298,470,-1,3932,5,-4,798,1258,1430,1159,1293,1369,1071,1306,1453
970876,30880,-9924,5226,5226,-721,275,-153,211,-299,449,-62,3892,-5,-10,796,1258,1430,1159,1293,1369,1071,1306,1453
971877,30872,-9920,5232,5232,-570,350,-153,211,-297,432,-63,3897,-5,-5,798,1258,1430,1159,1293,1369,1071,1306,1453
972878,30868,-9924,5238,5238,-595,401,-150,205,-296,430,-21,3905,-3,-4,796,1258,1430,1159,1293,1369,1071,1306,1453
973879,30872,-9924,5244,5244,-645,376,-152,209,-298,482,-56,3918,-9,-10,798,1258,1430,1159,1293,1369,1071,1306,1453
974880,30860,-9924,5250,5250,-545,376,-154,210,-299,441,-87,3914,3,-9,798,1258,1430,1159,1293,1369,1071,1306,1453
975881,30868,-9920,5256,5256,-670,351,-153,212,-299,416,-41,3912,0,-10,799,1258,1430,1159,1293,1369,1071,1306,1453
976882,30872,-9920,5262,5262,-645,376,-150,213,-300,477,-68,3908,-8,-9,798,1258,1430,1159,1293,1369,1071,1306,1453
977883,30876,-9920,5268,5268,-645,376,-152,211,-302,513,-60,3908,3,4,798,1258,1430,1159,1293,1369,1071,1306,1453
978884,30884,-9920,5274,5274,-670,376,-152,209,-298,433,-29,3916,6,-9,798,1258,1430,1159,1293,1369,1071,1306,1453
979885,30880,-9924,5280,5280,-594,402,-155,212,-296,403,-57,3904,6,-10,798,1258,1430,1159,1293,1369,1071,1306,1453
980886,30876,-9928,5286,5286,-594,402,-156,212,-297,440,-48,3897,7,2,798,1258,1430,1159,1293,1369,1071,1306,1453
981887,30868,-9928,5292,5292,-569,377,-153,211,-300,488,-76,3899,-9,-8,798,1258,1430,1159,1293,1369,1071,1306,1453
982888,30880,-9944,5298,5298,-694,478,-151,211,-300,434,-65,3892,-2,-10,799,1258,1430,1159,1293,1369,1071,1306,1453
983889,30880,-9912,5304,5304,-619,177,-153,208,-297,412,-72,3889,-1,-8,795,1258,1430,1159,1293,1369,1071,1306,1453
984890,30876,-9932,5310,5310,-594,503,-154,208,-297,460,-87,3884,-9,5,801,1258,1430,1159,1293,1369,1071,1306,1453
985891,30868,-9920,5316,5316,-568,302,-155,211,-297,475,-63,3875,0,-3,796,1258,1430,1159,1293,1369,1071,1306,1453
986892,30884,-9916,5322,5322,-719,353,-153,213,-294,442,-63,3881,6,-6,801,1258,1430,1159,1293,1369,1071,1306,1453
987893,30872,-9932,5328,5328,-543,478,-152,209,-295,448,-48,3913,-6,3,797,1258,1430,1159,1293,1369,1071,1306,1453
988894,30880,-9928,5334,5334,-668,353,-157,212,-298,404,9,3927,5,4,798,1258,1430,1159,1293,1369,1071,1306,1453
989895,30868,-9924,5340,5340,-543,353,-154,210,-297,470,-75,3896,-10,-1,794,1258,1430,1159,1293,1369,1071,1306,1453
990896,30872,-9912,5346,5346,-643,303,-156,213,-297,424,-51,3873,6,4,800,1258,1430,1159,1293,1369,1071,1306,1453
991897,30868,-9920,5352,5352,-592,428,-153,213,-300,419,24,3868,1,1,799,1258,1430,1159,1293,1369,1071,1306,1453
992898,30872,-9920,5358,5358,-642,378,-152,213,-299,464,-126,3878,6,-8,798,1258,1430,1159,1293,1369,1071,1306,1453
993899,30872,-9920,5364,5364,-617,379,-149,209,-299,442,-13,3849,-8,-2,798,1258,1430,1159,1293,1369,1071,1306,1453
994900,30872,-9916,5370,5370,-617,354,-150,212,-301,438,-68,3917,7,2,799,1258,1430,1159,1293,1369,1071,1306,1453
995901,30884,-9924,5376,5376,-692,429,-153,215,-302,427,9,3934,-7,-10,799,1258,1430,1159,1293,1369,1071,1306,1453
996902,30864,-9916,5382,5382,-492,329,-153,212,-299,462,-69,3867,3,-6,796,1258,1430,1159,1293,1369,1071,1306,1453
997903,30880,-9916,5388,5388,-717,379,-153,213,-300,450,-25,3897,-6,-9,802,1258,1430,1159,1293,1369,1071,1306,1453
998904,30868,-9924,5394,5394,-541,429,-151,211,-302,424,-51,3888,-4,1,796,1258,1430,1159,1293,1369,1071,1306,1453
999905,30880,-9916,5400,5400,-692,329,-154,213,-299,433,-34,3908,5,-10,799,1258,1430,1159,1293,1369,1071,1306,1453
1000906,30876,-9920,5406,5406,-591,405,-151,210,-297,471,-15,3876,-3,-4,798,1258,1430,1159,1293,1369,1071,1306,1453
1001907,30868,-9916,5412,5412,-566,355,-152,216,-300,416,-87,3918,5,-9,798,1258,1430,1159,1293,1369,1071,1306,1453
1002908,30872,-9904,5418,5418,-641,305,-149,209,-303,447,-8,3848,-9,5,800,1258,1430,1159,1293,1369,1071,1306,1453
1003909,30868,-9916,5424,5424,-591,455,-152,212,-299,423,-119,3887,7,-3,799,1258,1430,1159,1293,1369,1071,1306,1453
1004910,30880,-9912,5430,5430,-691,355,-152,214,-303,411,24,3914,3,-4,798,1258,1430,1159,1293,1369,1071,1306,1453
1005911,30876,-9916,5436,5436,-591,405,-151,214,-303,425,-68,3906,-9,-5,797,1258,1430,1159,1293,1369,1071,1306,1453
1006912,30868,-9916,5442,5442,-565,380,-151,210,-302,462,-40,3883,-6,3,794,1258,1430,1159,1293,1369,1071,1306,1453
1007913,30872,-9916,5448,5448,-640,381,-150,210,-298,438,-27,3905,-2,-10,799,1258,1430,1159,1293,1369,1071,1306,1453
1008914,30860,-9912,5454,5454,-540,356,-150,211,-299,464,-85,3908,6,-10,798,1258,1430,1159,1293,1369,1071,1306,1453
1009915,30884,-9916,5460,5460,-765,406,-152,211,-301,396,-23,3894,7,-9,800,1258,1430,1159,1293,1369,1071,1306,1453
1010916,30872,-9908,5466,5466,-540,331,-153,212,-301,419,-75,3927,-6,-10,795,1258,1430,1159,1293,1369,1071,1306,1453
1011917,30872,-9920,5472,5472,-615,456,-154,211,-300,440,-54,3880,-6,-2,801,1258,1430,1159,1293,1369,1071,1306,1453
1012918,30872,-9912,5478,5478,-614,331,-153,210,-301,412,-50,3876,-9,2,797,1258,1430,1159,1293,1369,1071,1306,1453
1013919,30880,-9916,5484,5484,-665,406,-152,217,-298,424,-106,3892,-9,5,799,1258,1430,1159,1293,1369,1071,1306,1453
1014920,30864,-9924,5490,5490,-514,432,-150,211,-298,442,-16,3893,3,1,797,1258,1430,1159,1293,1369,1071,1306,1453
1015921,30876,-9920,5496,5496,-689,357,-152,213,-299,428,-53,3920,6,-9,799,1258,1430,1159,1293,1369,1071,1306,1453
1016922,30876,-9924,5502,5502,-614,407,-152,210,-301,439,-71,3921,-5,-4,797,1258,1430,1159,1293,1369,1071,1306,1453
1017923,30864,-9916,5508,5508,-539,332,-153,210,-301,391,-55,3914,6,4,798,1258,1430,1159,1293,1369,1071,1306,1453
1018924,30868,-9920,5514,5514,-638,407,-152,206,-302,451,-5,3857,-6,-10,801,1258,1430,1159,1293,1369,1071,1306,1453
1019925,30872,-9916,5520,5520,-638,357,-152,212,-301,437,-112,3889,2,-10,798,1258,1430,1159,1293,1369,1071,1306,1453
1020926,30868,-9904,5526,5526,-588,307,-151,213,-303,425,2,3904,3,-10,798,1258,1430,1159,1293,1369,1071,1306,1453
1021927,30884,-9908,5532,5532,-713,407,-154,212,-301,447,-73,3905,5,-3,800,1258,1430,1159,1293,1369,1071,1306,1453
1022928,30868,-9924,5538,5538,-513,483,-155,215,-299,426,-69,3902,-3,-1,796,1258,1430,1159,1293,1369,1071,1306,1453
1023929,30880,-9904,5544,5544,-688,258,-152,212,-297,434,-71,3866,5,-4,794,1258,1430,1159,1293,1369,1071,1306,1453
1024930,30868,-9916,5550,5550,-538,458,-152,215,-297,441,-51,3880,-3,-5,799,1258,1430,1159,1293,1369,1071,1306,1453
1025931,30872,-9912,5556,5556,-638,358,-151,214,-297,404,-63,3904,-9,-10,798,1258,1430,1159,1293,1369,1071,1306,1453
1026932,30876,-9908,5562,5562,-638,358,-153,212,-302,462,12,3943,6,5,798,1258,1430,1159,1293,1369,1071,1306,1453
1027933,30876,-9924,5568,5568,-612,484,-155,214,-301,437,-102,3908,4,-1,798,1258,1430,1159,1293,1369,1071,1306,1453
1028934,30876,-9912,5574,5574,-612,309,-153,212,-301,417,15,3905,6,2,797,1258,1430,1159,1293,1369,1071,1306,1453
1029935,30876,-9936,5580,5580,-612,534,-151,210,-297,448,-95,3886,-7,5,800,1258,1430,1159,1293,1369,1071,1306,1453
1030936,30868,-9900,5586,5586,-562,159,-153,208,-302,438,-60,3913,-4,0,796,1258,1430,1159,1293,1369,1071,1306,1453
1031937,30864,-9908,5592,5592,-586,434,-152,209,-297,414,-26,3910,-4,-2,803,1258,1430,1159,1293,1369,1071,1306,1453
1032938,30868,-9920,5598,5598,-636,459,-155,211,-294,459,-71,3908,-6,-5,798,1258,1430,1159,1293,1369,1071,1306,1453
1033939,30864,-9912,5604,5604,-586,334,-155,213,-298,422,6,3862,-7,-1,797,1258,1430,1159,1293,1369,1071,1306,1453
1034940,30884,-9908,5610,5610,-737,359,-152,210,-301,466,-97,3894,7,-4,799,1258,1430,1159,1293,1369,1071,1306,1453
1035941,30864,-9912,5616,5616,-486,410,-151,209,-296,387,-28,3906,-9,-7,797,1258,1430,1159,1293,1369,1071,1306,1453
1036942,30872,-9912,5622,5622,-661,385,-153,209,-296,451,-22,3925,-1,-11,800,1258,1430,1159,1293,1369,1071,1306,1453
1037943,30868,-9912,5628,5628,-586,385,-154,210,-299,506,-64,3919,0,-5,797,1258,1430,1159,1293,1369,1071,1306,1453
1038944,30872,-9908,5634,5634,-636,360,-154,212,-296,390,-68,3879,0,-10,799,1258,1430,1159,1293,1369,1071,1306,1453
1039945,30868,-9908,5640,5640,-585,385,-152,212,-298,443,26,3881,-8,-6,799,1258,1430,1159,1293,1369,1071,1306,1453
1040946,30884,-9912,5646,5646,-711,410,-152,208,-297,431,-97,3877,6,-8,795,1258,1430,1159,1293,1369,1071,1306,1453
1041947,30860,-9912,5652,5652,-460,385,-152,207,-296,436,-21,3929,-7,-10,796,1258,1430,1159,1293,1369,1071,1306,1453
1042948,30868,-9916,5658,5658,-660,411,-155,210,-298,408,-45,3871,-9,-7,801,1258,1430,1159,1293,1369,1071,1306,1453
1043949,30868,-9924,5664,5664,-610,436,-152,212,-301,417,-30,3895,-8,2,797,1258,1430,1159,1293,1369,1071,1306,1453
1044950,30880,-9912,5670,5670,-685,311,-151,211,-300,434,-89,3876,3,3,798,1258,1430,1159,1293,1369,1071,1306,1453
1045951,30876,-9908,5676,5676,-585,361,-149,205,-298,470,3,3852,1,0,798,1258,1430,1159,1293,1369,1071,1306,1453
1046952,30864,-9920,5682,5682,-534,461,-153,207,-298,402,-97,3941,-3,-10,799,1258,1430,1159,1293,1369,1071,1306,1453
1047953,30868,-9920,5688,5688,-634,387,-154,207,-300,455,-38,3898,-7,-9,798,1258,1430,1159,1293,1369,1071,1306,1453
1048954,30872,-9920,5694,5694,-634,387,-152,211,-300,453,-63,3876,-2,-9,798,1258,1430,1159,1293,1369,1071,1306,1453
1049955,30876,-9912,5700,5700,-634,337,-151,216,-298,420,-22,3903,4,-10,798,1258,1430,1159,1293,1369,1071,1306,1453
1050956,30872,-9908,5706,5706,-584,362,-152,213,-298,413,-42,3914,-2,-10,799,1258,1430,1159,1293,1369,1071,1306,1453
1051957,30884,-9912,5712,5712,-684,412,-152,211,-301,463,-84,3917,7,-7,799,1258,1430,1159,1293,1369,1071,1306,1453
1052958,30876,-9916,5718,5718,-559,412,-151,211,-299,423,-49,3913,-2,-9,796,1258,1430,1159,1293,1369,1071,1306,1453
1053959,30876,-9912,5724,5724,-609,362,-154,213,-301,437,-67,3908,5,-10,799,1258,1430,1159,1293,1369,1071,1306,1453
1054960,30872,-9896,5730,5730,-583,287,-153,210,-303,456,-34,3900,-9,-6,799,1258,1430,1159,1293,1369,1071,1306,1453
1055961,30868,-9912,5736,5736,-583,488,-152,211,-300,445,-51,3914,-1,0,801,1258,1430,1159,1293,1369,1071,1306,1453
