%  Data file recorded 2016/9/5  14:40:25
%  Stride Frequency         = [1, 1]
%  Lead In /Lead Out        = 
%  Deltas (Fractional)      = [0.25, 0.25, 0.25],[0.25, 0.25, 0.25]
%  Phase                    = 32768
%  Experiment.py 
%  Motor Gains    = [5000, 400, 200, 0, 300, 5000, 400, 200, 0, 300]
% Columns: 
% time | Right Leg Pos | Left Leg Pos | Commanded Right Leg Pos | Commanded Left Leg Pos | DCR | DCL | GyroX | GyroY | GyroZ | AX | AY | AZ | RBEMF | LBEMF | VBatt | S1 | S2 | S3 | S4 | S5 | S6 | S7 | S8
858,18972,-16108,17814,-14954,-3800,-3800,-17,-17,2,-32,-2,3932,11,1,895,1767,1868,2093,2275,2054,1831,1884,2002
1859,18968,-16096,17814,-14954,-3800,-3800,-17,-14,3,-51,-6,3941,11,-6,895,1767,1868,2093,2275,2054,1831,1884,2002
2860,18960,-16112,17814,-14954,-3800,-3800,-17,-12,5,-44,-27,3910,6,7,895,1767,1868,2093,2275,2054,1831,1884,2002
3861,18964,-16104,17814,-14954,-3800,-3800,-17,-15,5,-41,-15,3908,1,-2,895,1767,1868,2093,2275,2054,1831,1884,2002
4862,18960,-16116,17814,-14954,-3800,-3800,-18,-15,4,-49,6,3921,5,-6,895,1767,1868,2093,2275,2054,1831,1884,2002
5863,18976,-16120,17814,-14954,-3800,-3800,-17,-15,2,-50,1,3938,0,8,895,1768,1868,2096,2275,2054,1832,1884,2002
6864,18964,-16104,17814,-14954,-3800,-3800,-18,-17,1,-23,-26,3937,-5,2,895,1768,1868,2096,2275,2054,1832,1884,2002
7865,18956,-16100,17814,-14954,-3800,-3800,-18,-15,1,-32,-33,3908,-2,-5,895,1768,1868,2096,2275,2054,1832,1884,2002
8866,18964,-16108,17814,-14954,-3800,-3800,-19,-16,2,-49,-34,3927,-8,-3,895,1768,1868,2096,2275,2054,1832,1884,2002
9867,18972,-16112,17814,-14954,-3800,-3800,-20,-17,2,-29,-31,3956,-8,2,895,1768,1868,2096,2275,2054,1832,1884,2002
10868,18964,-16096,17814,-14954,-3800,-3800,-21,-15,4,-39,-14,3925,-8,7,895,1768,1868,2096,2275,2054,1832,1884,2002
11869,18972,-16112,17814,-14954,-3800,-3800,-20,-15,5,-28,-21,3935,-2,-2,895,1767,1868,2093,2274,2054,1831,1883,2001
12870,18968,-16100,17814,-14954,-3800,-3800,-19,-17,4,-35,-26,3914,8,-6,895,1767,1868,2093,2274,2054,1831,1883,2001
13871,18964,-16116,17814,-14954,-3800,-3800,-19,-15,3,-39,-55,3922,4,-2,895,1767,1868,2093,2274,2054,1831,1883,2001
14872,18964,-16116,17814,-14954,-3800,-3800,-21,-12,3,-18,-34,3936,7,8,895,1767,1868,2093,2274,2054,1831,1883,2001
15873,18960,-16112,17814,-14954,-3800,-3800,-20,-11,4,-24,-3,3930,11,2,895,1767,1868,2093,2274,2054,1831,1883,2001
16874,18960,-16096,17814,-14954,-3800,-3800,-20,-11,5,-21,5,3924,10,-2,895,1766,1868,2094,2275,2054,1832,1884,2002
17875,18972,-16108,17814,-14954,-3800,-3800,-18,-13,5,-32,-16,3943,4,-5,895,1766,1868,2094,2275,2054,1832,1884,2002
18876,18968,-16116,17814,-14954,-3800,-3800,-18,-14,5,-61,-14,3934,0,4,895,1766,1868,2094,2275,2054,1832,1884,2002
19877,18968,-16108,17814,-14954,-3800,-3800,-16,-14,5,-60,-9,3894,6,8,894,1766,1868,2094,2275,2054,1832,1884,2002
20878,18972,-16112,17814,-14954,-3800,-3800,-19,-14,4,-25,-10,3894,0,1,895,1766,1868,2094,2275,2054,1832,1884,2002
21879,18960,-16108,17814,-14954,-3800,-3800,-22,-13,3,-4,-19,3903,-3,-6,895,1766,1868,2094,2275,2054,1832,1884,2002
22880,18964,-16108,17814,-14954,-3800,-3800,-20,-13,6,-35,-18,3909,-8,-1,895,1766,1870,2094,2276,2056,1832,1884,2002
23881,18964,-16100,17814,-14954,-3800,-3800,-19,-11,8,-47,-10,3934,-6,8,895,1766,1870,2094,2276,2056,1832,1884,2002
24882,18968,-16112,17814,-14954,-3800,-3800,-18,-14,4,-38,-11,3925,3,5,895,1766,1870,2094,2276,2056,1832,1884,2002
25883,18960,-16116,17814,-14954,-3800,-3800,-20,-14,4,-29,-8,3892,10,-3,895,1766,1870,2094,2276,2056,1832,1884,2002
26884,18976,-16116,17814,-14954,-3800,-3800,-21,-13,5,-37,-21,3927,7,-4,895,1766,1870,2094,2276,2056,1832,1884,2002
27885,18972,-16120,17814,-14954,-3800,-3800,-22,-12,3,-53,-15,3934,-6,4,895,1766,1868,2093,2274,2055,1832,1884,2002
28886,18972,-16092,17814,-14954,-3800,-3800,-22,-14,4,-56,-11,3899,-8,8,895,1766,1868,2093,2274,2055,1832,1884,2002
29887,18972,-16108,17814,-14954,-3800,-3800,-23,-16,5,-36,-16,3921,-7,-3,895,1766,1868,2093,2274,2055,1832,1884,2002
30888,18968,-16104,17814,-14954,-3800,-3800,-22,-16,6,-35,-24,3924,3,-6,895,1766,1868,2093,2274,2055,1832,1884,2002
31889,18972,-16108,17814,-14954,-3800,-3800,-21,-14,5,-68,-4,3894,3,-6,895,1766,1868,2093,2274,2055,1832,1884,2002
32890,18976,-16108,17814,-14954,-3800,-3800,-22,-12,6,-58,1,3914,11,5,895,1766,1868,2093,2274,2055,1832,1884,2002
33891,18964,-16108,17814,-14954,-3800,-3800,-19,-12,6,-38,4,3922,1,8,895,1766,1868,2093,2274,2054,1831,1884,2002
34892,18952,-16108,17814,-14954,-3800,-3800,-18,-14,5,-30,-9,3891,-6,6,895,1766,1868,2093,2274,2054,1831,1884,2002
35893,18968,-16112,17814,-14954,-3800,-3800,-20,-15,6,-48,5,3923,-7,-4,895,1766,1868,2093,2274,2054,1831,1884,2002
36894,18972,-16104,17814,-14954,-3800,-3800,-19,-16,4,-25,-27,3951,-3,-2,894,1766,1868,2093,2274,2054,1831,1884,2002
37895,18968,-16104,17814,-14954,-3800,-3800,-21,-15,4,-5,-31,3937,-7,6,895,1766,1868,2093,2274,2054,1831,1884,2002
38896,18972,-16108,17814,-14954,-3800,-3800,-22,-14,3,-21,-10,3901,-7,-2,895,1766,1868,2093,2275,2051,1830,1883,2003
39897,18972,-16104,17814,-14954,-3800,-3800,-19,-15,1,-58,-12,3889,-5,-2,895,1766,1868,2093,2275,2051,1830,1883,2003
40898,18968,-16108,17814,-14954,-3800,-3800,-20,-17,1,-56,1,3896,-5,-5,895,1766,1868,2093,2275,2051,1830,1883,2003
41899,18972,-16108,17814,-14954,-3800,-3800,-21,-17,4,-65,-16,3925,4,-6,895,1766,1868,2093,2275,2051,1830,1883,2003
42900,18972,-16104,17814,-14954,-3800,-3800,-21,-12,4,-41,-15,3930,9,-4,895,1766,1868,2093,2275,2051,1830,1883,2003
43901,18964,-16100,17814,-14954,-3800,-3800,-24,-15,3,-56,-7,3942,2,-1,895,1766,1868,2093,2275,2051,1830,1883,2003
44902,18976,-16116,17814,-14954,-3800,-3800,-24,-15,4,-53,-10,3931,8,7,895,1767,1868,2094,2275,2054,1830,1883,2002
45903,18968,-16108,17814,-14954,-3800,-3800,-22,-13,3,-46,-21,3912,10,8,895,1767,1868,2094,2275,2054,1830,1883,2002
46904,18964,-16096,17814,-14954,-3800,-3800,-19,-15,0,-64,-17,3947,8,7,895,1767,1868,2094,2275,2054,1830,1883,2002
47905,18968,-16100,17814,-14954,-3800,-3800,-19,-16,3,-61,-3,3923,11,-5,895,1767,1868,2094,2275,2054,1830,1883,2002
48906,18976,-16104,17814,-14954,-3800,-3800,-18,-15,3,-66,1,3910,11,-6,895,1767,1868,2094,2275,2054,1830,1883,2002
49907,18956,-16104,17814,-14954,-3800,-3800,-20,-14,2,-52,-5,3911,7,-2,895,1768,1870,2095,2276,2056,1832,1884,2002
50908,18964,-16092,17814,-14954,-3800,-3800,-23,-14,1,-48,-29,3907,10,8,896,1768,1870,2095,2276,2056,1832,1884,2002
51909,18960,-16104,17814,-14954,-3800,-3800,-21,-13,1,-35,-11,3910,10,0,895,1768,1870,2095,2276,2056,1832,1884,2002
52910,18964,-16104,17814,-14954,-3800,-3800,-19,-14,1,4,-7,3931,11,-6,895,1768,1870,2095,2276,2056,1832,1884,2002
53911,18972,-16100,17814,-14954,-3800,-3800,-20,-14,4,-26,-20,3938,9,-1,894,1768,1870,2095,2276,2056,1832,1884,2002
54912,18968,-16112,17814,-14954,-3800,-3800,-21,-15,4,-51,-10,3930,11,-4,895,1768,1870,2095,2276,2056,1832,1884,2002
55913,18972,-16096,17814,-14954,-3800,-3800,-21,-15,4,-56,-47,3925,5,3,895,1767,1868,2094,2275,2055,1832,1885,2003
56914,18960,-16096,17814,-14954,-3800,-3800,-20,-16,3,-53,-26,3980,9,8,895,1767,1868,2094,2275,2055,1832,1885,2003
57915,18960,-16120,17814,-14954,-3800,-3800,-18,-16,0,-44,-12,3953,8,3,895,1767,1868,2094,2275,2055,1832,1885,2003
58916,18968,-16116,17814,-14954,-3800,-3800,-17,-14,3,-31,-15,3930,3,-2,895,1767,1868,2094,2275,2055,1832,1885,2003
59917,18968,-16108,17814,-14954,-3800,-3800,-18,-14,6,-33,-9,3938,-1,-5,895,1767,1868,2094,2275,2055,1832,1885,2003
60918,18968,-16112,17814,-14954,-3800,-3800,-20,-15,7,-41,-10,3942,-6,-2,895,1768,1868,2095,2275,2055,1831,1885,2003
61919,18968,-16108,17814,-14954,-3800,-3800,-20,-13,3,-59,8,3927,-7,4,895,1768,1868,2095,2275,2055,1831,1885,2003
62920,18964,-16104,17814,-14954,-3800,-3800,-20,-15,2,-54,-22,3917,-8,6,895,1768,1868,2095,2275,2055,1831,1885,2003
63921,18980,-16100,17814,-14954,-3800,-3800,-17,-15,3,-31,-19,3942,-7,-3,895,1768,1868,2095,2275,2055,1831,1885,2003
64922,18968,-16104,17814,-14954,-3800,-3800,-18,-15,2,-66,-36,3917,-5,-6,895,1768,1868,2095,2275,2055,1831,1885,2003
65923,18964,-16108,17814,-14954,-3800,-3800,-17,-12,4,-50,-19,3921,0,7,895,1768,1868,2095,2275,2055,1831,1885,2003
66924,18968,-16096,17814,-14954,-3800,-3800,-19,-14,7,-26,-14,3927,11,5,895,1767,1868,2094,2275,2055,1831,1883,2004
67925,18956,-16104,17814,-14954,-3800,-3800,-18,-15,4,-45,-6,3954,11,-1,895,1767,1868,2094,2275,2055,1831,1883,2004
68926,18972,-16104,17814,-14954,-3800,-3800,-19,-14,5,-65,-13,3964,8,-5,895,1767,1868,2094,2275,2055,1831,1883,2004
69927,18964,-16100,17814,-14954,-3800,-3800,-19,-15,7,-53,-18,3955,3,2,895,1767,1868,2094,2275,2055,1831,1883,2004
70928,18972,-16100,17814,-14954,-3800,-3800,-16,-12,5,-53,-10,3962,-3,7,894,1767,1868,2094,2275,2055,1831,1883,2004
71929,18960,-16108,17814,-14954,-3800,-3800,-17,-12,4,-51,-21,3962,-8,8,895,1768,1868,2094,2276,2054,1832,1884,2001
72930,18968,-16112,17814,-14954,-3800,-3800,-18,-12,5,-30,-22,3890,-8,4,895,1768,1868,2094,2276,2054,1832,1884,2001
73931,18972,-16104,17814,-14954,-3800,-3800,-20,-13,5,-17,-22,3945,-8,-3,895,1768,1868,2094,2276,2054,1832,1884,2001
74932,18984,-16104,17814,-14954,-3800,-3800,-19,-14,5,-24,-9,3942,-3,-5,895,1768,1868,2094,2276,2054,1832,1884,2001
75933,18972,-16108,17814,-14954,-3800,-3800,-19,-14,5,-46,4,3948,1,-4,895,1768,1868,2094,2276,2054,1832,1884,2001
76934,18964,-16108,17814,-14954,-3800,-3800,-23,-13,6,-29,0,3932,-2,-1,895,1768,1868,2094,2276,2054,1832,1884,2001
77935,18972,-16112,17814,-14954,-3800,-3800,-23,-13,4,-48,-9,3918,-5,7,895,1767,1870,2095,2276,2056,1832,1884,2003
78936,18964,-16112,17814,-14954,-3800,-3800,-21,-12,2,-37,0,3903,-4,8,895,1767,1870,2095,2276,2056,1832,1884,2003
79937,18964,-16104,17814,-14954,-3800,-3800,-18,-14,2,-42,-15,3872,-3,6,895,1767,1870,2095,2276,2056,1832,1884,2003
80938,18976,-16112,17814,-14954,-3800,-3800,-20,-17,6,-61,-21,3936,-4,-3,895,1767,1870,2095,2276,2056,1832,1884,2003
81939,18980,-16108,17814,-14954,-3800,-3800,-22,-16,8,-27,-24,3931,2,-5,895,1767,1870,2095,2276,2056,1832,1884,2003
82940,18976,-16100,17814,-14954,-3800,-3800,-21,-13,8,-36,3,3914,3,-6,895,1767,1868,2093,2274,2055,1831,1884,2003
83941,18968,-16112,17814,-14954,-3800,-3800,-19,-11,5,-35,-17,3914,6,-3,895,1767,1868,2093,2274,2055,1831,1884,2003
84942,18972,-16116,17814,-14954,-3800,-3800,-19,-12,5,-39,-22,3920,10,1,895,1767,1868,2093,2274,2055,1831,1884,2003
85943,18972,-16116,17814,-14954,-3800,-3800,-19,-14,6,-37,-39,3933,10,4,895,1767,1868,2093,2274,2055,1831,1884,2003
86944,18960,-16112,17814,-14954,-3800,-3800,-19,-17,4,-15,-20,3921,0,8,895,1767,1868,2093,2274,2055,1831,1884,2003
87945,18968,-16100,17814,-14954,-3800,-3800,-20,-13,6,-13,-20,3912,-7,6,894,1767,1868,2093,2274,2055,1831,1884,2003
88946,18968,-16108,17814,-14954,-3800,-3800,-19,-13,5,-29,-35,3925,-2,8,895,1768,1868,2092,2273,2055,1830,1883,2002
89947,18964,-16108,17814,-14954,-3800,-3800,-17,-14,3,-36,-25,3941,-3,5,895,1768,1868,2092,2273,2055,1830,1883,2002
90948,18972,-16104,17814,-14954,-3800,-3800,-18,-13,1,-30,2,3918,-8,2,895,1768,1868,2092,2273,2055,1830,1883,2002
91949,18968,-16112,17814,-14954,-3800,-3800,-20,-12,4,-54,8,3910,-8,-3,895,1768,1868,2092,2273,2055,1830,1883,2002
92950,18964,-16096,17814,-14954,-3800,-3800,-21,-12,5,-41,-1,3927,-3,-6,895,1768,1868,2092,2273,2055,1830,1883,2002
93951,18968,-16116,17814,-14954,-3800,-3800,-22,-13,4,-18,0,3918,1,1,895,1767,1868,2093,2274,2055,1829,1883,2001
94952,18964,-16108,17814,-14954,-3800,-3800,-21,-15,3,-31,-12,3914,0,7,895,1767,1868,2093,2274,2055,1829,1883,2001
95953,18956,-16112,17814,-14954,-3800,-3800,-19,-15,2,-47,-30,3922,9,2,895,1767,1868,2093,2274,2055,1829,1883,2001
96954,18972,-16108,17814,-14954,-3800,-3800,-19,-16,2,-49,-44,3903,9,-6,895,1767,1868,2093,2274,2055,1829,1883,2001
97955,18968,-16096,17814,-14954,-3800,-3800,-19,-15,2,-68,-31,3905,9,-4,895,1767,1868,2093,2274,2055,1829,1883,2001
98956,18964,-16108,17814,-14954,-3800,-3800,-19,-12,3,-61,-5,3938,3,8,895,1767,1868,2093,2274,2055,1829,1883,2001
99957,18972,-16108,17814,-14954,-3800,-3800,-18,-10,4,-43,-9,3908,-8,8,895,1767,1868,2093,2273,2053,1831,1883,2002
100958,18964,-16104,17814,-14954,-3800,-3800,-18,-13,3,-57,-5,3920,-8,1,895,1767,1868,2093,2273,2053,1831,1883,2002
101959,18972,-16112,17814,-14954,-3800,-3800,-22,-14,3,-42,-15,3907,-6,-6,895,1767,1868,2093,2273,2053,1831,1883,2002
102960,18972,-16116,17814,-14954,-3800,-3800,-23,-16,2,-12,-19,3925,1,-4,895,1767,1868,2093,2273,2053,1831,1883,2002
103961,18972,-16096,17814,-14954,-3800,-3800,-20,-15,0,-47,-2,3912,1,5,895,1767,1868,2093,2273,2053,1831,1883,2002
104962,18964,-16116,17814,-14954,-3800,-3800,-18,-13,2,-35,-14,3939,10,3,894,1768,1868,2092,2273,2054,1831,1883,2002
105963,18964,-16112,17814,-14954,-3800,-3800,-19,-12,3,-25,-7,3929,9,1,895,1768,1868,2092,2273,2054,1831,1883,2002
106964,18956,-16116,17814,-14954,-3800,-3800,-18,-15,2,-37,-2,3902,11,-5,895,1768,1868,2092,2273,2054,1831,1883,2002
107965,18976,-16104,17814,-14954,-3800,-3800,-21,-15,3,-54,2,3945,11,6,895,1768,1868,2092,2273,2054,1831,1883,2002
108966,18972,-16104,17814,-14954,-3800,-3800,-19,-14,3,-49,-6,3903,6,7,895,1768,1868,2092,2273,2054,1831,1883,2002
109967,18964,-16096,17814,-14954,-3800,-3800,-17,-13,3,-14,-28,3920,3,-1,895,1767,1868,2093,2274,2055,1829,1882,2003
110968,18968,-16108,17814,-14954,-3800,-3800,-17,-14,4,-27,-20,3920,-1,-5,895,1767,1868,2093,2274,2055,1829,1882,2003
111969,18968,-16104,17814,-14954,-3800,-3800,-17,-14,4,-39,13,3887,-1,1,895,1767,1868,2093,2274,2055,1829,1882,2003
112970,18972,-16100,17814,-14954,-3800,-3800,-18,-13,4,-61,10,3924,8,8,895,1767,1868,2093,2274,2055,1829,1882,2003
113971,18976,-16108,17814,-14954,-3800,-3800,-18,-12,5,-63,-13,3938,5,-3,895,1767,1868,2093,2274,2055,1829,1882,2003
114972,18956,-16116,17814,-14954,-3800,-3800,-18,-13,4,-28,-18,3900,-6,-7,895,1767,1868,2093,2274,2055,1829,1882,2003
115973,18972,-16108,17814,-14954,-3800,-3800,-19,-15,4,-49,-22,3916,-6,0,895,1768,1868,2093,2274,2054,1831,1884,2002
116974,18972,-16100,17814,-14954,-3800,-3800,-19,-16,2,-71,-19,3962,-7,8,895,1768,1868,2093,2274,2054,1831,1884,2002
117975,18964,-16092,17814,-14954,-3800,-3800,-20,-15,2,-41,-4,3926,-7,2,895,1768,1868,2093,2274,2054,1831,1884,2002
118976,18976,-16112,17814,-14954,-3800,-3800,-21,-13,4,-42,-5,3912,-8,-5,895,1768,1868,2093,2274,2054,1831,1884,2002
119977,18968,-16108,17814,-14954,-3800,-3800,-20,-12,6,-56,-4,3927,-3,-3,895,1768,1868,2093,2274,2054,1831,1884,2002
120978,18976,-16096,17814,-14954,-3800,-3800,-18,-14,6,-45,5,3962,5,2,895,1768,1868,2093,2274,2054,1831,1884,2002
121979,18972,-16112,17814,-14954,-3800,-3800,-20,-12,5,-46,-11,3974,0,6,895,1768,1868,2093,2274,2054,1831,1884,2002
122980,18968,-16112,17814,-14954,-3800,-3800,-21,-10,4,-26,-1,3970,9,8,895,1768,1868,2093,2274,2054,1831,1884,2002
123981,18972,-16104,17814,-14954,-3800,-3800,-19,-10,4,-32,-5,3965,11,8,895,1768,1868,2093,2274,2054,1831,1884,2002
124982,18964,-16108,17814,-14954,-3800,-3800,-20,-12,4,-34,-6,3941,7,5,895,1768,1868,2093,2274,2054,1831,1884,2002
125983,18968,-16116,17814,-14954,-3800,-3800,-19,-14,1,-25,-10,3916,-4,-6,895,1768,1868,2093,2274,2054,1831,1884,2002
126984,18964,-16096,17814,-14954,-3800,-3800,-20,-14,2,-35,-39,3929,-8,-4,895,1768,1868,2094,2271,2053,1833,1886,2004
127985,18964,-16108,17814,-14954,-3800,-3800,-19,-14,5,-21,1,3922,-8,-1,895,1768,1868,2094,2271,2053,1833,1886,2004
128986,18964,-16104,17814,-14954,-3800,-3800,-19,-15,5,-48,-9,3936,-7,8,895,1768,1868,2094,2271,2053,1833,1886,2004
129987,18956,-16104,17814,-14954,-3800,-3800,-20,-14,8,-59,4,3932,-5,0,895,1768,1868,2094,2271,2053,1833,1886,2004
130988,18964,-16108,17814,-14954,-3800,-3800,-21,-14,5,-32,-4,3910,-4,-3,895,1768,1868,2094,2271,2053,1833,1886,2004
131989,18972,-16088,17814,-14954,-3800,-3800,-20,-12,4,-22,-13,3924,3,-3,895,1768,1868,2093,2274,2054,1831,1884,2003
132990,18968,-16100,17814,-14954,-3800,-3800,-19,-12,5,-31,-2,3901,10,6,895,1768,1868,2093,2274,2054,1831,1884,2003
133991,18968,-16116,17814,-14954,-3800,-3800,-18,-13,6,-31,2,3912,11,8,895,1768,1868,2093,2274,2054,1831,1884,2003
134992,18968,-16116,17814,-14954,-3800,-3800,-20,-12,6,-38,-8,3922,5,-4,895,1768,1868,2093,2274,2054,1831,1884,2003
135993,18972,-16100,17814,-14954,-3800,-3800,-20,-12,6,-29,-22,3939,-8,-6,895,1768,1868,2093,2274,2054,1831,1884,2003
136994,18960,-16112,17814,-14954,-3800,-3800,-22,-11,4,-61,1,3945,-6,3,895,1768,1868,2093,2274,2054,1831,1884,2003
137995,18972,-16100,17814,-14954,-3800,-3800,-22,-13,5,-71,-3,3923,1,6,895,1768,1868,2094,2275,2055,1831,1884,2002
138996,18964,-16112,17814,-14954,-3800,-3800,-21,-14,3,-53,-20,3919,10,2,894,1768,1868,2094,2275,2055,1831,1884,2002
139997,18972,-16104,17814,-14954,-3800,-3800,-17,-13,4,-24,-24,3927,8,6,895,1768,1868,2094,2275,2055,1831,1884,2002
140998,18960,-16104,17814,-14954,-3800,-3800,-20,-13,4,-32,-15,3933,9,-2,895,1768,1868,2094,2275,2055,1831,1884,2002
141999,18976,-16116,17814,-14954,-3800,-3800,-20,-15,6,-44,-12,3946,12,-4,895,1768,1868,2094,2275,2055,1831,1884,2002
143000,18972,-16104,17814,-14954,-3800,-3800,-17,-17,5,-49,2,3920,10,-6,895,1768,1868,2093,2275,2054,1832,1883,1999
144001,18960,-16108,17814,-14954,-3800,-3800,-15,-16,3,-32,-12,3917,11,-4,895,1768,1868,2093,2275,2054,1832,1883,1999
145002,18960,-16116,17814,-14954,-3800,-3800,-17,-12,3,-22,-29,3952,11,3,895,1768,1868,2093,2275,2054,1832,1883,1999
146003,18968,-16108,17814,-14954,-3800,-3800,-18,-11,1,-46,-38,3946,11,6,895,1768,1868,2093,2275,2054,1832,1883,1999
147004,18968,-16100,17814,-14954,-3800,-3800,-19,-11,3,-78,-37,3923,-2,4,895,1768,1868,2093,2275,2054,1832,1883,1999
148005,18964,-16100,17814,-14954,-3800,-3800,-20,-12,4,-55,-16,3916,-8,-2,895,1768,1868,2093,2275,2054,1832,1883,1999
149006,18972,-16108,17814,-14954,-3800,-3800,-20,-13,4,-37,-14,3926,-8,-6,895,1768,1868,2094,2275,2054,1832,1884,2002
150007,18964,-16112,17814,-14954,-3800,-3800,-19,-14,3,-37,-32,3930,-6,6,895,1768,1868,2094,2275,2054,1832,1884,2002
151008,18968,-16108,17814,-14954,-3800,-3800,-18,-13,4,-64,-1,3937,1,8,895,1768,1868,2094,2275,2054,1832,1884,2002
152009,18972,-16096,17814,-14954,-3800,-3800,-18,-15,3,-40,10,3916,2,4,895,1768,1868,2094,2275,2054,1832,1884,2002
153010,18976,-16108,17814,-14954,-3800,-3800,-18,-16,3,-25,-14,3918,7,-6,895,1768,1868,2094,2275,2054,1832,1884,2002
154011,18972,-16112,17814,-14954,-3800,-3800,-15,-13,4,-31,-26,3938,11,-6,895,1770,1870,2095,2276,2056,1832,1884,2002
155012,18980,-16112,17814,-14954,-3800,-3800,-16,-13,3,-27,-22,3937,11,-6,895,1770,1870,2095,2276,2056,1832,1884,2002
156013,18980,-16104,17814,-14954,-3800,-3800,-19,-15,-1,-19,-14,3913,6,1,895,1770,1870,2095,2276,2056,1832,1884,2002
157014,18960,-16116,17814,-14954,-3800,-3800,-19,-15,0,-40,-13,3857,7,-4,895,1770,1870,2095,2276,2056,1832,1884,2002
158015,18972,-16116,17814,-14954,-3800,-3800,-18,-15,4,-63,-8,3870,9,-1,895,1770,1870,2095,2276,2056,1832,1884,2002
159016,18956,-16100,17814,-14954,-3800,-3800,-18,-18,4,-44,-12,3922,11,8,895,1770,1870,2095,2276,2056,1832,1884,2002
160017,18972,-16112,17814,-14954,-3800,-3800,-17,-17,4,-39,-39,3956,5,5,895,1767,1868,2093,2275,2054,1832,1883,2003
161018,18968,-16104,17814,-14954,-3800,-3800,-18,-11,3,-37,-11,3935,-3,0,895,1767,1868,2093,2275,2054,1832,1883,2003
162019,18964,-16116,17814,-14954,-3800,-3800,-18,-10,4,-30,-6,3931,-5,-6,895,1767,1868,2093,2275,2054,1832,1883,2003
163020,18956,-16116,17814,-14954,-3800,-3800,-18,-14,3,-20,-16,3930,-7,1,895,1767,1868,2093,2275,2054,1832,1883,2003
164021,18972,-16108,17814,-14954,-3800,-3800,-18,-15,3,-48,-19,3933,-2,8,895,1767,1868,2093,2275,2054,1832,1883,2003
165022,18964,-16108,17814,-14954,-3800,-3800,-20,-16,4,-54,4,3916,-5,4,895,1768,1869,2093,2274,2054,1832,1885,2003
166023,18972,-16116,17814,-14954,-3800,-3800,-21,-18,4,-49,15,3913,-8,-4,895,1768,1869,2093,2274,2054,1832,1885,2003
167024,18964,-16096,17814,-14954,-3800,-3800,-20,-16,3,-49,-1,3898,-8,-7,895,1768,1869,2093,2274,2054,1832,1885,2003
168025,18964,-16108,17814,-14954,-3800,-3800,-18,-13,4,-42,-34,3899,-6,0,895,1768,1869,2093,2274,2054,1832,1885,2003
169026,18964,-16104,17814,-14954,-3800,-3800,-18,-12,6,-37,-42,3923,9,2,895,1768,1869,2093,2274,2054,1832,1885,2003
170029,18960,-16112,17814,-14954,-3800,-3800,-20,-14,3,-53,-5,3934,9,7,895,1768,1869,2093,2274,2054,1832,1885,2003
171028,18968,-16108,17814,-14954,-3800,-3800,-21,-15,3,-51,17,3960,10,0,895,1768,1869,2093,2271,2051,1831,1886,2004
172029,18960,-16104,17814,-14954,-3800,-3800,-20,-15,4,-63,-8,3941,10,-6,895,1768,1869,2093,2271,2051,1831,1886,2004
173030,18980,-16104,17814,-14954,-3800,-3800,-20,-17,4,-43,-20,3933,9,-5,894,1768,1869,2093,2271,2051,1831,1886,2004
174031,18976,-16112,17814,-14954,-3800,-3800,-21,-15,6,-47,-14,3908,-3,0,895,1768,1869,2093,2271,2051,1831,1886,2004
175032,18968,-16092,17814,-14954,-3800,-3800,-21,-13,4,-52,-4,3934,-8,4,895,1768,1869,2093,2271,2051,1831,1886,2004
176033,18960,-16112,17814,-14954,-3800,-3800,-17,-13,3,-39,-10,3938,-8,7,895,1768,1868,2093,2274,2054,1831,1883,2003
177034,18964,-16104,17814,-14954,-3800,-3800,-15,-13,4,-57,-31,3953,-4,2,895,1768,1868,2093,2274,2054,1831,1883,2003
178035,18968,-16104,17814,-14954,-3800,-3800,-21,-14,3,-36,-28,3943,3,-5,895,1768,1868,2093,2274,2054,1831,1883,2003
179036,18964,-16112,17814,-14954,-3800,-3800,-24,-12,5,-36,0,3918,2,-6,895,1768,1868,2093,2274,2054,1831,1883,2003
180037,18968,-16100,17814,-14954,-3800,-3800,-21,-15,4,-45,-6,3938,7,6,895,1768,1868,2093,2274,2054,1831,1883,2003
181038,18964,-16096,17814,-14954,-3800,-3800,-18,-16,4,-60,-11,3926,10,8,895,1768,1868,2093,2274,2054,1831,1883,2003
182039,18968,-16104,17814,-14954,-3800,-3800,-17,-15,3,-52,-1,3923,11,-2,895,1768,1868,2092,2274,2054,1831,1884,2002
183040,18964,-16112,17814,-14954,-3800,-3800,-20,-12,5,-77,-26,3913,6,-4,895,1768,1868,2092,2274,2054,1831,1884,2002
184041,18976,-16116,17814,-14954,-3800,-3800,-21,-13,4,-57,-25,3929,0,5,895,1768,1868,2092,2274,2054,1831,1884,2002
185042,18960,-16104,17814,-14954,-3800,-3800,-20,-14,3,-53,-7,3931,-1,8,895,1768,1868,2092,2274,2054,1831,1884,2002
186043,18960,-16104,17814,-14954,-3800,-3800,-21,-15,6,-26,-21,3959,-7,-5,895,1768,1868,2092,2274,2054,1831,1884,2002
187044,18972,-16108,17814,-14954,-3800,-3800,-22,-15,9,-30,-31,3939,-8,-6,895,1768,1868,2093,2274,2055,1829,1883,2003
188045,18968,-16100,17814,-14954,-3800,-3800,-21,-15,5,-39,-22,3902,-8,-3,895,1768,1868,2093,2274,2055,1829,1883,2003
189046,18980,-16104,17814,-14954,-3800,-3800,-21,-14,4,-73,-27,3918,-4,8,895,1768,1868,2093,2274,2055,1829,1883,2003
190047,18960,-16104,17814,-14954,-3800,-3800,-21,-12,4,-38,-29,3925,6,2,894,1768,1868,2093,2274,2055,1829,1883,2003
191048,18960,-16112,17814,-14954,-3800,-3800,-21,-9,5,-24,-43,3928,5,2,895,1768,1868,2093,2274,2055,1829,1883,2003
192049,18956,-16104,17814,-14954,-3800,-3800,-23,-12,5,-54,-22,3953,7,-6,895,1768,1868,2093,2274,2055,1829,1883,2003
193050,18972,-16100,17814,-14954,-3800,-3800,-20,-14,4,-65,-24,3937,11,-2,895,1769,1868,2092,2274,2054,1831,1884,2002
194051,18976,-16108,17814,-14954,-3800,-3800,-19,-15,4,-36,-40,3926,11,6,895,1769,1868,2092,2274,2054,1831,1884,2002
195052,18980,-16100,17814,-14954,-3800,-3800,-18,-12,5,-47,0,3912,10,3,895,1769,1868,2092,2274,2054,1831,1884,2002
196053,18968,-16100,17814,-14954,-3800,-3800,-19,-12,6,-61,-8,3932,1,-4,895,1769,1868,2092,2274,2054,1831,1884,2002
197054,18972,-16108,17814,-14954,-3800,-3800,-19,-13,5,-46,-23,3916,-1,-6,895,1769,1868,2092,2274,2054,1831,1884,2002
198055,18960,-16104,17814,-14954,-3800,-3800,-20,-14,3,-61,-22,3897,-4,7,895,1769,1868,2093,2274,2053,1831,1884,2002
199056,18976,-16112,17814,-14954,-3800,-3800,-18,-14,4,-77,-13,3900,-8,5,895,1769,1868,2093,2274,2053,1831,1884,2002
200057,18964,-16112,17814,-14954,-3800,-3800,-19,-13,4,-77,-11,3905,-8,-4,895,1769,1868,2093,2274,2053,1831,1884,2002
201058,18964,-16108,17814,-14954,-3800,-3800,-19,-15,3,-32,-6,3918,-2,-1,895,1769,1868,2093,2274,2053,1831,1884,2002
202059,18968,-16108,17814,-14954,-3800,-3800,-19,-17,2,-17,-17,3966,10,7,895,1769,1868,2093,2274,2053,1831,1884,2002
203060,18960,-16100,17879,-14889,-795,1803,-18,-17,4,-27,-24,3946,9,6,895,1769,1868,2093,2274,2053,1831,1884,2002
204061,18968,-16104,17944,-14824,-926,2037,-18,-18,3,-34,-4,3893,10,-5,880,1768,1869,2093,2273,2051,1831,1886,2004
205062,18964,-16092,18009,-14759,-692,1902,-19,-21,2,-45,2,3902,-2,4,876,1768,1869,2093,2273,2051,1831,1886,2004
206063,18960,-16064,18074,-14694,-609,1748,-23,-28,-3,-68,-8,3855,7,23,875,1768,1869,2093,2273,2051,1831,1886,2004
207064,18956,-15992,18139,-14629,-525,1189,-16,-11,-2,-63,-25,4053,16,40,879,1768,1869,2093,2273,2051,1831,1886,2004
208065,18964,-15908,18204,-14564,-605,1017,-23,-50,6,-167,40,4044,3,40,886,1768,1869,2093,2273,2051,1831,1886,2004
209066,18980,-15788,18269,-14499,-646,501,-17,-68,8,-359,32,4131,11,58,888,1752,1868,2092,2272,2053,1831,1884,2003
210067,18968,-15668,18334,-14434,-202,434,-8,-107,1,-114,-28,4110,-2,65,888,1752,1868,2092,2272,2053,1831,1884,2003
211068,18968,-15572,18399,-14369,-273,696,-7,-118,-11,-114,-103,4088,0,56,893,1752,1868,2092,2272,2053,1831,1884,2003
212069,18968,-15472,18464,-14304,-194,604,-18,-100,-23,88,-74,4145,-2,60,890,1752,1868,2092,2272,2053,1831,1884,2003
213070,18960,-15344,18529,-14239,-6,177,-23,-42,-48,235,-174,3764,-3,68,892,1752,1868,2092,2272,2053,1831,1884,2003
214071,18968,-15240,18594,-14174,-136,431,-33,14,-60,199,-177,4001,5,52,894,1752,1868,2092,2272,2053,1831,1884,2003
215072,18976,-15128,18659,-14109,-66,273,-47,57,-68,-124,-94,3671,15,65,887,1775,1878,2104,2249,2062,1828,1893,2013
216073,18964,-14996,18724,-14044,278,-57,-61,54,-80,-313,-61,3849,-3,57,892,1775,1878,2104,2249,2062,1828,1893,2013
217074,18968,-14880,18789,-13979,152,80,-74,-11,-86,-608,-43,3885,15,64,893,1775,1878,2104,2249,2062,1828,1893,2013
218077,18964,-14772,18854,-13914,336,128,-82,-81,-80,-641,86,4136,16,63,894,1775,1878,2104,2249,2062,1828,1893,2013
219076,18952,-14664,18919,-13849,530,76,-91,-146,-71,-486,-60,4062,17,61,893,1775,1878,2104,2249,2062,1828,1893,2013
220077,18972,-14564,18984,-13784,185,134,-102,-187,-78,-272,-41,3946,2,55,892,1791,1870,2095,2276,2066,1844,1894,2017
221078,18960,-14464,19049,-13719,679,91,-113,-187,-84,-512,-107,4178,23,70,894,1791,1870,2095,2276,2066,1844,1894,2017
222079,18976,-14364,19114,-13654,389,48,-106,-167,-88,-92,-33,3930,15,52,891,1791,1870,2095,2276,2066,1844,1894,2017
223080,18988,-14276,19179,-13589,504,171,-107,-126,-90,117,-210,4135,11,64,893,1791,1870,2095,2276,2066,1844,1894,2017
224081,18980,-14156,19244,-13524,843,-296,-96,-80,-86,16,-97,4217,26,55,891,1791,1870,2095,2276,2066,1844,1894,2017
225082,19004,-14088,19309,-13459,493,350,-78,-58,-96,-60,-42,4263,12,52,888,1791,1870,2095,2276,2066,1844,1894,2017
226083,19032,-13992,19374,-13394,488,-38,-67,-91,-99,-239,-67,4186,34,53,891,1759,1862,2086,2260,2074,1848,1898,2021
227084,19064,-13896,19439,-13329,478,-74,-49,-131,-108,-272,-98,4066,35,56,892,1759,1862,2086,2260,2074,1848,1898,2021
228085,19120,-13832,19504,-13264,189,327,-45,-166,-119,-482,2,4098,35,45,892,1759,1862,2086,2260,2074,1848,1898,2021
229086,19148,-13744,19569,-13199,585,-1,-49,-207,-127,-322,-33,3885,38,55,893,1759,1862,2086,2260,2074,1848,1898,2021
230087,19192,-13676,19634,-13134,411,245,-62,-216,-136,-335,-36,3994,22,53,892,1759,1862,2086,2260,2074,1848,1898,2021
231088,19232,-13592,19699,-13069,492,23,-81,-226,-143,-317,-90,3807,26,43,892,1766,1869,2094,2278,2061,1836,1891,2011
232089,19300,-13528,19764,-13004,138,274,-98,-225,-139,-305,-71,3824,33,47,893,1766,1869,2094,2278,2061,1836,1891,2011
233090,19344,-13456,19829,-12939,464,166,-110,-226,-138,-270,-16,3783,29,49,894,1766,1869,2094,2278,2061,1836,1891,2011
234091,19412,-13376,19894,-12874,160,47,-125,-233,-143,-291,-151,3680,45,40,892,1766,1869,2094,2278,2061,1836,1891,2011
235092,19464,-13308,19959,-12809,377,194,-124,-237,-153,-92,-118,4018,46,35,894,1766,1869,2094,2278,2061,1836,1891,2011
236093,19524,-13248,20024,-12744,283,301,-127,-252,-151,-113,-192,3612,44,43,893,1766,1869,2094,2278,2061,1836,1891,2011
237094,19580,-13204,20089,-12679,344,526,-126,-249,-146,-170,-229,4079,38,44,893,1788,1887,2106,2287,2050,1824,1883,2002
238095,19636,-13132,20154,-12614,355,168,-119,-235,-138,-45,-177,3904,29,29,891,1788,1887,2106,2287,2050,1824,1883,2002
239096,19700,-13084,20219,-12549,256,489,-112,-232,-134,-146,-143,3897,37,40,893,1788,1887,2106,2287,2050,1824,1883,2002
240097,19760,-13028,20284,-12484,313,400,-99,-221,-127,-143,-188,3963,44,28,892,1788,1887,2106,2287,2050,1824,1883,2002
241098,19816,-12968,20349,-12419,374,356,-85,-215,-113,-211,-181,3911,30,30,890,1788,1887,2106,2287,2050,1824,1883,2002
242099,19884,-12912,20414,-12354,220,418,-60,-218,-103,-172,-152,3987,40,37,892,1773,1870,2087,2270,2042,1817,1874,1988
243100,19952,-12864,20479,-12289,217,538,-42,-223,-92,-169,-124,3909,46,36,892,1773,1870,2087,2270,2042,1817,1874,1988
244101,20004,-12808,20544,-12224,433,449,-31,-238,-85,-215,-105,3943,37,29,892,1773,1870,2087,2270,2042,1817,1874,1988
245102,20076,-12760,20609,-12159,175,570,-13,-245,-68,-154,-60,3908,41,38,891,1773,1870,2087,2270,2042,1817,1874,1988
246103,20124,-12700,20674,-12094,496,427,-5,-258,-54,-107,-65,3843,33,30,891,1773,1870,2087,2270,2042,1817,1874,1988
247104,20192,-12664,20739,-12029,242,763,10,-268,-44,-144,-95,3886,47,30,890,1773,1870,2087,2270,2042,1817,1874,1988
249106,20320,-12556,20869,-11899,245,590,21,-255,-35,62,-189,3784,44,40,891,1766,1862,2081,2271,2029,1810,1866,1975
250107,20388,-12496,20934,-11834,242,497,36,-238,-36,56,-111,3890,33,41,891,1766,1862,2081,2271,2029,1810,1866,1975
251108,20460,-12444,20999,-11769,183,612,45,-229,-29,67,-190,3779,46,27,892,1766,1862,2081,2271,2029,1810,1866,1975
252109,20516,-12384,21064,-11704,394,519,52,-214,-17,88,-213,3767,37,34,891,1766,1862,2081,2271,2029,1810,1866,1975
253110,20580,-12332,21129,-11639,296,634,56,-201,-12,166,-207,3800,48,26,891,1779,1875,2096,2291,2031,1813,1871,1981
254111,20648,-12276,21194,-11574,242,596,57,-191,-3,93,-291,3622,31,35,890,1779,1875,2096,2291,2031,1813,1871,1981
255112,20712,-12236,21259,-11509,294,827,60,-190,6,243,-328,3578,30,27,891,1779,1875,2096,2291,2031,1813,1871,1981
256113,20764,-12164,21324,-11444,460,418,59,-170,20,96,-340,3732,29,28,889,1779,1875,2096,2291,2031,1813,1871,1981
257114,20840,-12104,21389,-11379,147,575,55,-179,32,-50,-339,3624,33,42,891,1779,1875,2096,2291,2031,1813,1871,1981
258115,20916,-12052,21454,-11314,133,691,68,-179,54,-43,-384,3791,45,41,891,1779,1875,2096,2291,2031,1813,1871,1981
259116,20968,-11992,21519,-11249,449,597,80,-174,73,24,-315,3941,34,34,891,1783,1876,2097,2285,2031,1811,1871,1988
260117,21032,-11944,21584,-11184,301,768,101,-160,84,86,-240,3818,43,34,890,1783,1876,2097,2285,2031,1811,1871,1988
261118,21072,-11872,21649,-11119,632,460,99,-151,83,-60,-246,3873,46,40,889,1783,1876,2097,2285,2031,1811,1871,1988
262119,21164,-11816,21714,-11054,-51,672,107,-144,89,-71,-214,4003,29,34,889,1783,1876,2097,2285,2031,1811,1871,1988
263120,21220,-11764,21779,-10989,410,738,109,-119,98,13,-179,3835,30,32,891,1783,1876,2097,2285,2031,1811,1871,1988
264121,21268,-11712,21844,-10924,531,753,123,-106,98,-19,-172,4109,45,39,889,1766,1862,2080,2262,2045,1819,1877,1994
265122,21340,-11644,21909,-10859,223,551,129,-98,98,28,-58,4046,43,35,888,1766,1862,2080,2262,2045,1819,1877,1994
266123,21400,-11576,21974,-10794,379,547,143,-105,106,-152,-71,4223,46,38,891,1766,1862,2080,2262,2045,1819,1877,1994
267124,21448,-11516,22039,-10729,550,653,153,-101,109,-65,-25,4043,45,47,891,1766,1862,2080,2262,2045,1819,1877,1994
268125,21512,-11456,22104,-10664,351,660,162,-107,106,-23,-59,4204,34,35,889,1766,1862,2080,2262,2045,1819,1877,1994
269126,21564,-11384,22169,-10599,518,502,162,-110,117,30,-60,4055,37,33,889,1766,1862,2080,2262,2045,1819,1877,1994
270127,21628,-11320,22234,-10534,369,603,174,-128,119,16,-109,4070,32,40,890,1757,1857,2080,2262,2056,1831,1889,2007
271128,21696,-11272,22299,-10469,316,824,174,-138,112,-57,-74,4013,42,33,890,1757,1857,2080,2262,2056,1831,1889,2007
272129,21740,-11220,22364,-10404,641,791,184,-120,114,89,-128,3953,48,30,888,1757,1857,2080,2262,2056,1831,1889,2007
273130,21824,-11156,22429,-10339,118,642,171,-122,116,185,-195,3683,36,44,887,1757,1857,2080,2262,2056,1831,1889,2007
274131,21884,-11092,22494,-10274,425,643,163,-115,110,83,-275,3802,33,32,890,1757,1857,2080,2262,2056,1831,1889,2007
275132,21948,-11036,22559,-10209,376,755,161,-107,128,-28,-45,4120,32,45,888,1780,1881,2107,2292,2065,1841,1893,2013
276133,22020,-10976,22624,-10144,268,711,164,-142,144,111,-86,3727,42,34,889,1780,1881,2107,2292,2065,1841,1893,2013
277134,22080,-10912,22689,-10079,424,662,179,-160,139,-50,-126,3978,33,30,890,1780,1881,2107,2292,2065,1841,1893,2013
278135,22144,-10880,22754,-10014,376,1104,166,-181,128,-81,-57,4011,32,41,889,1780,1881,2107,2292,2065,1841,1893,2013
279136,22216,-10820,22819,-9949,268,760,163,-164,117,116,-34,4093,46,31,886,1780,1881,2107,2292,2065,1841,1893,2013
280137,22276,-10732,22884,-9884,424,382,159,-164,116,67,-70,4084,45,31,889,1780,1881,2107,2292,2065,1841,1893,2013
281138,22332,-10664,22949,-9819,485,629,155,-157,107,-107,-30,4233,42,28,891,1788,1886,2112,2290,2058,1831,1886,2009
282139,22388,-10612,23014,-9754,497,845,163,-144,94,19,55,4213,40,31,889,1788,1886,2112,2290,2058,1831,1886,2009
283140,22468,-10560,23079,-9689,178,861,171,-173,77,45,21,4028,35,27,887,1788,1886,2112,2290,2058,1831,1886,2009
284141,22516,-10504,23144,-9624,599,823,171,-183,53,-78,-6,4187,32,42,889,1788,1886,2112,2290,2058,1831,1886,2009
285142,22580,-10444,23209,-9559,400,779,177,-168,39,-125,18,4203,43,39,887,1788,1886,2112,2290,2058,1831,1886,2009
286143,22640,-10388,23274,-9494,457,840,181,-152,42,-334,41,4205,49,31,888,1775,1876,2096,2274,2056,1828,1885,2007
287144,22704,-10344,23339,-9429,409,1016,187,-162,43,-245,47,4028,39,30,887,1775,1876,2096,2274,2056,1828,1885,2007
288145,22764,-10272,23404,-9364,465,658,194,-185,48,-150,84,4066,49,38,886,1775,1876,2096,2274,2056,1828,1885,2007
289146,22824,-10224,23469,-9299,471,979,200,-217,40,-192,128,4020,40,32,888,1775,1876,2096,2274,2056,1828,1885,2007
290147,22880,-10172,23534,-9234,532,946,203,-241,40,-146,151,4007,40,43,886,1775,1876,2096,2274,2056,1828,1885,2007
291148,22936,-10116,23599,-9169,544,907,207,-245,31,87,111,4031,47,37,886,1775,1876,2096,2274,2056,1828,1885,2007
292149,23016,-10056,23664,-9104,226,863,214,-237,24,143,72,3973,34,31,885,1768,1871,2091,2271,2058,1833,1889,2011
293150,23084,-9996,23729,-9039,372,870,225,-223,26,11,140,3843,41,34,888,1768,1871,2091,2271,2058,1833,1889,2011
294151,23136,-9920,23794,-8974,588,656,247,-201,9,133,184,4071,40,38,888,1768,1871,2091,2271,2058,1833,1889,2011
295152,23204,-9864,23859,-8909,385,917,250,-181,-13,110,227,4101,49,33,888,1768,1871,2091,2271,2058,1833,1889,2011
296153,23276,-9816,23924,-8844,327,1039,261,-178,-17,185,123,3952,51,42,888,1768,1871,2091,2271,2058,1833,1889,2011
297154,23344,-9740,23989,-8779,373,676,262,-184,-19,268,116,4075,46,33,887,1771,1873,2097,2279,2050,1826,1878,1996
298155,23420,-9680,24054,-8714,259,883,262,-202,-32,-53,145,3853,44,31,889,1771,1873,2097,2279,2050,1826,1878,1996
299156,23476,-9628,24119,-8649,521,999,259,-206,-46,-141,125,4085,48,40,888,1771,1873,2097,2279,2050,1826,1878,1996
300157,23520,-9536,24184,-8584,697,466,257,-195,-59,56,107,4018,36,31,886,1771,1873,2097,2279,2050,1826,1878,1996
301158,23600,-9488,24249,-8519,229,1037,260,-195,-70,-45,139,4060,46,45,888,1771,1873,2097,2279,2050,1826,1878,1996
302159,23668,-9452,24314,-8454,375,1223,260,-181,-79,-41,46,3941,38,34,887,1771,1873,2097,2279,2050,1826,1878,1996
303160,23716,-9388,24379,-8389,647,874,256,-196,-90,-59,85,4046,48,30,885,1779,1878,2108,2290,2044,1822,1874,1992
304161,23788,-9316,24444,-8324,338,766,257,-170,-100,-36,101,4042,50,39,885,1779,1878,2108,2290,2044,1822,1874,1992
305162,23836,-9240,24509,-8259,659,703,258,-168,-110,-21,148,4161,33,41,888,1779,1878,2108,2290,2044,1822,1874,1992
306163,23900,-9176,24574,-8194,460,854,263,-154,-107,-134,141,4133,34,31,887,1779,1878,2108,2290,2044,1822,1874,1992
307164,23960,-9104,24639,-8129,517,747,277,-140,-107,24,181,4070,36,37,887,1779,1878,2108,2290,2044,1822,1874,1992
308165,24012,-9044,24704,-8064,633,903,281,-119,-108,35,102,3955,44,44,887,1775,1873,2100,2281,2051,1828,1881,2003
309166,24096,-8988,24769,-7999,210,965,289,-100,-112,-175,197,4044,38,31,884,1775,1873,2100,2281,2051,1828,1881,2003
310167,24144,-8940,24834,-7934,681,1086,296,-64,-109,-103,167,4043,33,33,887,1775,1873,2100,2281,2051,1828,1881,2003
311168,24204,-8880,24899,-7869,538,942,312,-51,-102,-10,225,4009,49,36,884,1775,1873,2100,2281,2051,1828,1881,2003
312169,24276,-8812,24964,-7804,379,839,320,-44,-102,-95,305,3966,47,35,886,1775,1873,2100,2281,2051,1828,1881,2003
313170,24348,-8768,25029,-7739,371,1165,334,-47,-101,-102,289,4086,37,28,887,1775,1873,2100,2281,2051,1828,1881,2003
314171,24408,-8712,25094,-7674,527,1027,344,-74,-99,-139,196,3682,53,39,885,1768,1867,2094,2275,2058,1833,1885,2003
315172,24468,-8664,25159,-7609,534,1147,344,-85,-98,-138,307,4023,39,38,885,1768,1867,2094,2275,2058,1833,1885,2003
316173,24540,-8628,25224,-7544,375,1333,356,-64,-101,45,340,3947,42,37,884,1768,1867,2094,2275,2058,1833,1885,2003
317174,24616,-8552,25289,-7479,312,820,357,-55,-107,141,266,3886,32,40,883,1768,1867,2094,2275,2058,1833,1885,2003
318175,24680,-8496,25354,-7414,464,1081,359,-63,-107,-11,181,3842,48,28,887,1768,1867,2094,2275,2058,1833,1885,2003
319176,24740,-8452,25419,-7349,520,1258,361,-63,-110,-8,205,3935,33,40,885,1767,1862,2089,2269,2047,1823,1875,1996
320177,24804,-8404,25484,-7284,472,1229,365,-40,-123,150,211,4028,41,41,883,1767,1862,2089,2269,2047,1823,1875,1996
321178,24876,-8328,25549,-7219,363,865,354,-32,-129,251,187,3838,49,36,883,1767,1862,2089,2269,2047,1823,1875,1996
322179,24948,-8264,25614,-7154,355,1017,356,-29,-127,154,106,4028,32,38,887,1767,1862,2089,2269,2047,1823,1875,1996
323180,24996,-8212,25679,-7089,676,1183,360,-10,-144,167,285,3931,35,33,887,1767,1862,2089,2269,2047,1823,1875,1996
324181,25064,-8160,25744,-7024,423,1200,347,-17,-143,47,190,4018,33,37,883,1767,1862,2089,2269,2047,1823,1875,1996
325182,25136,-8100,25809,-6959,364,1106,363,-20,-149,219,150,3930,33,33,884,1768,1864,2088,2264,2042,1814,1870,1995
326183,25196,-8032,25874,-6894,521,1003,351,-30,-144,85,97,3938,48,38,884,1768,1864,2088,2264,2042,1814,1870,1995
327184,25256,-7968,25939,-6829,527,1055,353,-18,-146,8,181,3916,40,36,885,1768,1864,2088,2264,2042,1814,1870,1995
328185,25312,-7904,26004,-6764,588,1056,357,-20,-141,-74,157,3967,37,46,885,1768,1864,2088,2264,2042,1814,1870,1995
329186,25372,-7844,26069,-6699,544,1113,363,-38,-142,20,167,3904,49,43,885,1768,1864,2088,2264,2042,1814,1870,1995
330187,25436,-7784,26134,-6634,497,1119,370,-58,-136,-94,198,3971,45,44,884,1764,1868,2091,2264,2056,1826,1882,2013
331188,25504,-7724,26199,-6569,443,1126,366,-79,-135,-123,183,3829,34,42,884,1764,1868,2091,2264,2056,1826,1882,2013
332189,25544,-7672,26264,-6504,823,1242,369,-92,-130,-45,196,3840,32,35,884,1764,1868,2091,2264,2056,1826,1882,2013
333190,25608,-7596,26329,-6439,525,930,364,-107,-119,53,231,3905,34,37,881,1764,1868,2091,2264,2056,1826,1882,2013
334191,25680,-7528,26394,-6374,417,1026,367,-128,-104,31,160,3667,44,33,884,1764,1868,2091,2264,2056,1826,1882,2013
335192,25740,-7476,26459,-6309,573,1242,368,-150,-91,-25,85,3766,49,32,886,1763,1869,2092,2264,2064,1832,1892,2013
336193,25832,-7412,26524,-6244,140,1094,382,-152,-90,-124,124,3908,40,27,883,1763,1869,2092,2264,2064,1832,1892,2021
337194,25864,-7360,26589,-6179,931,1260,402,-133,-102,130,204,3985,53,39,886,1763,1869,2092,2264,2064,1832,1892,2021
338195,25944,-7300,26654,-6114,313,1167,415,-142,-92,309,63,3843,50,37,881,1763,1869,2092,2264,2064,1832,1892,2021
339196,26004,-7252,26719,-6049,569,1338,425,-144,-88,261,302,4067,47,40,884,1763,1869,2092,2264,2064,1832,1892,2021
340197,26064,-7184,26784,-5984,575,1085,431,-156,-98,162,232,3785,44,36,882,1763,1869,2092,2264,2064,1832,1892,2021
341198,26156,-7120,26849,-5919,143,1137,424,-170,-120,390,355,4029,44,34,883,1762,1863,2084,2259,2055,1821,1878,2002
342199,26208,-7088,26914,-5854,659,1578,430,-182,-129,268,327,3936,33,32,885,1762,1863,2084,2259,2055,1821,1878,2002
343200,26260,-7008,26979,-5789,675,960,424,-191,-130,180,330,3980,49,44,879,1762,1863,2084,2259,2055,1821,1878,2002
344201,26332,-6956,27044,-5724,417,1326,423,-215,-142,247,269,3958,41,34,883,1762,1863,2084,2259,2055,1821,1878,2002
345202,26384,-6912,27109,-5659,684,1452,425,-241,-137,118,260,4133,46,33,883,1762,1863,2084,2259,2055,1821,1878,2002
346203,26436,-6828,27174,-5594,699,929,418,-248,-132,109,248,4103,37,34,880,1767,1866,2087,2263,2039,1813,1871,1996
347204,26504,-6776,27239,-5529,496,1346,408,-255,-130,126,139,4067,36,44,883,1767,1866,2087,2263,2039,1813,1871,1996
348205,26588,-6720,27304,-5464,273,1307,395,-266,-114,55,209,4191,35,33,883,1767,1866,2087,2263,2039,1813,1871,1996
349206,26636,-6652,27369,-5399,744,1154,391,-268,-89,53,78,4008,33,37,883,1767,1866,2087,2263,2039,1813,1871,1996
350207,26696,-6604,27434,-5334,600,1425,388,-272,-77,165,56,4066,37,33,883,1767,1866,2087,2263,2039,1813,1871,1996
351208,26752,-6540,27499,-5269,661,1227,392,-283,-56,59,152,4140,42,42,881,1767,1866,2087,2263,2039,1813,1871,1996
352209,26824,-6468,27564,-5204,454,1118,402,-291,-42,85,124,4089,48,35,881,1771,1872,2098,2270,2059,1828,1885,2018
353210,26876,-6408,27629,-5139,720,1276,408,-302,-19,209,-19,4016,32,38,884,1771,1872,2098,2270,2059,1828,1885,2018
354211,26936,-6348,27694,-5074,626,1282,426,-304,-3,-9,78,3981,33,48,881,1771,1872,2098,2270,2059,1828,1885,2018
355212,26996,-6284,27759,-5009,632,1234,433,-307,3,-210,118,3864,48,45,882,1771,1872,2098,2270,2059,1828,1885,2018
356213,27076,-6236,27824,-4944,365,1455,454,-309,2,85,139,4046,42,35,882,1771,1872,2098,2270,2059,1828,1885,2018
357214,27132,-6156,27889,-4879,676,1037,464,-338,15,174,197,3994,39,30,882,1774,1877,2104,2276,2082,1844,1899,2029
358215,27196,-6088,27954,-4814,577,1184,476,-355,19,89,264,3936,42,34,883,1774,1877,2104,2276,2082,1844,1899,2029
359216,27256,-6028,28019,-4749,634,1291,483,-358,18,77,362,4081,46,41,883,1774,1877,2104,2276,2082,1844,1899,2029
360217,27312,-5992,28084,-4684,695,1626,495,-363,19,190,334,3997,39,28,881,1774,1877,2104,2276,2082,1844,1899,2029
361218,27380,-5928,28149,-4619,541,1278,501,-354,5,314,346,4057,44,29,877,1774,1877,2104,2276,2082,1844,1899,2029
362219,27456,-5856,28214,-4554,428,1170,501,-346,-1,195,361,4088,30,40,881,1774,1877,2104,2276,2082,1844,1899,2029
363220,27504,-5812,28279,-4489,800,1546,497,-352,18,105,367,4151,36,37,883,1774,1873,2095,2273,2063,1827,1885,2006
364221,27576,-5744,28344,-4424,491,1243,498,-346,15,287,339,4114,38,33,879,1774,1873,2095,2273,2063,1827,1885,2006
365222,27624,-5688,28409,-4359,812,1405,494,-353,26,162,285,4227,30,42,881,1774,1873,2095,2273,2063,1827,1885,2006
366223,27672,-5640,28474,-4294,834,1526,487,-341,29,252,321,4177,45,38,880,1774,1873,2095,2273,2063,1827,1885,2006
367224,27740,-5572,28539,-4229,580,1273,482,-338,44,263,262,4278,37,38,877,1774,1873,2095,2273,2063,1827,1885,2006
368225,27808,-5532,28604,-4164,576,1653,477,-350,67,218,290,4084,48,35,881,1771,1868,2091,2271,2043,1815,1871,1995
369226,27876,-5480,28669,-4099,574,1520,480,-357,85,-19,183,4136,36,34,878,1771,1868,2091,2271,2043,1815,1871,1995
370227,27924,-5420,28734,-4034,844,1426,475,-367,96,32,137,4141,49,29,879,1771,1868,2091,2271,2043,1815,1871,1995
371228,27992,-5352,28799,-3969,591,1324,488,-379,108,108,71,4129,49,37,878,1771,1868,2091,2271,2043,1815,1871,1995
372229,28032,-5300,28864,-3904,971,1540,493,-401,129,-44,152,4171,33,40,880,1771,1868,2091,2271,2043,1815,1871,1995
373230,28096,-5240,28929,-3839,673,1447,501,-417,149,-115,38,4091,35,37,877,1771,1868,2091,2271,2043,1815,1871,1995
374231,28160,-5168,28994,-3774,675,1288,497,-437,168,88,99,4156,53,44,879,1768,1868,2098,2271,2059,1830,1883,2011
375232,28220,-5104,29059,-3709,731,1390,500,-452,179,13,131,4140,54,47,881,1768,1868,2098,2271,2059,1830,1883,2011
376233,28272,-5072,29124,-3644,848,1831,498,-466,192,-9,112,4040,40,33,880,1768,1868,2098,2271,2059,1830,1883,2011
377234,28356,-4992,29189,-3579,424,1213,499,-452,193,162,182,4078,38,32,874,1768,1868,2098,2271,2059,1830,1883,2011
378235,28424,-4932,29254,-3514,621,1469,500,-443,195,134,219,4089,42,30,880,1768,1868,2098,2271,2059,1830,1883,2011
379236,28492,-4888,29319,-3449,618,1696,504,-444,194,185,307,4003,52,41,881,1771,1874,2103,2273,2082,1844,1899,2033
380237,28548,-4820,29384,-3384,779,1393,499,-461,191,84,342,3945,47,45,878,1771,1874,2103,2273,2082,1844,1899,2033
381238,28620,-4752,29449,-3319,570,1390,504,-456,174,45,494,3903,47,36,877,1771,1874,2103,2273,2082,1844,1899,2033
382239,28680,-4700,29514,-3254,728,1607,504,-437,167,144,546,4048,50,43,880,1771,1874,2103,2273,2082,1844,1899,2033
383240,28748,-4652,29579,-3189,624,1677,505,-438,171,247,539,3953,39,29,879,1771,1874,2103,2273,2082,1844,1899,2033
384241,28820,-4584,29644,-3124,565,1425,501,-446,170,135,511,3906,51,32,877,1771,1874,2103,2273,2082,1844,1899,2033
385242,28896,-4540,29709,-3059,503,1750,498,-470,175,-41,479,4013,45,40,878,1771,1871,2091,2262,2079,1842,1896,2026
386243,28960,-4496,29774,-2994,654,1777,497,-492,185,77,488,4053,34,32,878,1771,1871,2091,2262,2079,1842,1896,2026
387244,29000,-4424,29839,-2929,985,1418,500,-490,180,138,379,3989,41,25,876,1771,1871,2091,2262,2079,1842,1896,2026
388245,29060,-4384,29904,-2864,741,1850,488,-485,191,63,433,4185,35,34,876,1771,1871,2091,2262,2079,1842,1896,2026
389246,29120,-4340,29969,-2799,748,1827,506,-470,208,15,500,4255,35,29,875,1771,1871,2091,2262,2079,1842,1896,2026
390247,29180,-4296,30034,-2734,754,1852,505,-473,207,58,336,4029,38,23,873,1752,1853,2076,2244,2056,1821,1873,2001
391248,29244,-4240,30099,-2669,705,1714,506,-487,213,-15,314,4217,34,27,873,1752,1853,2076,2244,2056,1821,1873,2001
392249,29296,-4180,30164,-2604,872,1670,497,-516,227,-30,319,4152,45,24,874,1752,1853,2076,2244,2056,1821,1873,2001
393250,29364,-4132,30229,-2539,668,1842,485,-520,236,-58,276,4157,45,31,874,1752,1853,2076,2244,2056,1821,1873,2001
394251,29404,-4080,30294,-2474,1049,1809,467,-527,252,41,256,4038,38,26,873,1752,1853,2076,2244,2056,1821,1873,2001
395253,29472,-4036,30359,-2409,696,1935,455,-529,267,40,254,4153,40,30,871,1752,1853,2076,2244,2056,1821,1873,2001
396253,29536,-3992,30424,-2344,747,1961,436,-535,269,126,406,4045,35,42,872,1752,1854,2086,2256,2052,1824,1873,2006
397254,29604,-3936,30489,-2279,694,1822,434,-535,271,-84,214,3763,37,41,872,1752,1854,2086,2256,2052,1824,1873,2006
398255,29684,-3856,30554,-2214,527,1505,422,-547,268,39,340,3875,35,35,873,1752,1854,2086,2256,2052,1824,1873,2006
399256,29760,-3776,30619,-2149,563,1488,420,-549,267,-96,440,3923,34,31,876,1752,1854,2086,2256,2052,1824,1873,2006
400257,29816,-3740,30684,-2084,824,2073,411,-559,262,-46,451,3912,43,29,879,1752,1854,2086,2256,2052,1824,1873,2006
401258,29872,-3672,30749,-2019,836,1670,409,-573,249,106,495,3880,32,35,875,1765,1867,2100,2268,2079,1843,1894,2029
402259,29940,-3616,30814,-1954,682,1832,404,-575,233,111,674,4023,48,38,872,1765,1867,2100,2268,2079,1843,1894,2029
403260,29988,-3560,30879,-1889,953,1843,407,-570,223,76,634,3963,48,35,875,1765,1867,2100,2268,2079,1843,1894,2029
404261,30044,-3484,30944,-1824,865,1581,412,-556,222,22,683,3891,30,42,873,1765,1867,2100,2268,2079,1843,1894,2029
405262,30096,-3424,31009,-1759,931,1787,417,-565,218,-68,601,3968,43,37,874,1765,1867,2100,2268,2079,1843,1894,2029
406263,30176,-3352,31074,-1694,563,1629,427,-553,221,-39,548,4029,35,48,874,1765,1867,2100,2268,2079,1843,1894,2029
407264,30236,-3300,31139,-1629,820,1896,428,-571,229,36,608,3983,39,32,875,1761,1863,2088,2254,2082,1843,1896,2028
408265,30308,-3232,31204,-1564,661,1693,426,-574,244,-133,577,4096,45,45,875,1761,1863,2088,2254,2082,1843,1896,2028
409266,30348,-3176,31269,-1499,1092,1855,428,-584,265,-63,673,4022,49,41,874,1761,1863,2088,2254,2082,1843,1896,2028
410267,30412,-3100,31334,-1434,794,1592,430,-590,278,-165,761,4178,44,40,873,1761,1863,2088,2254,2082,1843,1896,2028
411268,30492,-3024,31399,-1369,576,1579,440,-595,288,-140,681,4106,50,39,872,1761,1863,2088,2254,2082,1843,1896,2028
412269,30536,-2968,31464,-1304,1051,1841,446,-603,289,35,640,4061,42,34,877,1751,1855,2079,2243,2057,1823,1875,2006
413270,30604,-2900,31529,-1239,749,1688,439,-616,285,1,563,4128,45,36,875,1751,1855,2079,2243,2057,1823,1875,2006
414271,30652,-2844,31594,-1174,1019,1849,432,-622,296,-113,644,4166,44,45,873,1751,1855,2079,2243,2057,1823,1875,2006
415272,30724,-2764,31659,-1109,712,1532,427,-624,301,-17,654,4308,51,34,873,1751,1855,2079,2243,2057,1823,1875,2006
416273,30784,-2708,31724,-1044,868,1843,418,-624,301,49,456,4148,41,43,875,1751,1855,2079,2243,2057,1823,1875,2006
417274,30840,-2620,31789,-979,929,1416,408,-616,301,136,569,4190,53,35,875,1751,1855,2079,2243,2057,1823,1875,2006
418275,30900,-2560,31854,-914,886,1773,397,-615,306,55,669,4148,43,37,875,1760,1861,2093,2260,2046,1817,1867,2001
419276,30960,-2496,31919,-849,892,1724,391,-607,300,6,645,4290,56,49,875,1760,1861,2093,2260,2046,1817,1867,2001
420277,31020,-2420,31984,-784,898,1562,390,-589,281,147,639,4179,55,46,874,1760,1861,2093,2260,2046,1817,1867,2001
421278,31068,-2348,32049,-719,1070,1604,385,-587,278,178,638,4258,56,49,875,1760,1861,2093,2260,2046,1817,1867,2001
422279,31144,-2296,32114,-654,707,1870,393,-578,294,8,733,4261,49,48,874,1760,1861,2093,2260,2046,1817,1867,2001
423280,31224,-2228,32179,-589,638,1667,390,-579,302,37,548,3908,50,46,874,1777,1877,2115,2284,2072,1842,1891,2025
424281,31296,-2168,32244,-524,731,1773,406,-589,313,-67,671,4214,40,35,875,1777,1877,2115,2284,2072,1842,1891,2025
425282,31364,-2100,32309,-459,777,1671,411,-609,320,-57,835,3959,57,50,875,1777,1877,2115,2284,2072,1842,1891,2025
426283,31452,-2024,32374,-394,500,1558,427,-618,311,47,906,4195,41,35,875,1777,1877,2115,2284,2072,1842,1891,2025
427284,31528,-1952,32439,-329,637,1600,442,-640,326,-141,941,4192,39,50,877,1777,1877,2115,2284,2072,1842,1891,2025
428285,31580,-1888,32504,-264,952,1702,443,-646,325,101,887,4169,48,34,877,1777,1877,2115,2284,2072,1842,1891,2025
429286,31644,-1828,32569,-199,805,1758,449,-635,317,98,958,4314,39,35,876,1781,1881,2118,2289,2089,1851,1902,2031
430287,31708,-1772,32634,-134,806,1820,446,-609,303,171,1094,4256,41,38,874,1781,1881,2118,2289,2089,1851,1902,2031
431288,31768,-1708,32699,-69,862,1722,456,-588,300,162,940,4485,39,44,874,1781,1881,2118,2289,2089,1851,1902,2031
432289,31840,-1616,32764,-4,704,1339,481,-572,314,223,1055,4435,53,39,873,1781,1881,2118,2289,2089,1851,1902,2031
433290,31896,-1568,32829,61,915,1911,503,-582,321,168,805,4392,46,35,874,1781,1881,2118,2289,2089,1851,1902,2031
434291,31964,-1512,32894,126,762,1823,532,-564,307,-82,777,4672,53,31,880,1775,1876,2109,2279,2072,1838,1885,2013
435292,32024,-1448,32959,191,869,1724,552,-574,301,-2,706,4579,41,34,871,1775,1876,2109,2279,2072,1838,1885,2013
436293,32060,-1392,33024,256,1204,1836,585,-587,313,172,817,4882,51,46,874,1775,1876,2109,2279,2072,1838,1885,2013
437294,32136,-1328,33089,321,691,1737,604,-620,327,102,733,4457,38,39,874,1775,1876,2109,2279,2072,1838,1885,2013
438295,32204,-1264,33154,386,788,1740,615,-628,324,4,796,4700,43,46,870,1775,1876,2109,2279,2072,1838,1885,2013
439296,32268,-1188,33219,451,839,1577,624,-636,316,58,700,4535,39,37,875,1775,1876,2109,2279,2072,1838,1885,2013
440297,32340,-1116,33284,516,731,1619,647,-635,314,150,812,4744,36,44,874,1786,1892,2126,2302,2047,1820,1874,2002
441298,32400,-1052,33349,581,888,1721,677,-645,318,182,670,4795,42,44,876,1786,1892,2126,2302,2047,1820,1874,2002
442299,32476,-976,33414,646,675,1558,703,-670,312,201,717,4631,53,38,876,1786,1892,2126,2302,2047,1820,1874,2002
443301,32520,-920,33479,711,1101,1819,722,-690,306,147,721,4813,52,45,874,1786,1892,2126,2302,2047,1820,1874,2002
444301,32596,-848,33544,776,688,1612,721,-690,286,81,803,4650,53,44,878,1786,1892,2126,2302,2047,1820,1874,2002
445302,32652,-768,33609,841,949,1494,749,-682,285,248,633,4810,57,44,869,1830,1935,2167,2353,2049,1826,1890,2018
446303,32724,-684,33674,906,741,1421,765,-724,294,589,747,4444,45,47,876,1830,1935,2167,2353,2049,1826,1890,2018
447304,32792,-616,33739,971,788,1619,731,-752,302,293,680,4212,35,51,876,1830,1935,2167,2353,2049,1826,1890,2018
448305,32864,-576,33804,1036,729,1999,598,-695,250,-419,872,3960,37,44,879,1830,1935,2167,2353,2049,1826,1890,2018
449306,32940,-496,33869,1101,667,1482,457,-514,153,-1480,91,5285,52,37,876,1830,1935,2167,2353,2049,1826,1890,2018
450307,32988,-408,33934,1166,1037,1354,441,-396,173,258,779,4628,49,49,872,1830,1935,2167,2353,2049,1826,1890,2018
451308,33056,-328,33999,1231,784,1437,434,-419,287,1609,1183,3618,39,49,879,1860,1960,2179,2350,2095,1870,1929,2068
452309,33132,-248,34198,1430,1522,2270,403,-443,254,162,635,3875,39,50,877,1860,1960,2179,2350,2095,1870,1929,2068
453310,33200,-160,34263,1495,1618,2142,404,-495,180,-1334,859,4693,44,53,878,1860,1960,2179,2350,2095,1870,1929,2068
454311,33264,-84,34328,1560,1670,2279,458,-517,192,-372,777,4109,56,57,862,1860,1960,2179,2350,2095,1870,1929,2068
455312,33360,40,34393,1625,1232,1608,486,-436,213,1114,440,3921,67,64,863,1860,1960,2179,2350,2095,1870,1929,2068
456313,33464,160,34458,1690,1085,1591,511,-386,239,-10,409,4660,75,75,860,1747,1843,2083,2227,2172,1923,1937,2082
457314,33572,256,34523,1755,983,1854,549,-442,259,-801,339,4202,60,72,873,1747,1843,2083,2227,2172,1923,1937,2082
458315,33684,372,34588,1820,876,1542,593,-471,248,-183,473,4381,68,74,875,1747,1843,2083,2227,2172,1923,1937,2082
459316,33772,472,34653,1885,1148,1700,625,-493,255,5,639,4114,64,73,873,1747,1843,2083,2227,2172,1923,1937,2082
460317,33892,592,34718,1950,682,1383,671,-532,257,32,833,4693,62,62,877,1747,1843,2083,2227,2172,1923,1937,2082
461318,34000,696,34783,2015,779,1537,692,-580,240,89,1064,4573,81,65,873,1747,1843,2083,2227,2172,1923,1937,2082
462319,34104,812,34848,2080,782,1324,708,-615,213,24,1324,4448,69,65,880,1660,1763,2012,2162,2111,1861,1882,2010
463320,34224,916,34913,2145,516,1428,699,-604,191,159,1420,4515,63,69,878,1660,1763,2012,2162,2111,1861,1882,2010
464321,34304,1028,34978,2210,997,1270,664,-600,168,449,1437,4536,62,74,880,1660,1763,2012,2162,2111,1861,1882,2010
465322,34404,1144,35043,2275,705,1159,607,-540,139,305,1407,4551,73,60,881,1660,1763,2012,2162,2111,1861,1882,2010
466323,34508,1260,35108,2340,607,1097,541,-490,140,582,1463,4141,59,66,879,1660,1763,2012,2162,2111,1861,1882,2010
467324,34608,1356,35173,2405,615,1310,490,-451,157,903,1418,4078,71,61,882,1731,1844,2086,2262,2020,1793,1852,1984
468325,34696,1480,35238,2470,737,888,413,-447,151,670,1194,3852,73,67,884,1731,1844,2086,2262,2020,1793,1852,1984
469326,34792,1580,35303,2535,599,1145,337,-428,113,155,1242,3761,64,68,881,1731,1844,2086,2262,2020,1793,1852,1984
470327,34888,1680,35368,2600,561,1104,257,-403,88,34,1323,3597,69,64,884,1731,1844,2086,2262,2020,1793,1852,1984
471328,34996,1760,35433,2665,359,1335,165,-358,58,470,1120,3436,67,58,883,1731,1844,2086,2262,2020,1793,1852,1984
472329,35076,1848,35498,2730,692,1207,81,-310,47,370,1023,3288,49,58,884,1731,1844,2086,2262,2020,1793,1852,1984
473330,35152,1956,35563,2795,728,906,33,-294,62,61,944,3196,66,53,884,1834,1943,2179,2337,2064,1839,1890,2048
474331,35252,2036,35628,2860,385,1237,14,-324,63,-92,781,3223,65,49,882,1834,1943,2179,2337,2064,1839,1890,2048
475332,35336,2120,35693,2925,562,1164,36,-344,58,-130,597,3226,45,50,884,1834,1943,2179,2337,2064,1839,1890,2048
476333,35416,2200,35758,2990,594,1197,57,-373,66,-26,635,3228,56,51,884,1834,1943,2179,2337,2064,1839,1890,2048
477334,35484,2284,35823,3055,740,1124,99,-408,73,-209,701,3324,47,50,883,1834,1943,2179,2337,2064,1839,1890,2048
478335,35568,2376,35888,3120,517,991,141,-418,70,-99,896,3406,59,57,883,1754,1856,2102,2224,2140,1888,1903,2056
479336,35656,2456,35953,3185,440,1123,185,-434,78,108,909,3452,43,61,881,1754,1856,2102,2224,2140,1888,1903,2056
480337,35728,2548,36018,3250,632,940,224,-435,80,285,1081,3630,58,50,884,1754,1856,2102,2224,2140,1888,1903,2056
481338,35796,2636,36083,3315,678,962,248,-454,57,192,1352,3590,56,56,885,1754,1856,2102,2224,2140,1888,1903,2056
482339,35872,2740,36148,3380,564,715,265,-447,58,159,1602,3638,48,47,885,1754,1856,2102,2224,2140,1888,1903,2056
483340,35948,2804,36213,3445,551,1217,287,-444,77,799,1749,3630,46,61,884,1754,1856,2102,2224,2140,1888,1903,2056
484341,36008,2908,36278,3510,757,669,286,-451,64,887,1739,3429,34,45,887,1638,1738,1970,2111,2059,1814,1842,1958
485342,36088,2984,36343,3575,489,1006,276,-458,44,385,1878,3594,39,43,883,1638,1738,1970,2111,2059,1814,1842,1958
486343,36152,3076,36408,3640,690,773,253,-444,35,555,1995,3538,48,43,886,1638,1738,1970,2111,2059,1814,1842,1958
487344,36232,3140,36473,3705,472,1125,225,-421,26,815,1889,3437,40,41,886,1638,1738,1970,2111,2059,1814,1842,1958
488345,36288,3216,36538,3770,783,962,178,-395,24,857,1729,3199,41,53,886,1638,1738,1970,2111,2059,1814,1842,1958
489346,36332,3284,36603,3835,959,1058,133,-377,22,663,1743,3278,35,39,884,1661,1760,1984,2161,1969,1750,1800,1918
490347,36420,3360,36668,3900,381,945,94,-365,22,505,1525,3091,50,49,884,1661,1760,1984,2161,1969,1750,1800,1918
491348,36492,3432,36733,3965,573,986,77,-354,20,648,1206,2952,51,43,881,1661,1760,1984,2161,1969,1750,1800,1918
492349,36580,3500,36798,4030,345,1033,54,-375,36,465,905,2565,52,45,886,1661,1760,1984,2161,1969,1750,1800,1918
493350,36652,3576,36863,4095,536,920,55,-356,48,297,800,2761,34,41,885,1661,1760,1984,2161,1969,1750,1800,1918
494351,36716,3640,36928,4160,637,1071,54,-342,59,243,725,2327,38,41,886,1661,1760,1984,2161,1969,1750,1800,1918
495352,36788,3704,36993,4225,529,1072,71,-338,67,347,644,2374,43,43,886,1753,1859,2105,2267,1999,1781,1823,1965
496353,36860,3768,37058,4290,520,1074,94,-348,86,338,536,2377,42,45,882,1753,1859,2105,2267,1999,1781,1823,1965
497354,36920,3856,37123,4355,676,747,105,-359,103,183,598,2184,42,43,883,1753,1859,2105,2267,1999,1781,1823,1965
498355,36972,3944,37188,4420,792,719,112,-333,109,191,590,2387,37,46,885,1753,1859,2105,2267,1999,1781,1823,1965
499356,37052,4024,37253,4485,424,800,134,-298,144,321,904,2429,43,49,886,1753,1859,2105,2267,1999,1781,1823,1965
500357,37120,4096,37318,4550,570,892,150,-293,168,623,1130,2371,50,39,886,1777,1883,2123,2262,2013,1780,1824,1952
501358,37176,4176,37383,4615,732,773,146,-279,168,382,1088,2522,48,50,887,1777,1883,2123,2262,2013,1780,1824,1952
502359,37244,4248,37448,4680,579,865,146,-283,165,247,1398,2829,34,48,886,1777,1883,2123,2262,2013,1780,1824,1952
503360,37324,4324,37513,4745,410,802,127,-260,176,433,1624,2883,50,46,886,1777,1883,2123,2262,2013,1780,1824,1952
504361,37372,4404,37578,4810,831,734,111,-221,185,875,1757,3076,49,45,886,1777,1883,2123,2262,2013,1780,1824,1952
505362,37452,4448,37643,4875,413,1210,93,-192,190,831,1809,3043,44,52,888,1777,1883,2123,2262,2013,1780,1824,1952
506363,37504,4524,37708,4940,779,796,84,-182,184,591,1907,3294,46,43,885,1705,1796,2003,2155,1979,1753,1806,1918
507364,37560,4596,37773,5005,740,838,77,-184,181,663,1861,3127,37,38,884,1705,1796,2003,2155,1979,1753,1806,1918
508365,37644,4648,37838,5070,366,1104,95,-173,180,825,1702,3300,35,41,885,1705,1796,2003,2155,1979,1753,1806,1918
509366,37708,4712,37903,5135,618,956,111,-163,190,861,1475,3243,49,50,885,1705,1796,2003,2155,1979,1753,1806,1918
510367,37780,4796,37968,5200,509,683,148,-156,200,767,1340,3140,53,37,885,1705,1796,2003,2155,1979,1753,1806,1918
511368,37836,4852,38033,5265,720,1044,190,-140,212,762,1267,3116,36,50,885,1637,1728,1952,2112,2008,1787,1822,1947
512369,37924,4916,38098,5330,292,945,234,-153,230,834,1080,2802,40,53,888,1637,1728,1952,2112,2008,1787,1822,1947
513370,38000,4968,38163,5395,428,1111,277,-150,247,759,916,2883,41,42,882,1637,1728,1952,2112,2008,1787,1822,1947
514371,38060,5032,38228,5460,635,962,300,-145,270,682,774,2757,51,46,886,1637,1728,1952,2112,2008,1787,1822,1947
515372,38132,5120,38293,5525,476,634,306,-140,287,565,745,2688,37,42,884,1637,1728,1952,2112,2008,1787,1822,1947
516373,38212,5192,38358,5590,359,826,306,-106,309,492,856,2846,34,39,885,1637,1728,1952,2112,2008,1787,1822,1947
517374,38284,5264,38423,5655,450,818,290,-87,362,796,827,2405,39,46,888,1679,1787,2046,2212,2034,1807,1838,1968
518375,38356,5348,38488,5720,442,645,273,-58,391,809,772,2606,34,50,887,1679,1787,2046,2212,2034,1807,1838,1968
519376,38424,5416,38553,5785,488,841,227,-58,391,308,784,2401,32,39,887,1679,1787,2046,2212,2034,1807,1838,1968
520377,38492,5496,38618,5850,484,673,168,-37,396,173,946,2641,35,40,889,1679,1787,2046,2212,2034,1807,1838,1968
521378,38564,5544,38683,5915,426,1093,106,0,414,660,1081,2610,32,35,887,1679,1787,2046,2212,2034,1807,1838,1968
522379,38636,5628,38748,5980,417,620,27,33,425,791,1096,2599,45,48,888,1776,1884,2130,2288,2016,1789,1835,1967
523380,38692,5676,38813,6045,628,1092,-53,74,429,403,1206,2823,48,36,885,1776,1884,2130,2288,2016,1789,1835,1967
524381,38760,5756,38878,6110,475,674,-140,103,427,535,1304,2873,42,41,889,1776,1884,2130,2288,2016,1789,1835,1967
525382,38828,5816,38943,6175,471,930,-199,162,421,625,1301,3037,46,46,884,1776,1884,2130,2288,2016,1789,1835,1967
526383,38896,5884,39008,6240,467,826,-245,197,421,709,1229,3138,51,39,888,1776,1884,2130,2288,2016,1789,1835,1967
527384,38972,5952,39073,6305,354,822,-259,251,417,764,1194,3295,42,40,886,1776,1884,2130,2288,2016,1789,1835,1967
528385,39056,6020,39138,6370,231,819,-269,275,416,679,1151,3265,35,39,887,1736,1832,2052,2188,2056,1818,1857,2000
529386,39120,6092,39203,6435,482,760,-267,306,419,743,1042,3339,44,46,888,1736,1832,2052,2188,2056,1818,1857,2000
530387,39176,6172,39268,6500,593,643,-251,334,422,830,1166,3313,36,51,887,1736,1832,2052,2188,2056,1818,1857,2000
531388,39244,6240,39333,6565,439,789,-233,362,441,753,1141,3448,46,51,886,1736,1832,2052,2188,2056,1818,1857,2000
532389,39324,6276,39398,6630,271,1225,-198,382,451,966,1159,3359,56,43,887,1736,1832,2052,2188,2056,1818,1857,2000
533390,39400,6364,39463,6695,307,547,-182,385,457,891,1026,3296,53,44,888,1617,1716,1951,2083,2110,1864,1880,2020
534391,39472,6456,39528,6760,349,464,-175,397,466,560,1027,3446,35,58,885,1617,1716,1951,2083,2110,1864,1880,2020
535392,39544,6548,39593,6825,340,431,-189,426,483,396,1116,3346,34,45,890,1617,1716,1951,2083,2110,1864,1880,2020
536393,39620,6636,39658,6890,277,453,-191,505,542,896,1118,3242,49,46,891,1617,1716,1951,2083,2110,1864,1880,2020
537394,39692,6720,39723,6955,318,479,-212,578,562,1382,1004,3012,48,58,891,1617,1716,1951,2083,2110,1864,1880,2020
538395,39780,6812,39788,7020,90,346,-265,638,569,1008,768,2708,41,55,891,1617,1716,1951,2083,2110,1864,1880,2020
539396,39844,6896,39853,7085,391,423,-309,729,590,895,751,2766,42,57,891,1624,1734,1987,2145,2088,1851,1868,1992
540397,39908,6988,39918,7150,393,291,-375,805,575,1275,708,2269,38,43,893,1624,1734,1987,2145,2088,1851,1868,1992
541398,39980,7072,39983,7215,284,368,-477,835,550,1057,618,2421,49,48,891,1624,1734,1987,2145,2088,1851,1868,1992
542399,40064,7152,40048,7280,111,400,-613,799,543,377,754,2474,45,45,892,1624,1734,1987,2145,2088,1851,1868,1992
543400,40128,7224,40113,7345,362,491,-779,801,546,109,955,2588,33,58,892,1624,1734,1987,2145,2088,1851,1868,1992
544401,40204,7296,40178,7410,199,483,-943,837,535,346,743,2654,34,45,892,1701,1807,2051,2205,2045,1817,1847,1984
545402,40268,7372,40243,7475,350,419,-1076,883,520,457,574,2898,51,60,891,1701,1807,2051,2205,2045,1817,1847,1984
546403,40340,7444,40308,7540,241,461,-1174,927,506,508,426,2955,37,46,892,1701,1807,2051,2205,2045,1817,1847,1984
547404,40416,7532,40373,7605,178,233,-1219,995,521,386,228,3050,53,46,890,1701,1807,2051,2205,2045,1817,1847,1984
548405,40492,7616,40438,7670,165,259,-1230,1039,553,718,187,3074,40,50,890,1701,1807,2051,2205,2045,1817,1847,1984
549406,40568,7708,40503,7735,151,126,-1210,1070,566,761,21,3244,50,59,893,1701,1807,2051,2205,2045,1817,1847,1984
550407,40624,7788,40568,7800,412,258,-1196,1096,569,522,11,3549,43,49,893,1650,1762,1995,2103,2123,1867,1891,2064
551408,40696,7872,40633,7865,204,185,-1144,1104,599,495,93,3580,37,57,894,1650,1762,1995,2103,2123,1867,1891,2064
552409,40772,7952,40698,7930,140,217,-1079,1117,630,756,221,4060,51,54,892,1650,1762,1995,2103,2123,1867,1891,2064
553410,40856,8036,40763,7995,17,143,-998,1076,646,548,304,4066,41,51,893,1650,1762,1995,2103,2123,1867,1891,2064
554411,40920,8120,40828,8060,268,120,-930,1033,639,495,616,4243,40,42,894,1650,1762,1995,2103,2123,1867,1891,2064
555412,40996,8224,40893,8125,105,-177,-888,966,626,561,959,3953,39,40,894,1587,1717,1946,2071,2137,1870,1910,2049
556413,41068,8296,40958,8190,146,214,-885,929,609,726,1060,4000,35,42,893,1587,1717,1946,2071,2137,1870,1910,2049
557414,41132,8356,41023,8255,247,370,-925,871,607,787,1257,3767,35,48,894,1587,1717,1946,2071,2137,1870,1910,2049
558415,41200,8416,41088,8320,194,376,-991,785,595,640,1371,3895,42,48,893,1587,1717,1946,2071,2137,1870,1910,2049
559416,41256,8476,41153,8385,355,382,-1078,706,577,448,1296,3738,50,54,892,1587,1717,1946,2071,2137,1870,1910,2049
560417,41332,8556,41218,8450,91,114,-1154,653,586,885,1367,3643,37,51,893,1587,1717,1946,2071,2137,1870,1910,2049
561418,41416,8636,41283,8515,-32,96,-1212,628,579,1134,1188,3672,53,54,891,1729,1858,2071,2261,2052,1820,1897,2016
562419,41488,8708,41348,8580,110,187,-1255,599,571,725,830,3626,46,55,894,1729,1858,2071,2261,2052,1820,1897,2016
563420,41572,8804,41413,8645,-64,-151,-1271,544,578,733,522,3723,37,56,895,1729,1858,2071,2261,2052,1820,1897,2016
564421,41648,8916,41478,8710,23,-409,-1275,483,577,721,239,3721,36,49,893,1729,1858,2071,2261,2052,1820,1897,2016
565422,41740,9044,41543,8775,-210,-686,-1242,455,591,547,50,4084,45,52,892,1729,1858,2071,2261,2052,1820,1897,2016
566423,41848,9140,41608,8840,-463,-324,-1176,414,628,563,-254,3923,37,35,892,1879,1996,2211,2381,2047,1819,1881,2026
567424,41960,9204,41673,8905,-571,78,-1091,350,672,401,-577,4291,47,35,878,1879,1996,2211,2381,2047,1819,1881,2026
568425,42048,9272,41738,8970,-299,24,-1000,263,680,-66,-682,4399,40,32,893,1879,1996,2211,2381,2047,1819,1881,2026
569426,42116,9344,41803,9035,-53,-35,-921,164,681,-380,-611,4516,37,44,890,1879,1996,2211,2381,2047,1819,1881,2026
570429,42204,9412,41868,9100,-331,12,-827,76,704,38,-261,4647,48,39,895,1879,1996,2211,2381,2047,1819,1881,2026
571428,42252,9488,41933,9165,190,-102,-733,33,734,182,-59,4615,45,32,895,1865,1992,2216,2376,2018,1790,1856,1972
572429,42332,9540,41998,9230,-228,214,-679,1,727,210,70,4457,40,32,895,1865,1992,2216,2376,2018,1790,1856,1972
573430,42400,9616,42063,9295,-82,-100,-641,-41,707,53,403,4483,36,34,894,1865,1992,2216,2376,2018,1790,1856,1972
574431,42460,9684,42128,9360,23,-4,-627,-84,693,-9,643,4450,36,43,894,1865,1992,2216,2376,2018,1790,1856,1972
575432,42528,9760,42193,9425,-80,-117,-620,-94,692,127,892,4558,32,38,892,1865,1992,2216,2376,2018,1790,1856,1972
576433,42600,9836,42258,9490,-139,-131,-624,-94,691,348,982,4236,37,45,895,1865,1992,2216,2376,2018,1790,1856,1972
577434,42664,9900,42323,9555,-38,20,-636,-98,687,471,1020,4418,36,43,892,1876,1964,2159,2369,1967,1765,1852,1932
578435,42736,9964,42388,9620,-146,22,-642,-96,679,215,926,4285,31,48,887,1876,1964,2159,2369,1967,1765,1852,1932
579436,42788,10024,42453,9685,120,78,-626,-96,666,497,892,4340,37,35,894,1876,1964,2159,2369,1967,1765,1852,1932
580437,42848,10092,42518,9750,26,-26,-589,-69,663,538,656,4303,30,46,887,1876,1964,2159,2369,1967,1765,1852,1932
581438,42908,10164,42583,9815,32,-86,-540,-37,669,752,385,4339,43,37,893,1876,1964,2159,2369,1967,1765,1852,1932
582439,42980,10220,42648,9880,-128,125,-476,18,675,655,190,4376,36,44,894,1838,1914,2112,2327,2022,1830,1882,1974
583440,43040,10292,42713,9945,28,-83,-403,61,672,475,-86,4077,32,47,894,1838,1914,2112,2327,2022,1830,1882,1974
584441,43108,10364,42778,10010,-75,-92,-321,103,664,490,-413,4126,38,50,888,1838,1914,2112,2327,2022,1830,1882,1974
585442,43164,10432,42843,10075,86,-45,-241,148,665,401,-545,3931,47,51,895,1838,1914,2112,2327,2022,1830,1882,1974
586443,43244,10504,42908,10140,-233,-104,-156,184,677,294,-724,3920,33,51,893,1838,1914,2112,2327,2022,1830,1882,1974
587444,43304,10584,42973,10205,23,-222,-94,217,672,58,-725,3707,33,52,895,1838,1914,2112,2327,2022,1830,1882,1974
588445,43368,10648,43038,10270,-25,-22,-53,222,666,-238,-823,3603,48,44,894,1787,1866,2116,2323,2053,1852,1870,1963
589446,43440,10736,43103,10335,-134,-350,-31,238,668,-265,-733,3626,40,49,894,1787,1866,2116,2323,2053,1852,1870,1963
590447,43520,10828,43168,10400,-253,-433,-30,262,663,-233,-638,3467,41,43,895,1787,1866,2116,2323,2053,1852,1870,1963
591448,43588,10904,43233,10465,-107,-246,-46,296,655,-327,-523,3354,39,50,886,1787,1866,2116,2323,2053,1852,1870,1963
592449,43664,10976,43298,10530,-220,-205,-82,343,643,-404,-266,3431,40,48,892,1787,1866,2116,2323,2053,1852,1870,1963
593450,43748,11048,43363,10595,-343,-213,-139,394,640,-380,-274,3401,37,45,890,1788,1873,2115,2322,1996,1801,1839,1926
594451,43820,11108,43428,10660,-202,-58,-211,460,633,-91,-317,3511,42,36,881,1788,1873,2115,2322,1996,1801,1839,1926
595452,43904,11184,43493,10725,-375,-272,-269,524,616,-38,-198,3503,50,49,893,1788,1873,2115,2322,1996,1801,1839,1926
596453,43972,11244,43558,10790,-179,-66,-326,618,598,47,-148,3584,51,42,883,1788,1873,2115,2322,1996,1801,1839,1926
597454,44044,11320,43623,10855,-238,-279,-367,708,583,292,-187,3447,54,48,893,1788,1873,2115,2322,1996,1801,1839,1926
598455,44148,11392,43688,10920,-686,-238,-393,767,561,327,-279,3506,43,46,893,1788,1873,2115,2322,1996,1801,1839,1926
599456,44220,11452,43753,10985,-295,-82,-392,839,539,222,-410,3605,44,49,892,1756,1838,2034,2224,2013,1811,1864,1960
600457,44292,11520,43818,11050,-303,-186,-384,905,522,281,-467,3465,36,49,894,1756,1838,2034,2224,2013,1811,1864,1960
601458,44372,11584,43883,11115,-421,-135,-364,944,507,134,-377,3412,49,38,894,1756,1838,2034,2224,2013,1811,1864,1960
602459,44456,11664,43948,11180,-496,-353,-336,952,488,41,-461,3490,36,33,894,1756,1838,2034,2224,2013,1811,1864,1960
603460,44520,11720,44013,11245,-244,-42,-306,932,479,-245,-656,3310,43,33,894,1756,1838,2034,2224,2013,1811,1864,1960
604461,44600,11776,44078,11310,-463,-31,-266,876,475,-134,-718,3259,39,48,893,1684,1775,1995,2170,2072,1856,1895,2004
605462,44664,11840,44143,11375,-261,-131,-234,826,454,-156,-687,3328,39,39,895,1684,1775,1995,2170,2072,1856,1895,2004
606463,44760,11916,44208,11440,-699,-295,-221,738,426,-384,-622,3256,53,32,895,1684,1775,1995,2170,2072,1856,1895,2004
607464,44836,11984,44273,11505,-464,-198,-229,657,413,-495,-731,3417,55,40,894,1684,1775,1995,2170,2072,1856,1895,2004
608465,44920,12044,44338,11570,-587,-92,-257,587,422,-467,-805,3298,36,45,893,1684,1775,1995,2170,2072,1856,1895,2004
609466,44992,12104,44403,11635,-445,-86,-291,540,425,-224,-840,3191,53,33,894,1684,1775,1995,2170,2072,1856,1895,2004
610467,45068,12160,44468,11700,-509,-25,-327,488,430,-331,-896,3190,38,49,886,1703,1807,2037,2224,2056,1836,1888,2001
611468,45160,12236,44533,11765,-742,-289,-390,456,441,-252,-841,3017,40,44,895,1703,1807,2037,2224,2056,1836,1888,2001
612469,45236,12308,44598,11830,-556,-248,-459,414,452,-150,-892,3192,43,47,895,1703,1807,2037,2224,2056,1836,1888,2001
613470,45320,12364,44663,11895,-680,-37,-524,360,469,-400,-944,2950,38,46,893,1703,1807,2037,2224,2056,1836,1888,2001
614471,45416,12424,44728,11960,-867,-81,-566,315,478,-190,-846,2957,39,36,886,1703,1807,2037,2224,2056,1836,1888,2001
615472,45496,12500,44793,12025,-686,-294,-585,277,498,-60,-1001,3126,56,50,893,1784,1889,2100,2254,2039,1818,1885,2009
616473,45588,12560,44858,12090,-870,-89,-592,207,481,-17,-793,3357,56,42,893,1784,1889,2100,2254,2039,1818,1885,2009
617474,45664,12628,44923,12155,-683,-193,-604,66,466,-627,-963,2973,43,47,893,1784,1889,2100,2254,2039,1818,1885,2009
618475,45752,12692,44988,12220,-861,-142,-611,-69,432,-519,-820,3581,51,46,891,1784,1889,2100,2254,2039,1818,1885,2009
619476,45864,12764,45053,12285,-1219,-250,-608,-198,414,-502,-934,3705,56,40,894,1784,1889,2100,2254,2039,1818,1885,2009
620477,45944,12812,45118,12350,-838,71,-610,-298,384,-280,-1016,4021,46,45,894,1784,1889,2100,2254,2039,1818,1885,2009
621478,46028,12880,45183,12415,-911,-183,-627,-403,382,-536,-1476,3923,40,43,894,1776,1892,2088,2252,2040,1810,1886,2016
622479,46124,12940,45248,12480,-1100,-78,-637,-461,365,-264,-1143,4408,57,36,890,1776,1892,2088,2252,2040,1810,1886,2016
623480,46208,13004,45313,12545,-973,-127,-660,-484,343,-362,-1000,4261,55,45,894,1776,1892,2088,2252,2040,1810,1886,2016
624481,46300,13068,45378,12610,-1106,-126,-689,-507,317,-475,-1079,4522,49,35,894,1776,1892,2088,2252,2040,1810,1886,2016
625482,46392,13120,45443,12675,-1140,40,-724,-544,323,-498,-1263,4116,39,36,894,1776,1892,2088,2252,2040,1810,1886,2016
626483,46452,13192,45508,12740,-734,-218,-748,-614,319,-77,-873,4313,53,36,893,1776,1883,2077,2255,2072,1845,1931,2052
627484,46556,13268,45573,12805,-1331,-283,-769,-704,319,-562,-888,4110,50,33,895,1776,1883,2077,2255,2072,1845,1931,2052
628485,46628,13336,45638,12870,-941,-186,-781,-804,314,-581,-1091,4385,43,48,894,1776,1883,2077,2255,2072,1845,1931,2052
629486,46736,13388,45703,12935,-1443,30,-806,-861,335,-784,-1475,4235,54,37,893,1776,1883,2077,2255,2072,1845,1931,2052
630487,46796,13468,45768,13000,-837,-339,-847,-921,337,-533,-1060,4433,51,45,893,1776,1883,2077,2255,2072,1845,1931,2052
631488,46880,13524,45833,13065,-1162,-28,-892,-977,340,-650,-1155,4131,50,35,895,1776,1883,2077,2255,2072,1845,1931,2052
632489,46984,13580,45898,13130,-1459,-17,-906,-986,338,-526,-1126,4488,42,42,892,1794,1898,2105,2312,2146,1932,1988,2102
633490,47052,13656,45963,13195,-1014,-281,-921,-989,379,-498,-1713,4030,51,46,893,1794,1898,2105,2312,2146,1932,1988,2102
634491,47108,13728,46028,13260,-853,-240,-944,-999,387,53,-1289,4841,41,42,894,1794,1898,2105,2312,2146,1932,1988,2102
635492,47208,13784,46093,13325,-1446,-29,-950,-1034,359,-327,-1159,4110,56,45,893,1794,1898,2105,2312,2146,1932,1988,2102
636493,47288,13844,46158,13390,-1215,-73,-929,-991,309,-390,-1371,4972,37,42,894,1794,1898,2105,2312,2146,1932,1988,2102
637494,47356,13904,46223,13455,-1069,-67,-925,-965,302,-405,-1817,4511,36,49,895,1802,1895,2135,2339,2175,1955,1982,2078
638495,47448,13964,46288,13520,-1403,-61,-930,-959,286,-48,-1496,4855,52,48,894,1802,1895,2135,2339,2175,1955,1982,2078
639496,47504,14032,46353,13585,-942,-165,-941,-943,265,-524,-1520,4827,53,45,895,1802,1895,2135,2339,2175,1955,1982,2078
640497,47600,14080,46418,13650,-1480,106,-977,-918,224,-641,-1238,4991,52,32,895,1802,1895,2135,2339,2175,1955,1982,2078
641498,47684,14140,46483,13715,-1354,-38,-1020,-882,205,-770,-1495,4996,40,41,894,1802,1895,2135,2339,2175,1955,1982,2078
642499,47760,14216,46548,13780,-1268,-252,-1076,-824,174,-476,-1371,5287,46,35,894,1802,1895,2135,2339,2175,1955,1982,2078
643500,47792,14268,46613,13845,-678,64,-1126,-769,140,-143,-1245,5242,53,46,895,1808,1892,2136,2354,2112,1904,1936,2021
644501,47900,14344,46678,13910,-1680,-250,-1169,-707,102,28,-1153,4973,46,30,894,1808,1892,2136,2354,2112,1904,1936,2021
645502,47976,14392,46743,13975,-1295,120,-1200,-694,77,-369,-1233,5019,32,46,895,1808,1892,2136,2354,2112,1904,1936,2021
646503,48060,14456,46808,14040,-1418,-78,-1239,-682,76,-495,-1480,5197,33,32,894,1808,1892,2136,2354,2112,1904,1936,2021
647504,48124,14516,46873,14105,-1168,-22,-1255,-677,59,-264,-1205,5078,36,43,894,1808,1892,2136,2354,2112,1904,1936,2021
648505,48192,14592,46938,14170,-1221,-236,-1275,-613,61,-190,-1445,5182,52,36,894,1808,1892,2130,2358,2101,1903,1928,2039
649506,48260,14644,47003,14235,-1226,80,-1284,-535,64,-81,-1235,5314,51,45,894,1808,1892,2130,2358,2101,1903,1928,2039
650507,48324,14716,47068,14300,-1175,-179,-1274,-489,80,-180,-1434,5127,32,33,893,1808,1892,2130,2358,2101,1903,1928,2039
651508,48412,14764,47133,14365,-1504,141,-1227,-401,81,11,-1450,5811,32,32,895,1808,1892,2130,2358,2101,1903,1928,2039
652509,48464,14816,47198,14430,-1038,107,-1151,-305,48,442,-1133,5612,30,32,894,1808,1892,2130,2358,2101,1903,1928,2039
653510,48536,14868,47263,14495,-1297,123,-1053,-248,-7,193,-1174,5367,49,43,894,1808,1892,2130,2358,2101,1903,1928,2039
654511,48604,14940,47328,14560,-1251,-135,-979,-253,-39,-43,-1033,5258,30,31,894,1822,1918,2154,2376,2132,1925,1973,2056
655512,48664,14988,47393,14625,-1146,185,-910,-282,-70,168,-1338,4628,47,29,894,1822,1918,2154,2376,2132,1925,1973,2056
656513,48720,15060,47458,14690,-1085,-123,-863,-292,-73,-29,-1401,4869,33,44,894,1822,1918,2154,2376,2132,1925,1973,2056
657514,48780,15108,47523,14755,-1130,197,-834,-287,-88,67,-981,4502,39,37,894,1822,1918,2154,2376,2132,1925,1973,2056
658515,48828,15156,47588,14820,-959,217,-824,-274,-120,-32,-1023,4731,43,36,894,1822,1918,2154,2376,2132,1925,1973,2056
659516,48900,15236,47653,14885,-1269,-201,-858,-277,-144,-56,-1015,4515,39,44,887,1893,1996,2222,2487,2056,1857,1923,1985
660517,48944,15292,47718,14950,-893,110,-903,-242,-182,689,-810,4535,40,41,894,1893,1996,2222,2487,2056,1857,1923,1985
661518,48988,15352,47783,15015,-868,66,-953,-190,-200,715,-1144,4629,31,30,894,1893,1996,2222,2487,2056,1857,1923,1985
662519,49032,15412,47848,15080,-843,72,-997,-160,-229,283,-1084,4609,36,34,894,1893,1996,2222,2487,2056,1857,1923,1985
663520,49076,15472,47913,15145,-818,78,-1034,-175,-246,185,-1259,4400,24,29,887,1893,1996,2222,2487,2056,1857,1923,1985
664521,49136,15528,47978,15210,-1012,139,-1026,-206,-265,373,-1405,4579,35,30,895,1893,1996,2222,2487,2056,1857,1923,1985
665522,49156,15576,48043,15275,-457,259,-996,-264,-268,117,-1687,4374,28,27,895,1938,2012,2212,2450,2001,1808,1879,1963
666523,49200,15644,48108,15340,-733,5,-933,-318,-271,152,-1834,4687,31,36,892,1938,2012,2212,2450,2001,1808,1879,1963
667524,49236,15700,48173,15405,-597,166,-846,-345,-274,293,-1796,4884,25,31,889,1938,2012,2212,2450,2001,1808,1879,1963
668525,49252,15724,48238,15470,-288,616,-757,-377,-278,464,-1852,4757,11,29,895,1938,2012,2212,2450,2001,1808,1879,1963
669526,49296,15756,48303,15535,-613,557,-677,-392,-290,434,-1666,4740,24,42,894,1938,2012,2212,2450,2001,1808,1879,1963
670527,49312,15812,48368,15600,-204,268,-623,-411,-301,550,-1581,4632,8,41,892,1824,1910,2115,2316,2023,1815,1883,1981
671528,49344,15884,48433,15665,-364,59,-568,-424,-313,766,-1408,4355,12,49,889,1824,1910,2115,2316,2023,1815,1883,1981
672529,49368,15944,48498,15730,-214,215,-518,-431,-321,871,-1231,4319,5,38,894,1824,1910,2115,2316,2023,1815,1883,1981
673530,49388,15996,48563,15795,-110,331,-479,-428,-327,735,-1122,4142,23,32,895,1824,1910,2115,2316,2023,1815,1883,1981
674531,49392,16076,48628,15860,165,-37,-445,-433,-346,800,-966,4010,9,39,882,1824,1910,2115,2316,2023,1815,1883,1981
675532,49408,16136,48693,15925,75,218,-415,-431,-368,679,-850,3844,20,34,888,1824,1910,2115,2316,2023,1815,1883,1981
676533,49436,16212,48758,15990,-30,5,-405,-447,-378,700,-811,3607,22,37,894,1796,1896,2093,2312,2035,1809,1904,1985
677534,49436,16292,48823,16055,398,-64,-403,-460,-391,784,-740,3499,20,37,894,1796,1896,2093,2312,2035,1809,1904,1985
678535,49452,16344,48888,16120,258,302,-401,-472,-409,626,-726,3486,17,35,895,1796,1896,2093,2312,2035,1809,1904,1985
679536,49472,16404,48953,16185,263,208,-401,-490,-427,633,-780,3365,3,32,892,1796,1896,2093,2312,2035,1809,1904,1985
680537,49484,16480,49018,16250,428,-5,-393,-504,-439,578,-858,3387,4,44,892,1796,1896,2093,2312,2035,1809,1904,1985
681538,49496,16540,49083,16315,491,201,-388,-532,-445,537,-931,3487,4,41,893,1820,1914,2114,2346,2026,1820,1885,1965
682539,49500,16592,49148,16380,666,317,-373,-560,-445,584,-1057,3345,16,48,893,1820,1914,2114,2346,2026,1820,1885,1965
683540,49512,16640,49213,16445,631,387,-344,-573,-447,643,-1121,3649,9,34,890,1820,1914,2114,2346,2026,1820,1885,1965
684541,49540,16728,49278,16510,476,-141,-307,-573,-451,610,-1282,3771,23,42,888,1820,1914,2114,2346,2026,1820,1885,1965
685542,49560,16788,49343,16575,631,215,-262,-561,-453,753,-1363,3844,28,48,889,1820,1914,2114,2346,2026,1820,1885,1965
686543,49592,16828,49408,16640,521,495,-214,-527,-445,986,-1376,3931,20,45,891,1820,1914,2114,2346,2026,1820,1885,1965
687544,49620,16928,49473,16705,616,-298,-161,-476,-436,1039,-1413,3903,32,39,890,1800,1885,2109,2320,2006,1806,1849,1935
688545,49648,16992,49538,16770,661,154,-118,-411,-435,1148,-1355,3933,24,39,889,1800,1885,2109,2320,2006,1806,1849,1935
689546,49684,17048,49603,16835,597,264,-85,-349,-430,1083,-1284,3927,23,38,890,1800,1885,2109,2320,2006,1806,1849,1935
690547,49732,17120,49668,16900,467,56,-55,-296,-422,1037,-1169,3770,36,32,890,1800,1885,2109,2320,2006,1806,1849,1935
691548,49776,17184,49733,16965,543,157,-35,-250,-419,947,-963,3812,28,30,890,1800,1885,2109,2320,2006,1806,1849,1935
692549,49816,17236,49798,17030,624,323,-28,-212,-419,899,-783,3653,23,34,892,1791,1871,2103,2328,1982,1789,1837,1911
693550,49872,17300,49863,17095,435,174,-24,-186,-419,842,-617,3642,24,33,891,1791,1871,2103,2328,1982,1789,1837,1911
694551,49932,17368,49928,17160,391,121,-24,-167,-414,762,-482,3397,26,32,890,1791,1871,2103,2328,1982,1789,1837,1911
695552,49984,17420,49993,17225,506,336,-21,-175,-419,805,-291,3503,32,32,892,1791,1871,2103,2328,1982,1789,1837,1911
696553,50032,17452,50058,17290,577,627,-19,-156,-414,583,-402,3345,22,30,893,1791,1871,2103,2328,1982,1789,1837,1911
697554,50072,17516,50123,17355,708,228,-7,-156,-408,710,-207,3375,41,39,891,1791,1871,2103,2328,1982,1789,1837,1911
698555,50112,17596,50188,17420,738,10,17,-118,-402,812,-190,3491,32,46,888,1800,1876,2098,2337,2004,1811,1867,1942
699556,50172,17652,50253,17485,494,320,51,-64,-401,843,-246,3551,45,33,889,1800,1876,2098,2337,2004,1811,1867,1942
700557,50224,17720,50318,17550,610,166,98,4,-393,968,-307,3582,49,39,888,1800,1876,2098,2337,2004,1811,1867,1942
701558,50296,17752,50383,17615,352,656,155,67,-382,1133,-342,3614,31,32,890,1800,1876,2098,2337,2004,1811,1867,1942
702559,50352,17828,50582,17814,726,256,219,118,-375,1086,-427,3640,30,36,891,1800,1876,2098,2337,2004,1811,1867,1942
703560,50408,17896,50647,17879,737,353,285,158,-348,872,-587,3546,40,44,889,1783,1863,2089,2311,2035,1823,1869,1960
704561,50464,17960,50712,17944,748,404,342,199,-329,941,-555,3636,42,34,889,1783,1863,2089,2311,2035,1823,1869,1960
705562,50544,18020,50777,18009,430,460,409,243,-320,938,-567,3631,47,49,889,1783,1863,2089,2311,2035,1823,1869,1960
706563,50608,18076,50842,18074,631,521,452,284,-297,924,-647,3619,42,35,888,1783,1863,2089,2311,2035,1823,1869,1960
707564,50680,18148,50907,18139,523,313,501,326,-279,1026,-542,3706,53,43,890,1783,1863,2089,2311,2035,1823,1869,1960
708565,50748,18228,50972,18204,569,194,535,344,-244,878,-630,3443,43,51,889,1783,1863,2089,2311,2035,1823,1869,1960
709566,50824,18296,51037,18269,456,341,558,371,-228,1054,-488,3548,49,43,890,1787,1876,2106,2320,1994,1787,1833,1918
710567,50896,18368,51102,18334,497,282,572,388,-211,909,-457,3301,45,40,891,1787,1876,2106,2320,1994,1787,1833,1918
711568,50976,18424,51167,18399,379,493,577,417,-191,820,-440,3612,38,37,891,1787,1876,2106,2320,1994,1787,1833,1918
712569,51056,18500,51232,18464,361,230,580,454,-177,922,-322,3531,45,48,891,1787,1876,2106,2320,1994,1787,1833,1918
713570,51132,18556,51297,18529,398,491,566,457,-146,662,-425,3240,55,46,890,1787,1876,2106,2320,1994,1787,1833,1918
714571,51208,18616,51362,18594,384,447,566,434,-131,756,-163,3434,44,35,892,1820,1900,2124,2346,1963,1767,1825,1910
715572,51300,18696,51427,18659,152,178,573,422,-129,744,-182,3387,50,49,891,1820,1900,2124,2346,1963,1767,1825,1910
716573,51368,18756,51492,18724,448,434,582,428,-129,933,-144,3584,53,45,891,1820,1900,2124,2346,1963,1767,1825,1910
717574,51436,18840,51557,18789,444,111,591,421,-104,1054,-179,3278,33,48,892,1820,1900,2124,2346,1963,1767,1825,1910
718575,51500,18888,51622,18854,495,582,613,412,-85,931,-28,3668,37,37,889,1820,1900,2124,2346,1963,1767,1825,1910
719576,51572,18964,51687,18919,387,219,644,431,-69,886,-60,3631,33,36,892,1820,1900,2124,2346,1963,1767,1825,1910
720577,51640,19044,51752,18984,433,150,687,470,-49,1081,-36,3988,34,46,889,1807,1883,2105,2315,2007,1805,1862,1962
721578,51700,19112,51817,19049,539,297,741,499,-14,1258,-116,3729,40,40,892,1807,1883,2105,2315,2007,1805,1862,1962
722579,51772,19160,51882,19114,381,567,799,511,25,894,-184,3812,39,34,892,1807,1883,2105,2315,2007,1805,1862,1962
723580,51832,19232,51947,19179,537,259,862,519,48,807,-123,4055,49,46,891,1807,1883,2105,2315,2007,1805,1862,1962
724581,51892,19304,52012,19244,543,250,915,537,77,752,-230,3801,40,35,890,1807,1883,2105,2315,2007,1805,1862,1962
725582,51960,19368,52077,19309,439,351,964,516,108,767,-274,3944,35,39,891,1777,1867,2095,2295,2059,1843,1890,1994
726583,52024,19448,52142,19374,491,133,1010,496,116,707,-245,3803,48,38,891,1777,1867,2095,2295,2059,1843,1890,1994
727584,52088,19524,52207,19439,492,170,1039,466,131,595,-188,3655,33,34,891,1777,1867,2095,2295,2059,1843,1890,1994
728585,52160,19580,52272,19504,383,431,1047,463,143,848,68,3524,35,31,892,1777,1867,2095,2295,2059,1843,1890,1994
729586,52204,19648,52337,19569,759,277,1033,438,163,709,-43,3419,32,37,891,1777,1867,2095,2295,2059,1843,1890,1994
730587,52272,19704,52402,19634,455,438,1023,448,173,638,-54,3859,38,34,891,1777,1867,2095,2295,2059,1843,1890,1994
731588,52328,19760,52467,19699,616,449,1010,483,170,812,145,3779,46,43,889,1803,1899,2131,2337,2047,1831,1884,1984
732589,52408,19812,52532,19764,298,515,1002,506,174,900,-19,3857,30,34,890,1803,1899,2131,2337,2047,1831,1884,1984
733590,52456,19884,52597,19829,719,256,993,528,174,945,-50,4007,43,36,889,1803,1899,2131,2337,2047,1831,1884,1984
734591,52508,19936,52662,19894,685,522,987,519,192,687,-108,3988,26,34,890,1803,1899,2131,2337,2047,1831,1884,1984
735592,52568,19984,52727,19959,592,593,983,522,206,697,-243,4117,32,44,888,1803,1899,2131,2337,2047,1831,1884,1984
736593,52648,20048,52792,20024,323,394,994,489,213,600,-121,3915,33,43,888,1822,1910,2142,2341,2044,1833,1877,1985
737594,52692,20124,52857,20089,799,231,996,480,219,641,-109,3990,37,43,888,1822,1910,2142,2341,2044,1833,1877,1985
738595,52760,20172,52922,20154,495,602,1002,469,246,686,-231,4159,46,42,891,1822,1910,2142,2341,2044,1833,1877,1985
739596,52836,20244,52987,20219,382,293,1005,473,272,787,-135,4182,49,37,889,1822,1910,2142,2341,2044,1833,1877,1985
740597,52892,20308,53052,20284,643,394,1020,479,290,791,-132,4232,47,33,891,1822,1910,2142,2341,2044,1833,1877,1985
741598,52956,20348,53117,20349,544,725,1023,493,308,740,-82,4342,29,45,889,1822,1910,2142,2341,2044,1833,1877,1985
742599,53028,20424,53182,20414,435,261,1035,525,323,747,-31,4398,36,36,887,1800,1888,2125,2320,2072,1859,1898,2010
743600,53084,20476,53247,20479,646,577,1034,545,337,713,-85,4312,37,31,891,1800,1888,2125,2320,2072,1859,1898,2010
744601,53164,20544,53312,20544,328,374,1043,567,348,808,39,4353,31,35,888,1800,1888,2125,2320,2072,1859,1898,2010
745605,53208,20608,53377,20609,804,425,1041,539,366,683,21,4087,35,37,891,1800,1888,2125,2320,2072,1859,1898,2010
746603,53268,20652,53442,20674,610,700,1051,504,369,426,21,4212,47,33,888,1800,1888,2125,2320,2072,1859,1898,2010
747604,53344,20704,53507,20739,396,616,1047,491,362,402,206,4144,40,44,887,1787,1877,2119,2319,2105,1887,1925,2036
748605,53412,20780,53572,20804,493,303,1039,453,370,516,133,4027,49,37,889,1787,1877,2119,2319,2105,1887,1925,2036
749606,53468,20828,53637,20869,654,674,1049,424,367,590,6,4329,37,29,891,1787,1877,2119,2319,2105,1887,1925,2036
750607,53540,20884,53702,20934,445,585,1074,437,336,615,156,4422,34,44,886,1787,1877,2119,2319,2105,1887,1925,2036
751608,53596,20916,53767,20999,657,925,1076,445,312,679,148,4177,34,41,888,1787,1877,2119,2319,2105,1887,1925,2036
752609,53652,21008,53832,21064,668,142,1058,403,319,528,204,4089,31,40,885,1787,1877,2119,2319,2105,1887,1925,2036
753610,53712,21056,53897,21129,624,713,1041,390,319,499,150,4101,34,44,890,1801,1897,2139,2339,2114,1890,1930,2042
754611,53796,21120,53962,21194,301,514,1029,368,329,304,12,4223,32,43,887,1801,1897,2139,2339,2114,1890,1930,2042
755612,53836,21188,54027,21259,882,460,1010,399,323,452,73,4249,44,37,891,1801,1897,2139,2339,2114,1890,1930,2042
756613,53912,21236,54092,21324,418,731,994,440,327,624,-52,4084,29,35,886,1801,1897,2139,2339,2114,1890,1930,2042
757614,53968,21284,54157,21389,679,752,971,441,346,492,-147,4250,51,38,888,1801,1897,2139,2339,2114,1890,1930,2042
758615,54028,21376,54222,21454,635,169,973,433,363,223,-119,4268,42,40,886,1815,1911,2150,2340,2092,1869,1908,2025
759616,54084,21420,54287,21519,696,794,949,414,377,179,-85,4247,32,28,890,1815,1911,2150,2340,2092,1869,1908,2025
760617,54160,21484,54352,21584,433,546,929,392,376,347,-18,4329,50,31,886,1815,1911,2150,2340,2092,1869,1908,2025
761618,54220,21528,54417,21649,639,821,882,345,373,73,-16,4284,52,29,889,1815,1911,2150,2340,2092,1869,1908,2025
762619,54284,21588,54482,21714,590,627,845,303,357,34,118,4389,43,29,886,1815,1911,2150,2340,2092,1869,1908,2025
763620,54364,21660,54547,21779,372,469,803,253,345,134,192,4302,37,31,888,1815,1911,2150,2340,2092,1869,1908,2025
764621,54448,21720,54612,21844,299,625,770,218,323,252,138,4383,45,29,890,1796,1890,2129,2311,2081,1865,1903,2028
765622,54532,21772,54677,21909,277,741,749,205,323,147,-212,4485,51,32,889,1796,1890,2129,2311,2081,1865,1903,2028
766623,54588,21820,54742,21974,637,811,761,224,301,101,-151,4617,31,32,889,1796,1890,2129,2311,2081,1865,1903,2028
767624,54640,21876,54807,22039,703,722,779,248,266,605,-99,4652,45,29,885,1796,1890,2129,2311,2081,1865,1903,2028
768625,54720,21948,54872,22104,335,514,757,166,250,1236,-109,3781,35,46,885,1796,1890,2129,2311,2081,1865,1903,2028
769626,54792,22028,54937,22169,427,396,722,58,250,264,245,3650,44,40,890,1775,1870,2114,2296,2128,1906,1944,2072
770627,54860,22096,55002,22234,473,542,680,37,237,-464,458,4466,48,39,890,1775,1870,2114,2296,2128,1906,1944,2072
771628,54928,22148,55067,22299,469,758,631,43,232,-10,301,4125,37,30,889,1775,1870,2114,2296,2128,1906,1944,2072
772629,54968,22196,55132,22364,850,829,602,52,214,537,532,3971,31,30,887,1775,1870,2114,2296,2128,1906,1944,2072
773630,55056,22240,55197,22429,222,905,594,28,207,-20,548,4105,29,31,884,1775,1870,2114,2296,2128,1906,1944,2072
774631,55120,22312,55262,22494,523,547,604,13,195,-496,458,4114,51,45,888,1775,1870,2114,2296,2128,1906,1944,2072
775632,55180,22376,55327,22559,579,648,601,7,185,-122,444,4087,33,41,889,1774,1874,2117,2297,2155,1926,1957,2084
776633,55248,22456,55392,22624,475,430,588,-13,167,62,494,3908,48,35,887,1774,1874,2117,2297,2155,1926,1957,2084
777634,55300,22516,55457,22689,691,686,551,-26,160,-315,542,4113,43,28,890,1774,1874,2117,2297,2155,1926,1957,2084
778635,55356,22556,55522,22754,652,966,520,-34,136,-350,701,3955,33,41,886,1774,1874,2117,2297,2155,1926,1957,2084
779636,55420,22624,55587,22819,553,613,487,-67,114,-390,641,4090,31,46,884,1774,1874,2117,2297,2155,1926,1957,2084
780637,55476,22696,55652,22884,664,554,467,-60,85,-317,469,4188,36,40,887,1776,1877,2124,2299,2115,1891,1914,2036
781638,55548,22748,55717,22949,456,820,446,-57,43,-110,430,4148,36,44,887,1776,1877,2124,2299,2115,1891,1914,2036
782639,55600,22824,55782,23014,722,506,449,-52,18,-205,297,4094,41,31,887,1776,1877,2124,2299,2115,1891,1914,2036
783640,55660,22880,55847,23079,629,767,457,-78,0,-128,380,4050,30,38,887,1776,1877,2124,2299,2115,1891,1914,2036
784641,55740,22960,55912,23144,360,449,444,-86,-17,-172,318,4206,34,38,885,1776,1877,2124,2299,2115,1891,1914,2036
785642,55780,23024,55977,23209,891,650,429,-38,-49,7,419,4315,41,39,889,1776,1877,2124,2299,2115,1891,1914,2036
786643,55852,23108,56042,23274,482,377,415,14,-80,93,437,4000,42,44,885,1774,1867,2125,2306,2051,1843,1865,1975
787644,55916,23176,56107,23339,584,573,405,44,-96,1,475,3887,35,49,890,1774,1867,2125,2306,2051,1843,1865,1975
788645,55956,23244,56172,23404,914,571,393,60,-109,-97,608,3942,32,46,888,1774,1867,2125,2306,2051,1843,1865,1975
789646,56032,23304,56237,23469,451,677,379,69,-126,-64,531,3809,49,47,885,1774,1867,2125,2306,2051,1843,1865,1975
790647,56080,23388,56302,23534,821,354,374,90,-126,-83,593,3817,47,38,888,1774,1867,2125,2306,2051,1843,1865,1975
791648,56160,23448,56367,23599,403,660,386,111,-136,-58,662,3717,35,45,888,1796,1877,2130,2336,2024,1834,1864,1956
792649,56204,23520,56432,23664,879,501,388,119,-144,-61,678,3582,34,48,889,1796,1877,2130,2336,2024,1834,1864,1956
793650,56276,23580,56497,23729,520,657,400,84,-130,-339,755,3535,46,40,886,1796,1877,2130,2336,2024,1834,1864,1956
794651,56344,23656,56562,23794,567,444,402,51,-115,-313,969,3422,34,46,888,1796,1877,2130,2336,2024,1834,1864,1956
795653,56388,23708,56627,23859,892,760,398,16,-100,-355,916,3646,44,35,889,1796,1877,2130,2336,2024,1834,1864,1956
796653,56432,23792,56692,23924,918,337,407,-4,-93,-368,1044,3503,36,51,884,1801,1879,2119,2335,2026,1831,1870,1966
797654,56512,23864,56757,23989,451,478,421,-18,-92,-322,969,3600,35,39,886,1801,1879,2119,2335,2026,1831,1870,1966
798655,56576,23928,56822,24054,652,579,452,-15,-112,-193,927,3769,35,46,889,1801,1879,2119,2335,2026,1831,1870,1966
799656,56628,23996,56887,24119,818,526,470,-3,-142,-138,769,3693,29,43,887,1801,1879,2119,2335,2026,1831,1870,1966
800657,56676,24084,56952,24184,888,248,507,19,-149,37,878,3884,46,48,886,1801,1879,2119,2335,2026,1831,1870,1966
801658,56736,24148,57017,24249,745,549,536,62,-167,258,856,3767,32,33,887,1801,1879,2119,2335,2026,1831,1870,1966
802659,56796,24220,57082,24314,751,440,566,103,-200,274,670,3809,44,43,886,1795,1876,2116,2308,2032,1822,1862,1974
803660,56848,24284,57147,24379,866,541,595,167,-215,212,547,3872,44,43,887,1795,1876,2116,2308,2032,1822,1862,1974
804661,56904,24324,57212,24444,827,872,637,232,-223,404,590,3821,48,42,886,1795,1876,2116,2308,2032,1822,1862,1974
805662,56960,24388,57277,24509,838,573,671,302,-226,354,422,3905,40,29,883,1795,1876,2116,2308,2032,1822,1862,1974
806663,57024,24440,57342,24574,741,739,698,329,-224,76,576,3671,49,41,885,1795,1876,2116,2308,2032,1822,1862,1974
807664,57104,24508,57407,24639,522,535,707,364,-212,-228,521,3629,41,34,885,1799,1890,2135,2326,2014,1812,1848,1952
808665,57156,24556,57472,24704,888,806,721,395,-214,-223,500,3732,36,29,888,1799,1890,2135,2326,2014,1812,1848,1952
809666,57216,24604,57537,24769,794,828,721,408,-193,-194,453,3573,44,28,884,1799,1890,2135,2326,2014,1812,1848,1952
810667,57300,24652,57602,24834,471,849,740,406,-180,-247,497,3680,37,29,884,1799,1890,2135,2326,2014,1812,1848,1952
811668,57340,24708,57667,24899,1052,760,748,363,-150,-429,437,3406,35,41,886,1799,1890,2135,2326,2014,1812,1848,1952
812669,57408,24772,57732,24964,698,661,745,310,-134,-423,651,3284,27,41,882,1799,1890,2135,2326,2014,1812,1848,1952
813670,57448,24832,57797,25029,1079,717,728,264,-95,-567,645,3297,39,45,886,1814,1894,2144,2356,2001,1813,1850,1938
814671,57524,24892,57862,25094,615,723,711,255,-74,-318,679,3588,43,38,882,1814,1894,2144,2356,2001,1813,1850,1938
815672,57568,24944,57927,25159,1042,839,685,260,-56,-161,838,3475,42,42,886,1814,1894,2144,2356,2001,1813,1850,1938
816673,57624,24992,57992,25224,903,910,671,262,-53,-15,964,3652,40,29,881,1814,1894,2144,2356,2001,1813,1850,1938
817674,57680,25072,58057,25289,914,491,661,279,-57,-40,786,3672,46,35,882,1814,1894,2144,2356,2001,1813,1850,1938
818675,57740,25124,58122,25354,870,857,668,304,-70,169,836,3987,32,42,884,1805,1874,2117,2322,2039,1846,1879,1985
819676,57792,25168,58187,25419,986,983,686,337,-81,249,693,3720,34,39,882,1805,1874,2117,2322,2039,1846,1879,1985
820677,57852,25240,58252,25484,892,624,721,355,-79,375,560,3962,34,34,881,1805,1874,2117,2322,2039,1846,1879,1985
821678,57920,25332,58317,25549,788,341,747,376,-72,359,626,4064,36,39,885,1805,1874,2117,2322,2039,1846,1879,1985
822679,57976,25400,58382,25614,950,639,780,407,-73,89,593,3878,34,40,887,1805,1874,2117,2322,2039,1846,1879,1985
823680,58032,25468,58447,25679,961,635,805,442,-78,176,440,4010,39,34,884,1805,1874,2117,2322,2039,1846,1879,1985
824681,58096,25516,58512,25744,862,906,839,467,-79,222,466,3916,34,31,884,1761,1844,2096,2281,2086,1873,1899,2018
825682,58164,25592,58577,25809,809,542,867,432,-47,47,585,3903,44,32,882,1761,1844,2096,2281,2086,1873,1899,2018
826683,58212,25656,58642,25874,1079,694,885,399,-31,-119,514,3873,48,37,886,1761,1844,2096,2281,2086,1873,1899,2018
827684,58256,25724,58707,25939,1155,640,895,369,-20,-355,547,3772,49,42,882,1761,1844,2096,2281,2086,1873,1899,2018
828685,58336,25804,58772,26004,688,472,886,348,2,-212,652,3880,42,46,882,1761,1844,2096,2281,2086,1873,1899,2018
829686,58404,25856,58837,26069,834,838,865,305,21,-164,759,3752,55,36,887,1779,1874,2129,2318,2075,1858,1892,2009
830687,58456,25920,58902,26134,1050,689,826,317,25,-399,637,3975,50,27,883,1779,1874,2129,2318,2075,1858,1892,2009
831688,58524,25952,58967,26199,846,1129,776,264,38,-165,865,3677,41,35,882,1779,1874,2129,2318,2075,1858,1892,2009
832689,58588,26008,59032,26264,897,840,733,237,53,-319,647,3745,52,43,881,1779,1874,2129,2318,2075,1858,1892,2009
833690,58632,26068,59097,26329,1173,796,688,217,71,-309,697,3930,49,45,883,1779,1874,2129,2318,2075,1858,1892,2009
834691,58712,26124,59162,26394,706,858,654,227,71,157,822,3976,41,30,880,1779,1874,2129,2318,2075,1858,1892,2009
835692,58780,26188,59227,26459,852,759,605,236,94,5,393,3835,50,33,884,1819,1915,2163,2349,2076,1863,1902,2028
836693,58848,26240,59292,26524,848,925,574,239,109,197,585,4024,33,45,882,1819,1915,2163,2349,2076,1863,1902,2028
837694,58880,26316,59357,26589,1339,612,540,244,111,56,467,4035,43,46,882,1819,1915,2163,2349,2076,1863,1902,2028
838695,58948,26348,59422,26654,885,1202,527,239,129,187,463,4220,46,37,879,1819,1915,2163,2349,2076,1863,1902,2028
839696,59008,26424,59487,26719,991,639,525,226,130,474,494,4242,40,40,878,1819,1915,2163,2349,2076,1863,1902,2028
840697,59068,26512,59552,26784,998,461,527,223,135,123,306,4321,32,51,883,1800,1888,2139,2309,2117,1901,1925,2052
841698,59120,26572,59617,26849,1114,817,530,208,129,159,486,4337,48,35,885,1800,1888,2139,2309,2117,1901,1925,2052
842699,59196,26616,59682,26914,801,1042,519,195,141,68,343,4275,39,40,881,1800,1888,2139,2309,2117,1901,1925,2052
843700,59232,26696,59747,26979,1336,574,507,205,151,109,373,4647,35,41,882,1800,1888,2139,2309,2117,1901,1925,2052
844701,59288,26752,59812,27044,1097,886,482,172,173,587,561,4342,47,45,880,1800,1888,2139,2309,2117,1901,1925,2052
845702,59348,26812,59877,27109,1054,842,460,105,188,633,588,4487,43,52,880,1800,1888,2139,2309,2117,1901,1925,2052
846703,59392,26876,59942,27174,1280,793,457,40,201,-635,587,4196,50,49,881,1764,1851,2112,2299,2144,1928,1946,2063
847704,59456,26956,60007,27239,1031,575,449,6,176,-534,731,4521,52,40,879,1764,1851,2112,2299,2144,1928,1946,2063
848705,59516,27008,60072,27304,1087,941,417,-6,188,99,569,4157,35,36,883,1764,1851,2112,2299,2144,1928,1946,2063
849706,59580,27088,60137,27369,1038,573,387,-40,207,492,969,4102,41,41,880,1764,1851,2112,2299,2144,1928,1946,2063
850707,59640,27144,60202,27434,1096,884,363,-57,209,-123,965,4279,50,53,884,1764,1851,2112,2299,2144,1928,1946,2063
851708,59712,27224,60267,27499,937,565,339,-34,194,-285,680,4345,35,46,881,1781,1875,2139,2333,2148,1927,1949,2067
852709,59776,27292,60332,27564,1038,712,296,-24,201,168,601,4195,38,49,885,1781,1875,2139,2333,2148,1927,1949,2067
853710,59832,27372,60397,27629,1149,544,276,-33,206,133,608,4223,30,47,882,1781,1875,2139,2333,2148,1927,1949,2067
854711,59872,27424,60462,27694,1380,910,258,-10,214,-101,400,4456,38,39,883,1781,1875,2139,2333,2148,1927,1949,2067
855712,59948,27476,60527,27759,917,926,243,32,234,222,531,4402,47,48,877,1781,1875,2139,2333,2148,1927,1949,2067
856713,60000,27556,60592,27824,1233,558,223,89,243,387,459,4491,32,40,882,1781,1875,2139,2333,2148,1927,1949,2067
857714,60060,27632,60657,27889,1139,594,210,151,233,177,375,4461,29,50,882,1812,1910,2173,2358,2120,1902,1924,2044
858715,60108,27680,60722,27954,1310,965,187,167,221,79,319,4367,29,43,882,1812,1910,2173,2358,2120,1902,1924,2044
859716,60160,27740,60787,28019,1277,821,172,162,223,69,251,4232,46,47,878,1812,1910,2173,2358,2120,1902,1924,2044
860717,60236,27816,60852,28084,963,608,154,148,219,153,335,4462,37,34,879,1812,1910,2173,2358,2120,1902,1924,2044
861718,60280,27860,60917,28149,1389,1033,150,156,228,181,608,4476,35,35,884,1812,1910,2173,2358,2120,1902,1924,2044
862719,60328,27932,60982,28214,1360,675,137,167,210,57,649,4492,44,30,876,1823,1910,2174,2366,2084,1880,1901,2006
863720,60400,27984,61047,28279,1051,942,127,162,197,-137,490,4239,35,51,879,1823,1910,2174,2366,2084,1880,1901,2006
864721,60436,28056,61112,28344,1538,683,106,105,198,58,800,4095,33,47,880,1823,1910,2174,2366,2084,1880,1901,2006
865722,60504,28104,61177,28409,1134,1004,88,70,187,38,854,4092,47,37,877,1823,1910,2174,2366,2084,1880,1901,2006
866723,60556,28168,61242,28474,1350,805,68,53,182,-44,829,4261,48,49,879,1823,1910,2174,2366,2084,1880,1901,2006
867724,60612,28240,61307,28539,1311,696,67,66,181,259,982,4193,34,44,879,1823,1910,2174,2366,2084,1880,1901,2006
868725,60680,28280,61372,28604,1158,1127,82,97,181,529,1078,4176,33,45,880,1812,1891,2150,2355,2072,1875,1903,2003
869726,60740,28376,61437,28669,1264,389,95,109,185,185,887,4038,33,43,877,1812,1891,2150,2355,2072,1875,1903,2003
870727,60780,28440,61502,28734,1545,790,102,137,183,264,979,4244,34,45,881,1812,1891,2150,2355,2072,1875,1903,2003
871728,60860,28496,61567,28799,1028,901,124,168,192,369,874,4243,34,47,876,1812,1891,2150,2355,2072,1875,1903,2003
872729,60912,28560,61632,28864,1393,804,157,220,189,602,869,4414,50,38,881,1812,1891,2150,2355,2072,1875,1903,2003
873730,60972,28628,61697,28929,1300,750,204,248,204,250,1016,4261,41,47,878,1800,1884,2140,2342,2072,1870,1898,1997
874731,61020,28696,61762,28994,1470,746,238,254,200,137,1040,4075,42,44,878,1800,1884,2140,2342,2072,1870,1898,1997
875732,61080,28752,61827,29059,1327,907,269,264,195,-28,799,3994,41,37,878,1800,1884,2140,2342,2072,1870,1898,1997
876733,61156,28812,61892,29124,1114,863,289,243,203,53,866,3842,37,42,878,1800,1884,2140,2342,2072,1870,1898,1997
877734,61216,28880,61957,29189,1320,760,309,235,209,8,862,3960,37,39,881,1800,1884,2140,2342,2072,1870,1898,1997
878735,61260,28936,62022,29254,1546,921,324,248,205,12,835,3956,39,38,879,1800,1884,2140,2342,2072,1870,1898,1997
879736,61348,28996,62087,29319,969,877,339,234,214,-67,782,3829,34,50,875,1816,1903,2162,2371,2037,1838,1866,1962
880737,61412,29060,62152,29384,1270,829,335,236,222,126,919,4062,43,38,881,1816,1903,2162,2371,2037,1838,1866,1962
881738,61480,29128,62217,29449,1216,775,333,253,218,-68,851,3680,37,47,879,1816,1903,2162,2371,2037,1838,1866,1962
882739,61552,29192,62282,29514,1159,827,315,271,228,263,711,3986,42,35,880,1816,1903,2162,2371,2037,1838,1866,1962
883740,61600,29256,62347,29579,1479,828,312,313,239,611,699,3993,50,42,880,1816,1903,2162,2371,2037,1838,1866,1962
884741,61664,29336,62412,29644,1281,609,311,353,243,390,958,4003,39,33,877,1844,1923,2178,2385,2010,1817,1854,1955
885742,61720,29376,62477,29709,1392,1140,326,377,235,70,967,3941,51,38,881,1844,1923,2178,2385,2010,1817,1854,1955
886743,61784,29440,62542,29774,1294,841,338,427,231,356,923,3880,42,35,876,1844,1923,2178,2385,2010,1817,1854,1955
887744,61848,29496,62607,29839,1295,952,353,466,227,560,851,3741,37,46,877,1844,1923,2178,2385,2010,1817,1854,1955
888745,61904,29556,62672,29904,1406,908,370,478,227,393,899,3656,46,39,878,1844,1923,2178,2385,2010,1817,1854,1955
889746,61968,29632,62737,29969,1308,696,378,481,224,248,888,3810,41,33,877,1844,1923,2178,2385,2010,1817,1854,1955
890747,62024,29684,62802,30034,1419,1012,398,483,227,241,800,3728,37,48,879,1828,1904,2157,2360,2036,1842,1873,1972
891748,62080,29740,62867,30099,1430,973,414,478,233,354,843,3867,46,48,876,1828,1904,2157,2360,2036,1842,1873,1972
892749,62136,29796,62932,30164,1441,984,436,485,255,292,935,3867,37,48,876,1828,1904,2157,2360,2036,1842,1873,1972
893750,62192,29860,62997,30229,1453,885,458,469,280,187,975,3734,51,38,876,1828,1904,2157,2360,2036,1842,1873,1972
894751,62256,29944,63062,30294,1354,612,473,452,295,73,942,3657,52,55,877,1828,1904,2157,2360,2036,1842,1873,1972
895752,62304,30012,63127,30359,1575,808,489,436,292,210,1109,3553,54,48,880,1786,1866,2123,2324,2064,1864,1888,1990
896753,62388,30056,63192,30424,1103,1135,495,403,307,111,1096,3495,46,51,877,1786,1866,2123,2324,2064,1864,1888,1990
897754,62448,30132,63257,30489,1409,721,498,386,324,120,1160,3578,40,40,878,1786,1866,2123,2324,2064,1864,1888,1990
898755,62524,30196,63322,30554,1196,873,504,384,331,60,1156,3685,55,35,879,1786,1866,2123,2324,2064,1864,1888,1990
899756,62580,30256,63387,30619,1458,929,501,416,333,460,1069,3632,55,52,880,1786,1866,2123,2324,2064,1864,1888,1990
900757,62664,30316,63452,30684,1084,935,503,453,342,597,983,3878,36,43,877,1786,1866,2123,2324,2064,1864,1888,1990
901758,62724,30380,63517,30749,1391,886,498,459,349,512,1109,3670,59,38,880,1773,1859,2121,2311,2062,1856,1882,1996
902759,62796,30440,63582,30814,1233,942,493,470,332,187,970,3791,48,50,878,1773,1859,2121,2311,2062,1856,1882,1996
903760,62852,30520,63647,30879,1444,675,477,485,319,294,810,3703,46,39,879,1773,1859,2121,2311,2062,1856,1882,1996
904761,62928,30588,63712,30944,1181,821,467,485,305,544,974,3642,44,54,878,1773,1859,2121,2311,2062,1856,1882,1996
905762,62996,30656,63777,31009,1277,817,451,487,285,360,804,3781,51,45,880,1773,1859,2121,2311,2062,1856,1882,1996
906763,63060,30728,63842,31074,1329,759,432,485,272,256,770,3759,37,45,879,1775,1867,2134,2316,2062,1854,1878,1996
907764,63144,30780,63907,31139,1056,1025,423,462,257,148,829,3769,38,46,879,1775,1867,2134,2316,2062,1854,1878,1996
908765,63200,30844,63972,31204,1417,876,396,453,258,51,713,3739,52,50,879,1775,1867,2134,2316,2062,1854,1878,1996
909766,63244,30908,64037,31269,1594,877,380,422,274,97,967,3691,52,51,878,1775,1867,2134,2316,2062,1854,1878,1996
910767,63308,30992,64102,31334,1345,604,362,405,271,236,966,3655,35,54,876,1775,1867,2134,2316,2062,1854,1878,1996
911768,63380,31056,64167,31399,1236,856,344,379,286,224,771,3654,54,47,880,1775,1867,2134,2316,2062,1854,1878,1996
912769,63432,31136,64232,31464,1502,638,331,358,292,181,1139,3599,47,44,879,1785,1879,2142,2325,2075,1869,1895,2013
913770,63496,31188,64297,31529,1354,1004,310,343,299,33,1192,3649,49,51,878,1785,1879,2142,2325,2075,1869,1895,2013
914771,63536,31272,64362,31594,1685,581,294,371,323,236,1112,3661,35,51,877,1785,1879,2142,2325,2075,1869,1895,2013
915772,63608,31340,64427,31659,1276,777,278,411,330,612,1300,3673,40,47,876,1785,1879,2142,2325,2075,1869,1895,2013
916773,63668,31420,64492,31724,1433,609,258,465,322,502,1341,3680,42,44,880,1785,1879,2142,2325,2075,1869,1895,2013
917774,63736,31496,64557,31789,1330,645,240,478,316,127,1324,3678,42,55,880,1784,1872,2133,2319,2095,1887,1906,2018
918775,63804,31548,64622,31854,1326,961,242,447,318,142,1221,3708,53,42,881,1784,1872,2133,2319,2095,1887,1906,2018
919776,63884,31628,64687,31919,1159,594,237,432,305,224,1204,3889,40,53,878,1784,1872,2133,2319,2095,1887,1906,2018
920777,63940,31724,64752,31984,1470,356,237,424,276,270,1317,3898,37,44,882,1784,1872,2133,2319,2095,1887,1906,2018
921778,64008,31760,64817,32049,1316,1141,228,430,262,329,1176,3857,40,39,879,1784,1872,2133,2319,2095,1887,1906,2018
922779,64072,31852,64882,32114,1368,408,235,412,249,342,1125,4023,39,51,876,1784,1872,2133,2319,2095,1887,1906,2018
923780,64136,31912,64947,32179,1369,814,234,369,235,35,1109,3903,52,47,881,1765,1849,2117,2303,2085,1879,1894,2004
924781,64196,31968,65012,32244,1426,875,233,342,219,48,1115,4033,47,53,879,1765,1849,2117,2303,2085,1879,1894,2004
925782,64256,32036,65077,32309,1432,722,217,335,213,222,1035,3864,42,54,877,1765,1849,2117,2303,2085,1879,1894,2004
926783,64320,32100,65142,32374,1384,773,197,348,204,384,1049,3982,50,48,879,1765,1849,2117,2303,2085,1879,1894,2004
927784,64388,32204,65207,32439,1330,225,151,379,197,475,1014,4031,56,58,878,1765,1849,2117,2303,2085,1879,1894,2004
928785,64460,32268,65272,32504,1272,727,112,390,189,368,1078,3948,51,45,883,1777,1864,2140,2329,2072,1870,1889,2007
929786,64528,32324,65337,32569,1319,839,52,394,189,261,987,3776,50,54,880,1777,1864,2140,2329,2072,1870,1889,2007
930787,64580,32392,65402,32634,1535,685,17,401,198,258,1038,3877,34,47,879,1777,1864,2140,2329,2072,1870,1889,2007
931788,64628,32464,65467,32699,1606,626,-37,421,201,99,1092,3795,44,51,877,1777,1864,2140,2329,2072,1870,1889,2007
932789,64696,32532,65532,32764,1353,673,-73,461,200,321,1098,3865,41,54,877,1777,1864,2140,2329,2072,1870,1889,2007
933790,64768,32612,65597,32829,1294,504,-118,479,205,360,1174,3689,39,41,880,1777,1864,2140,2329,2072,1870,1889,2007
934791,64832,32660,65662,32894,1396,925,-143,475,192,117,1321,3788,46,51,881,1796,1888,2160,2337,2103,1896,1916,2044
935792,64896,32736,65727,32959,1398,562,-167,467,192,-148,1150,3805,56,43,877,1796,1888,2160,2337,2103,1896,1916,2044
936793,64960,32800,65792,33024,1399,713,-179,468,173,81,1184,3875,47,41,880,1796,1888,2160,2337,2103,1896,1916,2044
937794,65036,32860,65857,33089,1236,769,-188,479,140,258,1150,3903,56,45,879,1796,1888,2160,2337,2103,1896,1916,2044
938795,65100,32920,65922,33154,1388,775,-197,475,119,137,1174,3836,47,44,879,1796,1888,2160,2337,2103,1896,1916,2044
939796,65160,32988,65987,33219,1444,671,-199,486,84,197,1275,3954,48,40,879,1771,1865,2135,2308,2135,1919,1931,2055
940797,65252,33052,66052,33284,1011,723,-210,474,68,-82,1270,3878,41,42,879,1771,1865,2135,2308,2135,1919,1931,2055
941798,65296,33112,66117,33349,1637,780,-220,471,46,36,1366,3901,48,48,883,1771,1865,2135,2308,2135,1919,1931,2055
942799,65388,33192,66182,33414,1005,511,-232,490,32,227,1365,4067,52,53,876,1771,1865,2135,2308,2135,1919,1931,2055
943800,65448,33268,66247,33479,1411,548,-238,501,19,355,1458,3954,49,58,885,1771,1865,2135,2308,2135,1919,1931,2055
944801,65516,33332,66312,33544,1307,699,-249,507,4,121,1430,3820,50,46,880,1771,1865,2135,2308,2135,1919,1931,2055
945802,65576,33408,66377,33609,1414,536,-285,521,-13,211,1375,3982,41,44,880,1751,1842,2114,2296,2108,1897,1903,2015
946803,65660,33480,66442,33674,1091,577,-323,533,-36,374,1420,3773,53,56,880,1751,1842,2114,2296,2108,1897,1903,2015
947804,65716,33548,66507,33739,1452,624,-367,557,-64,389,1456,3916,45,48,882,1751,1842,2114,2296,2108,1897,1903,2015
948805,65800,33628,66572,33804,1080,455,-408,583,-83,337,1382,3955,36,46,879,1751,1842,2114,2296,2108,1897,1903,2015
949806,65848,33704,66637,33869,1551,492,-448,590,-89,265,1321,3857,42,39,884,1751,1842,2114,2296,2108,1897,1903,2015
950807,65912,33772,66702,33934,1352,588,-489,613,-91,301,1169,3996,38,43,879,1765,1849,2128,2320,2069,1873,1883,1995
951808,65992,33824,66767,33999,1134,804,-526,600,-89,307,1323,3857,55,50,880,1765,1849,2128,2320,2069,1873,1883,1995
952809,66048,33892,66966,34198,1609,764,-546,587,-108,135,1310,4003,42,38,881,1765,1849,2128,2320,2069,1873,1883,1995
953810,66132,33956,67031,34263,1236,815,-569,562,-118,-144,1283,3786,37,39,876,1765,1849,2128,2320,2069,1873,1883,1995
954811,66192,34024,67096,34328,1542,763,-588,544,-125,-104,1093,3801,38,44,880,1765,1849,2128,2320,2069,1873,1883,1995
955812,66260,34100,67161,34393,1439,649,-618,556,-135,247,1055,3847,48,55,876,1765,1849,2128,2320,2069,1873,1883,1995
956813,66324,34168,67226,34458,1491,746,-643,577,-154,265,1122,3827,56,46,879,1782,1869,2151,2335,2089,1887,1897,2023
957814,66404,34252,67291,34523,1272,522,-658,579,-207,163,1323,3662,59,61,878,1782,1869,2151,2335,2089,1887,1897,2023
958815,66472,34324,67356,34588,1420,664,-668,571,-241,-108,1273,3620,45,47,881,1782,1869,2151,2335,2089,1887,1897,2023
959816,66544,34396,67421,34653,1361,655,-663,596,-268,90,1213,3805,45,57,879,1782,1869,2151,2335,2089,1887,1897,2023
960817,66628,34468,67486,34718,1188,647,-671,640,-283,391,1317,3687,57,49,880,1782,1869,2151,2335,2089,1887,1897,2023
961818,66704,34544,67551,34783,1275,583,-684,683,-308,289,1571,3838,59,63,881,1783,1878,2149,2324,2102,1888,1907,2028
962819,66788,34648,67616,34848,1152,186,-687,705,-340,-51,1656,3685,60,59,881,1783,1878,2149,2324,2102,1888,1907,2028
963820,66868,34720,67681,34913,1184,577,-697,681,-364,-222,1804,3717,51,51,885,1783,1878,2149,2324,2102,1888,1907,2028
964821,66952,34800,67746,34978,1112,460,-701,691,-385,-152,1506,3926,49,59,883,1783,1878,2149,2324,2102,1888,1907,2028
965822,67016,34876,67811,35043,1363,496,-714,721,-388,325,1558,3933,49,49,884,1783,1878,2149,2324,2102,1888,1907,2028
966823,67108,34956,67876,35108,980,428,-710,725,-416,290,2045,3898,52,44,881,1783,1878,2149,2324,2102,1888,1907,2028
967824,67196,35044,67941,35173,1003,300,-722,692,-442,-326,1721,3821,49,56,885,1774,1866,2128,2312,2073,1865,1885,1994
968825,67256,35116,68006,35238,1359,491,-739,673,-463,-316,1482,4032,47,43,886,1774,1866,2128,2312,2073,1865,1885,1994
969826,67320,35176,68071,35303,1310,648,-752,671,-463,325,1494,3846,49,41,881,1774,1866,2128,2312,2073,1865,1885,1994
970829,67412,35244,68136,35368,927,544,-759,653,-474,324,1631,3684,54,56,881,1774,1866,2128,2312,2073,1865,1885,1994
971828,67488,35316,68201,35433,1115,485,-767,632,-504,-153,1477,3759,44,53,885,1774,1866,2128,2312,2073,1865,1885,1994
972829,67560,35384,68266,35498,1156,532,-777,622,-532,60,1389,3564,39,44,882,1773,1858,2130,2320,2047,1850,1865,1978
973830,67632,35444,68331,35563,1148,638,-785,621,-549,266,1365,3598,42,52,883,1773,1858,2130,2320,2047,1850,1865,1978
974831,67708,35528,68396,35628,1085,315,-801,633,-566,284,1282,3645,41,56,882,1773,1858,2130,2320,2047,1850,1865,1978
975832,67780,35588,68461,35693,1127,621,-811,631,-592,164,1368,3532,49,47,885,1773,1858,2130,2320,2047,1850,1865,1978
976833,67840,35672,68526,35758,1283,297,-825,619,-630,55,1272,3483,44,54,883,1773,1858,2130,2320,2047,1850,1865,1978
977834,67932,35724,68591,35823,850,713,-832,587,-652,96,1313,3490,59,52,883,1773,1858,2130,2320,2047,1850,1865,1978
978835,68016,35804,68656,35888,928,345,-834,602,-671,-4,1265,3574,50,44,885,1789,1871,2147,2331,2048,1850,1867,1987
979836,68096,35884,68721,35953,959,327,-847,568,-699,171,1435,3351,42,43,886,1789,1871,2147,2331,2048,1850,1867,1987
980837,68172,35960,68786,36018,996,363,-846,538,-729,-121,1418,3413,46,53,886,1789,1871,2147,2331,2048,1850,1867,1987
981838,68244,36028,68851,36083,1037,460,-857,523,-751,-393,1368,3300,45,56,886,1789,1871,2147,2331,2048,1850,1867,1987
982839,68316,36100,68916,36148,1030,401,-877,511,-751,-49,1401,3357,57,54,885,1789,1871,2147,2331,2048,1850,1867,1987
983840,68396,36152,68981,36213,912,667,-891,514,-762,102,1641,3383,49,41,885,1785,1873,2135,2311,2055,1849,1878,1998
984841,68468,36232,69046,36278,1003,299,-898,473,-786,-260,1683,3103,50,49,885,1785,1873,2135,2311,2055,1849,1878,1998
985842,68548,36304,69111,36343,885,390,-907,467,-809,-320,1639,3566,41,52,886,1785,1873,2135,2311,2055,1849,1878,1998
986843,68624,36360,69176,36408,921,601,-912,449,-831,-84,1686,3216,55,50,887,1785,1873,2135,2311,2055,1849,1878,1998
987844,68700,36440,69241,36473,909,283,-925,428,-850,-192,1429,3208,41,54,885,1785,1873,2135,2311,2055,1849,1878,1998
988845,68772,36524,69306,36538,950,210,-934,420,-885,-50,1628,3336,40,45,887,1785,1873,2135,2311,2055,1849,1878,1998
989846,68848,36600,69371,36603,887,296,-939,408,-917,-123,1596,3154,38,52,886,1757,1848,2099,2267,2051,1839,1869,1993
990847,68912,36660,69436,36668,1038,502,-939,390,-958,-17,1466,3306,48,56,887,1757,1848,2099,2267,2051,1839,1869,1993
991848,68992,36728,69501,36733,820,399,-936,365,-989,-143,1384,3186,56,43,885,1757,1848,2099,2267,2051,1839,1869,1993
992849,69068,36804,69566,36798,857,285,-932,324,-1023,-115,1414,3392,57,53,887,1757,1848,2099,2267,2051,1839,1869,1993
993850,69156,36876,69631,36863,679,327,-922,301,-1046,-154,1331,3167,54,59,888,1757,1848,2099,2267,2051,1839,1869,1993
994851,69240,36952,69696,36928,706,263,-902,263,-1076,-18,1416,3293,44,59,889,1736,1826,2080,2250,2035,1826,1851,1971
995852,69324,37016,69761,36993,683,414,-888,225,-1088,-289,1284,3260,45,43,889,1736,1826,2080,2250,2035,1826,1851,1971
996853,69392,37104,69826,37058,879,86,-888,191,-1103,-195,1201,3143,43,45,889,1736,1826,2080,2250,2035,1826,1851,1971
997854,69452,37184,69891,37123,985,168,-895,138,-1118,-88,1280,3013,40,46,888,1736,1826,2080,2250,2035,1826,1851,1971
998855,69548,37256,69956,37188,499,259,-902,110,-1142,-83,1250,3006,44,56,887,1736,1826,2080,2250,2035,1826,1851,1971
999856,69620,37336,70021,37253,790,141,-935,63,-1162,-3,1228,2876,52,51,891,1736,1826,2080,2250,2035,1826,1851,1971
1000857,69688,37400,70086,37318,836,342,-967,27,-1193,-14,1211,2815,34,53,889,1754,1843,2105,2286,2008,1811,1840,1955
1001858,69764,37476,70151,37383,723,179,-997,-11,-1221,-67,1178,2895,50,44,887,1754,1843,2105,2286,2008,1811,1840,1955
1002859,69844,37552,70216,37448,655,166,-1028,-46,-1244,-209,1224,2767,37,43,889,1754,1843,2105,2286,2008,1811,1840,1955
1003860,69928,37644,70281,37513,581,-67,-1054,-70,-1270,-106,1261,2960,39,49,890,1754,1843,2105,2286,2008,1811,1840,1955
1004861,69984,37712,70346,37578,942,229,-1067,-87,-1292,-8,1214,2873,55,41,891,1754,1843,2105,2286,2008,1811,1840,1955
1005862,70076,37776,70411,37643,460,280,-1073,-114,-1319,-134,1291,2807,37,51,887,1773,1858,2111,2288,2012,1812,1848,1967
1006863,70148,37848,70476,37708,702,172,-1072,-134,-1351,-370,1220,2911,50,54,890,1773,1858,2111,2288,2012,1812,1848,1967
1007864,70216,37916,70541,37773,748,218,-1069,-170,-1355,-331,1216,2831,37,46,890,1773,1858,2111,2288,2012,1812,1848,1967
1008865,70288,37968,70606,37838,690,434,-1058,-186,-1374,-213,1307,3151,39,51,889,1773,1858,2111,2288,2012,1812,1848,1967
1009866,70364,38052,70671,37903,626,11,-1049,-187,-1398,-385,1190,3143,44,54,889,1773,1858,2111,2288,2012,1812,1848,1967
1010867,70440,38124,70736,37968,613,152,-1036,-190,-1418,-234,1094,2998,37,42,891,1746,1836,2075,2247,2012,1812,1848,1967
1011868,70524,38196,70801,38033,490,144,-1019,-211,-1439,-332,1146,3004,48,42,891,1746,1836,2075,2247,2027,1817,1854,1972
1012869,70596,38264,70866,38098,631,190,-1011,-225,-1464,-446,1177,3112,55,51,892,1746,1836,2075,2247,2027,1817,1854,1972
1013870,70688,38352,70931,38163,349,-89,-1007,-223,-1487,-327,1122,3182,40,52,890,1746,1836,2075,2247,2027,1817,1854,1972
1014871,70776,38428,70996,38228,371,47,-1013,-226,-1517,-228,1155,2935,50,48,892,1746,1836,2075,2247,2027,1817,1854,1972
1015872,70852,38496,71061,38293,508,144,-1030,-241,-1551,-389,1102,2960,38,43,893,1746,1836,2075,2247,2027,1817,1854,1972
1016873,70932,38564,71126,38358,439,140,-1031,-252,-1581,-434,1028,2930,49,38,891,1732,1821,2066,2246,2016,1809,1843,1955
1017874,71012,38632,71191,38423,421,136,-1035,-248,-1603,-338,1097,3045,38,50,892,1732,1821,2066,2246,2016,1809,1843,1955
1018875,71084,38700,71256,38488,512,133,-1028,-240,-1611,-188,1085,3126,44,37,892,1732,1821,2066,2246,2016,1809,1843,1955
1019876,71160,38772,71321,38553,449,74,-1023,-241,-1615,-268,919,3007,52,41,891,1732,1821,2066,2246,2016,1809,1843,1955
1020878,71236,38860,71386,38618,436,-154,-1005,-251,-1613,-448,887,2970,50,44,892,1732,1821,2066,2246,2016,1809,1843,1955
1021878,71316,38916,71451,38683,367,257,-1000,-255,-1605,-487,704,3012,38,38,892,1745,1828,2080,2272,2003,1805,1835,1941
1022879,71392,39000,71516,38748,404,-116,-998,-246,-1614,-236,740,3078,42,47,892,1745,1828,2080,2272,2003,1805,1835,1941
1023880,71480,39052,71581,38813,226,300,-993,-236,-1621,-87,686,2980,50,52,891,1745,1828,2080,2272,2003,1805,1835,1941
1024881,71544,39124,71646,38878,527,41,-985,-252,-1628,-255,719,2697,49,42,892,1745,1828,2080,2272,2003,1805,1835,1941
1025882,71636,39184,71711,38943,144,196,-977,-246,-1627,-434,653,3011,50,36,892,1745,1828,2080,2272,2003,1805,1835,1941
1026883,71712,39236,71776,39008,331,312,-966,-249,-1631,-242,628,2792,51,44,893,1745,1828,2080,2272,2003,1805,1835,1941
1027884,71800,39296,71841,39073,153,218,-965,-259,-1637,-240,791,2785,52,42,892,1771,1845,2100,2297,1990,1795,1831,1931
1028885,71880,39368,71906,39138,234,60,-955,-276,-1639,-402,727,2682,50,42,893,1771,1845,2100,2297,1990,1795,1831,1931
1029886,71956,39432,71971,39203,271,161,-951,-292,-1637,-656,697,2673,45,45,894,1771,1845,2100,2297,1990,1795,1831,1931
1030887,72048,39484,72036,39268,38,327,-966,-296,-1654,-300,737,2755,46,41,893,1771,1845,2100,2297,1990,1795,1831,1931
1031888,72128,39552,72101,39333,170,123,-984,-308,-1674,-237,621,2524,47,39,893,1771,1845,2100,2297,1990,1795,1831,1931
