%  Data file recorded 2016/9/4  23:27:10
%  Stride Frequency         = [1, 1]
%  Lead In /Lead Out        = 
%  Deltas (Fractional)      = [0.25, 0.25, 0.25],[0.25, 0.25, 0.25]
%  Phase                    = 32768
%  Experiment.py 
%  Motor Gains    = [5000, 400, 200, 0, 300, 5000, 400, 200, 0, 300]
% Columns: 
% time | Right Leg Pos | Left Leg Pos | Commanded Right Leg Pos | Commanded Left Leg Pos | DCR | DCL | GyroX | GyroY | GyroZ | AX | AY | AZ | RBEMF | LBEMF | VBatt | S1 | S2 | S3 | S4 | S5 | S6 | S7 | S8
19,-43820,-15620,-46106,-13338,3800,3800,36,55,10,41,86,3918,-7,6,869,1807,1883,2091,2279,2062,1831,1879,2001
1019,-43812,-15620,-46106,-13338,3800,3800,38,53,10,36,100,3926,2,6,869,1807,1883,2091,2279,2062,1831,1879,2001
2022,-43816,-15624,-46106,-13338,3800,3800,38,52,12,35,108,3946,9,6,869,1807,1883,2091,2279,2062,1831,1879,2001
3021,-43808,-15616,-46106,-13338,3800,3800,35,49,10,11,108,3942,7,6,869,1807,1883,2091,2279,2062,1831,1879,2001
4022,-43820,-15624,-46106,-13338,3800,3800,35,50,11,21,129,3928,1,4,869,1809,1883,2094,2278,2064,1833,1881,2004
5023,-43812,-15632,-46106,-13338,3800,3800,36,52,10,13,117,3942,-7,0,869,1809,1883,2094,2278,2064,1833,1881,2004
6024,-43816,-15616,-46106,-13338,3800,3800,37,56,12,40,107,3968,-9,5,869,1809,1883,2094,2278,2064,1833,1881,2004
7025,-43808,-15608,-46106,-13338,3800,3800,40,54,11,15,120,3969,-7,-7,869,1809,1883,2094,2278,2064,1833,1881,2004
8026,-43808,-15612,-46106,-13338,3800,3800,41,51,12,16,124,3940,0,2,869,1809,1883,2094,2278,2064,1833,1881,2004
9027,-43824,-15632,-46106,-13338,3800,3800,41,47,13,6,104,3942,5,-2,868,1809,1883,2094,2278,2062,1832,1881,2003
10028,-43808,-15632,-46106,-13338,3800,3800,41,50,12,24,116,3940,8,-7,869,1809,1883,2094,2278,2062,1832,1881,2003
11029,-43812,-15624,-46106,-13338,3800,3800,37,51,12,22,122,3919,2,-7,869,1809,1883,2094,2278,2062,1832,1881,2003
12030,-43812,-15628,-46106,-13338,3800,3800,39,49,12,7,125,3941,2,-8,869,1809,1883,2094,2278,2062,1832,1881,2003
13031,-43808,-15624,-46106,-13338,3800,3800,38,50,12,19,108,3977,-8,-8,869,1809,1883,2094,2278,2062,1832,1881,2003
14032,-43812,-15620,-46106,-13338,3800,3800,39,50,14,26,110,3946,-9,-5,869,1809,1883,2094,2278,2062,1832,1881,2003
15033,-43812,-15612,-46106,-13338,3800,3800,42,51,13,38,118,3935,-8,-2,869,1809,1883,2093,2278,2063,1833,1882,2004
16034,-43816,-15636,-46106,-13338,3800,3800,42,49,11,56,135,3941,6,3,868,1809,1883,2093,2278,2063,1833,1882,2004
17035,-43824,-15632,-46106,-13338,3800,3800,41,51,13,41,107,3931,7,5,869,1809,1883,2093,2278,2063,1833,1882,2004
18036,-43824,-15624,-46106,-13338,3800,3800,42,50,13,25,99,3945,4,3,869,1809,1883,2093,2278,2063,1833,1882,2004
19037,-43820,-15620,-46106,-13338,3800,3800,43,51,16,41,113,3938,-1,4,867,1809,1883,2093,2278,2063,1833,1882,2004
20038,-43808,-15624,-46106,-13338,3800,3800,44,52,16,46,122,3955,3,-5,868,1810,1884,2096,2280,2064,1834,1884,2006
21039,-43816,-15616,-46106,-13338,3800,3800,44,53,14,52,110,3950,8,-8,869,1810,1884,2096,2280,2064,1834,1884,2006
22040,-43812,-15620,-46106,-13338,3800,3800,43,52,12,42,116,3903,8,-2,869,1810,1884,2096,2280,2064,1834,1884,2006
23041,-43804,-15608,-46106,-13338,3800,3800,43,52,12,47,119,3949,1,-7,869,1810,1884,2096,2280,2064,1834,1884,2006
24042,-43808,-15624,-46106,-13338,3800,3800,43,50,14,43,134,3962,-4,3,869,1810,1884,2096,2280,2064,1834,1884,2006
25043,-43812,-15612,-46106,-13338,3800,3800,42,52,13,35,152,3923,-8,5,869,1810,1884,2096,2280,2064,1834,1884,2006
26044,-43828,-15620,-46106,-13338,3800,3800,43,53,11,5,134,3926,-9,5,868,1809,1883,2094,2278,2064,1834,1882,2004
27045,-43812,-15620,-46106,-13338,3800,3800,44,54,11,14,94,3943,-7,4,869,1809,1883,2094,2278,2064,1834,1882,2004
28046,-43820,-15624,-46106,-13338,3800,3800,43,51,11,36,107,3942,0,3,869,1809,1883,2094,2278,2064,1834,1882,2004
29047,-43804,-15620,-46106,-13338,3800,3800,39,52,12,29,142,3923,6,6,869,1809,1883,2094,2278,2064,1834,1882,2004
30048,-43804,-15632,-46106,-13338,3800,3800,38,54,11,-4,143,3916,4,2,869,1809,1883,2094,2278,2064,1834,1882,2004
31049,-43816,-15628,-46106,-13338,3800,3800,40,55,14,7,135,3926,8,-6,869,1809,1883,2093,2277,2065,1834,1882,2005
32050,-43804,-15632,-46106,-13338,3800,3800,43,53,14,22,132,3919,9,-6,869,1809,1883,2093,2277,2065,1834,1882,2005
33051,-43816,-15632,-46106,-13338,3800,3800,40,54,12,26,141,3935,8,-8,869,1809,1883,2093,2277,2065,1834,1882,2005
34052,-43800,-15612,-46106,-13338,3800,3800,37,56,11,11,124,3959,8,2,869,1809,1883,2093,2277,2065,1834,1882,2005
35053,-43800,-15620,-46106,-13338,3800,3800,39,56,11,23,135,3973,9,-5,869,1809,1883,2093,2277,2065,1834,1882,2005
36054,-43808,-15616,-46106,-13338,3800,3800,39,57,15,47,122,3971,7,-5,868,1809,1883,2093,2277,2065,1834,1882,2005
37055,-43808,-15624,-46106,-13338,3800,3800,38,57,17,30,122,3932,7,1,869,1810,1883,2095,2279,2068,1836,1884,2006
38056,-43820,-15624,-46106,-13338,3800,3800,38,58,15,17,148,3951,7,-5,869,1810,1883,2095,2279,2068,1836,1884,2006
39057,-43820,-15620,-46106,-13338,3800,3800,38,59,12,30,127,3943,2,-3,869,1810,1883,2095,2279,2068,1836,1884,2006
40058,-43812,-15624,-46106,-13338,3800,3800,38,59,14,44,122,3911,-4,0,869,1810,1883,2095,2279,2068,1836,1884,2006
41059,-43812,-15620,-46106,-13338,3800,3800,38,56,14,69,148,3957,0,2,869,1810,1883,2095,2279,2068,1836,1884,2006
42060,-43820,-15628,-46106,-13338,3800,3800,36,56,14,49,133,3956,-3,6,869,1809,1883,2093,2277,2065,1834,1883,2005
43061,-43808,-15624,-46106,-13338,3800,3800,35,54,14,2,111,3947,2,-5,869,1809,1883,2093,2277,2065,1834,1883,2005
44062,-43812,-15624,-46106,-13338,3800,3800,34,54,11,-4,122,3980,4,-1,869,1809,1883,2093,2277,2065,1834,1883,2005
45063,-43812,-15628,-46106,-13338,3800,3800,32,57,11,33,141,3972,0,-7,869,1809,1883,2093,2277,2065,1834,1883,2005
46064,-43812,-15620,-46106,-13338,3800,3800,32,58,15,15,117,3940,7,-3,869,1809,1883,2093,2277,2065,1834,1883,2005
47065,-43820,-15608,-46106,-13338,3800,3800,33,57,13,28,129,3959,8,-5,869,1809,1883,2093,2277,2065,1834,1883,2005
48066,-43820,-15624,-46106,-13338,3800,3800,35,53,13,14,140,3966,5,4,869,1808,1883,2093,2277,2064,1833,1882,2005
49067,-43816,-15620,-46106,-13338,3800,3800,38,52,16,-11,118,3945,-4,-1,868,1808,1883,2093,2277,2064,1833,1882,2005
50068,-43816,-15608,-46106,-13338,3800,3800,36,55,14,11,114,3942,-9,-2,868,1808,1883,2093,2277,2064,1833,1882,2005
51069,-43808,-15616,-46106,-13338,3800,3800,33,55,12,16,111,3946,-8,-5,869,1808,1883,2093,2277,2064,1833,1882,2005
52071,-43804,-15620,-46106,-13338,3800,3800,32,57,12,13,113,3970,-3,-7,869,1808,1883,2093,2277,2064,1833,1882,2005
53071,-43808,-15616,-46106,-13338,3800,3800,33,57,15,0,121,3958,7,-7,868,1809,1883,2093,2277,2065,1834,1882,2004
54072,-43808,-15624,-46106,-13338,3800,3800,33,55,14,0,116,3949,8,-4,868,1809,1883,2093,2277,2065,1834,1882,2004
55073,-43812,-15616,-46106,-13338,3800,3800,33,54,13,16,130,3925,8,-7,869,1809,1883,2093,2277,2065,1834,1882,2004
56074,-43808,-15620,-46106,-13338,3800,3800,34,54,14,9,118,3910,4,-3,869,1809,1883,2093,2277,2065,1834,1882,2004
57075,-43816,-15628,-46106,-13338,3800,3800,32,55,12,-6,117,3958,8,-1,869,1809,1883,2093,2277,2065,1834,1882,2004
58076,-43816,-15628,-46106,-13338,3800,3800,31,56,12,-8,136,3961,6,0,869,1809,1883,2093,2277,2065,1834,1882,2004
59077,-43816,-15628,-46106,-13338,3800,3800,31,56,12,-17,146,3939,6,2,869,1809,1884,2096,2278,2064,1834,1884,2004
60078,-43820,-15608,-46106,-13338,3800,3800,33,54,13,13,134,3984,9,-4,868,1809,1884,2096,2278,2064,1834,1884,2004
61079,-43812,-15624,-46106,-13338,3800,3800,31,52,12,7,109,3995,5,-2,869,1809,1884,2096,2278,2064,1834,1884,2004
62080,-43804,-15624,-46106,-13338,3800,3800,33,54,12,21,125,3986,-2,5,869,1809,1884,2096,2278,2064,1834,1884,2004
63081,-43820,-15620,-46106,-13338,3800,3800,34,56,12,7,120,3970,-3,4,869,1809,1884,2096,2278,2064,1834,1884,2004
64082,-43808,-15620,-46106,-13338,3800,3800,35,55,13,16,110,3967,-10,4,869,1810,1884,2095,2279,2064,1834,1882,2004
65083,-43804,-15620,-46106,-13338,3800,3800,33,54,14,-4,106,3918,-7,6,869,1810,1884,2095,2279,2064,1834,1882,2004
66084,-43812,-15616,-46106,-13338,3800,3800,35,54,12,-15,103,3937,-8,-2,869,1810,1884,2095,2279,2064,1834,1882,2004
67085,-43808,-15620,-46106,-13338,3800,3800,35,53,10,-10,115,3926,-1,-7,869,1810,1884,2095,2279,2064,1834,1882,2004
68086,-43808,-15608,-46106,-13338,3800,3800,35,56,11,-1,106,3948,2,-3,869,1810,1884,2095,2279,2064,1834,1882,2004
69087,-43808,-15628,-46106,-13338,3800,3800,33,56,13,-4,103,3972,5,-8,869,1810,1884,2095,2279,2064,1834,1882,2004
70088,-43804,-15628,-46106,-13338,3800,3800,33,55,13,-21,117,3970,9,-7,867,1809,1883,2094,2278,2063,1832,1881,2003
71089,-43816,-15608,-46106,-13338,3800,3800,35,52,12,12,120,3935,7,-3,868,1809,1883,2094,2278,2063,1832,1881,2003
72090,-43812,-15604,-46106,-13338,3800,3800,37,54,10,33,126,3943,8,-3,869,1809,1883,2094,2278,2063,1832,1881,2003
73091,-43804,-15616,-46106,-13338,3800,3800,37,57,11,30,113,3956,6,-6,869,1809,1883,2094,2278,2063,1832,1881,2003
74092,-43808,-15620,-46106,-13338,3800,3800,36,57,15,29,94,3924,6,-1,869,1809,1883,2094,2278,2063,1832,1881,2003
75093,-43812,-15632,-46106,-13338,3800,3800,37,56,13,12,113,3937,8,-7,869,1807,1882,2091,2275,2061,1831,1881,2002
76094,-43808,-15624,-46106,-13338,3800,3800,39,53,10,4,103,3933,9,5,868,1807,1882,2091,2275,2061,1831,1881,2002
77095,-43816,-15620,-46106,-13338,3800,3800,38,53,11,0,109,3957,8,6,869,1807,1882,2091,2275,2061,1831,1881,2002
78096,-43812,-15616,-46106,-13338,3800,3800,36,53,14,-13,95,3965,8,3,869,1807,1882,2091,2275,2061,1831,1881,2002
79097,-43808,-15636,-46106,-13338,3800,3800,36,53,11,-6,111,3947,9,2,869,1807,1882,2091,2275,2061,1831,1881,2002
80098,-43820,-15616,-46106,-13338,3800,3800,38,54,12,-14,126,3914,9,-7,869,1807,1882,2091,2275,2061,1831,1881,2002
81099,-43824,-15612,-46106,-13338,3800,3800,40,54,13,-1,137,3941,7,-4,869,1809,1883,2093,2278,2064,1833,1881,2004
82100,-43804,-15620,-46106,-13338,3800,3800,39,54,14,26,106,3950,9,-6,869,1809,1883,2093,2278,2064,1833,1881,2004
83101,-43804,-15612,-46106,-13338,3800,3800,37,55,15,-7,87,3917,7,-6,869,1809,1883,2093,2278,2064,1833,1881,2004
84102,-43808,-15624,-46106,-13338,3800,3800,39,55,13,-7,81,3908,8,-8,869,1809,1883,2093,2278,2064,1833,1881,2004
85103,-43816,-15624,-46106,-13338,3800,3800,42,55,12,-19,108,3908,0,-3,869,1809,1883,2093,2278,2064,1833,1881,2004
86104,-43800,-15620,-46106,-13338,3800,3800,43,54,15,-42,102,3950,-6,-7,869,1808,1883,2092,2278,2064,1832,1881,2004
87105,-43804,-15616,-46106,-13338,3800,3800,39,55,15,-21,99,3952,-3,-2,867,1808,1883,2092,2278,2064,1832,1881,2004
88106,-43812,-15612,-46106,-13338,3800,3800,38,54,16,-8,93,3965,-2,6,868,1808,1883,2092,2278,2064,1832,1881,2004
89107,-43796,-15612,-46106,-13338,3800,3800,38,55,14,3,121,3958,-7,-3,868,1808,1883,2092,2278,2064,1832,1881,2004
90108,-43820,-15612,-46106,-13338,3800,3800,40,54,15,2,120,3936,-4,-5,869,1808,1883,2092,2278,2064,1832,1881,2004
91109,-43808,-15624,-46106,-13338,3800,3800,41,56,13,-25,114,3946,-8,-7,869,1808,1883,2092,2278,2064,1832,1881,2004
92110,-43804,-15624,-46106,-13338,3800,3800,41,57,12,-25,126,3944,-9,-7,869,1808,1883,2094,2278,2063,1833,1882,2004
93111,-43812,-15636,-46106,-13338,3800,3800,42,55,13,-8,110,3917,-9,-4,869,1808,1883,2094,2278,2063,1833,1882,2004
94112,-43800,-15628,-46106,-13338,3800,3800,39,54,12,11,99,3955,-8,-8,869,1808,1883,2094,2278,2063,1833,1882,2004
95113,-43808,-15624,-46106,-13338,3800,3800,38,52,16,-9,107,3969,-8,-3,869,1808,1883,2094,2278,2063,1833,1882,2004
96114,-43812,-15620,-46106,-13338,3800,3800,39,53,14,6,82,3937,-8,-7,869,1808,1883,2094,2278,2063,1833,1882,2004
97115,-43804,-15620,-46106,-13338,3800,3800,36,54,11,-7,115,3920,-7,-6,869,1809,1884,2096,2280,2064,1834,1882,2005
98116,-43812,-15628,-46106,-13338,3800,3800,37,54,11,-3,96,3961,-7,-6,869,1809,1884,2096,2280,2064,1834,1882,2005
99117,-43812,-15624,-46106,-13338,3800,3800,39,53,12,-18,98,3963,-8,-3,868,1809,1884,2096,2280,2064,1834,1882,2005
100118,-43808,-15620,-46106,-13338,3800,3800,40,53,15,-8,115,3968,-6,-7,869,1809,1884,2096,2280,2064,1834,1882,2005
101119,-43804,-15620,-46106,-13338,3800,3800,39,53,15,-9,101,3957,-4,-6,869,1809,1884,2096,2280,2064,1834,1882,2005
102120,-43816,-15628,-46106,-13338,3800,3800,38,53,15,5,117,3935,-9,-8,869,1809,1884,2096,2280,2064,1834,1882,2005
103121,-43800,-15616,-46106,-13338,3800,3800,37,54,15,-1,119,3937,-8,-1,869,1809,1884,2093,2278,2065,1833,1882,2005
104122,-43816,-15620,-46106,-13338,3800,3800,39,54,14,-5,107,3945,-9,-3,868,1809,1884,2093,2278,2065,1833,1882,2005
105123,-43820,-15612,-46106,-13338,3800,3800,41,55,14,-13,105,3935,-9,-4,867,1809,1884,2093,2278,2065,1833,1882,2005
106124,-43796,-15616,-46106,-13338,3800,3800,39,53,14,21,118,3940,-6,6,869,1809,1884,2093,2278,2065,1833,1882,2005
107125,-43804,-15616,-46106,-13338,3800,3800,36,53,10,36,105,3954,-8,0,869,1809,1884,2093,2278,2065,1833,1882,2005
108126,-43812,-15620,-46106,-13338,3800,3800,37,52,9,6,117,3947,-7,6,869,1807,1883,2093,2277,2065,1834,1883,2004
109127,-43824,-15612,-46106,-13338,3800,3800,37,51,11,-10,102,3916,-8,1,869,1807,1883,2093,2277,2065,1834,1883,2004
110128,-43812,-15620,-46106,-13338,3800,3800,36,51,10,3,126,3921,-7,-6,869,1807,1883,2093,2277,2065,1834,1883,2004
111129,-43816,-15624,-46106,-13338,3800,3800,34,51,10,34,116,3932,-6,-8,869,1807,1883,2093,2277,2065,1834,1883,2004
112130,-43824,-15620,-46106,-13338,3800,3800,35,51,9,25,131,3963,-8,-4,869,1807,1883,2093,2277,2065,1834,1883,2004
113131,-43812,-15620,-46106,-13338,3800,3800,39,50,10,12,107,4006,-9,-7,869,1807,1883,2093,2277,2065,1834,1883,2004
114132,-43808,-15616,-46106,-13338,3800,3800,38,53,9,30,120,3980,-9,-8,869,1807,1882,2095,2279,2066,1834,1882,2003
115133,-43812,-15628,-46106,-13338,3800,3800,37,53,10,10,98,3954,0,2,869,1807,1882,2095,2279,2066,1834,1882,2003
116134,-43812,-15616,-46106,-13338,3800,3800,36,50,11,7,113,3982,5,6,868,1807,1882,2095,2279,2066,1834,1882,2003
117135,-43812,-15624,-46106,-13338,3800,3800,34,50,10,29,133,3985,6,-1,869,1807,1882,2095,2279,2066,1834,1882,2003
118136,-43828,-15620,-46106,-13338,3800,3800,36,50,9,26,113,3947,8,-4,869,1807,1882,2095,2279,2066,1834,1882,2003
119137,-43816,-15624,-46106,-13338,3800,3800,38,48,7,28,119,3947,-5,0,868,1808,1883,2093,2278,2064,1833,1882,2003
120138,-43816,-15624,-46106,-13338,3800,3800,38,48,6,39,111,3951,-10,-3,869,1808,1883,2093,2278,2064,1833,1882,2003
121139,-43812,-15616,-46106,-13338,3800,3800,38,50,9,38,97,3964,-4,4,867,1808,1883,2093,2278,2064,1833,1882,2003
122140,-43816,-15616,-46106,-13338,3800,3800,40,53,9,44,90,3960,2,6,868,1808,1883,2093,2278,2064,1833,1882,2003
123141,-43820,-15620,-46106,-13338,3800,3800,41,51,7,33,123,3943,-4,3,869,1808,1883,2093,2278,2064,1833,1882,2003
124142,-43808,-15624,-46106,-13338,3800,3800,40,50,7,63,110,3933,0,0,869,1808,1883,2093,2278,2064,1833,1882,2003
125143,-43816,-15632,-46106,-13338,3800,3800,40,51,8,55,102,3932,0,0,869,1808,1884,2094,2278,2063,1833,1882,2004
126144,-43820,-15624,-46106,-13338,3800,3800,38,50,9,84,109,3937,-3,6,868,1808,1884,2094,2278,2063,1833,1882,2004
127145,-43812,-15620,-46106,-13338,3800,3800,40,50,11,59,123,3940,-1,2,869,1808,1884,2094,2278,2063,1833,1882,2004
128146,-43812,-15632,-46106,-13338,3800,3800,39,49,11,37,101,3937,-3,1,869,1808,1884,2094,2278,2063,1833,1882,2004
129147,-43812,-15624,-46106,-13338,3800,3800,39,48,10,62,102,3930,-3,6,868,1808,1884,2094,2278,2063,1833,1882,2004
130148,-43820,-15620,-46106,-13338,3800,3800,39,47,7,80,122,3935,4,1,869,1808,1883,2094,2278,2064,1833,1882,2004
131149,-43816,-15624,-46106,-13338,3800,3800,40,50,6,59,106,3950,8,-3,869,1808,1883,2094,2278,2064,1833,1882,2004
132150,-43816,-15616,-46106,-13338,3800,3800,41,50,11,56,94,3947,8,6,869,1808,1883,2094,2278,2064,1833,1882,2004
133151,-43808,-15624,-46106,-13338,3800,3800,39,50,11,66,82,3956,4,-1,869,1808,1883,2094,2278,2064,1833,1882,2004
134152,-43820,-15624,-46106,-13338,3800,3800,40,51,12,57,97,3975,2,6,869,1808,1883,2094,2278,2064,1833,1882,2004
135153,-43816,-15620,-46106,-13338,3800,3800,42,52,13,45,152,3950,5,4,868,1808,1883,2094,2278,2064,1833,1882,2004
136154,-43816,-15624,-46106,-13338,3800,3800,43,51,14,69,142,3947,-3,3,869,1810,1884,2096,2280,2064,1834,1884,2006
137155,-43820,-15620,-46106,-13338,3800,3800,42,49,13,92,127,3935,-8,-7,869,1810,1884,2096,2280,2064,1834,1884,2006
138156,-43804,-15624,-46106,-13338,3800,3800,42,52,14,73,122,3925,-9,-4,868,1810,1884,2096,2280,2064,1834,1884,2006
139157,-43812,-15620,-46106,-13338,3800,3800,44,55,16,68,133,3917,-8,6,867,1810,1884,2096,2280,2064,1834,1884,2006
140158,-43820,-15616,-46106,-13338,3800,3800,44,55,17,22,127,3914,-9,6,869,1810,1884,2096,2280,2064,1834,1884,2006
141159,-43816,-15616,-46106,-13338,3800,3800,41,54,15,33,132,3942,-9,-1,869,1809,1883,2094,2279,2064,1834,1882,2004
142160,-43808,-15640,-46106,-13338,3800,3800,39,53,15,41,108,3935,-3,5,869,1809,1883,2094,2279,2064,1834,1882,2004
143161,-43812,-15612,-46106,-13338,3800,3800,39,53,18,46,126,3961,7,-1,869,1809,1883,2094,2279,2064,1834,1882,2004
144162,-43812,-15608,-46106,-13338,3800,3800,40,56,17,48,135,3983,8,4,869,1809,1883,2094,2279,2064,1834,1882,2004
145163,-43816,-15628,-46106,-13338,3800,3800,40,57,18,24,104,3977,8,6,869,1809,1883,2094,2279,2064,1834,1882,2004
146164,-43812,-15620,-46106,-13338,3800,3800,40,56,18,24,134,3916,-2,5,868,1809,1883,2094,2279,2064,1834,1882,2004
147165,-43808,-15624,-46106,-13338,3800,3800,42,55,18,33,124,3937,-7,-1,868,1808,1883,2094,2278,2065,1834,1883,2005
148166,-43812,-15632,-46106,-13338,3800,3800,44,57,18,12,115,3979,-9,4,869,1808,1883,2094,2278,2065,1834,1883,2005
149167,-43808,-15612,-46106,-13338,3800,3800,39,58,18,6,99,3974,-5,-7,869,1808,1883,2094,2278,2065,1834,1883,2005
150168,-43820,-15632,-46106,-13338,3800,3800,35,58,19,13,104,3972,-2,-7,869,1808,1883,2094,2278,2065,1834,1883,2005
151169,-43812,-15620,-46106,-13338,3800,3800,35,55,17,22,119,3971,4,-6,869,1808,1883,2094,2278,2065,1834,1883,2005
152170,-43796,-15612,-46106,-13338,3800,3800,36,54,18,5,142,3961,9,-6,869,1810,1886,2095,2280,2068,1836,1884,2007
153171,-43820,-15608,-46106,-13338,3800,3800,37,56,20,5,125,3932,8,5,869,1810,1886,2095,2280,2068,1836,1884,2007
154172,-43824,-15612,-46106,-13338,3800,3800,37,58,20,-13,129,3938,3,3,869,1810,1886,2095,2280,2068,1836,1884,2007
155173,-43816,-15612,-46106,-13338,3800,3800,37,58,18,2,132,3974,-8,3,867,1810,1886,2095,2280,2068,1836,1884,2007
156174,-43816,-15624,-46106,-13338,3800,3800,38,59,19,-10,138,3934,-8,-7,868,1810,1886,2095,2280,2068,1836,1884,2007
157175,-43820,-15628,-46106,-13338,3800,3800,37,58,19,-24,113,3949,-9,1,868,1810,1886,2095,2280,2068,1836,1884,2007
158176,-43820,-15632,-46106,-13338,3800,3800,34,55,21,-17,127,3993,-2,-8,869,1808,1883,2094,2277,2065,1835,1883,2006
159177,-43808,-15612,-46106,-13338,3800,3800,33,56,19,-8,103,3978,6,-8,869,1808,1883,2094,2277,2065,1835,1883,2006
160178,-43812,-15616,-46106,-13338,3800,3800,33,60,20,2,114,3983,9,-2,869,1808,1883,2094,2277,2065,1835,1883,2006
161179,-43812,-15624,-46106,-13338,3800,3800,34,63,19,-17,114,3955,7,-1,869,1808,1883,2094,2277,2065,1835,1883,2006
162180,-43804,-15612,-46106,-13338,3800,3800,33,62,20,-34,119,3920,9,0,869,1808,1883,2094,2277,2065,1835,1883,2006
163181,-43820,-15612,-46106,-13338,3800,3800,28,61,19,-18,117,3942,2,-4,869,1807,1883,2093,2277,2065,1834,1882,2005
164182,-43812,-15616,-46106,-13338,3800,3800,28,59,16,-28,110,3965,-7,-4,869,1807,1883,2093,2277,2065,1834,1882,2005
165183,-43808,-15624,-46106,-13338,3800,3800,28,60,15,-54,99,3972,-10,0,869,1807,1883,2093,2277,2065,1834,1882,2005
166184,-43800,-15628,-46106,-13338,3800,3800,29,61,14,-17,101,3964,-6,-7,869,1807,1883,2093,2277,2065,1834,1882,2005
167185,-43800,-15624,-46106,-13338,3800,3800,26,62,15,-37,112,3948,5,-7,869,1807,1883,2093,2277,2065,1834,1882,2005
168186,-43808,-15620,-46106,-13338,3800,3800,27,60,14,-57,105,3916,8,2,868,1807,1883,2093,2277,2065,1834,1882,2005
169187,-43808,-15616,-46106,-13338,3800,3800,29,57,13,-27,101,3952,-7,0,869,1807,1881,2091,2275,2063,1831,1881,2003
170188,-43804,-15624,-46106,-13338,3800,3800,28,57,13,-28,109,3957,-2,6,869,1807,1881,2091,2275,2063,1831,1881,2003
171189,-43804,-15620,-46106,-13338,3800,3800,25,57,14,-43,97,3956,6,6,869,1807,1881,2091,2275,2063,1831,1881,2003
172190,-43812,-15624,-46106,-13338,3800,3800,24,58,11,-23,75,3972,3,6,867,1807,1881,2091,2275,2063,1831,1881,2003
173191,-43812,-15612,-46106,-13338,3800,3800,24,59,10,-25,97,3928,-8,-2,868,1807,1881,2091,2275,2063,1831,1881,2003
174192,-43808,-15624,-46106,-13338,3800,3800,23,57,9,-37,122,3927,-9,-7,869,1808,1883,2093,2277,2064,1833,1881,2004
175193,-43808,-15624,-46106,-13338,3800,3800,24,57,10,-32,115,3941,-8,-4,869,1808,1883,2093,2277,2064,1833,1881,2004
176194,-43812,-15628,-46106,-13338,3800,3800,26,57,11,-42,106,3951,1,6,869,1808,1883,2093,2277,2064,1833,1881,2004
177195,-43800,-15624,-46106,-13338,3800,3800,26,55,8,-17,98,3928,-1,6,869,1808,1883,2093,2277,2064,1833,1881,2004
178196,-43816,-15616,-46106,-13338,3800,3800,28,56,7,-5,116,3949,7,4,869,1808,1883,2093,2277,2064,1833,1881,2004
179199,-43812,-15616,-46106,-13338,3800,3800,27,54,8,-24,99,3915,9,-2,869,1808,1883,2093,2277,2064,1833,1881,2004
180198,-43812,-15616,-46106,-13338,3800,3800,27,52,5,-42,99,3911,8,-7,869,1808,1883,2093,2276,2062,1831,1881,2003
181199,-43804,-15616,-46106,-13338,3800,3800,29,53,4,-37,98,3950,2,-7,869,1808,1883,2093,2276,2062,1831,1881,2003
182200,-43804,-15624,-46106,-13338,3800,3800,31,55,2,-13,122,3962,-8,3,869,1808,1883,2093,2276,2062,1831,1881,2003
183201,-43816,-15628,-46106,-13338,3800,3800,31,50,5,-26,108,3919,-6,6,869,1808,1883,2093,2276,2062,1831,1881,2003
184202,-43824,-15620,-46106,-13338,3800,3800,30,49,7,-23,114,3913,8,6,869,1808,1883,2093,2276,2062,1831,1881,2003
185203,-43820,-15616,-46106,-13338,3800,3800,29,50,4,2,128,3928,-1,-7,869,1809,1883,2093,2278,2061,1832,1881,2002
186204,-43808,-15612,-46106,-13338,3800,3800,32,51,5,49,113,3934,-2,-8,869,1809,1883,2093,2278,2061,1832,1881,2002
187205,-43808,-15632,-46106,-13338,3800,3800,32,50,6,13,91,3929,-9,-3,869,1809,1883,2093,2278,2061,1832,1881,2002
188206,-43800,-15624,-46106,-13338,3800,3800,32,47,7,6,90,3937,-7,5,869,1809,1883,2093,2278,2061,1832,1881,2002
189207,-43824,-15624,-46106,-13338,3800,3800,34,46,7,6,79,3946,-4,-1,868,1809,1883,2093,2278,2061,1832,1881,2002
190208,-43808,-15624,-46106,-13338,3800,3800,36,43,4,14,108,3963,0,-7,867,1809,1883,2093,2278,2061,1832,1881,2002
191209,-43816,-15632,-46106,-13338,3800,3800,37,44,5,41,116,3939,6,-6,869,1808,1884,2092,2280,2064,1832,1881,2002
192210,-43816,-15604,-46106,-13338,3800,3800,40,49,5,47,97,3958,5,5,868,1808,1884,2092,2280,2064,1832,1881,2002
193211,-43812,-15616,-46106,-13338,3800,3800,41,48,6,59,106,3964,9,0,869,1808,1884,2092,2280,2064,1832,1881,2002
194212,-43816,-15624,-46106,-13338,3800,3800,41,44,7,30,86,3926,4,6,868,1808,1884,2092,2280,2064,1832,1881,2002
195213,-43816,-15624,-46106,-13338,3800,3800,41,46,7,28,83,3927,-4,-3,869,1808,1884,2092,2280,2064,1832,1881,2002
196214,-43816,-15624,-46106,-13338,3800,3800,43,46,6,56,105,3938,-9,-8,869,1810,1884,2094,2279,2062,1832,1881,2003
197215,-43804,-15608,-46106,-13338,3800,3800,46,45,2,48,123,3927,-6,-8,868,1810,1884,2094,2279,2062,1832,1881,2003
198216,-43808,-15620,-46106,-13338,3800,3800,46,47,4,38,87,3949,-6,-4,869,1810,1884,2094,2279,2062,1832,1881,2003
199217,-43812,-15620,-46106,-13338,3800,3800,46,47,7,46,89,3955,2,4,869,1810,1884,2094,2279,2062,1832,1881,2003
200218,-43816,-15616,-46106,-13338,3800,3800,48,48,7,43,84,3978,9,6,869,1810,1884,2094,2279,2062,1832,1881,2003
201219,-43808,-15616,-46106,-13338,3800,3800,46,44,9,60,120,3954,6,1,869,1810,1884,2094,2279,2062,1832,1881,2003
202220,-43808,-15616,-29722,3046,3800,3800,47,45,8,62,135,3952,-7,-4,869,1809,1883,2093,2278,2063,1832,1881,2003
203221,-43816,-15616,-29657,3111,3800,3800,50,48,8,67,111,3956,-5,299,868,1809,1883,2093,2278,2063,1832,1881,2003
204222,-43748,-15584,-29592,3176,3800,3800,48,57,13,87,129,3957,302,316,792,1809,1883,2093,2278,2063,1832,1881,2003
205223,-43652,-15480,-29527,3241,3800,3800,38,14,25,-66,-154,3931,343,292,797,1809,1883,2093,2278,2063,1832,1881,2003
206224,-43492,-15296,-29462,3306,3800,3800,28,-47,37,-481,82,3936,326,299,803,1809,1883,2093,2278,2063,1832,1881,2003
207225,-43288,-15104,-29397,3371,3800,3800,36,-144,52,-638,30,4145,347,329,807,1807,1871,2094,2280,2065,1833,1883,2007
208226,-43060,-14860,-29332,3436,3800,3800,39,-243,54,-475,-168,3820,357,316,813,1807,1871,2094,2280,2065,1833,1883,2007
209227,-42824,-14592,-29267,3501,3800,3800,40,-362,53,-681,-240,4180,353,321,816,1807,1871,2094,2280,2065,1833,1883,2007
210228,-42524,-14308,-29202,3566,3800,3800,37,-359,98,-380,-745,4585,344,317,820,1807,1871,2094,2280,2065,1833,1883,2007
211229,-42220,-13960,-29137,3631,3800,3800,4,-381,122,336,-1305,3867,355,332,822,1807,1871,2094,2280,2065,1833,1883,2007
212230,-41840,-13628,-29072,3696,3800,3800,-36,-289,134,-280,-918,3775,334,321,825,1807,1871,2094,2280,2065,1833,1883,2007
213231,-41492,-13248,-29007,3761,3800,3800,-53,-277,200,-411,-833,3520,333,331,829,1811,1891,2097,2273,2077,1839,1904,2043
214232,-41140,-12840,-28942,3826,3800,3800,-116,-345,207,-539,-629,4698,352,328,830,1811,1891,2097,2273,2077,1839,1904,2043
215233,-40696,-12424,-28877,3891,3800,3800,-87,-314,194,-459,63,3780,355,330,832,1811,1891,2097,2273,2077,1839,1904,2043
216234,-40284,-11980,-28812,3956,3800,3800,-69,-391,187,-61,-886,4503,370,349,833,1811,1891,2097,2273,2077,1839,1904,2043
217235,-39844,-11536,-28747,4021,3800,3800,-96,-488,123,-724,-605,4174,379,342,835,1811,1891,2097,2273,2077,1839,1904,2043
218236,-39408,-11064,-28682,4086,3800,3800,-59,-434,126,-723,-449,5680,362,360,838,1819,1897,2085,2261,2109,1859,1929,2066
219237,-38948,-10628,-28617,4151,3800,3800,-58,-469,145,-388,-651,5211,351,363,839,1819,1897,2085,2261,2109,1859,1929,2066
220238,-38460,-10156,-28552,4216,3800,3800,16,-454,133,-799,-232,5294,360,345,843,1819,1897,2085,2261,2109,1859,1929,2066
221239,-37936,-9668,-28487,4281,3800,3800,37,-309,10,-496,-87,7371,363,365,841,1819,1897,2085,2261,2109,1859,1929,2066
222240,-37448,-9144,-28422,4346,3800,3800,146,-248,-10,-418,77,6144,356,338,841,1819,1897,2085,2261,2109,1859,1929,2066
223241,-36912,-8628,-28357,4411,3800,3800,175,-298,-96,956,-502,6652,366,363,841,1819,1897,2085,2261,2109,1859,1929,2066
224242,-36392,-8128,-28292,4476,3800,3800,290,-114,-111,-1279,-8,8543,386,368,842,1826,1908,2106,2311,2124,1884,1956,2078
225243,-35836,-7676,-28227,4541,3555,3800,324,-212,-66,-654,-583,5399,363,363,842,1826,1908,2106,2311,2124,1884,1956,2078
226244,-35272,-7168,-28162,4606,2849,3800,432,-59,-29,-557,-1182,9182,358,360,842,1826,1908,2106,2311,2124,1884,1956,2078
227247,-34756,-6632,-28097,4671,2900,3800,413,-99,41,-1340,-1316,4605,232,361,843,1826,1908,2106,2311,2124,1884,1956,2078
228246,-34240,-6144,-28032,4736,2353,3800,557,75,32,-620,-6,8710,292,376,847,1826,1908,2106,2311,2124,1884,1956,2078
229247,-33700,-5668,-27967,4801,1475,3800,615,58,-117,546,1088,5707,308,326,845,1964,2051,2297,2594,2137,1938,1999,2082
230248,-33172,-5188,-27902,4866,1062,3800,649,-67,-179,-1372,-378,8303,310,358,847,1964,2051,2297,2594,2137,1938,1999,2082
231249,-32656,-4724,-27837,4931,663,3800,687,-200,-181,9,1486,6273,303,344,849,1964,2051,2297,2594,2137,1938,1999,2082
232250,-32196,-4212,-27772,4996,883,3800,683,-352,-233,-1721,-1,5974,293,324,851,1964,2051,2297,2594,2137,1938,1999,2082
233251,-31652,-3772,-27707,5061,-750,3800,697,-502,-299,-1552,449,4925,282,351,850,1964,2051,2297,2594,2137,1938,1999,2082
234252,-31192,-3372,-27642,5126,-181,3800,778,-584,-279,602,-224,7266,274,353,848,2201,2259,2519,2861,2141,1948,2013,2109
235253,-30756,-2952,-27577,5191,-332,3800,882,-755,-298,-319,-370,3851,277,342,849,2201,2259,2519,2861,2141,1948,2013,2109
236254,-30280,-2548,-27512,5256,-1333,3800,1024,-838,-335,-635,-291,8365,256,349,848,2201,2259,2519,2861,2141,1948,2013,2109
237255,-29856,-2180,-27447,5321,-1120,3800,1319,-742,-348,1402,-74,5940,247,324,847,2201,2259,2519,2861,2141,1948,2013,2109
238256,-29420,-1792,-27382,5386,-1722,3800,1612,-612,-402,3306,-228,7009,252,339,847,2201,2259,2519,2861,2141,1948,2013,2109
239257,-29044,-1440,-27317,5451,-1350,3800,1855,-655,-583,1330,316,7475,248,329,848,2201,2259,2519,2861,2141,1948,2013,2109
240258,-28636,-1080,-27252,5516,-2169,3800,2127,-565,-670,452,716,7606,229,331,838,2185,2226,2431,2654,2023,1785,1884,1985
241259,-28236,-772,-27187,5581,-2477,3800,2400,-451,-683,3000,607,6565,219,308,843,2185,2226,2431,2654,2023,1785,1884,1985
242260,-27904,-472,-27122,5646,-1953,3800,2573,-489,-717,1480,1688,7325,208,309,844,2185,2226,2431,2654,2023,1785,1884,1985
243261,-27532,-128,-27057,5711,-2827,3800,2792,-560,-886,-768,1887,9395,212,313,844,2185,2226,2431,2654,2023,1785,1884,1985
244262,-27208,152,-26992,5776,-2543,3800,2872,-908,-1001,77,2320,7197,193,312,836,2185,2226,2431,2654,2023,1785,1884,1985
245263,-26920,420,-26927,5841,-2365,3800,3051,-1116,-1001,940,3441,8319,189,319,841,2113,2188,2306,2582,1814,1614,1764,1825
246264,-26616,664,-26862,5906,-2857,3800,3151,-1235,-1065,-212,3209,6583,190,312,840,2113,2188,2306,2582,1814,1614,1764,1825
247265,-26340,924,-26797,5971,-2764,3800,3256,-1446,-1145,-971,3296,7482,172,290,841,2113,2188,2306,2582,1814,1614,1764,1825
248266,-26072,1224,-26732,6036,-2912,3452,3375,-1720,-1208,-561,3037,6351,171,307,838,2113,2188,2306,2582,1814,1614,1764,1825
249267,-25804,1456,-26667,6101,-3161,3800,3469,-1964,-1251,-204,2798,5815,156,10,840,2113,2188,2306,2582,1814,1614,1764,1825
250268,-25572,1708,-26602,6166,-2915,3622,3680,-2118,-1216,861,2927,5800,148,317,844,2113,2188,2306,2582,1814,1614,1764,1825
251269,-25336,1928,-26537,6231,-3174,3800,3813,-2275,-1175,806,2416,4119,140,-12,839,2205,2290,2419,2694,1860,1656,1817,1940
252270,-25168,2136,-26472,6296,-2450,3800,3932,-2354,-1155,-61,2354,4959,138,295,838,2205,2290,2419,2694,1860,1656,1817,1940
253271,-24964,2368,-26407,6361,-3070,3310,4052,-2338,-1139,-180,2055,4719,115,319,839,2205,2290,2419,2694,1860,1656,1817,1940
254272,-24756,2636,-26342,6426,-3296,2614,4254,-2279,-1121,386,1030,5760,116,54,839,2205,2290,2419,2694,1860,1656,1817,1940
255273,-24588,2904,-26277,6491,-2921,2367,4563,-2323,-1067,1725,1102,6096,102,122,845,2205,2290,2419,2694,1860,1656,1817,1940
256274,-24428,3112,-26212,6556,-2938,2944,4924,-2594,-988,162,905,5221,95,111,850,2150,2233,2385,2546,2014,1788,1857,2027
257275,-24284,3336,-26147,6621,-2836,2552,5226,-2719,-1183,-37,1953,6264,93,80,853,2150,2233,2385,2546,2014,1788,1857,2027
258276,-24172,3524,-26082,6686,-2494,2852,5350,-2821,-1314,1642,2556,3548,81,110,847,2150,2233,2385,2546,2014,1788,1857,2027
259277,-24044,3708,-26017,6751,-2771,2758,5297,-2927,-1360,2114,2273,3126,88,99,852,2150,2233,2385,2546,2014,1788,1857,2027
260278,-23948,3952,-25952,6816,-2410,1791,5095,-3017,-1489,-2870,2048,5429,67,105,847,2150,2233,2385,2546,2014,1788,1857,2027
261279,-23852,4208,-25887,6881,-2449,1408,5168,-3058,-1580,-2128,3626,4751,65,110,849,2150,2233,2385,2546,2014,1788,1857,2027
262280,-23740,4412,-25822,6946,-2707,1890,5265,-3268,-1501,2155,4037,3041,49,106,858,1974,2025,2232,2368,2003,1765,1831,1961
263281,-23668,4612,-25757,7011,-2216,1776,5203,-3561,-1593,2594,3298,2407,57,102,860,1974,2025,2232,2368,2003,1765,1831,1961
264282,-23592,4776,-25692,7076,-2280,2106,4961,-3878,-1790,-2652,2689,3224,55,104,856,1974,2025,2232,2368,2003,1765,1831,1961
265283,-23532,4940,-25627,7141,-2075,1986,4672,-4060,-2038,-3187,3426,3226,44,97,858,1974,2025,2232,2368,2003,1765,1831,1961
266284,-23464,5116,-25562,7206,-2180,1702,4447,-3732,-2118,879,2716,4259,30,87,855,1974,2025,2232,2368,2003,1765,1831,1961
267285,-23424,5280,-25497,7271,-1800,1732,4343,-3444,-2051,2144,2332,4398,23,91,856,1756,1816,1994,2102,2055,1823,1871,2062
268286,-23384,5448,-25432,7336,-1769,1557,4436,-3564,-1955,-613,2825,3707,33,92,857,1756,1816,1994,2102,2055,1823,1871,2062
269287,-23356,5616,-25367,7401,-1575,1431,4670,-3791,-1965,-1492,2140,4523,31,90,857,1756,1816,1994,2102,2055,1823,1871,2062
270288,-23332,5740,-25302,7466,-1476,1910,4991,-4011,-1944,-140,1444,3701,10,82,859,1756,1816,1994,2102,2055,1823,1871,2062
271289,-23312,5868,-25237,7531,-1372,1785,5288,-4221,-1795,-914,1124,3770,9,76,859,1756,1816,1994,2102,2055,1823,1871,2062
272290,-23292,5988,-25172,7596,-1317,1817,5431,-4281,-1668,-1432,1196,3451,20,78,855,1756,1816,1994,2102,2055,1823,1871,2062
273291,-23296,6112,-25107,7661,-934,1696,5454,-4227,-1526,-2130,1335,3365,0,80,857,1530,1627,1881,1974,2224,1931,1913,2103
274292,-23292,6212,-25042,7726,-961,1954,5377,-4224,-1437,-1409,1704,1722,10,66,856,1530,1627,1881,1974,2224,1931,1913,2103
275293,-23296,6344,-24977,7791,-778,1473,5261,-4217,-1417,-1369,1851,2259,5,69,856,1530,1627,1881,1974,2224,1931,1913,2103
276294,-23308,6472,-24912,7856,-584,1447,5172,-4278,-1437,-1250,2289,1357,-2,71,855,1530,1627,1881,1974,2224,1931,1913,2103
277295,-23316,6604,-24847,7921,-545,1315,5093,-4451,-1458,-1041,2734,1495,-3,80,859,1530,1627,1881,1974,2224,1931,1913,2103
278296,-23308,6716,-24782,7986,-676,1509,5016,-4574,-1522,-982,2822,1586,-8,75,859,1698,1799,2058,2214,2022,1773,1786,1906
279297,-23340,6824,-24717,8051,-58,1506,4889,-4606,-1614,-783,2668,1413,-11,57,860,1698,1799,2058,2214,2022,1773,1786,1906
280298,-23344,6956,-24652,8116,-324,1126,4707,-4560,-1689,-420,2722,2129,-11,52,858,1698,1799,2058,2214,2022,1773,1786,1906
281299,-23348,7068,-24587,8181,-241,1318,4506,-4416,-1752,-203,2549,1685,5,63,859,1698,1799,2058,2214,2022,1773,1786,1906
282300,-23360,7168,-24522,8246,-47,1425,4303,-4232,-1823,-150,2479,2273,-3,46,862,1698,1799,2058,2214,2022,1773,1786,1906
283301,-23380,7264,-24457,8311,156,1439,4094,-4102,-1872,637,2379,1841,2,58,860,1698,1799,2058,2214,2022,1773,1786,1906
284302,-23396,7344,-24392,8376,205,1620,3917,-4050,-1881,245,1644,2115,4,58,859,1883,1914,2127,2281,1879,1671,1711,1839
285303,-23412,7436,-24327,8441,303,1438,3806,-3954,-1855,-1382,1133,2495,-3,56,859,1883,1914,2127,2281,1879,1671,1711,1839
286304,-23420,7540,-24262,8506,292,1241,3741,-3903,-1784,-1788,757,2208,1,45,857,1883,1914,2127,2281,1879,1671,1711,1839
287305,-23420,7612,-24197,8571,271,1632,3749,-3775,-1696,-1192,705,3264,-7,47,858,1883,1914,2127,2281,1879,1671,1711,1839
288306,-23444,7708,-24132,8636,679,1295,3822,-3627,-1547,-471,612,2786,-1,35,859,1883,1914,2127,2281,1879,1671,1711,1839
289307,-23440,7788,-24067,8701,403,1477,3890,-3582,-1410,-665,476,2757,-6,50,856,1695,1727,1953,2065,2001,1789,1789,1943
290308,-23436,7876,-24002,8766,478,1349,3954,-3599,-1246,-1678,588,2830,11,42,857,1695,1727,1953,2065,2001,1789,1789,1943
291309,-23424,7960,-23937,8831,442,1377,4016,-3572,-1063,-1712,850,2627,5,35,857,1695,1727,1953,2065,2001,1789,1789,1943
292310,-23420,8040,-23872,8896,616,1408,4083,-3479,-885,-1237,1076,2518,2,37,856,1695,1727,1953,2065,2001,1789,1789,1943
293311,-23392,8104,-23807,8961,361,1610,4144,-3407,-749,-1239,1439,2351,3,46,857,1695,1727,1953,2065,2001,1789,1789,1943
294312,-23392,8168,-23742,9026,790,1612,4199,-3382,-662,-1486,1774,2031,6,44,856,1695,1727,1953,2065,2001,1789,1789,1943
295313,-23376,8244,-23677,9091,650,1448,4234,-3378,-600,-1302,2020,2160,24,47,856,1542,1611,1856,2004,2151,1904,1888,2001
296314,-23360,8336,-23612,9156,710,1215,4236,-3363,-544,-557,2318,1677,29,59,853,1542,1611,1856,2004,2151,1904,1888,2001
297315,-23328,8412,-23547,9221,550,1403,4193,-3360,-510,-316,2383,1339,23,54,856,1542,1611,1856,2004,2151,1904,1888,2001
298316,-23300,8512,-23482,9286,645,1060,4140,-3298,-502,-433,2221,1679,30,59,857,1542,1611,1856,2004,2151,1904,1888,2001
299317,-23260,8580,-23417,9351,526,1457,4053,-3218,-478,-57,2169,1270,29,65,857,1542,1611,1856,2004,2151,1904,1888,2001
300318,-23220,8652,-23352,9416,556,1399,3936,-3138,-427,967,1996,1262,23,62,860,1661,1721,1967,2172,2058,1812,1828,1927
301319,-23176,8756,-23287,9481,531,952,3792,-3026,-378,1274,1776,1539,35,62,857,1661,1721,1967,2172,2058,1812,1828,1927
302320,-23132,8864,-23222,9546,557,849,3628,-2849,-342,863,1527,1860,25,66,857,1661,1721,1967,2172,2058,1812,1828,1927
303321,-23092,8952,-23157,9611,637,1071,3492,-2575,-275,828,870,2012,27,64,861,1661,1721,1967,2172,2058,1812,1828,1927
304322,-23040,9052,-23092,9676,503,879,3397,-2306,-189,1105,438,1914,24,63,861,1661,1721,1967,2172,2058,1812,1828,1927
305323,-22988,9144,-23027,9741,519,946,3319,-2097,-96,616,-178,2188,23,51,859,1661,1721,1967,2172,2058,1812,1828,1927
306324,-22944,9240,-22962,9806,645,858,3246,-1992,27,99,-373,2180,26,53,861,1784,1826,2061,2210,1959,1727,1737,1864
307325,-22876,9336,-22897,9871,341,821,3161,-1946,174,-226,-299,1976,33,57,861,1784,1826,2061,2210,1959,1727,1737,1864
308326,-22824,9420,-22832,9936,557,947,3067,-1911,325,-544,-511,2022,25,62,860,1784,1826,2061,2210,1959,1727,1737,1864
309327,-22764,9516,-22767,10001,463,761,2931,-1895,478,-535,-731,1618,28,57,862,1784,1826,2061,2210,1959,1727,1737,1864
310328,-22712,9644,-22702,10066,579,284,2673,-1786,643,-1069,-54,915,41,49,862,1784,1826,2061,2210,1959,1727,1737,1864
311329,-22652,9728,-22637,10131,485,810,2341,-1485,825,-2555,-773,450,27,60,864,1712,1780,2078,2324,1844,1645,1658,1784
312330,-22604,9784,-22572,10196,656,1171,2177,-1136,866,3317,-4267,-2720,42,45,862,1712,1780,2078,2324,1844,1645,1658,1784
313331,-22552,9868,-22507,10261,621,798,1569,-1842,931,-281,-2327,-2967,29,47,859,1712,1780,2078,2324,1844,1645,1658,1784
314332,-22488,9960,-22442,10326,473,665,909,-1784,1206,-6234,-2153,122,34,50,861,1712,1780,2078,2324,1844,1645,1658,1784
315333,-22416,10028,-22377,10391,364,963,377,-1168,1303,3234,-3144,-3965,50,64,863,1712,1780,2078,2324,1844,1645,1658,1784
316334,-22348,10120,-22312,10456,410,630,-265,-965,1292,6508,-2723,-3480,31,48,861,1712,1780,2078,2324,1844,1645,1658,1784
317335,-22292,10212,-22247,10521,571,597,-887,-878,1399,-838,-2897,-3088,42,54,863,2949,2981,3328,3679,1611,1475,1511,1592
318336,-22208,10304,-22182,10586,198,564,-1522,-617,1617,-2642,-2279,-2875,44,48,863,2949,2981,3328,3679,1611,1475,1511,1592
319337,-22152,10384,-22117,10651,559,695,-2061,-509,1906,-206,-3469,-2932,34,51,865,2949,2981,3328,3679,1611,1475,1511,1592
320338,-22072,10488,-22052,10716,241,348,-2464,-183,2014,2253,-3404,-2442,31,54,862,2949,2981,3328,3679,1611,1475,1511,1592
321339,-22008,10568,-21987,10781,442,630,-2809,283,2031,2504,-2956,-94,38,44,866,2949,2981,3328,3679,1611,1475,1511,1592
322340,-21960,10668,-21922,10846,663,337,-3097,730,2048,2301,-2479,-1675,32,52,864,3106,3041,3315,3499,1658,1531,1578,1738
323341,-21888,10744,-21857,10911,354,623,-3302,893,2042,1391,-2347,-562,34,54,864,3106,3041,3315,3499,1658,1531,1578,1738
324342,-21816,10852,-21792,10976,346,171,-3504,923,2088,-55,-2243,-1202,35,54,863,3106,3041,3315,3499,1658,1531,1578,1738
325343,-21736,10992,-21727,11041,227,-320,-3688,1081,2190,-1345,-622,852,45,49,865,3106,3041,3315,3499,1658,1531,1578,1738
326344,-21672,11140,-21662,11106,429,-521,-3818,1385,2349,-940,-134,840,48,38,865,3106,3041,3315,3499,1658,1531,1578,1738
327345,-21600,11328,-21597,11171,320,-1171,-3834,1624,2322,2739,-515,74,29,43,864,3106,3041,3315,3499,1658,1531,1578,1738
328346,-21532,11504,-21532,11236,367,-1158,-3885,1545,2068,2779,-432,539,28,32,859,2155,2117,2307,2367,1995,1767,1785,1927
329347,-21464,11600,-21467,11301,363,-195,-3868,1552,1830,452,372,3069,39,29,859,2155,2117,2307,2367,1995,1767,1785,1927
330348,-21404,11636,-21402,11366,469,590,-3822,1626,1652,-1257,624,2827,36,27,866,2155,2117,2307,2367,1995,1767,1785,1927
331349,-21336,11660,-21337,11431,365,790,-3792,1548,1538,-203,1107,1278,29,29,864,2155,2117,2307,2367,1995,1767,1785,1927
332350,-21272,11684,-21272,11496,417,840,-3709,1649,1488,531,2028,4379,28,25,863,2155,2117,2307,2367,1995,1767,1785,1927
333351,-21224,11692,-21207,11561,637,1110,-3525,1965,1481,1596,2764,2475,28,29,862,1478,1495,1677,1827,2256,1988,2017,2123
334352,-21140,11660,-21142,11626,164,1728,-3355,2268,1530,2256,2884,3550,29,33,859,1478,1495,1677,1827,2256,1988,2017,2123
335353,-21068,11612,-21077,11691,306,2066,-3229,2448,1609,1439,2869,3950,47,47,855,1478,1495,1677,1827,2256,1988,2017,2123
336354,-21028,11664,-21012,11756,736,832,-3166,2458,1750,830,2445,3812,34,44,853,1478,1495,1677,1827,2256,1988,2017,2123
337355,-20944,11756,-20947,11821,163,299,-3079,2503,1975,1164,2509,4463,39,58,860,1478,1495,1677,1827,2256,1988,2017,2123
338356,-20868,11880,-20882,11886,249,-173,-2956,2704,2266,1991,2510,2983,35,62,866,1478,1495,1677,1827,2256,1988,2017,2123
339357,-20800,11972,-20817,11951,346,194,-2870,3052,2491,2786,2094,3362,43,60,866,1290,1375,1577,1776,2161,1943,1890,1934
340358,-20752,12104,-20752,12016,617,-388,-2861,3369,2628,2283,1125,2287,29,62,866,1290,1375,1577,1776,2161,1943,1890,1934
341359,-20684,12200,-20687,12081,363,24,-2877,3641,2719,1618,423,2614,46,60,864,1290,1375,1577,1776,2161,1943,1890,1934
342360,-20608,12320,-20622,12146,249,-343,-2926,3785,2762,1116,-297,1859,31,54,865,1290,1375,1577,1776,2161,1943,1890,1934
343361,-20540,12408,-20557,12211,346,29,-3053,3895,2704,868,-768,1673,46,47,865,1290,1375,1577,1776,2161,1943,1890,1934
344362,-20484,12512,-20492,12276,507,-219,-3245,3957,2564,742,-1290,1405,31,56,867,1611,1720,2032,2296,1885,1690,1668,1757
345363,-20424,12624,-20427,12341,463,-376,-3455,4003,2361,925,-1465,1030,44,47,865,1611,1720,2032,2296,1885,1690,1668,1757
346364,-20348,12768,-20362,12406,249,-872,-3687,4116,2129,1251,-1531,1116,44,47,864,1611,1720,2032,2296,1885,1690,1668,1757
347365,-20264,12816,-20297,12471,126,347,-3925,4326,1891,1648,-1458,1036,30,45,862,1611,1720,2032,2296,1885,1690,1668,1757
348366,-20212,12800,-20232,12536,542,1246,-4142,4536,1641,1515,-1175,851,32,40,866,1611,1720,2032,2296,1885,1690,1668,1757
349367,-20148,12820,-20167,12601,393,851,-4336,4663,1401,775,-478,1302,38,37,859,1611,1720,2032,2296,1885,1690,1668,1757
350368,-20076,12904,-20102,12666,285,28,-4501,4756,1242,575,35,1291,33,57,862,2170,2172,2520,2736,1854,1660,1697,1818
351369,-20004,12988,-20037,12731,276,5,-4666,4962,1178,1694,772,2062,46,46,867,2170,2172,2520,2736,1854,1660,1697,1818
352370,-19928,13072,-19972,12796,213,-18,-4780,5168,1180,2109,1211,1615,34,51,867,2170,2172,2520,2736,1854,1660,1697,1818
353371,-19848,13156,-19907,12861,144,-42,-4867,5429,1235,2107,1612,2553,35,54,867,2170,2172,2520,2736,1854,1660,1697,1818
354372,-19776,13252,-19842,12926,236,-229,-4919,5801,1343,1783,1915,2970,31,54,867,2170,2172,2520,2736,1854,1660,1697,1818
355373,-19712,13340,-19777,12991,337,-158,-4941,6129,1499,1945,2298,2689,34,48,866,1894,1905,2087,2230,2051,1835,1879,1997
356374,-19640,13428,-19712,13056,229,-187,-4908,6357,1668,1454,2350,3517,37,51,866,1894,1905,2087,2230,2051,1835,1879,1997
357375,-19572,13500,-19647,13121,275,5,-4814,6411,1833,796,2201,3171,45,35,866,1894,1905,2087,2230,2051,1835,1879,1997
358376,-19500,13572,-19582,13186,216,-4,-4693,6399,1980,786,2464,3303,27,47,866,1894,1905,2087,2230,2051,1835,1879,1997
359377,-19440,13632,-19517,13251,373,152,-4580,6263,2132,394,2453,2883,43,49,867,1894,1905,2087,2230,2051,1835,1879,1997
360378,-19368,13696,-19452,13316,214,104,-4440,6117,2280,377,2244,3264,30,43,866,1894,1905,2087,2230,2051,1835,1879,1997
361379,-19308,13732,-19387,13381,370,489,-4273,6030,2373,981,1975,3811,30,37,867,1377,1451,1627,1780,2208,1973,1934,2017
362380,-19248,13788,-19322,13446,376,249,-4123,6044,2393,1667,1794,4078,30,37,865,1377,1451,1627,1780,2208,1973,1934,2017
363381,-19176,13844,-19257,13511,218,260,-3996,6007,2360,1688,1622,3707,35,41,865,1377,1451,1627,1780,2208,1973,1934,2017
364382,-19104,13920,-19192,13576,209,-3,-3900,5985,2277,1423,1452,4009,30,41,866,1377,1451,1627,1780,2208,1973,1934,2017
365383,-19036,13980,-19127,13641,255,203,-3831,5968,2146,1614,1154,3499,46,50,867,1377,1451,1627,1780,2208,1973,1934,2017
366384,-18980,14064,-19062,13706,416,-121,-3829,5996,1981,2201,924,3170,29,36,867,1363,1458,1710,1866,2095,1803,1774,1902
367385,-18896,14172,-18997,13771,43,-473,-3915,6060,1824,2410,762,2751,34,42,866,1363,1458,1710,1866,2095,1803,1774,1902
368386,-18836,14332,-18932,13836,349,-1239,-4064,6134,1667,2386,633,2375,35,34,866,1363,1458,1710,1866,2095,1803,1774,1902
369387,-18768,14416,-18867,13901,246,-313,-4259,6241,1511,2375,425,1577,36,42,858,1363,1458,1710,1866,2095,1803,1774,1902
370388,-18692,14484,-18802,13966,132,-117,-4485,6354,1371,2402,583,1390,33,21,866,1363,1458,1710,1866,2095,1803,1774,1902
371389,-18648,14504,-18737,14031,558,538,-4781,6370,1237,1371,651,1301,43,25,867,1363,1458,1710,1866,2095,1803,1774,1902
372390,-18584,14548,-18672,14096,309,264,-5101,6382,1161,824,618,898,29,28,864,1879,1977,2298,2497,1907,1672,1736,1928
373391,-18504,14600,-18607,14161,91,180,-5409,6366,1138,982,1039,548,30,26,866,1879,1977,2298,2497,1907,1672,1736,1928
374392,-18452,14628,-18542,14226,456,525,-5707,6243,1166,562,868,-18,46,36,867,1879,1977,2298,2497,1907,1672,1736,1928
375393,-18392,14684,-18477,14291,362,185,-5939,6212,1234,219,936,1341,41,26,863,1879,1977,2298,2497,1907,1672,1736,1928
376394,-18316,14732,-18412,14356,148,306,-6019,5980,1481,-511,977,1287,39,40,865,1879,1977,2298,2497,1907,1672,1736,1928
377395,-18248,14796,-18347,14421,245,107,-5893,5265,1789,-2684,406,3048,42,36,866,2180,2238,2434,2554,2025,1811,1874,2068
378396,-18188,14844,-18282,14486,351,327,-5508,4249,2054,-5231,-120,6333,47,42,867,2180,2238,2434,2554,2025,1811,1874,2068
379397,-18116,14900,-18217,14551,192,238,-4912,3103,2297,-5035,42,7736,29,43,865,2180,2238,2434,2554,2025,1811,1874,2068
380398,-18052,14988,-18152,14616,293,-190,-4242,1999,2517,-3705,512,9911,44,32,867,2180,2238,2434,2554,2025,1811,1874,2068
381399,-18000,15064,-18087,14681,459,-53,-3639,1161,2697,-2496,1205,10356,30,43,866,2180,2238,2434,2554,2025,1811,1874,2068
382400,-17916,15140,-18022,14746,36,-67,-3164,572,2849,-475,2162,10778,40,38,866,2180,2238,2434,2554,2025,1811,1874,2068
383401,-17848,15216,-17957,14811,232,-81,-2821,194,2951,2376,3288,10730,33,49,867,1742,1887,2006,2103,2058,1751,1941,2145
384402,-17796,15296,-17892,14876,448,-149,-2588,-5,2980,4061,4003,10994,37,42,867,1742,1887,2006,2103,2058,1751,1941,2145
385403,-17708,15372,-17827,14941,-30,-113,-2469,-62,2905,5002,4391,10514,37,37,866,1742,1887,2006,2103,2058,1751,1941,2145
386404,-17576,15456,-17762,15006,-662,-236,-2433,-74,2752,5277,4533,9804,34,37,867,1742,1887,2006,2103,2058,1751,1941,2145
387405,-17484,15540,-17697,15071,-195,-259,-2458,-146,2553,4657,4359,7914,46,48,867,1742,1887,2006,2103,2058,1751,1941,2145
388406,-17420,15616,-17632,15136,157,-173,-2525,-412,2360,3424,3777,6482,32,35,859,2292,2522,2430,2648,1968,1662,2020,2243
389407,-17344,15684,-17567,15201,-7,-77,-2591,-886,2217,1749,2737,5369,45,51,866,2292,2522,2430,2648,1968,1662,2020,2243
390408,-17292,15768,-17502,15266,309,-300,-2589,-1454,2055,176,1977,4910,38,39,867,2292,2522,2430,2648,1968,1662,2020,2243
391409,-17232,15860,-17437,15331,215,-433,-2504,-2019,1920,-1146,646,5531,35,35,866,2292,2522,2430,2648,1968,1662,2020,2243
392410,-17156,15940,-17372,15396,2,-302,-2393,-2547,1850,-2109,-418,5607,38,36,865,2292,2522,2430,2648,1968,1662,2020,2243
393411,-17080,16012,-17307,15461,-13,-211,-2256,-3030,1859,-2564,-1520,6484,51,36,866,2292,2522,2430,2648,1968,1662,2020,2243
394412,-16992,16100,-17242,15526,-191,-439,-2060,-3383,1917,-2920,-2541,7611,48,43,867,3206,3356,3236,3454,2107,1841,2047,2282
395413,-16924,16152,-17177,15591,56,27,-1793,-3693,2020,-3406,-3249,8188,36,31,857,3206,3356,3236,3454,2107,1841,2047,2282
396414,-16852,16220,-17112,15656,-3,-177,-1532,-3982,2154,-3814,-3867,8891,40,40,867,3206,3356,3236,3454,2107,1841,2047,2282
397415,-16784,16304,-17047,15721,43,-400,-1298,-4212,2327,-3705,-3940,9076,38,43,867,3206,3356,3236,3454,2107,1841,2047,2282
398416,-16724,16372,-16982,15786,150,-205,-1071,-4323,2515,-3078,-3564,9154,50,29,866,3206,3356,3236,3454,2107,1841,2047,2282
399417,-16640,16428,-16917,15851,-174,-44,-908,-4294,2673,-2107,-2739,9367,37,36,867,2679,2752,2890,3091,2112,1930,1957,2027
400418,-16576,16492,-16852,15916,78,-143,-815,-4189,2768,-782,-1547,9046,48,26,860,2679,2752,2890,3091,2112,1930,1957,2027
401419,-16504,16560,-16787,15981,-31,-196,-767,-4125,2804,-97,-487,8490,49,39,867,2679,2752,2890,3091,2112,1930,1957,2027
402420,-16416,16612,-16722,16046,-259,19,-726,-4064,2779,661,636,8517,41,25,867,2679,2752,2890,3091,2112,1930,1957,2027
403421,-16356,16652,-16657,16111,96,199,-678,-3890,2686,1340,1402,8372,37,29,868,2679,2752,2890,3091,2112,1930,1957,2027
404423,-16284,16664,-16592,16176,-62,614,-635,-3528,2538,2456,1924,9277,51,23,867,2679,2752,2890,3091,2112,1930,1957,2027
405423,-16208,16656,-16527,16241,-126,953,-579,-3002,2359,3756,2050,9891,39,26,865,1994,1973,2178,2502,2071,1951,1950,1899
406424,-16120,16668,-16462,16306,-304,768,-458,-2384,2176,4707,1706,10605,51,32,858,1994,1973,2178,2502,2071,1951,1950,1899
407425,-16032,16740,-16397,16371,-332,8,-264,-1651,1968,5297,1726,11228,48,32,864,1994,1973,2178,2502,2071,1951,1950,1899
408426,-15956,16796,-16332,16436,-195,219,-77,-1029,1756,4335,1542,10085,38,40,867,1994,1973,2178,2502,2071,1951,1950,1899
409427,-15888,16860,-16267,16501,-99,120,75,-737,1567,1980,1558,8732,50,32,859,1994,1973,2178,2502,2071,1951,1950,1899
410428,-15808,16932,-16202,16566,-268,12,167,-787,1408,-635,1031,7307,45,51,864,1698,1635,1895,2332,2206,2101,2026,1977
411429,-15752,16988,-16137,16631,43,223,221,-915,1299,-1450,263,6636,54,47,868,1698,1635,1895,2332,2206,2101,2026,1977
412430,-15656,17072,-16072,16696,-495,-150,245,-1020,1251,-1561,-352,4980,51,45,867,1698,1635,1895,2332,2206,2101,2026,1977
413431,-15600,17144,-16007,16761,16,-9,221,-1068,1224,-1948,-1119,4390,43,41,867,1698,1635,1895,2332,2206,2101,2026,1977
414432,-15528,17204,-15942,16826,-193,146,188,-1009,1215,-1653,-1876,3796,44,35,868,1698,1635,1895,2332,2206,2101,2026,1977
415433,-15448,17264,-15877,16891,-311,152,183,-826,1254,-1209,-2661,3501,36,34,859,1698,1635,1895,2332,2206,2101,2026,1977
416434,-15384,17328,-15812,16956,-110,103,211,-507,1313,-794,-3330,3236,49,40,867,1835,1868,2278,2668,2282,2106,2018,2124
417435,-15308,17388,-15747,17021,-274,160,247,-54,1377,-877,-3586,3374,35,40,864,1835,1868,2278,2668,2282,2106,2018,2124
418436,-15216,17460,-15682,17086,-507,1,236,465,1428,-70,-3208,3353,42,30,868,1835,1868,2278,2668,2282,2106,2018,2124
419437,-15152,17528,-15617,17151,-156,47,184,987,1491,924,-3118,2929,41,36,868,1835,1868,2278,2668,2282,2106,2018,2124
420438,-15076,17568,-15552,17216,-320,428,74,1400,1600,970,-2749,2559,40,35,868,1835,1868,2278,2668,2282,2106,2018,2124
421439,-15004,17616,-15487,17281,-278,348,-54,1812,1649,665,-2101,3124,33,31,866,2047,2188,2440,2566,2038,1783,1826,1958
422440,-14916,17668,-15422,17346,-507,313,-202,2205,1642,1239,-1343,3067,46,39,867,2047,2188,2440,2566,2038,1783,1826,1958
423441,-14832,17744,-15357,17411,-480,0,-339,2523,1597,1829,-736,3308,50,32,867,2047,2188,2440,2566,2038,1783,1826,1958
424442,-14760,17808,-15292,17476,-339,151,-477,2711,1518,1324,-40,3227,37,46,868,2047,2188,2440,2566,2038,1783,1826,1958
425443,-14672,17880,-15227,17541,-567,43,-594,2729,1386,733,540,3305,36,36,867,2047,2188,2440,2566,2038,1783,1826,1958
426444,-14616,17948,-15162,17606,-156,89,-682,2658,1230,372,834,3241,35,29,868,2047,2188,2440,2566,2038,1783,1826,1958
427445,-14524,18004,-15097,17671,-640,250,-747,2503,1059,717,1088,3025,34,29,866,1830,1861,1961,2081,1843,1605,1707,1789
428446,-14444,18072,-15032,17736,-508,96,-778,2251,899,571,1121,2974,42,31,867,1830,1861,1961,2081,1843,1605,1707,1789
429447,-14376,18152,-14967,17801,-362,-73,-730,1985,746,178,967,3365,33,42,868,1830,1861,1961,2081,1843,1605,1707,1789
430448,-14308,18200,-14902,17866,-366,348,-619,1747,630,458,871,3387,33,36,861,1830,1861,1961,2081,1843,1605,1707,1789
431449,-14220,18260,-14837,17931,-645,204,-463,1554,542,769,548,3418,50,25,867,1830,1861,1961,2081,1843,1605,1707,1789
432450,-14176,18320,-14772,17996,-69,210,-291,1352,495,741,241,2799,32,25,868,1486,1517,1665,1837,1956,1737,1802,1921
433451,-14104,18376,-14707,18061,-428,271,-102,1155,493,493,-147,2762,31,33,866,1486,1517,1665,1837,1956,1737,1802,1921
434452,-14032,18412,-14642,18126,-436,556,71,963,555,574,-508,1967,46,28,861,1486,1517,1665,1837,1956,1737,1802,1921
435453,-13980,18468,-14577,18191,-170,317,227,833,660,884,-736,1799,29,32,866,1486,1517,1665,1837,1956,1737,1802,1921
436454,-13896,18540,-14512,18256,-594,109,337,741,802,1042,-1078,1227,28,31,867,1486,1517,1665,1837,1956,1737,1802,1921
437455,-13836,18580,-14447,18321,-288,538,403,689,966,1063,-1323,800,28,38,868,1486,1517,1665,1837,1956,1737,1802,1921
438456,-13764,18632,-14382,18386,-447,404,409,618,1123,747,-1332,235,41,40,864,1569,1681,1909,2116,2058,1848,1892,2020
439457,-13700,18696,-14317,18451,-346,255,355,516,1263,240,-1479,-383,30,41,867,1569,1681,1909,2116,2058,1848,1892,2020
440458,-13640,18760,-14252,18516,-291,257,255,407,1363,21,-1512,-556,43,31,867,1569,1681,1909,2116,2058,1848,1892,2020
441459,-13580,18816,-14187,18581,-284,368,125,271,1423,-8,-1421,-919,30,37,867,1569,1681,1909,2116,2058,1848,1892,2020
442460,-13524,18876,-14122,18646,-223,324,-17,109,1432,-446,-1440,-876,37,33,864,1569,1681,1909,2116,2058,1848,1892,2020
443461,-13476,18924,-14057,18711,-103,494,-162,-37,1398,-654,-1355,-372,26,29,868,1993,2133,2345,2552,1924,1698,1776,1885
444462,-13436,19000,-13992,18776,27,131,-291,-153,1319,-478,-1347,200,34,41,862,1993,2133,2345,2552,1924,1698,1776,1885
445463,-13372,19076,-13927,18841,-272,118,-417,-220,1196,-352,-1275,905,25,29,868,1993,2133,2345,2552,1924,1698,1776,1885
446464,-13324,19132,-13862,18906,-51,379,-539,-274,1034,-323,-1056,1349,27,40,865,1993,2133,2345,2552,1924,1698,1776,1885
447465,-13292,19188,-13797,18971,189,390,-599,-349,849,-418,-909,1996,22,42,867,1993,2133,2345,2552,1924,1698,1776,1885
448466,-13240,19260,-13732,19036,-45,180,-621,-472,660,-516,-785,2567,36,36,866,1993,2133,2345,2552,1924,1698,1776,1885
449467,-13208,19344,-13667,19101,244,7,-629,-594,479,-322,-578,3219,24,36,868,1972,2032,2130,2225,1826,1576,1686,1811
450468,-13164,19420,-13602,19166,120,93,-637,-691,331,126,-564,3634,27,34,867,1972,2032,2130,2225,1826,1576,1686,1811
451469,-13120,19484,-13338,19430,388,488,-607,-759,231,548,-434,3898,24,35,868,1972,2032,2130,2225,1826,1576,1686,1811
452471,-13084,19548,-13273,19495,524,489,-545,-784,184,471,-244,4351,20,36,865,1972,2032,2130,2225,1826,1576,1686,1811
453471,-13040,19604,-13208,19560,449,600,-459,-764,177,577,-247,4423,24,30,864,1972,2032,2130,2225,1826,1576,1686,1811
454472,-12996,19672,-13143,19625,475,446,-338,-699,220,903,-378,4857,38,29,864,1578,1642,1763,1897,1940,1712,1814,1956
455473,-12948,19760,-13078,19690,446,168,-184,-615,303,967,-579,4732,23,45,865,1578,1642,1763,1897,1940,1712,1814,1956
456474,-12896,19808,-13013,19755,412,689,-11,-522,408,952,-635,4837,37,32,866,1578,1642,1763,1897,1940,1712,1814,1956
457475,-12844,19880,-12948,19820,428,380,154,-483,552,812,-817,4366,42,40,864,1578,1642,1763,1897,1940,1712,1814,1956
458476,-12800,19940,-12883,19885,553,536,302,-468,693,669,-815,4109,29,42,865,1578,1642,1763,1897,1940,1712,1814,1956
459477,-12724,20012,-12818,19950,140,378,404,-492,835,321,-853,3591,27,42,864,1552,1656,1864,2116,2168,1992,2024,2088
460478,-12656,20084,-12753,20015,236,369,460,-548,959,33,-968,2806,46,49,866,1552,1656,1864,2116,2168,1992,2024,2088
461479,-12608,20148,-12688,20080,507,470,476,-613,1040,-359,-962,2439,31,38,866,1552,1656,1864,2116,2168,1992,2024,2088
462480,-12532,20212,-12623,20145,142,472,448,-688,1076,-523,-943,2140,31,43,864,1552,1656,1864,2116,2168,1992,2024,2088
463481,-12484,20288,-12558,20210,513,308,405,-782,1074,-566,-1117,2030,37,49,866,1552,1656,1864,2116,2168,1992,2024,2088
464482,-12428,20360,-12493,20275,424,350,360,-848,1030,-629,-1284,2434,25,42,865,1552,1656,1864,2116,2168,1992,2024,2088
465483,-12376,20440,-12428,20340,490,231,302,-866,941,-389,-1475,2716,37,49,865,1967,2036,2326,2697,2140,1948,1950,1988
466484,-12320,20500,-12363,20405,451,488,253,-804,842,209,-1666,3405,33,42,866,1967,2036,2326,2697,2140,1948,1950,1988
467485,-12256,20572,-12298,20470,352,329,211,-650,717,600,-1779,4156,45,36,864,1967,2036,2326,2697,2140,1948,1950,1988
468486,-12196,20656,-12233,20535,408,156,181,-411,585,803,-1806,4957,42,46,866,1967,2036,2326,2697,2140,1948,1950,1988
469487,-12164,20728,-12168,20600,799,297,147,-141,435,1011,-1819,5425,37,49,866,1967,2036,2326,2697,2140,1948,1950,1988
470488,-12092,20812,-12103,20665,290,124,131,147,287,804,-1910,6026,27,43,864,2191,2185,2417,2665,1932,1715,1775,1862
471489,-12036,20896,-12038,20730,501,101,110,404,171,693,-1911,6234,41,50,867,2191,2185,2417,2665,1932,1715,1775,1862
472490,-11972,20964,-11973,20795,402,296,117,629,103,619,-1759,6903,40,47,866,2191,2185,2417,2665,1932,1715,1775,1862
473491,-11904,21056,-11908,20860,349,-37,132,811,90,506,-1593,7013,37,33,866,2191,2185,2417,2665,1932,1715,1775,1862
474492,-11848,21128,-11843,20925,510,205,163,985,107,352,-1496,7547,44,44,867,2191,2185,2417,2665,1932,1715,1775,1862
475493,-11800,21200,-11778,20990,630,196,217,1154,161,266,-1320,7667,42,41,866,2191,2185,2417,2665,1932,1715,1775,1862
476494,-11736,21268,-11713,21055,432,242,296,1291,255,262,-1080,7622,42,33,865,1914,1956,2116,2326,1933,1749,1840,1928
477495,-11672,21336,-11648,21120,433,239,387,1366,366,83,-839,7299,27,32,865,1914,1956,2116,2326,1933,1749,1840,1928
478496,-11616,21400,-11583,21185,544,290,488,1352,469,-331,-626,6677,28,27,865,1914,1956,2116,2326,1933,1749,1840,1928
479497,-11568,21436,-11518,21250,665,675,596,1284,559,-380,-487,6116,39,25,865,1914,1956,2116,2326,1933,1749,1840,1928
480498,-11500,21484,-11453,21315,411,546,695,1201,643,29,-397,5375,25,37,862,1914,1956,2116,2326,1933,1749,1840,1928
481499,-11468,21524,-11388,21380,901,677,784,1132,711,480,-349,4873,27,27,865,1773,1865,2057,2347,2210,2025,2098,2165
482500,-11388,21588,-11323,21445,283,378,873,1088,751,744,-348,4516,27,25,861,1773,1865,2057,2347,2210,2025,2098,2165
483501,-11328,21640,-11258,21510,539,544,969,1021,762,895,-413,4161,47,30,866,1773,1865,2057,2347,2210,2025,2098,2165
484502,-11292,21692,-11193,21575,874,560,1072,943,743,1030,-512,3941,28,36,864,1773,1865,2057,2347,2210,2025,2098,2165
485503,-11216,21752,-11128,21640,361,466,1178,850,693,1275,-632,3737,45,38,861,1773,1865,2057,2347,2210,2025,2098,2165
486504,-11148,21796,-11063,21705,457,690,1267,768,621,1388,-792,3718,44,31,865,1773,1865,2057,2347,2210,2025,2098,2165
487505,-11084,21864,-10998,21770,509,387,1321,706,536,1544,-1072,3662,37,27,864,1938,2014,2243,2521,2291,2028,2058,2149
488506,-11008,21924,-10933,21835,346,493,1352,638,448,1562,-1310,3618,30,42,865,1938,2014,2243,2521,2291,2028,2058,2149
489507,-10956,21992,-10868,21900,662,389,1351,591,367,1470,-1547,3905,45,40,865,1938,2014,2243,2521,2291,2028,2058,2149
490508,-10876,22032,-10803,21965,294,770,1322,570,284,1402,-1724,4113,45,33,864,1938,2014,2243,2521,2291,2028,2058,2149
491509,-10816,22076,-10738,22030,550,745,1266,557,216,1253,-1880,4357,39,35,864,1938,2014,2243,2521,2291,2028,2058,2149
492510,-10752,22148,-10673,22095,501,387,1198,529,153,832,-1886,4747,32,33,862,2036,2084,2280,2456,1968,1708,1780,1909
493511,-10676,22204,-10608,22160,338,598,1117,478,122,224,-2050,4655,34,34,865,2036,2084,2280,2456,1968,1708,1780,1909
494512,-10612,22276,-10543,22225,489,389,1032,422,107,87,-2016,4882,28,29,864,2036,2084,2280,2456,1968,1708,1780,1909
495513,-10552,22340,-10478,22290,545,490,952,370,125,-120,-1966,4998,38,29,864,2036,2084,2280,2456,1968,1708,1780,1909
496514,-10496,22404,-10413,22355,606,492,866,307,164,-380,-1821,5115,42,29,864,2036,2084,2280,2456,1968,1708,1780,1909
497515,-10432,22472,-10348,22420,507,438,801,273,229,-459,-1543,5292,44,32,864,2036,2084,2280,2456,1968,1708,1780,1909
498516,-10364,22544,-10283,22485,453,379,745,233,318,-469,-1108,5236,38,40,864,1871,1962,2093,2222,1872,1654,1762,1907
499517,-10296,22616,-10218,22550,450,371,715,202,388,-524,-889,4966,29,29,865,1871,1962,2093,2222,1872,1654,1762,1907
500518,-10232,22676,-10153,22615,501,527,695,133,445,-551,-658,4625,37,41,865,1871,1962,2093,2222,1872,1654,1762,1907
501519,-10160,22724,-10088,22680,392,698,692,36,490,-492,-343,4248,35,30,864,1871,1962,2093,2222,1872,1654,1762,1907
502520,-10116,22788,-10023,22745,768,499,714,-70,517,-302,-159,3904,29,34,864,1871,1962,2093,2222,1872,1654,1762,1907
503521,-10028,22844,-9958,22810,190,610,764,-174,528,79,33,3721,38,42,863,1720,1837,1986,2154,2166,1932,2022,2168
504522,-9976,22916,-9893,22875,656,401,832,-257,531,534,221,3427,42,36,865,1720,1837,1986,2154,2166,1932,2022,2168
505523,-9920,22980,-9828,22940,617,503,910,-310,514,792,305,3310,25,33,864,1720,1837,1986,2154,2166,1932,2022,2168
506524,-9848,23052,-9763,23005,408,394,979,-330,473,1116,273,3141,33,35,864,1720,1837,1986,2154,2166,1932,2022,2168
507525,-9796,23132,-9698,23070,674,276,1065,-361,414,1407,194,2803,35,47,865,1720,1837,1986,2154,2166,1932,2022,2168
508526,-9744,23200,-9633,23135,690,422,1129,-422,353,1173,123,2632,32,33,864,1720,1837,1986,2154,2166,1932,2022,2168
509527,-9692,23260,-9568,23200,706,528,1189,-492,289,917,26,2699,30,43,864,1752,1832,2060,2272,2364,2090,2092,2198
510528,-9624,23324,-9503,23265,502,479,1216,-557,237,999,-106,2765,37,45,863,1752,1832,2060,2272,2364,2090,2092,2198
511529,-9556,23380,-9438,23330,499,590,1210,-620,192,955,-301,2852,32,46,864,1752,1832,2060,2272,2364,2090,2092,2198
512530,-9508,23468,-9373,23395,769,162,1177,-657,165,595,-505,3184,32,32,863,1752,1832,2060,2272,2364,2090,2092,2198
513531,-9456,23540,-9308,23460,735,354,1117,-657,153,493,-679,3335,30,40,864,1752,1832,2060,2272,2364,2090,2092,2198
514532,-9376,23608,-9243,23525,367,400,1029,-646,155,345,-845,3511,49,50,864,1833,1878,2132,2343,2059,1823,1820,1912
515533,-9316,23664,-9178,23590,623,561,932,-617,161,37,-845,3686,33,39,865,1833,1878,2132,2343,2059,1823,1820,1912
516534,-9256,23752,-9113,23655,629,133,819,-583,187,-288,-924,3837,43,31,863,1833,1878,2132,2343,2059,1823,1820,1912
517535,-9188,23812,-9048,23720,526,489,708,-532,223,-427,-942,4262,38,48,865,1833,1878,2132,2343,2059,1823,1820,1912
518536,-9132,23884,-8983,23785,687,331,590,-444,277,-260,-929,4415,37,35,864,1833,1878,2132,2343,2059,1823,1820,1912
519537,-9076,23952,-8918,23850,698,377,482,-350,333,-291,-761,4503,32,40,864,1833,1878,2132,2343,2059,1823,1820,1912
520538,-9020,24012,-8853,23915,709,483,383,-226,375,-520,-531,4585,32,47,864,1808,1872,2083,2257,1862,1668,1720,1837
521539,-8952,24068,-8788,23980,556,543,302,-111,415,-351,-356,4579,36,45,863,1808,1872,2083,2257,1862,1668,1720,1837
522540,-8884,24156,-8723,24045,552,115,252,47,438,-138,-89,4583,30,44,864,1808,1872,2083,2257,1862,1668,1720,1837
523541,-8832,24220,-8658,24110,768,416,237,163,447,-50,230,4408,43,43,865,1808,1872,2083,2257,1862,1668,1720,1837
524542,-8772,24284,-8593,24175,674,417,237,262,438,-131,482,4166,28,42,863,1808,1872,2083,2257,1862,1668,1720,1837
525543,-8708,24352,-8528,24240,625,364,254,319,405,-146,754,3815,45,31,864,1742,1829,2025,2196,2066,1851,1913,2050
526544,-8672,24412,-8463,24305,1011,470,286,355,366,2,1015,3718,31,30,864,1742,1829,2025,2196,2066,1851,1913,2050
527545,-8600,24464,-8398,24370,552,586,331,401,321,384,1080,3474,27,36,861,1742,1829,2025,2196,2066,1851,1913,2050
528546,-8552,24512,-8333,24435,873,657,387,453,270,615,1161,3288,41,27,863,1742,1829,2025,2196,2066,1851,1913,2050
529547,-8476,24564,-8268,24500,509,622,447,487,214,654,1266,3041,27,33,860,1742,1829,2025,2196,2066,1851,1913,2050
530548,-8424,24632,-8203,24565,825,419,518,499,156,653,1197,2910,44,27,863,1742,1829,2025,2196,2066,1851,1913,2050
531549,-8356,24680,-8138,24630,622,689,583,490,104,833,988,2909,34,33,862,1752,1824,2064,2277,2299,2048,2050,2160
532550,-8292,24728,-8073,24695,674,710,640,469,61,863,964,2812,43,40,862,1752,1824,2064,2277,2299,2048,2050,2160
533551,-8252,24792,-8008,24760,1004,511,684,464,36,694,813,3041,45,24,862,1752,1824,2064,2277,2299,2048,2050,2160
534552,-8180,24840,-7943,24825,596,732,703,481,21,955,667,3089,43,29,861,1752,1824,2064,2277,2299,2048,2050,2160
535553,-8128,24908,-7878,24890,862,479,704,491,29,907,464,3246,47,42,862,1752,1824,2064,2277,2299,2048,2050,2160
536554,-8068,24972,-7813,24955,768,530,684,514,58,698,345,3509,33,42,861,1805,1859,2121,2339,2117,1888,1871,1955
537555,-8016,25008,-7748,25020,884,915,661,526,89,367,242,3601,41,35,862,1805,1859,2121,2339,2117,1888,1871,1955
538556,-7948,25076,-7683,25085,680,511,623,551,117,237,111,3849,42,43,859,1805,1859,2121,2339,2117,1888,1871,1955
539557,-7904,25156,-7618,25150,1006,343,581,554,153,61,-11,3903,30,33,863,1805,1859,2121,2339,2117,1888,1871,1955
540558,-7840,25208,-7553,25215,757,709,525,545,191,-32,-12,4174,27,45,862,1805,1859,2121,2339,2117,1888,1871,1955
541559,-7772,25288,-7488,25280,703,341,473,551,219,-105,-16,4290,46,41,861,1805,1859,2121,2339,2117,1888,1871,1955
542560,-7720,25360,-7423,25345,919,432,406,574,240,-100,90,4510,39,35,864,1816,1886,2112,2290,1879,1677,1717,1825
543561,-7656,25408,-7358,25410,771,753,348,601,244,-86,150,4527,38,44,861,1816,1886,2112,2290,1879,1677,1717,1825
544562,-7604,25464,-7293,25475,937,664,299,644,233,0,382,4580,38,36,861,1816,1886,2112,2290,1879,1677,1717,1825
545563,-7548,25540,-7228,25540,898,401,261,672,214,-63,647,4541,35,42,860,1816,1886,2112,2290,1879,1677,1717,1825
546564,-7492,25620,-7163,25605,909,332,229,693,168,-60,725,4278,45,34,860,1816,1886,2112,2290,1879,1677,1717,1825
547565,-7432,25656,-7098,25670,865,918,217,686,107,-46,894,4125,31,29,862,1821,1907,2101,2263,1952,1738,1825,1980
548566,-7364,25732,-7033,25735,762,404,218,658,57,-143,1077,3743,46,40,859,1821,1907,2101,2263,1952,1738,1825,1980
549567,-7312,25796,-6968,25800,977,555,243,635,11,113,1207,3799,33,28,863,1821,1907,2101,2263,1952,1738,1825,1980
550568,-7252,25856,-6903,25865,884,611,270,623,-33,346,1235,3472,44,30,860,1821,1907,2101,2263,1952,1738,1825,1980
551569,-7196,25880,-6838,25930,946,1112,318,619,-73,397,1378,3637,39,30,861,1821,1907,2101,2263,1952,1738,1825,1980
552570,-7136,25960,-6773,25995,902,393,375,615,-113,489,1477,3394,31,28,857,1821,1907,2101,2263,1952,1738,1825,1980
553571,-7076,25988,-6708,26060,908,1088,457,588,-132,264,1377,3247,34,28,862,1836,1922,2127,2308,2204,1960,2020,2178
554572,-7016,26060,-6643,26125,914,530,543,544,-148,392,1370,3313,37,28,857,1836,1922,2127,2308,2204,1960,2020,2178
555573,-6960,26116,-6578,26190,975,741,634,483,-157,350,1237,3221,42,40,861,1836,1922,2127,2308,2204,1960,2020,2178
556574,-6892,26176,-6513,26255,821,697,704,410,-140,304,1120,3316,33,39,859,1836,1922,2127,2308,2204,1960,2020,2178
557575,-6836,26216,-6448,26320,982,977,764,343,-118,275,1025,3493,36,40,861,1836,1922,2127,2308,2204,1960,2020,2178
558576,-6764,26264,-6383,26385,775,898,810,273,-81,347,1031,3678,32,35,857,1835,1910,2137,2334,2182,1945,1948,2047
559577,-6700,26332,-6318,26450,876,645,838,220,-43,264,927,3890,43,36,860,1835,1910,2137,2334,2182,1945,1948,2047
560578,-6656,26372,-6253,26515,1151,1025,837,163,-12,23,915,3969,34,27,860,1835,1910,2137,2334,2182,1945,1948,2047
561579,-6592,26424,-6188,26580,903,891,833,107,7,-32,691,4200,46,36,856,1835,1910,2137,2334,2182,1945,1948,2047
562580,-6532,26484,-6123,26645,959,797,806,41,24,14,555,4267,47,40,859,1835,1910,2137,2334,2182,1945,1948,2047
563581,-6476,26556,-6058,26710,1020,638,773,15,26,95,581,4517,28,44,858,1835,1910,2137,2334,2182,1945,1948,2047
564582,-6432,26612,-5993,26775,1195,849,723,32,22,131,385,4548,44,45,859,1835,1900,2127,2319,1965,1751,1775,1872
565583,-6380,26672,-5928,26840,1112,807,686,56,5,-11,492,4752,43,34,857,1835,1900,2127,2319,1965,1751,1775,1872
566584,-6312,26740,-5863,26905,909,703,650,78,-23,-254,483,4821,36,45,858,1835,1900,2127,2319,1965,1751,1775,1872
567585,-6264,26812,-5798,26970,1179,644,617,99,-40,-206,448,4842,45,40,860,1835,1900,2127,2319,1965,1751,1775,1872
568586,-6200,26880,-5733,27035,981,691,586,112,-39,-64,391,4615,47,44,858,1835,1900,2127,2319,1965,1751,1775,1872
569587,-6152,26940,-5668,27100,1201,797,576,131,-43,-190,479,4615,44,40,859,1850,1915,2136,2311,1935,1732,1796,1933
570588,-6100,27032,-5603,27165,1167,364,562,138,-38,-400,779,4380,29,49,857,1850,1915,2136,2311,1935,1732,1796,1933
571589,-6048,27108,-5538,27230,1184,550,551,140,-24,-464,950,4254,33,41,860,1850,1915,2136,2311,1935,1732,1796,1933
572590,-5972,27196,-5473,27295,871,372,524,149,-1,-244,1010,4085,47,39,859,1850,1915,2136,2311,1935,1732,1796,1933
573591,-5920,27280,-5408,27360,1187,399,496,162,25,87,1138,3957,35,42,862,1850,1915,2136,2311,1935,1732,1796,1933
574592,-5876,27336,-5343,27425,1312,760,502,192,41,-102,1093,3937,30,47,860,1850,1915,2136,2311,1935,1732,1796,1933
575593,-5816,27420,-5278,27490,1118,387,532,212,38,-158,1100,3540,48,35,856,1865,1941,2162,2351,2135,1910,1966,2123
576594,-5736,27492,-5213,27555,851,528,587,260,31,168,1129,3811,50,40,860,1865,1941,2162,2351,2135,1910,1966,2123
577595,-5692,27560,-5148,27620,1327,575,651,297,33,207,1241,3708,32,48,861,1865,1941,2162,2351,2135,1910,1966,2123
578596,-5632,27624,-5083,27685,1133,626,723,343,41,139,1167,3717,34,47,858,1865,1941,2162,2351,2135,1910,1966,2123
579599,-5560,27700,-5018,27750,974,463,806,365,61,195,1074,3714,30,35,859,1865,1941,2162,2351,2135,1910,1966,2123
580598,-5512,27772,-4953,27815,1295,504,884,383,90,186,1107,3718,30,35,860,1839,1915,2145,2331,2247,2002,2001,2111
581599,-5440,27836,-4888,27880,987,605,950,381,125,-4,1144,3744,44,43,858,1839,1915,2145,2331,2247,2002,2001,2111
582600,-5388,27904,-4823,27945,1253,552,998,368,165,-44,1051,3816,34,42,860,1839,1915,2145,2331,2247,2002,2001,2111
583601,-5324,27968,-4758,28010,1104,603,1026,339,191,-108,935,3943,33,43,858,1839,1915,2145,2331,2247,2002,2001,2111
584602,-5276,28024,-4693,28075,1325,714,1034,287,214,-270,982,4037,37,29,859,1839,1915,2145,2331,2247,2002,2001,2111
585603,-5232,28088,-4628,28140,1402,615,1001,214,221,-213,1112,4189,29,29,856,1839,1915,2145,2331,2247,2002,2001,2111
586604,-5160,28124,-4563,28205,1043,1000,949,145,225,-211,1059,4396,41,40,856,1811,1867,2103,2306,2047,1822,1829,1914
587605,-5112,28208,-4498,28270,1364,377,883,104,241,-448,640,4654,33,40,857,1811,1867,2103,2306,2047,1822,1829,1914
588606,-5048,28268,-4433,28335,1165,683,833,138,236,161,554,5074,46,40,858,1811,1867,2103,2306,2047,1822,1829,1914
589607,-4988,28316,-4368,28400,1221,854,773,238,264,1599,226,5432,33,42,858,1811,1867,2103,2306,2047,1822,1829,1914
590608,-4928,28372,-4303,28465,1228,765,707,291,309,495,651,4562,32,44,856,1811,1867,2103,2306,2047,1822,1829,1914
591609,-4876,28456,-4238,28530,1344,392,667,374,311,-517,636,5383,39,38,857,1825,1878,2112,2298,1941,1738,1786,1919
592610,-4820,28532,-4173,28595,1305,478,623,455,334,537,145,4941,33,40,858,1825,1878,2112,2298,1941,1738,1786,1919
593611,-4744,28584,-4108,28660,1042,794,594,479,361,615,450,4328,41,41,858,1825,1878,2112,2298,1941,1738,1786,1919
594612,-4692,28644,-4043,28725,1359,700,572,500,384,-287,545,4646,41,45,858,1825,1878,2112,2298,1941,1738,1786,1919
595613,-4632,28688,-3978,28790,1265,926,565,537,400,-245,464,4135,32,42,856,1825,1878,2112,2298,1941,1738,1786,1919
596614,-4564,28764,-3913,28855,1161,513,568,561,420,290,454,4037,34,43,856,1825,1878,2112,2298,1941,1738,1786,1919
597615,-4508,28816,-3848,28920,1322,829,591,569,442,69,591,3848,41,47,857,1855,1935,2172,2351,2107,1890,1935,2095
598616,-4440,28880,-3783,28985,1170,681,628,557,444,-350,1068,3555,32,35,856,1855,1935,2172,2351,2107,1890,1935,2095
599617,-4384,28944,-3718,29050,1330,682,659,529,443,-252,1032,3421,48,33,858,1855,1935,2172,2351,2107,1890,1935,2095
600618,-4332,29004,-3653,29115,1396,738,690,491,443,0,1259,3256,49,43,857,1855,1935,2172,2351,2107,1890,1935,2095
601619,-4272,29080,-3588,29180,1302,525,719,483,436,-151,1416,3268,40,46,856,1855,1935,2172,2351,2107,1890,1935,2095
602620,-4184,29140,-3523,29245,925,731,746,472,416,-9,1432,3228,39,48,858,1863,1953,2183,2372,2250,1997,2018,2138
603621,-4124,29184,-3458,29310,1281,956,759,459,408,373,1577,3606,42,33,859,1863,1953,2183,2372,2250,1997,2018,2138
604622,-4072,29252,-3393,29375,1397,653,784,471,406,345,1493,3749,45,31,855,1863,1953,2183,2372,2250,1997,2018,2138
605623,-3992,29312,-3328,29440,1029,759,790,474,404,68,1402,3811,49,44,856,1863,1953,2183,2372,2250,1997,2018,2138
606624,-3936,29360,-3263,29505,1341,930,783,492,419,347,1302,4066,39,47,858,1863,1953,2183,2372,2250,1997,2018,2138
607625,-3880,29424,-3198,29570,1352,731,768,510,434,870,1175,4253,39,39,855,1863,1953,2183,2372,2250,1997,2018,2138
608626,-3812,29484,-3133,29635,1198,787,747,509,454,562,996,4412,47,48,856,1819,1887,2102,2281,2112,1869,1883,1986
609627,-3760,29548,-3068,29700,1414,738,724,481,463,312,897,4578,36,44,857,1819,1887,2102,2281,2112,1869,1883,1986
610628,-3688,29612,-3003,29765,1157,739,701,464,471,409,825,4687,33,46,856,1819,1887,2102,2281,2112,1869,1883,1986
611629,-3620,29680,-2938,29830,1203,686,662,455,498,501,629,4760,36,43,858,1819,1887,2102,2281,2112,1869,1883,1986
612630,-3572,29720,-2873,29895,1474,1066,620,464,524,509,456,4754,39,43,858,1819,1887,2102,2281,2112,1869,1883,1986
613631,-3516,29792,-2808,29960,1385,658,589,464,526,311,513,4638,45,45,853,1765,1821,2062,2238,1979,1770,1793,1921
614632,-3448,29872,-2743,30025,1232,539,551,455,536,188,333,4525,45,37,855,1765,1821,2062,2238,1979,1770,1793,1921
615633,-3392,29936,-2678,30090,1393,740,512,441,541,275,356,4360,36,53,858,1765,1821,2062,2238,1979,1770,1793,1921
616634,-3328,30000,-2613,30155,1294,742,478,414,530,135,473,4192,43,49,856,1765,1821,2062,2238,1979,1770,1793,1921
617635,-3280,30084,-2548,30220,1516,469,429,397,519,-54,567,3927,38,46,857,1765,1821,2062,2238,1979,1770,1793,1921
618636,-3228,30144,-2483,30285,1482,776,396,382,515,15,713,3726,44,45,856,1765,1821,2062,2238,1979,1770,1793,1921
619637,-3148,30224,-2418,30350,1114,507,361,382,504,118,1040,3520,35,45,854,1801,1879,2130,2307,2062,1854,1887,2037
620638,-3088,30272,-2353,30415,1370,928,328,386,487,-18,1189,3302,39,38,859,1801,1879,2130,2307,2062,1854,1887,2037
621639,-3016,30348,-2288,30480,1212,565,294,395,481,-156,1210,3198,39,43,855,1801,1879,2130,2307,2062,1854,1887,2037
622640,-2944,30412,-2223,30545,1204,716,274,394,474,59,1329,3038,39,49,858,1801,1879,2130,2307,2062,1854,1887,2037
623641,-2884,30468,-2158,30610,1360,827,267,405,481,55,1382,3113,37,45,857,1801,1879,2130,2307,2062,1854,1887,2037
624642,-2820,30532,-2093,30675,1311,728,262,416,480,229,1458,3129,51,50,856,1856,1947,2176,2345,2208,1959,1991,2134
625643,-2752,30616,-2028,30740,1258,455,266,427,470,175,1517,3118,55,53,857,1856,1947,2176,2345,2208,1959,1991,2134
626644,-2664,30668,-1963,30805,980,871,263,437,454,163,1488,3113,55,39,858,1856,1947,2176,2345,2208,1959,1991,2134
627645,-2596,30760,-1898,30870,1227,338,261,467,437,453,1407,3329,55,44,858,1856,1947,2176,2345,2208,1959,1991,2134
628646,-2532,30816,-1833,30935,1279,799,270,489,424,540,1330,3512,50,39,859,1856,1947,2176,2345,2208,1959,1991,2134
629648,-2472,30880,-1768,31000,1335,700,291,505,403,330,1306,3970,43,48,856,1856,1947,2176,2345,2208,1959,1991,2134
630648,-2416,30976,-1703,31065,1396,262,313,515,377,217,1320,4118,44,42,856,1800,1878,2098,2256,2159,1902,1912,2030
631649,-2336,31028,-1638,31130,1078,828,324,505,352,221,1149,4213,38,55,856,1800,1878,2098,2256,2159,1902,1912,2030
632650,-2292,31108,-1573,31195,1554,460,330,488,343,318,1097,4352,43,56,858,1800,1878,2098,2256,2159,1902,1912,2030
633651,-2204,31184,-1508,31260,976,496,322,466,335,189,1175,4403,37,43,856,1800,1878,2098,2256,2159,1902,1912,2030
634652,-2160,31240,-1443,31325,1552,757,298,445,320,187,1049,4448,35,53,860,1800,1878,2098,2256,2159,1902,1912,2030
635653,-2088,31328,-1378,31390,1193,329,269,414,311,166,980,4366,45,38,854,1730,1795,2033,2213,1997,1787,1797,1907
636654,-2032,31408,-1313,31455,1405,411,225,404,296,161,989,4359,31,45,859,1730,1795,2033,2213,1997,1787,1797,1907
637655,-1984,31496,-1248,31520,1526,283,177,405,281,239,847,4330,40,55,857,1730,1795,2033,2213,1997,1787,1797,1907
638656,-1912,31580,-1183,31585,1217,310,115,417,274,245,906,4169,43,53,856,1730,1795,2033,2213,1997,1787,1797,1907
639657,-1844,31656,-1118,31650,1264,396,57,432,267,254,1044,3969,38,57,859,1730,1795,2033,2213,1997,1787,1797,1907
640658,-1804,31708,-1053,31715,1645,712,7,443,274,302,1012,3785,32,50,859,1730,1795,2033,2213,1997,1787,1797,1907
641659,-1736,31788,-988,31780,1292,344,-29,465,277,258,1056,3623,32,37,854,1784,1856,2112,2310,2002,1817,1843,1970
642660,-1680,31868,-923,31845,1453,325,-64,503,274,327,1187,3622,38,50,859,1784,1856,2112,2310,2002,1817,1843,1970
643661,-1628,31924,-858,31910,1519,636,-91,564,268,443,1246,3506,41,49,857,1784,1856,2112,2310,2002,1817,1843,1970
644662,-1548,32000,-793,31975,1151,373,-109,613,243,365,1382,3323,35,51,855,1784,1856,2112,2310,2002,1817,1843,1970
645663,-1480,32064,-728,32040,1297,524,-113,648,215,174,1328,3222,53,55,860,1784,1856,2112,2310,2002,1817,1843,1970
646664,-1412,32132,-663,32105,1294,471,-111,664,178,274,1526,3100,51,51,858,1868,1949,2196,2381,2149,1927,1957,2099
647665,-1368,32216,-598,32170,1620,247,-103,672,127,154,1572,3029,44,51,858,1868,1949,2196,2381,2149,1927,1957,2099
648666,-1300,32264,-533,32235,1317,718,-92,663,82,34,1508,3223,32,40,855,1868,1949,2196,2381,2149,1927,1957,2099
649667,-1224,32336,-468,32300,1203,410,-84,675,34,85,1564,3250,48,54,857,1868,1949,2196,2381,2149,1927,1957,2099
650668,-1164,32416,-403,32365,1410,291,-64,685,-5,155,1687,3502,39,40,859,1868,1949,2196,2381,2149,1927,1957,2099
651669,-1096,32488,-338,32430,1307,383,-37,708,-52,202,1731,3727,50,46,858,1868,1949,2196,2381,2149,1927,1957,2099
652670,-1040,32552,-273,32495,1468,484,-12,702,-94,-69,1804,3706,42,52,859,1839,1914,2146,2315,2163,1911,1929,2054
653671,-964,32616,-208,32560,1204,485,5,692,-134,-50,1734,3950,39,50,856,1839,1914,2146,2315,2163,1911,1929,2054
654672,-908,32688,-143,32625,1466,377,18,666,-157,41,1674,4011,37,52,859,1839,1914,2146,2315,2163,1911,1929,2054
655673,-852,32752,-78,32690,1477,478,26,642,-177,-60,1677,4254,46,50,857,1839,1914,2146,2315,2163,1911,1929,2054
656674,-796,32816,-13,32755,1488,479,22,642,-187,161,1516,4357,33,43,856,1839,1914,2146,2315,2163,1911,1929,2054
657675,-736,32884,52,32820,1445,425,11,646,-196,363,1368,4449,34,51,857,1748,1820,2050,2220,2018,1800,1812,1924
658676,-644,32944,117,32885,1012,531,1,663,-217,326,1471,4467,49,51,857,1748,1820,2050,2220,2018,1800,1812,1924
659677,-588,33004,182,32950,1473,538,-22,667,-237,336,1300,4335,42,51,860,1748,1820,2050,2220,2018,1800,1812,1924
660678,-532,33068,247,33015,1484,489,-48,669,-253,365,1247,4337,42,45,856,1748,1820,2050,2220,2018,1800,1812,1924
661679,-460,33124,312,33080,1277,600,-78,674,-277,458,1242,4281,48,54,856,1748,1820,2050,2220,2018,1800,1812,1924
662680,-376,33208,377,33145,1104,227,-112,685,-291,439,1089,4142,38,54,857,1748,1820,2050,2220,2018,1800,1812,1924
663681,-316,33284,442,33210,1410,313,-143,694,-319,506,1350,4044,53,42,861,1760,1837,2080,2264,1976,1785,1813,1937
664682,-248,33360,507,33275,1307,300,-175,689,-345,333,1248,3682,35,40,858,1760,1837,2080,2264,1976,1785,1813,1937
665683,-172,33416,572,33340,1194,561,-218,685,-371,340,1192,3573,48,54,858,1760,1837,2080,2264,1976,1785,1813,1937
666684,-104,33488,637,33405,1290,352,-249,676,-400,260,1384,3385,38,43,859,1760,1837,2080,2264,1976,1785,1813,1937
667685,-24,33564,702,33470,1123,289,-281,653,-457,148,1479,3100,54,41,859,1760,1837,2080,2264,1976,1785,1813,1937
668686,32,33648,767,33535,1434,166,-311,613,-513,-104,1410,3059,38,48,860,1856,1933,2190,2381,2100,1890,1924,2068
669687,104,33724,832,33600,1225,252,-337,583,-561,-61,1436,3079,35,51,858,1856,1933,2190,2381,2100,1890,1924,2068
670688,180,33788,897,33665,1162,403,-367,554,-611,-59,1578,3075,50,49,860,1856,1933,2190,2381,2100,1890,1924,2068
671689,260,33852,962,33730,1094,405,-367,521,-669,-44,1777,3080,43,47,859,1856,1933,2190,2381,2100,1890,1924,2068
672690,328,33912,1027,33795,1241,460,-366,487,-700,-274,1582,3150,38,38,860,1856,1933,2190,2381,2100,1890,1924,2068
673691,372,33980,1092,33860,1566,356,-360,487,-728,-4,1541,3530,40,37,859,1856,1933,2190,2381,2100,1890,1924,2068
674692,436,34056,1157,33925,1318,243,-355,499,-759,35,1564,3440,47,51,856,1858,1936,2174,2338,2184,1936,1956,2104
675693,524,34120,1222,33990,991,394,-337,489,-797,-161,1643,3751,45,42,859,1858,1936,2174,2338,2184,1936,1956,2104
676694,600,34184,1287,34055,1127,395,-310,452,-841,-245,1588,3816,38,46,861,1858,1936,2174,2338,2184,1936,1956,2104
677695,660,34256,1352,34120,1333,286,-286,415,-862,-372,1465,4060,35,36,860,1858,1936,2174,2338,2184,1936,1956,2104
678696,732,34320,1417,34185,1175,388,-277,438,-865,20,1248,4302,33,40,859,1858,1936,2174,2338,2184,1936,1956,2104
679697,816,34384,1482,34250,1002,389,-280,484,-873,462,1285,4474,41,43,860,1751,1834,2054,2204,2086,1844,1861,1988
680698,872,34452,1547,34315,1363,335,-290,508,-883,258,1480,4283,41,49,861,1751,1834,2054,2204,2086,1844,1861,1988
681699,944,34512,1612,34380,1155,441,-309,475,-906,-75,1463,4310,50,48,858,1751,1834,2054,2204,2086,1844,1861,1988
682700,992,34588,1677,34445,1476,228,-331,446,-921,-223,1284,4402,38,53,858,1751,1834,2054,2204,2086,1844,1861,1988
683701,1064,34668,1742,34510,1168,160,-367,444,-940,285,1229,4315,38,42,858,1751,1834,2054,2204,2086,1844,1861,1988
684702,1148,34724,1807,34575,995,471,-410,454,-958,425,1260,4263,38,42,860,1727,1808,2040,2213,2002,1791,1819,1943
685703,1212,34792,1872,34640,1246,317,-464,423,-988,-21,1282,3804,58,54,861,1727,1808,2040,2213,2002,1791,1819,1943
686704,1296,34864,1937,34705,973,258,-510,374,-1028,-94,1107,3759,40,43,860,1727,1808,2040,2213,2002,1791,1819,1943
687705,1376,34944,2002,34770,1006,140,-559,355,-1058,234,1168,3671,60,56,862,1727,1808,2040,2213,2002,1791,1819,1943
688706,1464,35008,2067,34835,878,341,-614,359,-1079,218,1022,3386,55,41,862,1727,1808,2040,2213,2002,1791,1819,1943
689707,1532,35100,2132,34900,1124,-43,-662,365,-1107,278,1049,3279,54,48,862,1727,1808,2040,2213,2002,1791,1819,1943
690708,1624,35164,2197,34965,791,309,-697,335,-1156,-30,1322,3178,56,45,861,1822,1892,2148,2344,2072,1864,1896,2040
691709,1700,35216,2262,35030,979,474,-728,282,-1179,-356,1174,2864,49,53,863,1822,1892,2148,2344,2072,1864,1896,2040
692710,1776,35300,2327,35095,965,51,-748,249,-1192,-241,925,3277,50,48,861,1822,1892,2148,2344,2072,1864,1896,2040
693711,1852,35364,2392,35160,952,302,-759,246,-1202,9,975,3149,50,51,863,1822,1892,2148,2344,2072,1864,1896,2040
694712,1932,35440,2457,35225,883,139,-774,243,-1210,9,1062,2898,43,47,862,1822,1892,2148,2344,2072,1864,1896,2040
695713,1996,35492,2522,35290,1085,455,-789,240,-1221,-188,1090,3022,57,39,864,1855,1925,2173,2347,2157,1922,1940,2082
696714,2084,35576,2587,35355,758,32,-793,246,-1228,-238,1133,3278,40,52,860,1855,1925,2173,2347,2157,1922,1940,2082
697715,2168,35668,2652,35420,784,-101,-797,257,-1230,-273,1037,3295,46,48,864,1855,1925,2173,2347,2157,1922,1940,2082
698716,2264,35744,2717,35485,596,85,-798,272,-1253,-38,1004,3604,52,40,864,1855,1925,2173,2347,2157,1922,1940,2082
699717,2320,35836,2782,35550,1107,-148,-798,282,-1269,-169,1152,3502,46,43,864,1855,1925,2173,2347,2157,1922,1940,2082
700718,2396,35928,2847,35615,844,-181,-801,276,-1273,-324,1181,3706,52,51,861,1855,1925,2173,2347,2157,1922,1940,2082
701719,2488,36012,3046,35814,776,59,-799,284,-1273,-275,1131,4101,42,47,863,1767,1846,2063,2219,2103,1853,1875,1998
702720,2556,36088,3111,35879,1072,145,-804,309,-1284,-20,1093,4260,53,46,864,1767,1846,2063,2219,2103,1853,1875,1998
703721,2648,36140,3176,35944,739,461,-800,327,-1290,-73,1224,4112,52,45,861,1767,1846,2063,2219,2103,1853,1875,1998
704722,2720,36204,3241,36009,980,312,-787,341,-1283,-372,1266,4187,54,43,863,1767,1846,2063,2219,2103,1853,1875,1998
705723,2808,36276,3306,36074,752,204,-788,344,-1276,-269,1158,4114,52,47,862,1767,1846,2063,2219,2103,1853,1875,1998
706724,2900,36340,3371,36139,670,305,-807,359,-1277,-22,1029,4110,47,53,864,1710,1788,2006,2178,2018,1789,1823,1942
707725,3000,36408,3436,36204,528,251,-827,357,-1278,19,1126,3750,57,41,864,1710,1788,2006,2178,2018,1789,1823,1942
708726,3084,36460,3501,36269,705,467,-863,319,-1282,-341,982,3635,63,50,865,1710,1788,2006,2178,2018,1789,1823,1942
709727,3180,36516,3566,36334,517,428,-902,322,-1297,-61,760,3789,48,45,863,1710,1788,2006,2178,2018,1789,1823,1942
710728,3272,36608,3631,36399,534,-55,-949,359,-1312,315,744,3309,52,55,864,1710,1788,2006,2178,2018,1789,1823,1942
711729,3352,36684,3696,36464,665,132,-994,369,-1323,245,524,3042,56,43,866,1710,1788,2006,2178,2018,1789,1823,1942
712730,3440,36772,3761,36529,537,-46,-1039,385,-1341,31,447,3152,41,54,864,1786,1853,2100,2299,2035,1826,1861,1993
713731,3520,36856,3826,36594,620,-20,-1072,365,-1363,-9,424,2763,57,50,866,1786,1853,2100,2299,2035,1826,1861,1993
714732,3620,36920,3891,36659,327,231,-1089,341,-1381,-34,434,2757,43,50,865,1786,1853,2100,2299,2035,1826,1861,1993
715733,3696,37012,3956,36724,614,-152,-1107,325,-1374,-347,398,2681,49,59,866,1786,1853,2100,2299,2035,1826,1861,1993
716734,3800,37096,4021,36789,216,-75,-1111,309,-1345,-195,495,2878,39,41,864,1786,1853,2100,2299,2035,1826,1861,1993
717735,3876,37168,4086,36854,553,66,-1101,317,-1316,-59,524,2990,57,53,867,1853,1911,2159,2352,2095,1875,1900,2028
718736,3960,37248,4151,36919,430,-52,-1087,310,-1283,-316,473,2942,41,38,866,1853,1911,2159,2352,2095,1875,1900,2028
719737,4064,37336,4216,36984,132,-180,-1066,302,-1255,-436,498,2888,49,56,866,1853,1911,2159,2352,2095,1875,1900,2028
720738,4116,37404,4281,37049,798,66,-1047,284,-1220,-462,605,3039,56,50,867,1853,1911,2159,2352,2095,1875,1900,2028
721739,4220,37476,4346,37114,100,7,-1037,311,-1211,-356,776,3201,38,49,864,1853,1911,2159,2352,2095,1875,1900,2028
722740,4304,37552,4411,37179,327,-57,-1021,340,-1201,-199,773,3317,56,55,868,1853,1911,2159,2352,2095,1875,1900,2028
723741,4392,37612,4476,37244,249,149,-1003,351,-1193,-257,866,3379,49,38,867,1796,1863,2074,2245,2054,1811,1851,1964
724742,4488,37684,4541,37309,111,-9,-994,345,-1182,-397,884,3505,46,44,867,1796,1863,2074,2245,2054,1811,1851,1964
725743,4552,37764,4606,37374,512,-128,-983,369,-1179,-233,857,3894,37,40,868,1796,1863,2074,2245,2054,1811,1851,1964
726744,4624,37840,4671,37439,404,-91,-978,404,-1179,-76,919,3819,33,46,866,1796,1863,2074,2245,2054,1811,1851,1964
727745,4712,37908,4736,37504,176,5,-972,417,-1181,-163,909,3767,41,40,866,1796,1863,2074,2245,2054,1811,1851,1964
728746,4808,37984,4801,37569,38,-109,-972,428,-1191,-369,730,3746,46,40,867,1731,1800,1997,2176,1979,1746,1800,1915
729747,4880,38060,4866,37634,329,-123,-964,419,-1205,-91,568,3497,47,52,868,1731,1800,1997,2176,1979,1746,1800,1915
730748,4960,38140,4931,37699,211,-191,-963,399,-1213,-253,575,3600,33,41,866,1731,1800,1997,2176,1979,1746,1800,1915
731749,5020,38216,4996,37764,467,-154,-963,380,-1216,-234,397,3293,32,51,867,1731,1800,1997,2176,1979,1746,1800,1915
732750,5100,38280,5061,37829,199,-3,-969,371,-1201,-211,124,3170,32,47,866,1731,1800,1997,2176,1979,1746,1800,1915
733751,5180,38344,5126,37894,181,-2,-969,380,-1184,22,139,3110,38,43,866,1731,1800,1997,2176,1979,1746,1800,1915
734752,5260,38420,5191,37959,162,-166,-981,371,-1157,-225,15,2864,35,43,867,1768,1835,2059,2258,1994,1781,1829,1955
735753,5324,38496,5256,38024,363,-180,-981,355,-1129,5,-101,2620,48,48,867,1768,1835,2059,2258,1994,1781,1829,1955
736754,5428,38576,5321,38089,-184,-248,-971,317,-1114,-102,-116,2657,46,39,866,1768,1835,2059,2258,1994,1781,1829,1955
737755,5520,38632,5386,38154,-67,63,-955,248,-1092,-498,-255,2328,43,51,860,1768,1835,2059,2258,1994,1781,1829,1955
738756,5636,38700,5451,38219,-429,-91,-952,219,-1054,-327,-173,2581,32,49,867,1768,1835,2059,2258,1994,1781,1829,1955
739757,5736,38760,5516,38284,-272,14,-937,204,-1016,96,30,2378,33,38,867,1837,1897,2129,2331,2031,1980,2015,1979
740758,5824,38836,5581,38349,-150,-199,-929,159,-990,-201,95,2435,32,47,868,1837,1897,2129,2331,2031,1980,2015,1979
741759,5888,38900,5646,38414,151,-48,-916,130,-960,-356,41,2690,43,51,868,1837,1897,2129,2331,2031,1980,2015,1979
742760,5968,38948,5711,38479,-67,173,-902,115,-917,-250,-17,2955,33,47,868,1837,1897,2129,2331,2031,1980,2015,1979
743761,6032,39012,5776,38544,134,-26,-880,94,-888,6,146,2958,47,35,867,1837,1897,2129,2331,2031,1980,2015,1979
744762,6116,39088,5841,38609,-139,-189,-863,65,-882,-246,315,3103,30,41,868,1837,1897,2129,2331,2031,1980,2015,1979
745763,6188,39152,5906,38674,1,-39,-847,19,-899,-236,378,3258,47,50,862,1820,1877,2073,2258,2014,1778,1838,1949
746764,6280,39224,5971,38739,-282,-148,-819,-34,-919,-452,195,3234,31,34,868,1820,1877,2073,2258,2014,1778,1838,1949
747765,6352,39296,6036,38804,-40,-156,-801,-45,-918,-357,145,3751,35,45,861,1820,1877,2073,2258,2014,1778,1838,1949
748766,6432,39348,6101,38869,-159,110,-781,-50,-931,130,212,3515,37,37,868,1820,1877,2073,2258,2014,1778,1838,1949
749767,6524,39420,6166,38934,-342,-149,-767,-45,-948,-249,151,3654,49,48,861,1820,1877,2073,2258,2014,1778,1838,1949
750768,6592,39484,6231,38999,-45,-49,-764,-41,-946,-303,107,3685,32,46,866,1753,1825,2005,2189,1977,1741,1815,1928
751769,6684,39548,6296,39064,-378,-47,-744,-71,-938,-474,-88,3810,45,42,868,1753,1825,2005,2189,1977,1741,1815,1928
752770,6736,39620,6361,39129,138,-156,-719,-95,-920,-426,-160,3694,42,50,868,1753,1825,2005,2189,1977,1741,1815,1928
753771,6840,39684,6426,39194,-561,-55,-689,-104,-900,-263,-316,3775,33,40,867,1753,1825,2005,2189,1977,1741,1815,1928
754772,6908,39744,6491,39259,-115,1,-661,-116,-876,-173,-424,3610,45,38,868,1753,1825,2005,2189,1977,1741,1815,1928
755773,6980,39816,6556,39324,-173,-157,-633,-154,-853,-545,-551,3606,38,53,865,1753,1825,2005,2189,1977,1741,1815,1928
756774,7072,39904,6621,39389,-456,-386,-602,-169,-828,-250,-595,3714,47,43,860,1776,1850,2052,2252,2004,1782,1848,1972
757775,7156,39984,6686,39454,-379,-304,-568,-180,-805,-51,-689,3416,51,45,866,1776,1850,2052,2252,2004,1782,1848,1972
758776,7216,40072,6751,39519,-73,-433,-551,-211,-781,-288,-600,3257,37,46,867,1776,1850,2052,2252,2004,1782,1848,1972
759777,7312,40136,6816,39584,-562,-131,-548,-211,-767,-158,-497,3134,51,46,865,1776,1850,2052,2252,2004,1782,1848,1972
760778,7396,40200,6881,39649,-435,-131,-548,-199,-742,179,-402,2976,35,40,867,1776,1850,2052,2252,2004,1782,1848,1972
761779,7472,40272,6946,39714,-349,-240,-545,-214,-706,75,-437,2876,45,50,868,1851,1931,2138,2368,2039,1825,1878,1982
762780,7572,40336,7011,39779,-691,-138,-550,-214,-681,-341,-471,3070,37,51,867,1851,1931,2138,2368,2039,1825,1878,1982
763781,7668,40412,7076,39844,-679,-302,-581,-236,-667,-108,-528,2980,43,37,866,1851,1931,2138,2368,2039,1825,1878,1982
764782,7756,40484,7141,39909,-608,-260,-580,-261,-655,-178,-628,3302,38,48,867,1851,1931,2138,2368,2039,1825,1878,1982
765783,7828,40548,7206,39974,-417,-160,-549,-269,-660,-424,-716,3635,41,41,867,1851,1931,2138,2368,2039,1825,1878,1982
766784,7940,40600,7271,40039,-974,6,-503,-274,-675,-209,-728,3829,48,52,867,1851,1931,2138,2368,2039,1825,1878,1982
767785,8028,40652,7336,40104,-702,22,-455,-298,-674,-199,-726,3861,52,52,866,1869,1915,2119,2328,2033,1806,1860,1956
768786,8128,40724,7401,40169,-896,-237,-401,-319,-674,-350,-465,4112,45,52,868,1869,1915,2119,2328,2033,1806,1860,1956
769787,8224,40800,7466,40234,-884,-300,-348,-319,-668,-334,-581,4532,46,53,867,1869,1915,2119,2328,2033,1806,1860,1956
770788,8328,40872,7531,40299,-1031,-260,-295,-304,-656,-136,-603,4372,59,43,867,1869,1915,2119,2328,2033,1806,1860,1956
771789,8436,40948,7596,40364,-1135,-323,-243,-277,-641,6,-352,4591,59,42,867,1869,1915,2119,2328,2033,1806,1860,1956
772790,8536,41012,7661,40429,-1078,-172,-203,-195,-628,-199,-470,4584,45,44,867,1801,1856,2046,2259,1991,1767,1841,1942
773791,8640,41100,7726,40494,-1175,-500,-187,-104,-595,80,-557,4476,55,42,868,1801,1856,2046,2259,1991,1767,1841,1942
774792,8732,41160,7791,40559,-1059,-145,-173,1,-564,275,-474,4206,63,52,866,1801,1856,2046,2259,1991,1767,1841,1942
775793,8828,41228,7856,40624,-1147,-249,-169,81,-539,36,-421,4002,48,40,867,1801,1856,2046,2259,1991,1767,1841,1942
776794,8940,41292,7921,40689,-1404,-198,-183,143,-509,67,-454,3910,62,50,867,1801,1856,2046,2259,1991,1767,1841,1942
777795,9052,41356,7986,40754,-1463,-196,-208,194,-475,127,-451,3495,64,39,867,1801,1856,2046,2259,1991,1767,1841,1942
778796,9160,41432,8051,40819,-1465,-361,-225,269,-448,-184,-446,3605,69,49,867,1818,1879,2075,2307,2007,1795,1857,1959
779797,9284,41496,8116,40884,-1738,-210,-249,370,-426,-124,-509,3319,57,47,866,1818,1879,2075,2307,2007,1795,1857,1959
780798,9408,41552,8181,40949,-1810,-99,-264,422,-413,471,-926,3280,64,45,868,1818,1879,2075,2307,2007,1795,1857,1959
781799,9528,41624,8246,41014,-1827,-307,-282,435,-411,-355,-1004,3020,69,50,868,1818,1879,2075,2307,2007,1795,1857,1959
782800,9656,41664,8311,41079,-2005,123,-282,415,-423,-550,-1182,3284,66,36,867,1818,1879,2075,2307,2007,1795,1857,1959
783801,9784,41736,8376,41144,-2082,-286,-244,310,-408,-174,-1637,3260,60,39,867,1832,1885,2107,2320,2070,1850,1877,1986
784802,9920,41800,8441,41209,-2270,-185,-179,180,-394,-761,-1711,3537,57,51,866,1832,1885,2107,2320,2070,1850,1877,1986
785803,10032,41852,8506,41274,-2028,-19,-110,94,-384,-764,-1695,3889,75,45,868,1832,1885,2107,2320,2070,1850,1877,1986
786804,10148,41924,8571,41339,-2141,-278,-58,46,-373,-446,-1557,4010,62,43,868,1832,1885,2107,2320,2070,1850,1877,1986
787805,10284,41980,8636,41404,-2478,-68,-14,65,-357,140,-1380,4069,80,54,867,1832,1885,2107,2320,2070,1850,1877,1986
788806,10404,42040,8701,41469,-2345,-112,15,136,-351,815,-1134,4037,77,41,868,1832,1885,2107,2320,2070,1850,1877,1986
789807,10556,42124,8766,41534,-2853,-435,33,197,-360,791,-856,3934,67,39,868,1770,1845,2062,2261,2057,1820,1877,1986
790808,10672,42196,8831,41599,-2466,-293,33,280,-375,827,-619,3891,80,48,866,1770,1845,2062,2261,2057,1820,1877,1986
791809,10796,42264,8896,41664,-2638,-247,19,359,-369,1017,-704,3994,75,39,867,1770,1845,2062,2261,2057,1820,1877,1986
792810,10952,42324,8961,41729,-3150,-142,-32,441,-345,977,-508,4047,81,41,867,1770,1845,2062,2261,2057,1820,1877,1986
793811,11112,42380,9026,41794,-3317,-81,-121,519,-322,613,-294,3680,70,52,868,1770,1845,2062,2261,2057,1820,1877,1986
794812,11260,42448,9091,41859,-3269,-234,-233,544,-321,709,-168,3524,75,42,868,1807,1875,2049,2262,2019,1779,1876,1986
795813,11396,42508,9156,41924,-3207,-128,-326,532,-340,316,-372,3441,88,39,867,1807,1875,2049,2262,2019,1779,1876,1986
796814,11532,42560,9221,41989,-3294,-14,-418,441,-364,-186,-592,3447,89,38,868,1807,1875,2049,2262,2019,1779,1876,1986
797815,11704,42628,9286,42054,-3800,-217,-482,271,-390,-543,-1077,3643,74,40,868,1807,1875,2049,2262,2019,1779,1876,1986
798816,11844,42696,9351,42119,-3568,-221,-473,40,-414,-598,-1700,3838,86,40,868,1807,1875,2049,2262,2019,1779,1876,1986
799817,12012,42752,9416,42184,-3800,-60,-402,-244,-429,-1313,-2079,4385,96,51,867,1807,1875,2049,2262,2019,1779,1876,1986
800818,12160,42812,9481,42249,-3800,-105,-300,-523,-449,-1513,-2467,4263,76,53,852,1767,1852,2027,2215,2107,1860,1922,2078
801819,12312,42880,9546,42314,-3800,-208,-184,-703,-463,-733,-2620,4744,78,54,867,1767,1852,2027,2215,2107,1860,1922,2078
802820,12472,42940,9611,42379,-3800,-102,-76,-844,-478,-218,-2470,4553,83,41,867,1767,1852,2027,2215,2107,1860,1922,2078
803821,12636,42984,9676,42444,-3800,123,7,-873,-512,96,-2450,4907,86,51,868,1767,1852,2027,2215,2107,1860,1922,2078
804823,12792,43064,9741,42509,-3800,-345,47,-850,-551,825,-2300,4441,94,45,860,1767,1852,2027,2215,2107,1860,1922,2078
805823,12952,43132,9806,42574,-3800,-200,57,-814,-586,903,-2080,4648,88,53,867,1785,1909,2095,2259,2125,1856,1956,2101
806824,13088,43188,9871,42639,-3800,-39,8,-789,-605,961,-1989,4594,90,38,867,1785,1909,2095,2259,2125,1856,1956,2101
807825,13280,43244,9936,42704,-3800,-28,-80,-719,-620,748,-1729,4588,99,47,868,1785,1909,2095,2259,2125,1856,1956,2101
808826,13424,43316,10001,42769,-3800,-236,-184,-705,-627,572,-1466,4798,101,41,863,1785,1909,2095,2259,2125,1856,1956,2101
809827,13568,43356,10066,42834,-3800,194,-277,-762,-654,182,-1296,4306,102,45,867,1785,1909,2095,2259,2125,1856,1956,2101
810828,13756,43412,10131,42899,-3800,4,-372,-854,-692,44,-1169,5047,91,37,867,1785,1909,2095,2259,2125,1856,1956,2101
811829,13900,43476,10196,42964,-3800,-94,-458,-1000,-725,-228,-1407,4238,95,43,868,1932,2031,2174,2397,2077,1845,1963,2071
812830,14076,43544,10261,43029,-3800,-148,-514,-1163,-767,-406,-1588,4793,94,45,864,1932,2031,2174,2397,2077,1845,1963,2071
813831,14268,43588,10326,43094,-3800,177,-550,-1327,-780,-937,-1782,4487,102,51,868,1932,2031,2174,2397,2077,1845,1963,2071
814832,14456,43656,10391,43159,-3800,-126,-546,-1483,-786,-873,-1969,4925,99,40,868,1932,2031,2174,2397,2077,1845,1963,2071
815833,14640,43716,10456,43224,-3800,-21,-493,-1586,-809,-676,-2207,4904,107,39,868,1932,2031,2174,2397,2077,1845,1963,2071
816834,14808,43768,10521,43289,-3800,95,-406,-1628,-836,-519,-2707,5897,93,53,865,1905,1971,2142,2364,2140,1905,1975,2086
817835,14972,43832,10586,43354,-3800,-54,-306,-1659,-847,-213,-2987,5781,104,44,868,1905,1971,2142,2364,2140,1905,1975,2086
818836,15160,43876,10651,43419,-3800,222,-205,-1647,-855,-458,-3029,6178,103,52,867,1905,1971,2142,2364,2140,1905,1975,2086
819837,15300,43944,10716,43484,-3800,-82,-126,-1613,-864,-286,-3127,6207,96,51,867,1905,1971,2142,2364,2140,1905,1975,2086
820838,15496,43992,10781,43549,-3800,188,-57,-1554,-867,-142,-2863,5968,93,38,866,1905,1971,2142,2364,2140,1905,1975,2086
821839,15664,44084,10846,43614,-3800,-395,-3,-1465,-862,-9,-2751,6506,109,38,868,1905,1971,2142,2364,2140,1905,1975,2086
822840,15836,44120,10911,43679,-3800,340,35,-1323,-872,-9,-2346,5858,100,41,867,1844,1918,2118,2350,2115,1883,1943,2031
823841,16016,44204,10976,43744,-3800,-283,44,-1185,-845,111,-2289,6474,92,40,867,1844,1918,2118,2350,2115,1883,1943,2031
824842,16176,44260,11041,43809,-3800,78,56,-1055,-815,53,-2229,5808,96,41,866,1844,1918,2118,2350,2115,1883,1943,2031
825843,16328,44328,11106,43874,-3800,-76,51,-915,-783,45,-1727,5994,101,35,868,1844,1918,2118,2350,2115,1883,1943,2031
826844,16504,44388,11171,43939,-3800,29,32,-776,-759,-37,-1472,5145,88,47,868,1844,1918,2118,2350,2115,1883,1943,2031
827845,16644,44452,11236,44004,-3800,-19,-6,-711,-750,255,-1002,4840,106,36,868,1920,1985,2185,2480,2070,1866,1933,1984
828846,16848,44512,11301,44069,-3800,37,-56,-588,-731,413,-443,5099,90,42,867,1920,1985,2185,2480,2070,1866,1933,1984
829847,17016,44564,11366,44134,-3800,153,-147,-427,-718,417,-532,4215,103,48,868,1920,1985,2185,2480,2070,1866,1933,1984
830848,17160,44624,11431,44199,-3800,59,-182,-452,-714,1216,-661,3408,91,36,868,1920,1985,2185,2480,2070,1866,1933,1984
831849,17284,44676,11496,44264,-3800,175,-192,-368,-679,-1202,-1400,5227,103,36,868,1920,1985,2185,2480,2070,1866,1933,1984
832850,17420,44752,11561,44329,-3800,-140,-277,-125,-704,-350,-1132,3724,86,37,867,1920,1985,2185,2480,2070,1866,1933,1984
833851,17576,44808,11626,44394,-3800,121,-291,-55,-621,1149,-1357,4266,96,41,868,1957,1980,2200,2476,2092,1873,1911,1990
834852,17728,44872,11691,44459,-3800,22,-233,-43,-592,-215,-1792,4519,87,45,868,1957,1980,2200,2476,2092,1873,1911,1990
835853,17884,44916,11756,44524,-3800,298,-128,22,-619,-995,-1953,5237,88,46,867,1957,1980,2200,2476,2092,1873,1911,1990
836854,18024,44968,11821,44589,-3800,214,29,6,-589,-309,-2195,5268,92,34,867,1957,1980,2200,2476,2092,1873,1911,1990
837855,18180,45024,11886,44654,-3800,175,198,-38,-516,-295,-2685,5089,80,38,867,1957,1980,2200,2476,2092,1873,1911,1990
838856,18340,45076,11951,44719,-3800,240,361,61,-433,-115,-2176,6050,89,37,867,1793,1831,2063,2274,2095,1858,1871,1976
839857,18472,45144,12016,44784,-3800,36,488,128,-360,275,-1916,4876,91,36,868,1793,1831,2063,2274,2095,1858,1871,1976
840858,18588,45212,12081,44849,-3800,32,592,285,-309,569,-1522,5576,98,42,868,1793,1831,2063,2274,2095,1858,1871,1976
841859,18744,45260,12146,44914,-3800,303,654,506,-262,1139,-898,5078,75,44,868,1793,1831,2063,2274,2095,1858,1871,1976
842860,18876,45324,12211,44979,-3800,104,664,684,-213,1299,-552,4751,76,45,867,1793,1831,2063,2274,2095,1858,1871,1976
843861,19012,45372,12276,45044,-3800,325,622,797,-167,895,-76,4304,90,35,868,1793,1831,2063,2274,2095,1858,1871,1976
844862,19152,45428,12341,45109,-3800,236,533,883,-119,712,277,3977,72,36,867,1803,1873,2069,2305,1983,1760,1847,1917
845863,19284,45476,12406,45174,-3800,357,428,859,-69,398,470,3306,87,32,867,1803,1873,2069,2305,1983,1760,1847,1917
846864,19424,45532,12471,45239,-3800,267,331,738,-28,-269,602,3129,73,38,867,1803,1873,2069,2305,1983,1760,1847,1917
847865,19552,45576,12536,45304,-3800,442,266,609,14,-406,529,3458,82,35,867,1803,1873,2069,2305,1983,1760,1847,1917
848866,19664,45644,12601,45369,-3800,139,233,490,59,-244,237,3093,81,32,867,1803,1873,2069,2305,1983,1760,1847,1917
849867,19804,45692,12666,45434,-3800,410,230,360,91,-339,-36,3082,80,33,867,1916,1969,2132,2369,2004,1784,1873,1992
850868,19912,45720,12731,45499,-3800,705,267,281,118,-86,-385,3165,76,34,867,1916,1969,2132,2369,2004,1784,1873,1992
851869,20048,45776,12796,45564,-3800,366,317,207,136,176,-741,3067,83,52,865,1916,1969,2132,2369,2004,1784,1873,1992
852870,20140,45844,12861,45629,-3800,212,389,167,157,412,-1038,3384,73,41,866,1916,1969,2132,2369,2004,1784,1873,1992
853871,20252,45928,12926,45694,-3800,-11,491,161,187,354,-1293,3571,72,36,867,1916,1969,2132,2369,2004,1784,1873,1992
854872,20380,45980,12991,45759,-3800,405,603,163,213,405,-1447,3783,58,45,868,1916,1969,2132,2369,2004,1784,1873,1992
855873,20484,46076,13056,45824,-3800,-183,720,186,232,391,-1382,4102,73,49,867,1853,1925,2118,2261,2074,1815,1866,2027
856874,20604,46124,13121,45889,-3800,437,835,177,263,440,-1272,3808,63,39,867,1853,1925,2118,2261,2074,1815,1866,2027
857875,20704,46188,13186,45954,-3800,238,920,106,302,-227,-1304,3807,65,38,866,1853,1925,2118,2261,2074,1815,1866,2027
858876,20800,46252,13251,46019,-3800,239,971,44,339,-99,-848,3663,54,39,867,1853,1925,2118,2261,2074,1815,1866,2027
859877,20920,46312,13316,46084,-3800,295,994,-50,391,-84,-483,3367,69,37,867,1853,1925,2118,2261,2074,1815,1866,2027
860878,21016,46372,13381,46149,-3800,301,968,-154,426,-239,-153,3045,52,38,867,1792,1879,2071,2233,1996,1756,1819,1931
861879,21088,46432,13446,46214,-3800,307,916,-232,471,-357,228,3446,60,42,867,1792,1879,2071,2233,1996,1756,1819,1931
862880,21200,46504,13511,46279,-3800,149,849,-276,513,-124,679,3002,59,51,867,1792,1879,2071,2233,1996,1756,1819,1931
863881,21280,46572,13576,46344,-3800,195,773,-357,554,-165,836,3033,52,42,868,1792,1879,2071,2233,1996,1756,1819,1931
864882,21376,46628,13641,46409,-3800,356,682,-406,563,-174,1072,3429,59,47,867,1792,1879,2071,2233,1996,1756,1819,1931
865883,21444,46696,13706,46474,-3800,203,612,-462,576,-417,953,3298,49,34,862,1792,1879,2071,2233,1996,1756,1819,1931
866884,21524,46764,13771,46539,-3800,199,563,-515,589,5,817,3458,57,38,867,1809,1877,2045,2252,1976,1762,1840,1945
867885,21608,46840,13836,46604,-3800,84,532,-550,595,33,646,3843,38,36,868,1809,1877,2045,2252,1976,1762,1840,1945
868886,21668,46904,13901,46669,-3800,236,531,-538,598,82,351,3747,37,34,868,1809,1877,2045,2252,1976,1762,1840,1945
869887,21752,46980,13966,46734,-3800,72,561,-496,587,539,159,3953,39,45,860,1809,1877,2045,2252,1976,1762,1840,1945
870888,21812,47040,14031,46799,-3800,278,606,-436,580,446,-219,3747,41,36,868,1809,1877,2045,2252,1976,1762,1840,1945
871889,21888,47104,14096,46864,-3800,230,662,-382,562,302,-349,3650,34,36,867,1769,1831,2044,2224,2105,1858,1904,2048
872890,21960,47160,14161,46929,-3800,341,731,-353,550,108,-543,3702,40,33,868,1769,1831,2044,2224,2105,1858,1904,2048
873891,22024,47220,14226,46994,-3800,297,810,-374,546,-182,-603,3545,43,32,862,1769,1831,2044,2224,2105,1858,1904,2048
874892,22072,47284,14291,47059,-3800,248,888,-400,542,-208,-564,3698,41,46,867,1769,1831,2044,2224,2105,1858,1904,2048
875893,22140,47360,14356,47124,-3800,84,934,-401,548,-399,-537,3614,38,47,867,1769,1831,2044,2224,2105,1858,1904,2048
876894,22196,47420,14421,47189,-3800,291,961,-429,570,-356,-419,3574,24,44,868,1769,1831,2044,2224,2105,1858,1904,2048
877895,22240,47480,14486,47254,-3800,297,962,-416,591,-666,-112,3705,27,34,864,1764,1839,2078,2273,2125,1886,1899,2021
878896,22300,47540,14551,47319,-3800,302,931,-380,608,-496,128,3770,31,36,867,1764,1839,2078,2273,2125,1886,1899,2021
879897,22336,47596,14616,47384,-3800,363,872,-334,631,-480,418,3774,37,43,867,1764,1839,2078,2273,2125,1886,1899,2021
880898,22388,47668,14681,47449,-3800,154,794,-285,651,-265,644,3740,18,45,867,1764,1839,2078,2273,2125,1886,1899,2021
881899,22436,47732,14746,47514,-3800,255,689,-216,663,-363,871,3970,34,43,865,1764,1839,2078,2273,2125,1886,1899,2021
882900,22468,47796,14811,47579,-3800,257,582,-146,668,-267,977,3988,31,39,867,1827,1900,2118,2326,2038,1819,1865,1962
883901,22512,47864,14876,47644,-3800,203,489,-74,663,-29,1055,4182,30,44,868,1827,1900,2118,2326,2038,1819,1865,1962
884902,22524,47932,14941,47709,-3800,199,426,8,652,-110,765,4649,19,42,868,1827,1900,2118,2326,2038,1819,1865,1962
885903,22576,48000,15006,47774,-3800,196,396,161,655,-184,813,4598,17,38,866,1827,1900,2118,2326,2038,1819,1865,1962
886904,22584,48080,15071,47839,-3800,27,376,242,638,-67,590,4478,22,36,866,1827,1900,2118,2326,2038,1819,1865,1962
887905,22612,48136,15136,47904,-3800,338,365,303,606,-58,569,4288,8,32,868,1827,1900,2118,2326,2038,1819,1865,1962
888906,22636,48200,15201,47969,-3800,240,369,329,563,-390,347,4273,22,31,867,1809,1868,2082,2274,2078,1858,1892,2028
889907,22652,48268,15266,48034,-3800,185,385,356,516,-253,304,4194,5,42,866,1809,1868,2082,2274,2078,1858,1892,2028
890908,22684,48332,15331,48099,-3800,236,405,347,480,-112,257,3896,13,30,868,1809,1868,2082,2274,2078,1858,1892,2028
891909,22680,48384,15396,48164,-3800,402,442,283,473,-584,122,4028,9,35,867,1809,1868,2082,2274,2078,1858,1892,2028
892910,22712,48448,15461,48229,-3800,253,492,183,464,-876,160,4048,2,37,867,1809,1868,2082,2274,2078,1858,1892,2028
893911,22720,48508,15526,48294,-3800,309,555,99,451,-823,154,4239,8,42,866,1761,1823,2074,2246,2162,1920,1925,2075
894912,22744,48568,15591,48359,-3800,315,595,35,450,-447,412,4111,14,43,867,1761,1823,2074,2246,2162,1920,1925,2075
895913,22732,48636,15656,48424,-3800,212,607,6,451,-147,591,4194,1,39,867,1761,1823,2074,2246,2162,1920,1925,2075
896914,22756,48700,15721,48489,-3800,263,585,19,457,-115,709,4204,12,36,867,1761,1823,2074,2246,2162,1920,1925,2075
897915,22748,48764,15786,48554,-3800,264,532,55,471,119,959,3998,-4,29,867,1761,1823,2074,2246,2162,1920,1925,2075
898916,22744,48832,15851,48619,-3800,210,455,93,478,85,1025,3917,-5,36,867,1761,1823,2074,2246,2162,1920,1925,2075
899917,22756,48888,15916,48684,-3800,371,366,137,472,-3,1170,3875,-1,29,867,1789,1875,2110,2287,2104,1861,1902,2041
900918,22760,48980,15981,48749,-3800,-111,278,168,469,-10,1175,4052,5,29,867,1789,1875,2110,2287,2104,1861,1902,2041
901919,22752,49028,16046,48814,-3800,458,189,172,456,-113,1212,3872,4,42,867,1789,1875,2110,2287,2104,1861,1902,2041
902920,22748,49100,16111,48879,-3800,150,111,143,451,-285,1099,3903,-6,28,867,1789,1875,2110,2287,2104,1861,1902,2041
903921,22752,49148,16176,48944,-3800,470,47,116,429,-328,1005,3914,-4,39,867,1789,1875,2110,2287,2104,1861,1902,2041
904922,22752,49216,16241,49009,-3800,217,0,75,380,-367,869,3909,-9,31,867,1843,1927,2125,2289,2065,1827,1883,2031
905923,22744,49276,16306,49074,-3800,323,-27,37,331,-354,778,4020,8,27,867,1843,1927,2125,2289,2065,1827,1883,2031
906924,22740,49348,16371,49139,-3800,164,-22,-34,281,-343,550,4114,8,29,867,1843,1927,2125,2289,2065,1827,1883,2031
907925,22728,49412,16436,49204,-3800,266,1,-102,233,-534,492,4313,-7,42,868,1843,1927,2125,2289,2065,1827,1883,2031
908926,22736,49476,16501,49269,-3800,267,35,-181,186,-571,437,4110,8,32,867,1843,1927,2125,2289,2065,1827,1883,2031
909927,22724,49524,16566,49334,-3800,488,77,-255,140,-363,347,4364,-10,30,867,1784,1866,2080,2221,2113,1844,1896,2060
910928,22728,49592,16631,49399,-3800,234,119,-324,95,-230,413,4306,8,28,866,1784,1866,2080,2221,2113,1844,1896,2060
911929,22732,49644,16696,49464,-3800,450,144,-341,52,-206,552,4339,0,26,867,1784,1866,2080,2221,2113,1844,1896,2060
912930,22716,49712,16761,49529,-3800,246,160,-334,20,234,588,4222,3,28,867,1784,1866,2080,2221,2113,1844,1896,2060
913931,22716,49768,16826,49594,-3800,406,161,-305,2,442,637,4246,-9,33,867,1784,1866,2080,2221,2113,1844,1896,2060
914932,22716,49828,16891,49659,-3800,362,149,-267,-3,210,760,4129,-1,27,867,1784,1866,2080,2221,2113,1844,1896,2060
915933,22728,49900,16956,49724,-3800,204,123,-248,-8,126,907,3964,5,40,867,1760,1849,2058,2240,2107,1866,1904,2041
916934,22712,49960,17021,49789,-3800,360,85,-233,-15,111,997,4024,-9,31,868,1760,1849,2058,2240,2107,1866,1904,2041
917935,22704,50016,17086,49854,-3800,421,29,-238,-17,152,1144,3817,-3,33,867,1760,1849,2058,2240,2107,1866,1904,2041
918936,22708,50068,17151,49919,-3800,487,-36,-246,-22,220,1188,3786,5,28,867,1760,1849,2058,2240,2107,1866,1904,2041
919937,22696,50132,17216,49984,-3800,338,-102,-267,-32,85,1188,3747,-10,41,866,1760,1849,2058,2240,2107,1866,1904,2041
920938,22700,50204,17281,50049,-3800,229,-153,-302,-46,-18,1083,3790,3,34,866,1816,1895,2115,2317,2082,1863,1899,2005
921939,22692,50260,17346,50114,-3800,440,-196,-333,-74,-102,975,3879,-9,26,867,1816,1895,2115,2317,2082,1863,1899,2005
922940,22688,50332,17411,50179,-3800,232,-221,-340,-106,65,804,3967,-1,26,867,1816,1895,2115,2317,2082,1863,1899,2005
923941,22692,50396,17476,50244,-3800,333,-226,-334,-143,235,653,4110,-9,27,867,1816,1895,2115,2317,2082,1863,1899,2005
924942,22676,50448,17541,50309,-3800,499,-222,-325,-188,219,494,4182,0,39,867,1816,1895,2115,2317,2082,1863,1899,2005
925943,22676,50516,17606,50374,-3800,295,-202,-298,-233,250,319,4426,-3,38,866,1816,1895,2115,2317,2082,1863,1899,2005
926944,22672,50572,17671,50439,-3800,456,-170,-268,-272,384,255,4346,1,38,874,1814,1882,2113,2296,2094,1866,1888,2024
927945,22672,50644,17736,50504,-3800,248,-131,-231,-314,280,172,4458,-3,31,867,1814,1882,2113,2296,2094,1866,1888,2024
928946,22656,50700,17801,50569,-3800,459,-100,-162,-354,350,126,4462,2,33,867,1814,1882,2113,2296,2094,1866,1888,2024
929947,22672,50768,17866,50634,-3800,305,-75,-85,-384,458,178,4467,8,38,866,1814,1882,2113,2296,2094,1866,1888,2024
930948,22664,50836,17931,50699,-3800,300,-66,-15,-403,399,232,4351,-1,36,859,1814,1882,2113,2296,2094,1866,1888,2024
931949,22656,50892,17996,50764,-3800,461,-70,29,-412,224,321,4250,-3,36,867,1785,1858,2095,2269,2083,1843,1874,2004
932950,22660,50948,18061,50829,-3800,472,-90,54,-425,205,441,4105,1,24,867,1785,1858,2095,2269,2083,1843,1874,2004
933951,22648,51004,18126,50894,-3800,483,-125,88,-428,202,494,3983,4,33,866,1785,1858,2095,2269,2083,1843,1874,2004
934952,22656,51060,18191,50959,-3800,494,-176,113,-423,271,598,3822,4,27,861,1785,1858,2095,2269,2083,1843,1874,2004
935953,22644,51124,18256,51024,-3800,395,-227,107,-412,256,640,3694,8,38,866,1785,1858,2095,2269,2083,1843,1874,2004
936954,22640,51180,18321,51089,-3800,506,-272,92,-400,75,682,3737,6,32,867,1785,1858,2095,2269,2083,1843,1874,2004
937955,22640,51244,18386,51154,-3800,408,-308,64,-394,126,651,3701,6,36,865,1806,1883,2099,2298,2063,1837,1882,1999
938956,22644,51304,18451,51219,-3800,464,-339,52,-392,304,609,3745,10,29,862,1806,1883,2099,2298,2063,1837,1882,1999
939957,22636,51380,18516,51284,-3800,250,-352,64,-386,505,490,3732,7,32,866,1806,1883,2099,2298,2063,1837,1882,1999
940958,22628,51448,18581,51349,-3800,347,-353,92,-390,676,410,3843,3,40,867,1806,1883,2099,2298,2063,1837,1882,1999
941959,22636,51504,18646,51414,-3800,508,-344,120,-399,777,285,3771,8,36,867,1806,1883,2099,2298,2063,1837,1882,1999
942960,22632,51576,18711,51479,-3800,299,-318,157,-412,748,89,3923,8,41,864,1797,1867,2078,2262,2092,1856,1894,2025
943961,22624,51644,18776,51544,-3702,345,-281,182,-427,821,26,3809,2,39,867,1797,1867,2078,2262,2092,1856,1894,2025
944962,22616,51692,18841,51609,-3615,616,-246,205,-439,767,-133,3932,8,42,867,1797,1867,2078,2262,2092,1856,1894,2025
945963,22620,51764,18906,51674,-3691,308,-205,228,-452,706,-164,3869,8,34,866,1797,1867,2078,2262,2092,1856,1894,2025
946964,22620,51832,18971,51739,-3563,354,-174,209,-454,517,-133,3797,6,41,865,1797,1867,2078,2262,2092,1856,1894,2025
947965,22612,51912,19036,51804,-3376,186,-151,156,-461,262,-108,3831,6,30,867,1797,1867,2078,2262,2092,1856,1894,2025
948966,22608,51984,19101,51869,-3343,277,-141,97,-455,37,-63,3784,-8,36,867,1771,1847,2063,2239,2082,1815,1869,1995
949967,22620,52056,19166,51934,-3480,269,-147,63,-447,221,-44,3840,-8,26,868,1771,1847,2063,2239,2082,1815,1869,1995
950968,22604,52108,19231,51999,-3032,534,-167,66,-442,362,-69,3680,-6,27,866,1771,1847,2063,2239,2082,1815,1869,1995
951969,22592,52180,19430,52198,-2825,439,-198,83,-423,81,5,3857,7,37,867,1771,1847,2063,2239,2082,1815,1869,1995
952970,22596,52240,19495,52263,-2952,596,-226,83,-396,157,30,3576,-3,26,866,1771,1847,2063,2239,2082,1815,1869,1995
953971,22588,52312,19560,52328,-2715,437,-247,112,-375,261,61,3842,5,28,866,1795,1874,2063,2270,2025,1788,1848,1969
954972,22592,52376,19625,52393,-2791,538,-275,132,-356,181,112,3587,7,27,864,1795,1874,2063,2270,2025,1788,1848,1969
955973,22584,52440,19690,52458,-2553,539,-297,139,-335,132,82,3710,4,42,866,1795,1874,2063,2270,2025,1788,1848,1969
956974,22576,52500,19755,52523,-2465,596,-313,125,-312,228,70,3738,4,41,866,1795,1874,2063,2270,2025,1788,1848,1969
957975,22592,52580,19820,52588,-2706,327,-313,103,-288,91,36,3811,8,28,866,1795,1874,2063,2270,2025,1788,1848,1969
958976,22568,52648,19885,52653,-2099,474,-309,90,-263,104,-38,3852,-8,42,866,1795,1874,2063,2270,2025,1788,1848,1969
959977,22576,52728,19950,52718,-2430,305,-298,96,-251,272,-70,3839,-2,43,867,1819,1893,2090,2282,2036,1806,1866,1983
960978,22560,52800,20015,52783,-2032,397,-275,119,-240,419,-163,3838,-9,40,867,1819,1893,2090,2282,2036,1806,1866,1983
961979,22548,52856,20080,52848,-1989,608,-238,124,-222,413,-186,3845,7,31,867,1819,1893,2090,2282,2036,1806,1866,1983
962980,22564,52940,20145,52913,-2280,235,-191,120,-214,240,-233,3844,3,34,865,1819,1893,2090,2282,2036,1806,1866,1983
963981,22556,53000,20210,52978,-1892,541,-141,93,-219,158,-262,3809,-8,29,867,1819,1893,2090,2282,2036,1806,1866,1983
964982,22540,53056,20275,53043,-1694,602,-96,65,-215,156,-247,3978,-8,42,867,1812,1882,2090,2280,2067,1838,1886,2005
965983,22548,53124,20340,53108,-1926,448,-61,41,-205,283,-257,3863,7,40,866,1812,1882,2090,2280,2067,1838,1886,2005
966984,22540,53196,20405,53173,-1638,389,-31,34,-199,244,-217,3958,3,27,865,1812,1882,2090,2280,2067,1838,1886,2005
967985,22536,53264,20470,53238,-1603,436,-16,33,-188,229,-139,3842,2,36,867,1812,1882,2090,2280,2067,1838,1886,2005
968986,22536,53340,20535,53303,-1575,322,-5,23,-178,121,-119,3876,-9,28,866,1812,1882,2090,2280,2067,1838,1886,2005
969987,22528,53392,20600,53368,-1387,637,-6,28,-169,-11,-59,3938,-9,39,867,1812,1882,2090,2280,2067,1838,1886,2005
970988,22524,53452,20665,53433,-1354,543,-9,35,-143,172,-34,3892,6,29,866,1824,1877,2097,2302,2045,1811,1867,1978
971989,22524,53520,20730,53498,-1324,440,-12,60,-113,102,16,3984,4,33,865,1824,1877,2097,2302,2045,1811,1867,1978
972990,22520,53568,20795,53563,-1191,710,-23,59,-83,-88,4,4049,3,27,866,1824,1877,2097,2302,2045,1811,1867,1978
973991,22520,53632,20860,53628,-1163,512,-26,75,-60,-134,-46,4094,-8,32,866,1824,1877,2097,2302,2045,1811,1867,1978
974992,22516,53688,20925,53693,-1029,623,-29,49,-23,-194,-123,4126,-3,26,865,1824,1877,2097,2302,2045,1811,1867,1978
975993,22520,53768,20990,53758,-1055,304,-21,52,7,-255,-102,4179,9,33,866,1837,1903,2103,2306,2023,1799,1856,1973
976994,22496,53828,21055,53823,-598,560,-15,47,33,-182,-155,4182,-3,39,866,1837,1903,2103,2306,2023,1799,1856,1973
977995,22508,53880,21120,53888,-983,676,13,63,42,-159,-171,4255,7,37,867,1837,1903,2103,2306,2023,1799,1856,1973
978996,22508,53940,21185,53953,-754,582,41,55,59,-167,-228,4234,8,38,865,1837,1903,2103,2306,2023,1799,1856,1973
979999,22488,54000,21250,54018,-401,588,74,47,59,-133,-260,4192,0,27,865,1837,1903,2103,2306,2023,1799,1856,1973
980998,22484,54072,21315,54083,-518,430,107,50,61,-79,-251,4214,9,36,866,1837,1903,2103,2306,2023,1799,1856,1973
981999,22500,54128,21380,54148,-708,641,142,54,60,121,-239,4111,9,25,866,1829,1899,2104,2290,2050,1819,1875,2002
983000,22492,54188,21445,54213,-320,597,179,53,53,16,-221,4148,9,22,865,1829,1899,2104,2290,2050,1819,1875,2002
984001,22492,54252,21510,54278,-340,548,217,33,36,-180,-169,3971,2,27,865,1829,1899,2104,2290,2050,1819,1875,2002
985002,22496,54308,21575,54343,-316,659,240,16,29,-110,-73,4088,-5,34,865,1829,1899,2104,2290,2050,1819,1875,2002
986003,22496,54360,21640,54408,-187,725,254,5,15,-78,-17,3871,-4,29,865,1829,1899,2104,2290,2050,1819,1875,2002
987004,22496,54428,21705,54473,-108,521,260,0,19,-138,43,3964,10,31,865,1837,1911,2117,2311,2065,1829,1887,2007
988005,22488,54484,21770,54538,81,683,265,-20,27,-146,96,3840,11,22,865,1837,1911,2117,2311,2065,1829,1887,2007
989006,22492,54540,21835,54603,4,694,256,-44,38,-191,143,3881,1,26,863,1837,1911,2117,2311,2065,1829,1887,2007
990007,22492,54588,21900,54668,134,815,248,-55,43,-194,176,3899,10,35,865,1837,1911,2117,2311,2065,1829,1887,2007
991008,22488,54636,21965,54733,268,836,241,-76,62,-152,210,4020,0,24,864,1837,1911,2117,2311,2065,1829,1887,2007
992009,22492,54688,22030,54798,243,802,237,-88,70,-108,186,4059,9,37,864,1837,1911,2117,2311,2065,1829,1887,2007
993010,22492,54736,22095,54863,372,873,230,-91,79,-176,135,4193,12,26,863,1848,1916,2114,2310,2046,1816,1878,1998
994011,22512,54812,22160,54928,176,509,224,-115,92,-178,154,4151,-3,38,863,1848,1916,2114,2310,2046,1816,1878,1998
995012,22500,54884,22225,54993,670,551,231,-120,110,-208,115,4375,3,37,864,1848,1916,2114,2310,2046,1816,1878,1998
996013,22508,54928,22290,55058,489,926,241,-147,114,-107,10,4162,9,38,864,1848,1916,2114,2310,2046,1816,1878,1998
997014,22524,54996,22355,55123,449,623,256,-156,106,-162,-138,4338,19,36,861,1848,1916,2114,2310,2046,1816,1878,1998
998015,22532,55052,22420,55188,619,784,275,-147,101,-163,-211,4265,5,37,862,1811,1882,2085,2266,2056,1823,1873,2006
999016,22544,55092,22485,55253,633,1014,291,-143,96,-97,-200,4181,7,38,863,1811,1882,2085,2266,2056,1823,1873,2006
1000017,22560,55160,22550,55318,643,660,310,-153,89,-244,-169,4169,18,39,861,1811,1882,2085,2266,2056,1823,1873,2006
1001018,22592,55208,22615,55383,484,931,324,-187,80,-347,-137,4060,17,27,859,1811,1882,2085,2266,2056,1823,1873,2006
1002019,22628,55268,22680,55448,469,787,334,-230,71,-409,-111,3994,14,39,863,1811,1882,2085,2266,2056,1823,1873,2006
1003020,22668,55312,22745,55513,449,1013,334,-265,55,-332,-55,3961,22,37,861,1811,1882,2085,2266,2056,1823,1873,2006
1004021,22704,55376,22810,55578,535,764,330,-280,52,-256,-22,3947,17,38,862,1796,1873,2087,2267,2079,1841,1888,2020
1005022,22724,55444,22875,55643,790,710,315,-286,54,-173,43,3833,23,33,860,1796,1873,2087,2267,2079,1841,1888,2020
1006023,22776,55496,22940,55708,406,926,296,-277,54,-222,115,3946,22,31,861,1796,1873,2087,2267,2079,1841,1888,2020
1007024,22832,55568,23005,55773,367,668,276,-270,58,-188,151,3772,25,30,861,1796,1873,2087,2267,2079,1841,1888,2020
1008025,22864,55616,23070,55838,707,989,253,-270,61,-48,209,3904,22,29,862,1796,1873,2087,2267,2079,1841,1888,2020
1009026,22920,55672,23135,55903,418,900,236,-248,58,-83,188,3946,28,43,864,1818,1894,2103,2290,2086,1846,1900,2028
1010027,22956,55728,23200,55968,703,911,217,-222,63,44,236,3951,27,38,859,1818,1894,2103,2290,2086,1846,1900,2028
1011028,23020,55796,23265,56033,355,758,203,-205,73,23,126,3951,30,34,862,1818,1894,2103,2290,2086,1846,1900,2028
1012029,23064,55864,23330,56098,631,754,190,-194,82,-104,72,3954,39,37,860,1818,1894,2103,2290,2086,1846,1900,2028
1013030,23132,55924,23395,56163,328,860,184,-191,90,-138,82,4062,43,42,863,1818,1894,2103,2290,2086,1846,1900,2028
1014031,23192,55980,23460,56228,434,921,184,-183,91,-50,92,4066,28,42,862,1818,1894,2103,2290,2086,1846,1900,2028
1015032,23240,56044,23525,56293,604,822,196,-210,91,-194,53,4001,44,29,862,1810,1879,2087,2272,2084,1845,1890,2017
1016033,23296,56092,23590,56358,515,1043,207,-231,88,-223,42,4049,48,36,862,1810,1879,2087,2272,2084,1845,1890,2017
1017034,23372,56164,23655,56423,252,735,219,-256,83,-209,3,4077,33,47,861,1810,1879,2087,2272,2084,1845,1890,2017
1018035,23420,56232,23720,56488,623,781,225,-273,87,-153,-60,4100,31,43,860,1810,1879,2087,2272,2084,1845,1890,2017
