%  Data file recorded 2016/9/5  15:20:59
%  Stride Frequency         = [1, 1]
%  Lead In /Lead Out        = 
%  Deltas (Fractional)      = [0.25, 0.25, 0.25],[0.25, 0.25, 0.25]
%  Phase                    = 32768
%  Experiment.py 
%  Motor Gains    = [5000, 400, 200, 0, 300, 5000, 400, 200, 0, 300]
% Columns: 
% time | Right Leg Pos | Left Leg Pos | Commanded Right Leg Pos | Commanded Left Leg Pos | DCR | DCL | GyroX | GyroY | GyroZ | AX | AY | AZ | RBEMF | LBEMF | VBatt | S1 | S2 | S3 | S4 | S5 | S6 | S7 | S8
249,-45372,-15396,-46762,-13994,-3800,1723,-7,1,5,-4,64,3939,1,1,844,1780,1876,2080,2240,2009,1800,1865,1978
1250,-45356,-15400,-46762,-13994,-3800,1878,-8,2,3,-17,82,3950,-5,8,844,1780,1876,2080,2240,2009,1800,1865,1978
2251,-45376,-15392,-46762,-13994,-3800,1719,-7,0,6,-31,79,3928,-9,-4,844,1780,1876,2080,2240,2009,1800,1865,1978
3252,-45364,-15404,-46762,-13994,-3800,1984,-5,1,4,-10,81,3932,-3,-5,844,1780,1876,2080,2240,2009,1800,1865,1978
4253,-45368,-15392,-46762,-13994,-3800,1670,-4,3,4,-1,84,3924,0,2,844,1780,1876,2080,2240,2009,1800,1865,1978
5254,-45376,-15408,-46762,-13994,-3800,2040,-5,3,2,-20,53,3906,10,8,844,1780,1876,2080,2240,2009,1800,1865,1978
6255,-45368,-15408,-46762,-13994,-3800,1841,-4,3,1,-13,85,3911,-3,1,844,1778,1874,2077,2239,2009,1799,1865,1979
7256,-45372,-15408,-46762,-13994,-3800,1841,-4,1,0,-19,73,3935,-7,-5,844,1778,1874,2077,2239,2009,1799,1865,1979
8257,-45376,-15400,-46762,-13994,-3800,1732,-5,1,1,-2,80,3909,-6,1,844,1778,1874,2077,2239,2009,1799,1865,1979
9258,-45376,-15396,-46762,-13994,-3800,1777,-7,4,3,3,77,3940,7,8,844,1778,1874,2077,2239,2009,1799,1865,1979
10259,-45364,-15408,-46762,-13994,-3800,1993,-4,4,2,-19,76,3963,10,-4,844,1778,1874,2077,2239,2009,1799,1865,1979
11260,-45360,-15404,-46762,-13994,-3800,1789,-6,3,2,-20,75,3951,1,3,844,1780,1874,2080,2240,2009,1799,1864,1978
12261,-45364,-15404,-46762,-13994,-3800,1839,-5,4,2,-12,75,3969,-7,9,844,1780,1874,2080,2240,2009,1799,1864,1978
13262,-45364,-15408,-46762,-13994,-3800,1895,-6,3,4,-19,59,3949,-8,-2,844,1780,1874,2080,2240,2009,1799,1864,1978
14263,-45380,-15400,-46762,-13994,-3800,1735,-6,3,2,-22,49,3952,-3,0,844,1780,1874,2080,2240,2009,1799,1864,1978
15264,-45372,-15396,-46762,-13994,-3800,1781,-2,-1,1,-11,69,3968,9,9,844,1780,1874,2080,2240,2009,1799,1864,1978
16265,-45368,-15400,-46762,-13994,-3800,1886,-2,-1,1,-6,69,3920,10,2,844,1780,1874,2080,2240,2009,1799,1864,1978
17266,-45368,-15396,-46762,-13994,-3800,1782,-4,1,1,-2,65,3922,1,-5,844,1779,1874,2077,2239,2009,1799,1865,1979
18267,-45368,-15408,-46762,-13994,-3800,1997,-6,2,2,-7,68,3934,-8,5,844,1779,1874,2077,2239,2009,1799,1865,1979
19268,-45376,-15396,-46762,-13994,-3800,1683,-5,2,2,-15,68,3916,2,5,842,1779,1874,2077,2239,2009,1799,1865,1979
20269,-45356,-15408,-46762,-13994,-3800,1998,-4,1,4,31,57,3930,10,8,843,1779,1874,2077,2239,2009,1799,1865,1979
21270,-45368,-15396,-46762,-13994,-3800,1684,-3,0,3,24,63,3921,8,1,844,1779,1874,2077,2239,2009,1799,1865,1979
22271,-45376,-15392,-46762,-13994,-3800,1779,-3,0,1,9,63,3912,5,-6,844,1780,1874,2080,2240,2009,1798,1865,1978
23272,-45364,-15400,-46762,-13994,-3800,1940,-5,2,0,-5,57,3943,-4,6,844,1780,1874,2080,2240,2009,1798,1865,1978
24273,-45368,-15404,-46762,-13994,-3800,1895,-6,2,-1,4,56,3923,-7,8,844,1780,1874,2080,2240,2009,1798,1865,1978
25274,-45360,-15392,-46762,-13994,-3800,1681,-4,1,0,-13,80,3921,-9,3,844,1780,1874,2080,2240,2009,1798,1865,1978
26275,-45364,-15412,-46762,-13994,-3800,2106,-2,-1,-1,-3,76,3909,-5,-5,844,1780,1874,2080,2240,2009,1798,1865,1978
27276,-45376,-15412,-46762,-13994,-3800,1856,-1,0,-1,-34,81,3947,7,5,844,1780,1874,2080,2240,2009,1798,1865,1978
28277,-45380,-15404,-46762,-13994,-3800,1748,-2,2,-1,0,68,3934,10,8,844,1779,1875,2077,2239,2009,1799,1865,1979
29278,-45364,-15392,-46762,-13994,-3800,1683,-2,2,1,-7,52,3908,5,-4,844,1779,1875,2077,2239,2009,1799,1865,1979
30279,-45364,-15392,-46762,-13994,-3800,1834,-3,2,2,-19,53,3917,-4,-6,844,1779,1875,2077,2239,2009,1799,1865,1979
31280,-45364,-15396,-46762,-13994,-3800,1889,-4,0,2,-15,83,3925,-1,3,844,1779,1875,2077,2239,2009,1799,1865,1979
32281,-45368,-15392,-46762,-13994,-3800,1785,-3,-1,2,3,91,3937,-9,6,844,1779,1875,2077,2239,2009,1799,1865,1979
33282,-45372,-15416,-46762,-13994,-3800,2164,-5,0,1,-12,71,3944,-7,-2,844,1780,1874,2080,2240,2010,1799,1864,1978
34283,-45372,-15396,-46762,-13994,-3800,1591,-6,2,0,-30,81,3930,-7,-4,844,1780,1874,2080,2240,2010,1799,1864,1978
35284,-45364,-15400,-46762,-13994,-3800,1896,0,2,2,-20,82,3922,-4,9,844,1780,1874,2080,2240,2010,1799,1864,1978
36285,-45372,-15400,-46762,-13994,-3800,1847,2,2,2,-14,68,3926,-2,7,842,1780,1874,2080,2240,2010,1799,1864,1978
37286,-45368,-15392,-46762,-13994,-3800,1737,-2,-1,2,-8,81,3924,-8,2,842,1780,1874,2080,2240,2010,1799,1864,1978
38287,-45368,-15404,-46762,-13994,-3800,2003,-5,2,2,-26,95,3947,-4,-5,844,1780,1874,2080,2240,2010,1799,1864,1978
39288,-45372,-15408,-46762,-13994,-3800,1908,-6,4,0,-27,86,3967,8,4,844,1779,1874,2078,2239,2011,1799,1864,1979
40289,-45368,-15404,-46762,-13994,-3800,1804,-5,3,2,-4,109,3932,10,9,844,1779,1874,2078,2239,2011,1799,1864,1979
41290,-45372,-15400,-46762,-13994,-3800,1800,-3,3,2,-9,80,3926,9,-4,844,1779,1874,2078,2239,2011,1799,1864,1979
42291,-45360,-15404,-46762,-13994,-3800,1905,-1,2,2,-8,63,3960,4,-6,844,1779,1874,2078,2239,2011,1799,1864,1979
43292,-45368,-15388,-46762,-13994,-3800,1636,-1,3,2,-1,65,3945,0,2,844,1779,1874,2078,2239,2011,1799,1864,1979
44293,-45376,-15396,-46762,-13994,-3800,1946,0,3,0,3,84,3926,-8,8,844,1779,1874,2077,2240,2011,1799,1865,1979
45294,-45364,-15392,-46762,-13994,-3800,1792,-2,2,3,2,87,3952,-9,0,844,1779,1874,2077,2240,2011,1799,1865,1979
46295,-45356,-15400,-46762,-13994,-3800,1952,-5,1,3,6,98,3954,-8,-6,844,1779,1874,2077,2240,2011,1799,1865,1979
47296,-45368,-15396,-46762,-13994,-3800,1798,-5,2,2,-32,85,3938,-5,9,844,1779,1874,2077,2240,2011,1799,1865,1979
48297,-45360,-15408,-46762,-13994,-3800,2013,-5,2,1,-15,89,3956,6,1,844,1779,1874,2077,2240,2011,1799,1865,1979
49300,-45368,-15404,-46762,-13994,-3800,1809,-6,3,1,-18,70,3919,6,-6,844,1779,1874,2077,2240,2011,1799,1865,1979
50299,-45364,-15408,-46762,-13994,-3800,1914,-5,2,2,-17,92,3917,10,5,844,1778,1874,2077,2239,2011,1799,1865,1979
51300,-45372,-15384,-46762,-13994,-3800,1535,-1,2,2,-1,93,3931,9,8,844,1778,1874,2077,2239,2011,1799,1865,1979
52301,-45372,-15388,-46762,-13994,-3800,1890,-1,3,3,6,96,3948,10,2,844,1778,1874,2077,2239,2011,1799,1865,1979
53302,-45360,-15396,-46762,-13994,-3800,1951,-3,4,2,12,62,3915,8,-5,843,1778,1874,2077,2239,2011,1799,1865,1979
54303,-45368,-15404,-46762,-13994,-3800,1961,-4,3,2,-15,65,3903,-8,-6,842,1778,1874,2077,2239,2011,1799,1865,1979
55304,-45360,-15408,-46762,-13994,-3800,1917,-6,2,2,-33,58,3934,-8,-3,844,1780,1875,2080,2240,2010,1800,1865,1978
56305,-45376,-15404,-46762,-13994,-3800,1813,-6,3,2,-3,96,3924,-5,9,844,1780,1875,2080,2240,2010,1800,1865,1978
57306,-45360,-15404,-46762,-13994,-3800,1863,-4,4,3,-17,90,3952,2,3,844,1780,1875,2080,2240,2010,1800,1865,1978
58307,-45360,-15408,-46762,-13994,-3800,1919,-6,3,3,-13,72,3942,5,-6,844,1780,1875,2080,2240,2010,1800,1865,1978
59308,-45376,-15396,-46762,-13994,-3800,1704,-7,1,4,-7,48,3916,10,4,844,1780,1875,2080,2240,2010,1800,1865,1978
60309,-45360,-15392,-46762,-13994,-3800,1800,-6,1,3,4,53,3922,1,9,844,1780,1875,2080,2240,2010,1800,1865,1978
61310,-45376,-15400,-46762,-13994,-3800,1960,-6,3,3,-17,68,3935,-6,5,844,1778,1874,2077,2239,2011,1799,1864,1979
62311,-45364,-15408,-46762,-13994,-3800,1971,-7,3,2,-6,57,3911,-4,-6,844,1778,1874,2077,2239,2011,1799,1864,1979
63312,-45360,-15404,-46762,-13994,-3800,1816,-6,2,0,-2,66,3935,7,5,844,1778,1874,2077,2239,2011,1799,1864,1979
64313,-45360,-15396,-46762,-13994,-3800,1757,-6,-1,0,11,66,3949,9,8,844,1778,1874,2077,2239,2011,1799,1864,1979
65314,-45376,-15388,-46762,-13994,-3800,1747,-7,-1,3,-3,60,3945,9,-6,844,1778,1874,2077,2239,2011,1799,1864,1979
66315,-45376,-15392,-46762,-13994,-3800,1903,-5,2,3,-11,53,3951,-7,-2,844,1778,1873,2076,2240,2010,1798,1863,1978
67316,-45356,-15388,-46762,-13994,-3800,1798,-6,3,3,-10,68,3966,-8,7,844,1778,1873,2076,2240,2010,1798,1863,1978
68317,-45372,-15400,-46762,-13994,-3800,2014,-7,2,1,-8,78,3964,-5,-1,844,1778,1873,2076,2240,2010,1798,1863,1978
69318,-45360,-15408,-46762,-13994,-3800,1974,-7,3,-2,2,66,3941,1,-6,844,1778,1873,2076,2240,2010,1798,1863,1978
70319,-45364,-15396,-46762,-13994,-3800,1710,-5,2,2,-16,63,3954,-1,-3,843,1778,1873,2076,2240,2010,1798,1863,1978
71320,-45376,-15396,-46762,-13994,-3800,1861,-6,3,4,-17,76,3950,-8,7,843,1778,1873,2076,2240,2010,1798,1863,1978
72321,-45380,-15396,-46762,-13994,-3800,1861,-7,3,3,17,81,3958,-4,8,844,1778,1874,2077,2239,2010,1799,1864,1978
73322,-45372,-15408,-46762,-13994,-3800,2027,-4,2,1,27,64,3946,-1,-2,844,1778,1874,2077,2239,2010,1799,1864,1978
74323,-45368,-15412,-46762,-13994,-3800,1931,-3,2,1,3,67,3943,7,-5,844,1778,1874,2077,2239,2010,1799,1864,1978
75324,-45368,-15400,-46762,-13994,-3800,1718,-5,1,1,-11,67,3900,9,3,844,1778,1874,2077,2239,2010,1799,1864,1978
76325,-45360,-15392,-46762,-13994,-3800,1758,-5,0,1,-25,72,3887,6,8,844,1778,1874,2077,2239,2010,1799,1864,1978
77326,-45368,-15400,-46762,-13994,-3800,1969,-5,0,-1,-2,70,3905,-3,-6,844,1778,1874,2077,2240,2010,1798,1863,1978
78327,-45380,-15404,-46762,-13994,-3800,1924,-4,1,0,1,49,3913,-6,2,844,1778,1874,2077,2240,2010,1798,1863,1978
79328,-45372,-15408,-46762,-13994,-3800,1930,-2,5,0,-26,74,3918,-2,8,844,1778,1874,2077,2240,2010,1798,1863,1978
80329,-45372,-15404,-46762,-13994,-3800,1825,-4,6,0,-30,65,3941,-9,-6,844,1778,1874,2077,2240,2010,1798,1863,1978
81330,-45372,-15396,-46762,-13994,-3800,1766,-6,1,0,-7,69,3928,-5,2,844,1778,1874,2077,2240,2010,1798,1863,1978
82331,-45372,-15392,-46762,-13994,-3800,1811,-4,-2,0,-6,69,3958,-7,7,844,1778,1874,2077,2240,2010,1798,1863,1978
83332,-45364,-15400,-46762,-13994,-3800,1972,-1,-1,2,-16,85,3943,2,-6,844,1779,1875,2077,2239,2011,1798,1864,1977
84333,-45360,-15404,-46762,-13994,-3800,1927,-1,2,3,-10,71,3909,9,-1,844,1779,1875,2077,2239,2011,1798,1864,1977
85334,-45368,-15404,-46762,-13994,-3800,1878,-4,4,1,-6,41,3899,8,9,844,1779,1875,2077,2239,2011,1798,1864,1977
86335,-45368,-15392,-46762,-13994,-3800,1714,-7,2,2,-20,67,3909,9,-6,844,1779,1875,2077,2239,2011,1798,1864,1977
87336,-45368,-15400,-46762,-13994,-3800,1974,-5,-1,1,-22,65,3917,7,-3,842,1779,1875,2077,2239,2011,1798,1864,1977
88337,-45356,-15408,-46762,-13994,-3800,1985,-3,0,1,-16,69,3903,-8,7,842,1779,1874,2077,2239,2010,1799,1865,1977
89338,-45360,-15400,-46762,-13994,-3800,1775,-3,0,1,-10,55,3933,-9,-3,844,1779,1874,2077,2239,2010,1799,1865,1977
90339,-45376,-15404,-46762,-13994,-3800,1931,-4,1,0,0,61,3973,-6,-2,844,1779,1874,2077,2239,2010,1799,1865,1977
91340,-45372,-15388,-46762,-13994,-3800,1661,-3,0,3,-13,55,3971,-4,8,844,1779,1874,2077,2239,2010,1799,1865,1977
92341,-45368,-15420,-46762,-13994,-3800,2301,-3,0,1,21,73,3941,1,-6,844,1779,1874,2077,2239,2010,1799,1865,1977
93342,-45368,-15404,-46762,-13994,-3800,1682,-4,1,0,4,74,3942,7,7,844,1779,1874,2077,2239,2010,1799,1865,1977
94343,-45376,-15400,-46762,-13994,-3800,1828,-4,3,1,-7,74,3943,10,3,844,1779,1874,2078,2239,2011,1800,1865,1979
95344,-45364,-15396,-46762,-13994,-3800,1823,-3,3,1,2,105,3943,7,-2,844,1779,1874,2078,2239,2011,1800,1865,1979
96345,-45368,-15388,-46762,-13994,-3800,1764,-3,1,2,6,85,3976,-3,8,844,1779,1874,2078,2239,2011,1800,1865,1979
97347,-45376,-15408,-46762,-13994,-3800,2139,-1,-1,1,-14,71,3965,-3,1,844,1779,1874,2078,2239,2011,1800,1865,1979
98347,-45360,-15396,-46762,-13994,-3800,1725,-3,0,-1,-42,75,3922,-9,-4,844,1779,1874,2078,2239,2011,1800,1865,1979
99348,-45376,-15396,-46762,-13994,-3800,1875,-2,0,-1,-17,93,3946,-9,7,844,1778,1874,2078,2239,2011,1799,1865,1979
100349,-45372,-15400,-46762,-13994,-3800,1931,-2,1,-1,-22,62,3960,-8,6,844,1778,1874,2078,2239,2011,1799,1865,1979
101350,-45368,-15396,-46762,-13994,-3800,1827,-3,0,1,-12,70,3951,-8,-6,844,1778,1874,2078,2239,2011,1799,1865,1979
102351,-45360,-15396,-46762,-13994,-3800,1877,-2,-1,3,-14,81,3938,-8,7,844,1778,1874,2078,2239,2011,1799,1865,1979
103352,-45376,-15396,-46762,-13994,-3800,1878,-2,1,3,-20,87,3948,-7,2,844,1778,1874,2078,2239,2011,1799,1865,1979
104353,-45364,-15404,-46762,-13994,-3800,1988,-2,3,3,-30,59,3953,0,-6,843,1779,1875,2078,2239,2012,1800,1865,1977
105354,-45372,-15408,-46762,-13994,-3800,1944,-2,2,3,-31,68,3940,-8,1,843,1779,1875,2078,2239,2012,1800,1865,1977
106355,-45376,-15404,-46762,-13994,-3800,1839,-3,-1,4,-34,58,3963,-9,8,844,1779,1875,2078,2239,2012,1800,1865,1977
107356,-45376,-15396,-46762,-13994,-3800,1780,-2,-2,2,-1,72,3954,-7,-5,844,1779,1875,2078,2239,2012,1800,1865,1977
108357,-45364,-15408,-46762,-13994,-3800,2045,-4,-2,1,-19,79,3971,-5,2,844,1779,1875,2078,2239,2012,1800,1865,1977
109358,-45372,-15408,-46762,-13994,-3800,1896,-4,1,2,-32,88,3928,-5,8,844,1779,1875,2078,2239,2012,1800,1865,1977
110359,-45372,-15400,-46762,-13994,-3800,1786,-4,2,2,-30,65,3953,7,-6,844,1779,1875,2077,2240,2012,1800,1865,1979
111360,-45364,-15392,-46762,-13994,-3800,1777,-3,-1,4,-57,78,3936,10,0,844,1779,1875,2077,2240,2012,1800,1865,1979
112361,-45372,-15416,-46762,-13994,-3800,2206,-4,-1,4,-38,88,3960,10,9,844,1779,1875,2077,2240,2012,1800,1865,1979
113362,-45368,-15408,-46762,-13994,-3800,1798,-6,1,3,-7,80,3936,6,-6,844,1779,1875,2077,2240,2012,1800,1865,1979
114363,-45372,-15392,-46762,-13994,-3800,1678,-6,-1,3,-4,68,3919,1,1,844,1779,1875,2077,2240,2012,1800,1865,1979
115364,-45364,-15396,-46762,-13994,-3800,1934,-4,-1,2,1,93,3935,3,9,844,1778,1874,2077,2239,2012,1799,1864,1979
116365,-45368,-15392,-46762,-13994,-3800,1830,-3,4,2,-23,70,3939,-6,-3,844,1778,1874,2077,2239,2012,1799,1864,1979
117366,-45364,-15404,-46762,-13994,-3800,2045,-4,4,2,-3,80,3935,-8,-5,844,1778,1874,2077,2239,2012,1799,1864,1979
118367,-45360,-15404,-46762,-13994,-3800,1896,-6,1,2,9,80,3957,-9,2,844,1778,1874,2077,2239,2012,1799,1864,1979
119368,-45368,-15400,-46762,-13994,-3800,1841,-7,1,1,-24,105,3933,-2,5,844,1778,1874,2077,2239,2012,1799,1864,1979
120369,-45376,-15404,-46762,-13994,-3800,1947,-5,2,0,-14,97,3922,7,-5,844,1778,1874,2077,2239,2012,1799,1864,1979
121370,-45364,-15400,-46762,-13994,-3800,1842,-6,2,1,-7,86,3891,-2,-5,842,1778,1874,2077,2240,2012,1799,1864,1979
122371,-45356,-15388,-46762,-13994,-3800,1728,-6,3,2,2,52,3908,-8,7,842,1778,1874,2077,2240,2012,1799,1864,1979
123372,-45376,-15404,-46762,-13994,-3800,2098,-6,4,4,8,78,3920,-9,4,844,1778,1874,2077,2240,2012,1799,1864,1979
124373,-45356,-15400,-46762,-13994,-3800,1844,-6,4,3,-8,87,3897,-8,-5,844,1778,1874,2077,2240,2012,1799,1864,1979
125374,-45372,-15388,-46762,-13994,-3800,1729,-5,1,0,-1,76,3901,5,3,844,1778,1874,2077,2240,2012,1799,1864,1979
126375,-45360,-15392,-46762,-13994,-3800,1935,-5,1,1,5,73,3915,9,8,844,1778,1874,2077,2238,2011,1798,1864,1978
127376,-45376,-15396,-46762,-13994,-3800,1940,-6,2,4,-12,76,3932,8,-6,844,1778,1874,2077,2238,2011,1798,1864,1978
128377,-45364,-15400,-46762,-13994,-3800,1946,-7,4,4,-12,81,3949,10,6,844,1778,1874,2077,2238,2011,1798,1864,1978
129378,-45372,-15388,-46762,-13994,-3800,1731,-7,3,1,1,91,3954,3,7,844,1778,1874,2077,2238,2011,1798,1864,1978
130379,-45372,-15404,-46762,-13994,-3800,2102,-6,0,1,-14,54,3930,5,-5,844,1778,1874,2077,2238,2011,1798,1864,1978
131380,-45368,-15396,-46762,-13994,-3800,1793,-4,1,1,6,54,3924,-5,8,844,1778,1874,2077,2238,2011,1798,1864,1978
132381,-45368,-15400,-46762,-13994,-3800,1948,-4,3,2,-17,92,3942,-9,-2,844,1778,1873,2077,2240,2011,1798,1864,1978
133382,-45356,-15396,-46762,-13994,-3800,1844,-6,4,1,-20,58,3979,-5,-3,844,1778,1873,2077,2240,2011,1798,1864,1978
134383,-45376,-15396,-46762,-13994,-3800,1894,-8,4,2,-19,72,3913,-5,6,844,1778,1873,2077,2240,2011,1798,1864,1978
135384,-45368,-15400,-46762,-13994,-3800,1950,-6,2,0,21,78,3923,-2,-4,844,1778,1873,2077,2240,2011,1798,1864,1978
136385,-45364,-15408,-46762,-13994,-3800,2010,-4,-1,0,2,79,3928,6,-1,844,1778,1873,2077,2240,2011,1798,1864,1978
137386,-45376,-15396,-46762,-13994,-3800,1746,-7,-1,4,-13,62,3910,6,4,844,1778,1874,2077,2238,2011,1798,1864,1978
138387,-45364,-15384,-46762,-13994,-3800,1731,-5,2,2,0,40,3959,10,-5,842,1778,1874,2077,2238,2011,1798,1864,1978
139388,-45352,-15392,-46762,-13994,-3800,1992,-4,2,2,26,49,3976,-7,-1,842,1778,1874,2077,2238,2011,1798,1864,1978
140389,-45368,-15400,-46762,-13994,-3800,2002,-6,2,0,-20,39,3930,-6,4,844,1778,1874,2077,2238,2011,1798,1864,1978
141390,-45372,-15400,-46762,-13994,-3800,1903,-7,2,-1,-20,45,3909,-8,-6,844,1778,1874,2077,2238,2011,1798,1864,1978
142391,-45356,-15400,-46762,-13994,-3800,1903,-4,2,1,-22,68,3929,-5,3,844,1778,1874,2077,2238,2011,1798,1864,1978
143392,-45368,-15400,-46762,-13994,-3800,1904,-2,1,3,-19,89,3964,-8,7,844,1778,1875,2077,2240,2012,1799,1864,1978
144393,-45364,-15392,-46762,-13994,-3800,1794,-2,1,1,-12,82,3964,-8,0,844,1778,1875,2077,2240,2012,1799,1864,1978
145394,-45360,-15400,-46762,-13994,-3800,2005,-3,1,0,-2,86,3953,-6,-5,844,1778,1875,2077,2240,2012,1799,1864,1978
146395,-45368,-15404,-46762,-13994,-3800,1960,-3,0,3,-6,72,3963,4,8,844,1778,1875,2077,2240,2012,1799,1864,1978
147396,-45376,-15408,-46762,-13994,-3800,1966,-3,-1,3,-23,48,3950,10,0,844,1778,1875,2077,2240,2012,1799,1864,1978
148397,-45368,-15400,-46762,-13994,-3800,1807,-4,1,1,11,39,3965,9,-6,844,1779,1875,2078,2239,2012,1799,1864,1978
149398,-45376,-15400,-46762,-13994,-3800,1907,-4,2,1,1,75,3971,5,8,844,1779,1875,2078,2239,2012,1799,1864,1978
150399,-45372,-15404,-46762,-13994,-3800,1963,-4,0,0,15,69,3933,-5,5,844,1779,1875,2078,2239,2012,1799,1864,1978
151400,-45372,-15396,-46762,-13994,-3800,1803,-2,-2,2,12,51,3928,6,-4,844,1779,1875,2078,2239,2012,1799,1864,1978
152401,-45364,-15392,-46762,-13994,-3800,1849,-6,1,3,-15,67,3926,6,5,844,1779,1875,2078,2239,2012,1799,1864,1978
153402,-45368,-15400,-46762,-13994,-3800,2009,-5,3,2,4,59,3914,4,6,844,1779,1875,2078,2239,2012,1799,1864,1978
154403,-45364,-15396,-46762,-13994,-3800,1855,-4,2,0,-5,61,3946,4,-6,844,1778,1875,2077,2240,2011,1799,1864,1979
155404,-45380,-15404,-46762,-13994,-3800,2015,-2,1,-1,-34,53,3975,6,4,843,1778,1875,2077,2240,2011,1799,1864,1979
156405,-45364,-15392,-46762,-13994,-3800,1751,-2,2,0,-12,79,3990,3,7,842,1778,1875,2077,2240,2011,1799,1864,1979
157406,-45372,-15396,-46762,-13994,-3800,1956,-3,3,2,-17,78,3935,-6,6,844,1778,1875,2077,2240,2011,1799,1864,1979
158407,-45376,-15388,-46762,-13994,-3800,1797,-5,1,0,-2,80,3931,-2,-6,844,1778,1875,2077,2240,2011,1799,1864,1979
159408,-45364,-15388,-46762,-13994,-3800,1897,-4,1,0,-21,81,3964,3,3,844,1779,1874,2077,2238,2012,1799,1865,1979
160409,-45376,-15404,-46762,-13994,-3800,2118,-3,0,1,-22,89,3940,-3,7,844,1779,1874,2077,2238,2012,1799,1865,1979
161410,-45360,-15408,-46762,-13994,-3800,1973,-1,0,4,-17,59,3932,-2,-4,844,1779,1874,2077,2238,2012,1799,1865,1979
162411,-45368,-15404,-46762,-13994,-3800,1869,-3,0,3,-21,62,3960,6,8,844,1779,1874,2077,2238,2012,1799,1865,1979
163412,-45376,-15400,-46762,-13994,-3800,1865,-4,2,5,-20,67,3940,8,3,844,1779,1874,2077,2238,2012,1799,1865,1979
164413,-45372,-15396,-46762,-13994,-3800,1860,-3,1,2,-13,86,3944,10,0,844,1779,1874,2077,2238,2012,1799,1865,1979
165414,-45368,-15412,-46762,-13994,-3800,2130,-2,0,1,8,67,3908,7,8,844,1778,1874,2077,2240,2012,1798,1865,1979
166415,-45372,-15396,-46762,-13994,-3800,1711,-4,-1,2,7,62,3926,9,-4,844,1778,1874,2077,2240,2012,1798,1865,1979
167416,-45360,-15396,-46762,-13994,-3800,1912,-7,0,2,9,55,3957,10,5,844,1778,1874,2077,2240,2012,1798,1865,1979
168417,-45376,-15388,-46762,-13994,-3800,1802,-7,1,4,-3,75,3957,10,4,844,1778,1874,2077,2240,2012,1798,1865,1979
169418,-45364,-15400,-46762,-13994,-3800,2068,-6,-1,5,-8,71,3936,7,-6,844,1778,1874,2077,2240,2012,1798,1865,1979
170419,-45372,-15404,-46762,-13994,-3800,1973,-6,-2,4,-7,67,3973,6,6,844,1778,1874,2078,2239,2012,1799,1865,1979
171420,-45364,-15404,-46762,-13994,-3800,1924,-6,0,4,-23,73,3986,9,6,844,1778,1874,2078,2239,2012,1799,1865,1979
172421,-45364,-15400,-46762,-13994,-3800,1869,-4,1,3,-7,54,3927,-1,-2,842,1778,1874,2078,2239,2012,1799,1865,1979
173422,-45372,-15392,-46762,-13994,-3800,1810,-2,0,3,-11,78,3918,4,-4,842,1778,1874,2078,2239,2012,1799,1865,1979
174423,-45372,-15392,-46762,-13994,-3800,1910,-3,0,2,-9,71,3943,10,6,844,1778,1874,2078,2239,2012,1799,1865,1979
175424,-45368,-15396,-46762,-13994,-3800,1966,-3,2,3,-23,74,3929,8,6,844,1778,1874,2078,2239,2012,1799,1865,1979
176425,-45368,-15396,-46762,-13994,-3800,1916,-3,2,3,7,61,3968,10,-6,844,1777,1874,2076,2238,2012,1799,1864,1978
177426,-45368,-15392,-46762,-13994,-3800,1862,-3,2,1,-8,77,3949,10,-4,844,1777,1874,2076,2238,2012,1799,1864,1978
178427,-45368,-15388,-46762,-13994,-3800,1858,-3,3,2,-2,87,3906,5,4,844,1777,1874,2076,2238,2012,1799,1864,1978
179428,-45376,-15408,-46762,-13994,-3800,2183,-6,2,4,2,70,3945,4,7,844,1777,1874,2076,2238,2012,1799,1864,1978
180429,-45372,-15408,-46762,-13994,-3800,1934,-5,3,2,-27,67,3966,7,-1,844,1777,1874,2076,2238,2012,1799,1864,1978
181430,-45376,-15404,-46762,-13994,-3800,1879,-3,3,2,-13,73,3973,5,-6,844,1778,1874,2077,2239,2011,1795,1862,1980
182431,-45368,-15412,-46762,-13994,-3800,2039,-2,2,0,1,70,3951,6,8,844,1778,1874,2077,2239,2011,1795,1862,1980
183432,-45376,-15400,-46762,-13994,-3800,1775,-5,3,0,19,84,3947,9,5,844,1778,1874,2077,2239,2011,1795,1862,1980
184433,-45372,-15400,-46762,-13994,-3800,1926,-5,3,3,20,64,3933,7,-5,844,1778,1874,2077,2239,2011,1795,1862,1980
185434,-45356,-15404,-46762,-13994,-3800,1981,-5,3,3,14,59,3918,7,1,844,1778,1874,2077,2239,2011,1795,1862,1980
186435,-45376,-15404,-46762,-13994,-3800,1932,-3,2,2,7,72,3938,10,9,844,1778,1874,2077,2239,2011,1795,1862,1980
187436,-45364,-15400,-46762,-13994,-3800,1877,-4,0,1,-3,71,3934,10,4,844,1778,1875,2078,2239,2012,1798,1863,1977
188437,-45372,-15388,-46762,-13994,-3800,1763,-4,1,1,-11,50,3958,10,-6,844,1778,1875,2078,2239,2012,1798,1863,1977
189438,-45364,-15392,-46762,-13994,-3800,1968,-3,1,1,23,50,3946,6,-6,842,1778,1875,2078,2239,2012,1798,1863,1977
190439,-45372,-15400,-46762,-13994,-3800,2029,-3,1,0,6,62,3939,-2,-2,842,1778,1875,2078,2239,2012,1798,1863,1977
191440,-45360,-15392,-46762,-13994,-3800,1819,-6,2,1,-17,70,3933,-4,9,844,1778,1875,2078,2239,2012,1798,1863,1977
192441,-45376,-15400,-46762,-13994,-3800,2030,-6,3,2,-28,66,3953,1,5,844,1775,1874,2079,2242,2014,1800,1866,1980
193442,-45364,-15404,-46762,-13994,-3800,1986,-5,2,-1,-4,72,3951,-2,-2,844,1775,1874,2079,2242,2014,1800,1866,1980
194443,-45372,-15396,-46762,-13994,-3800,1826,-5,0,-2,-15,72,3921,9,-5,844,1775,1874,2079,2242,2014,1800,1866,1980
195444,-45364,-15404,-46762,-13994,-3800,2037,-5,1,-2,-20,78,3958,9,2,844,1775,1874,2079,2242,2014,1800,1866,1980
196445,-45360,-15396,-46762,-13994,-3800,1827,-5,3,0,-14,97,3944,10,7,844,1775,1874,2079,2242,2014,1800,1866,1980
197446,-45372,-15392,-46762,-13994,-3800,1873,-3,2,1,-20,85,3955,10,5,844,1775,1874,2079,2242,2014,1800,1866,1980
198447,-45348,-15400,-46762,-13994,-3800,2033,-2,2,-1,24,60,3939,7,-1,844,1778,1874,2077,2238,2012,1798,1864,1978
199448,-45364,-15396,-46762,-13994,-3800,1879,-5,4,-3,4,62,3911,10,-5,844,1778,1874,2077,2238,2012,1798,1864,1978
200449,-45368,-15392,-46762,-13994,-3800,1874,-6,3,-1,-8,80,3959,10,0,844,1778,1874,2077,2238,2012,1798,1864,1978
201450,-45372,-15396,-46697,-13929,-1143,2265,-4,1,-2,-1,87,3952,9,8,844,1778,1874,2077,2238,2012,1798,1864,1978
202451,-45376,-15392,-46632,-13864,-1060,2240,-4,2,2,-4,68,3959,7,5,844,1778,1874,2077,2238,2012,1798,1864,1978
203452,-45364,-15380,-46567,-13799,-1195,2205,-3,10,4,-7,55,3950,1,11,817,1778,1875,2079,2239,2014,1800,1866,1973
204453,-45372,-15324,-46502,-13734,-857,1666,-6,4,3,-29,44,3928,13,32,818,1778,1875,2079,2239,2014,1800,1866,1973
205454,-45368,-15240,-46437,-13669,-932,1294,-12,-8,2,-126,107,4003,-2,37,820,1778,1875,2079,2239,2014,1800,1866,1973
206455,-45372,-15144,-46372,-13604,-749,1106,-11,-32,2,-218,105,4068,9,53,827,1778,1875,2079,2239,2014,1800,1866,1973
207456,-45376,-15040,-46307,-13539,-665,960,-3,-48,-4,-259,60,4134,14,55,831,1778,1875,2079,2239,2014,1800,1866,1973
208457,-45376,-14908,-46242,-13474,-637,529,2,-75,-14,-143,64,4171,13,52,835,1778,1875,2079,2239,2014,1800,1866,1973
209458,-45356,-14788,-46177,-13409,-832,612,0,-88,-16,-107,48,4179,6,65,837,1778,1863,2079,2240,2015,1801,1868,1985
210459,-45360,-14668,-46112,-13344,-447,546,6,-68,-21,256,49,4179,-3,67,840,1778,1863,2079,2240,2015,1801,1868,1985
211460,-45364,-14568,-46047,-13279,-363,753,-6,-40,-33,227,-37,3879,-4,62,840,1778,1863,2079,2240,2015,1801,1868,1985
212461,-45364,-14476,-45982,-13214,-335,821,-21,-7,-52,-94,-109,3969,13,69,841,1778,1863,2079,2240,2015,1801,1868,1985
213462,-45368,-14340,-45917,-13149,-201,184,-35,37,-66,-271,-35,4064,11,71,829,1778,1863,2079,2240,2015,1801,1868,1985
214463,-45372,-14228,-45852,-13084,-116,428,-49,36,-81,-174,-62,3819,3,76,838,1788,1887,2089,2251,2023,1810,1873,1994
215464,-45364,-14100,-45787,-13019,-197,151,-49,4,-83,-265,-106,4064,17,62,828,1788,1887,2089,2251,2023,1810,1873,1994
216465,-45376,-13980,-45722,-12954,146,184,-45,-43,-77,-552,28,4070,13,68,835,1788,1887,2089,2251,2023,1810,1873,1994
217466,-45380,-13876,-45657,-12889,130,337,-42,-120,-79,-529,10,4043,2,71,828,1788,1887,2089,2251,2023,1810,1873,1994
218467,-45364,-13772,-45592,-12824,-60,290,-36,-180,-89,-508,-83,4101,6,55,842,1788,1887,2089,2251,2023,1810,1873,1994
219468,-45360,-13656,-45527,-12759,165,78,-39,-203,-92,-322,28,4302,12,59,841,1788,1887,2089,2251,2023,1810,1873,1994
220469,-45368,-13548,-45462,-12694,404,126,-39,-200,-96,-298,-4,4234,13,54,842,1776,1871,2045,2201,2028,1812,1880,1998
221470,-45368,-13420,-45397,-12629,383,-201,-36,-158,-92,-232,24,4398,2,52,843,1776,1871,2045,2201,2028,1812,1880,1998
222471,-45372,-13324,-45332,-12564,517,162,-36,-118,-97,135,23,4213,17,54,841,1776,1871,2045,2201,2028,1812,1880,1998
223472,-45364,-13228,-45267,-12499,437,124,-33,-98,-109,61,-48,4201,1,52,839,1776,1871,2045,2201,2028,1812,1880,1998
224473,-45344,-13144,-45202,-12434,342,251,-31,-71,-125,-69,-47,4185,17,51,838,1776,1871,2045,2201,2028,1812,1880,1998
225474,-45336,-13048,-45137,-12369,561,63,-29,-64,-133,-105,1,4162,10,48,840,1783,1883,2083,2243,2023,1807,1881,1996
226475,-45320,-12960,-45072,-12304,521,136,-34,-62,-138,-141,1,4004,4,49,841,1783,1883,2083,2243,2023,1807,1881,1996
227476,-45304,-12872,-45007,-12239,581,108,-38,-74,-148,-232,21,3968,10,43,839,1783,1883,2083,2243,2023,1807,1881,1996
228477,-45304,-12804,-44942,-12174,860,355,-47,-114,-156,-459,48,3825,27,46,839,1783,1883,2083,2243,2023,1807,1881,1996
229478,-45256,-12736,-44877,-12109,282,351,-57,-156,-160,-552,-20,3929,29,39,839,1783,1883,2083,2243,2023,1807,1881,1996
230479,-45236,-12664,-44812,-12044,687,293,-67,-187,-159,-400,10,3701,19,47,835,1783,1883,2083,2243,2023,1807,1881,1996
231481,-45200,-12584,-44747,-11979,522,175,-67,-220,-163,-402,56,3869,16,49,837,1793,1886,2089,2254,2015,1802,1874,1986
232481,-45144,-12504,-44682,-11914,283,157,-67,-253,-165,-445,-115,3824,39,42,839,1793,1886,2089,2254,2015,1802,1874,1986
233482,-45100,-12452,-44617,-11849,459,523,-58,-255,-166,-323,-44,4129,23,30,841,1793,1886,2089,2254,2015,1802,1874,1986
234483,-45048,-12376,-44552,-11784,375,209,-42,-250,-162,-194,-142,3867,39,34,838,1793,1886,2089,2254,2015,1802,1874,1986
235484,-45012,-12336,-44487,-11719,611,691,-25,-239,-164,40,-113,4173,38,41,841,1793,1886,2089,2254,2015,1802,1874,1986
236485,-44960,-12292,-44422,-11654,427,666,-10,-209,-156,19,-152,3897,40,38,835,1780,1871,2070,2231,2004,1767,1831,1967
237486,-44904,-12228,-44357,-11589,388,418,6,-191,-150,74,-178,3980,45,38,837,1780,1871,2070,2231,2004,1767,1831,1967
238487,-44852,-12180,-44292,-11524,454,638,22,-176,-150,-154,-250,3938,30,28,839,1780,1871,2070,2231,2004,1767,1831,1967
239488,-44800,-12108,-44227,-11459,470,331,39,-150,-141,-115,-65,3889,29,28,835,1780,1871,2070,2231,2004,1767,1831,1967
240489,-44736,-12072,-44162,-11394,322,816,53,-128,-129,-148,-94,3735,32,31,837,1780,1871,2070,2231,2004,1767,1831,1967
241490,-44684,-12012,-44097,-11329,488,522,59,-126,-118,-104,-30,3769,31,41,836,1780,1871,2070,2231,2004,1767,1831,1967
242491,-44612,-11980,-44032,-11264,230,913,57,-161,-107,-92,36,3581,31,32,837,1780,1873,2070,2238,1983,1772,1844,1949
243492,-44540,-11924,-43967,-11199,221,625,46,-196,-92,-137,97,3615,39,41,835,1780,1873,2070,2238,1983,1772,1844,1949
244493,-44496,-11868,-43902,-11134,597,635,39,-199,-75,-197,85,3718,30,27,838,1780,1873,2070,2238,1983,1772,1844,1949
245494,-44428,-11804,-43837,-11069,294,537,35,-201,-64,-98,50,3593,35,34,835,1780,1873,2070,2238,1983,1772,1844,1949
246495,-44372,-11752,-43772,-11004,455,703,39,-209,-56,-29,55,3771,31,29,839,1780,1873,2070,2238,1983,1772,1844,1949
247496,-44316,-11696,-43707,-10939,466,665,54,-215,-42,5,-27,3707,37,42,836,1784,1874,2068,2241,1982,1772,1844,1951
248497,-44244,-11644,-43642,-10874,257,730,67,-203,-36,98,-60,3854,36,42,836,1784,1874,2068,2241,1982,1772,1844,1951
249498,-44196,-11588,-43577,-10809,579,691,96,-172,-34,155,-122,3948,35,43,837,1784,1874,2068,2241,1982,1772,1844,1951
250499,-44128,-11512,-43512,-10744,325,429,127,-157,-28,228,-171,3781,36,38,835,1784,1874,2068,2241,1982,1772,1844,1951
251500,-44064,-11472,-43447,-10679,377,910,145,-140,-15,128,-226,4037,51,33,839,1784,1874,2068,2241,1982,1772,1844,1951
252501,-44012,-11416,-43382,-10614,543,721,172,-107,-12,76,-187,3879,51,41,835,1784,1874,2068,2241,1982,1772,1844,1951
253502,-43952,-11348,-43317,-10549,449,568,200,-103,-5,98,-295,3908,44,39,835,1779,1870,2070,2237,1993,1780,1849,1959
254503,-43884,-11308,-43252,-10484,346,948,231,-88,-2,138,-158,4011,34,33,837,1779,1870,2070,2237,1993,1780,1849,1959
255504,-43816,-11248,-43187,-10419,342,704,245,-80,8,147,-290,3745,42,35,835,1779,1870,2070,2237,1993,1780,1849,1959
256505,-43736,-11200,-43122,-10354,174,875,246,-85,22,161,-161,3701,41,45,835,1779,1870,2070,2237,1993,1780,1849,1959
257506,-43676,-11144,-43057,-10289,430,787,244,-80,48,-274,-130,3813,36,33,834,1779,1870,2070,2237,1993,1780,1849,1959
258507,-43612,-11076,-42992,-10224,382,634,246,-86,62,-272,-77,3799,46,37,835,1789,1882,2083,2257,1992,1781,1853,1955
259508,-43544,-11004,-42927,-10159,329,575,243,-105,75,-7,-49,3822,33,30,837,1789,1882,2083,2257,1992,1781,1853,1955
260509,-43476,-10952,-42862,-10094,325,842,243,-130,88,62,1,3905,49,44,838,1789,1882,2083,2257,1992,1781,1853,1955
261510,-43408,-10900,-42797,-10029,321,858,232,-142,103,4,7,3861,49,40,835,1789,1882,2083,2257,1992,1781,1853,1955
262511,-43352,-10856,-42732,-9964,483,983,231,-136,112,54,-41,3892,31,41,835,1789,1882,2083,2257,1992,1781,1853,1955
263512,-43292,-10804,-42667,-9899,439,900,226,-95,109,284,11,4163,38,30,833,1789,1882,2083,2257,1992,1781,1853,1955
264513,-43216,-10716,-42602,-9834,226,422,230,-83,122,327,-14,3998,41,39,834,1794,1886,2083,2253,2001,1789,1862,1974
265514,-43152,-10656,-42537,-9769,377,778,236,-40,134,216,-1,4192,36,32,839,1794,1886,2083,2253,2001,1789,1862,1974
266515,-43116,-10608,-42472,-9704,764,950,252,-17,136,162,-50,4190,30,28,835,1794,1886,2083,2253,2001,1789,1862,1974
267516,-43036,-10556,-42407,-9639,195,916,280,-17,122,119,-141,4052,37,29,831,1794,1886,2083,2253,2001,1789,1862,1974
268517,-42980,-10496,-42342,-9574,506,822,300,-21,103,309,-5,4116,47,40,835,1794,1886,2083,2253,2001,1789,1862,1974
269518,-42916,-10452,-42277,-9509,408,1049,318,-2,93,382,-21,4186,34,41,834,1782,1875,2075,2235,2025,1799,1863,1993
270519,-42864,-10400,-42212,-9444,573,964,330,-9,93,44,-62,4210,33,42,833,1782,1875,2075,2235,2025,1799,1863,1993
271520,-42800,-10324,-42147,-9379,426,651,343,-34,94,-140,-11,4086,37,38,832,1782,1875,2075,2235,2025,1799,1863,1993
272521,-42728,-10276,-42082,-9314,317,1023,348,-77,94,-144,2,4080,37,38,837,1782,1875,2075,2235,2025,1799,1863,1993
273522,-42676,-10216,-42017,-9249,583,879,356,-114,87,-126,29,3973,51,38,832,1782,1875,2075,2235,2025,1799,1863,1993
274524,-42624,-10156,-41952,-9184,599,886,353,-143,81,96,90,4008,33,39,832,1782,1875,2075,2235,2025,1799,1863,1993
275524,-42552,-10108,-41887,-9119,341,1057,349,-161,85,145,102,3998,41,32,832,1784,1882,2080,2248,2032,1813,1876,1994
276525,-42492,-10044,-41822,-9054,497,858,338,-173,90,108,82,3941,34,46,833,1784,1882,2080,2248,2032,1813,1876,1994
277526,-42420,-9988,-41757,-8989,339,970,329,-153,95,-20,65,4008,40,46,834,1784,1882,2080,2248,2032,1813,1876,1994
278527,-42368,-9920,-41692,-8924,605,816,308,-158,106,49,112,3934,51,37,834,1784,1882,2080,2248,2032,1813,1876,1994
279528,-42312,-9856,-41627,-8859,567,868,312,-121,112,206,127,4307,38,31,833,1784,1882,2080,2248,2032,1813,1876,1994
280529,-42232,-9812,-41562,-8794,248,1144,300,-125,118,344,118,3896,37,33,833,1799,1896,2091,2255,2029,1804,1876,1999
281530,-42172,-9724,-41497,-8729,504,566,305,-119,119,166,75,4209,43,32,833,1799,1896,2091,2255,2029,1804,1876,1999
282531,-42108,-9664,-41432,-8664,456,923,296,-118,115,-137,26,4119,34,44,836,1799,1896,2091,2255,2029,1804,1876,1999
283532,-42036,-9596,-41367,-8599,348,820,291,-131,110,-14,119,4101,37,31,833,1799,1896,2091,2255,2029,1804,1876,1999
284533,-41984,-9560,-41302,-8534,614,1255,291,-133,100,141,122,4227,32,39,835,1799,1896,2091,2255,2029,1804,1876,1999
285534,-41900,-9488,-41237,-8469,191,797,288,-161,96,49,144,4106,37,43,828,1799,1896,2091,2255,2029,1804,1876,1999
286535,-41836,-9432,-41172,-8404,443,1008,283,-169,93,-27,92,4171,38,41,837,1782,1879,2081,2236,2025,1804,1870,1993
287536,-41780,-9352,-41107,-8339,554,691,280,-200,87,-105,127,4169,30,32,832,1782,1879,2081,2236,2025,1804,1870,1993
288537,-41732,-9276,-41042,-8274,675,728,283,-198,75,-78,179,4134,32,38,835,1782,1879,2081,2236,2025,1804,1870,1993
289538,-41684,-9220,-40977,-8209,696,989,289,-213,54,49,173,4240,38,43,833,1782,1879,2081,2236,2025,1804,1870,1993
290539,-41612,-9172,-40912,-8144,388,1110,310,-211,35,30,187,4182,50,28,829,1782,1879,2081,2236,2025,1804,1870,1993
291540,-41548,-9124,-40847,-8079,489,1131,315,-220,28,128,306,4088,37,30,830,1769,1868,2071,2227,2035,1812,1876,1995
292541,-41484,-9076,-40782,-8014,490,1152,307,-207,21,298,127,3878,37,33,831,1769,1868,2071,2227,2035,1812,1876,1995
293542,-41428,-9008,-40717,-7949,601,899,300,-195,16,69,205,3936,38,38,830,1769,1868,2071,2227,2035,1812,1876,1995
294543,-41368,-8956,-40652,-7884,559,1115,300,-161,18,91,250,3954,50,38,832,1769,1868,2071,2227,2035,1812,1876,1995
295544,-41308,-8908,-40587,-7819,565,1187,294,-129,12,110,286,4082,39,31,830,1769,1868,2071,2227,2035,1812,1876,1995
296545,-41244,-8860,-40522,-7754,516,1208,297,-123,18,-20,267,3928,41,30,829,1769,1868,2071,2227,2035,1812,1876,1995
297546,-41172,-8816,-40457,-7689,407,1284,290,-152,30,135,273,3846,39,29,829,1778,1874,2080,2243,2025,1806,1870,1984
298547,-41128,-8764,-40392,-7624,784,1200,291,-170,41,-37,230,3897,37,26,829,1778,1874,2080,2243,2025,1806,1870,1984
299548,-41036,-8716,-40327,-7559,151,1271,277,-192,52,-146,208,3664,35,40,827,1778,1874,2080,2243,2025,1806,1870,1984
300549,-41000,-8656,-40262,-7494,886,1128,275,-191,57,-146,246,3915,53,35,831,1778,1874,2080,2243,2025,1806,1870,1984
301550,-40912,-8616,-40197,-7429,209,1408,276,-181,63,-24,192,3876,34,27,826,1778,1874,2080,2243,2025,1806,1870,1984
302551,-40844,-8560,-40132,-7364,456,1220,285,-192,67,51,178,3928,47,33,828,1776,1871,2078,2230,1999,1790,1852,1951
303552,-40776,-8488,-40067,-7299,452,1012,282,-204,75,-54,133,3949,35,34,829,1776,1871,2078,2230,1999,1790,1852,1951
304553,-40724,-8456,-40002,-7234,668,1553,278,-213,73,134,187,3957,50,32,832,1776,1871,2078,2230,1999,1790,1852,1951
305554,-40656,-8400,-39937,-7169,465,1264,276,-172,60,279,214,4134,39,37,823,1776,1871,2078,2230,1999,1790,1852,1951
306555,-40596,-8332,-39872,-7104,571,1112,271,-124,50,287,214,4026,40,44,829,1776,1871,2078,2230,1999,1790,1852,1951
307556,-40532,-8280,-39807,-7039,523,1327,281,-77,41,125,184,4035,34,43,828,1776,1871,2078,2230,1999,1790,1852,1951
308557,-40476,-8224,-39742,-6974,633,1288,292,-33,18,136,355,4011,39,37,826,1772,1866,2068,2225,1984,1760,1851,1969
309558,-40416,-8176,-39677,-6909,591,1410,292,-32,-7,12,367,3972,33,41,827,1772,1866,2068,2225,1984,1760,1851,1969
310559,-40352,-8108,-39612,-6844,542,1156,313,-32,-29,160,439,4074,43,48,826,1772,1866,2068,2225,1984,1760,1851,1969
311560,-40288,-8044,-39547,-6779,543,1209,319,-61,-39,63,369,3995,37,42,829,1772,1866,2068,2225,1984,1760,1851,1969
312561,-40228,-7996,-39482,-6714,600,1429,338,-66,-60,-78,401,3899,45,43,829,1772,1866,2068,2225,1984,1760,1851,1969
313562,-40176,-7924,-39417,-6649,716,1122,342,-79,-70,-215,431,3937,51,44,826,1765,1856,2058,2226,1997,1784,1852,1968
314563,-40112,-7828,-39352,-6584,567,784,359,-83,-77,-27,428,3843,52,46,829,1765,1856,2058,2226,1997,1784,1852,1968
315564,-40040,-7776,-39287,-6519,459,1351,367,-95,-87,-54,377,3897,50,46,833,1765,1856,2058,2226,1997,1784,1852,1968
316565,-40000,-7740,-39222,-6454,890,1586,377,-84,-89,-139,382,3969,48,43,828,1765,1856,2058,2226,1997,1784,1852,1968
317566,-39936,-7672,-39157,-6389,591,1184,394,-83,-88,144,352,3840,52,30,821,1765,1856,2058,2226,1997,1784,1852,1968
318567,-39864,-7616,-39092,-6324,483,1345,400,-95,-80,81,350,3777,54,48,829,1765,1856,2058,2226,1997,1784,1852,1968
319568,-39800,-7536,-39027,-6259,585,1027,413,-118,-58,-91,242,3797,53,42,827,1807,1903,2104,2284,2000,1792,1879,1999
320569,-39732,-7472,-38962,-6194,531,1229,414,-134,-40,-23,204,3572,47,46,831,1807,1903,2104,2284,2000,1792,1879,1999
321570,-39656,-7412,-38897,-6129,418,1286,417,-139,-38,-179,203,3894,50,43,829,1807,1903,2104,2284,2000,1792,1879,1999
322572,-39592,-7360,-38832,-6064,569,1402,423,-142,-38,1,192,3874,37,44,829,1807,1903,2104,2284,2000,1792,1879,1999
323572,-39524,-7304,-38767,-5999,517,1364,430,-148,-43,181,107,3705,52,29,826,1807,1903,2104,2284,2000,1792,1879,1999
324573,-39456,-7232,-38702,-5934,513,1155,433,-136,-41,140,215,4069,34,43,827,1796,1892,2096,2256,1994,1780,1849,1965
325574,-39396,-7172,-38637,-5869,619,1312,447,-132,-46,230,325,3936,43,32,828,1796,1892,2096,2256,1994,1780,1849,1965
326575,-39336,-7112,-38572,-5804,626,1318,438,-132,-68,237,334,4067,37,46,827,1796,1892,2096,2256,1994,1780,1849,1965
327576,-39268,-7052,-38507,-5739,522,1325,459,-106,-82,200,257,4386,37,41,826,1796,1892,2096,2256,1994,1780,1849,1965
328577,-39208,-7004,-38442,-5674,629,1496,466,-96,-98,150,246,4279,40,32,828,1796,1892,2096,2256,1994,1780,1849,1965
329578,-39152,-6928,-38377,-5609,690,1134,497,-102,-136,191,262,4261,34,38,824,1781,1875,2071,2229,1994,1775,1848,1968
330579,-39092,-6868,-38312,-5544,647,1340,515,-115,-169,144,364,4161,35,41,828,1781,1875,2071,2229,1994,1775,1848,1968
331580,-39048,-6808,-38247,-5479,872,1347,535,-154,-188,-20,297,4156,49,35,826,1781,1875,2071,2229,1994,1775,1848,1968
332581,-38968,-6748,-38182,-5414,404,1353,541,-194,-209,-126,350,4038,41,41,824,1781,1875,2071,2229,1994,1775,1848,1968
333582,-38920,-6672,-38117,-5349,826,1140,547,-246,-225,-271,390,4048,54,48,828,1781,1875,2071,2229,1994,1775,1848,1968
334583,-38840,-6616,-38052,-5284,407,1401,554,-278,-226,-152,314,3820,46,44,827,1781,1875,2071,2229,1994,1775,1848,1968
335584,-38796,-6564,-37987,-5219,883,1468,555,-326,-224,-160,301,3890,54,34,828,1779,1877,2080,2240,2003,1790,1867,1983
336585,-38748,-6504,-37922,-5154,855,1374,567,-348,-222,-183,347,3919,53,30,822,1779,1877,2080,2240,2003,1790,1867,1983
337586,-38664,-6424,-37857,-5089,382,1107,578,-358,-211,-30,263,3959,53,46,823,1779,1877,2080,2240,2003,1790,1867,1983
338587,-38604,-6388,-37792,-5024,688,1693,594,-355,-185,143,252,3834,53,33,831,1779,1877,2080,2240,2003,1790,1867,1983
339588,-38540,-6328,-37727,-4959,639,1400,596,-353,-159,104,160,3984,34,34,822,1779,1877,2080,2240,2003,1790,1867,1983
340589,-38480,-6276,-37662,-4894,696,1516,618,-322,-158,-41,110,4054,43,43,826,1791,1887,2083,2243,2016,1799,1867,1989
341590,-38408,-6212,-37597,-4829,537,1368,626,-295,-162,108,255,4106,46,43,823,1791,1887,2083,2243,2016,1799,1867,1989
342591,-38344,-6156,-37532,-4764,639,1479,652,-273,-162,212,262,4181,40,46,825,1791,1887,2083,2243,2016,1799,1867,1989
343592,-38280,-6084,-37467,-4699,641,1271,657,-285,-161,259,234,3942,34,44,824,1791,1887,2083,2243,2016,1799,1867,1989
344593,-38228,-6036,-37402,-4634,807,1592,686,-314,-168,158,312,4076,52,39,827,1791,1887,2083,2243,2016,1799,1867,1989
345594,-38160,-5968,-37337,-4569,603,1339,703,-361,-166,56,250,3909,50,37,821,1791,1887,2083,2243,2016,1799,1867,1989
346595,-38100,-5916,-37272,-4504,710,1555,724,-394,-189,191,230,4071,50,43,826,1794,1890,2092,2256,2002,1781,1849,1960
347596,-38032,-5876,-37207,-4439,607,1737,720,-421,-205,74,157,4079,37,29,822,1794,1890,2092,2256,2002,1781,1849,1960
348597,-37968,-5812,-37142,-4374,658,1439,735,-439,-207,-107,245,4211,40,43,822,1794,1890,2092,2256,2002,1781,1849,1960
349598,-37908,-5752,-37077,-4309,715,1495,732,-451,-225,-115,271,4078,37,41,825,1794,1890,2092,2256,2002,1781,1849,1960
350599,-37836,-5696,-37012,-4244,556,1557,744,-448,-246,-68,293,4197,35,41,824,1794,1890,2092,2256,2002,1781,1849,1960
351600,-37784,-5640,-36947,-4179,822,1568,738,-454,-255,220,377,4154,44,41,823,1785,1874,2082,2248,1984,1769,1841,1953
352601,-37740,-5576,-36882,-4114,948,1470,749,-470,-252,203,296,4195,51,32,821,1785,1874,2082,2248,1984,1769,1841,1953
353602,-37660,-5520,-36817,-4049,481,1581,759,-483,-246,86,272,4225,48,41,821,1785,1874,2082,2248,1984,1769,1841,1953
354603,-37596,-5464,-36752,-3984,682,1593,786,-504,-244,-181,312,4135,39,46,824,1785,1874,2082,2248,1984,1769,1841,1953
355604,-37540,-5404,-36687,-3919,793,1549,792,-500,-232,94,236,4190,49,42,822,1785,1874,2082,2248,1984,1769,1841,1953
356605,-37484,-5344,-36622,-3854,805,1556,822,-490,-222,245,163,3962,50,37,822,1785,1874,2082,2248,1984,1769,1841,1953
357606,-37436,-5276,-36557,-3789,925,1454,824,-483,-200,103,253,4206,49,45,821,1819,1919,2119,2236,2000,1800,1864,2016
358607,-37384,-5220,-36492,-3724,891,1615,849,-466,-181,52,66,4084,54,41,822,1819,1919,2119,2236,2000,1800,1864,2016
359608,-37312,-5172,-36427,-3659,634,1736,851,-488,-138,66,-34,3940,56,42,819,1819,1919,2119,2236,2000,1800,1864,2016
360609,-37260,-5088,-36362,-3594,900,1263,866,-470,-123,196,107,4250,51,36,821,1819,1919,2119,2236,2000,1800,1864,2016
361610,-37180,-5048,-36297,-3529,531,1845,873,-466,-100,-29,69,3892,39,31,824,1819,1919,2119,2236,2000,1800,1864,2016
362611,-37132,-4980,-36232,-3464,953,1491,886,-459,-94,-15,167,3846,47,33,820,1795,1889,2089,2255,2019,1803,1871,1979
363612,-37052,-4928,-36167,-3399,535,1708,886,-461,-85,-38,157,4024,46,38,821,1795,1889,2089,2255,2019,1803,1871,1979
364613,-36988,-4864,-36102,-3334,736,1560,894,-476,-91,43,180,3859,44,40,822,1795,1889,2089,2255,2019,1803,1871,1979
365614,-36920,-4792,-36037,-3269,683,1452,893,-512,-98,144,190,4016,45,35,823,1795,1889,2089,2255,2019,1803,1871,1979
366615,-36856,-4736,-35972,-3204,735,1664,915,-517,-118,62,76,4051,53,39,825,1795,1889,2089,2255,2019,1803,1871,1979
367616,-36808,-4688,-35907,-3139,955,1784,919,-502,-155,-13,203,4176,41,32,821,1795,1889,2089,2255,2019,1803,1871,1979
368617,-36724,-4620,-35842,-3074,483,1532,932,-477,-192,134,423,4148,53,38,816,1778,1868,2084,2246,2015,1790,1854,1974
369618,-36676,-4568,-35777,-3009,954,1748,949,-500,-206,139,306,3887,56,42,825,1778,1868,2084,2246,2015,1790,1854,1974
370619,-36600,-4516,-35712,-2944,590,1764,965,-591,-200,239,363,3902,33,25,816,1778,1868,2084,2246,2015,1790,1854,1974
371620,-36524,-4464,-35647,-2879,578,1781,983,-627,-192,256,333,3934,37,31,820,1778,1868,2084,2246,2015,1790,1854,1974
372621,-36484,-4396,-35582,-2814,1059,1578,967,-607,-169,-213,-40,4009,44,32,820,1778,1868,2084,2246,2015,1790,1854,1974
373622,-36404,-4352,-35517,-2749,540,1904,970,-557,-148,-134,37,4154,31,31,818,1760,1864,2066,2208,1986,1778,1846,1963
374623,-36356,-4300,-35452,-2684,962,1820,955,-614,-111,617,53,3713,53,28,819,1760,1864,2066,2208,1986,1778,1846,1963
375624,-36304,-4244,-35387,-2619,928,1782,923,-661,-111,714,-62,3687,41,35,817,1760,1864,2066,2208,1986,1778,1846,1963
376625,-36228,-4192,-35322,-2554,615,1849,862,-577,-110,-922,-332,5063,38,31,815,1760,1864,2066,2208,1986,1778,1846,1963
377626,-36172,-4140,-35257,-2489,876,1865,843,-473,-91,-535,138,4464,36,33,819,1760,1864,2066,2208,1986,1778,1846,1963
378627,-36128,-4092,-35192,-2424,1052,1937,809,-406,-33,378,-48,3824,45,38,817,1760,1864,2066,2208,1986,1778,1846,1963
379628,-36056,-4036,-35127,-2359,695,1849,753,-405,16,839,209,3268,44,43,814,1762,1861,2043,2190,1999,1782,1864,1996
380629,-36000,-3968,-35062,-2294,906,1695,713,-414,43,11,308,4242,53,34,819,1762,1861,2043,2190,1999,1782,1864,1996
381630,-35932,-3916,-34997,-2229,752,1912,674,-464,58,-342,295,3593,52,30,818,1762,1861,2043,2190,1999,1782,1864,1996
382631,-35860,-3864,-34932,-2164,694,1928,663,-458,73,-7,-52,3496,37,38,817,1762,1861,2043,2190,1999,1782,1864,1996
383632,-35800,-3804,-34867,-2099,850,1835,642,-454,90,-139,155,3669,44,27,818,1762,1861,2043,2190,1999,1782,1864,1996
384633,-35736,-3744,-34802,-2034,802,1842,633,-446,80,-124,231,3795,46,38,817,1703,1823,2031,2173,2077,1832,1876,2024
385634,-35672,-3664,-34737,-1969,804,1574,619,-452,55,-43,262,3738,48,37,818,1703,1823,2031,2173,2077,1832,1876,2024
386635,-35608,-3620,-34672,-1904,805,2050,621,-481,34,-69,224,3411,33,33,821,1703,1823,2031,2173,2077,1832,1876,2024
387636,-35552,-3560,-34607,-1839,916,1857,624,-508,14,-118,337,3831,47,41,815,1703,1823,2031,2173,2077,1832,1876,2024
388637,-35512,-3488,-34542,-1774,1148,1699,633,-507,-12,-44,352,3767,50,37,815,1703,1823,2031,2173,2077,1832,1876,2024
389638,-35448,-3432,-34477,-1709,849,1911,635,-493,-24,99,407,3871,45,50,816,1703,1823,2031,2173,2077,1832,1876,2024
390639,-35388,-3392,-34412,-1644,905,2142,625,-471,-27,113,358,4106,39,36,816,1698,1790,2004,2144,2075,1823,1865,1993
391640,-35332,-3296,-34347,-1579,967,1404,615,-445,-24,88,320,3959,51,43,812,1698,1790,2004,2144,2075,1823,1865,1993
392641,-35276,-3236,-34282,-1514,978,1862,589,-424,-3,79,377,4095,42,39,822,1698,1790,2004,2144,2075,1823,1865,1993
393642,-35200,-3172,-34217,-1449,715,1814,562,-402,25,123,442,3961,44,37,814,1698,1790,2004,2144,2075,1823,1865,1993
394643,-35152,-3092,-34152,-1384,1086,1595,532,-393,61,140,448,4070,55,38,819,1698,1790,2004,2144,2075,1823,1865,1993
395644,-35084,-3028,-34087,-1319,833,1798,497,-410,88,36,345,3981,37,37,819,1712,1824,2048,2208,2048,1804,1860,1960
396645,-35028,-2972,-34022,-1254,995,1910,467,-402,106,31,446,4232,35,48,818,1712,1824,2048,2208,2048,1804,1860,1960
397646,-34972,-2896,-33957,-1189,1006,1646,436,-379,128,5,450,4179,51,47,815,1712,1824,2048,2208,2048,1804,1860,1960
398647,-34908,-2820,-33892,-1124,907,1634,391,-367,144,-52,432,3859,43,37,819,1712,1824,2048,2208,2048,1804,1860,1960
399648,-34848,-2744,-33827,-1059,964,1621,332,-381,187,-9,583,3916,53,48,820,1712,1824,2048,2208,2048,1804,1860,1960
400649,-34784,-2692,-33762,-994,915,1937,291,-383,211,-167,491,3840,37,36,819,1712,1824,2048,2208,2048,1804,1860,1960
401650,-34740,-2636,-33697,-929,1192,1899,243,-421,231,4,373,3649,53,44,816,1783,1887,2091,2255,2023,1791,1871,1999
402651,-34676,-2560,-33632,-864,943,1636,230,-458,244,268,467,3699,48,48,813,1783,1887,2091,2255,2023,1791,1871,1999
403652,-34620,-2492,-33567,-799,1054,1733,216,-469,266,-212,462,3756,57,52,819,1783,1887,2091,2255,2023,1791,1871,1999
404653,-34556,-2428,-33502,-734,956,1785,224,-454,260,52,435,3776,51,47,816,1783,1887,2091,2255,2023,1791,1871,1999
405654,-34508,-2360,-33437,-669,1177,1732,231,-463,248,234,377,3701,50,38,817,1783,1887,2091,2255,2023,1791,1871,1999
406655,-34448,-2296,-33372,-604,1034,1784,249,-475,252,96,506,4050,42,37,814,1777,1859,2064,2225,2039,1803,1859,2001
407656,-34372,-2224,-33307,-539,821,1676,274,-478,250,227,458,4003,50,41,816,1777,1859,2064,2225,2039,1803,1859,2001
408657,-34304,-2180,-33242,-474,917,2052,291,-500,250,285,415,3780,60,40,819,1777,1859,2064,2225,2039,1803,1859,2001
409658,-34236,-2104,-33177,-409,914,1640,314,-525,243,19,565,4019,45,47,813,1777,1859,2064,2225,2039,1803,1859,2001
410659,-34168,-2044,-33112,-344,911,1847,323,-547,235,3,616,3891,45,50,818,1777,1859,2064,2225,2039,1803,1859,2001
411660,-34092,-1960,-33047,-279,798,1524,351,-568,226,-36,809,4204,56,49,817,1777,1859,2064,2225,2039,1803,1859,2001
412661,-34028,-1916,-32982,-214,949,2050,368,-602,240,-15,716,4114,41,50,822,1749,1841,2060,2204,2023,1786,1848,1972
413662,-33944,-1856,-32917,-149,676,1857,372,-636,248,167,689,4098,40,34,813,1749,1841,2060,2204,2023,1786,1848,1972
414663,-33888,-1788,-32852,-84,1038,1754,354,-640,264,193,781,4180,56,37,818,1749,1841,2060,2204,2023,1786,1848,1972
415664,-33824,-1728,-32787,-19,939,1861,338,-638,279,255,798,4129,36,46,816,1749,1841,2060,2204,2023,1786,1848,1972
416665,-33776,-1664,-32722,46,1161,1812,321,-608,292,205,955,4296,55,31,816,1749,1841,2060,2204,2023,1786,1848,1972
417666,-33712,-1596,-32657,111,962,1759,307,-560,311,222,970,4095,46,31,813,1761,1852,2056,2220,1999,1758,1825,1951
418667,-33676,-1556,-32592,176,1348,2141,279,-542,337,374,819,3984,53,32,817,1761,1852,2056,2220,1999,1758,1825,1951
419668,-33592,-1484,-32527,241,726,1732,252,-517,359,321,666,3846,44,46,806,1761,1852,2056,2220,1999,1758,1825,1951
420669,-33540,-1428,-32462,306,1141,1944,232,-515,384,307,786,3838,49,46,820,1761,1852,2056,2220,1999,1758,1825,1951
421670,-33472,-1340,-32397,371,939,1517,227,-515,422,-39,672,3866,48,39,812,1761,1852,2056,2220,1999,1758,1825,1951
422671,-33428,-1276,-32332,436,1264,1818,231,-549,469,42,547,3785,54,38,821,1761,1852,2056,2220,1999,1758,1825,1951
423672,-33368,-1216,-32267,501,1070,1875,234,-584,482,204,406,3639,48,51,812,1761,1854,2023,2176,2015,1799,1831,1949
424673,-33296,-1160,-32202,566,913,1937,205,-584,503,-105,315,3759,46,40,814,1761,1854,2023,2176,2015,1799,1831,1949
425674,-33244,-1088,-32137,631,1179,1729,192,-517,512,-586,356,4093,40,41,815,1761,1854,2023,2176,2015,1799,1831,1949
426675,-33176,-1004,-32072,696,976,1557,187,-514,524,33,638,3740,41,49,814,1761,1854,2023,2176,2015,1799,1831,1949
427676,-33112,-920,-32007,761,1027,1535,229,-559,539,529,548,3850,55,45,818,1761,1854,2023,2176,2015,1799,1831,1949
428677,-33060,-864,-31942,826,1194,1895,245,-604,526,354,563,3830,54,55,819,1728,1824,2048,2208,2029,1767,1801,1959
429678,-32996,-788,-31877,891,1045,1633,270,-587,498,86,760,4224,37,43,813,1728,1824,2048,2208,2029,1767,1801,1959
430679,-32932,-728,-31812,956,1047,1840,275,-559,494,258,917,3937,42,54,818,1728,1824,2048,2208,2029,1767,1801,1959
431680,-32880,-636,-31747,1021,1214,1407,280,-496,494,583,937,3963,54,54,815,1728,1824,2048,2208,2029,1767,1801,1959
432681,-32808,-580,-31682,1086,955,1869,273,-477,501,613,1150,4005,56,48,819,1728,1824,2048,2208,2029,1767,1801,1959
433682,-32740,-512,-31617,1151,1002,1716,250,-505,514,501,1073,3681,52,47,816,1728,1824,2048,2208,2029,1767,1801,1959
434683,-32680,-460,-31552,1216,1108,1932,235,-490,520,451,1201,3989,39,39,817,1744,1832,2048,2184,2016,1776,1856,1984
435684,-32620,-388,-31487,1281,1116,1675,213,-460,534,366,1255,3841,38,51,813,1744,1832,2048,2184,2016,1776,1856,1984
436685,-32560,-328,-31422,1346,1122,1831,198,-431,563,391,1291,3896,41,49,816,1744,1832,2048,2184,2016,1776,1856,1984
437686,-32508,-252,-31357,1411,1238,1619,178,-415,588,310,1269,3975,54,39,814,1744,1832,2048,2184,2016,1776,1856,1984
438687,-32448,-172,-31292,1476,1145,1551,170,-410,611,152,1191,3785,52,41,815,1744,1832,2048,2184,2016,1776,1856,1984
439688,-32380,-116,-31227,1541,1041,1862,155,-421,632,294,1057,3878,44,38,818,1784,1879,2091,2239,2047,1815,1871,1999
440689,-32316,-40,-31162,1606,1093,1600,160,-437,645,-6,842,3845,52,47,815,1784,1879,2091,2239,2047,1815,1871,1999
441690,-32260,8,-31097,1671,1204,1972,157,-447,664,91,1015,4143,54,38,817,1784,1879,2091,2239,2047,1815,1871,1999
442691,-32200,60,-31032,1736,1161,1937,170,-452,681,152,798,3811,41,44,810,1784,1879,2091,2239,2047,1815,1871,1999
443692,-32136,120,-30967,1801,1113,1845,177,-456,692,161,606,4233,51,31,811,1784,1879,2091,2239,2047,1815,1871,1999
444693,-32068,176,-30902,1866,1059,1905,202,-480,706,109,583,3900,55,33,812,1784,1879,2091,2239,2047,1815,1871,1999
445694,-32004,228,-30837,1931,1111,1972,209,-494,713,294,646,4046,51,32,813,1750,1851,2067,2207,2005,1780,1831,1966
446695,-31944,280,-30772,1996,1167,1989,211,-478,708,203,781,3902,43,41,811,1750,1851,2067,2207,2005,1780,1831,1966
447696,-31880,340,-30707,2061,1119,1895,210,-484,707,280,757,3921,52,44,811,1750,1851,2067,2207,2005,1780,1831,1966
448697,-31828,396,-30642,2126,1285,1957,220,-484,691,592,854,4145,55,35,813,1750,1851,2067,2207,2005,1780,1831,1966
449700,-31748,456,-30577,2191,918,1914,222,-469,675,369,950,4084,50,40,810,1750,1851,2067,2207,2005,1780,1831,1966
450699,-31696,528,-30378,2390,2134,2606,200,-442,659,405,1170,4013,48,38,814,1759,1857,2081,2223,2002,1783,1836,1955
451700,-31632,576,-30313,2455,1987,2928,186,-421,657,729,1140,3979,36,39,789,1759,1857,2081,2223,2002,1783,1836,1955
452701,-31556,648,-30248,2520,1823,2621,164,-421,646,621,1282,4030,57,55,784,1759,1857,2081,2223,2002,1783,1836,1955
453702,-31484,736,-30183,2585,1866,2393,155,-437,649,391,1230,3811,66,28,794,1759,1857,2081,2223,2002,1783,1836,1955
454703,-31392,840,-30118,2650,1583,2146,143,-454,669,418,1256,4162,64,51,797,1759,1857,2081,2223,2002,1783,1836,1955
455704,-31292,948,-30053,2715,1441,2044,138,-480,683,199,1167,3999,73,64,805,1759,1857,2081,2223,2002,1783,1836,1955
456705,-31184,1060,-29988,2780,1288,1938,145,-496,679,33,1193,4514,80,71,808,1720,1808,2000,2159,1976,1761,1815,1934
457706,-31088,1180,-29923,2845,1402,1771,164,-498,673,216,1331,4591,74,65,812,1720,1808,2000,2159,1976,1761,1815,1934
458707,-30996,1276,-29858,2910,1419,2034,188,-507,685,348,1327,4591,84,80,814,1720,1808,2000,2159,1976,1761,1815,1934
459708,-30892,1404,-29793,2975,1221,1557,221,-529,697,645,1256,4527,68,77,810,1720,1808,2000,2159,1976,1761,1815,1934
460709,-30772,1524,-29728,3040,955,1591,246,-566,691,442,1272,4672,74,73,819,1720,1808,2000,2159,1976,1761,1815,1934
461710,-30672,1616,-29663,3105,1162,1909,292,-603,675,313,1123,4691,75,64,819,1731,1837,2053,2194,2009,1792,1844,1982
462711,-30556,1720,-29598,3170,901,1712,312,-620,671,370,1123,4726,64,62,815,1731,1837,2053,2194,2009,1792,1844,1982
463712,-30484,1816,-29533,3235,1442,1775,337,-618,680,364,1212,4759,73,64,820,1731,1837,2053,2194,2009,1792,1844,1982
464713,-30372,1904,-29468,3300,885,1847,361,-620,679,260,1275,4689,60,55,813,1731,1837,2053,2194,2009,1792,1844,1982
465714,-30276,2000,-29403,3365,1048,1710,370,-624,665,310,1098,4613,73,68,818,1731,1837,2053,2194,2009,1792,1844,1982
466715,-30176,2080,-29338,3430,955,1891,385,-622,644,530,1229,4795,77,59,818,1731,1837,2053,2194,2009,1792,1844,1982
467716,-30080,2168,-29273,3495,968,1764,381,-603,621,724,1360,4688,72,54,816,1743,1871,2116,2272,1999,1772,1859,1991
468717,-29988,2244,-29208,3560,986,1901,380,-571,602,633,1410,4707,56,46,818,1743,1871,2116,2272,1999,1772,1859,1991
469718,-29900,2332,-29143,3625,1008,1724,375,-568,598,675,1109,4560,56,49,816,1743,1871,2116,2272,1999,1772,1859,1991
470719,-29804,2404,-29078,3690,870,1915,368,-593,580,777,1228,4509,65,64,818,1743,1871,2116,2272,1999,1772,1859,1991
471720,-29724,2488,-29013,3755,1051,1743,322,-563,527,118,1196,4553,59,62,817,1743,1871,2116,2272,1999,1772,1859,1991
472721,-29656,2588,-28948,3820,1199,1500,263,-490,488,-121,1271,4364,56,54,817,1834,1940,2164,2324,2024,1800,1855,1991
473722,-29576,2684,-28883,3885,1030,1514,219,-454,490,709,1514,4436,47,56,818,1834,1940,2164,2324,2024,1800,1855,1991
474723,-29488,2768,-28818,3950,902,1640,211,-451,502,999,1500,4313,47,58,821,1834,1940,2164,2324,2024,1800,1855,1991
475724,-29416,2856,-28753,4015,1095,1563,220,-489,485,460,1355,4340,61,48,821,1834,1940,2164,2324,2024,1800,1855,1991
476725,-29344,2956,-28688,4080,1086,1371,242,-532,460,158,1336,4426,60,46,819,1834,1940,2164,2324,2024,1800,1855,1991
477726,-29280,3024,-28623,4145,1188,1768,251,-557,433,172,1328,4467,58,55,822,1834,1940,2164,2324,2024,1800,1855,1991
478727,-29200,3108,-28558,4210,969,1545,265,-527,425,195,1207,4600,61,44,813,1870,1951,2188,2348,2080,1856,1919,2047
479728,-29132,3192,-28493,4275,1117,1522,274,-484,421,481,1256,4628,59,50,820,1870,1951,2188,2348,2080,1856,1919,2047
480729,-29068,3260,-28428,4340,1168,1719,283,-457,422,375,1385,4680,55,43,819,1870,1951,2188,2348,2080,1856,1919,2047
481730,-28972,3336,-28363,4405,730,1605,293,-441,399,427,1396,4538,54,59,816,1870,1951,2188,2348,2080,1856,1919,2047
482731,-28904,3404,-28298,4470,1076,1703,311,-451,378,376,1441,4653,54,57,822,1870,1951,2188,2348,2080,1856,1919,2047
483732,-28836,3492,-28233,4535,1073,1425,347,-463,363,323,1456,4687,43,58,817,1743,1839,2071,2207,2071,1839,1875,2015
484733,-28772,3556,-28168,4600,1125,1726,399,-456,346,481,1558,4847,54,49,821,1743,1839,2071,2207,2071,1839,1875,2015
485734,-28700,3636,-28103,4665,1016,1509,456,-435,328,549,1492,4685,47,48,817,1743,1839,2071,2207,2071,1839,1875,2015
486735,-28624,3720,-28038,4730,953,1435,490,-454,312,671,1502,4282,48,54,821,1743,1839,2071,2207,2071,1839,1875,2015
487736,-28568,3800,-27973,4795,1214,1468,516,-449,293,628,1530,4493,56,61,822,1743,1839,2071,2207,2071,1839,1875,2015
488737,-28500,3892,-27908,4860,1061,1285,525,-426,278,348,1615,4222,52,66,819,1743,1839,2071,2207,2071,1839,1875,2015
489738,-28432,3976,-27843,4925,1057,1362,527,-393,286,720,1889,4192,39,57,822,1711,1809,2039,2191,2017,1794,1842,1965
490739,-28376,4060,-27778,4990,1218,1340,536,-352,270,788,1734,4090,55,48,822,1711,1809,2039,2191,2017,1794,1842,1965
491740,-28292,4144,-27713,5055,845,1317,522,-346,229,523,1657,3883,56,46,820,1711,1809,2039,2191,2017,1794,1842,1965
492741,-28240,4208,-27648,5120,1261,1568,510,-336,183,534,1637,4009,41,43,824,1711,1809,2039,2191,2017,1794,1842,1965
493742,-28184,4276,-27583,5185,1223,1515,474,-326,146,490,1705,3976,46,47,817,1711,1809,2039,2191,2017,1794,1842,1965
494743,-28112,4340,-27518,5250,1015,1566,443,-270,123,326,1669,3805,54,41,817,1793,1895,2117,2274,1960,1759,1822,1923
495744,-28048,4412,-27453,5315,1116,1458,403,-257,109,483,1666,3855,45,56,818,1793,1895,2117,2274,1960,1759,1822,1923
496745,-27980,4488,-27388,5380,1062,1395,393,-252,84,694,1557,3672,53,45,819,1793,1895,2117,2274,1960,1759,1822,1923
497746,-27900,4548,-27323,5445,895,1601,389,-289,53,380,1468,3649,40,37,821,1793,1895,2117,2274,1960,1759,1822,1923
498747,-27828,4596,-27258,5510,986,1772,408,-288,25,132,1279,3683,53,43,820,1793,1895,2117,2274,1960,1759,1822,1923
499749,-27760,4652,-27193,5575,1033,1684,433,-291,9,263,1413,3798,55,51,817,1793,1895,2117,2274,1960,1759,1822,1923
500749,-27692,4724,-27128,5640,1029,1476,474,-279,7,382,1479,3880,47,39,819,1821,1916,2130,2269,1965,1754,1816,1943
501750,-27628,4792,-27063,5705,1080,1522,518,-288,7,756,1489,3757,58,54,821,1821,1916,2130,2269,1965,1754,1816,1943
502751,-27564,4852,-26998,5770,1082,1629,569,-303,4,583,1362,3799,58,52,820,1821,1916,2130,2269,1965,1754,1816,1943
503752,-27496,4916,-26933,5835,1029,1580,625,-326,-6,616,1685,3930,56,54,818,1821,1916,2130,2269,1965,1754,1816,1943
504753,-27416,4980,-26868,5900,860,1583,674,-330,-19,454,1606,3854,56,45,820,1821,1916,2130,2269,1965,1754,1816,1943
505754,-27344,5064,-26803,5965,952,1309,715,-323,-44,552,1891,4164,54,54,821,1756,1846,2057,2200,1976,1757,1805,1925
506755,-27272,5144,-26738,6030,944,1341,756,-328,-35,871,1793,3757,42,51,824,1756,1846,2057,2200,1976,1757,1805,1925
507756,-27188,5208,-26673,6095,771,1543,809,-331,-23,1042,2202,3987,58,41,823,1756,1846,2057,2200,1976,1757,1805,1925
508757,-27124,5300,-26608,6160,1022,1160,854,-345,-52,665,2052,3720,56,50,823,1756,1846,2057,2200,1976,1757,1805,1925
509758,-27056,5360,-26543,6225,969,1566,889,-372,-100,559,2151,3755,38,44,825,1756,1846,2057,2200,1976,1757,1805,1925
510759,-26976,5436,-26478,6290,800,1354,917,-412,-124,838,2337,3926,50,42,820,1756,1846,2057,2200,1976,1757,1805,1925
511760,-26924,5504,-26413,6355,1166,1450,929,-443,-140,745,2122,3440,49,52,824,1717,1813,2023,2181,1956,1742,1798,1906
512761,-26848,5572,-26348,6420,854,1447,946,-454,-152,672,2085,3655,38,52,817,1717,1813,2023,2181,1956,1742,1798,1906
513762,-26796,5624,-26283,6485,1170,1663,952,-474,-176,796,2000,3416,58,48,823,1717,1813,2023,2181,1956,1742,1798,1906
514763,-26720,5692,-26218,6550,856,1460,956,-507,-197,541,1839,3445,43,52,816,1717,1813,2023,2181,1956,1742,1798,1906
515764,-26644,5764,-26153,6615,843,1401,966,-522,-209,597,1925,3380,64,44,823,1717,1813,2023,2181,1956,1742,1798,1906
516765,-26580,5844,-26088,6680,994,1283,984,-537,-218,676,1601,3184,44,58,824,1752,1880,2096,2224,1936,1748,1812,1913
517766,-26496,5904,-26023,6745,722,1540,1018,-548,-221,735,1469,3327,58,54,824,1752,1880,2096,2224,1936,1748,1812,1913
518767,-26412,5960,-25958,6810,699,1601,1048,-585,-236,479,1390,2930,59,50,823,1752,1880,2096,2224,1936,1748,1812,1913
519768,-26340,6036,-25893,6875,840,1338,1074,-581,-258,214,1393,3318,41,43,823,1752,1880,2096,2224,1936,1748,1812,1913
520769,-26280,6116,-25828,6940,996,1270,1096,-537,-246,537,1468,3472,39,53,825,1752,1880,2096,2224,1936,1748,1812,1913
521770,-26192,6172,-25763,7005,618,1581,1095,-515,-225,1042,1482,3164,54,52,824,1752,1880,2096,2224,1936,1748,1812,1913
522771,-26124,6240,-25698,7070,865,1428,1098,-482,-222,846,1335,3477,58,54,824,1823,1927,2158,2293,1984,1762,1827,1959
523772,-26056,6316,-25633,7135,862,1315,1093,-472,-231,467,1480,3314,58,48,824,1823,1927,2158,2293,1984,1762,1827,1959
524773,-25988,6392,-25568,7200,858,1302,1095,-467,-236,474,1765,3435,42,53,825,1823,1927,2158,2293,1984,1762,1827,1959
525774,-25908,6468,-25503,7265,690,1288,1093,-469,-256,507,1669,3304,59,50,825,1823,1927,2158,2293,1984,1762,1827,1959
526775,-25820,6552,-25438,7330,562,1166,1104,-495,-253,539,1680,3152,49,52,827,1823,1927,2158,2293,1984,1762,1827,1959
527776,-25740,6648,-25373,7395,643,978,1114,-546,-251,672,2151,3235,49,49,829,1775,1868,2076,2208,1962,1750,1806,1931
528777,-25672,6728,-25308,7460,790,1160,1128,-594,-274,299,2065,3129,48,51,831,1775,1868,2076,2208,1962,1750,1806,1931
529778,-25600,6804,-25243,7525,731,1197,1150,-645,-311,601,2071,3251,38,61,826,1775,1868,2076,2208,1962,1750,1806,1931
530779,-25536,6876,-25178,7590,834,1239,1163,-695,-329,596,2016,3320,56,55,828,1775,1868,2076,2208,1962,1750,1806,1931
531780,-25452,6960,-25113,7655,560,1066,1167,-710,-336,480,2161,3360,43,45,826,1775,1868,2076,2208,1962,1750,1806,1931
532781,-25388,7032,-25048,7720,812,1207,1177,-716,-347,414,2151,3425,51,45,831,1775,1868,2076,2208,1962,1750,1806,1931
533782,-25344,7120,-24983,7785,1087,980,1198,-776,-351,831,1937,2970,42,58,827,1705,1795,2000,2133,1990,1771,1817,1944
534783,-25248,7188,-24918,7850,399,1227,1233,-828,-357,854,1889,3335,43,49,826,1705,1795,2000,2133,1990,1771,1817,1944
535784,-25184,7256,-24853,7915,801,1223,1258,-865,-348,689,1525,2936,46,51,831,1705,1795,2000,2133,1990,1771,1817,1944
536785,-25116,7328,-24788,7980,747,1164,1280,-831,-323,716,1408,3345,44,56,827,1705,1795,2000,2133,1990,1771,1817,1944
537786,-25028,7408,-24723,8045,470,1047,1291,-749,-288,606,1344,3320,58,57,828,1705,1795,2000,2133,1990,1771,1817,1944
538787,-24940,7480,-24658,8110,442,1139,1285,-651,-242,591,1297,3427,49,47,832,1665,1769,1978,2110,2006,1770,1817,1956
539788,-24872,7560,-24593,8175,688,1020,1271,-606,-215,892,1343,3195,56,45,831,1665,1769,1978,2110,2006,1770,1817,1956
540789,-24788,7648,-24528,8240,465,892,1251,-581,-206,734,1480,3092,53,51,830,1665,1769,1978,2110,2006,1770,1817,1956
541790,-24724,7732,-24463,8305,716,919,1233,-569,-184,926,1688,2996,42,48,833,1665,1769,1978,2110,2006,1770,1817,1956
542791,-24644,7796,-24398,8370,498,1171,1201,-538,-189,694,1740,2946,58,44,831,1665,1769,1978,2110,2006,1770,1817,1956
543792,-24564,7880,-24333,8435,479,898,1159,-555,-227,-28,1677,2841,44,56,830,1665,1769,1978,2110,2006,1770,1817,1956
544793,-24488,7952,-24268,8500,516,1039,1113,-598,-251,-187,1732,2754,53,48,833,1691,1805,2012,2129,1994,1761,1809,1942
545794,-24408,8020,-24203,8565,448,1086,1068,-664,-245,200,1681,2679,47,49,832,1691,1805,2012,2129,1994,1761,1809,1942
546795,-24344,8092,-24138,8630,649,1027,1019,-720,-240,120,1509,2543,50,46,830,1691,1805,2012,2129,1994,1761,1809,1942
547796,-24264,8160,-24073,8695,431,1075,1000,-781,-235,-151,1387,2421,45,42,830,1691,1805,2012,2129,1994,1761,1809,1942
548797,-24204,8232,-24008,8760,688,1016,979,-848,-230,-127,1367,2480,48,47,832,1691,1805,2012,2129,1994,1761,1809,1942
549798,-24120,8300,-23943,8825,365,1062,977,-888,-219,31,1313,2619,46,43,830,1679,1783,1993,2108,2005,1770,1814,1948
550799,-24044,8384,-23878,8890,451,839,996,-909,-188,287,1120,2717,44,44,832,1679,1783,1993,2108,2005,1770,1814,1948
551800,-23964,8464,-23813,8955,383,871,1011,-884,-166,848,1211,3082,45,57,834,1679,1783,1993,2108,2005,1770,1814,1948
552801,-23892,8532,-23748,9020,474,1018,1013,-788,-132,1064,1245,3531,53,47,834,1679,1783,1993,2108,2005,1770,1814,1948
553802,-23804,8608,-23683,9085,246,905,999,-689,-81,1136,1375,3458,42,48,832,1679,1783,1993,2108,2005,1770,1814,1948
554803,-23728,8700,-23618,9150,383,672,994,-589,-40,1301,1501,3697,51,52,835,1604,1697,1892,2002,1990,1760,1802,1915
555804,-23664,8780,-23553,9215,534,804,968,-466,1,1147,1491,3870,40,59,836,1604,1697,1892,2002,1990,1760,1802,1915
556805,-23592,8868,-23488,9280,425,675,883,-228,11,1328,1663,3118,40,50,834,1604,1697,1892,2002,1990,1760,1802,1915
557806,-23516,8960,-23423,9345,362,593,765,-33,24,703,1449,2693,54,51,836,1604,1697,1892,2002,1990,1760,1802,1915
558807,-23440,9060,-23358,9410,349,451,690,137,25,1316,1289,2478,50,51,837,1604,1697,1892,2002,1990,1760,1802,1915
559808,-23360,9136,-23293,9475,280,737,581,96,52,727,980,991,41,51,839,1604,1697,1892,2002,1990,1760,1802,1915
560809,-23292,9216,-23228,9540,427,669,470,185,8,434,977,2004,55,56,837,1672,1814,2015,2152,2046,1808,1853,2002
561810,-23208,9316,-23163,9605,203,376,380,273,-23,-993,463,404,37,62,836,1672,1814,2015,2152,2046,1808,1853,2002
562811,-23156,9404,-23098,9670,619,498,316,331,-58,-44,540,358,44,50,840,1672,1814,2015,2152,2046,1808,1853,2002
563812,-23064,9476,-23033,9735,86,690,256,277,-117,652,219,152,42,47,834,1672,1814,2015,2152,2046,1808,1853,2002
564813,-22984,9564,-22968,9800,218,462,158,229,-130,119,-583,306,49,62,838,1672,1814,2015,2152,2046,1808,1853,2002
565814,-22912,9644,-22903,9865,309,543,72,256,-161,-76,-570,220,44,61,839,1892,2047,2269,2348,2107,1819,1866,2068
566815,-22828,9740,-22838,9930,136,306,-9,392,-168,-145,-524,907,47,61,838,1892,2047,2269,2348,2107,1819,1866,2068
567816,-22748,9808,-22773,9995,168,653,-107,491,-134,-6,-699,1296,47,57,841,1892,2047,2269,2348,2107,1819,1866,2068
568817,-22664,9896,-22708,10060,95,375,-199,587,-77,212,-718,1797,44,55,838,1892,2047,2269,2348,2107,1819,1866,2068
569818,-22592,9972,-22643,10125,236,511,-289,687,-51,352,-483,2729,40,59,841,1892,2047,2269,2348,2107,1819,1866,2068
570819,-22516,10056,-22578,10190,173,388,-350,879,-15,892,-176,3407,39,54,839,1892,2047,2269,2348,2107,1819,1866,2068
571820,-22436,10140,-22513,10255,105,365,-394,1068,-5,1493,181,3509,57,50,840,1784,1901,2072,2093,1965,1707,1760,1914
572821,-22368,10244,-22448,10320,251,67,-416,1210,-5,1474,545,3777,51,56,841,1784,1901,2072,2093,1965,1707,1760,1914
573822,-22284,10332,-22383,10385,28,239,-443,1206,3,1259,656,3563,41,56,842,1784,1901,2072,2093,1965,1707,1760,1914
574823,-22216,10424,-22318,10450,224,156,-457,1176,25,641,704,3521,37,48,842,1784,1901,2072,2093,1965,1707,1760,1914
575824,-22128,10512,-22253,10515,-54,178,-488,1142,53,533,859,3660,53,43,842,1784,1901,2072,2093,1965,1707,1760,1914
576825,-22068,10596,-22188,10580,302,205,-534,1104,97,384,984,3816,49,45,842,1511,1610,1785,1872,1967,1727,1758,1878
577826,-21972,10680,-22123,10645,-186,182,-586,1005,128,423,1128,3444,37,50,841,1511,1610,1785,1872,1967,1727,1758,1878
578827,-21916,10756,-22058,10710,325,268,-600,877,158,401,1177,3879,39,49,829,1511,1610,1785,1872,1967,1727,1758,1878
579828,-21844,10844,-21993,10775,117,90,-603,744,167,437,1358,3301,46,43,840,1511,1610,1785,1872,1967,1727,1758,1878
580829,-21764,10928,-21928,10840,-2,117,-580,541,161,604,1360,3386,50,44,840,1511,1610,1785,1872,1967,1727,1758,1878
581830,-21692,10996,-21863,10905,90,313,-539,366,149,583,1193,3603,36,41,843,1511,1610,1785,1872,1967,1727,1758,1878
582831,-21612,11068,-21798,10970,-30,255,-470,220,133,808,1251,3958,31,44,841,1420,1472,1689,1848,2086,1873,1851,1952
583832,-21552,11152,-21733,11035,227,82,-400,120,120,1244,1255,3836,38,53,842,1420,1472,1689,1848,2086,1873,1851,1952
584833,-21496,11216,-21668,11100,288,333,-331,98,122,1502,964,3849,44,52,842,1420,1472,1689,1848,2086,1873,1851,1952
585834,-21428,11288,-21603,11165,134,224,-256,71,128,1089,635,3276,35,49,840,1420,1472,1689,1848,2086,1873,1851,1952
586835,-21364,11364,-21538,11230,185,161,-183,39,150,914,517,3449,35,43,842,1420,1472,1689,1848,2086,1873,1851,1952
587836,-21296,11424,-21473,11295,131,367,-148,50,182,1141,404,3067,39,42,842,1412,1484,1745,1892,2151,1920,1868,1967
588837,-21228,11524,-21408,11360,128,-177,-146,78,230,903,119,3104,32,39,841,1412,1484,1745,1892,2151,1920,1868,1967
589838,-21168,11596,-21343,11425,234,165,-183,79,319,508,-269,2559,47,41,842,1412,1484,1745,1892,2151,1920,1868,1967
590839,-21084,11684,-21278,11490,-89,-63,-260,159,407,618,-196,2827,47,41,842,1412,1484,1745,1892,2151,1920,1868,1967
591840,-21028,11768,-21213,11555,272,-37,-377,256,507,576,-71,2369,41,46,840,1412,1484,1745,1892,2151,1920,1868,1967
592841,-20956,11844,-21148,11620,63,50,-534,406,581,294,38,2835,50,48,842,1412,1484,1745,1892,2151,1920,1868,1967
593842,-20864,11940,-21083,11685,-220,-238,-686,533,619,576,-22,2617,34,51,843,1554,1654,1923,2087,1991,1766,1787,1899
594843,-20800,12060,-21018,11750,131,-605,-855,656,650,676,96,2938,47,41,826,1554,1654,1923,2087,1991,1766,1787,1899
595844,-20756,12164,-20953,11815,407,-453,-1010,808,659,546,361,2910,51,42,837,1554,1654,1923,2087,1991,1766,1787,1899
596845,-20696,12280,-20888,11880,212,-665,-1145,955,619,529,567,3181,43,43,838,1554,1654,1923,2087,1991,1766,1787,1899
597846,-20640,12312,-20823,11945,273,426,-1250,1068,561,245,239,3238,27,40,836,1554,1654,1923,2087,1991,1766,1787,1899
598847,-20568,12368,-20758,12010,65,135,-1355,1162,478,226,344,3194,31,28,839,1635,1690,1899,2065,1984,1749,1778,1903
599848,-20500,12416,-20693,12075,111,256,-1431,1240,390,-32,493,3308,35,29,842,1635,1690,1899,2065,1984,1749,1778,1903
600849,-20448,12476,-20628,12140,327,112,-1477,1300,315,388,336,3015,41,28,842,1635,1690,1899,2065,1984,1749,1778,1903
601850,-20368,12528,-20563,12205,-42,228,-1496,1372,268,807,338,2951,34,35,841,1635,1690,1899,2065,1984,1749,1778,1903
602851,-20276,12600,-20498,12270,-224,-30,-1513,1443,228,945,269,2697,38,29,842,1635,1690,1899,2065,1984,1749,1778,1903
603852,-20228,12640,-20433,12335,346,400,-1510,1520,205,500,-22,2689,40,39,843,1635,1690,1899,2065,1984,1749,1778,1903
604853,-20160,12688,-20368,12400,93,321,-1505,1596,219,406,62,2624,34,27,840,1550,1645,1861,1976,2103,1869,1881,2019
605854,-20096,12740,-20303,12465,144,287,-1501,1762,270,645,9,3068,50,39,841,1550,1645,1861,1976,2103,1869,1881,2019
606855,-20024,12796,-20238,12530,35,247,-1523,1898,345,1324,279,2965,33,32,841,1550,1645,1861,1976,2103,1869,1881,2019
607856,-19956,12856,-20173,12595,82,203,-1577,2005,429,1207,269,2709,53,44,843,1550,1645,1861,1976,2103,1869,1881,2019
608857,-19880,12928,-20108,12660,-33,44,-1646,2105,523,1538,292,2630,49,44,842,1550,1645,1861,1976,2103,1869,1881,2019
609858,-19796,12992,-20043,12725,-156,146,-1707,2214,596,1679,378,2735,33,33,844,1497,1572,1819,1986,2133,1922,1906,1988
610859,-19740,13052,-19978,12790,205,202,-1775,2315,647,1530,557,2549,37,32,833,1497,1572,1819,1986,2133,1922,1906,1988
611860,-19680,13120,-19913,12855,161,98,-1872,2391,689,1321,462,2753,40,42,841,1497,1572,1819,1986,2133,1922,1906,1988
612861,-19604,13180,-19848,12920,-52,204,-1980,2447,724,1067,377,2347,38,33,842,1497,1572,1819,1986,2133,1922,1906,1988
613862,-19532,13244,-19783,12985,-11,155,-2099,2491,736,694,363,2388,30,40,842,1497,1572,1819,1986,2133,1922,1906,1988
614863,-19476,13296,-19718,13050,200,321,-2216,2565,725,527,265,2349,42,48,841,1497,1572,1819,1986,2133,1922,1906,1988
615864,-19424,13364,-19653,13115,266,117,-2340,2610,709,600,76,2225,30,41,841,1543,1624,1879,2051,2061,1854,1842,1937
616865,-19364,13428,-19588,13180,172,168,-2453,2633,672,785,190,2137,29,49,842,1543,1624,1879,2051,2061,1854,1842,1937
617866,-19300,13492,-19523,13245,123,169,-2588,2625,612,611,3,1739,39,44,842,1543,1624,1879,2051,2061,1854,1842,1937
618867,-19244,13568,-19458,13310,234,6,-2704,2650,546,384,-281,1976,36,36,842,1543,1624,1879,2051,2061,1854,1842,1937
619868,-19172,13664,-19393,13375,25,-282,-2804,2683,490,605,-427,1677,27,36,843,1543,1624,1879,2051,2061,1854,1842,1937
620869,-19108,13728,-19328,13440,126,119,-2898,2757,448,644,-542,1767,29,35,842,1628,1721,1969,2112,2028,1785,1816,1969
621870,-19072,13784,-19263,13505,511,230,-3001,2878,410,353,-604,1841,27,41,842,1628,1721,1969,2112,2028,1785,1816,1969
622871,-18992,13856,-19198,13570,-57,21,-3103,3032,381,348,-680,2182,31,37,839,1628,1721,1969,2112,2028,1785,1816,1969
623872,-18948,13932,-19133,13635,419,-42,-3204,3205,393,789,-701,2126,41,51,843,1628,1721,1969,2112,2028,1785,1816,1969
624873,-18880,13992,-19068,13700,115,164,-3296,3355,416,1134,-373,2117,46,38,841,1628,1721,1969,2112,2028,1785,1816,1969
625874,-18816,14064,-19003,13765,166,5,-3400,3475,432,1091,-182,2060,49,43,842,1628,1721,1969,2112,2028,1785,1816,1969
626875,-18752,14124,-18938,13830,167,161,-3494,3575,447,694,-134,2046,47,36,843,1627,1746,1940,2019,2029,1773,1825,1975
627876,-18688,14184,-18873,13895,169,167,-3582,3694,469,687,277,2265,28,36,842,1627,1746,1940,2019,2029,1773,1825,1975
628877,-18616,14272,-18808,13960,60,-211,-3650,3740,534,442,361,2007,30,39,842,1627,1746,1940,2019,2029,1773,1825,1975
629878,-18560,14340,-18743,14025,271,35,-3686,3586,654,-146,391,2095,30,39,842,1627,1746,1940,2019,2029,1773,1825,1975
630879,-18500,14428,-18678,14090,227,-243,-3656,3188,717,-943,351,2787,27,40,842,1627,1746,1940,2019,2029,1773,1825,1975
631880,-18432,14480,-18613,14155,124,223,-3536,2662,761,-1622,365,3716,48,38,839,1548,1659,1846,1971,2028,1795,1834,1950
632881,-18380,14548,-18548,14220,339,19,-3328,2069,826,-1544,95,4720,38,38,842,1548,1659,1846,1971,2028,1795,1834,1950
633882,-18312,14628,-18483,14285,135,-150,-3082,1544,875,-1239,350,5545,40,48,842,1548,1659,1846,1971,2028,1795,1834,1950
634883,-18256,14692,-18418,14350,296,51,-2844,1185,898,-659,319,6089,29,48,842,1548,1659,1846,1971,2028,1795,1834,1950
635884,-18216,14768,-18353,14415,526,-112,-2667,956,923,473,410,6283,32,47,842,1548,1659,1846,1971,2028,1795,1834,1950
636885,-18152,14848,-18288,14480,227,-181,-2544,788,940,1490,693,6036,31,52,840,1548,1659,1846,1971,2028,1795,1834,1950
637886,-18092,14920,-18223,14545,284,-89,-2465,695,940,1954,796,6177,45,45,842,1627,1743,1955,2143,1983,1752,1870,2001
638887,-18024,14988,-18158,14610,180,-43,-2414,635,932,2228,812,5524,33,47,841,1627,1743,1955,2143,1983,1752,1870,2001
639888,-17964,15060,-18093,14675,286,-101,-2395,593,897,2301,755,5717,32,48,842,1627,1743,1955,2143,1983,1752,1870,2001
640889,-17888,15136,-18028,14740,73,-166,-2403,471,873,1597,621,4828,40,51,842,1627,1743,1955,2143,1983,1752,1870,2001
641890,-17808,15216,-17963,14805,4,-234,-2432,238,874,669,535,4610,34,50,842,1627,1743,1955,2143,1983,1752,1870,2001
642891,-17764,15292,-17898,14870,480,-198,-2465,-43,893,-376,197,4221,36,41,842,2248,2420,2522,2757,1925,1708,1916,2064
643892,-17692,15368,-17833,14935,121,-211,-2504,-397,897,-1113,164,4199,35,52,839,2248,2420,2522,2757,1925,1708,1916,2064
644893,-17608,15448,-17768,15000,-52,-279,-2503,-736,931,-2195,-676,4441,37,40,841,2248,2420,2522,2757,1925,1708,1916,2064
645894,-17532,15540,-17703,15065,35,-462,-2459,-1104,989,-2492,-980,5002,46,36,842,2248,2420,2522,2757,1925,1708,1916,2064
646895,-17444,15588,-17638,15130,-143,107,-2346,-1476,1056,-2511,-1284,5976,33,46,840,2248,2420,2522,2757,1925,1708,1916,2064
647896,-17388,15664,-17573,15195,268,-256,-2202,-1802,1119,-2692,-1493,6405,47,32,834,2248,2420,2522,2757,1925,1708,1916,2064
648897,-17328,15720,-17508,15260,224,5,-2035,-2033,1162,-3093,-1568,7180,34,44,839,2650,2772,2788,2936,1980,1740,1922,2092
649898,-17244,15800,-17443,15325,-100,-313,-1869,-2235,1208,-2839,-1654,7521,36,36,842,2650,2772,2788,2936,1980,1740,1922,2092
650899,-17160,15888,-17378,15390,-124,-441,-1671,-2408,1275,-2132,-1804,7958,38,37,837,2650,2772,2788,2936,1980,1740,1922,2092
651900,-17096,15948,-17313,15455,128,-85,-1472,-2517,1340,-1982,-1496,8465,35,37,833,2650,2772,2788,2936,1980,1740,1922,2092
652901,-17020,16008,-17248,15520,-36,-80,-1288,-2567,1366,-2021,-1109,8389,48,44,842,2650,2772,2788,2936,1980,1740,1922,2092
653902,-16940,16064,-17183,15585,-104,-19,-1137,-2595,1381,-1656,-902,8465,51,44,842,2208,2322,2385,2500,1996,1770,1906,2025
654903,-16868,16152,-17118,15650,-13,-447,-1026,-2599,1371,-707,-293,8319,46,44,838,2208,2322,2385,2500,1996,1770,1906,2025
655904,-16816,16196,-17053,15715,253,128,-956,-2585,1351,-185,87,7858,36,37,840,2208,2322,2385,2500,1996,1770,1906,2025
656905,-16732,16264,-16988,15780,-170,-175,-917,-2522,1306,96,211,7776,49,36,841,2208,2322,2385,2500,1996,1770,1906,2025
657906,-16660,16320,-16923,15845,-29,-15,-879,-2434,1269,446,244,7103,41,31,831,2208,2322,2385,2500,1996,1770,1906,2025
658907,-16580,16376,-16858,15910,-147,-4,-839,-2378,1250,764,427,6976,36,33,843,2208,2322,2385,2500,1996,1770,1906,2025
659908,-16516,16392,-16793,15975,54,555,-818,-2347,1232,297,308,6192,52,37,834,1927,1973,2127,2385,2063,1910,1965,1991
660909,-16424,16424,-16728,16040,-330,396,-804,-2334,1218,-271,33,6022,53,30,839,1927,1973,2127,2385,2063,1910,1965,1991
661910,-16360,16420,-16663,16105,22,930,-796,-2308,1216,-751,-19,5768,53,32,836,1927,1973,2127,2385,2063,1910,1965,1991
662911,-16280,16464,-16598,16170,-197,356,-781,-2317,1223,-1155,-609,5104,54,39,836,1927,1973,2127,2385,2063,1910,1965,1991
663912,-16216,16504,-16533,16235,5,435,-764,-2271,1215,-958,-1139,4806,56,37,827,1927,1973,2127,2385,2063,1910,1965,1991
664913,-16148,16576,-16468,16300,-49,27,-746,-2201,1209,-671,-1449,4772,40,43,840,1852,1880,2157,2455,2178,2034,2000,1995
665914,-16060,16624,-16403,16365,-327,347,-724,-2067,1226,-1391,-2004,4877,38,43,841,1852,1880,2157,2455,2178,2034,2000,1995
666915,-16008,16672,-16338,16430,139,368,-675,-1904,1253,-1530,-2453,4958,45,37,841,1852,1880,2157,2455,2178,2034,2000,1995
667916,-15912,16740,-16273,16495,-449,114,-605,-1729,1274,-1593,-2891,5501,51,43,842,1852,1880,2157,2455,2178,2034,2000,1995
668917,-15844,16800,-16208,16560,-104,221,-547,-1537,1276,-1503,-2943,5264,37,44,843,1852,1880,2157,2455,2178,2034,2000,1995
669918,-15780,16860,-16143,16625,-53,227,-499,-1295,1277,-1166,-2772,5947,53,42,838,1852,1880,2157,2455,2178,2034,2000,1995
670919,-15704,16944,-16078,16690,-216,-97,-485,-1040,1270,-1214,-2698,5510,39,39,842,1816,1883,2184,2394,2135,1929,1903,1980
671920,-15644,17016,-16013,16755,-10,45,-518,-777,1258,-932,-2451,5599,38,49,827,1816,1883,2184,2394,2135,1929,1903,1980
672921,-15568,17084,-15948,16820,-223,91,-583,-487,1242,-576,-2084,5360,48,50,843,1816,1883,2184,2394,2135,1929,1903,1980
673922,-15500,17148,-15883,16885,-127,141,-677,-190,1213,-337,-1717,5211,50,39,827,1816,1883,2184,2394,2135,1929,1903,1980
674925,-15448,17224,-15818,16950,89,-22,-782,120,1176,-83,-1175,5293,37,51,834,1816,1883,2184,2394,2135,1929,1903,1980
675924,-15380,17292,-15753,17015,-116,74,-895,357,1147,95,-821,4736,37,39,842,1819,1861,2076,2346,1977,1732,1812,1894
676925,-15332,17344,-15688,17080,155,290,-999,565,1119,-131,-557,4993,32,36,836,1819,1861,2076,2346,1977,1732,1812,1894
677926,-15268,17412,-15623,17145,-44,87,-1090,727,1073,304,-214,4538,31,31,841,1819,1861,2076,2346,1977,1732,1812,1894
678927,-15220,17484,-15558,17210,177,28,-1161,850,1037,470,-411,4203,39,44,843,1819,1861,2076,2346,1977,1732,1812,1894
679928,-15164,17544,-15493,17275,88,184,-1215,949,995,645,-415,4208,44,39,843,1819,1861,2076,2346,1977,1732,1812,1894
680929,-15104,17568,-15428,17340,44,684,-1219,1027,933,569,-509,4057,34,32,842,1819,1861,2076,2346,1977,1732,1812,1894
681930,-15060,17636,-15363,17405,270,131,-1189,1059,896,700,-681,4147,30,37,839,1782,1860,2027,2251,2025,1841,1917,1970
682931,-15004,17704,-15298,17470,130,127,-1119,1047,878,957,-1008,4023,36,41,839,1782,1860,2027,2251,2025,1841,1917,1970
683932,-14964,17788,-15233,17535,360,-97,-1006,1001,859,1090,-1180,3828,24,34,842,1782,1860,2027,2251,2025,1841,1917,1970
684933,-14904,17860,-15168,17600,116,44,-873,981,833,883,-1549,4015,37,32,841,1782,1860,2027,2251,2025,1841,1917,1970
685934,-14856,17916,-15103,17665,287,255,-734,938,811,937,-1612,3769,31,43,843,1782,1860,2027,2251,2025,1841,1917,1970
686935,-14804,17972,-15038,17730,253,266,-592,831,807,621,-1938,3354,22,41,841,1718,1789,2009,2220,2089,1883,1915,2000
687936,-14760,18024,-14973,17795,378,332,-452,724,816,845,-2217,3353,23,28,841,1718,1789,2009,2220,2089,1883,1915,2000
688937,-14720,18092,-14908,17860,459,128,-339,613,828,862,-2225,3083,25,38,839,1718,1789,2009,2220,2089,1883,1915,2000
689938,-14660,18164,-14843,17925,215,70,-284,524,858,583,-1999,2957,23,41,840,1718,1789,2009,2220,2089,1883,1915,2000
690939,-14616,18196,-14778,17990,441,610,-260,493,870,582,-1757,3088,37,30,842,1718,1789,2009,2220,2089,1883,1915,2000
691940,-14556,18268,-14713,18055,247,101,-295,444,891,459,-1768,2678,33,38,837,1718,1789,2009,2220,2089,1883,1915,2000
692941,-14504,18300,-14648,18120,363,642,-359,418,897,578,-1428,3229,27,42,841,1784,1888,2104,2304,1920,1714,1792,1864
693942,-14460,18364,-14583,18185,488,243,-462,408,903,441,-1053,2665,30,42,837,1784,1888,2104,2304,1920,1714,1792,1864
694943,-14404,18404,-14518,18250,348,573,-585,381,901,171,-787,2756,24,44,839,1784,1888,2104,2304,1920,1714,1792,1864
695944,-14348,18460,-14453,18315,359,383,-716,315,907,-172,-590,2483,27,31,838,1784,1888,2104,2304,1920,1714,1792,1864
696945,-14292,18532,-14388,18380,370,175,-845,252,887,-243,-315,2421,26,44,839,1784,1888,2104,2304,1920,1714,1792,1864
697946,-14232,18596,-14323,18445,326,276,-960,172,858,-20,-591,2465,31,32,841,1925,2035,2155,2338,1803,1608,1743,1843
698947,-14172,18664,-14258,18510,333,223,-1019,53,802,51,-754,2043,39,37,840,1925,2035,2155,2338,1803,1608,1743,1843
699948,-14120,18728,-14193,18575,448,274,-1030,15,696,384,-633,3130,43,45,839,1925,2035,2155,2338,1803,1608,1743,1843
700949,-14080,18792,-13994,18774,792,439,-1026,-80,600,573,-944,2492,43,39,839,1925,2035,2155,2338,1803,1608,1743,1843
701950,-14024,18860,-13929,18839,603,385,-992,-253,510,463,-1028,2506,31,37,835,1925,2035,2155,2338,1803,1608,1743,1843
702951,-13960,18924,-13864,18904,505,436,-910,-371,421,665,-1170,3137,28,44,837,1925,2035,2155,2338,1803,1608,1743,1843
703952,-13892,18976,-13799,18969,451,602,-787,-471,351,1108,-1423,3224,29,33,838,1801,1891,2020,2149,1958,1733,1843,1986
704953,-13840,19060,-13734,19034,667,179,-636,-538,307,1087,-1656,3664,38,31,837,1801,1891,2020,2149,1958,1733,1843,1986
705954,-13772,19116,-13669,19099,463,540,-454,-564,269,1091,-1668,3985,34,39,838,1801,1891,2020,2149,1958,1733,1843,1986
706955,-13720,19184,-13604,19164,679,386,-277,-627,258,1164,-1626,3931,51,38,837,1801,1891,2020,2149,1958,1733,1843,1986
707956,-13668,19256,-13539,19229,695,328,-112,-676,264,1190,-1528,3979,33,37,836,1801,1891,2020,2149,1958,1733,1843,1986
708957,-13588,19324,-13474,19294,328,374,9,-732,284,1006,-1358,3650,51,39,837,1644,1756,1929,2073,2066,1842,1911,2007
709958,-13528,19396,-13409,19359,584,315,84,-803,321,687,-1124,3538,44,49,839,1644,1756,1929,2073,2066,1842,1911,2007
710959,-13452,19460,-13344,19424,370,417,104,-883,377,673,-934,3042,42,42,838,1644,1756,1929,2073,2066,1842,1911,2007
711960,-13388,19552,-13279,19489,522,34,76,-948,413,796,-716,3147,52,50,839,1644,1756,1929,2073,2066,1842,1911,2007
712961,-13320,19608,-13214,19554,468,495,24,-982,439,372,-703,3113,51,32,840,1644,1756,1929,2073,2066,1842,1911,2007
713962,-13264,19676,-13149,19619,629,341,-47,-1014,468,339,-639,3150,49,36,838,1644,1756,1929,2073,2066,1842,1911,2007
714963,-13196,19712,-13084,19684,475,776,-115,-1009,469,444,-595,3411,35,43,837,1750,1857,2055,2318,1958,1775,1857,1887
715964,-13148,19788,-13019,19749,746,263,-195,-964,444,365,-915,3512,49,37,835,1750,1857,2055,2318,1958,1775,1857,1887
716965,-13072,19840,-12954,19814,383,579,-249,-884,398,440,-1021,3943,35,37,835,1750,1857,2055,2318,1958,1775,1857,1887
717966,-13008,19944,-12889,19879,534,-119,-288,-814,338,508,-1359,3943,35,44,837,1750,1857,2055,2318,1958,1775,1857,1887
718967,-12944,20004,-12824,19944,535,437,-301,-717,260,430,-1642,4395,49,36,839,1750,1857,2055,2318,1958,1775,1857,1887
719968,-12876,20068,-12759,20009,481,388,-293,-613,163,515,-1759,4570,51,44,837,1925,1999,2191,2454,1914,1746,1812,1872
720969,-12804,20136,-12694,20074,423,335,-262,-509,76,455,-2131,4616,51,47,838,1925,1999,2191,2454,1914,1746,1812,1872
721970,-12740,20204,-12629,20139,524,331,-212,-405,-14,735,-2185,4997,37,37,839,1925,1999,2191,2454,1914,1746,1812,1872
722971,-12684,20272,-12564,20204,635,327,-144,-297,-105,686,-2237,5116,33,47,838,1925,1999,2191,2454,1914,1746,1812,1872
723972,-12632,20364,-12499,20269,701,-5,-64,-164,-183,669,-2277,5493,47,39,837,1925,1999,2191,2454,1914,1746,1812,1872
724973,-12556,20436,-12434,20334,387,236,18,-16,-243,829,-2141,5502,35,40,838,1925,1999,2191,2454,1914,1746,1812,1872
725974,-12500,20484,-12369,20399,648,557,95,110,-280,801,-1997,5366,34,36,840,1902,1970,2185,2400,1983,1796,1851,1931
726975,-12432,20540,-12304,20464,495,468,169,197,-297,877,-1762,5301,46,43,836,1902,1970,2185,2400,1983,1796,1851,1931
727976,-12384,20600,-12239,20529,766,424,230,284,-288,656,-1476,5030,47,33,837,1902,1970,2185,2400,1983,1796,1851,1931
728977,-12328,20688,-12174,20594,676,46,281,355,-265,698,-1123,4948,35,32,835,1902,1970,2185,2400,1983,1796,1851,1931
729978,-12276,20740,-12109,20659,742,511,315,428,-231,761,-877,4619,36,36,838,1902,1970,2185,2400,1983,1796,1851,1931
730979,-12220,20784,-12044,20724,704,636,347,470,-194,926,-613,4362,49,33,835,1858,1943,2151,2399,2043,1861,1940,1984
731980,-12148,20848,-11979,20789,496,387,362,519,-161,774,-467,4323,32,36,833,1858,1943,2151,2399,2043,1861,1940,1984
732981,-12084,20912,-11914,20854,597,389,371,554,-137,800,-365,4061,48,41,838,1858,1943,2151,2399,2043,1861,1940,1984
733982,-12024,20976,-11849,20919,653,390,384,582,-113,1062,-268,4005,47,31,835,1858,1943,2151,2399,2043,1861,1940,1984
734983,-11980,21060,-11784,20984,879,117,408,605,-99,1093,-296,4211,46,30,836,1858,1943,2151,2399,2043,1861,1940,1984
735984,-11916,21108,-11719,21049,630,587,444,629,-101,977,-492,4211,43,32,836,1858,1943,2151,2399,2043,1861,1940,1984
736985,-11852,21176,-11654,21114,631,334,496,639,-122,1080,-680,4361,35,34,835,1858,1945,2121,2369,2033,1840,1912,1962
737986,-11788,21228,-11589,21179,632,550,558,642,-160,1056,-951,4475,43,41,837,1858,1945,2121,2369,2033,1840,1912,1962
738987,-11736,21272,-11524,21244,798,675,628,634,-200,920,-1256,4402,33,35,835,1858,1945,2121,2369,2033,1840,1912,1962
739988,-11684,21348,-11459,21309,814,262,705,601,-250,825,-1409,4624,44,41,833,1858,1945,2121,2369,2033,1840,1912,1962
740989,-11620,21404,-11394,21374,665,523,770,551,-301,671,-1556,4531,48,45,835,1858,1945,2121,2369,2033,1840,1912,1962
741990,-11568,21456,-11329,21439,831,589,830,515,-353,830,-1726,4542,45,41,835,1826,1903,2100,2298,1967,1751,1815,1914
742991,-11512,21504,-11264,21504,792,660,874,510,-400,912,-1785,4460,45,41,833,1826,1903,2100,2298,1967,1751,1815,1914
743992,-11448,21568,-11199,21569,693,461,896,519,-439,846,-1667,4444,43,44,833,1826,1903,2100,2298,1967,1751,1815,1914
744993,-11384,21636,-11134,21634,696,407,897,544,-464,833,-1604,4109,41,38,835,1826,1903,2100,2298,1967,1751,1815,1914
745994,-11320,21688,-11069,21699,697,623,882,586,-473,843,-1469,3946,47,34,836,1826,1903,2100,2298,1967,1751,1815,1914
746995,-11248,21748,-11004,21764,588,529,860,588,-472,751,-1116,3808,47,30,834,1826,1903,2100,2298,1967,1751,1815,1914
747996,-11172,21800,-10939,21829,525,645,830,591,-450,406,-938,3717,36,43,836,1835,1939,2125,2293,1917,1709,1801,1906
748997,-11096,21844,-10874,21894,511,771,789,564,-415,437,-801,3349,51,39,835,1835,1939,2125,2293,1917,1709,1801,1906
749998,-11036,21916,-10809,21959,718,412,753,523,-370,449,-681,3235,39,43,835,1835,1939,2125,2293,1917,1709,1801,1906
750999,-10976,21972,-10744,22024,724,623,721,471,-321,279,-448,3213,34,42,834,1835,1939,2125,2293,1917,1709,1801,1906
752000,-10884,22036,-10679,22089,291,524,712,444,-268,202,-246,3238,49,37,834,1835,1939,2125,2293,1917,1709,1801,1906
753001,-10828,22092,-10614,22154,752,635,706,393,-224,335,-43,3238,47,43,838,1857,1959,2126,2311,1981,1778,1877,1977
754002,-10764,22132,-10549,22219,653,866,724,349,-184,241,-83,3323,35,38,834,1857,1959,2126,2311,1981,1778,1877,1977
755003,-10696,22192,-10484,22284,599,622,762,293,-148,275,-22,3348,36,29,832,1857,1959,2126,2311,1981,1778,1877,1977
756004,-10648,22240,-10419,22349,870,793,828,219,-126,527,-50,3210,32,42,834,1857,1959,2126,2311,1981,1778,1877,1977
757005,-10576,22320,-10354,22414,562,374,898,135,-125,626,-160,3340,33,31,831,1857,1959,2126,2311,1981,1778,1877,1977
758006,-10516,22372,-10289,22479,719,740,973,94,-131,576,-135,3615,51,35,837,1857,1959,2126,2311,1981,1778,1877,1977
759007,-10440,22452,-10224,22544,505,372,1041,65,-138,740,-85,3588,34,32,833,1784,1874,2060,2234,2069,1849,1899,1993
760008,-10376,22516,-10159,22609,656,573,1108,38,-152,773,-171,3821,51,33,837,1784,1874,2060,2234,2069,1849,1899,1993
761009,-10312,22580,-10094,22674,658,574,1170,22,-174,730,-363,3748,35,39,835,1784,1874,2060,2234,2069,1849,1899,1993
762010,-10240,22640,-10029,22739,549,631,1226,7,-191,890,-361,3863,39,43,835,1784,1874,2060,2234,2069,1849,1899,1993
763011,-10204,22732,-9964,22804,1034,198,1253,-11,-198,725,-318,3772,35,44,835,1784,1874,2060,2234,2069,1849,1899,1993
764012,-10136,22772,-9899,22869,631,879,1272,-21,-204,541,-364,3892,33,28,834,1728,1835,2049,2224,2006,1784,1827,1921
765013,-10072,22820,-9834,22934,682,800,1260,-31,-196,464,-333,3776,37,33,832,1728,1835,2049,2224,2006,1784,1827,1921
766014,-10008,22896,-9769,22999,683,436,1234,-37,-176,530,-215,3616,47,29,832,1728,1835,2049,2224,2006,1784,1827,1921
767015,-9944,22960,-9704,23064,684,587,1184,-27,-142,437,-260,3842,50,43,835,1728,1835,2049,2224,2006,1784,1827,1921
768016,-9888,23024,-9639,23129,795,589,1142,23,-121,334,-71,3707,42,35,833,1728,1835,2049,2224,2006,1784,1827,1921
769017,-9820,23092,-9574,23194,643,535,1071,73,-84,305,-52,3589,48,34,833,1728,1835,2049,2224,2006,1784,1827,1921
770018,-9760,23148,-9509,23259,749,696,1019,114,-33,315,-39,3590,37,40,835,1831,1915,2135,2339,1924,1730,1811,1903
771019,-9700,23216,-9444,23324,755,542,977,146,23,90,-5,3583,52,48,833,1831,1915,2135,2339,1924,1730,1811,1903
772020,-9644,23292,-9379,23389,816,429,950,187,73,54,105,3758,38,34,834,1831,1915,2135,2339,1924,1730,1811,1903
773021,-9580,23356,-9314,23454,717,580,937,230,107,188,162,3650,37,39,834,1831,1915,2135,2339,1924,1730,1811,1903
774022,-9508,23432,-9249,23519,609,417,946,261,141,126,142,3657,46,37,834,1831,1915,2135,2339,1924,1730,1811,1903
775023,-9452,23492,-9184,23584,820,623,962,275,161,252,342,3717,51,38,836,1836,1926,2127,2307,1993,1795,1858,1966
776024,-9396,23532,-9119,23649,831,903,1001,278,178,166,376,3641,33,32,833,1836,1926,2127,2307,1993,1795,1858,1966
777025,-9328,23624,-9054,23714,677,220,1037,289,187,180,365,3632,45,46,831,1836,1926,2127,2307,1993,1795,1858,1966
778026,-9264,23680,-8989,23779,728,681,1084,302,179,326,515,3757,49,48,836,1836,1926,2127,2307,1993,1795,1858,1966
779027,-9216,23740,-8924,23844,950,637,1138,314,172,462,531,3650,38,44,834,1836,1926,2127,2307,1993,1795,1858,1966
780028,-9156,23796,-8859,23909,806,698,1194,318,168,719,607,3755,41,43,831,1783,1869,2088,2264,2087,1870,1908,2012
781029,-9092,23876,-8794,23974,757,380,1243,345,151,702,629,3779,35,45,832,1783,1869,2088,2264,2087,1870,1908,2012
782030,-9028,23932,-8729,24039,758,691,1287,373,132,571,676,3908,49,35,835,1783,1869,2088,2264,2087,1870,1908,2012
783031,-8980,24004,-8664,24104,979,483,1320,397,128,675,764,3826,47,34,833,1783,1869,2088,2264,2087,1870,1908,2012
784032,-8916,24084,-8599,24169,780,364,1349,417,132,803,763,3862,49,38,832,1783,1869,2088,2264,2087,1870,1908,2012
785033,-8848,24148,-8534,24234,727,565,1361,452,144,793,731,3765,49,49,833,1783,1869,2088,2264,2087,1870,1908,2012
786034,-8796,24224,-8469,24299,943,402,1365,478,170,685,723,3796,38,33,834,1764,1846,2073,2253,2042,1827,1864,1952
787035,-8728,24272,-8404,24364,739,773,1355,529,214,530,675,3951,43,41,833,1764,1846,2073,2253,2042,1827,1864,1952
788036,-8676,24324,-8339,24429,956,739,1345,584,247,361,708,3857,51,44,833,1764,1846,2073,2253,2042,1827,1864,1952
789037,-8612,24404,-8274,24494,807,370,1324,601,261,-43,630,3978,33,34,830,1764,1846,2073,2253,2042,1827,1864,1952
790038,-8552,24460,-8209,24559,863,682,1295,590,282,-121,451,3715,39,44,834,1764,1846,2073,2253,2042,1827,1864,1952
791039,-8500,24500,-8144,24624,979,913,1253,509,319,105,515,3754,35,41,832,1802,1885,2109,2300,1945,1750,1802,1902
792040,-8428,24568,-8079,24689,721,559,1207,444,352,-106,490,3841,46,37,828,1802,1885,2109,2300,1945,1750,1802,1902
793041,-8376,24612,-8014,24754,986,885,1148,380,388,-322,396,3797,38,31,833,1802,1885,2109,2300,1945,1750,1802,1902
794042,-8320,24688,-7949,24819,947,471,1101,377,411,111,421,4063,52,37,829,1802,1885,2109,2300,1945,1750,1802,1902
795043,-8264,24760,-7884,24884,959,513,1067,373,436,367,451,3966,51,35,832,1802,1885,2109,2300,1945,1750,1802,1902
796044,-8200,24804,-7819,24949,861,889,1051,408,438,379,528,4276,46,42,832,1802,1885,2109,2300,1945,1750,1802,1902
797045,-8128,24876,-7754,25014,752,530,1063,437,463,517,-47,4441,43,48,830,1816,1906,2131,2287,1979,1785,1845,1979
798046,-8068,24940,-7689,25079,908,631,1130,551,442,578,136,4909,44,31,833,1816,1906,2131,2287,1979,1785,1845,1979
799047,-8012,25004,-7624,25144,969,632,1157,635,411,1262,359,4358,35,39,832,1816,1906,2131,2287,1979,1785,1845,1979
800048,-7948,25068,-7559,25209,870,634,1166,638,406,1347,569,3667,42,34,831,1816,1906,2131,2287,1979,1785,1845,1979
801049,-7892,25124,-7494,25274,981,745,1190,606,394,105,823,4147,39,32,832,1816,1906,2131,2287,1979,1785,1845,1979
802050,-7824,25176,-7429,25339,829,810,1197,553,368,23,863,3859,39,48,828,1807,1914,2119,2272,2096,1872,1936,2063
803051,-7756,25248,-7364,25404,825,552,1200,500,351,423,1116,3548,43,37,830,1807,1914,2119,2272,2096,1872,1936,2063
804052,-7712,25304,-7299,25469,1151,763,1210,468,336,309,1072,3753,37,36,833,1807,1914,2119,2272,2096,1872,1936,2063
805053,-7660,25376,-7234,25534,1067,554,1223,414,339,-90,993,3498,31,40,829,1807,1914,2119,2272,2096,1872,1936,2063
806054,-7604,25444,-7169,25599,1028,601,1226,343,360,52,1235,3640,44,47,830,1807,1914,2119,2272,2096,1872,1936,2063
807055,-7532,25516,-7104,25664,819,542,1232,304,384,-156,1350,3767,49,44,830,1807,1914,2119,2272,2096,1872,1936,2063
808056,-7468,25564,-7039,25729,920,863,1230,273,394,-280,1191,3774,41,34,833,1823,1890,2114,2332,2151,1880,1928,2048
809057,-7436,25640,-6974,25794,1361,499,1226,252,425,-45,954,3950,51,35,829,1823,1890,2114,2332,2151,1880,1928,2048
810058,-7352,25704,-6909,25859,688,652,1213,217,462,80,1000,4027,37,30,827,1823,1890,2114,2332,2151,1880,1928,2048
811059,-7292,25764,-6844,25924,994,708,1197,209,486,-86,870,4236,51,38,833,1823,1890,2114,2332,2151,1880,1928,2048
812060,-7240,25820,-6779,25989,1110,769,1171,207,497,-17,659,4466,54,41,830,1823,1890,2114,2332,2151,1880,1928,2048
813061,-7180,25884,-6714,26054,1016,670,1145,179,493,-5,585,4640,49,43,828,1791,1874,2093,2263,2011,1803,1837,1943
814062,-7124,25948,-6649,26119,1077,671,1108,140,489,-134,472,4503,38,37,829,1791,1874,2093,2263,2011,1803,1837,1943
815063,-7060,25996,-6584,26184,980,892,1081,127,472,115,532,4659,46,31,829,1791,1874,2093,2263,2011,1803,1837,1943
816064,-6996,26044,-6519,26249,981,913,1048,134,460,405,238,4705,53,43,828,1791,1874,2093,2263,2011,1803,1837,1943
817065,-6940,26112,-6454,26314,1092,659,1005,149,457,344,197,4556,54,32,828,1791,1874,2093,2263,2011,1803,1837,1943
818066,-6872,26180,-6389,26379,938,655,959,207,439,463,481,4820,51,36,829,1791,1874,2093,2263,2011,1803,1837,1943
819067,-6796,26228,-6324,26444,825,926,897,210,444,-11,249,4010,51,44,829,1793,1881,2121,2276,1985,1790,1832,1964
820068,-6748,26288,-6259,26509,1196,782,841,252,429,43,608,4667,39,43,829,1793,1881,2121,2276,1985,1790,1832,1964
821069,-6688,26344,-6194,26574,1053,843,794,255,410,95,618,4001,47,32,827,1793,1881,2121,2276,1985,1790,1832,1964
822070,-6636,26408,-6129,26639,1168,744,773,283,386,60,455,4345,40,34,827,1793,1881,2121,2276,1985,1790,1832,1964
823071,-6576,26464,-6064,26704,1075,855,791,321,362,118,520,4608,34,41,827,1793,1881,2121,2276,1985,1790,1832,1964
824072,-6496,26544,-5999,26769,806,538,822,371,354,-975,286,4471,33,35,827,1821,1909,2151,2306,2104,1898,1940,2072
825073,-6464,26612,-5934,26834,1446,684,810,512,313,-1099,347,4878,34,39,832,1821,1909,2151,2306,2104,1898,1940,2072
826074,-6396,26660,-5869,26899,994,955,724,462,318,1318,178,3521,41,41,825,1821,1909,2151,2306,2104,1898,1940,2072
827075,-6324,26732,-5804,26964,935,647,656,223,357,1687,1143,2926,40,46,827,1821,1909,2151,2306,2104,1898,1940,2072
828076,-6280,26808,-5739,27029,1311,583,603,24,361,-1728,1563,3451,54,37,830,1821,1909,2151,2306,2104,1898,1940,2072
829077,-6224,26872,-5674,27094,1172,734,574,53,288,-1898,1412,5251,50,48,828,1821,1909,2151,2306,2104,1898,1940,2072
830078,-6152,26920,-5609,27159,963,955,539,139,281,-491,898,4111,53,41,827,1811,1908,2134,2308,2172,1949,1992,2105
831079,-6100,26992,-5544,27224,1230,647,534,166,301,-108,1045,3968,36,35,827,1811,1908,2134,2308,2172,1949,1992,2105
832080,-6044,27052,-5479,27289,1191,803,536,130,308,-59,821,4176,53,52,827,1811,1908,2134,2308,2172,1949,1992,2105
833081,-5984,27112,-5414,27354,1147,809,539,153,296,457,566,4570,36,48,826,1811,1908,2134,2308,2172,1949,1992,2105
834082,-5908,27212,-5349,27419,934,266,564,186,286,236,367,4237,38,44,827,1811,1908,2134,2308,2172,1949,1992,2105
835083,-5848,27276,-5284,27484,1141,717,577,191,292,33,133,4863,37,44,832,1747,1841,2066,2229,2128,1888,1909,2026
836084,-5788,27348,-5219,27549,1147,610,584,253,288,237,489,5058,53,36,827,1747,1841,2066,2229,2128,1888,1909,2026
837085,-5736,27396,-5154,27614,1263,931,581,353,281,217,373,4762,36,38,828,1747,1841,2066,2229,2128,1888,1909,2026
838086,-5668,27480,-5089,27679,1059,457,603,414,272,599,-304,4809,36,43,825,1747,1841,2066,2229,2128,1888,1909,2026
839087,-5600,27536,-5024,27744,1056,818,610,411,277,242,449,4780,45,44,829,1747,1841,2066,2229,2128,1888,1909,2026
840088,-5540,27608,-4959,27809,1163,610,608,410,281,-220,666,4562,32,41,828,1747,1841,2066,2229,2128,1888,1909,2026
841089,-5484,27680,-4894,27874,1224,601,540,426,296,-79,260,4695,49,42,828,1737,1840,2087,2243,1968,1762,1825,1928
842090,-5416,27732,-4829,27939,1070,867,475,454,258,-385,544,4356,37,34,828,1737,1840,2087,2243,1968,1762,1825,1928
843091,-5368,27800,-4764,28004,1341,664,405,447,236,-614,524,4013,38,39,827,1737,1840,2087,2243,1968,1762,1825,1928
844092,-5300,27856,-4699,28069,1087,825,333,380,208,-216,618,3865,41,35,825,1737,1840,2087,2243,1968,1762,1825,1928
845093,-5232,27908,-4634,28134,1084,890,274,268,194,-579,575,3484,33,37,827,1737,1840,2087,2243,1968,1762,1825,1928
846094,-5176,27976,-4569,28199,1245,687,202,217,170,-176,886,3765,36,34,827,1848,1930,2178,2400,1992,1792,1844,1960
847095,-5136,28064,-4504,28264,1476,409,121,232,156,-107,923,3368,35,39,826,1848,1930,2178,2400,1992,1792,1844,1960
848096,-5064,28120,-4439,28329,1067,820,58,271,136,-142,955,3556,50,38,826,1848,1930,2178,2400,1992,1792,1844,1960
849097,-5020,28196,-4374,28394,1444,557,29,284,130,-110,1119,3377,33,36,827,1848,1930,2178,2400,1992,1792,1844,1960
850101,-4964,28232,-4309,28459,1305,1093,32,302,129,-60,1061,3660,39,44,825,1848,1930,2178,2400,1992,1792,1844,1960
851099,-4908,28312,-4244,28524,1316,524,61,353,134,83,1013,3813,37,48,823,1848,1930,2178,2400,1992,1792,1844,1960
852100,-4840,28364,-4179,28589,1162,890,103,413,138,59,943,3918,42,46,826,1883,1963,2184,2358,2095,1895,1943,2063
853101,-4772,28448,-4114,28654,1160,467,162,465,138,-8,755,3928,39,48,824,1883,1963,2184,2358,2095,1895,1943,2063
854102,-4720,28508,-4049,28719,1376,773,232,483,146,16,708,4092,41,37,828,1883,1963,2184,2358,2095,1895,1943,2063
855103,-4664,28556,-3984,28784,1337,944,323,484,167,-96,870,4150,50,48,825,1883,1963,2184,2358,2095,1895,1943,2063
856104,-4608,28628,-3919,28849,1348,635,400,472,180,-399,972,4119,36,48,823,1883,1963,2184,2358,2095,1895,1943,2063
857105,-4532,28684,-3854,28914,1085,846,466,474,175,-360,994,4280,53,35,825,1758,1841,2064,2228,2090,1860,1885,1979
858106,-4472,28748,-3789,28979,1291,747,518,460,180,-379,956,4104,53,36,826,1758,1841,2064,2228,2090,1860,1885,1979
859107,-4400,28800,-3724,29044,1133,913,534,436,186,-552,1094,4254,54,43,826,1758,1841,2064,2228,2090,1860,1885,1979
860108,-4344,28864,-3659,29109,1344,765,529,417,196,-648,852,3952,40,32,825,1758,1841,2064,2228,2090,1860,1885,1979
861109,-4276,28900,-3594,29174,1191,1151,490,364,202,-97,658,3930,52,41,825,1758,1841,2064,2228,2090,1860,1885,1979
862110,-4204,28956,-3529,29239,1132,912,439,298,212,130,1149,3590,39,46,822,1758,1841,2064,2228,2090,1860,1885,1979
863111,-4156,29020,-3464,29304,1453,813,366,240,206,-68,1234,3584,53,48,825,1738,1830,2062,2248,1950,1752,1799,1885
864112,-4084,29088,-3399,29369,1145,760,316,239,167,-362,1133,3712,44,39,823,1738,1830,2062,2248,1950,1752,1799,1885
865113,-4020,29152,-3334,29434,1247,811,271,278,118,-71,1070,3959,49,36,826,1738,1830,2062,2248,1950,1752,1799,1885
866114,-3964,29208,-3269,29499,1358,922,243,352,94,442,760,3683,49,37,825,1738,1830,2062,2248,1950,1752,1799,1885
867115,-3900,29256,-3204,29564,1259,1042,214,331,97,468,769,3297,39,47,823,1738,1830,2062,2248,1950,1752,1799,1885
868116,-3832,29320,-3139,29629,1205,844,213,302,83,-19,910,3487,38,47,823,1817,1901,2129,2313,1944,1756,1808,1918
869117,-3776,29388,-3074,29694,1367,790,204,344,55,-1,866,3553,41,49,824,1817,1901,2129,2313,1944,1756,1808,1918
870118,-3716,29444,-3009,29759,1324,951,208,410,36,349,644,3491,51,36,823,1817,1901,2129,2313,1944,1756,1808,1918
871119,-3652,29488,-2944,29824,1275,1128,218,412,33,400,712,3238,40,49,823,1817,1901,2129,2313,1944,1756,1808,1918
872120,-3596,29576,-2879,29889,1387,550,240,398,35,86,729,3315,39,47,821,1817,1901,2129,2313,1944,1756,1808,1918
873121,-3548,29624,-2814,29954,1507,1070,282,382,46,-241,739,3186,31,50,823,1817,1901,2129,2313,1944,1756,1808,1918
874122,-3476,29684,-2749,30019,1199,926,311,362,59,-258,920,3331,40,40,821,1840,1920,2155,2321,2008,1813,1849,1961
875123,-3432,29756,-2684,30084,1575,768,350,370,84,-287,1109,3457,35,36,823,1840,1920,2155,2321,2008,1813,1849,1961
876124,-3376,29808,-2619,30149,1437,1034,384,374,103,-307,1193,3414,42,49,822,1840,1920,2155,2321,2008,1813,1849,1961
877125,-3320,29868,-2554,30214,1448,940,420,342,121,-394,1159,3319,52,46,821,1840,1920,2155,2321,2008,1813,1849,1961
878126,-3272,29952,-2489,30279,1568,617,456,303,135,-307,1367,3594,51,38,821,1840,1920,2155,2321,2008,1813,1849,1961
879127,-3204,30012,-2424,30344,1316,924,488,245,155,-579,1422,3600,44,43,822,1761,1869,2092,2239,1999,1800,1839,1931
880128,-3136,30064,-2359,30409,1312,1040,506,204,166,-387,1466,3686,39,38,823,1761,1869,2092,2239,1999,1800,1839,1931
881129,-3096,30128,-2294,30474,1693,891,525,189,171,-4,1540,3966,49,48,822,1761,1869,2092,2239,1999,1800,1839,1931
882130,-3020,30188,-2229,30539,1229,947,541,209,170,292,1425,3902,43,48,820,1761,1869,2092,2239,1999,1800,1839,1931
883131,-2956,30252,-2164,30604,1381,898,551,227,157,435,1476,4162,40,43,821,1761,1869,2092,2239,1999,1800,1839,1931
884132,-2900,30300,-2099,30669,1492,1119,553,226,143,395,1435,4090,50,49,823,1761,1869,2092,2239,1999,1800,1839,1931
885133,-2820,30364,-2034,30734,1174,920,559,242,116,417,1331,4217,58,44,820,1752,1832,2064,2248,1954,1754,1800,1888
886134,-2748,30436,-1969,30799,1266,813,541,237,95,372,1171,3885,53,39,822,1752,1832,2064,2248,1954,1754,1800,1888
887135,-2680,30496,-1904,30864,1313,969,530,259,74,544,1142,4128,39,41,823,1752,1832,2064,2248,1954,1754,1800,1888
888136,-2616,30544,-1839,30929,1364,1139,517,292,54,654,955,4019,38,52,823,1752,1832,2064,2248,1954,1754,1800,1888
889137,-2556,30616,-1774,30994,1420,831,504,317,52,553,796,3935,36,44,821,1752,1832,2064,2248,1954,1754,1800,1888
890138,-2496,30680,-1709,31059,1427,932,495,328,42,372,781,3795,49,52,821,1823,1915,2159,2351,2015,1819,1855,1967
891139,-2436,30760,-1644,31124,1433,714,477,292,34,121,689,3585,46,52,821,1823,1915,2159,2351,2015,1819,1855,1967
892140,-2384,30812,-1579,31189,1549,1080,468,262,37,119,584,3535,41,47,822,1823,1915,2159,2351,2015,1819,1855,1967
893141,-2312,30872,-1514,31254,1292,986,445,234,51,76,725,3298,38,54,821,1823,1915,2159,2351,2015,1819,1855,1967
894142,-2252,30952,-1449,31319,1448,718,433,233,68,-70,707,3482,39,49,821,1823,1915,2159,2351,2015,1819,1855,1967
895143,-2184,31012,-1384,31384,1344,975,417,208,106,-100,695,3245,41,57,823,1823,1915,2159,2351,2015,1819,1855,1967
896144,-2128,31092,-1319,31449,1506,706,414,208,131,50,897,3474,49,55,822,1835,1926,2184,2353,2037,1835,1878,2002
897145,-2076,31168,-1254,31514,1572,743,412,203,159,-5,919,3420,50,56,822,1835,1926,2184,2353,2037,1835,1878,2002
898146,-2016,31232,-1189,31579,1478,894,404,204,177,-23,1019,3607,53,55,822,1835,1926,2184,2353,2037,1835,1878,2002
899147,-1956,31304,-1124,31644,1485,786,400,216,172,37,1324,3752,50,48,821,1835,1926,2184,2353,2037,1835,1878,2002
900149,-1900,31368,-1059,31709,1546,887,395,242,158,184,1413,3807,38,55,821,1835,1926,2184,2353,2037,1835,1878,2002
901149,-1840,31440,-994,31774,1502,779,386,252,137,371,1509,3647,38,56,821,1796,1898,2130,2283,2075,1849,1887,2001
902150,-1776,31536,-929,31839,1453,441,366,256,125,338,1481,3815,41,54,821,1796,1898,2130,2283,2075,1849,1887,2001
903151,-1708,31604,-864,31904,1401,788,323,275,123,289,1619,3876,53,55,824,1796,1898,2130,2283,2075,1849,1887,2001
904152,-1648,31656,-799,31969,1507,1004,277,307,114,371,1599,4090,56,47,822,1796,1898,2130,2283,2075,1849,1887,2001
905153,-1604,31716,-734,32034,1733,910,228,322,106,299,1549,3925,50,51,821,1796,1898,2130,2283,2075,1849,1887,2001
906154,-1516,31792,-669,32099,1155,696,189,343,92,383,1473,4245,42,57,819,1796,1898,2130,2283,2075,1849,1887,2001
907155,-1456,31864,-604,32164,1512,738,132,325,81,274,1279,3749,45,53,822,1784,1883,2113,2284,2023,1817,1850,1956
908156,-1400,31928,-539,32229,1573,839,81,307,67,351,1148,3828,37,49,824,1784,1883,2113,2284,2023,1817,1850,1956
909157,-1328,31988,-474,32294,1365,895,13,280,71,445,996,3669,54,50,822,1784,1883,2113,2284,2023,1817,1850,1956
910158,-1280,32064,-409,32359,1686,683,-38,288,70,478,834,3841,54,56,821,1784,1883,2113,2284,2023,1817,1850,1956
911159,-1208,32128,-344,32424,1377,834,-98,313,67,616,765,3861,52,44,821,1784,1883,2113,2284,2023,1817,1850,1956
912160,-1136,32204,-279,32489,1370,670,-135,324,80,664,615,3911,53,52,821,1826,1910,2161,2336,2024,1830,1864,1995
913161,-1092,32284,-214,32554,1745,602,-175,305,100,436,592,3776,44,54,824,1826,1910,2161,2336,2024,1830,1864,1995
914162,-1024,32340,-149,32619,1442,913,-187,294,119,215,636,3917,52,43,822,1826,1910,2161,2336,2024,1830,1864,1995
915163,-948,32416,-84,32684,1329,650,-217,291,139,142,739,3908,40,55,821,1826,1910,2161,2336,2024,1830,1864,1995
916164,-900,32492,-19,32749,1700,636,-222,303,156,251,982,4014,35,48,823,1826,1910,2161,2336,2024,1830,1864,1995
917165,-844,32544,46,32814,1611,952,-227,299,181,210,970,3863,40,42,822,1826,1910,2161,2336,2024,1830,1864,1995
918166,-784,32616,111,32879,1568,694,-222,297,177,187,1171,4018,53,46,819,1851,1942,2177,2337,2059,1857,1897,2016
919167,-724,32672,176,32944,1574,905,-227,305,176,43,1210,3981,46,49,820,1851,1942,2177,2337,2059,1857,1897,2016
920168,-652,32732,241,33009,1416,862,-235,295,159,263,1314,4065,43,44,821,1851,1942,2177,2337,2059,1857,1897,2016
921169,-596,32796,306,33074,1628,813,-249,285,131,281,1283,4088,44,44,819,1851,1942,2177,2337,2059,1857,1897,2016
922170,-532,32868,371,33139,1529,704,-260,296,106,273,1427,4294,40,48,820,1851,1942,2177,2337,2059,1857,1897,2016
923171,-480,32928,436,33204,1695,860,-268,330,84,329,1494,4182,53,57,820,1808,1906,2143,2301,2062,1828,1859,1985
924172,-400,32988,501,33269,1327,867,-276,335,71,313,1745,4372,42,58,820,1808,1906,2143,2301,2062,1828,1859,1985
925173,-332,33072,566,33334,1474,543,-279,359,62,188,1669,4483,59,43,821,1808,1906,2143,2301,2062,1828,1859,1985
926174,-264,33164,631,33399,1470,410,-280,368,61,189,1724,4328,53,44,822,1808,1906,2143,2301,2062,1828,1859,1985
927175,-200,33232,696,33464,1522,707,-272,416,65,405,1721,4641,53,56,825,1808,1906,2143,2301,2062,1828,1859,1985
928176,-132,33288,761,33529,1469,868,-265,428,92,287,1598,4163,37,53,826,1808,1906,2143,2301,2062,1828,1859,1985
929177,-60,33364,826,33594,1410,604,-256,462,94,278,1519,4536,55,49,822,1808,1896,2144,2320,2036,1830,1873,1973
930178,16,33436,891,33659,1348,647,-255,505,105,354,1266,4448,52,53,821,1808,1896,2144,2320,2036,1830,1873,1973
931179,68,33520,956,33724,1663,474,-258,522,95,509,1260,4072,40,52,825,1808,1896,2144,2320,2036,1830,1873,1973
932180,140,33576,1021,33789,1405,835,-261,526,82,443,1133,4231,42,43,825,1808,1896,2144,2320,2036,1830,1873,1973
933181,212,33640,1086,33854,1397,736,-264,517,86,285,1000,3958,42,50,822,1808,1896,2144,2320,2036,1830,1873,1973
934182,276,33712,1151,33919,1499,627,-263,512,78,327,1017,3998,45,56,823,1807,1911,2167,2351,2039,1847,1871,1967
935183,336,33784,1216,33984,1555,619,-269,547,80,316,996,4093,42,47,824,1807,1911,2167,2351,2039,1847,1871,1967
936184,408,33852,1281,34049,1397,665,-275,576,78,315,1046,3947,46,42,823,1807,1911,2167,2351,2039,1847,1871,1967
937185,476,33920,1346,34114,1444,661,-277,573,70,311,1222,3810,41,43,822,1807,1911,2167,2351,2039,1847,1871,1967
938186,556,33996,1411,34179,1275,548,-283,537,70,111,1113,3648,41,45,822,1807,1911,2167,2351,2039,1847,1871,1967
939187,624,34060,1476,34244,1423,699,-292,518,67,-12,1033,3872,42,45,823,1807,1911,2167,2351,2039,1847,1871,1967
940188,672,34132,1541,34309,1693,591,-311,543,54,277,1272,3895,42,46,827,1850,1930,2196,2376,2022,1828,1856,1962
941189,736,34208,1606,34374,1495,527,-326,559,46,356,1342,3790,39,47,824,1850,1930,2196,2376,2022,1828,1856,1962
942190,796,34272,1671,34439,1552,678,-350,581,21,387,1466,3915,57,53,821,1850,1930,2196,2376,2022,1828,1856,1962
943191,868,34344,1736,34504,1393,570,-362,597,-6,210,1578,3764,44,60,825,1850,1930,2196,2376,2022,1828,1856,1962
944192,944,34424,1801,34569,1330,453,-374,614,-19,85,1585,4111,43,44,822,1850,1930,2196,2376,2022,1828,1856,1962
945193,1008,34488,1866,34634,1482,654,-373,642,-25,214,1605,4068,44,55,825,1820,1904,2141,2304,2028,1821,1859,1973
946194,1084,34556,1931,34699,1318,600,-380,679,-51,301,1750,4060,48,60,827,1820,1904,2141,2304,2028,1821,1859,1973
947195,1164,34632,1996,34764,1250,487,-373,710,-70,214,1758,4084,49,45,824,1820,1904,2141,2304,2028,1821,1859,1973
948196,1232,34696,2061,34829,1397,638,-367,712,-87,87,1780,4032,60,55,826,1820,1904,2141,2304,2028,1821,1859,1973
949197,1300,34780,2126,34894,1394,365,-362,718,-103,-65,1534,4014,62,54,828,1820,1904,2141,2304,2028,1821,1859,1973
950198,1380,34852,2191,34959,1225,506,-358,745,-106,233,1443,4137,61,52,825,1820,1904,2141,2304,2028,1821,1859,1973
951199,1448,34928,2390,35158,1536,606,-348,782,-111,342,1630,4007,45,56,827,1754,1843,2076,2234,2043,1833,1867,1985
952200,1528,35016,2455,35223,1368,428,-332,791,-130,184,1609,3791,52,57,828,1754,1843,2076,2234,2043,1833,1867,1985
953201,1608,35076,2520,35288,1350,784,-324,764,-146,-86,1319,3783,50,44,823,1754,1843,2076,2234,2043,1833,1867,1985
954202,1692,35160,2585,35353,1278,461,-324,764,-143,17,1180,3773,46,52,827,1754,1843,2076,2234,2043,1833,1867,1985
955203,1760,35212,2650,35418,1474,877,-331,759,-132,323,1237,3648,66,56,822,1754,1843,2076,2234,2043,1833,1867,1985
956204,1852,35280,2715,35483,1141,673,-341,746,-137,-51,1274,3366,61,58,826,1745,1841,2091,2255,2054,1839,1858,1983
957205,1928,35364,2780,35548,1329,450,-362,726,-155,42,1154,3421,64,46,822,1745,1841,2091,2255,2054,1839,1858,1983
958206,2000,35432,2845,35613,1370,646,-391,706,-173,147,1131,3128,55,62,828,1745,1841,2091,2255,2054,1839,1858,1983
959207,2084,35504,2910,35678,1197,588,-422,691,-189,179,1200,3228,49,52,827,1745,1841,2091,2255,2054,1839,1858,1983
960208,2180,35592,2975,35743,1010,361,-464,674,-205,148,1248,3205,59,49,825,1745,1841,2091,2255,2054,1839,1858,1983
961209,2264,35668,3040,35808,1137,497,-510,678,-237,296,1240,3217,49,61,828,1745,1841,2091,2255,2054,1839,1858,1983
962210,2328,35772,3105,35873,1388,100,-550,672,-256,372,1207,3234,51,49,832,1796,1884,2152,2316,2028,1832,1856,1970
963211,2420,35844,3170,35938,1005,491,-595,663,-264,310,1300,3221,66,63,830,1796,1884,2152,2316,2028,1832,1856,1970
964212,2504,35920,3235,36003,1083,428,-634,656,-279,192,1533,3485,50,61,829,1796,1884,2152,2316,2028,1832,1856,1970
965213,2580,36004,3300,36068,1169,305,-667,679,-297,25,1605,3423,47,53,831,1796,1884,2152,2316,2028,1832,1856,1970
966214,2656,36072,3365,36133,1156,501,-682,705,-306,181,1504,3538,57,47,830,1796,1884,2152,2316,2028,1832,1856,1970
967215,2740,36140,3430,36198,1034,497,-700,710,-303,146,1439,3462,48,46,831,1784,1871,2114,2243,1991,1792,1824,1960
968216,2832,36228,3495,36263,901,219,-717,713,-312,212,1646,3510,61,51,829,1784,1871,2114,2243,1991,1792,1824,1960
969217,2904,36288,3560,36328,1142,575,-733,703,-334,78,1643,3427,61,54,830,1784,1871,2114,2243,1991,1792,1824,1960
970218,3004,36364,3625,36393,750,362,-747,696,-364,-67,1487,3515,50,55,834,1784,1871,2114,2243,1991,1792,1824,1960
971219,3072,36436,3690,36458,1147,403,-762,677,-383,80,1513,3356,46,49,829,1784,1871,2114,2243,1991,1792,1824,1960
972220,3132,36520,3755,36523,1253,230,-762,673,-411,179,1443,3413,58,54,834,1784,1871,2114,2243,1991,1792,1824,1960
973221,3216,36588,3820,36588,930,427,-762,675,-437,-75,1416,3474,58,56,829,1732,1828,2055,2201,2046,1832,1851,1975
974222,3292,36676,3885,36653,1016,148,-757,655,-472,-109,1407,3363,64,54,830,1732,1828,2055,2201,2046,1832,1851,1975
975223,3368,36764,3950,36718,1004,120,-756,634,-506,-146,1438,3240,45,44,833,1732,1828,2055,2201,2046,1832,1851,1975
976224,3452,36832,4015,36783,881,367,-756,613,-523,-176,1378,3200,46,46,834,1732,1828,2055,2201,2046,1832,1851,1975
977225,3532,36908,4080,36848,912,253,-764,612,-530,-67,1453,3236,61,47,834,1732,1828,2055,2201,2046,1832,1851,1975
978226,3624,36960,4145,36913,729,569,-765,624,-536,-125,1591,3133,59,55,833,1723,1821,2067,2223,2038,1826,1854,1972
979227,3680,37052,4210,36978,1190,36,-765,619,-544,-222,1479,3056,55,47,834,1723,1821,2067,2223,2038,1826,1854,1972
980228,3756,37120,4275,37043,928,333,-772,604,-545,-178,1277,2940,49,49,834,1723,1821,2067,2223,2038,1826,1854,1972
981229,3836,37204,4340,37108,860,109,-793,577,-553,120,1288,3015,58,58,832,1723,1821,2067,2223,2038,1826,1854,1972
982230,3908,37288,4405,37173,951,86,-826,561,-574,97,1303,2627,56,47,834,1723,1821,2067,2223,2038,1826,1854,1972
983231,3984,37356,4470,37238,888,282,-868,545,-599,7,1292,3006,42,50,836,1723,1821,2067,2223,2038,1826,1854,1972
984232,4060,37416,4535,37303,874,389,-918,538,-634,106,1258,2832,49,59,835,1768,1863,2111,2275,1995,1797,1823,1933
985233,4132,37500,4600,37368,916,64,-963,547,-658,121,1215,2786,41,49,834,1768,1863,2111,2275,1995,1797,1823,1933
986234,4216,37584,4665,37433,744,41,-999,548,-672,166,1340,2940,39,49,834,1768,1863,2111,2275,1995,1797,1823,1933
987235,4288,37652,4730,37498,885,238,-1022,548,-688,-16,1254,2947,44,46,835,1768,1863,2111,2275,1995,1797,1823,1933
988236,4344,37740,4795,37563,1096,-41,-1038,521,-703,-66,1259,3105,51,51,838,1768,1863,2111,2275,1995,1797,1823,1933
989237,4428,37824,4860,37628,723,-14,-1054,508,-722,-158,1328,3155,41,49,833,1784,1864,2106,2267,1965,1770,1805,1917
990238,4492,37892,4925,37693,974,183,-1063,501,-748,-241,1326,3090,57,44,832,1784,1864,2106,2267,1965,1770,1805,1917
991239,4584,37968,4990,37758,591,69,-1069,484,-776,-274,1319,2966,42,53,837,1784,1864,2106,2267,1965,1770,1805,1917
992240,4664,38036,5055,37823,724,165,-1061,494,-800,-360,1295,3263,47,56,834,1784,1864,2106,2267,1965,1770,1805,1917
993241,4748,38104,5120,37888,651,162,-1060,497,-818,-159,1261,3080,50,42,839,1784,1864,2106,2267,1965,1770,1805,1917
994242,4812,38164,5185,37953,902,268,-1050,479,-835,-39,1199,2941,48,44,837,1784,1864,2106,2267,1965,1770,1805,1917
995243,4888,38248,5250,38018,738,-55,-1052,446,-866,-200,1230,2893,56,56,838,1746,1831,2063,2215,1982,1782,1823,1940
996244,4964,38316,5315,38083,725,141,-1047,437,-893,-525,1310,2897,55,57,835,1746,1831,2063,2215,1982,1782,1823,1940
997245,5048,38392,5380,38148,602,28,-1045,442,-918,-374,1412,3029,49,46,837,1746,1831,2063,2215,1982,1782,1823,1940
998246,5116,38480,5445,38213,798,-151,-1034,446,-945,-248,1319,2885,49,50,837,1746,1831,2063,2215,1982,1782,1823,1940
999247,5204,38552,5510,38278,521,40,-1031,438,-950,-283,1351,2839,56,42,838,1746,1831,2063,2215,1982,1782,1823,1940
1000248,5288,38612,5575,38343,548,196,-1017,441,-955,-340,1355,2797,40,44,836,1732,1826,2054,2214,1994,1787,1831,1943
1001249,5360,38688,5640,38408,689,-17,-1020,433,-967,-407,1348,2752,43,41,839,1732,1826,2054,2214,1994,1787,1831,1943
1002250,5444,38752,5705,38473,516,134,-1013,436,-985,-269,1309,2996,56,46,839,1732,1826,2054,2214,1994,1787,1831,1943
1003251,5528,38820,5770,38538,493,80,-1028,418,-981,-185,1112,2629,40,48,838,1732,1826,2054,2214,1994,1787,1831,1943
1004252,5592,38888,5835,38603,744,77,-1027,396,-989,-211,1106,2897,45,38,839,1732,1826,2054,2214,1994,1787,1831,1943
1005253,5672,38952,5900,38668,526,128,-1040,374,-1014,-266,929,2625,55,44,839,1751,1843,2077,2243,1971,1770,1814,1921
1006254,5736,39044,5965,38733,727,-255,-1044,356,-1033,-117,840,2854,38,44,835,1751,1843,2077,2243,1971,1770,1814,1921
1007255,5816,39108,6030,38798,509,95,-1064,347,-1059,36,741,2890,39,40,837,1751,1843,2077,2243,1971,1770,1814,1921
1008256,5908,39168,6095,38863,326,151,-1071,316,-1075,-124,775,2682,41,37,836,1751,1843,2077,2243,1971,1770,1814,1921
1009257,5972,39228,6160,38928,677,157,-1080,307,-1089,-238,904,2877,43,41,839,1751,1843,2077,2243,1971,1770,1814,1921
1010258,6048,39296,6225,38993,515,54,-1087,290,-1108,-381,888,2748,50,40,841,1751,1843,2077,2243,1971,1770,1814,1921
1011259,6128,39348,6290,39058,446,269,-1092,292,-1125,-481,766,3088,42,50,838,1779,1855,2083,2262,1943,1749,1792,1897
1012260,6212,39428,6355,39123,373,-99,-1096,269,-1125,-382,846,2775,54,52,839,1779,1855,2083,2262,1943,1749,1792,1897
1013261,6288,39492,6420,39188,460,102,-1097,240,-1128,-294,852,2976,47,54,839,1779,1855,2083,2262,1943,1749,1792,1897
1014262,6376,39552,6485,39253,282,159,-1106,187,-1130,-540,798,2792,36,43,841,1779,1855,2083,2262,1943,1749,1792,1897
1015263,6452,39620,6550,39318,418,55,-1120,150,-1129,-291,770,2848,39,37,839,1779,1855,2083,2262,1943,1749,1792,1897
1016264,6532,39692,6615,39383,350,-5,-1141,137,-1152,-101,852,2994,41,51,841,1779,1859,2085,2252,1945,1747,1799,1911
1017265,6612,39756,6680,39448,332,97,-1165,117,-1182,-365,679,2851,54,55,841,1779,1859,2085,2252,1945,1747,1799,1911
1018266,6680,39832,6745,39513,478,-67,-1173,89,-1197,-353,771,2993,46,39,841,1779,1859,2085,2252,1945,1747,1799,1911
1019267,6764,39892,6810,39578,255,139,-1173,55,-1203,-189,764,2961,39,54,841,1779,1859,2085,2252,1945,1747,1799,1911
1020268,6840,39972,6875,39643,341,-129,-1161,38,-1210,-125,805,3163,39,53,839,1779,1859,2085,2252,1945,1747,1799,1911
1021269,6932,40048,6940,39708,108,-93,-1134,4,-1213,-256,934,2914,37,41,841,1779,1859,2085,2252,1945,1747,1799,1911
1022270,7016,40116,7005,39773,185,4,-1101,-28,-1213,-456,686,3153,36,52,840,1762,1851,2065,2223,1989,1779,1838,1958
1023271,7100,40180,7070,39838,162,55,-1051,-44,-1225,-349,807,3123,40,54,841,1762,1851,2065,2223,1989,1779,1838,1958
1024272,7200,40244,7135,39903,-81,55,-1006,-82,-1237,-549,747,2879,47,56,840,1762,1851,2065,2223,1989,1779,1838,1958
1025273,7292,40324,7200,39968,-14,-163,-964,-133,-1243,-488,732,2991,37,48,842,1762,1851,2065,2223,1989,1779,1838,1958
1026274,7400,40388,7265,40033,-266,38,-940,-178,-1261,-177,811,2808,39,39,840,1762,1851,2065,2223,1989,1779,1838,1958
