%  Data file recorded 2016/9/4  23:52:48
%  Stride Frequency         = [1, 1]
%  Lead In /Lead Out        = 
%  Deltas (Fractional)      = [0.25, 0.25, 0.25],[0.25, 0.25, 0.25]
%  Phase                    = 32768
%  Experiment.py 
%  Motor Gains    = [5000, 400, 200, 0, 300, 5000, 400, 200, 0, 300]
% Columns: 
% time | Right Leg Pos | Left Leg Pos | Commanded Right Leg Pos | Commanded Left Leg Pos | DCR | DCL | GyroX | GyroY | GyroZ | AX | AY | AZ | RBEMF | LBEMF | VBatt | S1 | S2 | S3 | S4 | S5 | S6 | S7 | S8
66,-43592,-14684,-45516,-12748,94,-3242,-8,-23,-5,71,80,3933,6,7,926,1786,1878,2088,2256,2043,1819,1879,1989
1067,-43572,-14684,-45516,-12748,-182,-3191,-8,-21,-4,83,89,3975,-5,-8,926,1785,1876,2086,2254,2043,1820,1881,1990
2068,-43584,-14696,-45516,-12748,232,-3026,-9,-19,-4,59,91,3955,-9,6,926,1785,1876,2086,2254,2043,1820,1881,1990
3069,-43592,-14680,-45516,-12748,191,-3395,-7,-22,-4,53,96,3941,-6,0,926,1785,1876,2086,2254,2043,1820,1881,1990
4070,-43572,-14684,-45516,-12748,-184,-3139,-10,-23,-3,74,84,3963,1,-5,926,1785,1876,2086,2254,2043,1820,1881,1990
5071,-43596,-14676,-45516,-12748,395,-3298,-10,-22,-3,62,72,3952,9,5,926,1785,1876,2086,2254,2043,1820,1881,1990
6072,-43580,-14692,-45516,-12748,-126,-2978,-11,-22,-4,58,95,3936,2,-8,926,1785,1876,2086,2254,2043,1820,1881,1990
7073,-43596,-14688,-45516,-12748,293,-3232,-11,-21,-2,62,114,3946,-3,7,926,1785,1876,2087,2253,2043,1819,1880,1989
8074,-43588,-14688,-45516,-12748,-17,-3181,-9,-23,0,46,121,3946,-8,-8,926,1785,1876,2087,2253,2043,1819,1880,1989
9075,-43604,-14680,-45516,-12748,302,-3290,-10,-23,0,51,104,3958,4,5,926,1785,1876,2087,2253,2043,1819,1880,1989
10076,-43592,-14684,-45516,-12748,-64,-3135,-14,-23,-1,50,95,3965,9,-7,926,1785,1876,2087,2253,2043,1819,1880,1989
11077,-43584,-14688,-45516,-12748,-25,-3129,-15,-22,-2,36,107,3910,3,3,926,1785,1876,2087,2253,2043,1819,1880,1989
12078,-43576,-14680,-45516,-12748,-35,-3288,-15,-19,-4,48,108,3928,-5,4,926,1786,1877,2088,2255,2043,1819,1879,1987
13079,-43580,-14684,-45516,-12748,119,-3132,-14,-18,-3,41,111,3952,-10,-5,926,1786,1877,2088,2255,2043,1819,1879,1987
14080,-43592,-14684,-45516,-12748,233,-3182,-11,-17,-3,40,68,3900,2,4,926,1786,1877,2088,2255,2043,1819,1879,1987
15081,-43584,-14684,-45516,-12748,-28,-3181,-9,-18,0,55,49,3914,9,-8,926,1786,1877,2088,2255,2043,1819,1879,1987
16082,-43596,-14680,-45516,-12748,237,-3235,-8,-19,-3,45,64,3938,4,6,926,1786,1877,2088,2255,2043,1819,1879,1987
17083,-43580,-14672,-45516,-12748,-134,-3294,-11,-21,-6,47,80,3940,-10,-7,926,1786,1877,2088,2255,2043,1819,1879,1987
18084,-43588,-14692,-45516,-12748,175,-2919,-13,-22,-4,48,100,3949,3,-1,926,1787,1878,2087,2255,2042,1819,1880,1990
19085,-43588,-14688,-45516,-12748,75,-3223,-10,-21,-3,62,109,3931,10,-3,925,1787,1878,2087,2255,2042,1819,1880,1990
20086,-43584,-14684,-45516,-12748,19,-3227,-5,-19,-4,53,86,3925,-10,6,926,1787,1878,2087,2255,2042,1819,1880,1990
21087,-43584,-14688,-45516,-12748,68,-3121,-4,-23,-4,44,95,3927,1,-2,926,1787,1878,2087,2255,2042,1819,1880,1990
22088,-43588,-14692,-45516,-12748,122,-3116,-4,-27,-3,37,79,3953,9,2,926,1787,1878,2087,2255,2042,1819,1880,1990
23089,-43576,-14680,-45516,-12748,-93,-3330,-7,-27,-6,36,72,3949,-5,-2,926,1788,1879,2087,2255,2039,1815,1877,1990
24090,-43588,-14676,-45516,-12748,221,-3234,-8,-25,-3,30,82,3929,-10,-7,926,1788,1879,2087,2255,2039,1815,1877,1990
25091,-43596,-14688,-45516,-12748,180,-3019,-8,-27,-4,50,98,3902,1,6,926,1788,1879,2087,2255,2039,1815,1877,1990
26092,-43592,-14680,-45516,-12748,24,-3278,-5,-27,-5,36,87,3925,5,-6,926,1788,1879,2087,2255,2039,1815,1877,1990
27093,-43588,-14692,-45516,-12748,19,-3012,-3,-26,-5,55,97,3936,-7,-6,926,1788,1879,2087,2255,2039,1815,1877,1990
28094,-43580,-14676,-45516,-12748,-42,-3381,-4,-26,-4,75,114,3900,-7,6,926,1788,1879,2087,2255,2039,1815,1877,1990
29095,-43592,-14680,-45516,-12748,222,-3126,-4,-30,-4,60,97,3892,9,-8,926,1787,1879,2088,2256,2040,1816,1878,1987
30096,-43576,-14676,-45516,-12748,-149,-3230,-3,-30,-3,58,97,3939,-5,-3,926,1787,1879,2088,2256,2040,1816,1878,1987
31097,-43592,-14680,-45516,-12748,271,-3124,-1,-27,-7,64,95,3922,-10,4,926,1787,1879,2088,2256,2040,1816,1878,1987
32098,-43580,-14684,-45516,-12748,-95,-3118,-1,-29,-6,92,99,3936,7,-5,926,1787,1879,2088,2256,2040,1816,1878,1987
33099,-43584,-14676,-45516,-12748,109,-3278,0,-32,-7,90,106,3944,9,7,926,1787,1879,2088,2256,2040,1816,1878,1987
34100,-43588,-14676,-45516,-12748,113,-3177,0,-32,-8,100,97,3919,1,-6,926,1787,1879,2090,2258,2040,1818,1880,1988
35101,-43596,-14684,-45516,-12748,173,-3066,3,-34,-5,112,115,3894,-10,0,926,1787,1879,2090,2258,2040,1818,1880,1988
36102,-43592,-14684,-45516,-12748,17,-3165,1,-36,-5,105,92,3922,-7,6,925,1787,1879,2090,2258,2040,1818,1880,1988
37103,-43588,-14680,-45516,-12748,11,-3220,1,-35,-6,98,89,3886,8,-4,926,1787,1879,2090,2258,2040,1818,1880,1988
38104,-43592,-14680,-45516,-12748,116,-3169,4,-38,-5,102,107,3937,-5,5,926,1787,1879,2090,2258,2040,1818,1880,1988
39105,-43588,-14680,-45516,-12748,10,-3168,7,-36,-7,99,103,3950,-10,-7,926,1787,1879,2090,2258,2040,1818,1880,1988
40106,-43584,-14676,-45516,-12748,4,-3222,3,-33,-8,88,109,3884,-5,5,926,1787,1877,2087,2255,2041,1817,1879,1988
41107,-43596,-14676,-45516,-12748,218,-3172,2,-32,-9,125,98,3908,9,-7,926,1787,1877,2087,2255,2041,1817,1879,1988
42108,-43588,-14684,-45516,-12748,-42,-3061,4,-35,-7,115,130,3949,-3,-4,926,1787,1877,2087,2255,2041,1817,1879,1988
43109,-43588,-14680,-45516,-12748,57,-3215,7,-34,-6,126,110,3925,-9,5,926,1787,1877,2087,2255,2041,1817,1879,1988
44110,-43588,-14684,-45516,-12748,56,-3110,8,-31,-5,142,117,3916,0,-8,926,1787,1877,2087,2255,2041,1817,1879,1988
45111,-43592,-14684,-45516,-12748,110,-3159,9,-27,-3,134,133,3942,9,4,926,1786,1880,2088,2256,2042,1818,1879,1988
46112,-43596,-14684,-45516,-12748,115,-3158,8,-28,-3,139,130,3937,0,-1,926,1786,1880,2088,2256,2042,1818,1879,1988
47113,-43572,-14680,-45516,-12748,-266,-3212,7,-30,-4,128,128,3923,-9,-4,926,1786,1880,2088,2256,2042,1818,1879,1988
48114,-43592,-14684,-45516,-12748,308,-3107,6,-31,-7,125,88,3962,-4,7,927,1786,1880,2088,2256,2042,1818,1879,1988
49115,-43592,-14676,-45516,-12748,57,-3266,5,-31,-6,147,111,3945,4,-8,926,1786,1880,2088,2256,2042,1818,1879,1988
50116,-43596,-14676,-45516,-12748,112,-3165,3,-27,-6,138,105,3912,9,7,926,1786,1880,2088,2256,2042,1818,1879,1988
51117,-43592,-14680,-45516,-12748,6,-3109,4,-28,-5,140,110,3921,5,-7,926,1784,1876,2086,2254,2042,1819,1880,1989
52118,-43600,-14676,-45516,-12748,165,-3214,2,-28,-3,142,121,3931,-4,4,926,1784,1876,2086,2254,2042,1819,1880,1989
53119,-43588,-14680,-45516,-12748,-101,-3108,1,-27,-4,161,112,3942,-7,-5,925,1784,1876,2086,2254,2042,1819,1880,1989
54120,-43580,-14676,-45516,-12748,-61,-3212,3,-24,-6,172,109,3933,10,5,926,1784,1876,2086,2254,2042,1819,1880,1989
55121,-43584,-14676,-45516,-12748,93,-3161,3,-26,-3,174,116,3935,-2,-7,926,1784,1876,2086,2254,2042,1819,1880,1989
56122,-43576,-14680,-45516,-12748,-68,-3106,1,-24,-3,161,120,3952,-4,6,926,1783,1876,2085,2253,2044,1821,1880,1991
57123,-43584,-14672,-45516,-12748,141,-3265,-2,-23,0,150,98,3949,10,-4,926,1783,1876,2085,2253,2044,1821,1880,1991
58124,-43596,-14700,-45516,-12748,206,-2780,-4,-22,-3,154,99,3930,-5,5,926,1783,1876,2085,2253,2044,1821,1880,1991
59125,-43588,-14680,-45516,-12748,-55,-3404,-3,-22,-2,138,95,3896,1,-7,926,1783,1876,2085,2253,2044,1821,1880,1991
60126,-43588,-14680,-45516,-12748,44,-3153,-4,-21,0,122,111,3920,8,2,926,1783,1876,2085,2253,2044,1821,1880,1991
61127,-43580,-14692,-45516,-12748,-66,-2987,-3,-20,-1,124,126,3925,-3,-5,926,1783,1876,2085,2253,2044,1821,1880,1991
62128,-43588,-14688,-45516,-12748,143,-3191,-4,-21,3,124,104,3929,-10,0,926,1783,1876,2086,2254,2045,1820,1881,1991
63129,-43592,-14680,-45516,-12748,97,-3251,-10,-18,0,126,110,3956,-3,6,926,1783,1876,2086,2254,2045,1820,1881,1991
64130,-43572,-14684,-45516,-12748,-229,-3095,-10,-19,-2,142,107,3943,9,-8,926,1783,1876,2086,2254,2045,1820,1881,1991
65131,-43588,-14688,-45516,-12748,241,-3089,-10,-21,-1,123,109,3929,-1,6,926,1783,1876,2086,2254,2045,1820,1881,1991
66132,-43592,-14692,-45516,-12748,95,-3083,-14,-20,1,97,126,3965,-8,0,926,1783,1876,2086,2254,2045,1820,1881,1991
67133,-43592,-14676,-45516,-12748,44,-3353,-18,-18,4,104,111,3968,-9,-5,926,1783,1876,2086,2253,2044,1821,1881,1992
68134,-43588,-14676,-45516,-12748,-12,-3152,-15,-17,4,96,102,3946,8,7,926,1783,1876,2086,2253,2044,1821,1881,1992
69135,-43592,-14676,-45516,-12748,93,-3151,-15,-17,2,102,113,3923,6,-1,926,1783,1876,2086,2253,2044,1821,1881,1992
70136,-43588,-14680,-45516,-12748,-13,-3095,-17,-16,2,123,111,3932,-7,-2,925,1783,1876,2086,2253,2044,1821,1881,1992
71137,-43588,-14688,-45516,-12748,36,-3035,-18,-16,3,81,95,3951,-7,1,926,1783,1876,2086,2253,2044,1821,1881,1992
72138,-43588,-14688,-45516,-12748,35,-3134,-18,-16,3,64,101,3964,6,-8,926,1783,1876,2086,2253,2044,1821,1881,1992
73139,-43592,-14696,-45516,-12748,90,-3024,-16,-15,3,43,87,3965,10,2,926,1784,1876,2083,2251,2043,1819,1881,1991
74140,-43596,-14684,-45516,-12748,94,-3287,-16,-15,4,51,102,3954,-9,4,927,1784,1876,2083,2251,2043,1819,1881,1991
75141,-43584,-14688,-45516,-12748,-122,-3082,-22,-16,2,55,103,3931,-7,-7,926,1784,1876,2083,2251,2043,1819,1881,1991
76142,-43596,-14680,-45516,-12748,192,-3241,-23,-18,0,51,94,3907,6,0,926,1784,1876,2083,2251,2043,1819,1881,1991
77143,-43592,-14676,-45516,-12748,-13,-3195,-18,-16,0,32,101,3931,-1,5,926,1784,1876,2083,2251,2043,1819,1881,1991
78144,-43596,-14680,-45516,-12748,91,-3090,-18,-15,2,30,105,3919,-7,-2,926,1785,1877,2088,2254,2042,1818,1880,1990
79145,-43596,-14680,-45516,-12748,40,-3139,-19,-14,3,49,99,3926,-10,-4,926,1785,1877,2088,2254,2042,1818,1880,1990
80146,-43592,-14684,-45516,-12748,-15,-3083,-22,-16,3,39,91,3901,6,3,926,1785,1877,2088,2254,2042,1818,1880,1990
81147,-43592,-14676,-45516,-12748,34,-3242,-24,-15,2,30,94,3940,8,-8,926,1785,1877,2088,2254,2042,1818,1880,1990
82148,-43584,-14684,-45516,-12748,-77,-3032,-22,-18,1,4,96,3929,0,4,926,1785,1877,2088,2254,2042,1818,1880,1990
83149,-43592,-14692,-45516,-12748,132,-3021,-21,-20,-2,-7,76,3940,-10,-3,926,1785,1877,2088,2254,2042,1818,1880,1990
84150,-43592,-14696,-45516,-12748,32,-3066,-19,-21,-2,-20,74,3949,-8,-6,926,1787,1879,2089,2258,2044,1818,1880,1989
85151,-43592,-14684,-45516,-12748,31,-3279,-18,-19,-3,12,82,3954,2,7,926,1787,1879,2089,2258,2044,1818,1880,1989
86152,-43592,-14684,-45516,-12748,30,-3129,-18,-19,-4,-1,92,3952,7,-8,926,1787,1879,2089,2258,2044,1818,1880,1989
87153,-43596,-14680,-45516,-12748,84,-3183,-17,-21,-5,-31,100,3954,-1,4,925,1787,1879,2089,2258,2044,1818,1880,1989
88154,-43588,-14680,-45516,-12748,-76,-3132,-16,-21,-3,-19,88,3991,-9,-8,926,1787,1879,2089,2258,2044,1818,1880,1989
89155,-43592,-14680,-45516,-12748,78,-3131,-16,-22,-6,-20,66,3948,8,5,926,1786,1878,2086,2255,2039,1817,1879,1988
90156,-43584,-14668,-45516,-12748,-83,-3296,-14,-19,-7,-1,48,3943,-6,3,926,1786,1878,2086,2255,2039,1817,1879,1988
91157,-43584,-14676,-45516,-12748,16,-3035,-13,-21,-8,3,65,3916,-9,-5,926,1786,1878,2086,2255,2039,1817,1879,1988
92158,-43592,-14680,-45516,-12748,126,-3079,-12,-23,-8,2,70,3905,9,4,926,1786,1878,2086,2255,2039,1817,1879,1988
93159,-43588,-14680,-45516,-12748,-30,-3129,-13,-25,-7,-3,81,3930,2,-7,926,1786,1878,2086,2255,2039,1817,1879,1988
94160,-43592,-14692,-45516,-12748,74,-2963,-10,-27,-7,0,93,3952,-9,6,926,1786,1878,2086,2255,2039,1817,1879,1988
95161,-43592,-14676,-45516,-12748,23,-3332,-8,-30,-7,24,75,3933,5,-7,926,1788,1880,2088,2256,2039,1816,1879,1987
96162,-43596,-14688,-45516,-12748,78,-2966,-5,-28,-9,29,81,3945,6,-2,926,1788,1880,2088,2256,2039,1816,1879,1987
97163,-43592,-14684,-45516,-12748,-28,-3171,-6,-27,-11,25,94,3962,-6,5,926,1788,1880,2088,2256,2039,1816,1879,1987
98164,-43588,-14688,-45516,-12748,-34,-3065,-8,-27,-12,22,97,3931,-2,-8,926,1788,1880,2088,2256,2039,1816,1879,1987
99165,-43584,-14688,-45516,-12748,-39,-3114,-5,-28,-11,30,76,3885,8,4,926,1788,1880,2088,2256,2039,1816,1879,1987
100166,-43580,-14684,-45516,-12748,-45,-3168,-4,-32,-11,29,110,3910,-5,-2,926,1787,1879,2087,2256,2039,1816,1878,1987
101167,-43596,-14692,-45516,-12748,224,-3008,-1,-34,-11,52,118,3933,-2,-2,926,1787,1879,2087,2256,2039,1816,1878,1987
102168,-43584,-14696,-45516,-12748,-142,-3053,1,-32,-13,49,100,3945,10,7,926,1787,1879,2087,2256,2039,1816,1878,1987
103169,-43592,-14684,-45516,-12748,118,-3266,3,-32,-14,65,86,3937,4,-7,926,1787,1879,2087,2256,2039,1816,1878,1987
104170,-43588,-14688,-45516,-12748,-38,-3060,5,-35,-13,81,107,3937,-8,2,924,1787,1879,2087,2256,2039,1816,1878,1987
105173,-43576,-14668,-45516,-12748,-154,-3385,5,-36,-13,87,86,3932,-9,2,926,1787,1879,2087,2256,2039,1816,1878,1987
106172,-43596,-14688,-45516,-12748,270,-2859,6,-38,-14,95,90,3897,9,-5,926,1787,1879,2087,2256,2039,1816,1878,1987
107173,-43580,-14688,-45516,-12748,-200,-3108,8,-37,-14,84,117,3903,-7,7,926,1787,1879,2087,2256,2039,1816,1878,1987
108174,-43596,-14692,-45516,-12748,219,-3052,8,-36,-9,95,72,3925,-4,-2,926,1787,1879,2087,2256,2039,1816,1878,1987
109175,-43596,-14696,-45516,-12748,18,-3048,11,-37,-10,124,76,3942,8,-3,926,1787,1879,2087,2256,2039,1816,1878,1987
110176,-43592,-14688,-45516,-12748,-38,-3206,10,-39,-11,120,104,3897,-3,4,926,1787,1879,2087,2256,2039,1816,1878,1987
111177,-43580,-14684,-45516,-12748,-153,-3160,12,-38,-10,136,101,3916,9,-7,926,1787,1878,2088,2256,2041,1817,1875,1986
112178,-43584,-14676,-45516,-12748,51,-3220,14,-39,-8,159,121,3930,4,6,926,1787,1878,2088,2256,2041,1817,1875,1986
113179,-43592,-14684,-45516,-12748,110,-3009,15,-37,-8,166,92,3881,-10,-7,926,1787,1878,2088,2256,2041,1817,1875,1986
114180,-43596,-14688,-45516,-12748,64,-3053,13,-37,-8,128,93,3893,-5,-3,926,1787,1878,2088,2256,2041,1817,1875,1986
115181,-43588,-14680,-45516,-12748,-96,-3212,16,-39,-8,144,109,3938,8,2,926,1787,1878,2088,2256,2041,1817,1875,1986
116182,-43580,-14684,-45516,-12748,-107,-3057,14,-38,-7,157,118,3963,-2,-5,927,1787,1878,2088,2256,2041,1817,1875,1986
117183,-43596,-14676,-45516,-12748,212,-3216,13,-36,-7,159,116,3942,-10,6,926,1785,1877,2088,2255,2043,1819,1880,1988
118184,-43584,-14676,-45516,-12748,-153,-3115,13,-37,-6,158,112,3941,0,-5,926,1785,1877,2088,2255,2043,1819,1880,1988
119185,-43596,-14676,-45516,-12748,161,-3114,15,-35,-6,157,94,3935,9,1,926,1785,1877,2088,2255,2043,1819,1880,1988
120186,-43588,-14684,-45516,-12748,-100,-3004,15,-34,-2,170,100,3900,-1,7,926,1785,1877,2088,2255,2043,1819,1880,1988
121187,-43584,-14684,-45516,-12748,-56,-3103,12,-33,-2,170,116,3922,-9,-7,925,1785,1877,2088,2255,2043,1819,1880,1988
122188,-43584,-14696,-45516,-12748,-6,-2938,12,-33,-1,193,137,3906,4,4,926,1783,1873,2083,2253,2045,1822,1882,1992
123189,-43592,-14684,-45516,-12748,103,-3251,11,-33,1,184,128,3939,6,-7,926,1783,1873,2083,2253,2045,1822,1882,1992
124190,-43584,-14680,-45516,-12748,-108,-3156,10,-32,2,166,113,3961,-8,5,926,1783,1873,2083,2253,2045,1822,1882,1992
125191,-43580,-14688,-45516,-12748,-64,-2995,9,-31,1,177,132,3941,4,-2,926,1783,1873,2083,2253,2045,1822,1882,1992
126192,-43592,-14688,-45516,-12748,151,-3094,7,-26,4,154,132,3950,9,-6,926,1783,1873,2083,2253,2045,1822,1882,1992
127193,-43592,-14680,-45516,-12748,0,-3203,6,-26,3,160,133,3955,0,4,926,1783,1873,2083,2253,2045,1822,1882,1992
128194,-43596,-14684,-45516,-12748,54,-3048,5,-25,3,171,116,3962,-7,-4,926,1783,1875,2085,2253,2045,1821,1880,1991
129195,-43584,-14684,-45516,-12748,-162,-3097,5,-25,5,178,133,3948,5,7,926,1783,1875,2085,2253,2045,1821,1880,1991
130196,-43584,-14684,-45516,-12748,-12,-3096,4,-25,4,165,109,3943,9,-8,926,1783,1875,2085,2253,2045,1821,1880,1991
131197,-43580,-14676,-45516,-12748,-68,-3206,2,-21,2,154,107,3946,-3,6,926,1783,1875,2085,2253,2045,1821,1880,1991
132198,-43592,-14688,-45516,-12748,146,-2940,0,-19,4,159,136,3958,-10,-7,926,1783,1875,2085,2253,2045,1821,1880,1991
133199,-43592,-14680,-45516,-12748,-5,-3199,-1,-21,6,120,131,3963,0,6,926,1784,1876,2088,2256,2046,1824,1881,1992
134200,-43604,-14680,-45516,-12748,160,-3098,-2,-20,7,130,115,3976,2,-8,926,1784,1876,2088,2256,2046,1824,1881,1992
135201,-43580,-14688,-45516,-12748,-321,-2988,-5,-18,7,129,112,3935,-7,2,926,1784,1876,2088,2256,2046,1824,1881,1992
136202,-43584,-14684,-45516,-12748,33,-3142,-8,-17,6,123,117,3940,-10,-3,926,1784,1876,2088,2256,2046,1824,1881,1992
137203,-43588,-14688,-45516,-12748,38,-3036,-9,-16,5,125,119,3962,4,1,926,1784,1876,2088,2256,2046,1824,1881,1992
138204,-43584,-14676,-45516,-12748,-68,-3250,-10,-14,4,114,149,3962,9,5,925,1784,1876,2088,2256,2046,1824,1881,1992
139205,-43584,-14676,-45516,-12748,-19,-3100,-11,-15,5,96,116,3978,5,-1,926,1782,1875,2086,2253,2046,1822,1882,1993
140206,-43584,-14688,-45516,-12748,-20,-2934,-11,-15,4,78,108,3935,-9,-3,926,1782,1875,2086,2253,2046,1822,1882,1993
141207,-43592,-14692,-45516,-12748,90,-3028,-13,-14,3,92,115,3949,1,-3,926,1782,1875,2086,2253,2046,1822,1882,1993
142208,-43580,-14676,-45516,-12748,-176,-3297,-15,-16,3,98,113,3964,9,-1,926,1782,1875,2086,2253,2046,1822,1882,1993
143209,-43588,-14680,-45516,-12748,83,-3042,-18,-16,3,78,118,3974,1,1,926,1782,1875,2086,2253,2046,1822,1882,1993
144210,-43588,-14688,-45516,-12748,-18,-2981,-18,-14,3,49,114,3961,-7,5,926,1784,1876,2086,2254,2045,1821,1881,1992
145211,-43580,-14688,-45516,-12748,-128,-3080,-17,-14,5,51,97,3938,-10,-6,926,1784,1876,2086,2254,2045,1821,1881,1992
146212,-43596,-14684,-45516,-12748,191,-3134,-19,-15,5,70,103,3949,-5,6,926,1784,1876,2086,2254,2045,1821,1881,1992
147213,-43584,-14676,-45516,-12748,-175,-3194,-21,-16,2,56,106,3954,7,-8,926,1784,1876,2086,2254,2045,1821,1881,1992
148214,-43592,-14684,-45516,-12748,84,-2983,-22,-16,-1,67,94,3962,9,7,926,1784,1876,2086,2254,2045,1821,1881,1992
149215,-43584,-14680,-45516,-12748,-126,-3137,-22,-13,-3,60,95,3949,2,-7,926,1784,1876,2086,2254,2045,1821,1881,1992
150216,-43580,-14680,-45516,-12748,-82,-3087,-23,-12,0,35,119,3941,-3,1,926,1784,1877,2087,2255,2044,1820,1881,1991
151217,-43584,-14672,-45516,-12748,22,-3196,-23,-15,0,25,108,3960,-9,-3,926,1784,1877,2087,2255,2044,1820,1881,1991
152218,-43588,-14680,-45516,-12748,26,-2985,-23,-17,-3,22,81,3958,-7,3,926,1784,1877,2087,2255,2044,1820,1881,1991
153220,-43604,-14680,-45516,-12748,196,-3084,-23,-17,-6,22,90,3932,-3,-1,926,1784,1877,2087,2255,2044,1820,1881,1991
154220,-43584,-14700,-45516,-12748,-280,-2810,-25,-18,-6,10,77,3961,4,3,926,1784,1877,2087,2255,2044,1820,1881,1991
155221,-43596,-14688,-45516,-12748,134,-3223,-24,-19,-5,-32,98,3942,5,-8,925,1785,1877,2087,2255,2042,1819,1880,1989
156222,-43596,-14672,-45516,-12748,-17,-3292,-22,-19,-6,6,103,3935,-10,6,926,1785,1877,2087,2255,2042,1819,1880,1989
157223,-43584,-14696,-45516,-12748,-182,-2762,-23,-18,-6,6,78,3894,-9,-7,926,1785,1877,2087,2255,2042,1819,1880,1989
158224,-43596,-14684,-45516,-12748,132,-3226,-23,-17,-8,3,86,3952,9,7,926,1785,1877,2087,2255,2042,1819,1880,1989
159225,-43592,-14684,-45516,-12748,-74,-3075,-24,-20,-9,-32,51,3928,1,-6,926,1785,1877,2087,2255,2042,1819,1880,1989
160226,-43592,-14684,-45516,-12748,-24,-3074,-22,-22,-8,-14,59,3919,-9,6,926,1785,1877,2087,2255,2042,1819,1880,1989
161227,-43600,-14680,-45516,-12748,85,-3128,-20,-21,-8,30,73,3940,1,-8,926,1787,1877,2083,2255,2039,1818,1882,1990
162228,-43588,-14688,-45516,-12748,-181,-2968,-19,-22,-9,0,108,3920,10,2,926,1787,1877,2083,2255,2039,1818,1882,1990
163229,-43584,-14688,-45516,-12748,-87,-3067,-17,-22,-11,-4,72,3944,3,-5,926,1787,1877,2083,2255,2039,1818,1882,1990
164230,-43592,-14684,-45516,-12748,73,-3121,-16,-23,-11,4,77,3931,-10,5,926,1787,1877,2083,2255,2039,1818,1882,1990
165231,-43608,-14680,-45516,-12748,191,-3126,-15,-24,-10,-11,80,3918,-4,-1,926,1787,1877,2083,2255,2039,1818,1882,1990
166232,-43600,-14684,-45516,-12748,-119,-3020,-14,-25,-9,-12,79,3951,9,1,926,1786,1878,2087,2255,2038,1815,1878,1987
167233,-43592,-14684,-45516,-12748,-130,-3069,-12,-27,-11,1,82,3976,-5,-4,926,1786,1878,2087,2255,2038,1815,1878,1987
168234,-43596,-14676,-45516,-12748,25,-3178,-12,-28,-12,7,112,3955,-9,-2,926,1786,1878,2087,2255,2038,1815,1878,1987
169235,-43588,-14680,-45516,-12748,-136,-3023,-12,-29,-14,31,112,3920,-4,-4,926,1786,1878,2087,2255,2038,1815,1878,1987
170236,-43592,-14680,-45516,-12748,18,-3072,-8,-30,-15,39,84,3935,9,4,926,1786,1878,2087,2255,2038,1815,1878,1987
171237,-43596,-14684,-45516,-12748,22,-3016,-7,-30,-13,36,85,3944,4,4,926,1786,1878,2087,2255,2038,1815,1878,1987
172238,-43588,-14692,-45516,-12748,-138,-2955,-8,-33,-12,41,64,3941,-9,-5,925,1787,1880,2088,2256,2038,1815,1878,1986
173239,-43592,-14676,-45516,-12748,16,-3275,-4,-33,-13,61,60,3915,3,-2,926,1787,1880,2088,2256,2038,1815,1878,1986
174240,-43580,-14684,-45516,-12748,-200,-2964,-3,-32,-12,67,65,3914,9,-2,926,1787,1880,2088,2256,2038,1815,1878,1986
175241,-43596,-14684,-45516,-12748,169,-3063,-3,-32,-11,57,84,3910,6,-2,926,1787,1880,2088,2256,2038,1815,1878,1986
176242,-43592,-14692,-45516,-12748,-86,-2952,-2,-32,-8,51,80,3934,-6,3,926,1787,1880,2088,2256,2038,1815,1878,1986
177243,-43588,-14684,-45516,-12748,-92,-3162,3,-33,-7,60,63,3902,-10,3,926,1787,1879,2088,2256,2038,1816,1878,1987
178244,-43584,-14688,-45516,-12748,-98,-3006,8,-34,-8,75,71,3928,-6,-4,926,1787,1879,2088,2256,2038,1816,1878,1987
179245,-43584,-14684,-45516,-12748,-48,-3110,7,-33,-9,104,86,3917,9,3,926,1787,1879,2088,2256,2038,1816,1878,1987
180246,-43596,-14680,-45516,-12748,116,-3114,3,-34,-5,86,71,3908,4,-7,926,1787,1879,2088,2256,2038,1816,1878,1987
181247,-43592,-14688,-45516,-12748,-90,-2954,6,-37,-8,84,84,3921,-3,6,926,1787,1879,2088,2256,2038,1816,1878,1987
182248,-43592,-14684,-45516,-12748,-41,-3108,9,-38,-8,103,111,3944,-6,-6,926,1787,1879,2088,2256,2038,1816,1878,1987
183249,-43592,-14684,-45516,-12748,-41,-3057,9,-40,-7,107,126,3921,8,0,926,1786,1879,2087,2255,2041,1817,1880,1988
184250,-43596,-14680,-45516,-12748,13,-3112,10,-36,-5,127,83,3897,9,-3,926,1786,1879,2087,2255,2041,1817,1880,1988
185251,-43604,-14684,-45516,-12748,72,-3006,13,-36,-5,121,97,3935,-6,2,926,1786,1879,2087,2255,2041,1817,1880,1988
186252,-43604,-14676,-45516,-12748,-29,-3165,14,-35,-5,133,86,3925,-9,4,926,1786,1879,2087,2255,2041,1817,1880,1988
187253,-43592,-14680,-45516,-12748,-194,-3009,14,-36,-5,132,71,3881,-5,-6,926,1786,1879,2087,2255,2041,1817,1880,1988
188254,-43592,-14684,-45516,-12748,-45,-3004,11,-33,-4,142,92,3900,9,3,926,1785,1877,2089,2255,2039,1818,1879,1990
189255,-43588,-14676,-45516,-12748,-101,-3163,10,-29,-2,135,111,3925,9,-7,924,1785,1877,2089,2255,2039,1818,1879,1990
190256,-43596,-14668,-45516,-12748,58,-3172,10,-32,0,130,101,3977,-2,-1,926,1785,1877,2089,2255,2039,1818,1879,1990
191257,-43592,-14684,-45516,-12748,-97,-2851,13,-33,0,138,92,3949,-5,4,926,1785,1877,2089,2255,2039,1818,1879,1990
192258,-43576,-14684,-45516,-12748,-268,-3051,15,-35,1,155,106,3893,8,-1,926,1785,1877,2089,2255,2039,1818,1879,1990
193259,-43576,-14692,-45516,-12748,-69,-2940,16,-33,3,133,104,3919,-8,-1,926,1785,1877,2089,2255,2039,1818,1879,1990
194260,-43584,-14684,-45516,-12748,40,-3149,14,-33,1,161,111,3919,2,1,926,1785,1877,2088,2255,2044,1819,1880,1989
195261,-43588,-14684,-45516,-12748,-5,-3048,10,-32,-1,163,115,3930,8,-7,926,1785,1877,2088,2255,2044,1819,1880,1989
196262,-43584,-14668,-45516,-12748,-111,-3268,8,-32,0,133,111,3939,-5,5,926,1785,1877,2088,2255,2044,1819,1880,1989
197263,-43572,-14684,-45516,-12748,-227,-2847,10,-31,1,151,125,3918,-2,-5,926,1785,1877,2088,2255,2044,1819,1880,1989
198264,-43588,-14680,-45516,-12748,143,-3101,12,-29,2,138,115,3923,8,7,926,1785,1877,2088,2255,2044,1819,1880,1989
199265,-43584,-14680,-45516,-12748,-113,-3050,10,-27,3,130,121,3953,-8,-7,926,1779,1874,2087,2254,2046,1822,1882,1992
200266,-43592,-14680,-29132,3636,3800,3800,8,-25,4,140,137,3961,0,7,926,1779,1874,2087,2254,2046,1822,1882,1992
201267,-43596,-14672,-29067,3701,3800,3800,7,-26,2,131,115,3939,9,-1,806,1779,1874,2087,2254,2046,1822,1882,1992
202268,-43548,-14620,-29002,3766,3800,3800,3,-25,0,126,138,3965,324,310,824,1779,1874,2087,2254,2046,1822,1882,1992
203269,-43424,-14500,-28937,3831,3800,3800,-7,-45,4,17,25,3940,329,314,830,1779,1874,2087,2254,2046,1822,1882,1992
204270,-43284,-14336,-28872,3896,3800,3800,-20,-92,31,-208,-88,3924,342,315,835,1783,1876,2087,2252,2045,1820,1881,1993
205271,-43100,-14148,-28807,3961,3800,3800,-24,-158,57,-851,-85,3797,346,327,840,1783,1876,2087,2252,2045,1820,1881,1993
206272,-42856,-13924,-28742,4026,3800,3800,-19,-235,69,-473,-304,4198,324,322,844,1783,1876,2087,2252,2045,1820,1881,1993
207273,-42604,-13608,-28677,4091,3800,3800,7,-283,88,168,-473,4556,347,344,851,1783,1876,2087,2252,2045,1820,1881,1993
208274,-42292,-13312,-28612,4156,3800,3800,23,-355,145,-239,-834,4477,383,322,855,1783,1876,2087,2252,2045,1820,1881,1993
209275,-41964,-12968,-28547,4221,3800,3800,-26,-403,157,-1003,-968,4463,370,354,860,1783,1876,2087,2252,2045,1820,1881,1993
210276,-41608,-12600,-28482,4286,3800,3800,-38,-347,159,-738,-808,4504,364,332,865,1785,1882,2092,2254,2056,1826,1901,2025
211277,-41240,-12232,-28417,4351,3800,3800,-41,-318,181,46,-1064,4071,391,340,869,1785,1882,2092,2254,2056,1826,1901,2025
212278,-40824,-11832,-28352,4416,3800,3800,-49,-339,154,-93,-573,4553,381,338,870,1785,1882,2092,2254,2056,1826,1901,2025
213279,-40408,-11344,-28287,4481,3800,3800,-24,-169,87,-31,-429,5311,380,338,874,1785,1882,2092,2254,2056,1826,1901,2025
214280,-39952,-10932,-28222,4546,3800,3800,-50,-249,115,84,-1332,3619,392,370,876,1785,1882,2092,2254,2056,1826,1901,2025
215281,-39496,-10488,-28157,4611,3800,3800,-32,-195,146,-650,-61,6142,401,371,876,1818,1916,2110,2284,2092,1855,1943,2058
216282,-39004,-10000,-28092,4676,3800,3800,-5,-148,96,-1095,-1010,5365,397,369,879,1818,1916,2110,2284,2092,1855,1943,2058
217283,-38540,-9520,-28027,4741,3800,3800,8,-251,60,-1323,-724,5528,377,376,880,1818,1916,2110,2284,2092,1855,1943,2058
218284,-38040,-8968,-27962,4806,3800,3800,61,-213,23,-1177,-204,7057,385,366,882,1818,1916,2110,2284,2092,1855,1943,2058
219285,-37480,-8468,-27897,4871,3800,3800,168,-165,-55,-466,-331,5824,371,374,883,1818,1916,2110,2284,2092,1855,1943,2058
220286,-36988,-8000,-27832,4936,3800,3800,240,-56,-82,-659,-862,8019,384,360,883,1818,1916,2110,2284,2092,1855,1943,2058
221287,-36440,-7484,-27767,5001,3800,3800,370,40,-123,657,-196,6750,401,397,884,1852,1950,2152,2367,2112,1889,1976,2068
222288,-35864,-6968,-27702,5066,3800,3800,445,92,-154,-640,-1157,7401,421,382,885,1852,1950,2152,2367,2112,1889,1976,2068
223289,-35288,-6500,-27637,5131,3358,3800,542,74,-155,-375,-638,7260,411,389,885,1852,1950,2152,2367,2112,1889,1976,2068
224290,-34696,-5944,-27572,5196,2518,3800,606,260,-150,-279,-1070,8674,414,364,889,1852,1950,2152,2367,2112,1889,1976,2068
225291,-34216,-5444,-27507,5261,3414,3800,626,356,-190,-1668,162,5830,280,361,894,1852,1950,2152,2367,2112,1889,1976,2068
226292,-33660,-4948,-27442,5326,1867,3800,618,445,-295,-1413,825,9498,333,354,891,1998,2096,2331,2631,2092,1911,1997,2053
227293,-33088,-4444,-27377,5391,1051,3800,680,226,-196,-74,-14,6116,268,363,895,1998,2096,2331,2631,2092,1911,1997,2053
228294,-32568,-3952,-27312,5456,1148,3800,614,-37,-276,-200,-535,6518,328,366,899,1998,2096,2331,2631,2092,1911,1997,2053
229295,-32024,-3472,-27247,5521,265,3800,729,-243,-279,-2265,-275,5676,301,367,897,1998,2096,2331,2631,2092,1911,1997,2053
230296,-31468,-3028,-27182,5586,-483,3800,808,-480,-329,-2722,-175,6212,304,371,900,1998,2096,2331,2631,2092,1911,1997,2053
231297,-30984,-2580,-27117,5651,-93,3800,997,-619,-414,97,-1039,6422,291,327,898,1998,2096,2331,2631,2092,1911,1997,2053
232298,-30484,-2168,-27052,5716,-822,3800,1219,-770,-346,1130,-650,6338,287,354,897,2170,2245,2491,2784,2112,1911,2002,2095
233299,-30020,-1760,-26987,5781,-858,3800,1520,-698,-403,648,-95,7591,286,334,895,2170,2245,2491,2784,2112,1911,2002,2095
234300,-29588,-1356,-26922,5846,-905,3800,1799,-847,-489,661,-338,5100,273,352,897,2170,2245,2491,2784,2112,1911,2002,2095
235301,-29100,-920,-26857,5911,-2120,3800,2058,-782,-572,1112,-314,9128,273,342,886,2170,2245,2491,2784,2112,1911,2002,2095
236302,-28668,-580,-26792,5976,-1867,3800,2440,-689,-597,2838,845,5201,248,351,892,2170,2245,2491,2784,2112,1911,2002,2095
237303,-28228,-240,-26727,6041,-2424,3800,2707,-624,-679,2560,801,8945,238,331,892,2172,2269,2419,2629,1912,1681,1828,1893
238304,-27844,144,-26662,6106,-2114,3779,2872,-661,-851,-39,1106,7345,241,346,892,2172,2269,2419,2629,1912,1681,1828,1893
239305,-27464,456,-26597,6171,-2447,3800,3034,-651,-956,678,3369,7545,234,354,885,2172,2269,2419,2629,1912,1681,1828,1893
240306,-27060,796,-26532,6236,-3161,3697,3131,-773,-945,1761,2827,6758,212,304,889,2172,2269,2419,2629,1912,1681,1828,1893
241307,-26744,1084,-26467,6301,-2367,3800,3219,-963,-1001,774,3192,7525,217,329,891,2172,2269,2419,2629,1912,1681,1828,1893
242308,-26432,1420,-26402,6366,-2618,3148,3247,-1243,-1142,-458,3774,7218,203,144,889,2172,2269,2419,2629,1912,1681,1828,1893
243309,-26092,1716,-26337,6431,-3304,3368,3309,-1539,-1254,-1665,3599,7828,197,339,894,2200,2298,2370,2648,1725,1547,1728,1779
244310,-25792,1996,-26272,6496,-3091,3308,3428,-1745,-1163,776,3479,5234,179,121,893,2200,2298,2370,2648,1725,1547,1728,1779
245311,-25480,2260,-26207,6561,-3543,3266,3586,-1896,-1114,1471,2754,5153,181,50,895,2200,2298,2370,2648,1725,1547,1728,1779
246312,-25240,2504,-26142,6626,-2857,3299,3674,-2134,-1178,-2102,2182,6324,165,86,895,2200,2298,2370,2648,1725,1547,1728,1779
247313,-24980,2800,-26077,6691,-3345,2369,3791,-2363,-1282,-1800,2685,4321,164,86,892,2200,2298,2370,2648,1725,1547,1728,1779
248314,-24716,3056,-26012,6756,-3639,2637,3946,-2340,-1202,619,2790,5868,140,65,904,2194,2287,2434,2626,1888,1716,1835,1983
249315,-24504,3300,-25947,6821,-3168,2570,4181,-2295,-1000,1817,2372,4761,141,135,901,2194,2287,2434,2626,1888,1716,1835,1983
250316,-24288,3492,-25882,6886,-3403,3067,4394,-2342,-935,680,2151,4387,143,129,901,2194,2287,2434,2626,1888,1716,1835,1983
251317,-24088,3684,-25817,6951,-3368,2913,4572,-2452,-1002,-276,2207,4150,132,114,894,2194,2287,2434,2626,1888,1716,1835,1983
252318,-23916,3940,-25752,7016,-3150,1880,4729,-2408,-1087,-17,1896,4687,122,84,896,2194,2287,2434,2626,1888,1716,1835,1983
253319,-23736,4156,-25687,7081,-3391,2197,4932,-2225,-1061,-471,1810,5901,106,74,909,2194,2287,2434,2626,1888,1716,1835,1983
254320,-23568,4396,-25622,7146,-3368,1685,5321,-2290,-937,-327,2250,5284,108,97,904,1970,2056,2297,2368,2091,1844,1868,2040
255321,-23428,4600,-25557,7211,-3109,1967,5791,-2907,-996,1199,1845,4406,104,98,910,1970,2056,2297,2368,2091,1844,1868,2040
256322,-23260,4772,-25492,7276,-3586,2237,5972,-3646,-1125,5035,3612,2189,82,103,908,1970,2056,2297,2368,2091,1844,1868,2040
257323,-23148,4916,-25427,7341,-2944,2492,5738,-3986,-1456,-1575,605,4627,78,95,903,1970,2056,2297,2368,2091,1844,1868,2040
258324,-23036,5104,-25362,7406,-3003,1793,5399,-4006,-1920,-5718,2993,5640,79,97,901,1970,2056,2297,2368,2091,1844,1868,2040
259325,-22916,5264,-25297,7471,-3171,2027,5044,-3647,-2158,-2006,3401,6593,65,88,909,1790,1868,2080,2198,1974,1728,1821,1970
260326,-22824,5428,-25232,7536,-2855,1857,4953,-3059,-2104,3865,4074,4505,52,88,907,1790,1868,2080,2198,1974,1728,1821,1970
261327,-22740,5580,-25167,7601,-2779,1902,4909,-3111,-2004,3532,4982,3014,49,90,907,1790,1868,2080,2198,1974,1728,1821,1970
262328,-22652,5748,-25102,7666,-2858,1577,4967,-3587,-2029,-530,4226,4189,60,85,908,1790,1868,2080,2198,1974,1728,1821,1970
263329,-22588,5884,-25037,7731,-2557,1891,5087,-4005,-2061,-710,3568,3836,49,74,911,1790,1868,2080,2198,1974,1728,1821,1970
264330,-22536,6020,-24972,7796,-2392,1804,5187,-3940,-1959,460,2618,5130,40,74,908,1790,1868,2080,2198,1974,1728,1821,1970
265331,-22488,6128,-24907,7861,-2322,2103,5162,-3565,-1785,418,2012,4460,30,73,909,1680,1800,1968,2068,2084,1835,1915,2098
266332,-22444,6252,-24842,7926,-2248,1832,5087,-3372,-1592,-1044,2099,3150,23,78,905,1680,1800,1968,2068,2084,1835,1915,2098
267333,-22408,6376,-24777,7991,-2113,1760,5011,-3354,-1487,-1723,2130,2802,25,79,908,1680,1800,1968,2068,2084,1835,1915,2098
268334,-22384,6548,-24712,8056,-1914,1030,5016,-3521,-1455,-1550,2213,2175,33,78,910,1680,1800,1968,2068,2084,1835,1915,2098
269335,-22364,6688,-24647,8121,-1810,1339,5133,-3843,-1407,-930,1976,2353,13,88,917,1680,1800,1968,2068,2084,1835,1915,2098
270336,-22352,6804,-24582,8186,-1647,1578,5282,-4155,-1383,-1412,1419,2458,5,69,914,1640,1781,2017,2094,2179,1882,1891,2062
271337,-22344,6932,-24517,8251,-1528,1351,5421,-4346,-1399,-2563,947,2589,1,73,911,1640,1781,2017,2094,2179,1882,1891,2062
272338,-22356,7060,-24452,8316,-1185,1275,5461,-4519,-1469,-3131,1277,2951,2,78,914,1640,1781,2017,2094,2179,1882,1891,2062
273339,-22356,7192,-24387,8381,-1256,1143,5396,-4636,-1575,-1736,1355,2314,-6,76,915,1640,1781,2017,2094,2179,1882,1891,2062
274340,-22360,7284,-24322,8446,-1123,1611,5273,-4623,-1677,-416,1503,2441,3,67,915,1640,1781,2017,2094,2179,1882,1891,2062
275341,-22376,7384,-24257,8511,-875,1468,5145,-4522,-1758,290,1917,2303,-12,55,911,1640,1781,2017,2094,2179,1882,1891,2062
276342,-22380,7480,-24192,8576,-941,1481,4978,-4418,-1875,373,2260,2411,-11,64,912,1710,1806,2056,2172,1968,1717,1744,1872
277343,-22392,7592,-24127,8641,-747,1224,4787,-4357,-1983,619,2571,2883,3,55,912,1710,1806,2056,2172,1968,1717,1744,1872
278344,-22412,7668,-24062,8706,-545,1662,4619,-4274,-2013,101,2398,3010,-11,45,915,1710,1806,2056,2172,1968,1717,1744,1872
279345,-22436,7768,-23997,8771,-387,1319,4495,-4081,-2025,520,2641,3171,-12,44,910,1710,1806,2056,2172,1968,1717,1744,1872
280346,-22448,7864,-23932,8836,-443,1331,4385,-3813,-2043,200,2347,3276,0,38,914,1710,1806,2056,2172,1968,1717,1744,1872
281347,-22464,7928,-23867,8901,-295,1733,4309,-3666,-2017,145,2216,2608,-3,46,914,1747,1798,2002,2132,1907,1704,1760,1870
282348,-22484,8008,-23802,8966,-141,1515,4245,-3601,-1935,53,2282,2441,-7,35,909,1747,1798,2002,2132,1907,1704,1760,1870
283349,-22512,8072,-23737,9031,71,1716,4178,-3553,-1792,-71,2083,2108,-6,39,911,1747,1798,2002,2132,1907,1704,1760,1870
284350,-22540,8160,-23672,9096,185,1389,4149,-3515,-1610,-618,1957,2143,-17,44,908,1747,1798,2002,2132,1907,1704,1760,1870
285351,-22548,8244,-23607,9161,23,1416,4173,-3501,-1445,-1556,1907,1797,-20,34,912,1747,1798,2002,2132,1907,1704,1760,1870
286352,-22580,8316,-23542,9226,441,1557,4234,-3463,-1357,-2502,1708,2026,-11,39,912,1747,1798,2002,2132,1907,1704,1760,1870
287353,-22608,8392,-23477,9291,505,1495,4332,-3457,-1267,-2873,2048,2206,-13,40,908,1638,1700,1930,2069,2058,1849,1851,1965
288354,-22632,8484,-23412,9356,562,1262,4382,-3541,-1184,-1290,1900,1657,3,47,908,1638,1700,1930,2069,2058,1849,1851,1965
289355,-22640,8552,-23347,9421,451,1558,4486,-3606,-1083,-1617,1035,2193,4,56,911,1638,1700,1930,2069,2058,1849,1851,1965
290356,-22640,8628,-23282,9486,431,1446,4605,-3630,-957,-1923,1065,2155,-3,55,908,1638,1700,1930,2069,2058,1849,1851,1965
291357,-22644,8728,-23217,9551,564,1103,4696,-3654,-903,-2117,1184,1243,7,58,908,1638,1700,1930,2069,2058,1849,1851,1965
292358,-22652,8832,-23152,9616,703,1006,4754,-3668,-849,-1294,1134,2195,2,49,912,1580,1667,1931,2076,2062,1817,1807,1904
293359,-22652,8924,-23087,9681,682,1124,4713,-3722,-791,15,1455,1195,6,60,913,1580,1667,1931,2076,2062,1817,1807,1904
294360,-22628,9008,-23022,9746,433,1200,4673,-3699,-703,970,1434,1316,11,63,911,1580,1667,1931,2076,2062,1817,1807,1904
295361,-22620,9120,-22957,9811,702,793,4577,-3538,-659,1062,1249,1929,9,61,913,1580,1667,1931,2076,2062,1817,1807,1904
296362,-22600,9204,-22892,9876,607,1121,4461,-3254,-650,784,1242,1861,13,59,914,1580,1667,1931,2076,2062,1817,1807,1904
297363,-22580,9284,-22827,9941,661,1153,4299,-2941,-608,1215,1430,2508,13,47,912,1580,1667,1931,2076,2062,1817,1807,1904
298364,-22544,9376,-22762,10006,496,970,4082,-2698,-528,1301,1120,2145,15,57,912,1731,1800,2029,2181,1835,1618,1670,1747
299365,-22504,9468,-22697,10071,477,937,3839,-2542,-408,1099,1179,1961,20,48,915,1731,1800,2029,2181,1835,1618,1670,1747
300366,-22484,9544,-22632,10136,782,1124,3598,-2373,-281,712,947,2215,16,58,915,1731,1800,2029,2181,1835,1618,1670,1747
301367,-22432,9624,-22567,10201,398,1056,3366,-2183,-179,410,825,1833,30,58,911,1731,1800,2029,2181,1835,1618,1670,1747
302368,-22376,9704,-22502,10266,359,1038,3171,-2038,-73,455,636,2309,33,60,914,1731,1800,2029,2181,1835,1618,1670,1747
303369,-22340,9776,-22437,10331,644,1129,2992,-2030,26,-712,739,1769,22,53,915,1795,1830,2038,2212,1701,1539,1581,1635
304370,-22296,9864,-22372,10396,570,901,2790,-2062,158,-905,943,2363,21,58,912,1795,1830,2038,2212,1701,1539,1581,1635
305371,-22244,9948,-22307,10461,486,929,2605,-2093,286,193,770,1936,33,52,915,1795,1830,2038,2212,1701,1539,1581,1635
306372,-22192,10048,-22242,10526,501,686,2475,-2100,482,-948,-334,2334,35,50,915,1795,1830,2038,2212,1701,1539,1581,1635
307373,-22148,10136,-22177,10591,627,808,2327,-2076,690,-866,81,2221,32,60,917,1795,1830,2038,2212,1701,1539,1581,1635
308374,-22096,10236,-22112,10656,543,615,2212,-2104,959,-548,-779,1370,28,57,914,1795,1830,2038,2212,1701,1539,1581,1635
309375,-22036,10316,-22047,10721,449,847,2145,-2143,1224,-761,-1122,1947,45,61,918,1711,1738,2006,2199,1653,1521,1533,1582
310376,-21984,10404,-21982,10786,565,719,2045,-2088,1456,-978,-1211,1836,45,50,917,1711,1738,2006,2199,1653,1521,1533,1582
311377,-21920,10504,-21917,10851,416,527,1893,-1948,1664,-127,-756,1867,44,45,917,1711,1738,2006,2199,1653,1521,1533,1582
312378,-21852,10588,-21852,10916,363,704,1716,-1804,1889,536,-723,2200,32,44,919,1711,1738,2006,2199,1653,1521,1533,1582
313379,-21788,10708,-21787,10981,414,187,1473,-1667,2076,1403,-470,1978,39,54,919,1711,1738,2006,2199,1653,1521,1533,1582
314380,-21732,10916,-21722,11046,525,-1088,1179,-1472,2232,939,728,2640,31,41,922,1749,1778,2041,2243,1558,1427,1478,1527
315381,-21644,11084,-21657,11111,97,-714,878,-1028,2354,-37,1478,2048,48,47,912,1749,1778,2041,2243,1558,1427,1478,1527
316382,-21572,11268,-21592,11176,288,-1059,642,-405,2412,3065,-610,1366,29,39,919,1749,1778,2041,2243,1558,1427,1478,1527
317383,-21512,11480,-21527,11241,444,-1588,281,-330,2235,5662,-1191,-89,34,20,915,1749,1778,2041,2243,1558,1427,1478,1527
318384,-21456,11540,-21462,11306,505,318,-107,-684,1995,3076,-930,1463,35,23,907,1749,1778,2041,2243,1558,1427,1478,1527
319385,-21396,11544,-21397,11371,461,1092,-624,-853,1684,-417,-1370,1063,41,5,920,1749,1778,2041,2243,1558,1427,1478,1527
320386,-21320,11544,-21332,11436,248,1222,-1106,-828,1453,-1045,-1493,-328,46,19,913,1852,1849,2065,2269,1594,1448,1537,1631
321387,-21244,11556,-21267,11501,234,1136,-1357,-701,1363,-90,-402,1841,46,15,913,1852,1849,2065,2269,1594,1448,1537,1631
322388,-21160,11544,-21202,11566,111,1530,-1473,-438,1270,1034,-667,217,41,33,914,1852,1849,2065,2269,1594,1448,1537,1631
323389,-21092,11520,-21137,11631,308,1789,-1558,-69,1149,834,-1006,1319,38,40,911,1852,1849,2065,2269,1594,1448,1537,1631
324390,-21020,11420,-21072,11696,249,2940,-1543,45,1143,-851,-1522,963,32,34,906,1852,1849,2065,2269,1594,1448,1537,1631
325391,-20948,11460,-21007,11761,240,1221,-1473,-3,1233,-2475,-1278,1570,40,52,889,1683,1753,1931,2023,1911,1687,1766,1930
326392,-20880,11584,-20942,11826,287,99,-1340,40,1454,-2872,-703,1812,46,29,913,1683,1753,1931,2023,1911,1687,1766,1930
327393,-20828,11732,-20877,11891,503,-302,-1161,156,1770,-1218,274,120,34,86,922,1683,1753,1931,2023,1911,1687,1766,1930
328394,-20744,11888,-20812,11956,79,-513,-1044,280,2015,-444,357,816,52,75,920,1683,1753,1931,2023,1911,1687,1766,1930
329395,-20688,12040,-20747,12021,440,-570,-978,468,2216,-97,80,339,53,71,921,1683,1753,1931,2023,1911,1687,1766,1930
330397,-20624,12224,-20682,12086,342,-1115,-959,700,2440,11,442,758,49,63,918,1683,1753,1931,2023,1911,1687,1766,1930
331397,-20568,12360,-20617,12151,453,-602,-964,961,2648,-113,871,460,48,65,913,1483,1632,1815,1927,2029,1784,1829,1915
332398,-20492,12524,-20552,12216,189,-1072,-1020,1108,2747,165,880,296,31,46,918,1483,1632,1815,1927,2029,1784,1829,1915
333399,-20420,12712,-20487,12281,231,-1523,-1086,1109,2683,452,956,152,43,43,914,1483,1632,1815,1927,2029,1784,1829,1915
334400,-20352,12760,-20422,12346,276,248,-1228,977,2472,390,608,199,29,36,908,1483,1632,1815,1927,2029,1784,1829,1915
335401,-20284,12804,-20357,12411,272,324,-1362,824,2224,817,358,274,26,23,922,1483,1632,1815,1927,2029,1784,1829,1915
336402,-20208,12816,-20292,12476,159,787,-1504,761,2019,1946,402,663,30,29,922,1564,1623,1836,2038,1924,1725,1736,1778
337403,-20148,12856,-20227,12541,365,468,-1622,814,1830,2022,588,976,31,30,919,1564,1623,1836,2038,1924,1725,1736,1778
338404,-20080,12896,-20162,12606,261,498,-1730,898,1606,1577,335,698,44,28,921,1564,1623,1836,2038,1924,1725,1736,1778
339405,-19996,12832,-20097,12671,38,1956,-1798,941,1422,2346,-199,439,31,36,921,1564,1623,1836,2038,1924,1725,1736,1778
340406,-19936,12828,-20032,12736,344,1290,-1865,967,1326,2487,-709,996,36,46,907,1564,1623,1836,2038,1924,1725,1736,1778
341407,-19884,12912,-19967,12801,460,167,-1905,1032,1352,868,-741,1406,49,36,912,1564,1623,1836,2038,1924,1725,1736,1778
342408,-19820,13004,-19902,12866,311,34,-1926,1266,1446,938,-698,752,38,58,919,1656,1671,1935,2134,1883,1710,1721,1812
343409,-19732,13108,-19837,12931,-17,-164,-1906,1515,1587,1199,-771,816,33,62,923,1656,1671,1935,2134,1883,1710,1721,1812
344410,-19676,13228,-19772,12996,394,-431,-1901,1622,1757,447,-989,285,42,56,924,1656,1671,1935,2134,1883,1710,1721,1812
345411,-19612,13332,-19707,13061,296,-278,-1926,1697,1951,-441,-1197,546,40,50,921,1656,1671,1935,2134,1883,1710,1721,1812
346412,-19548,13448,-19642,13126,297,-491,-1964,1822,2178,-1229,-1159,524,43,58,922,1656,1671,1935,2134,1883,1710,1721,1812
347413,-19488,13528,-19577,13191,353,-60,-2023,1961,2407,-1580,-838,629,33,55,921,1650,1748,1980,2112,1920,1710,1749,1851
348414,-19420,13616,-19512,13256,249,-188,-2123,2035,2580,-1433,-504,244,35,39,923,1650,1748,1980,2112,1920,1710,1749,1851
349415,-19364,13724,-19447,13321,410,-490,-2227,2073,2683,-1576,-309,472,33,47,923,1650,1748,1980,2112,1920,1710,1749,1851
350416,-19316,13772,-19382,13386,531,280,-2351,2062,2716,-1207,-57,617,45,41,920,1650,1748,1980,2112,1920,1710,1749,1851
351417,-19248,13824,-19317,13451,277,246,-2459,2066,2686,-484,211,781,33,32,921,1650,1748,1980,2112,1920,1710,1749,1851
352418,-19176,13864,-19252,13516,219,427,-2555,2096,2627,302,751,1510,40,36,923,1650,1748,1980,2112,1920,1710,1749,1851
353419,-19128,13916,-19187,13581,539,293,-2611,2220,2545,915,1170,1998,28,34,922,1592,1699,1877,2007,1941,1701,1770,1883
354420,-19072,13980,-19122,13646,450,143,-2620,2445,2408,1758,1469,2536,45,34,921,1592,1699,1877,2007,1941,1701,1770,1883
355421,-18996,14016,-19057,13711,187,528,-2619,2652,2231,2503,1496,2601,31,43,922,1592,1699,1877,2007,1941,1701,1770,1883
356422,-18928,14064,-18992,13776,283,399,-2593,2889,2078,2861,1560,3025,38,40,922,1592,1699,1877,2007,1941,1701,1770,1883
357423,-18868,14156,-18927,13841,389,-184,-2548,3184,1963,3211,1818,3098,39,46,922,1592,1699,1877,2007,1941,1701,1770,1883
358424,-18804,14208,-18862,13906,341,332,-2505,3445,1873,3383,1618,2373,36,51,922,1521,1602,1792,1933,2058,1818,1845,1948
359425,-18728,14292,-18797,13971,177,-91,-2466,3703,1799,3462,1409,2649,41,35,921,1521,1602,1792,1933,2058,1818,1845,1948
360426,-18664,14384,-18732,14036,328,-224,-2453,3897,1762,2977,1210,2166,34,49,924,1521,1602,1792,1933,2058,1818,1845,1948
361427,-18608,14480,-18667,14101,439,-312,-2451,4024,1802,2302,800,1858,36,48,923,1521,1602,1792,1933,2058,1818,1845,1948
362428,-18548,14544,-18602,14166,396,88,-2477,4157,1821,2008,1000,1784,37,45,921,1521,1602,1792,1933,2058,1818,1845,1948
363429,-18480,14628,-18537,14231,292,-185,-2506,4171,1836,1291,255,1017,46,34,923,1521,1602,1792,1933,2058,1818,1845,1948
364430,-18408,14684,-18472,14296,233,176,-2550,4112,1887,929,-107,1171,49,36,923,1612,1684,1974,2194,2049,1867,1829,1890
365431,-18348,14740,-18407,14361,389,187,-2608,4072,1970,931,-94,1460,45,32,924,1612,1684,1974,2194,2049,1867,1829,1890
366432,-18288,14788,-18342,14426,395,308,-2706,4062,2048,750,163,1516,38,29,922,1612,1684,1974,2194,2049,1867,1829,1890
367433,-18236,14836,-18277,14491,510,328,-2803,4091,2113,992,12,1959,48,44,922,1612,1684,1974,2194,2049,1867,1829,1890
368434,-18156,14892,-18212,14556,142,239,-2877,4161,2152,1346,141,2420,48,40,921,1612,1684,1974,2194,2049,1867,1829,1890
369435,-18116,14928,-18147,14621,673,524,-2950,4325,2192,1428,345,2966,35,31,924,1746,1815,2128,2352,1940,1771,1760,1822
370436,-18052,14984,-18082,14686,374,285,-3015,4575,2222,1849,884,3408,33,41,919,1746,1815,2128,2352,1940,1771,1760,1822
371437,-17992,15056,-18017,14751,430,76,-3066,4829,2236,2288,1307,3628,44,49,922,1746,1815,2128,2352,1940,1771,1760,1822
372438,-17908,15136,-17952,14816,107,-42,-3145,5026,2211,2960,1536,4190,33,39,922,1746,1815,2128,2352,1940,1771,1760,1822
373439,-17864,15204,-17887,14881,632,104,-3245,5198,2164,3172,1877,4089,47,46,925,1746,1815,2128,2352,1940,1771,1760,1822
374440,-17784,15276,-17822,14946,164,46,-3338,5405,2099,2811,2322,4332,46,42,921,1746,1815,2128,2352,1940,1771,1760,1822
375441,-17732,15380,-17757,15011,530,-402,-3432,5681,1999,2780,2621,4603,43,34,924,1731,1815,2039,2206,1935,1727,1780,1896
376442,-17664,15484,-17692,15076,326,-451,-3519,5942,1890,3469,2498,4288,31,32,919,1731,1815,2039,2206,1935,1727,1780,1896
377443,-17624,15572,-17627,15141,707,-279,-3587,6172,1802,3460,2373,4307,39,42,921,1731,1815,2039,2206,1935,1727,1780,1896
378445,-17556,15628,-17562,15206,353,132,-3653,6447,1757,2751,2068,4198,34,35,919,1731,1815,2039,2206,1935,1727,1780,1896
379445,-17480,15708,-17497,15271,240,-186,-3724,6738,1685,2275,1820,4149,33,42,923,1731,1815,2039,2206,1935,1727,1780,1896
380446,-17408,15760,-17432,15336,281,180,-3772,6974,1587,1832,1894,3958,31,26,924,1634,1732,1959,2091,2191,1931,1949,2114
381447,-17344,15812,-17367,15401,382,196,-3786,7062,1503,1738,1989,3495,45,25,923,1634,1732,1959,2091,2191,1931,1949,2114
382448,-17260,15872,-17302,15466,109,102,-3769,6986,1455,904,1662,3111,33,25,923,1634,1732,1959,2091,2191,1931,1949,2114
383449,-17196,15908,-17237,15531,360,436,-3757,6785,1433,385,1400,2525,39,32,924,1634,1732,1959,2091,2191,1931,1949,2114
384450,-17128,15976,-17172,15596,307,33,-3772,6671,1432,1116,1437,2808,50,36,922,1634,1732,1959,2091,2191,1931,1949,2114
385451,-17032,16016,-17107,15661,-81,413,-3804,6627,1442,1523,1599,2416,32,26,924,1634,1732,1959,2091,2191,1931,1949,2114
386452,-16976,16076,-17042,15726,430,169,-3840,6590,1462,1598,1492,2956,43,41,921,1598,1706,2000,2130,2362,2084,2018,2172
387453,-16900,16128,-16977,15791,167,285,-3896,6580,1507,1621,1045,3154,29,27,922,1598,1706,2000,2130,2362,2084,2018,2172
388454,-16832,16220,-16912,15856,263,-248,-4011,6636,1566,2057,1230,3505,44,33,923,1598,1706,2000,2130,2362,2084,2018,2172
389455,-16768,16264,-16847,15921,314,378,-4168,6764,1616,2654,1674,3846,43,30,923,1598,1706,2000,2130,2362,2084,2018,2172
390456,-16696,16328,-16782,15986,206,128,-4351,6915,1663,2288,1370,4035,35,39,922,1598,1706,2000,2130,2362,2084,2018,2172
391457,-16636,16400,-16717,16051,362,19,-4563,7083,1699,2299,1289,4815,42,41,924,1633,1733,2016,2135,2143,1887,1867,2010
392458,-16576,16464,-16652,16116,368,121,-4790,7195,1719,2406,1383,4214,48,31,924,1633,1733,2016,2135,2143,1887,1867,2010
393459,-16512,16540,-16587,16181,319,-43,-5035,7324,1708,1790,1374,4371,30,46,921,1633,1733,2016,2135,2143,1887,1867,2010
394460,-16448,16608,-16522,16246,320,54,-5266,7352,1674,1212,1510,3925,32,34,923,1633,1733,2016,2135,2143,1887,1867,2010
395461,-16384,16680,-16457,16311,321,-5,-5478,7235,1625,313,1245,3248,39,36,924,1633,1733,2016,2135,2143,1887,1867,2010
396462,-16312,16740,-16392,16376,213,151,-5650,6903,1558,-137,1040,2916,46,37,924,1633,1733,2016,2135,2143,1887,1867,2010
397463,-16232,16808,-16327,16441,95,47,-5786,6290,1449,-1225,1017,2403,35,40,924,1642,1733,1978,2072,2096,1840,1858,2049
398464,-16156,16880,-16262,16506,131,-12,-5879,5599,1332,-2804,1069,2673,37,49,925,1642,1733,1978,2072,2096,1840,1858,2049
399465,-16064,16964,-16197,16571,-102,-185,-5872,4791,1376,-3916,1832,2902,48,41,925,1642,1733,1978,2072,2096,1840,1858,2049
400466,-15976,17028,-16132,16636,-80,66,-5720,3818,1433,-4613,941,4805,43,42,920,1642,1733,1978,2072,2096,1840,1858,2049
401467,-15904,17112,-16067,16701,112,-207,-5375,2881,1468,-4456,154,7258,43,38,922,1642,1733,1978,2072,2096,1840,1858,2049
402468,-15832,17196,-16002,16766,103,-230,-4882,2061,1529,-2718,620,8358,30,49,924,1592,1739,1949,1987,2235,1878,1998,2311
403469,-15752,17292,-15937,16831,-16,-419,-4333,1381,1607,35,749,9247,40,38,924,1592,1739,1949,1987,2235,1878,1998,2311
404470,-15696,17360,-15872,16896,295,-73,-3863,861,1660,2166,961,9281,50,42,923,1592,1739,1949,1987,2235,1878,1998,2311
405471,-15608,17424,-15807,16961,-133,-22,-3565,507,1749,3004,1180,9529,35,46,923,1592,1739,1949,1987,2235,1878,1998,2311
406472,-15548,17496,-15742,17026,223,-130,-3447,334,1862,3932,2282,8791,38,46,918,1592,1739,1949,1987,2235,1878,1998,2311
407473,-15484,17580,-15677,17091,174,-303,-3433,364,1964,3679,2962,8756,49,36,923,1592,1739,1949,1987,2235,1878,1998,2311
408474,-15396,17660,-15612,17156,-154,-272,-3491,379,2062,3189,3261,7516,41,39,923,2078,2418,2427,2517,2009,1676,2046,2304
409475,-15360,17740,-15547,17221,531,-291,-3562,130,2147,2483,3382,6583,30,33,915,2078,2418,2427,2517,2009,1676,2046,2304
410476,-15300,17812,-15482,17286,237,-200,-3646,-427,2150,1105,3270,5879,48,33,918,2078,2418,2427,2517,2009,1676,2046,2304
411477,-15260,17876,-15417,17351,518,-98,-3732,-1250,2138,-859,2565,5103,45,46,923,2078,2418,2427,2517,2009,1676,2046,2304
412478,-15216,17932,-15352,17416,493,13,-3784,-2215,2126,-2255,2213,4752,40,33,922,2078,2418,2427,2517,2009,1676,2046,2304
413479,-15120,18012,-15287,17481,-194,-306,-3789,-3170,2119,-3296,1271,5109,50,48,923,3323,3630,3253,3487,1918,1667,1981,2143
414480,-15064,18068,-15222,17546,317,4,-3709,-4020,2127,-3632,171,6194,54,32,912,3323,3630,3253,3487,1918,1667,1981,2143
415481,-14980,18136,-15157,17611,-57,-149,-3516,-4720,2129,-3394,-772,7274,37,31,922,3323,3630,3253,3487,1918,1667,1981,2143
416482,-14896,18212,-15092,17676,-80,-263,-3228,-5255,2136,-3260,-2106,8545,51,41,924,3323,3630,3253,3487,1918,1667,1981,2143
417483,-14844,18268,-15027,17741,335,-2,-2884,-5652,2117,-2374,-2622,8940,53,42,922,3323,3630,3253,3487,1918,1667,1981,2143
418484,-14764,18288,-14962,17806,-33,503,-2546,-5890,2082,-1219,-2873,9493,54,28,923,3007,3071,2943,3019,1918,1667,1981,2143
419485,-14680,18288,-14897,17871,-106,831,-2216,-5968,2050,-927,-2737,9756,53,34,923,3007,3071,2943,3019,1992,1760,1900,2056
420486,-14596,18328,-14832,17936,-130,362,-1923,-5901,2026,-444,-2332,10251,56,31,916,3007,3071,2943,3019,1992,1760,1900,2056
421487,-14496,18408,-14767,18001,-372,-156,-1674,-5757,1981,452,-1453,9691,40,43,916,3007,3071,2943,3019,1992,1760,1900,2056
422488,-14432,18464,-14702,18066,79,155,-1465,-5604,1939,805,-738,9137,36,45,921,3007,3071,2943,3019,1992,1760,1900,2056
423489,-14368,18544,-14637,18131,80,-164,-1313,-5444,1918,1036,209,8469,37,37,925,3007,3071,2943,3019,1992,1760,1900,2056
424490,-14280,18620,-14572,18196,-248,-127,-1217,-5335,1881,718,1041,7131,40,31,924,2084,2112,2276,2496,2016,1862,1924,1921
425491,-14208,18668,-14507,18261,-56,243,-1168,-5172,1889,399,1545,6833,37,33,923,2084,2112,2276,2496,2016,1862,1924,1921
426492,-14144,18752,-14442,18326,45,-231,-1080,-4780,1929,1502,1534,7437,41,35,923,2084,2112,2276,2496,2016,1862,1924,1921
427493,-14068,18796,-14377,18391,-120,295,-907,-4277,1970,2449,1346,8104,47,31,923,2084,2112,2276,2496,2016,1862,1924,1921
428494,-14024,18844,-14312,18456,306,266,-747,-3746,1991,1790,1337,8505,34,40,919,2084,2112,2276,2496,2016,1862,1924,1921
429495,-13952,18888,-14247,18521,-53,342,-612,-3161,1990,1054,1150,8971,51,35,922,1754,1756,2004,2402,2092,2028,1972,1864
430496,-13860,18936,-14182,18586,-336,312,-520,-2645,1962,730,1118,8404,54,40,923,1754,1756,2004,2402,2092,2028,1972,1864
431497,-13800,18972,-14117,18651,71,498,-466,-2397,1915,29,963,7043,41,30,922,1754,1756,2004,2402,2092,2028,1972,1864
432498,-13716,19020,-14052,18716,-253,367,-452,-2350,1845,-1352,370,6375,51,34,923,1754,1756,2004,2402,2092,2028,1972,1864
433499,-13652,19056,-13987,18781,-1,553,-459,-2370,1785,-2593,-132,5442,34,39,921,1754,1756,2004,2402,2092,2028,1972,1864
434500,-13592,19108,-13922,18846,55,369,-464,-2351,1720,-2313,-383,4830,46,36,922,1754,1756,2004,2402,2092,2028,1972,1864
435501,-13516,19176,-13857,18911,-159,165,-439,-2234,1639,-1775,-1059,4918,30,26,923,1748,1731,2137,2600,2139,2048,1932,1900
436502,-13448,19232,-13792,18976,-63,326,-369,-1949,1575,-1343,-1711,5267,34,32,916,1748,1731,2137,2600,2139,2048,1932,1900
437503,-13376,19308,-13727,19041,-122,63,-263,-1423,1542,-802,-2357,5639,50,46,922,1748,1731,2137,2600,2139,2048,1932,1900
438504,-13320,19400,-13662,19106,89,-170,-147,-676,1476,655,-2573,6011,34,39,920,1748,1731,2137,2600,2139,2048,1932,1900
439505,-13260,19464,-13597,19171,45,181,-40,191,1418,1918,-2723,5444,31,46,923,1748,1731,2137,2600,2139,2048,1932,1900
440506,-13208,19548,-13532,19236,161,-92,24,1053,1355,2279,-2582,5138,48,33,925,1916,1970,2341,2601,2063,1872,1855,1922
441507,-13152,19624,-13467,19301,122,-7,35,1859,1288,2115,-2225,4597,28,39,924,1916,1970,2341,2601,2063,1872,1855,1922
442508,-13088,19672,-13402,19366,23,364,-33,2555,1234,1714,-1595,3807,27,44,925,1916,1970,2341,2601,2063,1872,1855,1922
443509,-13028,19732,-13337,19431,78,220,-162,3070,1185,1532,-803,3066,33,30,924,1916,1970,2341,2601,2063,1872,1855,1922
444510,-12972,19800,-13272,19496,139,116,-325,3357,1133,806,-220,2632,44,43,923,1916,1970,2341,2601,2063,1872,1855,1922
445511,-12904,19868,-13207,19561,-14,113,-504,3461,1087,366,263,2148,26,39,924,1916,1970,2341,2601,2063,1872,1855,1922
446512,-12860,19916,-13142,19626,311,383,-659,3471,1048,232,461,2153,30,39,925,1971,2015,2213,2437,1871,1689,1760,1790
447513,-12808,20000,-13077,19691,227,-90,-781,3412,1008,-225,845,2132,26,40,923,1971,2015,2213,2437,1871,1689,1760,1790
448514,-12744,20068,-13012,19756,78,107,-860,3359,983,-644,899,2437,27,44,924,1971,2015,2213,2437,1871,1689,1760,1790
449515,-12692,20136,-12748,20020,487,345,-904,3305,973,-428,1248,2503,42,41,925,1971,2015,2213,2437,1871,1689,1760,1790
450516,-12632,20216,-12683,20085,393,177,-881,3204,964,-278,1345,2417,33,28,921,1971,2015,2213,2437,1871,1689,1760,1790
451517,-12572,20276,-12618,20150,399,433,-816,3015,986,9,622,2273,28,32,922,1647,1689,1830,1996,1914,1716,1785,1867
452518,-12484,20340,-12553,20215,21,384,-641,2874,1004,49,150,2653,43,29,921,1647,1689,1830,1996,1914,1716,1785,1867
453519,-12408,20400,-12488,20280,158,440,-400,2898,982,314,64,3525,44,44,923,1647,1689,1830,1996,1914,1716,1785,1867
454520,-12344,20480,-12423,20345,309,172,-182,2874,978,1198,-670,2801,26,34,922,1647,1689,1830,1996,1914,1716,1785,1867
455521,-12288,20524,-12358,20410,420,647,-9,2694,1015,1822,-1070,2126,29,31,923,1647,1689,1830,1996,1914,1716,1785,1867
456522,-12208,20596,-12293,20475,102,289,121,2495,1058,1465,-982,1785,27,27,920,1647,1689,1830,1996,1914,1716,1785,1867
457523,-12136,20652,-12228,20540,193,500,239,2372,1076,1340,-1004,2194,31,37,923,1463,1568,1754,1881,1948,1711,1779,1914
458524,-12052,20704,-12163,20605,20,566,314,2300,1096,1649,-1170,1649,45,35,922,1463,1568,1754,1881,1948,1711,1779,1914
459525,-12004,20784,-12098,20670,490,197,330,2213,1095,2053,-1037,1412,41,32,922,1463,1568,1754,1881,1948,1711,1779,1914
460526,-11948,20840,-12033,20735,401,508,260,2025,1121,1320,-747,1101,27,34,922,1463,1568,1754,1881,1948,1711,1779,1914
461527,-11848,20928,-11968,20800,-192,80,173,1914,1126,1452,-563,1157,32,50,919,1463,1568,1754,1881,1948,1711,1779,1914
462528,-11796,21004,-11903,20865,424,217,92,1782,1084,1056,-614,103,44,42,913,1704,1850,2038,2190,1885,1653,1771,1901
463529,-11728,21068,-11838,20930,220,368,15,1518,1007,-153,-442,-260,45,39,921,1704,1850,2038,2190,1885,1653,1771,1901
464530,-11644,21156,-11773,20995,-3,40,-111,1255,958,-545,-647,-92,37,43,922,1704,1850,2038,2190,1885,1653,1771,1901
465531,-11592,21240,-11708,21060,413,67,-248,1009,909,-298,-623,-106,42,44,925,1704,1850,2038,2190,1885,1653,1771,1901
466532,-11512,21300,-11643,21125,45,373,-379,741,832,-470,-510,-179,47,34,923,1704,1850,2038,2190,1885,1653,1771,1901
467533,-11456,21368,-11578,21190,356,268,-489,493,744,-931,-509,241,43,41,924,1704,1850,2038,2190,1885,1653,1771,1901
468534,-11408,21444,-11513,21255,476,155,-566,260,674,-1154,-579,683,26,42,922,1990,2123,2245,2387,1890,1658,1798,1928
469535,-11340,21508,-11448,21320,223,306,-599,24,619,-959,-608,999,33,44,922,1990,2123,2245,2387,1890,1658,1798,1928
470536,-11292,21564,-11383,21385,493,417,-600,-251,575,-778,-635,1171,26,29,923,1990,2123,2245,2387,1890,1658,1798,1928
471537,-11236,21632,-11318,21450,404,263,-564,-494,540,-767,-610,1828,46,28,921,1990,2123,2245,2387,1890,1658,1798,1928
472538,-11172,21692,-11253,21515,306,369,-504,-755,530,-469,-815,1931,39,30,921,1990,2123,2245,2387,1890,1658,1798,1928
473539,-11116,21736,-11188,21580,417,595,-407,-1001,538,78,-881,2223,49,41,922,1789,1890,2000,2097,1955,1713,1819,1951
474540,-11084,21816,-11123,21645,757,127,-304,-1207,559,486,-895,2684,39,40,920,1789,1890,2000,2097,1955,1713,1819,1951
475541,-11000,21888,-11058,21710,84,218,-181,-1315,577,849,-803,3332,36,40,920,1789,1890,2000,2097,1955,1713,1819,1951
476542,-10948,21948,-10993,21775,500,374,-34,-1342,581,1364,-993,4108,39,32,923,1789,1890,2000,2097,1955,1713,1819,1951
477543,-10884,21992,-10928,21840,351,600,132,-1335,589,1501,-725,4556,50,35,921,1789,1890,2000,2097,1955,1713,1819,1951
478544,-10812,22040,-10863,21905,242,571,267,-1345,590,1518,-529,4585,34,39,919,1789,1890,2000,2097,1955,1713,1819,1951
479545,-10748,22096,-10798,21970,343,482,382,-1381,590,1224,-474,4470,39,39,920,1565,1670,1816,1949,1945,1727,1815,1906
480546,-10676,22140,-10733,22035,235,657,432,-1493,584,684,-272,4105,43,40,921,1565,1670,1816,1949,1945,1727,1815,1906
481547,-10616,22192,-10668,22100,391,573,447,-1652,584,542,-133,3705,47,33,920,1565,1670,1816,1949,1945,1727,1815,1906
482548,-10552,22256,-10603,22165,342,424,396,-1866,575,17,-130,2864,38,40,919,1565,1670,1816,1949,1945,1727,1815,1906
483549,-10484,22316,-10538,22230,289,480,307,-2049,529,-233,-171,2581,52,28,921,1565,1670,1816,1949,1945,1727,1815,1906
484550,-10420,22376,-10473,22295,340,486,222,-2129,465,-158,-570,3141,51,39,921,1701,1805,2011,2261,1963,1779,1861,1933
485551,-10348,22424,-10408,22360,231,656,146,-2113,413,-83,-879,2994,45,42,921,1701,1805,2011,2261,1963,1779,1861,1933
486552,-10268,22496,-10343,22425,113,348,111,-2062,374,-22,-1168,3470,36,41,921,1701,1805,2011,2261,1963,1779,1861,1933
487553,-10204,22572,-10278,22490,314,284,118,-1953,317,-331,-1569,4070,48,43,922,1701,1805,2011,2261,1963,1779,1861,1933
488554,-10160,22648,-10213,22555,590,271,156,-1776,262,-349,-2126,4520,29,42,923,1701,1805,2011,2261,1963,1779,1861,1933
489555,-10076,22704,-10148,22620,66,532,205,-1560,221,24,-2230,4829,46,40,921,1701,1805,2011,2261,1963,1779,1861,1933
490556,-10044,22768,-10083,22685,756,433,259,-1318,180,-165,-2254,5078,35,30,921,1987,2075,2324,2586,2065,1874,1932,2011
491557,-9976,22820,-10018,22750,302,599,311,-1070,151,-461,-2284,5269,35,41,919,1987,2075,2324,2586,2065,1874,1932,2011
492558,-9924,22896,-9953,22815,518,286,334,-868,129,-668,-2120,5309,33,43,919,1987,2075,2324,2586,2065,1874,1932,2011
493559,-9884,22956,-9888,22880,699,492,354,-688,112,-706,-2029,5578,25,34,920,1987,2075,2324,2586,2065,1874,1932,2011
494560,-9828,23036,-9823,22945,510,223,361,-524,94,-340,-1822,5880,29,46,918,1987,2075,2324,2586,2065,1874,1932,2011
495561,-9772,23104,-9758,23010,521,370,372,-314,100,-317,-1765,6440,29,45,919,2027,2087,2327,2604,2080,1902,1946,1970
496562,-9704,23164,-9693,23075,367,476,375,-88,98,70,-1486,6692,33,45,920,2027,2087,2327,2604,2080,1902,1946,1970
497563,-9656,23240,-9628,23140,638,262,392,134,88,258,-1295,6997,29,34,920,2027,2087,2327,2604,2080,1902,1946,1970
498564,-9624,23296,-9563,23205,878,523,406,310,116,153,-1202,7210,35,29,920,2027,2087,2327,2604,2080,1902,1946,1970
499565,-9556,23352,-9498,23270,424,534,432,462,139,282,-1076,7300,45,44,917,2027,2087,2327,2604,2080,1902,1946,1970
500566,-9504,23408,-9433,23335,640,545,467,592,142,502,-1029,7350,34,39,918,2027,2087,2327,2604,2080,1902,1946,1970
501567,-9452,23496,-9368,23400,656,117,510,694,146,803,-972,7261,40,41,918,1888,1918,2138,2441,2090,1936,1978,1988
502568,-9384,23552,-9303,23465,452,528,564,788,151,877,-1035,7106,46,34,919,1888,1918,2138,2441,2090,1936,1978,1988
503569,-9336,23596,-9238,23530,724,704,620,905,147,928,-1121,7160,31,42,920,1888,1918,2138,2441,2090,1936,1978,1988
504570,-9288,23672,-9173,23595,745,291,683,1000,149,1156,-1168,6807,27,38,917,1888,1918,2138,2441,2090,1936,1978,1988
505573,-9224,23736,-9108,23660,546,442,765,1055,155,1097,-1379,6676,28,31,918,1888,1918,2138,2441,2090,1936,1978,1988
506572,-9176,23788,-9043,23725,767,608,852,1110,148,919,-1644,6468,34,43,919,1820,1872,2112,2396,2184,1994,2031,2092
507573,-9108,23868,-8978,23790,513,239,924,1166,131,1068,-1756,6100,31,35,917,1820,1872,2112,2396,2184,1994,2031,2092
508574,-9052,23920,-8913,23855,674,605,981,1182,127,1011,-1868,5578,27,33,919,1820,1872,2112,2396,2184,1994,2031,2092
509575,-9004,23984,-8848,23920,795,456,1007,1180,120,516,-1986,5184,39,31,918,1820,1872,2112,2396,2184,1994,2031,2092
510576,-8944,24052,-8783,23985,651,403,1005,1181,105,529,-1953,4767,42,32,916,1820,1872,2112,2396,2184,1994,2031,2092
511577,-8884,24128,-8718,24050,657,289,982,1184,96,696,-2048,4476,44,45,918,1820,1872,2112,2396,2184,1994,2031,2092
512578,-8820,24200,-8653,24115,608,331,952,1181,96,624,-1972,4396,38,45,918,1937,2040,2273,2495,2165,1915,1992,2111
513579,-8768,24276,-8588,24180,774,266,911,1170,95,403,-1861,4419,47,32,919,1937,2040,2273,2495,2165,1915,1992,2111
514580,-8708,24352,-8523,24245,680,253,863,1144,93,257,-1834,4410,44,39,919,1937,2040,2273,2495,2165,1915,1992,2111
515581,-8644,24392,-8458,24310,632,733,813,1106,99,212,-1656,4562,39,31,919,1937,2040,2273,2495,2165,1915,1992,2111
516582,-8580,24456,-8393,24375,633,435,753,1054,100,137,-1501,4550,45,30,918,1937,2040,2273,2495,2165,1915,1992,2111
517583,-8524,24504,-8328,24440,744,655,697,998,95,311,-1399,4592,49,34,918,1977,2109,2258,2390,2048,1780,1893,2029
518584,-8440,24544,-8263,24505,371,786,637,915,94,418,-1225,4497,43,41,916,1977,2109,2258,2390,2048,1780,1893,2029
519585,-8384,24616,-8198,24570,732,377,587,843,86,391,-1107,4629,35,28,917,1977,2109,2258,2390,2048,1780,1893,2029
520586,-8312,24684,-8133,24635,524,424,545,787,67,626,-965,4694,46,32,917,1977,2109,2258,2390,2048,1780,1893,2029
521587,-8248,24748,-8068,24700,625,475,519,677,62,862,-839,4402,44,28,919,1977,2109,2258,2390,2048,1780,1893,2029
522588,-8180,24820,-8003,24765,572,366,518,560,60,800,-728,4746,44,43,919,1977,2109,2258,2390,2048,1780,1893,2029
523589,-8104,24880,-7938,24830,458,522,531,438,52,863,-525,4520,35,42,919,1807,1924,2053,2168,2031,1781,1883,2015
524590,-8060,24928,-7873,24895,884,693,561,316,31,936,-408,4505,37,41,920,1807,1924,2053,2168,2031,1781,1883,2015
525591,-7992,24996,-7808,24960,580,440,592,189,21,970,-421,4266,47,43,917,1807,1924,2053,2168,2031,1781,1883,2015
526592,-7936,25048,-7743,25025,741,655,635,65,27,974,-306,3984,32,31,917,1807,1924,2053,2168,2031,1781,1883,2015
527593,-7880,25116,-7678,25090,752,452,668,-104,33,1009,-151,3670,33,46,917,1807,1924,2053,2168,2031,1781,1883,2015
528594,-7812,25184,-7613,25155,598,448,705,-248,38,973,-90,3413,37,36,916,1678,1779,1965,2130,2113,1883,1942,2053
529595,-7744,25248,-7548,25220,595,499,721,-378,61,754,-80,3220,52,38,917,1678,1779,1965,2130,2113,1883,1942,2053
530596,-7676,25332,-7483,25285,591,226,725,-523,77,844,-60,2797,34,46,918,1678,1779,1965,2130,2113,1883,1942,2053
531597,-7620,25392,-7418,25350,752,532,726,-628,76,861,-177,2839,50,44,919,1678,1779,1965,2130,2113,1883,1942,2053
532598,-7556,25460,-7353,25415,653,429,709,-711,91,745,-227,2415,34,46,918,1678,1779,1965,2130,2113,1883,1942,2053
533599,-7476,25520,-7288,25480,435,535,687,-783,122,548,-173,2505,45,29,917,1678,1779,1965,2130,2113,1883,1942,2053
534600,-7428,25600,-7223,25545,856,266,647,-828,134,305,-131,2484,46,40,919,1743,1839,2069,2258,2110,1886,1918,2019
535601,-7360,25660,-7158,25610,603,522,597,-846,133,404,-242,2395,39,35,918,1743,1839,2069,2258,2110,1886,1918,2019
536602,-7296,25724,-7093,25675,654,474,533,-837,153,393,-280,2567,33,37,918,1743,1839,2069,2258,2110,1886,1918,2019
537603,-7248,25788,-7028,25740,875,475,472,-819,164,98,-246,2546,47,30,918,1743,1839,2069,2258,2110,1886,1918,2019
538604,-7188,25868,-6963,25805,731,257,410,-774,157,33,-257,2880,48,45,917,1743,1839,2069,2258,2110,1886,1918,2019
539605,-7128,25956,-6898,25870,737,129,344,-693,145,75,-264,3068,40,39,917,1800,1890,2116,2273,1996,1766,1808,1914
540606,-7060,25996,-6833,25935,634,759,281,-631,138,9,-171,3102,32,29,919,1800,1890,2116,2273,1996,1766,1808,1914
541607,-7016,26064,-6768,26000,959,405,228,-550,120,-224,-121,3435,40,31,918,1800,1890,2116,2273,1996,1766,1808,1914
542608,-6956,26120,-6703,26065,765,566,183,-456,97,-174,-23,3609,41,44,915,1800,1890,2116,2273,1996,1766,1808,1914
543609,-6888,26204,-6638,26130,662,193,148,-347,74,30,9,3747,39,43,916,1800,1890,2116,2273,1996,1766,1808,1914
544610,-6816,26264,-6573,26195,603,499,132,-259,54,34,150,3669,37,30,918,1800,1890,2116,2273,1996,1766,1808,1914
545611,-6756,26308,-6508,26260,759,725,138,-148,31,47,389,4011,33,42,919,1734,1820,2026,2168,1970,1753,1802,1906
546612,-6696,26356,-6443,26325,766,696,155,-58,48,-14,306,3463,49,40,915,1734,1820,2026,2168,1970,1753,1802,1906
547613,-6628,26436,-6378,26390,663,277,175,99,59,481,587,3876,48,37,914,1734,1820,2026,2168,1970,1753,1802,1906
548614,-6592,26508,-6313,26455,1098,369,215,251,38,334,839,3560,27,46,917,1734,1820,2026,2168,1970,1753,1802,1906
549615,-6532,26572,-6248,26520,804,470,251,316,8,-22,963,3060,29,45,917,1734,1820,2026,2168,1970,1753,1802,1906
550616,-6480,26644,-6183,26585,920,361,283,348,5,172,1114,3425,46,32,915,1678,1759,1987,2184,2037,1846,1876,1946
551617,-6416,26700,-6118,26650,771,572,277,299,28,82,1290,2841,39,46,916,1678,1759,1987,2184,2037,1846,1876,1946
552618,-6356,26772,-6053,26715,827,364,255,226,62,29,1420,2760,40,46,916,1678,1759,1987,2184,2037,1846,1876,1946
553619,-6312,26828,-5988,26780,1053,575,217,162,115,464,1207,2811,41,47,916,1678,1759,1987,2184,2037,1846,1876,1946
554620,-6256,26900,-5923,26845,914,366,208,145,173,433,1208,2986,46,41,915,1678,1759,1987,2184,2037,1846,1876,1946
555621,-6192,26952,-5858,26910,815,632,184,171,195,382,1125,2793,31,48,915,1678,1759,1987,2184,2037,1846,1876,1946
556622,-6148,27032,-5793,26975,1092,264,181,258,207,720,922,3298,45,36,915,1744,1809,2068,2292,2080,1892,1907,1991
557623,-6104,27112,-5728,27040,1117,245,193,364,211,1050,597,2980,29,37,915,1744,1809,2068,2292,2080,1892,1907,1991
558624,-6044,27188,-5663,27105,924,281,236,485,201,1147,319,3233,39,45,914,1744,1809,2068,2292,2080,1892,1907,1991
559625,-5988,27264,-5598,27170,985,268,282,626,197,1101,104,3279,32,43,915,1744,1809,2068,2292,2080,1892,1907,1991
560626,-5936,27320,-5533,27235,1050,529,332,751,173,966,175,3317,48,34,916,1744,1809,2068,2292,2080,1892,1907,1991
561627,-5860,27380,-5468,27300,737,485,392,851,148,554,249,3401,48,45,915,1800,1878,2133,2301,2023,1802,1826,1929
562628,-5808,27448,-5403,27365,1053,381,441,899,137,141,275,3556,31,43,915,1800,1878,2133,2301,2023,1802,1826,1929
563629,-5748,27520,-5338,27430,960,323,476,910,122,-246,384,3604,37,44,914,1800,1878,2133,2301,2023,1802,1826,1929
564630,-5700,27580,-5273,27495,1131,479,493,900,107,-541,684,3847,31,48,915,1800,1878,2133,2301,2023,1802,1826,1929
565631,-5640,27652,-5208,27560,987,320,484,880,92,-721,821,3760,36,41,914,1800,1878,2133,2301,2023,1802,1826,1929
566632,-5576,27712,-5143,27625,938,476,451,833,76,-688,979,3927,49,43,914,1800,1878,2133,2301,2023,1802,1826,1929
567633,-5524,27776,-5078,27690,1104,428,411,792,49,-701,1227,3875,31,35,915,1810,1904,2120,2284,1909,1694,1768,1864
568634,-5468,27820,-5013,27755,1065,703,372,759,37,-588,1435,3853,33,30,914,1810,1904,2120,2284,1909,1694,1768,1864
569635,-5412,27880,-4948,27820,1077,509,328,751,26,-380,1528,3955,46,40,913,1810,1904,2120,2284,1909,1694,1768,1864
570636,-5352,27936,-4883,27885,1033,570,297,777,21,-42,1525,3948,46,38,911,1810,1904,2120,2284,1909,1694,1768,1864
571637,-5296,28012,-4818,27950,1094,307,289,826,36,314,1541,4114,46,39,913,1810,1904,2120,2284,1909,1694,1768,1864
572638,-5244,28048,-4753,28015,1160,842,310,872,53,520,1460,3901,33,33,913,1823,1922,2106,2284,1956,1760,1848,1963
573639,-5188,28100,-4688,28080,1121,658,350,907,78,683,1429,3987,48,41,914,1823,1922,2106,2284,1956,1760,1848,1963
574640,-5128,28160,-4623,28145,1077,564,413,941,96,734,1343,3956,32,43,909,1823,1922,2106,2284,1956,1760,1848,1963
575641,-5064,28224,-4558,28210,1029,515,496,953,114,864,1109,3970,48,45,911,1823,1922,2106,2284,1956,1760,1848,1963
576642,-5004,28264,-4493,28275,1085,846,598,934,123,969,1111,3879,48,46,912,1823,1922,2106,2284,1956,1760,1848,1963
577643,-4952,28332,-4428,28340,1201,492,684,869,124,723,992,3715,48,39,913,1823,1922,2106,2284,1956,1760,1848,1963
578644,-4896,28388,-4363,28405,1162,653,776,775,122,666,911,3824,48,46,909,1815,1902,2129,2310,2098,1896,1932,2040
579645,-4836,28460,-4298,28470,1118,445,853,638,115,317,870,3529,32,44,911,1815,1902,2129,2310,2098,1896,1932,2040
580646,-4796,28504,-4233,28535,1400,820,922,507,94,100,867,3784,31,33,909,1815,1902,2129,2310,2098,1896,1932,2040
581647,-4740,28568,-4168,28600,1211,572,969,368,96,129,831,3667,33,37,912,1815,1902,2129,2310,2098,1896,1932,2040
582648,-4684,28628,-4103,28665,1222,628,1011,250,102,106,936,3925,34,41,906,1815,1902,2129,2310,2098,1896,1932,2040
583649,-4612,28680,-4038,28730,1013,744,1046,191,98,-74,866,4117,36,43,910,1843,1922,2175,2358,2062,1847,1880,1979
584650,-4560,28740,-3973,28795,1280,650,1054,140,80,26,875,4001,34,32,910,1843,1922,2175,2358,2062,1847,1880,1979
585651,-4512,28808,-3908,28860,1351,546,1050,103,84,-180,998,4265,48,44,911,1843,1922,2175,2358,2062,1847,1880,1979
586652,-4444,28872,-3843,28925,1097,597,1026,80,76,-215,1091,4335,38,33,909,1843,1922,2175,2358,2062,1847,1880,1979
587653,-4380,28916,-3778,28990,1148,873,1001,107,69,-36,1013,4563,40,31,909,1843,1922,2175,2358,2062,1847,1880,1979
588654,-4320,28988,-3713,29055,1204,514,964,123,78,-10,1182,4559,33,31,912,1843,1922,2175,2358,2062,1847,1880,1979
589655,-4268,29048,-3648,29120,1321,670,929,181,86,-208,1129,4955,49,46,909,1876,1970,2180,2346,1972,1754,1829,1942
590656,-4200,29108,-3583,29185,1118,676,888,249,89,-44,1046,4683,32,41,911,1876,1970,2180,2346,1972,1754,1829,1942
591657,-4136,29184,-3518,29250,1169,463,857,299,96,105,1155,4888,34,45,908,1876,1970,2180,2346,1972,1754,1829,1942
592658,-4084,29232,-3453,29315,1335,834,835,337,109,-176,1227,4963,34,32,911,1876,1970,2180,2346,1972,1754,1829,1942
593659,-4024,29292,-3388,29380,1242,690,817,377,111,-417,1117,4898,32,38,912,1876,1970,2180,2346,1972,1754,1829,1942
594660,-3952,29352,-3323,29445,1083,696,815,396,112,-147,1097,4822,48,37,907,1854,1956,2157,2315,2035,1823,1892,2022
595661,-3904,29424,-3258,29510,1404,537,828,388,113,-112,1095,4896,40,36,909,1854,1956,2157,2315,2035,1823,1892,2022
596662,-3840,29496,-3193,29575,1205,529,848,370,109,-274,939,4626,45,48,911,1854,1956,2157,2315,2035,1823,1892,2022
597663,-3784,29560,-3128,29640,1317,630,882,327,99,-210,986,4551,50,48,907,1854,1956,2157,2315,2035,1823,1892,2022
598664,-3720,29612,-3063,29705,1219,796,917,278,91,-44,1011,4490,33,43,910,1854,1956,2157,2315,2035,1823,1892,2022
599665,-3660,29680,-2998,29770,1275,592,963,234,93,-43,970,4524,41,40,909,1854,1956,2157,2315,2035,1823,1892,2022
600666,-3620,29736,-2933,29835,1555,753,1008,201,88,1,994,4421,45,37,908,1814,1904,2152,2322,2185,1969,1985,2106
601667,-3564,29812,-2868,29900,1367,490,1042,183,93,239,1058,4539,45,42,909,1814,1904,2152,2322,2185,1969,1985,2106
602668,-3512,29880,-2803,29965,1433,586,1066,174,104,402,971,4267,45,40,904,1814,1904,2152,2322,2185,1969,1985,2106
603669,-3464,29932,-2738,30030,1504,803,1079,173,100,488,1085,4329,41,40,909,1814,1904,2152,2322,2185,1969,1985,2106
604670,-3400,30012,-2673,30095,1305,435,1069,174,102,373,1045,4323,32,51,908,1814,1904,2152,2322,2185,1969,1985,2106
605671,-3348,30068,-2608,30160,1472,746,1050,194,109,368,1180,4403,36,37,905,1821,1898,2169,2355,2170,1953,1958,2058
606672,-3276,30136,-2543,30225,1213,592,1019,201,114,276,1292,4413,51,35,910,1821,1898,2169,2355,2170,1953,1958,2058
607673,-3212,30204,-2478,30290,1314,588,976,216,103,336,1398,4500,54,36,906,1821,1898,2169,2355,2170,1953,1958,2058
608674,-3148,30276,-2413,30355,1316,530,924,182,93,97,1397,4305,35,39,910,1821,1898,2169,2355,2170,1953,1958,2058
609675,-3092,30328,-2348,30420,1428,796,865,158,76,-220,1475,4649,36,47,909,1821,1898,2169,2355,2170,1953,1958,2058
610676,-2996,30412,-2283,30485,890,373,802,156,73,-264,1256,4719,43,47,910,1821,1898,2169,2355,2170,1953,1958,2058
611677,-2948,30460,-2218,30550,1511,843,732,142,60,-77,1348,4586,37,46,906,1820,1901,2146,2314,2065,1848,1879,1993
612678,-2872,30536,-2153,30615,1148,480,681,135,43,-376,1411,4715,40,48,916,1820,1901,2146,2314,2065,1848,1879,1993
613679,-2800,30608,-2088,30680,1190,521,628,143,37,-370,1174,4786,58,43,904,1820,1901,2146,2314,2065,1848,1879,1993
614680,-2732,30692,-2023,30745,1236,348,583,175,17,-167,1209,4690,45,51,911,1820,1901,2146,2314,2065,1848,1879,1993
615681,-2672,30760,-1958,30810,1342,545,542,223,1,-193,991,4688,54,51,910,1820,1901,2146,2314,2065,1848,1879,1993
616682,-2596,30828,-1893,30875,1130,541,518,276,-10,-155,968,4698,45,39,912,1789,1893,2125,2258,2077,1847,1894,2048
617683,-2528,30880,-1828,30940,1226,757,502,305,-15,-5,937,4344,37,45,909,1789,1893,2125,2258,2077,1847,1894,2048
618684,-2448,30956,-1763,31005,1058,443,489,336,-27,32,1068,4492,39,44,911,1789,1893,2125,2258,2077,1847,1894,2048
619685,-2392,31028,-1698,31070,1369,485,480,385,-48,20,1080,4304,49,43,909,1789,1893,2125,2258,2077,1847,1894,2048
620686,-2320,31112,-1633,31135,1161,312,462,443,-57,59,1042,4248,41,58,914,1789,1893,2125,2258,2077,1847,1894,2048
621687,-2268,31164,-1568,31200,1427,727,456,467,-78,281,1188,3927,43,53,910,1789,1893,2125,2258,2077,1847,1894,2048
622688,-2200,31240,-1503,31265,1223,414,429,452,-104,120,1270,3771,51,48,913,1768,1880,2123,2259,2151,1920,1947,2082
623689,-2124,31320,-1438,31330,1110,346,388,396,-127,-29,1512,3527,49,47,907,1768,1880,2123,2259,2151,1920,1947,2082
624690,-2060,31400,-1373,31395,1262,327,342,360,-170,-33,1519,3587,34,48,911,1768,1880,2123,2259,2151,1920,1947,2082
625691,-1992,31484,-1308,31460,1208,254,289,326,-220,233,1619,3558,33,52,913,1768,1880,2123,2259,2151,1920,1947,2082
626692,-1944,31560,-1243,31525,1479,341,246,287,-240,290,1634,3460,45,49,912,1768,1880,2123,2259,2151,1920,1947,2082
627693,-1876,31632,-1178,31590,1226,382,204,225,-253,120,1779,3500,48,53,913,1773,1860,2111,2276,2151,1931,1939,2045
628694,-1820,31696,-1113,31655,1388,483,168,189,-274,116,1783,3659,50,38,909,1773,1860,2111,2276,2151,1931,1939,2045
629695,-1760,31760,-1048,31720,1344,485,133,159,-293,212,1730,3630,54,53,912,1773,1860,2111,2276,2151,1931,1939,2045
630696,-1688,31852,-983,31785,1185,102,104,154,-305,348,1700,3866,41,53,909,1773,1860,2111,2276,2151,1931,1939,2045
631697,-1612,31908,-918,31850,1123,563,66,159,-311,298,1467,3915,55,38,909,1773,1860,2111,2276,2151,1931,1939,2045
632698,-1556,31984,-853,31915,1384,299,36,173,-325,394,1415,3924,48,46,913,1773,1860,2111,2276,2151,1931,1939,2045
633699,-1480,32032,-788,31980,1120,670,2,190,-332,420,1254,3879,54,41,911,1738,1818,2071,2230,2085,1869,1880,1994
634700,-1412,32108,-723,32045,1217,307,-29,219,-353,417,1213,3998,38,49,910,1738,1818,2071,2230,2085,1869,1880,1994
635701,-1304,32204,-658,32110,665,19,-43,264,-375,366,998,4168,37,41,911,1738,1818,2071,2230,2085,1869,1880,1994
636702,-1208,32260,-593,32175,777,530,-55,359,-401,-825,1154,4218,38,45,913,1738,1818,2071,2230,2085,1869,1880,1994
637703,-1160,32324,-528,32240,1398,431,-60,433,-460,-124,681,4163,35,48,920,1738,1818,2071,2230,2085,1869,1880,1994
638704,-1108,32392,-463,32305,1364,377,-144,472,-359,2284,-1102,4649,42,43,916,1725,1823,2075,2223,2044,1827,1854,1980
639705,-1028,32456,-398,32370,997,429,-320,482,-238,1575,675,3259,47,49,910,1725,1823,2075,2223,2044,1827,1854,1980
640706,-948,32540,-333,32435,978,155,-482,329,-291,-1383,1901,2374,51,48,910,1725,1823,2075,2223,2044,1827,1854,1980
641707,-904,32616,-268,32500,1454,242,-558,219,-405,-2108,1262,3834,45,39,914,1725,1823,2075,2223,2044,1827,1854,1980
642708,-792,32692,-203,32565,546,227,-561,318,-432,32,757,4471,38,50,916,1725,1823,2075,2223,2044,1827,1854,1980
643709,-732,32752,-138,32630,1203,434,-526,471,-437,1679,1081,3579,41,50,910,1725,1823,2075,2223,2044,1827,1854,1980
644710,-668,32808,-73,32695,1155,495,-528,524,-442,592,1108,2986,55,40,921,1757,1860,2100,2245,2115,1881,1922,2058
645711,-596,32904,-8,32760,1046,-43,-563,469,-486,-781,1212,2898,41,49,912,1757,1860,2100,2245,2115,1881,1922,2058
646712,-516,32956,57,32825,928,523,-618,404,-544,-727,1253,2920,58,37,912,1757,1860,2100,2245,2115,1881,1922,2058
647713,-448,33024,122,32890,1074,319,-657,388,-614,454,1459,3138,46,49,916,1757,1860,2100,2245,2115,1881,1922,2058
648714,-364,33092,187,32955,852,315,-670,448,-660,892,1434,3391,50,51,913,1757,1860,2100,2245,2115,1881,1922,2058
649715,-304,33164,252,33020,1158,257,-660,536,-688,513,1384,3672,58,50,913,1751,1852,2088,2236,2154,1913,1940,2057
650716,-220,33228,317,33085,835,358,-632,603,-703,441,1385,3442,45,40,917,1751,1852,2088,2236,2154,1913,1940,2057
651717,-156,33284,382,33150,1086,469,-609,640,-715,588,1296,3525,58,49,914,1751,1852,2088,2236,2154,1913,1940,2057
652718,-72,33352,447,33215,813,315,-604,646,-721,592,1342,3368,42,39,917,1751,1852,2088,2236,2154,1913,1940,2057
653719,20,33436,512,33280,681,92,-624,627,-721,307,1265,3501,39,39,913,1751,1852,2088,2236,2154,1913,1940,2057
654720,88,33500,577,33345,977,343,-647,613,-715,283,1163,3491,49,47,917,1724,1811,2051,2221,2049,1838,1854,1945
655721,156,33564,642,33410,974,345,-674,605,-699,384,942,3477,36,41,919,1724,1811,2051,2221,2049,1838,1854,1945
656722,220,33640,707,33475,1025,181,-690,596,-679,210,971,3668,50,36,915,1724,1811,2051,2221,2049,1838,1854,1945
657723,292,33696,772,33540,916,442,-694,538,-671,11,1101,3267,36,50,915,1724,1811,2051,2221,2049,1838,1854,1945
658724,356,33768,837,33605,1019,234,-716,503,-657,-153,834,3726,37,44,916,1724,1811,2051,2221,2049,1838,1854,1945
659725,412,33824,902,33670,1130,444,-742,507,-644,217,713,3676,47,51,916,1724,1811,2051,2221,2049,1838,1854,1945
660726,496,33888,967,33735,756,345,-780,514,-646,327,867,3582,35,43,916,1744,1822,2072,2251,1960,1766,1800,1901
661727,564,33948,1032,33800,953,401,-809,500,-671,179,920,3447,37,44,913,1744,1822,2072,2251,1960,1766,1800,1901
662728,636,34024,1097,33865,894,187,-837,458,-698,-63,934,3246,39,50,917,1744,1822,2072,2251,1960,1766,1800,1901
663729,704,34084,1162,33930,941,394,-857,452,-727,-153,897,3229,37,49,915,1744,1822,2072,2251,1960,1766,1800,1901
664730,756,34140,1227,33995,1157,454,-888,477,-746,157,751,3267,35,35,917,1744,1822,2072,2251,1960,1766,1800,1901
665731,832,34204,1292,34060,844,356,-905,519,-775,411,942,3335,34,37,914,1794,1882,2117,2282,1988,1782,1841,1962
666732,904,34268,1357,34125,885,357,-909,541,-826,171,1085,3065,48,48,911,1794,1882,2117,2282,1988,1782,1841,1962
667733,960,34340,1422,34190,1096,248,-902,530,-878,-130,1159,3070,39,50,917,1794,1882,2117,2282,1988,1782,1841,1962
668734,1028,34412,1487,34255,943,240,-879,545,-913,-72,1191,3162,34,39,916,1794,1882,2117,2282,1988,1782,1841,1962
669735,1116,34476,1552,34320,665,341,-861,580,-939,207,1099,3134,39,45,914,1794,1882,2117,2282,1988,1782,1841,1962
670736,1172,34540,1617,34385,1077,342,-823,618,-961,208,1184,3230,54,45,916,1794,1882,2117,2282,1988,1782,1841,1962
671737,1260,34600,1682,34450,649,398,-793,614,-978,-54,1255,2886,34,42,919,1796,1894,2106,2262,2053,1825,1887,2003
672738,1320,34676,1747,34515,1005,185,-753,578,-995,-209,1308,3081,54,36,914,1796,1894,2106,2262,2053,1825,1887,2003
673739,1400,34752,1812,34580,736,172,-714,534,-1012,-304,1306,3078,55,53,918,1796,1894,2106,2262,2053,1825,1887,2003
674740,1472,34820,1877,34645,828,268,-676,531,-1015,-186,1088,3292,50,36,916,1796,1894,2106,2262,2053,1825,1887,2003
675741,1552,34884,1942,34710,710,319,-635,509,-997,50,1115,3115,54,43,919,1796,1894,2106,2262,2053,1825,1887,2003
676742,1620,34952,2007,34775,857,264,-592,476,-982,-144,1295,3302,49,49,918,1764,1858,2069,2241,2013,1795,1843,1935
677743,1696,35032,2072,34840,743,96,-564,411,-969,-225,1235,3152,45,42,919,1764,1858,2069,2241,2013,1795,1843,1935
678744,1776,35096,2137,34905,675,297,-534,348,-948,-264,974,3421,41,50,917,1764,1858,2069,2241,2013,1795,1843,1935
679745,1860,35160,2202,34970,602,299,-518,314,-932,100,940,3441,54,35,919,1764,1858,2069,2241,2013,1795,1843,1935
680748,1936,35228,2267,35035,689,245,-494,271,-924,140,874,3318,44,34,919,1764,1858,2069,2241,2013,1795,1843,1935
681747,2012,35300,2332,35100,675,186,-485,232,-923,-88,830,3440,42,37,920,1764,1858,2069,2241,2013,1795,1843,1935
682748,2092,35356,2397,35165,607,397,-490,207,-931,127,662,3451,44,52,918,1765,1844,2068,2252,1936,1740,1789,1880
683749,2168,35420,2462,35230,643,299,-495,182,-952,239,662,3329,42,45,918,1765,1844,2068,2252,1936,1740,1789,1880
684750,2224,35492,2527,35295,905,190,-495,172,-958,101,552,3383,49,37,919,1765,1844,2068,2252,1936,1740,1789,1880
685751,2312,35548,2592,35360,477,401,-506,169,-970,196,656,3409,38,51,919,1765,1844,2068,2252,1936,1740,1789,1880
686752,2396,35636,2657,35425,504,-27,-519,161,-998,124,563,3250,55,40,917,1765,1844,2068,2252,1936,1740,1789,1880
687753,2480,35716,2722,35490,481,55,-529,146,-1016,14,583,3263,57,39,920,1803,1875,2103,2283,1943,1748,1810,1922
688754,2540,35796,2787,35555,787,36,-527,136,-1034,-68,591,3319,42,39,922,1803,1875,2103,2283,1943,1748,1810,1922
689755,2624,35864,2852,35620,464,182,-517,102,-1047,-238,418,3070,50,55,922,1803,1875,2103,2283,1943,1748,1810,1922
690756,2704,35940,2917,35685,496,68,-517,91,-1054,-353,540,3168,52,52,920,1803,1875,2103,2283,1943,1748,1810,1922
691757,2776,36016,2982,35750,587,55,-517,94,-1055,-154,670,3130,54,52,922,1803,1875,2103,2283,1943,1748,1810,1922
692758,2860,36108,3047,35815,414,-178,-495,84,-1043,-377,774,3111,44,50,922,1803,1875,2103,2283,1943,1748,1810,1922
693759,2940,36188,3112,35880,445,-46,-482,68,-1032,-500,712,3072,54,36,921,1808,1896,2110,2272,2030,1811,1879,2000
694760,3016,36268,3177,35945,482,-65,-457,52,-1011,-554,736,2948,55,44,922,1808,1896,2110,2272,2030,1811,1879,2000
695761,3104,36332,3242,36010,304,136,-435,36,-991,-570,718,2959,58,49,923,1808,1896,2110,2272,2030,1811,1879,2000
696762,3180,36392,3307,36075,442,193,-406,29,-953,-574,881,3163,56,35,922,1808,1896,2110,2272,2030,1811,1879,2000
697763,3272,36456,3372,36140,209,144,-375,25,-932,-455,1165,3232,41,45,923,1808,1896,2110,2272,2030,1811,1879,2000
698764,3356,36516,3437,36205,285,199,-350,15,-907,-574,733,3211,36,37,922,1772,1868,2072,2232,2064,1832,1888,1997
699765,3440,36580,3636,36404,426,314,-329,31,-883,-277,662,3538,53,44,922,1772,1868,2072,2232,2064,1832,1888,1997
700766,3512,36648,3701,36469,567,260,-319,33,-869,-136,750,3316,39,45,922,1772,1868,2072,2232,2064,1832,1888,1997
701767,3604,36708,3766,36534,284,366,-308,21,-863,-145,681,3576,41,41,921,1772,1868,2072,2232,2064,1832,1888,1997
702768,3680,36796,3831,36599,471,-12,-307,8,-866,-119,546,3583,48,48,920,1772,1868,2072,2232,2064,1832,1888,1997
703769,3756,36864,3896,36664,457,234,-323,-20,-885,-113,433,3564,45,39,922,1772,1868,2072,2232,2064,1832,1888,1997
704770,3832,36924,3961,36729,444,340,-334,-41,-902,-45,200,3805,56,56,922,1737,1819,2037,2205,2012,1792,1834,1936
705771,3928,37008,4026,36794,156,17,-328,-49,-896,-32,346,3968,49,45,921,1737,1819,2037,2205,2012,1792,1834,1936
706772,4024,37108,4091,36859,118,-225,-324,-81,-883,-113,339,3694,55,54,921,1737,1819,2037,2205,2012,1792,1834,1936
707773,4120,37184,4156,36924,80,61,-334,-99,-875,-385,41,3785,56,38,924,1737,1819,2037,2205,2012,1792,1834,1936
708774,4196,37260,4221,36989,317,48,-350,-102,-856,-13,-95,3845,45,52,923,1737,1819,2037,2205,2012,1792,1834,1936
709775,4292,37352,4286,37054,29,-186,-375,-118,-820,124,68,3471,40,55,925,1760,1834,2068,2248,1992,1785,1834,1945
710776,4368,37404,4351,37119,266,330,-405,-137,-797,-413,369,3672,52,50,924,1760,1834,2068,2248,1992,1785,1834,1945
711777,4460,37484,4416,37184,33,-39,-444,-146,-799,-487,138,3528,45,43,924,1760,1834,2068,2248,1992,1785,1834,1945
712778,4528,37552,4481,37249,329,108,-472,-147,-765,-334,95,3517,39,51,922,1760,1834,2068,2248,1992,1785,1834,1945
713779,4620,37620,4546,37314,-4,104,-488,-143,-711,-157,58,3459,51,45,925,1760,1834,2068,2248,1992,1785,1834,1945
714780,4704,37696,4611,37379,73,-9,-501,-142,-687,-290,266,3536,52,55,923,1760,1834,2068,2248,1992,1785,1834,1945
715781,4780,37768,4676,37444,160,32,-512,-158,-667,-666,302,3521,49,42,925,1803,1887,2115,2289,2052,1834,1896,2019
716782,4848,37852,4741,37509,256,-141,-541,-183,-650,-638,272,3282,32,46,923,1803,1887,2115,2289,2052,1834,1896,2019
717783,4936,37928,4806,37574,-22,-56,-567,-176,-622,-417,209,3620,37,40,923,1803,1887,2115,2289,2052,1834,1896,2019
718784,4988,38012,4871,37639,444,-179,-582,-171,-607,-261,306,3518,40,52,923,1803,1887,2115,2289,2052,1834,1896,2019
719785,5112,38088,4936,37704,-528,-92,-575,-170,-601,-590,485,3709,47,44,925,1803,1887,2115,2289,2052,1834,1896,2019
720786,5192,38156,5001,37769,3,4,-580,-192,-592,-680,264,3567,46,53,922,1801,1896,2104,2264,2112,1867,1928,2054
721787,5284,38236,5066,37834,-180,-164,-573,-208,-588,-373,316,3681,47,43,925,1801,1896,2104,2264,2112,1867,1928,2054
722788,5384,38316,5131,37899,-322,-183,-562,-172,-582,-266,318,3914,52,53,926,1801,1896,2104,2264,2112,1867,1928,2054
723789,5460,38396,5196,37964,-37,-201,-549,-164,-582,-227,339,3844,47,42,913,1801,1896,2104,2264,2112,1867,1928,2054
724790,5536,38468,5261,38029,-50,-110,-537,-170,-587,-330,225,3981,41,41,923,1801,1896,2104,2264,2112,1867,1928,2054
725791,5652,38548,5326,38094,-612,-229,-542,-150,-596,-138,77,4105,39,51,924,1801,1896,2104,2264,2112,1867,1928,2054
726792,5720,38608,5391,38159,-16,27,-552,-142,-593,-132,2,4148,43,40,925,1752,1843,2044,2199,2079,1835,1886,1999
727793,5812,38676,5456,38224,-349,-76,-553,-145,-578,-178,129,4199,31,36,924,1752,1843,2044,2199,2079,1835,1886,1999
728794,5892,38752,5521,38289,-217,-190,-564,-131,-560,-104,77,4184,45,53,925,1752,1843,2044,2199,2079,1835,1886,1999
729795,5956,38828,5586,38354,-16,-203,-576,-113,-535,-184,-78,4226,36,50,925,1752,1843,2044,2199,2079,1835,1886,1999
730797,6028,38892,5651,38419,-125,-53,-591,-112,-511,-376,-105,4188,46,34,924,1752,1843,2044,2199,2079,1835,1886,1999
731797,6112,38968,5716,38484,-299,-216,-599,-133,-483,-85,-174,4001,49,46,925,1748,1832,2054,2228,2024,1808,1856,1959
732798,6184,39032,5781,38549,-157,-65,-622,-173,-448,-210,-35,4044,34,39,918,1748,1832,2054,2228,2024,1808,1856,1959
733799,6260,39112,5846,38614,-221,-283,-645,-200,-415,-658,-226,3795,46,50,923,1748,1832,2054,2228,2024,1808,1856,1959
734800,6328,39168,5911,38679,-125,28,-684,-179,-403,-131,-242,3713,32,47,923,1748,1832,2054,2228,2024,1808,1856,1959
735801,6412,39236,5976,38744,-348,-127,-731,-177,-382,31,-245,3326,47,38,909,1748,1832,2054,2228,2024,1808,1856,1959
736802,6492,39300,6041,38809,-316,-76,-775,-170,-368,-134,-206,3397,41,37,918,1748,1832,2054,2228,2024,1808,1856,1959
737803,6564,39356,6106,38874,-226,35,-816,-155,-367,-208,-231,3477,51,50,925,1793,1874,2106,2296,2023,1812,1883,1992
738804,6644,39424,6171,38939,-344,-119,-841,-122,-372,64,-287,3390,52,36,925,1793,1874,2106,2296,2023,1812,1883,1992
739805,6716,39492,6236,39004,-252,-122,-842,-91,-377,62,-227,3371,34,36,925,1793,1874,2106,2296,2023,1812,1883,1992
740806,6808,39564,6301,39069,-535,-182,-842,-63,-381,-248,-187,3426,38,46,924,1793,1874,2106,2296,2023,1812,1883,1992
741807,6888,39636,6366,39134,-404,-190,-827,-40,-369,-424,-102,3724,53,43,925,1793,1874,2106,2296,2023,1812,1883,1992
742808,6976,39700,6431,39199,-533,-89,-787,-30,-388,27,-253,3580,45,42,925,1802,1920,2098,2274,2074,1844,1900,2008
743809,7056,39772,6496,39264,-451,-198,-745,-57,-404,-20,-128,4023,42,41,924,1802,1920,2098,2274,2074,1844,1900,2008
744810,7132,39848,6561,39329,-415,-261,-705,-89,-428,-265,-242,3891,41,42,925,1802,1920,2098,2274,2074,1844,1900,2008
745811,7212,39932,6626,39394,-483,-385,-666,-85,-429,-401,-206,3916,38,50,925,1802,1920,2098,2274,2074,1844,1900,2008
746812,7312,40008,6691,39459,-776,-299,-644,-48,-434,-29,-239,4384,34,48,924,1802,1920,2098,2274,2074,1844,1900,2008
747813,7384,40096,6756,39524,-435,-477,-616,-19,-435,-328,-357,4027,51,35,923,1802,1920,2098,2274,2074,1844,1900,2008
748814,7468,40140,6821,39589,-608,99,-608,15,-435,-248,-310,4191,50,44,923,1761,1852,2051,2229,2023,1791,1861,1957
749815,7552,40212,6886,39654,-631,-260,-596,39,-430,116,-177,4008,53,48,922,1761,1852,2051,2229,2023,1791,1861,1957
750816,7636,40276,6951,39719,-655,-159,-571,57,-413,316,-160,4013,46,38,924,1761,1852,2051,2229,2023,1791,1861,1957
751817,7732,40348,7016,39784,-844,-268,-546,64,-394,-30,-359,3946,42,41,923,1761,1852,2051,2229,2023,1791,1861,1957
752818,7788,40400,7081,39849,-333,-2,-543,82,-383,275,-198,3815,51,37,924,1761,1852,2051,2229,2023,1791,1861,1957
753819,7904,40464,7146,39914,-1145,-151,-536,101,-349,137,-207,4093,57,35,915,1781,1871,2070,2268,1968,1760,1836,1924
754820,8000,40536,7211,39979,-934,-259,-543,181,-313,51,-76,3720,43,39,926,1781,1871,2070,2268,1968,1760,1836,1924
755821,8068,40604,7276,40044,-587,-214,-555,249,-303,625,-152,3467,46,49,925,1781,1871,2070,2268,1968,1760,1836,1924
756822,8172,40664,7341,40109,-1085,-108,-546,264,-322,-100,-663,3337,59,42,924,1781,1871,2070,2268,1968,1760,1836,1924
757823,8284,40736,7406,40174,-1242,-267,-574,354,-334,-9,-466,2957,60,49,915,1781,1871,2070,2268,1968,1760,1836,1924
758824,8360,40800,7471,40239,-807,-165,-625,362,-351,833,-435,2654,50,35,925,1781,1871,2070,2268,1968,1760,1836,1924
759825,8484,40864,7536,40304,-1479,-165,-638,307,-379,254,-720,3169,60,46,924,1829,1906,2116,2319,1978,1761,1838,1928
760826,8572,40920,7601,40369,-1057,-54,-612,254,-419,-349,-923,3087,47,43,924,1829,1906,2116,2319,1978,1761,1838,1928
761827,8652,40976,7666,40434,-976,-43,-553,162,-446,-150,-972,3304,61,39,920,1829,1906,2116,2319,1978,1761,1838,1928
762828,8748,41044,7731,40499,-1214,-197,-475,73,-443,-265,-877,3365,47,43,925,1829,1906,2116,2319,1978,1761,1838,1928
763829,8844,41112,7796,40564,-1253,-200,-415,-1,-455,-370,-755,3617,46,47,925,1829,1906,2116,2319,1978,1761,1838,1928
764830,8960,41196,7861,40629,-1565,-425,-347,-19,-472,131,-720,3785,60,52,925,1785,1853,2063,2252,2012,1795,1851,1949
765831,9056,41268,7926,40694,-1353,-283,-289,-68,-480,215,-552,3369,49,45,922,1785,1853,2063,2252,2012,1795,1851,1949
766832,9160,41340,7991,40759,-1502,-292,-233,9,-458,390,-563,4225,66,49,922,1785,1853,2063,2252,2012,1795,1851,1949
767833,9280,41408,8056,40824,-1769,-245,-217,130,-419,1151,-482,3751,57,37,922,1785,1853,2063,2252,2012,1795,1851,1949
768834,9384,41460,8121,40889,-1617,-31,-207,242,-391,690,-367,3674,47,50,922,1785,1853,2063,2252,2012,1795,1851,1949
769835,9488,41540,8186,40954,-1665,-399,-202,344,-379,460,-347,3868,60,47,922,1785,1853,2063,2252,2012,1795,1851,1949
770836,9624,41604,8251,41019,-2153,-198,-209,372,-345,286,-339,3648,55,52,925,1747,1840,2026,2207,1983,1759,1850,1938
771837,9728,41664,8316,41084,-1800,-142,-205,389,-304,350,-337,3564,55,36,923,1747,1840,2026,2207,1983,1759,1850,1938
772838,9848,41728,8381,41149,-2068,-190,-201,377,-272,241,-390,3479,58,35,924,1747,1840,2026,2207,1983,1759,1850,1938
773839,9960,41796,8446,41214,-2026,-245,-177,340,-263,-134,-555,3463,53,38,923,1747,1840,2026,2207,1983,1759,1850,1938
774840,10064,41848,8511,41279,-1974,-29,-164,268,-255,67,-587,3379,66,51,924,1747,1840,2026,2207,1983,1759,1850,1938
775841,10188,41904,8576,41344,-2297,-68,-142,197,-252,-196,-576,3478,57,43,924,1773,1865,2045,2241,1979,1761,1850,1939
776842,10308,41968,8641,41409,-2314,-167,-119,149,-258,-361,-674,3430,71,52,926,1773,1865,2045,2241,1979,1761,1850,1939
777843,10420,42048,8706,41474,-2273,-386,-83,126,-302,59,-843,3371,66,39,924,1773,1865,2045,2241,1979,1761,1850,1939
778844,10552,42100,8771,41539,-2606,-20,-53,68,-343,-123,-1213,3235,63,40,925,1773,1865,2045,2241,1979,1761,1850,1939
779845,10668,42188,8836,41604,-2468,-498,-31,-40,-385,244,-1103,3249,62,38,923,1773,1865,2045,2241,1979,1761,1850,1939
780846,10800,42248,8901,41669,-2751,-142,-35,-161,-414,228,-1289,3147,73,43,925,1773,1865,2045,2241,1979,1761,1850,1939
781847,10920,42300,8966,41734,-2669,-26,-72,-238,-456,164,-1258,3290,72,40,921,1814,1897,2100,2294,1997,1778,1807,1954
782848,11052,42360,9031,41799,-2901,-121,-117,-284,-493,142,-1225,3446,63,38,924,1814,1897,2100,2294,1997,1778,1807,1954
783849,11200,42436,9096,41864,-3203,-335,-168,-335,-529,474,-1335,3212,81,50,925,1814,1897,2100,2294,1997,1778,1807,1954
784850,11316,42488,9161,41929,-2866,-19,-192,-362,-546,572,-1250,3928,75,41,923,1814,1897,2100,2294,1997,1778,1807,1954
785851,11448,42548,9226,41994,-3149,-113,-223,-405,-567,149,-1351,3818,68,49,921,1814,1897,2100,2294,1997,1778,1807,1954
786852,11596,42612,9291,42059,-3451,-162,-234,-448,-562,297,-1271,3734,75,49,925,1820,1905,2095,2247,2016,1793,1880,2005
787853,11712,42656,9356,42124,-3114,113,-245,-469,-550,468,-1350,4208,82,44,925,1820,1905,2095,2247,2016,1793,1880,2005
788854,11864,42724,9421,42189,-3671,-191,-260,-514,-546,636,-1030,3704,82,52,925,1820,1905,2095,2247,2016,1793,1880,2005
789855,12008,42792,9486,42254,-3668,-194,-273,-585,-539,308,-1009,3852,81,46,924,1820,1905,2095,2247,2016,1793,1880,2005
790856,12136,42844,9551,42319,-3546,22,-265,-685,-519,345,-1064,3903,74,52,925,1820,1905,2095,2247,2016,1793,1880,2005
791857,12276,42900,9616,42384,-3789,-18,-277,-799,-490,-467,-846,4399,89,39,924,1820,1905,2095,2247,2016,1793,1880,2005
792858,12404,42968,9681,42449,-3716,-172,-283,-858,-498,-501,-751,4288,87,52,925,1741,1856,2029,2178,2083,1842,1935,2067
793859,12572,43032,9746,42514,-3800,-121,-292,-940,-528,-84,-1043,4410,83,39,925,1741,1856,2029,2178,2083,1842,1935,2067
794860,12720,43100,9811,42579,-3800,-174,-278,-1043,-567,-424,-1071,4444,75,48,924,1741,1856,2029,2178,2083,1842,1935,2067
795861,12856,43156,9876,42644,-3800,-13,-275,-1209,-578,-593,-1181,4563,86,42,925,1741,1856,2029,2178,2083,1842,1935,2067
796862,13000,43208,9941,42709,-3800,51,-261,-1307,-595,-379,-1409,4712,77,36,925,1741,1856,2029,2178,2083,1842,1935,2067
797863,13140,43252,10006,42774,-3800,177,-253,-1315,-635,-246,-1183,4726,85,43,925,1713,1838,2018,2175,2139,1877,1969,2101
798864,13276,43308,10071,42839,-3800,38,-251,-1257,-685,-325,-1189,4851,78,46,911,1713,1838,2018,2175,2139,1877,1969,2101
799865,13424,43392,10136,42904,-3800,-335,-266,-1216,-709,-275,-1383,5179,85,54,925,1713,1838,2018,2175,2139,1877,1969,2101
800866,13572,43432,10201,42969,-3800,245,-261,-1147,-697,457,-1422,5092,89,38,925,1713,1838,2018,2175,2139,1877,1969,2101
801867,13712,43508,10266,43034,-3800,-218,-251,-1048,-698,175,-1533,5003,80,39,922,1713,1838,2018,2175,2139,1877,1969,2101
802868,13872,43560,10331,43099,-3800,97,-274,-1014,-737,-343,-1442,4604,77,39,914,1713,1838,2018,2175,2139,1877,1969,2101
803869,14012,43620,10396,43164,-3800,3,-322,-1024,-768,-104,-1825,4548,93,52,924,1800,1920,2115,2307,2125,1881,1958,2061
804870,14200,43684,10461,43229,-3800,-46,-365,-1015,-775,-31,-2013,4800,86,43,925,1800,1920,2115,2307,2125,1881,1958,2061
805871,14384,43736,10526,43294,-3800,120,-411,-1021,-754,-879,-1857,4344,84,50,925,1800,1920,2115,2307,2125,1881,1958,2061
806872,14516,43804,10591,43359,-3800,-84,-448,-986,-755,-1074,-1964,5603,82,39,919,1800,1920,2115,2307,2125,1881,1958,2061
807873,14688,43872,10656,43424,-3800,-88,-483,-957,-760,-269,-2235,5439,93,52,925,1800,1920,2115,2307,2125,1881,1958,2061
808874,14848,43932,10721,43489,-3800,18,-515,-1011,-739,-121,-2106,5366,87,52,925,1906,1980,2198,2429,2075,1869,1928,1997
809875,15000,44000,10786,43554,-3800,-86,-544,-1034,-693,-919,-2170,5657,100,48,925,1906,1980,2198,2429,2075,1869,1928,1997
810876,15160,44080,10851,43619,-3800,-254,-572,-1025,-648,-922,-2094,5399,89,43,921,1906,1980,2198,2429,2075,1869,1928,1997
811877,15324,44140,10916,43684,-3800,2,-571,-937,-611,-278,-1917,6039,94,49,925,1906,1980,2198,2429,2075,1869,1928,1997
812878,15472,44192,10981,43749,-3800,118,-549,-836,-570,-67,-1781,5644,95,53,924,1906,1980,2198,2429,2075,1869,1928,1997
813879,15616,44252,11046,43814,-3800,23,-500,-708,-520,151,-1601,6441,94,37,925,1906,1980,2198,2429,2075,1869,1928,1997
814880,15780,44324,11111,43879,-3800,-136,-433,-606,-470,438,-1312,5963,75,52,922,1892,1937,2160,2395,2090,1888,1954,2029
815881,15952,44392,11176,43944,-3800,-89,-398,-459,-423,328,-1052,6015,95,40,925,1892,1937,2160,2395,2090,1888,1954,2029
816882,16100,44452,11241,44009,-3800,17,-368,-335,-435,1006,-1145,5078,87,50,925,1892,1937,2160,2395,2090,1888,1954,2029
817883,16232,44504,11306,44074,-3800,133,-342,-189,-413,3,-1552,5388,90,40,925,1892,1937,2160,2395,2090,1888,1954,2029
818884,16392,44576,11371,44139,-3800,-126,-344,-43,-397,-119,-880,5218,84,42,922,1892,1937,2160,2395,2090,1888,1954,2029
819885,16544,44628,11436,44204,-3800,139,-324,19,-356,-192,-1159,4530,86,38,924,1846,1920,2124,2354,2129,1901,1959,2043
820886,16696,44676,11501,44269,-3800,210,-283,41,-325,-506,-1373,5247,77,50,925,1846,1920,2124,2354,2129,1901,1959,2043
821887,16832,44756,11566,44334,-3800,-209,-228,19,-323,-758,-1545,5271,87,50,924,1846,1920,2124,2354,2129,1901,1959,2043
822888,16964,44812,11631,44399,-3800,102,-169,-94,-312,-1220,-1589,4725,77,35,923,1846,1920,2124,2354,2129,1901,1959,2043
823889,17100,44872,11696,44464,-3800,58,-105,-186,-279,-1126,-1872,5352,90,41,924,1846,1920,2124,2354,2129,1901,1959,2043
824890,17236,44928,11761,44529,-3800,119,-48,-190,-230,-555,-1662,5066,74,44,925,1846,1920,2124,2354,2129,1901,1959,2043
825891,17372,44992,11826,44594,-3800,20,-1,-141,-175,-281,-1759,4936,94,38,925,1834,1915,2125,2336,2090,1852,1916,2000
826892,17492,45064,11891,44659,-3800,-89,27,-12,-156,-15,-1741,5214,77,36,924,1834,1915,2125,2336,2090,1852,1916,2000
827893,17640,45116,11956,44724,-3800,177,33,138,-130,536,-1574,4771,80,36,925,1834,1915,2125,2336,2090,1852,1916,2000
828894,17788,45172,12021,44789,-3800,138,35,286,-93,867,-1633,4804,85,43,925,1834,1915,2125,2336,2090,1852,1916,2000
829895,17936,45220,12086,44854,-3800,259,26,398,-40,845,-1614,4498,74,32,925,1834,1915,2125,2336,2090,1852,1916,2000
830896,18056,45260,12151,44919,-3800,389,18,443,15,500,-1556,4572,68,30,924,1878,1968,2159,2366,1993,1774,1861,1943
831897,18184,45312,12216,44984,-3800,255,16,419,49,434,-1328,3822,86,35,924,1878,1968,2159,2366,1993,1774,1861,1943
832898,18296,45360,12281,45049,-3800,325,16,377,95,48,-1186,4311,73,29,923,1878,1968,2159,2366,1993,1774,1861,1943
833899,18428,45412,12346,45114,-3800,291,21,262,134,-191,-1081,3908,74,44,924,1878,1968,2159,2366,1993,1774,1861,1943
834900,18556,45476,12411,45179,-3800,142,57,167,141,-143,-958,4373,69,31,923,1878,1968,2159,2366,1993,1774,1861,1943
835901,18684,45516,12476,45244,-3800,472,93,92,160,-35,-829,4035,62,33,922,1878,1968,2159,2366,1993,1774,1861,1943
836902,18812,45572,12541,45309,-3800,283,144,2,173,55,-796,3965,74,28,923,1894,1959,2135,2344,1972,1762,1854,1936
837903,18920,45628,12606,45374,-3800,294,190,-89,215,140,-775,3918,70,37,923,1894,1959,2135,2344,1972,1762,1854,1936
838904,19032,45664,12671,45439,-3800,580,238,-146,254,222,-809,4064,60,29,923,1894,1959,2135,2344,1972,1762,1854,1936
839905,19140,45704,12736,45504,-3800,560,284,-216,277,150,-674,3356,68,43,924,1894,1959,2135,2344,1972,1762,1854,1936
840906,19256,45740,12801,45569,-3800,646,346,-229,280,-93,-617,3789,60,39,922,1894,1959,2135,2344,1972,1762,1854,1936
841907,19364,45796,12866,45634,-3800,407,404,-213,290,-11,-534,3979,58,40,922,1828,1908,2080,2266,2001,1779,1870,1964
842908,19468,45872,12931,45699,-3800,143,467,-240,315,294,-579,3676,59,43,920,1828,1908,2080,2266,2001,1779,1870,1964
843909,19572,45948,12996,45764,-3800,129,533,-251,342,107,-575,3762,68,33,923,1828,1908,2080,2266,2001,1779,1870,1964
844910,19688,46012,13061,45829,-3800,280,597,-260,357,-163,-623,3666,52,38,925,1828,1908,2080,2266,2001,1779,1870,1964
845911,19788,46080,13126,45894,-3800,226,661,-270,369,137,-669,3747,57,43,925,1828,1908,2080,2266,2001,1779,1870,1964
846912,19876,46156,13191,45959,-3800,113,700,-324,387,11,-595,3178,57,34,924,1828,1908,2080,2266,2001,1779,1870,1964
847913,19984,46212,13256,46024,-3800,374,724,-334,411,-223,-536,3466,57,41,924,1791,1891,2068,2237,1986,1768,1852,1954
848914,20072,46288,13321,46089,-3800,111,736,-350,419,-103,-498,3085,47,42,925,1791,1891,2068,2237,1986,1768,1852,1954
849915,20152,46336,13386,46154,-3800,481,737,-378,430,-23,-435,3024,44,36,923,1791,1891,2068,2237,1986,1768,1852,1954
850916,20256,46384,13451,46219,-3800,502,735,-409,432,-148,-220,3131,50,47,925,1791,1891,2068,2237,1986,1768,1852,1954
851917,20344,46460,13516,46284,-3800,139,726,-428,422,-182,-255,3218,60,39,911,1791,1891,2068,2237,1986,1768,1852,1954
852918,20440,46536,13581,46349,-3800,125,721,-478,421,-28,-206,3211,60,36,922,1800,1886,2080,2259,1955,1741,1815,1904
853919,20528,46592,13646,46414,-3800,386,732,-537,432,-313,-288,3307,40,35,924,1800,1886,2080,2259,1955,1741,1815,1904
854920,20600,46680,13711,46479,-3800,-42,744,-553,421,-183,-295,3624,52,43,924,1800,1886,2080,2259,1955,1741,1815,1904
855921,20704,46728,13776,46544,-3800,479,757,-562,397,250,-299,3484,55,32,910,1800,1886,2080,2259,1955,1741,1815,1904
856922,20776,46808,13841,46609,-3800,60,753,-597,390,382,-286,3281,51,39,925,1800,1886,2080,2259,1955,1741,1815,1904
857923,20840,46864,13906,46674,-3800,371,756,-592,398,221,-254,3496,54,34,923,1800,1886,2080,2259,1955,1741,1815,1904
858924,20924,46932,13971,46739,-3800,217,769,-521,397,158,-126,3656,53,41,925,1786,1866,2068,2250,1962,1760,1822,1920
859925,21000,47004,14036,46804,-3800,158,776,-478,387,615,0,3340,38,49,918,1786,1866,2068,2250,1962,1760,1822,1920
860926,21072,47072,14101,46869,-3800,205,808,-417,385,672,-60,3692,31,36,924,1786,1866,2068,2250,1962,1760,1822,1920
861927,21136,47136,14166,46934,-3800,256,821,-371,398,474,45,3511,36,48,925,1786,1866,2068,2250,1962,1760,1822,1920
862928,21196,47192,14231,46999,-3800,367,856,-328,417,158,114,3427,31,32,924,1786,1866,2068,2250,1962,1760,1822,1920
863929,21264,47260,14296,47064,-3800,213,881,-309,412,21,130,3374,46,40,920,1763,1841,2052,2228,2017,1812,1867,1964
864930,21332,47316,14361,47129,-3800,374,900,-283,396,-158,113,3579,30,49,923,1763,1841,2052,2228,2017,1812,1867,1964
865931,21384,47384,14426,47194,-3800,221,922,-287,403,-295,312,3421,45,42,924,1763,1841,2052,2228,2017,1812,1867,1964
866932,21448,47456,14491,47259,-3800,162,931,-297,421,-494,395,3457,41,50,924,1763,1841,2052,2228,2017,1812,1867,1964
867933,21508,47536,14556,47324,-3800,44,925,-306,425,-398,506,3447,34,37,922,1763,1841,2052,2228,2017,1812,1867,1964
868934,21552,47592,14621,47389,-3800,355,909,-306,408,-273,364,3690,-4,42,924,1749,1839,2058,2239,2045,1827,1867,1964
869935,21592,47660,14686,47454,-3800,200,897,-297,393,-400,316,3544,29,43,924,1749,1839,2058,2239,2045,1827,1877,1975
870936,21648,47736,14751,47519,-3800,87,887,-222,385,-298,302,4001,31,48,922,1749,1839,2058,2239,2045,1827,1877,1975
871937,21680,47792,14816,47584,-3800,348,880,-160,400,-59,184,3791,37,43,923,1749,1839,2058,2239,2045,1827,1877,1975
872938,21732,47856,14881,47649,-3800,249,868,-100,392,194,360,3881,22,36,925,1749,1839,2058,2239,2045,1827,1877,1975
873939,21764,47924,14946,47714,-3800,195,837,-27,370,64,181,3784,25,36,923,1749,1839,2058,2239,2045,1827,1877,1975
874940,21804,47968,15011,47779,-3800,521,815,64,341,-27,212,3988,32,33,924,1764,1856,2077,2247,2043,1819,1867,1982
875941,21840,48048,15076,47844,-3800,52,786,117,340,-142,184,3805,33,45,923,1764,1856,2077,2247,2043,1819,1867,1982
876942,21892,48128,15141,47909,-3800,34,753,140,337,112,260,3955,25,36,925,1764,1856,2077,2247,2043,1819,1867,1982
877943,21924,48192,15206,47974,-3800,235,709,149,310,148,271,3892,13,39,925,1764,1856,2077,2247,2043,1819,1867,1982
878944,21940,48244,15271,48039,-3800,401,673,186,283,49,222,4072,13,37,924,1764,1856,2077,2247,2043,1819,1867,1982
879945,21980,48324,15336,48104,-3800,33,647,181,285,2,207,3882,9,31,923,1770,1856,2083,2245,2059,1838,1881,1992
880946,22000,48388,15401,48169,-3800,234,620,142,294,-13,331,4002,17,37,925,1770,1856,2083,2245,2059,1838,1881,1992
881947,22020,48448,15466,48234,-3800,289,591,104,291,149,449,3808,15,43,924,1770,1856,2083,2245,2059,1838,1881,1992
882948,22052,48504,15531,48299,-3800,350,569,75,284,-28,394,4097,18,34,924,1770,1856,2083,2245,2059,1838,1881,1992
883949,22080,48572,15596,48364,-3800,197,559,24,281,-162,362,4017,20,37,923,1770,1856,2083,2245,2059,1838,1881,1992
884950,22100,48628,15661,48429,-3800,358,559,-17,297,-164,456,4073,15,40,925,1770,1856,2083,2245,2059,1838,1881,1992
885951,22112,48684,15726,48494,-3800,369,545,2,311,-197,573,4060,8,38,922,1757,1846,2075,2232,2098,1875,1920,2054
886952,22124,48768,15791,48559,-3800,-5,513,21,320,60,783,3938,12,42,921,1757,1846,2075,2232,2098,1875,1920,2054
887953,22148,48840,15856,48624,-3800,137,465,-20,322,142,826,3960,3,31,925,1757,1846,2075,2232,2098,1875,1920,2054
888954,22152,48920,15921,48689,-3800,19,433,-57,329,-253,808,4159,14,32,925,1757,1846,2075,2232,2098,1875,1920,2054
889955,22168,48984,15986,48754,-3800,220,397,-67,323,-131,884,4144,16,47,926,1757,1846,2075,2232,2098,1875,1920,2054
890956,22176,49052,16051,48819,-3800,166,361,-63,309,218,913,3946,0,39,924,1755,1854,2076,2224,2131,1883,1934,2078
891957,22188,49112,16116,48884,-3800,272,342,-90,300,57,659,4213,7,28,925,1755,1854,2076,2224,2131,1883,1934,2078
892958,22192,49164,16181,48949,-3800,388,311,-126,268,-193,653,4060,-3,41,924,1755,1854,2076,2224,2131,1883,1934,2078
893959,22200,49240,16246,49014,-3800,74,288,-98,256,-215,551,4160,11,40,923,1755,1854,2076,2224,2131,1883,1934,2078
894960,22188,49292,16311,49079,-3800,389,271,-112,269,-291,587,4119,-8,42,924,1755,1854,2076,2224,2131,1883,1934,2078
895961,22196,49348,16376,49144,-3800,350,246,-161,255,-265,597,4068,-7,34,923,1755,1854,2076,2224,2131,1883,1934,2078
896962,22200,49424,16441,49209,-3800,87,208,-157,222,-118,566,4247,1,35,924,1760,1870,2086,2223,2119,1864,1911,2058
897963,22184,49488,16506,49274,-3800,238,162,-126,194,-338,471,4170,-3,42,925,1760,1870,2086,2223,2119,1864,1911,2058
898964,22184,49536,16571,49339,-3800,459,116,-158,176,-176,593,3985,10,34,924,1760,1870,2086,2223,2119,1864,1911,2058
899965,22184,49616,16636,49404,-3800,41,67,-243,178,-145,557,4114,1,28,936,1760,1870,2086,2223,2119,1864,1911,2058
900966,22176,49684,16701,49469,-3800,187,13,-292,166,-298,563,4230,-5,34,925,1760,1870,2086,2223,2119,1864,1911,2058
901967,22172,49732,16766,49534,-3800,458,-35,-305,157,-380,608,4209,-5,37,924,1767,1868,2094,2236,2090,1852,1895,2031
902968,22176,49800,16831,49599,-3800,204,-74,-333,151,-59,584,4105,-3,34,922,1767,1868,2094,2236,2090,1852,1895,2031
903969,22176,49852,16896,49664,-3800,420,-110,-365,155,162,525,4252,9,35,912,1767,1868,2094,2236,2090,1852,1895,2031
904970,22168,49916,16961,49729,-3800,271,-127,-336,163,37,543,4185,-7,28,923,1767,1868,2094,2236,2090,1852,1895,2031
905973,22180,49972,17026,49794,-3800,381,-146,-327,170,-255,535,4016,10,37,924,1767,1868,2094,2236,2090,1852,1895,2031
906972,22176,50052,17091,49859,-3800,63,-182,-338,153,-44,701,3940,-8,28,923,1767,1868,2094,2236,2090,1852,1895,2031
907973,22164,50108,17156,49924,-3800,374,-216,-341,148,114,644,3904,-8,42,918,1765,1861,2089,2240,2097,1856,1910,2038
908974,22160,50168,17221,49989,-3800,330,-229,-365,174,244,320,4189,9,38,923,1765,1861,2089,2240,2097,1856,1910,2038
909975,22160,50236,17286,50054,-3800,226,-226,-420,182,-262,637,3919,-8,41,923,1765,1861,2089,2240,2097,1856,1910,2038
910976,22168,50296,17351,50119,-3800,332,-246,-479,152,-315,1246,3549,6,43,924,1765,1861,2089,2240,2097,1856,1910,2038
911977,22176,50364,17416,50184,-3800,229,-282,-473,119,380,980,4086,10,26,919,1765,1861,2089,2240,2097,1856,1910,2038
912978,22164,50408,17481,50249,-3800,554,-316,-446,109,448,895,3696,4,39,924,1759,1852,2067,2239,2102,1868,1911,2033
913979,22172,50488,17546,50314,-3800,86,-337,-413,91,-32,878,3832,11,29,922,1759,1852,2067,2239,2102,1868,1911,2033
914980,22168,50564,17611,50379,-3800,123,-333,-364,53,-4,676,4247,-7,39,925,1759,1852,2067,2239,2102,1868,1911,2033
915981,22164,50636,17676,50444,-3800,164,-314,-321,-5,585,746,4208,-7,34,921,1759,1852,2067,2239,2102,1868,1911,2033
916982,22164,50700,17741,50509,-3800,265,-280,-265,-54,807,730,4576,4,27,925,1759,1852,2067,2239,2102,1868,1911,2033
917983,22168,50768,17806,50574,-3800,212,-249,-237,-90,465,706,4465,-6,25,924,1759,1852,2067,2239,2102,1868,1911,2033
918984,22164,50832,17871,50639,-3800,263,-240,-214,-114,173,653,4344,-8,25,924,1753,1850,2069,2227,2070,1833,1879,1989
919985,22160,50880,17936,50704,-3800,483,-244,-176,-138,39,584,4203,-8,24,921,1753,1850,2069,2227,2070,1833,1879,1989
920986,22164,50944,18001,50769,-3800,284,-265,-138,-172,25,589,4032,-3,35,921,1753,1850,2069,2227,2070,1833,1879,1989
921987,22168,51016,18066,50834,-3800,175,-285,-136,-203,63,712,3942,-3,27,924,1753,1850,2069,2227,2070,1833,1879,1989
922988,22156,51068,18131,50899,-3800,441,-298,-174,-204,106,699,3941,11,31,924,1753,1850,2069,2227,2070,1833,1879,1989
923989,22164,51120,18196,50964,-3800,457,-314,-190,-193,74,690,4083,8,27,921,1775,1879,2104,2282,2016,1803,1855,1959
924990,22168,51184,18261,51029,-3800,308,-333,-166,-195,64,589,4061,-3,25,923,1775,1879,2104,2282,2016,1803,1855,1959
925991,22156,51252,18326,51094,-3600,255,-347,-166,-201,254,605,3995,11,33,923,1775,1879,2104,2282,2016,1803,1855,1959
926992,22152,51308,18391,51159,-3618,416,-357,-164,-205,429,674,4103,-3,27,924,1775,1879,2104,2282,2016,1803,1855,1959
927993,22156,51364,18456,51224,-3644,427,-364,-146,-212,827,671,3971,-6,38,922,1775,1879,2104,2282,2016,1803,1855,1959
928994,22152,51448,18521,51289,-3462,53,-360,-90,-228,835,568,4042,0,28,923,1775,1879,2104,2282,2016,1803,1855,1959
929995,22164,51500,18586,51354,-3598,469,-355,-29,-260,855,581,4019,10,29,925,1816,1906,2132,2314,2024,1816,1870,1977
930996,22156,51564,18651,51419,-3260,320,-334,13,-301,1094,596,4086,-7,27,923,1816,1906,2132,2314,2024,1816,1870,1977
931997,22156,51636,18716,51484,-3283,212,-306,40,-332,1233,600,3960,3,41,922,1816,1906,2132,2314,2024,1816,1870,1977
932998,22152,51704,18781,51549,-3149,258,-275,103,-370,1019,706,4279,3,32,924,1816,1906,2132,2314,2024,1816,1870,1977
933999,22152,51736,18846,51614,-3121,749,-233,131,-414,863,657,3944,10,26,923,1816,1906,2132,2314,2024,1816,1870,1977
935000,22152,51812,18911,51679,-3044,185,-193,145,-464,854,680,4162,11,29,920,1809,1893,2115,2291,2049,1831,1881,1986
936001,22152,51876,18976,51744,-2965,335,-166,160,-507,720,701,4010,-3,40,923,1809,1893,2115,2291,2049,1831,1881,1986
937002,22152,51940,19041,51809,-2887,337,-142,175,-535,626,637,3836,-7,38,922,1809,1893,2115,2291,2049,1831,1881,1986
938003,22156,52016,19106,51874,-2864,173,-112,136,-532,300,642,3730,-1,32,922,1809,1893,2115,2291,2049,1831,1881,1986
939004,22148,52088,19171,51939,-2626,215,-93,55,-534,55,645,3784,-7,32,924,1809,1893,2115,2291,2049,1831,1881,1986
940005,22136,52164,19236,52004,-2484,151,-88,27,-544,-36,613,3926,1,38,924,1809,1893,2115,2291,2049,1831,1881,1986
941006,22144,52224,19301,52069,-2665,357,-93,42,-533,107,508,3796,11,25,925,1984,1874,2088,2266,2032,1804,1864,1964
942007,22136,52288,19366,52134,-2377,309,-108,49,-495,245,412,3832,-8,39,923,1984,1874,2088,2266,2032,1804,1864,1964
943008,22152,52348,19431,52199,-2618,365,-119,57,-461,278,363,3894,10,28,923,1984,1874,2088,2266,2032,1804,1864,1964
944009,22136,52416,19496,52264,-2120,261,-121,64,-441,208,379,4076,9,39,923,1984,1874,2088,2266,2032,1804,1864,1964
945010,22140,52464,19561,52329,-2297,532,-119,92,-429,333,295,3994,-7,30,924,1984,1874,2088,2266,2032,1804,1864,1964
946011,22136,52532,19626,52394,-2113,278,-125,127,-411,534,213,4199,10,34,922,1774,1871,2074,2241,2011,1775,1850,1970
947012,22120,52596,19691,52459,-1866,329,-111,165,-389,585,147,4115,2,37,923,1774,1871,2074,2241,2011,1775,1850,1970
948013,22136,52656,19756,52524,-2207,385,-96,192,-375,636,110,4094,5,33,923,1774,1871,2074,2241,2011,1775,1850,1970
949014,22132,52720,19821,52589,-1874,337,-89,202,-380,520,108,4124,-2,35,923,1774,1871,2074,2241,2011,1775,1850,1970
950015,22124,52768,20020,52788,-1571,721,-80,198,-388,512,84,3810,-8,35,923,1774,1871,2074,2241,2011,1775,1850,1970
951016,22132,52848,20085,52853,-1702,303,-70,208,-397,508,102,3835,-9,27,920,1774,1871,2074,2241,2011,1775,1850,1970
952017,22124,52908,20150,52918,-1414,559,-63,194,-407,534,121,3605,1,40,923,1779,1874,2069,2247,2039,1807,1875,1998
953018,22112,52972,20215,52983,-1271,510,-52,156,-407,358,151,3663,-4,41,921,1779,1874,2069,2247,2039,1807,1875,1998
954019,22116,53048,20280,53048,-1398,347,-45,91,-410,64,209,3600,1,37,922,1779,1874,2069,2247,2039,1807,1875,1998
955020,22116,53104,20345,53113,-1268,607,-38,51,-411,-35,207,3696,9,42,922,1779,1874,2069,2247,2039,1807,1875,1998
956021,22100,53164,20410,53178,-970,564,-39,-1,-405,149,273,3645,2,40,921,1779,1874,2069,2247,2039,1807,1875,1998
957022,22096,53244,20475,53243,-1037,295,-41,-38,-380,233,236,3704,-9,27,912,1796,1884,2098,2268,2064,1830,1890,2001
958023,22096,53316,20540,53308,-1008,387,-44,-59,-345,115,232,3827,0,32,923,1796,1884,2098,2268,2064,1830,1890,2001
959024,22096,53396,20605,53373,-930,268,-47,-60,-311,-11,258,3864,7,40,922,1796,1884,2098,2268,2064,1830,1890,2001
960025,22080,53472,20670,53438,-631,305,-51,-52,-273,-80,165,4014,-8,29,923,1796,1884,2098,2268,2064,1830,1890,2001
961026,22076,53512,20735,53503,-697,786,-51,-36,-229,150,142,4024,-2,29,915,1796,1884,2098,2268,2064,1830,1890,2001
962027,22080,53580,20800,53568,-723,432,-44,-9,-179,143,126,4093,-9,35,919,1796,1884,2098,2268,2064,1830,1890,2001
963028,22072,53640,20865,53633,-485,538,-41,18,-129,-5,67,4124,7,29,922,1789,1879,2081,2247,2052,1818,1882,1998
964029,22048,53712,20930,53698,-176,379,-40,37,-92,-55,3,4152,5,39,921,1789,1879,2081,2247,2052,1818,1882,1998
965030,22056,53764,20995,53763,-508,645,-34,23,-65,-177,-6,4236,9,29,917,1789,1879,2081,2247,2052,1818,1882,1998
966031,22052,53836,21060,53828,-273,387,-27,12,-46,-210,-88,4104,-1,36,920,1789,1879,2081,2247,2052,1818,1882,1998
967032,22036,53904,21125,53893,-26,433,-25,-3,-30,-182,-90,4223,8,43,923,1789,1879,2081,2247,2052,1818,1882,1998
968033,22032,53972,21190,53958,-91,429,-28,-11,-11,-231,-98,4150,8,35,922,1775,1864,2074,2240,2036,1812,1873,1989
969034,22040,54036,21255,54023,-172,481,-28,-45,-16,-181,-131,4014,-7,40,919,1775,1864,2074,2240,2036,1812,1873,1989
970035,22028,54108,21320,54088,171,372,-29,-67,-30,-213,-151,4083,3,35,912,1775,1864,2074,2240,2036,1812,1873,1989
971036,22024,54164,21385,54153,155,583,-33,-88,-32,-116,-138,3914,-5,35,921,1775,1864,2074,2240,2036,1812,1873,1989
972037,22016,54228,21450,54218,295,484,-32,-85,-34,-148,-143,4089,8,37,919,1775,1864,2074,2240,2036,1812,1873,1989
973038,22016,54280,21515,54283,274,650,-36,-80,-40,-89,-122,3907,-4,38,920,1775,1864,2074,2240,2036,1812,1873,1989
974039,22016,54328,21580,54348,352,721,-41,-58,-37,35,-92,4027,12,25,918,1789,1878,2084,2254,2052,1822,1885,2002
975040,22020,54392,21645,54413,377,522,-49,-55,-29,-74,-130,3908,9,37,918,1789,1878,2084,2254,2052,1822,1885,2002
976041,22020,54460,21710,54478,506,468,-49,-59,-16,-180,-105,3994,-2,27,919,1789,1878,2084,2254,2052,1822,1885,2002
977042,22024,54516,21775,54543,531,629,-50,-61,9,-143,-39,3986,3,39,918,1789,1878,2084,2254,2052,1822,1885,2002
978043,22036,54576,21840,54608,495,586,-55,-67,33,-130,-106,3954,20,24,917,1789,1878,2084,2254,2052,1822,1885,2002
979044,22052,54608,21905,54673,505,976,-56,-77,60,-189,-88,4011,23,26,918,1805,1894,2101,2274,2056,1828,1895,2007
980045,22072,54684,21970,54738,510,412,-59,-79,89,-186,-39,3942,10,26,914,1805,1894,2101,2274,2056,1828,1895,2007
981046,22096,54728,22035,54803,510,838,-57,-84,111,-193,-101,3922,19,28,919,1805,1894,2101,2274,2056,1828,1895,2007
982047,22108,54796,22100,54868,725,534,-53,-90,137,-336,-128,4011,28,39,915,1805,1894,2101,2274,2056,1828,1895,2007
983048,22140,54868,22165,54933,515,476,-51,-110,147,-283,-12,4034,23,38,916,1805,1894,2101,2274,2056,1828,1895,2007
984049,22176,54916,22230,54998,500,797,-34,-127,162,-204,-70,4056,22,38,918,1805,1894,2101,2274,2056,1828,1895,2007
985050,22224,54960,22295,55063,371,872,-20,-154,164,-135,-195,3993,28,33,916,1791,1882,2085,2255,2047,1819,1884,1995
986051,22248,55008,22360,55128,721,843,-11,-166,150,-180,-190,4085,22,35,916,1791,1882,2085,2255,2047,1819,1884,1995
987052,22296,55068,22425,55193,442,699,-1,-168,141,-168,-195,4043,29,39,914,1791,1882,2085,2255,2047,1819,1884,1995
988053,22352,55124,22490,55258,353,760,5,-172,137,-112,-171,4127,26,43,917,1791,1882,2085,2255,2047,1819,1884,1995
989054,22388,55168,22555,55323,638,936,10,-183,125,-105,-182,4177,37,37,916,1791,1882,2085,2255,2047,1819,1884,1995
990055,22436,55236,22620,55388,509,632,22,-205,105,-115,-131,4131,29,36,914,1780,1872,2075,2243,2033,1802,1872,1984
991056,22492,55304,22685,55453,420,628,30,-234,93,-95,-126,4200,39,43,917,1780,1872,2075,2243,2033,1802,1872,1984
992057,22536,55356,22750,55518,596,844,39,-250,89,-79,-178,4076,30,30,918,1780,1872,2075,2243,2033,1802,1872,1984
993058,22588,55408,22815,55583,512,860,39,-251,76,56,-162,4101,41,32,915,1780,1872,2075,2243,2033,1802,1872,1984
994059,22648,55468,22880,55648,418,766,38,-252,74,-4,-199,3998,33,31,915,1780,1872,2075,2243,2033,1802,1872,1984
995060,22700,55536,22945,55713,534,663,37,-239,73,16,-174,4006,33,44,917,1780,1872,2075,2243,2033,1802,1872,1984
996061,22752,55584,23010,55778,549,933,38,-230,81,-58,-225,3909,30,46,917,1791,1887,2087,2261,2025,1799,1873,1984
997062,22816,55668,23075,55843,402,460,37,-231,86,-51,-153,3906,34,35,915,1791,1887,2087,2261,2025,1799,1873,1984
998063,22872,55732,23140,55908,513,711,46,-239,94,-44,-139,3866,51,33,920,1791,1887,2087,2261,2025,1799,1873,1984
999064,22928,55792,23205,55973,524,768,54,-255,103,58,-45,3962,43,38,917,1791,1887,2087,2261,2025,1799,1873,1984
1000065,22996,55860,23270,56038,370,665,70,-272,99,-73,-87,3849,37,31,916,1791,1887,2087,2261,2025,1799,1873,1984
1001066,23076,55928,23335,56103,202,661,77,-295,107,-88,-81,3931,38,43,918,1808,1900,2100,2277,2033,1809,1879,1986
1002067,23144,55984,23400,56168,348,822,89,-308,119,-58,-95,3857,39,42,920,1808,1900,2100,2277,2033,1809,1879,1986
1003068,23184,56040,23465,56233,729,833,108,-307,114,31,-44,4085,42,29,917,1808,1900,2100,2277,2033,1809,1879,1986
1004069,23248,56108,23530,56298,430,679,124,-334,109,124,-28,3779,40,35,914,1808,1900,2100,2277,2033,1809,1879,1986
1005070,23324,56156,23595,56363,266,950,141,-334,101,60,-29,4014,49,38,918,1808,1900,2100,2277,2033,1809,1879,1986
1006071,23388,56240,23660,56428,418,477,151,-339,96,7,-87,3893,40,44,915,1808,1900,2100,2277,2033,1809,1879,1986
1007072,23448,56328,23725,56493,475,399,176,-326,78,121,-57,4044,47,39,919,1798,1888,2091,2267,2033,1807,1873,1980
1008073,23520,56368,23790,56558,316,1029,202,-337,66,111,10,4116,42,42,919,1798,1888,2091,2267,2033,1807,1873,1980
1009074,23588,56436,23855,56623,362,676,231,-321,58,291,11,4016,44,41,915,1798,1888,2091,2267,2033,1807,1873,1980
1010075,23640,56488,23920,56688,578,892,240,-309,40,365,-36,4054,37,42,918,1798,1888,2091,2267,2033,1807,1873,1980
1011076,23720,56552,23985,56753,210,743,254,-287,26,210,8,4090,32,37,914,1798,1888,2091,2267,2033,1807,1873,1980
1012077,23772,56604,24050,56818,576,909,255,-254,29,208,-27,4031,38,28,919,1789,1880,2082,2257,2017,1793,1859,1963
1013078,23824,56672,24115,56883,592,705,264,-233,22,161,36,4101,35,32,914,1789,1880,2082,2257,2017,1793,1859,1963
1014079,23884,56708,24180,56948,498,1141,268,-223,15,7,141,4007,32,39,916,1789,1880,2082,2257,2017,1793,1859,1963
1015080,23944,56772,24245,57013,504,793,278,-237,16,55,150,3978,32,29,913,1789,1880,2082,2257,2017,1793,1859,1963
