%  Data file recorded 2016/9/5  15:30:49
%  Stride Frequency         = [1, 1]
%  Lead In /Lead Out        = 
%  Deltas (Fractional)      = [0.25, 0.25, 0.25],[0.25, 0.25, 0.25]
%  Phase                    = 32768
%  Experiment.py 
%  Motor Gains    = [5000, 400, 200, 0, 300, 5000, 400, 200, 0, 300]
% Columns: 
% time | Right Leg Pos | Left Leg Pos | Commanded Right Leg Pos | Commanded Left Leg Pos | DCR | DCL | GyroX | GyroY | GyroZ | AX | AY | AZ | RBEMF | LBEMF | VBatt | S1 | S2 | S3 | S4 | S5 | S6 | S7 | S8
403,-44684,-15384,-46416,-13648,3800,-3800,-4,2,2,40,62,3936,-8,-5,836,1778,1870,2074,2219,2029,1803,1871,1983
1404,-44680,-15376,-46416,-13648,3800,-3800,-4,1,-1,20,66,3923,-7,-6,836,1778,1870,2074,2219,2029,1803,1871,1983
2405,-44684,-15380,-46416,-13648,3800,-3800,-2,2,-1,-6,50,3922,-8,-5,836,1778,1870,2074,2219,2029,1803,1871,1983
3406,-44692,-15376,-46416,-13648,3800,-3800,-3,3,2,35,57,3964,-8,3,836,1778,1871,2074,2218,2029,1803,1871,1983
4407,-44680,-15380,-46416,-13648,3800,-3800,-5,5,4,41,59,3944,-8,8,836,1778,1871,2074,2218,2029,1803,1871,1983
5408,-44680,-15376,-46416,-13648,3800,-3800,-6,6,5,46,51,3915,-8,8,836,1778,1871,2074,2218,2029,1803,1871,1983
6409,-44692,-15388,-46416,-13648,3800,-3800,-4,4,4,13,85,3936,-4,-4,835,1778,1871,2074,2218,2029,1803,1871,1983
7410,-44680,-15388,-46416,-13648,3800,-3800,-1,1,2,48,59,3952,8,-5,835,1778,1871,2074,2218,2029,1803,1871,1983
8411,-44688,-15384,-46416,-13648,3800,-3800,-1,1,2,42,72,3908,9,-5,836,1780,1872,2076,2220,2029,1804,1872,1984
9412,-44684,-15376,-46416,-13648,3800,-3800,-5,2,2,35,71,3919,10,-5,836,1780,1872,2076,2220,2029,1804,1872,1984
10413,-44692,-15388,-46416,-13648,3800,-3800,-6,3,5,42,52,3940,11,-5,835,1780,1872,2076,2220,2029,1804,1872,1984
11414,-44680,-15384,-46416,-13648,3800,-3800,-6,2,5,49,49,3957,10,-3,835,1780,1872,2076,2220,2029,1804,1872,1984
12415,-44692,-15384,-46416,-13648,3800,-3800,-3,0,3,30,45,3961,9,8,835,1780,1872,2076,2220,2029,1804,1872,1984
13416,-44676,-15376,-46416,-13648,3800,-3800,-3,3,1,32,60,3965,10,9,836,1780,1872,2076,2220,2029,1804,1872,1984
14417,-44684,-15384,-46416,-13648,3800,-3800,-2,4,3,29,50,3909,7,9,836,1777,1871,2073,2219,2029,1803,1871,1983
15418,-44676,-15388,-46416,-13648,3800,-3800,-2,3,3,38,63,3920,9,-4,836,1777,1871,2073,2219,2029,1803,1871,1983
16419,-44696,-15396,-46416,-13648,3800,-3800,-1,1,2,40,58,3900,10,-6,835,1777,1871,2073,2219,2029,1803,1871,1983
17420,-44680,-15388,-46416,-13648,3800,-3800,-2,0,2,46,58,3902,8,-5,836,1777,1871,2073,2219,2029,1803,1871,1983
18421,-44680,-15388,-46416,-13648,3800,-3800,-3,-1,2,55,52,3929,5,5,836,1777,1871,2073,2219,2029,1803,1871,1983
19422,-44672,-15392,-46416,-13648,3800,-3800,-5,0,2,51,46,3919,-5,6,834,1777,1870,2073,2219,2030,1804,1871,1983
20423,-44684,-15380,-46416,-13648,3800,-3800,-4,3,1,70,68,3953,10,3,834,1777,1870,2073,2219,2030,1804,1871,1983
21424,-44684,-15380,-46416,-13648,3800,-3800,-2,3,1,40,66,3928,6,9,836,1777,1870,2073,2219,2030,1804,1871,1983
22425,-44684,-15384,-46416,-13648,3800,-3800,-2,-1,1,31,80,3914,4,5,835,1777,1870,2073,2219,2030,1804,1871,1983
23426,-44692,-15384,-46416,-13648,3800,-3800,-4,0,2,11,82,3916,9,-2,835,1777,1870,2073,2219,2030,1804,1871,1983
24427,-44676,-15396,-46416,-13648,3800,-3800,-6,3,0,26,54,3933,9,-4,836,1777,1870,2073,2219,2030,1804,1871,1983
25428,-44680,-15392,-46416,-13648,3800,-3800,-7,2,0,25,50,3946,5,5,835,1777,1870,2071,2217,2027,1803,1871,1986
26429,-44684,-15384,-46416,-13648,3800,-3800,-6,2,1,32,52,3929,2,9,835,1777,1870,2071,2217,2027,1803,1871,1986
27430,-44680,-15392,-46416,-13648,3800,-3800,-4,1,2,34,48,3909,-5,1,835,1777,1870,2071,2217,2027,1803,1871,1986
28431,-44692,-15380,-46416,-13648,3800,-3800,-4,0,2,63,63,3939,-7,-4,836,1777,1870,2071,2217,2027,1803,1871,1986
29432,-44676,-15372,-46416,-13648,3800,-3800,-2,-2,2,57,73,3916,-2,-5,835,1777,1870,2071,2217,2027,1803,1871,1986
30433,-44692,-15380,-46416,-13648,3800,-3800,-4,0,0,54,74,3897,-4,7,835,1776,1870,2073,2218,2028,1802,1870,1982
31434,-44692,-15392,-46416,-13648,3800,-3800,-4,1,1,43,46,3948,-2,9,836,1776,1870,2073,2218,2028,1802,1870,1982
32435,-44680,-15388,-46416,-13648,3800,-3800,-5,3,1,43,61,3934,7,4,835,1776,1870,2073,2218,2028,1802,1870,1982
33436,-44684,-15380,-46416,-13648,3800,-3800,-4,4,2,41,38,3920,-1,-5,836,1776,1870,2073,2218,2028,1802,1870,1982
34437,-44680,-15372,-46416,-13648,3800,-3800,-3,2,1,60,60,3918,-6,-4,835,1776,1870,2073,2218,2028,1802,1870,1982
35438,-44692,-15376,-46416,-13648,3800,-3800,-3,0,1,38,74,3938,-5,1,836,1776,1870,2073,2218,2028,1802,1870,1982
36439,-44692,-15384,-46416,-13648,3800,-3800,-5,0,0,36,70,3927,3,7,834,1780,1871,2076,2220,2029,1803,1872,1984
37440,-44684,-15380,-46416,-13648,3800,-3800,-3,2,2,49,53,3958,2,7,834,1780,1871,2076,2220,2029,1803,1872,1984
38441,-44680,-15392,-46416,-13648,3800,-3800,-2,1,1,42,58,3932,-8,9,835,1780,1871,2076,2220,2029,1803,1872,1984
39442,-44688,-15384,-46416,-13648,3800,-3800,-5,2,1,52,65,3935,-8,-2,836,1780,1871,2076,2220,2029,1803,1872,1984
40443,-44688,-15388,-46416,-13648,3800,-3800,-5,3,2,45,53,3909,-7,-6,836,1780,1871,2076,2220,2029,1803,1872,1984
41444,-44684,-15368,-46416,-13648,3800,-3800,-6,2,2,47,70,3909,-8,-1,836,1777,1870,2074,2219,2029,1803,1870,1983
42445,-44696,-15388,-46416,-13648,3800,-3800,-6,1,3,34,70,3947,-8,9,836,1777,1870,2074,2219,2029,1803,1870,1983
43446,-44696,-15392,-46416,-13648,3800,-3800,-7,1,2,37,51,3912,-7,2,835,1777,1870,2074,2219,2029,1803,1870,1983
44447,-44692,-15396,-46416,-13648,3800,-3800,-5,0,2,36,53,3926,-7,-4,836,1777,1870,2074,2219,2029,1803,1870,1983
45448,-44688,-15396,-46416,-13648,3800,-3800,-2,1,1,33,63,3976,-8,-1,835,1777,1870,2074,2219,2029,1803,1870,1983
46449,-44680,-15384,-46416,-13648,3800,-3800,-1,2,1,48,101,3978,-7,7,835,1777,1870,2074,2219,2029,1803,1870,1983
47450,-44680,-15384,-46416,-13648,3800,-3800,-3,1,1,45,74,3937,-1,8,835,1777,1870,2074,2220,2030,1804,1872,1983
48451,-44688,-15388,-46416,-13648,3800,-3800,-2,-1,0,46,41,3919,5,-5,835,1777,1870,2074,2220,2030,1804,1872,1983
49452,-44688,-15388,-46416,-13648,3800,-3800,-2,2,2,19,45,3941,9,-5,835,1777,1870,2074,2220,2030,1804,1872,1983
50453,-44684,-15380,-46416,-13648,3800,-3800,-2,4,3,44,65,3923,10,0,835,1777,1870,2074,2220,2030,1804,1872,1983
51454,-44684,-15380,-46416,-13648,3800,-3800,-3,4,0,33,81,3927,7,9,835,1777,1870,2074,2220,2030,1804,1872,1983
52455,-44688,-15388,-46416,-13648,3800,-3800,-5,4,0,27,60,3943,2,5,836,1775,1871,2075,2222,2031,1804,1872,1984
53456,-44696,-15380,-46416,-13648,3800,-3800,-6,2,4,46,57,3945,10,-1,834,1775,1871,2075,2222,2031,1804,1872,1984
54457,-44680,-15380,-46416,-13648,3800,-3800,-7,1,3,42,55,3956,-8,-6,833,1775,1871,2075,2222,2031,1804,1872,1984
55458,-44688,-15376,-46416,-13648,3800,-3800,-6,2,2,54,71,3966,-6,-3,836,1775,1871,2075,2222,2031,1804,1872,1984
56459,-44688,-15388,-46416,-13648,3800,-3800,-6,3,0,38,34,3944,6,7,835,1775,1871,2075,2222,2031,1804,1872,1984
57460,-44684,-15388,-46416,-13648,3800,-3800,-6,5,0,28,56,3924,10,7,835,1775,1871,2075,2222,2031,1804,1872,1984
58461,-44692,-15380,-46416,-13648,3800,-3800,-4,4,3,46,46,3953,10,-2,835,1776,1870,2072,2219,2029,1803,1871,1983
59462,-44684,-15388,-46416,-13648,3800,-3800,-4,2,5,41,48,3937,4,-6,835,1776,1870,2072,2219,2029,1803,1871,1983
60463,-44680,-15388,-46416,-13648,3800,-3800,-5,2,3,27,49,3940,0,7,835,1776,1870,2072,2219,2029,1803,1871,1983
61464,-44680,-15388,-46416,-13648,3800,-3800,-5,4,2,22,74,3935,-7,8,835,1776,1870,2072,2219,2029,1803,1871,1983
62465,-44680,-15380,-46416,-13648,3800,-3800,-5,6,4,48,72,3946,-7,3,835,1776,1870,2072,2219,2029,1803,1871,1983
63466,-44688,-15384,-46416,-13648,3800,-3800,-5,4,4,44,60,3946,-7,-6,836,1777,1869,2073,2219,2030,1803,1871,1984
64467,-44684,-15396,-46416,-13648,3800,-3800,-3,4,4,33,56,3924,-7,1,836,1777,1869,2073,2219,2030,1803,1871,1984
65468,-44688,-15380,-46416,-13648,3800,-3800,-4,3,2,20,50,3942,-3,9,835,1777,1869,2073,2219,2030,1803,1871,1984
66469,-44684,-15396,-46416,-13648,3800,-3800,-5,3,2,24,56,3900,-3,-3,836,1777,1869,2073,2219,2030,1803,1871,1984
67470,-44692,-15380,-46416,-13648,3800,-3800,-5,3,3,38,53,3893,-1,-5,836,1777,1869,2073,2219,2030,1803,1871,1984
68471,-44704,-15376,-46416,-13648,3800,-3800,-5,2,4,49,48,3941,7,1,836,1777,1869,2073,2219,2030,1803,1871,1984
69472,-44692,-15380,-46416,-13648,3800,-3800,-4,2,3,43,49,3942,9,8,836,1778,1871,2074,2220,2030,1804,1871,1981
70473,-44684,-15384,-46416,-13648,3800,-3800,-6,1,3,24,63,3918,9,3,834,1778,1871,2074,2220,2030,1804,1871,1981
71474,-44692,-15384,-46416,-13648,3800,-3800,-6,1,0,30,32,3934,0,-5,834,1778,1871,2074,2220,2030,1804,1871,1981
72475,-44696,-15376,-46416,-13648,3800,-3800,-6,1,2,22,67,3932,6,6,835,1778,1871,2074,2220,2030,1804,1871,1981
73476,-44688,-15376,-46416,-13648,3800,-3800,-5,2,4,20,72,3951,8,5,836,1778,1871,2074,2220,2030,1804,1871,1981
74477,-44684,-15384,-46416,-13648,3800,-3800,-5,2,3,40,51,3966,10,-5,835,1777,1871,2073,2221,2030,1804,1871,1983
75478,-44692,-15376,-46416,-13648,3800,-3800,-6,1,4,40,50,3915,4,2,835,1777,1871,2073,2221,2030,1804,1871,1983
76479,-44696,-15380,-46416,-13648,3800,-3800,-6,2,3,36,31,3939,-3,9,835,1777,1871,2073,2221,2030,1804,1871,1983
77480,-44692,-15388,-46416,-13648,3800,-3800,-5,2,1,24,46,3948,-8,-2,835,1777,1871,2073,2221,2030,1804,1871,1983
78481,-44684,-15376,-46416,-13648,3800,-3800,-4,3,0,26,49,3933,-7,-3,836,1777,1871,2073,2221,2030,1804,1871,1983
79482,-44692,-15380,-46416,-13648,3800,-3800,-6,3,1,34,52,3962,2,7,835,1777,1871,2073,2221,2030,1804,1871,1983
80483,-44684,-15392,-46416,-13648,3800,-3800,-7,5,-1,36,45,3950,10,7,836,1775,1867,2071,2219,2031,1805,1874,1983
81484,-44684,-15388,-46416,-13648,3800,-3800,-7,4,1,50,48,3922,4,-5,835,1775,1867,2071,2219,2031,1805,1874,1983
82485,-44684,-15396,-46416,-13648,3800,-3800,-5,1,3,45,48,3963,-5,0,836,1775,1867,2071,2219,2031,1805,1874,1983
83486,-44684,-15388,-46416,-13648,3800,-3800,-6,1,3,33,38,3936,-6,6,835,1775,1867,2071,2219,2031,1805,1874,1983
84487,-44680,-15384,-46416,-13648,3800,-3800,-5,3,2,32,39,3922,3,6,835,1775,1867,2071,2219,2031,1805,1874,1983
85488,-44688,-15384,-46416,-13648,3800,-3800,-6,4,0,35,57,3941,4,-3,835,1776,1869,2072,2220,2029,1803,1870,1982
86489,-44676,-15376,-46416,-13648,3800,-3800,-5,3,2,29,62,3924,9,-6,835,1776,1869,2072,2220,2029,1803,1870,1982
87490,-44680,-15392,-46416,-13648,3800,-3800,-3,2,-1,25,63,3924,-8,3,834,1776,1869,2072,2220,2029,1803,1870,1982
88491,-44688,-15384,-46416,-13648,3800,-3800,-4,2,1,42,30,3949,8,7,833,1776,1869,2072,2220,2029,1803,1870,1982
89492,-44672,-15388,-46416,-13648,3800,-3800,-4,1,1,13,58,3936,-8,8,835,1776,1869,2072,2220,2029,1803,1870,1982
90493,-44684,-15380,-46416,-13648,3800,-3800,-3,-1,0,16,67,3938,-4,-4,835,1776,1869,2072,2220,2029,1803,1870,1982
91494,-44676,-15380,-46416,-13648,3800,-3800,-2,0,2,-10,55,3917,10,-5,835,1778,1872,2076,2220,2029,1803,1872,1984
92495,-44684,-15396,-46416,-13648,3800,-3800,-5,2,2,8,51,3928,-1,4,835,1778,1872,2076,2220,2029,1803,1872,1984
93496,-44684,-15388,-46416,-13648,3800,-3800,-4,1,0,12,61,3942,-8,5,835,1778,1872,2076,2220,2029,1803,1872,1984
94497,-44700,-15384,-46416,-13648,3800,-3800,-3,-1,2,20,93,3926,9,-6,835,1778,1872,2076,2220,2029,1803,1872,1984
95498,-44696,-15388,-46416,-13648,3800,-3800,-5,0,1,43,82,3915,1,3,836,1778,1872,2076,2220,2029,1803,1872,1984
96499,-44672,-15388,-46416,-13648,3800,-3800,-5,1,2,66,63,3928,-6,6,835,1776,1870,2073,2220,2029,1802,1871,1982
97500,-44688,-15384,-46416,-13648,3800,-3800,-4,1,1,52,58,3928,-7,-5,835,1776,1870,2073,2220,2029,1802,1871,1982
98501,-44680,-15392,-46416,-13648,3800,-3800,-2,2,0,41,46,3947,10,-1,835,1776,1870,2073,2220,2029,1802,1871,1982
99502,-44688,-15376,-46416,-13648,3800,-3800,-2,2,0,26,49,3912,0,9,836,1776,1870,2073,2220,2029,1802,1871,1982
100503,-44696,-15384,-46416,-13648,3800,-3800,-2,2,1,46,44,3945,-8,6,835,1776,1870,2073,2220,2029,1802,1871,1982
101504,-44692,-15376,-46416,-13648,3800,-3800,-4,1,0,23,66,3929,7,-4,835,1776,1870,2073,2220,2029,1802,1871,1982
102505,-44676,-15384,-46416,-13648,3800,-3800,-5,0,0,9,67,3891,9,3,835,1777,1869,2073,2219,2029,1802,1871,1984
103506,-44692,-15372,-46416,-13648,3800,-3800,-4,1,2,40,78,3893,-4,9,836,1777,1869,2073,2219,2029,1802,1871,1984
104507,-44680,-15384,-46416,-13648,3800,-3800,-3,1,2,41,98,3921,8,8,834,1777,1869,2073,2219,2029,1802,1871,1984
105508,-44688,-15380,-46416,-13648,3800,-3800,-3,2,2,38,55,3947,-7,2,834,1777,1869,2073,2219,2029,1802,1871,1984
106509,-44680,-15384,-46416,-13648,3800,-3800,-2,1,2,31,50,3923,9,-4,835,1777,1869,2073,2219,2029,1802,1871,1984
107510,-44692,-15384,-46416,-13648,3800,-3800,-2,0,5,46,39,3930,4,-6,835,1777,1870,2074,2221,2029,1803,1871,1983
108511,-44688,-15372,-46416,-13648,3800,-3800,-4,0,3,45,39,3964,-7,7,835,1777,1870,2074,2221,2029,1803,1871,1983
109512,-44696,-15396,-46416,-13648,3800,-3800,-3,1,-1,58,45,3946,-6,9,836,1777,1870,2074,2221,2029,1803,1871,1983
110513,-44688,-15384,-46416,-13648,3800,-3800,-3,0,1,75,56,3935,10,7,836,1777,1870,2074,2221,2029,1803,1871,1983
111514,-44672,-15380,-46416,-13648,3800,-3800,-3,0,5,46,52,3927,7,-4,835,1777,1870,2074,2221,2029,1803,1871,1983
112515,-44680,-15380,-46416,-13648,3800,-3800,-1,2,4,50,60,3933,-4,-5,836,1777,1870,2074,2221,2029,1803,1871,1983
113516,-44684,-15388,-46416,-13648,3800,-3800,-2,4,1,25,63,3910,-6,1,835,1776,1871,2074,2221,2030,1805,1872,1984
114517,-44684,-15376,-46416,-13648,3800,-3800,-3,3,-1,34,49,3922,4,8,836,1776,1871,2074,2221,2030,1805,1872,1984
115518,-44684,-15372,-46416,-13648,3800,-3800,-3,1,0,21,59,3962,11,-1,835,1776,1871,2074,2221,2030,1805,1872,1984
116519,-44692,-15380,-46416,-13648,3800,-3800,-2,2,3,20,66,3945,-6,-6,835,1776,1871,2074,2221,2030,1805,1872,1984
117523,-44688,-15376,-46416,-13648,3800,-3800,-3,3,3,60,44,3942,-8,3,836,1776,1871,2074,2221,2030,1805,1872,1984
118521,-44684,-15392,-46416,-13648,3800,-3800,-4,5,3,50,98,3934,-4,9,836,1777,1871,2075,2219,2030,1804,1871,1986
119522,-44676,-15388,-46416,-13648,3800,-3800,-5,4,1,59,81,3933,8,5,835,1777,1871,2075,2219,2030,1804,1871,1986
120523,-44680,-15384,-46416,-13648,3800,-3800,-2,4,1,66,73,3932,10,-6,835,1777,1871,2075,2219,2030,1804,1871,1986
121524,-44684,-15388,-46416,-13648,3800,-3800,-2,3,3,49,76,3926,-5,-3,834,1777,1871,2075,2219,2030,1804,1871,1986
122525,-44688,-15392,-46416,-13648,3800,-3800,-5,3,5,31,87,3957,3,0,834,1777,1871,2075,2219,2030,1804,1871,1986
123526,-44688,-15380,-46416,-13648,3800,-3800,-4,0,3,18,86,3969,-8,9,835,1777,1871,2075,2219,2030,1804,1871,1986
124527,-44680,-15376,-46416,-13648,3800,-3800,-4,1,2,42,76,3963,-5,-1,835,1777,1870,2073,2221,2030,1804,1871,1982
125528,-44684,-15380,-46416,-13648,3800,-3800,-5,2,1,55,79,3963,8,-5,836,1777,1870,2073,2221,2030,1804,1871,1982
126529,-44688,-15384,-46416,-13648,3800,-3800,-7,3,0,45,75,3948,8,9,836,1777,1870,2073,2221,2030,1804,1871,1982
127530,-44696,-15372,-46416,-13648,3800,-3800,-5,2,3,61,48,3926,-3,4,835,1777,1870,2073,2221,2030,1804,1871,1982
128531,-44676,-15384,-46416,-13648,3800,-3800,-5,0,5,64,56,3933,-2,-5,836,1777,1870,2073,2221,2030,1804,1871,1982
129532,-44680,-15384,-46416,-13648,3800,-3800,-5,1,3,43,48,3945,10,1,836,1775,1871,2074,2222,2032,1805,1872,1984
130533,-44684,-15384,-46416,-13648,3800,-3800,-4,4,2,59,54,3916,6,9,835,1775,1871,2074,2222,2032,1805,1872,1984
131534,-44692,-15392,-46416,-13648,3800,-3800,-5,4,4,39,50,3908,-8,7,835,1775,1871,2074,2222,2032,1805,1872,1984
132535,-44696,-15380,-46416,-13648,3800,-3800,-4,3,3,47,66,3906,-7,-6,835,1775,1871,2074,2222,2032,1805,1872,1984
133536,-44692,-15392,-46416,-13648,3800,-3800,-6,1,5,38,56,3917,-3,4,835,1775,1871,2074,2222,2032,1805,1872,1984
134537,-44696,-15392,-46416,-13648,3800,-3800,-7,1,3,37,58,3916,10,8,835,1775,1871,2074,2222,2032,1805,1872,1984
135538,-44692,-15380,-46416,-13648,3800,-3800,-6,2,2,36,45,3940,10,-6,835,1776,1869,2073,2221,2029,1803,1871,1983
136539,-44684,-15384,-46416,-13648,3800,-3800,-4,2,0,26,46,3921,7,5,835,1776,1869,2073,2221,2029,1803,1871,1983
137540,-44688,-15376,-46416,-13648,3800,-3800,-2,2,0,45,50,3914,-2,8,835,1776,1869,2073,2221,2029,1803,1871,1983
138541,-44680,-15380,-46416,-13648,3800,-3800,-3,2,3,41,70,3911,-8,-5,834,1776,1869,2073,2221,2029,1803,1871,1983
139542,-44700,-15388,-46416,-13648,3800,-3800,-4,1,1,55,80,3938,10,-4,833,1776,1869,2073,2221,2029,1803,1871,1983
140543,-44680,-15392,-46416,-13648,3800,-3800,-5,2,-1,45,74,3922,-3,7,835,1778,1872,2072,2220,2029,1802,1870,1984
141544,-44696,-15380,-46416,-13648,3800,-3800,-7,3,0,33,77,3896,-3,5,836,1778,1872,2072,2220,2029,1802,1870,1984
142545,-44688,-15388,-46416,-13648,3800,-3800,-7,2,0,54,67,3940,-6,-3,835,1778,1872,2072,2220,2029,1802,1870,1984
143546,-44684,-15388,-46416,-13648,3800,-3800,-6,-1,3,49,65,3988,-5,-6,835,1778,1872,2072,2220,2029,1802,1870,1984
144547,-44676,-15384,-46416,-13648,3800,-3800,-6,0,4,65,56,3930,3,5,835,1778,1872,2072,2220,2029,1802,1870,1984
145548,-44688,-15364,-46416,-13648,3800,-3800,-6,2,0,49,61,3939,7,9,836,1775,1869,2072,2220,2029,1803,1871,1982
146549,-44680,-15380,-46416,-13648,3800,-3800,-5,4,-2,39,64,3938,8,6,836,1775,1869,2072,2220,2029,1803,1871,1982
147550,-44684,-15384,-46416,-13648,3800,-3800,-3,3,3,22,52,3941,-5,-6,835,1775,1869,2072,2220,2029,1803,1871,1982
148551,-44672,-15384,-46416,-13648,3800,-3800,-3,1,2,39,50,3938,-8,1,836,1775,1869,2072,2220,2029,1803,1871,1982
149552,-44684,-15384,-46416,-13648,3800,-3800,-4,0,-1,16,36,3923,-2,9,835,1775,1869,2072,2220,2029,1803,1871,1982
150553,-44688,-15396,-46416,-13648,3800,-3800,-5,0,0,27,67,3952,6,-3,835,1775,1869,2072,2220,2029,1803,1871,1982
151554,-44680,-15376,-46416,-13648,3800,-3800,-4,2,2,34,67,3949,8,-4,835,1776,1870,2073,2221,2029,1803,1871,1983
152555,-44680,-15380,-46416,-13648,3800,-3800,-5,2,1,42,64,3910,10,7,836,1776,1870,2073,2221,2029,1803,1871,1983
153556,-44696,-15384,-46416,-13648,3800,-3800,-6,3,0,32,58,3916,8,-1,835,1776,1870,2073,2221,2029,1803,1871,1983
154557,-44680,-15396,-46416,-13648,3800,-3800,-5,1,0,45,55,3917,6,-6,835,1776,1870,2073,2221,2029,1803,1871,1983
155558,-44684,-15380,-46416,-13648,3800,-3800,-3,3,0,54,65,3908,-8,-4,834,1776,1870,2073,2221,2029,1803,1871,1983
156559,-44696,-15388,-46416,-13648,3800,-3800,-3,4,0,21,38,3917,10,4,834,1777,1870,2073,2221,2029,1802,1871,1983
157560,-44684,-15384,-46416,-13648,3800,-3800,-5,1,1,15,56,3937,2,9,836,1777,1870,2073,2221,2029,1802,1871,1983
158561,-44684,-15384,-46416,-13648,3800,-3800,-3,0,2,33,59,3913,-8,3,835,1777,1870,2073,2221,2029,1802,1871,1983
159562,-44684,-15380,-46416,-13648,3800,-3800,-5,-1,2,33,52,3958,-3,-6,835,1777,1870,2073,2221,2029,1802,1871,1983
160563,-44700,-15380,-46416,-13648,3800,-3800,-7,2,1,28,42,3933,7,-2,835,1777,1870,2073,2221,2029,1802,1871,1983
161564,-44692,-15384,-46416,-13648,3800,-3800,-5,3,0,30,59,3942,5,4,835,1777,1870,2073,2221,2029,1802,1871,1983
162565,-44692,-15380,-46416,-13648,3800,-3800,-3,3,2,56,50,3934,-2,8,836,1776,1870,2073,2222,2030,1803,1871,1983
163566,-44692,-15380,-46416,-13648,3800,-3800,-3,2,2,42,50,3888,-6,0,836,1776,1870,2073,2222,2030,1803,1871,1983
164567,-44696,-15392,-46416,-13648,3800,-3800,-5,1,4,22,64,3923,-7,-6,836,1776,1870,2073,2222,2030,1803,1871,1983
165568,-44684,-15376,-46416,-13648,3800,-3800,-5,2,6,29,68,3956,-2,7,836,1776,1870,2073,2222,2030,1803,1871,1983
166569,-44688,-15384,-46416,-13648,3800,-3800,-5,2,3,38,60,3916,5,6,835,1776,1870,2073,2222,2030,1803,1871,1983
167570,-44688,-15396,-46416,-13648,3800,-3800,-5,0,4,53,59,3919,10,-3,835,1777,1870,2074,2222,2029,1799,1867,1983
168571,-44684,-15384,-46416,-13648,3800,-3800,-4,1,3,35,74,3889,9,-2,836,1777,1870,2074,2222,2029,1799,1867,1983
169572,-44688,-15388,-46416,-13648,3800,-3800,0,4,3,43,64,3890,6,7,835,1777,1870,2074,2222,2029,1799,1867,1983
170573,-44676,-15384,-46416,-13648,3800,-3800,0,3,2,24,65,3964,-4,6,835,1777,1870,2074,2222,2029,1799,1867,1983
171574,-44692,-15400,-46416,-13648,3800,-3800,-2,0,4,43,70,3965,-8,-5,835,1777,1870,2074,2222,2029,1799,1867,1983
172575,-44692,-15384,-46416,-13648,3800,-3800,-4,-1,4,51,46,3939,-4,3,834,1777,1870,2074,2222,2029,1799,1867,1983
173576,-44684,-15384,-46416,-13648,3800,-3800,-4,0,5,48,61,3958,-2,5,834,1776,1871,2074,2223,2030,1803,1871,1983
174577,-44684,-15396,-46416,-13648,3800,-3800,-3,1,5,29,59,3939,-6,4,836,1776,1871,2074,2223,2030,1803,1871,1983
175578,-44684,-15384,-46416,-13648,3800,-3800,-2,0,4,57,37,3923,-9,-4,835,1776,1871,2074,2223,2030,1803,1871,1983
176579,-44688,-15384,-46416,-13648,3800,-3800,0,2,1,70,36,3922,1,-6,836,1776,1871,2074,2223,2030,1803,1871,1983
177580,-44692,-15392,-46416,-13648,3800,-3800,-2,4,2,44,58,3941,6,3,835,1776,1871,2074,2223,2030,1803,1871,1983
178581,-44688,-15400,-46416,-13648,3800,-3800,-4,5,3,39,56,3941,9,9,836,1775,1870,2075,2223,2032,1804,1872,1984
179582,-44660,-15380,-46416,-13648,3800,-3800,-4,4,2,38,52,3941,10,7,835,1775,1870,2075,2223,2032,1804,1872,1984
180583,-44676,-15376,-46416,-13648,3800,-3800,-4,2,3,52,55,3954,10,-6,835,1775,1870,2075,2223,2032,1804,1872,1984
181584,-44684,-15372,-46416,-13648,3800,-3800,-3,0,2,43,35,3915,5,1,836,1775,1870,2075,2223,2032,1804,1872,1984
182585,-44684,-15392,-46416,-13648,3800,-3800,-3,-1,0,21,27,3940,-6,9,836,1775,1870,2075,2223,2032,1804,1872,1984
183586,-44680,-15384,-46416,-13648,3800,-3800,-3,3,1,27,25,3924,-7,-1,835,1775,1870,2075,2223,2032,1804,1872,1984
184587,-44696,-15388,-46416,-13648,3800,-3800,-4,4,2,35,50,3921,-8,-5,835,1776,1870,2073,2222,2029,1803,1871,1983
185588,-44676,-15392,-46416,-13648,3800,-3800,-3,4,1,43,36,3949,-5,7,835,1776,1870,2073,2222,2029,1803,1871,1983
186589,-44680,-15380,-46416,-13648,3800,-3800,-4,4,2,62,44,3953,-4,5,836,1776,1870,2073,2222,2029,1803,1871,1983
187590,-44684,-15392,-46416,-13648,3800,-3800,-5,1,4,56,63,3908,0,-4,836,1776,1870,2073,2222,2029,1803,1871,1983
188591,-44692,-15384,-46416,-13648,3800,-3800,-3,-1,4,36,88,3943,9,-5,835,1776,1870,2073,2222,2029,1803,1871,1983
189592,-44692,-15384,-46416,-13648,3800,-3800,-5,0,1,39,59,3950,9,5,834,1776,1869,2073,2221,2030,1804,1871,1983
190593,-44680,-15396,-46416,-13648,3800,-3800,-4,2,0,19,43,3894,-7,6,833,1776,1869,2073,2221,2030,1804,1871,1983
191594,-44688,-15392,-46416,-13648,3800,-3800,-3,1,1,14,54,3887,9,9,835,1776,1869,2073,2221,2030,1804,1871,1983
192595,-44688,-15380,-46416,-13648,3800,-3800,-2,1,2,24,61,3924,10,-6,835,1776,1869,2073,2221,2030,1804,1871,1983
193596,-44680,-15380,-46416,-13648,3800,-3800,-3,2,1,48,45,3935,11,-5,835,1776,1869,2073,2221,2030,1804,1871,1983
194597,-44696,-15384,-46416,-13648,3800,-3800,-4,3,1,51,77,3955,4,2,835,1776,1869,2073,2221,2030,1804,1871,1983
195598,-44688,-15384,-46416,-13648,3800,-3800,-4,3,1,46,59,3929,7,4,836,1776,1870,2073,2222,2030,1801,1869,1983
196599,-44672,-15376,-46416,-13648,3800,-3800,-3,1,0,50,61,3929,9,-6,836,1776,1870,2073,2222,2030,1801,1869,1983
197600,-44684,-15388,-46416,-13648,3800,-3800,-4,1,1,55,74,3976,3,-3,835,1776,1870,2073,2222,2030,1801,1869,1983
198601,-44688,-15388,-46416,-13648,3800,-3800,-4,3,2,26,84,3909,2,9,836,1776,1870,2073,2222,2030,1801,1869,1983
199602,-44684,-15396,-46416,-13648,3800,-3800,-6,2,3,29,92,3919,4,2,835,1776,1870,2073,2222,2030,1801,1869,1983
200603,-44692,-15380,-46416,-13648,3800,-3800,-7,4,2,43,46,3991,6,-5,836,1777,1870,2073,2222,2028,1803,1870,1982
201604,-44692,-15384,-46416,-13648,3800,-3800,-6,1,-1,48,47,3943,7,1,836,1777,1870,2073,2222,2028,1803,1870,1982
202605,-44680,-15384,-46351,-13583,-1765,2623,-5,-1,-3,38,63,3930,9,9,836,1777,1870,2073,2222,2028,1803,1870,1982
203606,-44676,-15364,-46286,-13518,-1592,2428,-4,3,0,36,57,3939,1,-17,835,1777,1870,2073,2222,2028,1803,1870,1982
204607,-44696,-15348,-46221,-13453,-1189,2539,-7,7,2,51,54,3957,17,15,798,1777,1870,2073,2222,2028,1803,1870,1982
205608,-44688,-15288,-46156,-13388,-1469,1996,-10,2,1,16,65,3954,7,22,807,1777,1870,2073,2222,2028,1803,1870,1982
206609,-44684,-15196,-46091,-13323,-1346,1563,-9,-14,3,-85,89,4078,16,57,804,1777,1872,2074,2224,2015,1786,1863,1976
207610,-44692,-15072,-46026,-13258,-1107,1092,-5,-35,0,-215,102,4075,0,56,814,1777,1872,2074,2224,2015,1786,1863,1976
208611,-44672,-14948,-45961,-13193,-1403,1021,-1,-68,-5,-161,100,4171,17,66,819,1777,1872,2074,2224,2015,1786,1863,1976
209612,-44696,-14812,-45896,-13128,-744,784,4,-79,-14,-175,76,4308,-3,74,827,1777,1872,2074,2224,2015,1786,1863,1976
210613,-44684,-14688,-45831,-13063,-1131,863,17,-95,-17,81,54,4087,15,71,827,1777,1872,2074,2224,2015,1786,1863,1976
211614,-44680,-14564,-45766,-12998,-956,792,11,-99,-22,270,14,4212,-3,79,830,1775,1874,2079,2230,2036,1810,1880,1992
212615,-44696,-14420,-45701,-12933,-608,446,1,-72,-36,261,-105,3888,-3,67,827,1775,1874,2079,2230,2036,1810,1880,1992
213616,-44688,-14304,-45636,-12868,-839,734,-14,-12,-50,179,-94,3944,7,84,830,1775,1874,2079,2230,2036,1810,1880,1992
214617,-44688,-14160,-45571,-12803,-660,288,-30,52,-61,110,-110,3737,15,79,833,1775,1874,2079,2230,2036,1810,1880,1992
215619,-44672,-14016,-45506,-12738,-801,193,-37,119,-72,-22,-153,3905,8,87,831,1775,1874,2079,2230,2036,1810,1880,1992
216619,-44688,-13900,-45441,-12673,-302,480,-50,112,-75,-382,18,3819,15,80,833,1775,1874,2079,2230,2036,1810,1880,1992
217620,-44684,-13744,-45376,-12608,-477,-130,-46,42,-74,-688,79,3966,-1,81,834,1790,1885,2087,2236,2036,1816,1883,1994
218621,-44692,-13628,-45311,-12543,-239,308,-50,-51,-83,-653,59,4033,-1,70,833,1790,1885,2087,2236,2036,1816,1883,1994
219622,-44696,-13488,-45246,-12478,-205,-83,-57,-167,-91,-642,55,4115,12,74,835,1790,1885,2087,2236,2036,1816,1883,1994
220623,-44688,-13348,-45181,-12413,-285,-174,-68,-223,-93,-703,62,4372,10,62,817,1790,1885,2087,2236,2036,1816,1883,1994
221624,-44684,-13236,-45116,-12348,-161,118,-71,-250,-89,-331,79,4257,9,66,835,1790,1885,2087,2236,2036,1816,1883,1994
222625,-44680,-13120,-45051,-12283,-87,7,-67,-232,-107,0,-115,4184,8,58,835,1771,1865,2071,2217,2040,1816,1858,2006
223626,-44680,-13004,-44986,-12218,42,-55,-59,-197,-127,99,-80,4271,15,61,822,1771,1865,2071,2217,2040,1816,1858,2006
224627,-44700,-12896,-44921,-12153,396,-8,-50,-139,-126,272,-29,4439,7,63,830,1771,1865,2071,2217,2040,1816,1858,2006
225628,-44692,-12784,-44856,-12088,115,-114,-41,-76,-133,221,-44,4333,0,54,835,1771,1865,2071,2217,2040,1816,1858,2006
226629,-44688,-12688,-44791,-12023,240,48,-28,-27,-154,171,-35,4352,0,53,833,1771,1865,2071,2217,2040,1816,1858,2006
227630,-44676,-12584,-44726,-11958,204,-99,-25,-23,-165,-56,-36,4272,-3,49,834,1771,1865,2071,2217,2040,1816,1858,2006
228631,-44672,-12520,-44661,-11893,379,402,-25,-39,-169,-155,8,4117,4,53,834,1776,1874,2076,2224,2044,1816,1888,2000
229632,-44672,-12428,-44596,-11828,508,20,-40,-103,-181,-412,-7,3982,0,35,834,1776,1874,2076,2224,2044,1816,1888,2000
230633,-44660,-12348,-44531,-11763,423,152,-77,-209,-195,-327,-49,3744,16,48,831,1776,1874,2076,2224,2044,1816,1888,2000
231634,-44656,-12280,-44466,-11698,597,298,-101,-254,-203,-249,-60,3629,10,36,832,1776,1874,2076,2224,2044,1816,1888,2000
232635,-44628,-12224,-44401,-11633,343,459,-121,-290,-213,-261,-136,3685,17,47,832,1776,1874,2076,2224,2044,1816,1888,2000
233636,-44612,-12156,-44336,-11568,552,305,-136,-311,-221,-320,-143,3737,9,44,830,1793,1892,2094,2242,2038,1811,1882,1975
234637,-44596,-12112,-44271,-11503,612,632,-136,-304,-230,-124,-160,3871,26,46,831,1793,1892,2094,2242,2038,1811,1882,1975
235638,-44568,-12032,-44206,-11438,507,164,-129,-297,-232,92,-190,3950,17,32,830,1793,1892,2094,2242,2038,1811,1882,1975
236639,-44516,-11988,-44141,-11373,224,639,-120,-271,-228,79,-171,3991,27,44,827,1793,1892,2094,2242,2038,1811,1882,1975
237640,-44492,-11936,-44076,-11308,624,555,-104,-245,-224,91,-215,4000,24,37,831,1793,1892,2094,2242,2038,1811,1882,1975
238641,-44472,-11876,-44011,-11243,729,462,-88,-209,-222,46,-173,4038,20,28,830,1793,1892,2094,2242,2038,1811,1882,1975
239642,-44416,-11852,-43946,-11178,290,962,-70,-188,-214,23,-115,4060,33,28,828,1782,1878,2071,2213,2026,1793,1866,1979
240643,-44376,-11792,-43881,-11113,521,518,-56,-178,-198,35,-163,3868,35,27,825,1782,1878,2071,2213,2026,1793,1866,1979
241644,-44328,-11712,-43816,-11048,442,250,-44,-181,-190,-133,-113,3940,37,29,824,1782,1878,2071,2213,2026,1793,1866,1979
242645,-44288,-11676,-43751,-10983,573,836,-32,-192,-184,-222,-73,3877,27,37,828,1782,1878,2071,2213,2026,1793,1866,1979
243646,-44228,-11632,-43686,-10918,329,762,-24,-222,-180,-121,-96,3822,27,40,832,1782,1878,2071,2213,2026,1793,1866,1979
244647,-44188,-11580,-43621,-10853,610,678,-15,-248,-178,96,-161,3658,45,29,826,1756,1851,2047,2195,1999,1775,1847,1946
245648,-44136,-11528,-43556,-10788,476,694,-18,-269,-177,-56,-182,3665,33,41,828,1756,1851,2047,2195,1999,1775,1847,1946
246649,-44080,-11476,-43491,-10723,436,711,-15,-270,-174,-105,-128,3656,35,37,826,1756,1851,2047,2195,1999,1775,1847,1946
247650,-44036,-11412,-43426,-10658,613,562,-22,-269,-174,-41,-203,3670,31,37,828,1756,1851,2047,2195,1999,1775,1847,1946
248651,-43972,-11364,-43361,-10593,364,783,-28,-241,-173,157,-199,3723,39,33,828,1756,1851,2047,2195,1999,1775,1847,1946
249652,-43916,-11300,-43296,-10528,475,585,-29,-220,-159,349,-167,3802,31,38,826,1756,1851,2047,2195,1999,1775,1847,1946
250653,-43868,-11256,-43231,-10463,596,861,-25,-181,-135,452,-223,3835,39,36,827,1767,1856,2055,2217,1993,1773,1846,1947
251654,-43812,-11212,-43166,-10398,508,886,-20,-146,-122,389,-302,3775,48,27,829,1767,1856,2055,2217,1993,1773,1846,1947
252655,-43760,-11164,-43101,-10333,574,857,-14,-131,-110,262,-435,3505,52,38,825,1767,1856,2055,2217,1993,1773,1846,1947
253656,-43680,-11104,-43036,-10268,206,714,3,-123,-75,35,-306,3793,54,41,825,1767,1856,2055,2217,1993,1773,1846,1947
254657,-43600,-11052,-42971,-10203,187,830,9,-114,-59,-66,-274,3462,56,37,825,1767,1856,2055,2217,1993,1773,1846,1947
255658,-43552,-11004,-42906,-10138,609,901,24,-113,-46,-42,-327,3692,43,41,829,1780,1863,2063,2228,2008,1784,1855,1961
256659,-43484,-10948,-42841,-10073,355,813,43,-151,-9,166,-197,3581,46,42,828,1780,1863,2063,2228,2008,1784,1855,1961
257660,-43404,-10900,-42776,-10008,187,933,59,-155,12,169,-261,3695,54,44,823,1780,1863,2063,2228,2008,1784,1855,1961
258661,-43340,-10832,-42711,-9943,388,680,69,-139,23,-60,-333,3813,39,38,825,1780,1863,2063,2228,2008,1784,1855,1961
259662,-43272,-10776,-42646,-9878,336,842,89,-121,31,130,-191,3889,40,40,827,1780,1863,2063,2228,2008,1784,1855,1961
260663,-43224,-10704,-42581,-9813,606,633,102,-118,56,162,-211,3917,36,42,828,1780,1863,2063,2228,2008,1784,1855,1961
261664,-43144,-10652,-42516,-9748,188,899,124,-80,66,77,-38,4092,38,40,827,1772,1859,2065,2219,2016,1787,1859,1967
262665,-43088,-10600,-42451,-9683,499,916,135,-69,62,81,-136,4065,50,28,827,1772,1859,2065,2219,2016,1787,1859,1967
263666,-43024,-10536,-42386,-9618,400,767,145,-51,59,291,-152,3903,37,38,827,1772,1859,2065,2219,2016,1787,1859,1967
264667,-42952,-10476,-42321,-9553,293,823,158,-16,68,318,-69,4172,42,43,825,1772,1859,2065,2219,2016,1787,1859,1967
265668,-42888,-10420,-42256,-9488,394,885,162,-7,76,55,1,4041,49,31,827,1772,1859,2065,2219,2016,1787,1859,1967
266669,-42828,-10356,-42191,-9423,450,786,163,-19,82,-94,-1,4029,41,30,828,1773,1869,2065,2220,2013,1784,1862,1971
267670,-42760,-10300,-42126,-9358,346,898,168,-37,90,79,12,4061,44,30,826,1773,1869,2065,2220,2013,1784,1862,1971
268671,-42696,-10256,-42061,-9293,399,1074,166,-61,100,62,38,4040,51,43,827,1773,1869,2065,2220,2013,1784,1862,1971
269672,-42644,-10204,-41996,-9228,565,990,163,-68,117,290,18,4062,36,42,827,1773,1869,2065,2220,2013,1784,1862,1971
270673,-42592,-10148,-41931,-9163,580,952,162,-70,129,285,-19,4104,38,33,824,1773,1869,2065,2220,2013,1784,1862,1971
271675,-42512,-10080,-41866,-9098,212,798,171,-70,143,112,-68,3988,44,33,824,1773,1869,2065,2220,2013,1784,1862,1971
272675,-42464,-10024,-41801,-9033,634,959,175,-91,160,122,-118,3894,51,35,828,1778,1872,2064,2216,2030,1804,1864,1984
273676,-42400,-9952,-41736,-8968,435,752,189,-111,175,43,-60,3935,49,32,822,1778,1872,2064,2216,2030,1804,1864,1984
274677,-42340,-9900,-41671,-8903,491,1018,214,-114,178,165,-24,4157,42,38,826,1778,1872,2064,2216,2030,1804,1864,1984
275678,-42264,-9844,-41606,-8838,278,980,235,-133,192,350,-69,3934,34,42,824,1778,1872,2064,2216,2030,1804,1864,1984
276679,-42200,-9776,-41541,-8773,430,826,249,-132,200,241,-62,3987,40,36,826,1778,1872,2064,2216,2030,1804,1864,1984
277680,-42140,-9716,-41476,-8708,486,932,257,-132,200,-187,-24,4180,41,47,826,1797,1915,2119,2266,2060,1831,1903,2000
278681,-42076,-9644,-41411,-8643,437,774,265,-128,206,66,42,4086,50,41,825,1797,1915,2119,2266,2060,1831,1903,2000
279682,-42008,-9584,-41346,-8578,384,931,279,-156,209,188,18,4234,39,32,827,1797,1915,2119,2266,2060,1831,1903,2000
280683,-41960,-9540,-41281,-8513,655,1156,280,-174,207,125,95,4079,39,41,826,1797,1915,2119,2266,2060,1831,1903,2000
281684,-41892,-9468,-41216,-8448,402,799,273,-207,211,35,51,4139,31,32,821,1797,1915,2119,2266,2060,1831,1903,2000
282685,-41820,-9408,-41151,-8383,343,955,267,-223,213,-35,211,4166,44,36,827,1797,1915,2119,2266,2060,1831,1903,2000
283686,-41772,-9348,-41086,-8318,664,962,258,-258,208,-80,149,4151,49,45,826,1794,1887,2091,2235,2031,1797,1865,1985
284687,-41720,-9272,-41021,-8253,631,748,256,-251,193,-101,235,4386,41,41,822,1794,1887,2091,2235,2031,1797,1865,1985
285688,-41648,-9220,-40956,-8188,372,1064,257,-260,186,14,328,4331,37,41,825,1794,1887,2091,2235,2031,1797,1865,1985
286689,-41580,-9156,-40891,-8123,419,916,255,-270,188,241,293,4262,52,39,824,1794,1887,2091,2235,2031,1797,1865,1985
287690,-41532,-9092,-40826,-8058,689,918,252,-287,177,234,215,4177,35,30,825,1794,1887,2091,2235,2031,1797,1865,1985
288691,-41472,-9044,-40761,-7993,546,1139,252,-283,164,-36,152,4121,42,42,822,1784,1875,2072,2220,2032,1802,1877,2000
289692,-41416,-9000,-40696,-7928,607,1215,249,-258,159,43,134,4133,42,44,822,1784,1875,2072,2220,2032,1802,1877,2000
290693,-41364,-8928,-40631,-7863,673,857,256,-223,157,112,131,4305,38,44,818,1784,1875,2072,2220,2032,1802,1877,2000
291694,-41304,-8860,-40566,-7798,580,904,275,-216,162,-153,162,4131,53,32,822,1784,1875,2072,2220,2032,1802,1877,2000
292695,-41240,-8812,-40501,-7733,532,1175,292,-226,162,-127,149,4128,45,32,824,1784,1875,2072,2220,2032,1802,1877,2000
293696,-41160,-8780,-40436,-7668,313,1416,303,-244,142,167,92,4100,44,37,821,1784,1875,2072,2220,2032,1802,1877,2000
294697,-41108,-8716,-40371,-7603,679,1017,314,-287,156,13,55,4004,39,27,820,1774,1872,2072,2210,2041,1809,1879,1999
295698,-41052,-8680,-40306,-7538,641,1403,320,-295,176,-236,182,4161,51,32,822,1774,1872,2072,2210,2041,1809,1879,1999
296699,-40980,-8632,-40241,-7473,433,1274,326,-305,182,-202,236,3965,37,31,817,1774,1872,2072,2210,2041,1809,1879,1999
297700,-40912,-8584,-40176,-7408,479,1295,331,-326,174,-162,200,3914,43,42,820,1774,1872,2072,2210,2041,1809,1879,1999
298701,-40840,-8520,-40111,-7343,420,1097,334,-350,178,-42,57,3897,47,39,820,1774,1872,2072,2210,2041,1809,1879,1999
299702,-40772,-8468,-40046,-7278,468,1263,331,-341,181,1,227,3996,48,41,823,1776,1864,2072,2217,2026,1806,1871,1982
300703,-40712,-8408,-39981,-7213,574,1170,331,-325,172,28,266,3957,41,31,820,1776,1864,2072,2217,2026,1806,1871,1982
301704,-40644,-8360,-39916,-7148,470,1341,323,-325,155,142,268,3997,52,30,821,1776,1864,2072,2217,2026,1806,1871,1982
302705,-40588,-8296,-39851,-7083,632,1143,307,-324,151,147,215,3960,51,45,819,1776,1864,2072,2217,2026,1806,1871,1982
303706,-40516,-8240,-39786,-7018,424,1254,299,-308,141,94,341,4031,47,31,820,1776,1864,2072,2217,2026,1806,1871,1982
304707,-40464,-8176,-39721,-6953,689,1155,289,-295,130,43,304,4021,49,44,821,1776,1864,2072,2217,2026,1806,1871,1982
305708,-40404,-8120,-39656,-6888,596,1267,293,-281,111,376,256,4174,41,33,819,1782,1869,2072,2223,2015,1789,1852,1963
306709,-40336,-8068,-39591,-6823,493,1333,298,-279,105,231,169,3946,51,33,819,1782,1869,2072,2223,2015,1789,1852,1963
307710,-40272,-8012,-39526,-6758,544,1295,297,-259,99,34,202,4161,43,35,819,1782,1869,2072,2223,2015,1789,1852,1963
308711,-40212,-7960,-39461,-6693,600,1361,308,-248,93,-31,177,3982,35,46,818,1782,1869,2072,2223,2015,1789,1852,1963
309712,-40164,-7876,-39396,-6628,772,939,326,-237,90,-104,138,4190,53,39,817,1782,1869,2072,2223,2015,1789,1852,1963
310713,-40096,-7808,-39331,-6563,518,1135,345,-255,81,-137,231,4047,47,37,821,1736,1856,2056,2215,2023,1788,1858,1973
311714,-40040,-7764,-39266,-6498,679,1462,352,-251,72,-32,185,4093,42,37,822,1736,1856,2056,2215,2023,1788,1858,1973
312715,-39976,-7696,-39201,-6433,581,1158,363,-271,69,148,311,3955,47,42,816,1736,1856,2056,2215,2023,1788,1858,1973
313716,-39936,-7636,-39136,-6368,912,1265,366,-273,75,-42,292,4149,36,46,820,1736,1856,2056,2215,2023,1788,1858,1973
314717,-39876,-7572,-39071,-6303,668,1217,380,-279,85,-42,225,3855,48,33,816,1736,1856,2056,2215,2023,1788,1858,1973
315718,-39800,-7504,-39006,-6238,455,1164,379,-280,82,-31,247,3931,42,49,819,1736,1856,2056,2215,2023,1788,1858,1973
316719,-39720,-7456,-38941,-6173,387,1435,394,-261,74,-205,206,4013,55,35,822,1770,1872,2108,2264,2048,1808,1903,2015
317720,-39656,-7380,-38876,-6108,589,1072,402,-231,68,59,164,3966,38,30,819,1770,1872,2108,2264,2048,1808,1903,2015
318721,-39600,-7316,-38811,-6043,700,1223,419,-229,64,88,176,3941,50,32,822,1770,1872,2108,2264,2048,1808,1903,2015
319722,-39540,-7264,-38746,-5978,657,1390,438,-218,52,141,360,4033,35,42,819,1770,1872,2108,2264,2048,1808,1903,2015
320723,-39472,-7212,-38681,-5913,553,1406,446,-240,41,211,290,3843,53,36,817,1770,1872,2108,2264,2048,1808,1903,2015
321724,-39416,-7156,-38616,-5848,714,1368,457,-251,14,164,379,3970,53,38,817,1786,1883,2091,2239,2027,1795,1865,1975
322725,-39348,-7092,-38551,-5783,560,1269,461,-268,5,151,415,4043,41,37,817,1786,1883,2091,2239,2027,1795,1865,1975
323726,-39292,-7020,-38486,-5718,722,1162,481,-273,-9,281,330,3834,50,48,819,1786,1883,2091,2239,2027,1795,1865,1975
324727,-39236,-6960,-38421,-5653,733,1318,494,-292,-20,184,292,4065,48,36,818,1786,1883,2091,2239,2027,1795,1865,1975
325728,-39168,-6912,-38356,-5588,580,1490,517,-313,-39,207,236,3957,41,47,815,1786,1883,2091,2239,2027,1795,1865,1975
326729,-39100,-6844,-38291,-5523,577,1236,529,-319,-53,156,222,4199,39,34,816,1786,1883,2091,2239,2027,1795,1865,1975
327730,-39040,-6768,-38226,-5458,683,1124,558,-313,-73,209,341,4165,53,47,820,1782,1874,2081,2235,1997,1772,1841,1950
328731,-38984,-6720,-38161,-5393,744,1494,577,-322,-81,107,279,4100,50,35,820,1782,1874,2081,2235,1997,1772,1841,1950
329732,-38912,-6668,-38096,-5328,537,1461,599,-337,-105,227,237,4050,53,37,815,1782,1874,2081,2235,1997,1772,1841,1950
330733,-38864,-6604,-38031,-5263,857,1312,623,-337,-126,14,182,4106,46,33,817,1782,1874,2081,2235,1997,1772,1841,1950
331734,-38796,-6532,-37966,-5198,604,1205,651,-338,-156,-107,320,4125,39,48,816,1782,1874,2081,2235,1997,1772,1841,1950
332735,-38740,-6488,-37901,-5133,765,1581,679,-325,-174,196,425,4122,53,40,820,1786,1877,2071,2222,1974,1762,1842,1938
333736,-38664,-6416,-37836,-5068,502,1223,722,-381,-176,604,423,3757,42,31,813,1786,1877,2071,2222,1974,1762,1842,1938
334737,-38596,-6364,-37771,-5003,599,1489,753,-456,-172,87,245,3896,47,46,820,1786,1877,2071,2222,1974,1762,1842,1938
335738,-38536,-6312,-37706,-4938,705,1506,759,-462,-167,-127,233,4003,38,33,816,1786,1877,2071,2222,1974,1762,1842,1938
336739,-38472,-6256,-37641,-4873,657,1467,757,-419,-166,-307,257,4169,52,32,815,1786,1877,2071,2222,1974,1762,1842,1938
337740,-38400,-6164,-37576,-4808,548,985,772,-387,-161,-27,308,3969,52,33,815,1786,1877,2071,2222,1974,1762,1842,1938
338741,-38332,-6116,-37511,-4743,595,1556,770,-391,-160,260,241,4040,52,38,822,1783,1881,2086,2244,1975,1754,1835,1941
339742,-38272,-6056,-37446,-4678,702,1413,791,-398,-154,278,244,4033,51,33,815,1783,1881,2086,2244,1975,1754,1835,1941
340743,-38212,-6004,-37381,-4613,708,1528,796,-419,-140,65,185,3808,35,28,815,1783,1881,2086,2244,1975,1754,1835,1941
341744,-38148,-5952,-37316,-4548,659,1545,807,-408,-148,113,286,4136,50,27,813,1783,1881,2086,2244,1975,1754,1835,1941
342747,-38100,-5896,-37251,-4483,881,1506,806,-391,-169,281,317,3975,50,43,813,1783,1881,2086,2244,1975,1754,1835,1941
343746,-38036,-5832,-37186,-4418,682,1409,827,-392,-181,248,298,4163,48,44,812,1796,1885,2077,2230,1991,1767,1840,1955
344747,-37968,-5788,-37121,-4353,628,1684,845,-395,-202,240,268,3915,47,46,816,1796,1885,2077,2230,1991,1767,1840,1955
345748,-37908,-5724,-37056,-4288,736,1436,874,-419,-222,49,176,4090,36,29,813,1796,1885,2077,2230,1991,1767,1840,1955
346749,-37868,-5664,-36991,-4223,1016,1493,876,-426,-238,261,194,4036,50,32,815,1796,1885,2077,2230,1991,1767,1840,1955
347750,-37796,-5600,-36926,-4158,608,1445,895,-437,-237,370,154,4115,52,33,810,1796,1885,2077,2230,1991,1767,1840,1955
348751,-37728,-5548,-36861,-4093,655,1612,901,-435,-230,363,195,4071,51,34,816,1796,1885,2077,2230,1991,1767,1840,1955
349752,-37664,-5500,-36796,-4028,706,1682,915,-428,-230,15,122,4027,45,30,813,1760,1848,2073,2223,2020,1792,1840,1960
350753,-37624,-5440,-36731,-3963,1037,1539,918,-439,-215,81,113,4048,52,38,811,1760,1848,2073,2223,2020,1792,1840,1960
351754,-37564,-5368,-36666,-3898,794,1381,933,-464,-189,157,73,3973,52,42,810,1760,1848,2073,2223,2020,1792,1840,1960
352755,-37496,-5300,-36601,-3833,690,1428,935,-488,-165,-126,141,4248,37,42,815,1760,1848,2073,2223,2020,1792,1840,1960
353756,-37436,-5248,-36536,-3768,796,1644,935,-473,-145,-124,4,4179,54,33,816,1760,1848,2073,2223,2020,1792,1840,1960
354757,-37384,-5180,-36471,-3703,913,1441,942,-481,-125,22,41,4098,42,37,812,1760,1856,2065,2255,2079,1814,1888,2000
355758,-37324,-5128,-36406,-3638,819,1657,929,-476,-110,63,268,4267,56,50,813,1760,1856,2065,2255,2079,1814,1888,2000
356759,-37264,-5052,-36341,-3573,825,1345,922,-460,-91,110,194,4169,40,37,811,1760,1856,2065,2255,2079,1814,1888,2000
357760,-37204,-4996,-36276,-3508,832,1607,897,-461,-65,164,195,4062,43,43,815,1760,1856,2065,2255,2079,1814,1888,2000
358761,-37128,-4932,-36211,-3443,619,1508,885,-476,-37,256,204,4064,53,37,812,1760,1856,2065,2255,2079,1814,1888,2000
359762,-37068,-4868,-36146,-3378,825,1510,859,-494,-24,128,140,4023,42,36,813,1771,1867,2075,2215,2047,1814,1888,2000
360763,-36996,-4812,-36081,-3313,667,1621,836,-491,-19,-168,151,4231,49,46,813,1771,1867,2075,2215,2047,1823,1887,2015
361764,-36932,-4752,-36016,-3248,769,1578,804,-467,3,1,114,4155,45,40,812,1771,1867,2075,2215,2047,1823,1887,2015
362765,-36872,-4684,-35951,-3183,825,1475,781,-510,28,441,22,3701,55,35,812,1771,1867,2075,2215,2047,1823,1887,2015
363766,-36816,-4620,-35886,-3118,887,1527,740,-570,31,492,5,3857,50,39,812,1771,1867,2075,2215,2047,1823,1887,2015
364767,-36744,-4560,-35821,-3053,678,1584,686,-607,25,150,32,3995,39,30,812,1771,1867,2075,2215,2047,1823,1887,2015
365768,-36668,-4516,-35756,-2988,615,1810,619,-553,18,156,4,4072,39,35,813,1755,1856,2060,2194,2058,1811,1880,2016
366769,-36612,-4476,-35691,-2923,877,1891,562,-429,-8,-333,-143,4616,35,27,809,1755,1856,2060,2194,2058,1811,1880,2016
367770,-36552,-4400,-35626,-2858,833,1428,544,-401,-9,217,252,3866,44,39,806,1755,1856,2060,2194,2058,1811,1880,2016
368771,-36492,-4356,-35561,-2793,839,1854,531,-419,37,690,103,4003,33,31,813,1755,1856,2060,2194,2058,1811,1880,2016
369772,-36436,-4308,-35496,-2728,901,1825,513,-466,47,315,142,3569,39,37,807,1755,1856,2060,2194,2058,1811,1880,2016
370773,-36384,-4268,-35431,-2663,967,1957,489,-494,42,-378,190,4112,50,30,806,1729,1824,2026,2141,2088,1839,1891,2028
371774,-36316,-4208,-35366,-2598,764,1714,488,-486,53,102,98,3862,51,32,804,1729,1824,2026,2141,2088,1839,1891,2028
372775,-36260,-4164,-35301,-2533,925,1939,488,-451,74,219,76,3829,55,35,810,1729,1824,2026,2141,2088,1839,1891,2028
373776,-36204,-4120,-35236,-2468,936,1966,476,-437,99,110,321,3839,46,25,805,1729,1824,2026,2141,2088,1839,1891,2028
374777,-36164,-4060,-35171,-2403,1168,1773,456,-461,126,-13,527,3776,53,26,805,1729,1824,2026,2141,2088,1839,1891,2028
375778,-36104,-4024,-35106,-2338,924,2109,434,-500,147,-74,502,3581,39,35,805,1729,1824,2026,2141,2088,1839,1891,2028
376779,-36036,-3964,-35041,-2273,820,1816,408,-533,178,192,459,3754,53,37,801,1675,1781,2004,2123,2067,1822,1864,1983
377780,-35956,-3888,-34976,-2208,653,1602,380,-530,207,270,428,3694,41,31,808,1675,1781,2004,2123,2067,1822,1864,1983
378781,-35904,-3860,-34911,-2143,1019,2248,337,-537,247,-155,409,3626,52,29,813,1675,1781,2004,2123,2067,1822,1864,1983
379782,-35832,-3800,-34846,-2078,760,1856,307,-493,254,-17,572,3896,52,29,799,1675,1781,2004,2123,2067,1822,1864,1983
380783,-35760,-3748,-34781,-2013,753,1971,263,-473,253,146,648,3750,49,41,808,1675,1781,2004,2123,2067,1822,1864,1983
381784,-35692,-3680,-34716,-1948,799,1769,236,-466,271,402,620,3839,49,45,807,1688,1771,2005,2143,2024,1776,1819,1947
382785,-35652,-3608,-34651,-1883,1180,1711,199,-447,272,520,757,3818,48,45,809,1688,1771,2005,2143,2024,1776,1819,1947
383786,-35596,-3560,-34586,-1818,991,2032,156,-401,261,570,756,3827,49,44,806,1688,1771,2005,2143,2024,1776,1819,1947
384787,-35536,-3484,-34521,-1753,948,1670,128,-350,259,416,738,3914,48,39,804,1688,1771,2005,2143,2024,1776,1819,1947
385788,-35460,-3416,-34456,-1688,735,1767,96,-324,250,356,686,3853,36,37,809,1688,1771,2005,2143,2024,1776,1819,1947
386789,-35420,-3360,-34391,-1623,1216,1928,74,-311,237,399,636,3747,39,43,810,1688,1771,2005,2143,2024,1776,1819,1947
387790,-35356,-3284,-34326,-1558,918,1665,60,-319,235,179,606,3715,46,41,803,1724,1800,2000,2146,1994,1760,1824,1964
388791,-35292,-3232,-34261,-1493,919,1982,51,-335,235,92,676,3580,43,51,809,1724,1800,2000,2146,1994,1760,1824,1964
389792,-35220,-3144,-34196,-1428,811,1504,49,-341,253,190,656,3699,43,41,805,1724,1800,2000,2146,1994,1760,1824,1964
390793,-35164,-3080,-34131,-1363,1022,1806,57,-347,263,100,642,3564,44,43,813,1724,1800,2000,2146,1994,1760,1824,1964
391794,-35112,-3012,-34066,-1298,1088,1754,65,-344,268,188,722,3669,34,41,807,1724,1800,2000,2146,1994,1760,1824,1964
392795,-35040,-2944,-34001,-1233,830,1750,72,-346,271,214,751,3685,36,52,806,1728,1840,2056,2192,2024,1792,1864,1984
393796,-34996,-2856,-33936,-1168,1206,1473,84,-350,288,105,736,3641,44,52,807,1728,1840,2056,2192,2024,1792,1864,1984
394797,-34944,-2792,-33871,-1103,1122,1775,97,-352,311,137,1048,3892,45,41,809,1728,1840,2056,2192,2024,1792,1864,1984
395798,-34872,-2752,-33806,-1038,865,2106,108,-354,322,143,874,3695,47,37,806,1728,1840,2056,2192,2024,1792,1864,1984
396799,-34820,-2672,-33741,-973,1131,1588,108,-347,333,541,876,3829,44,42,804,1728,1840,2056,2192,2024,1792,1864,1984
397800,-34764,-2608,-33676,-908,1093,1790,117,-366,365,597,1114,3814,55,43,808,1728,1840,2056,2192,2024,1792,1864,1984
398801,-34688,-2540,-33611,-843,829,1737,131,-360,394,222,1198,3980,57,39,806,1791,1899,2095,2239,2047,1807,1879,2011
399802,-34632,-2472,-33546,-778,1090,1734,134,-336,385,367,1079,3809,40,47,810,1791,1899,2095,2239,2047,1807,1879,2011
400803,-34584,-2408,-33481,-713,1212,1786,142,-330,379,630,1103,4014,46,35,807,1791,1899,2095,2239,2047,1807,1879,2011
401804,-34520,-2344,-33416,-648,1013,1788,162,-332,390,444,1271,4178,52,51,804,1791,1899,2095,2239,2047,1807,1879,2011
402805,-34476,-2276,-33351,-583,1290,1735,169,-342,380,575,1151,4101,45,38,807,1791,1899,2095,2239,2047,1807,1879,2011
403806,-34416,-2220,-33286,-518,1096,1896,181,-360,373,623,1009,4033,54,38,804,1753,1856,2059,2194,1978,1750,1810,1933
404807,-34328,-2164,-33221,-453,718,1908,190,-410,374,478,977,3970,51,40,804,1753,1856,2059,2194,1978,1750,1810,1933
405808,-34256,-2096,-33156,-388,910,1755,207,-427,359,463,985,3974,51,48,808,1753,1856,2059,2194,1978,1750,1810,1933
406809,-34192,-2036,-33091,-323,1011,1862,225,-439,354,189,983,4227,54,47,809,1753,1856,2059,2194,1978,1750,1810,1933
407810,-34120,-1984,-33026,-258,904,1978,249,-444,333,385,1017,4279,59,44,806,1753,1856,2059,2194,1978,1750,1810,1933
408811,-34044,-1928,-32961,-193,841,1940,272,-460,317,502,839,4250,56,37,805,1753,1856,2059,2194,1978,1750,1810,1933
409812,-33976,-1872,-32896,-128,938,1951,288,-481,314,698,901,4142,56,44,807,1759,1852,2079,2221,1982,1756,1818,1942
410813,-33912,-1796,-32831,-63,989,1689,302,-494,321,546,957,4078,52,34,804,1759,1852,2079,2221,1982,1756,1818,1942
411814,-33832,-1752,-32766,2,771,2116,310,-489,317,360,968,4125,44,35,808,1759,1852,2079,2221,1982,1756,1818,1942
412815,-33776,-1676,-32701,67,1083,1702,332,-471,328,372,985,4263,48,30,804,1759,1852,2079,2221,1982,1756,1818,1942
413816,-33720,-1628,-32636,132,1094,2074,346,-469,338,533,898,4010,56,36,807,1759,1852,2079,2221,1982,1756,1818,1942
414817,-33664,-1576,-32571,197,1106,2041,361,-471,347,435,861,4135,39,32,801,1784,1876,2089,2230,1997,1776,1845,1955
415818,-33592,-1528,-32506,262,897,2112,362,-467,352,378,953,3975,48,31,802,1784,1876,2089,2230,1997,1776,1845,1955
416819,-33544,-1468,-32441,327,1218,1969,360,-472,378,205,999,4056,48,46,803,1784,1876,2089,2230,1997,1776,1845,1955
417820,-33484,-1412,-32376,392,1075,2031,362,-460,393,318,1213,4221,45,33,802,1784,1876,2089,2230,1997,1776,1845,1955
418821,-33424,-1344,-32311,457,1081,1877,370,-487,402,207,1104,3976,42,36,803,1784,1876,2089,2230,1997,1776,1845,1955
419822,-33372,-1288,-32246,522,1198,2039,376,-506,410,269,1129,4262,56,43,805,1784,1876,2089,2230,1997,1776,1845,1955
420823,-33284,-1224,-32181,587,720,1941,380,-529,407,531,1107,3977,45,49,801,1759,1853,2056,2207,2000,1759,1839,1959
421824,-33232,-1148,-32116,652,1186,1778,389,-535,429,350,1083,4383,44,38,806,1759,1853,2056,2207,2000,1759,1839,1959
422825,-33184,-1088,-32051,717,1258,1985,398,-529,417,439,1130,4292,53,41,804,1759,1853,2056,2207,2000,1759,1839,1959
423826,-33100,-1012,-31986,782,784,1772,407,-532,406,487,1053,4526,43,38,801,1759,1853,2056,2207,2000,1759,1839,1959
424827,-33036,-948,-31921,847,1037,1924,443,-539,403,554,1066,4649,43,52,809,1759,1853,2056,2207,2000,1759,1839,1959
425828,-32988,-900,-31856,912,1257,2145,450,-571,393,440,1073,4484,52,49,805,1739,1848,2056,2128,1984,1776,1825,1947
426829,-32912,-808,-31791,977,895,1563,462,-557,373,471,1018,4606,43,38,800,1739,1848,2056,2128,1984,1776,1825,1947
427830,-32868,-740,-31726,1042,1321,1860,456,-552,363,491,1041,4441,48,51,811,1739,1848,2056,2128,1984,1776,1825,1947
428831,-32808,-672,-31661,1107,1127,1857,454,-540,348,515,1030,4472,54,43,802,1739,1848,2056,2128,1984,1776,1825,1947
429832,-32748,-620,-31596,1172,1134,2074,450,-551,354,516,945,4227,44,48,804,1739,1848,2056,2128,1984,1776,1825,1947
430833,-32668,-560,-31531,1237,865,1981,445,-568,360,489,883,4236,39,51,801,1739,1848,2056,2128,1984,1776,1825,1947
431834,-32612,-512,-31466,1302,1177,2152,427,-570,370,261,940,4236,56,38,807,1744,1840,2060,2194,2064,1816,1856,1984
432835,-32548,-428,-31401,1367,1079,1680,404,-548,375,269,960,4207,55,41,799,1744,1840,2060,2194,2064,1816,1856,1984
433836,-32496,-364,-31336,1432,1246,1932,385,-550,379,459,999,4220,45,47,808,1744,1840,2060,2194,2064,1816,1856,1984
434837,-32416,-276,-31271,1497,877,1604,376,-551,402,321,1017,4238,57,51,803,1744,1840,2060,2194,2064,1816,1856,1984
435838,-32352,-204,-31206,1562,1078,1796,364,-573,420,63,926,4043,58,50,811,1744,1840,2060,2194,2064,1816,1856,1984
436839,-32308,-136,-31141,1627,1355,1844,357,-572,442,277,982,4208,50,46,806,1820,1911,2135,2271,2103,1851,1919,2047
437840,-32256,-80,-31076,1692,1271,2005,345,-581,455,194,936,4011,41,51,802,1820,1911,2135,2271,2103,1851,1919,2047
438841,-32176,-8,-31011,1757,904,1797,328,-593,481,-17,901,4172,47,55,801,1820,1911,2135,2271,2103,1851,1919,2047
439842,-32116,64,-30946,1822,1160,1789,329,-625,503,201,951,4130,60,51,808,1820,1911,2135,2271,2103,1851,1919,2047
440843,-32040,128,-30881,1887,947,1891,318,-640,520,50,764,4296,54,47,805,1820,1911,2135,2271,2103,1851,1919,2047
441844,-31980,192,-30816,1952,1153,1893,318,-658,525,240,961,4220,49,44,806,1820,1911,2135,2271,2103,1851,1919,2047
442845,-31920,240,-30751,2017,1161,2115,306,-639,528,360,1003,4383,47,37,804,1755,1855,2071,2203,2071,1823,1871,2007
443846,-31848,316,-30686,2082,1002,1751,308,-625,516,349,1098,4360,39,40,801,1755,1855,2071,2203,2071,1823,1871,2007
444847,-31796,368,-30621,2147,1268,2068,292,-605,512,534,1158,4339,52,42,805,1755,1855,2071,2203,2071,1823,1871,2007
445848,-31732,436,-30556,2212,1120,1865,290,-580,501,736,1180,4315,50,36,799,1755,1855,2071,2203,2071,1823,1871,2007
446849,-31676,496,-30491,2277,1231,1972,269,-546,490,601,1260,4469,55,40,805,1755,1855,2071,2203,2071,1823,1871,2007
447850,-31596,564,-30426,2342,914,1869,269,-445,479,744,993,4882,48,48,802,1735,1828,2035,2176,2035,1782,1839,1979
448851,-31540,612,-30361,2407,1225,2141,261,-335,466,990,1130,5164,51,47,807,1735,1828,2035,2176,2035,1782,1839,1979
449852,-31468,688,-30296,2472,1017,1777,291,-348,455,505,1170,4448,48,40,800,1735,1828,2035,2176,2035,1782,1839,1979
450853,-31404,788,-30231,2537,1118,1436,308,-418,450,244,1048,4818,47,43,808,1735,1828,2035,2176,2035,1782,1839,1979
451854,-31324,868,-30032,2736,1752,2519,353,-499,469,769,999,4497,44,53,811,1735,1828,2035,2176,2035,1782,1839,1979
452855,-31268,956,-29967,2801,2063,2391,323,-537,477,568,784,4381,48,59,787,1735,1828,2035,2176,2035,1782,1839,1979
453856,-31184,1024,-29902,2866,1690,2638,191,-403,431,-492,693,4385,75,50,785,1735,1827,2037,2183,2032,1810,1851,1972
454857,-31092,1132,-29837,2931,1557,2087,28,-158,415,-883,883,4365,80,76,787,1735,1827,2037,2183,2032,1810,1851,1972
455858,-30992,1244,-29772,2996,1416,1979,-72,-35,508,-452,934,4317,81,54,797,1735,1827,2037,2183,2032,1810,1851,1972
456859,-30888,1372,-29707,3061,1318,1703,-70,-53,600,453,634,4171,72,74,802,1735,1827,2037,2183,2032,1810,1851,1972
457860,-30796,1512,-29642,3126,1435,1463,-15,-162,604,840,694,4006,87,82,806,1735,1827,2037,2183,2032,1810,1851,1972
458861,-30688,1616,-29577,3191,1184,1865,55,-287,572,-102,920,4246,74,70,808,1687,1800,2016,2188,2053,1844,1869,2005
459862,-30560,1728,-29512,3256,857,1709,86,-299,545,-324,490,4143,90,83,805,1687,1800,2016,2188,2053,1844,1869,2005
460863,-30464,1840,-29447,3321,1220,1652,97,-178,524,86,583,4494,83,79,812,1687,1800,2016,2188,2053,1844,1869,2005
461864,-30340,1952,-29382,3386,798,1595,108,-100,550,200,941,4517,72,69,807,1687,1800,2016,2188,2053,1844,1869,2005
462865,-30236,2064,-29317,3451,1000,1539,94,-105,581,554,1222,4589,87,67,814,1687,1800,2016,2188,2053,1844,1869,2005
463866,-30124,2156,-29252,3516,844,1756,126,-114,571,704,1109,4586,81,61,813,1687,1800,2016,2188,2053,1844,1869,2005
464867,-30020,2252,-29187,3581,896,1669,176,-144,536,892,1381,4628,82,65,812,1711,1803,2064,2192,2076,1823,1889,2014
465868,-29916,2352,-29122,3646,849,1576,200,-151,499,714,1435,4519,81,67,812,1711,1803,2064,2192,2076,1823,1889,2014
466869,-29816,2472,-29057,3711,857,1260,210,-102,487,920,1257,4529,71,60,814,1711,1803,2064,2192,2076,1823,1889,2014
467870,-29708,2568,-28992,3776,705,1522,174,-19,455,868,1583,4539,76,63,817,1711,1803,2064,2192,2076,1823,1889,2014
468871,-29608,2680,-28927,3841,762,1266,133,54,447,493,1556,4406,63,61,816,1711,1803,2064,2192,2076,1823,1889,2014
469872,-29528,2788,-28862,3906,994,1263,81,130,457,1292,1786,4675,60,63,819,1751,1844,2064,2192,2000,1767,1835,1952
470873,-29420,2884,-28797,3971,592,1376,37,196,459,1214,1676,4109,57,54,816,1751,1844,2064,2192,2000,1767,1835,1952
471874,-29324,2976,-28732,4036,704,1393,-12,236,434,241,1610,4044,57,52,819,1751,1844,2064,2192,2000,1767,1835,1952
472875,-29240,3076,-28667,4101,831,1251,-38,222,428,253,1524,3998,54,48,817,1751,1844,2064,2192,2000,1767,1835,1952
473876,-29152,3160,-28602,4166,753,1429,-65,198,423,242,1469,4230,52,50,818,1751,1844,2064,2192,2000,1767,1835,1952
474877,-29068,3260,-28537,4231,781,1186,-67,183,420,84,1337,3963,61,59,815,1751,1844,2064,2192,2000,1767,1835,1952
475878,-28992,3340,-28472,4296,867,1417,-59,144,421,28,1199,4123,55,56,819,1800,1900,2104,2242,2008,1776,1840,1968
476879,-28912,3416,-28407,4361,799,1455,-40,88,425,-72,990,3866,44,52,815,1800,1900,2104,2242,2008,1776,1840,1968
477880,-28824,3520,-28342,4426,671,1057,-26,47,434,-98,1017,3896,60,57,816,1800,1900,2104,2242,2008,1776,1840,1968
478881,-28744,3608,-28277,4491,753,1230,12,53,436,89,1077,3972,58,54,820,1800,1900,2104,2242,2008,1776,1840,1968
479882,-28680,3668,-28212,4556,955,1586,22,53,430,484,1149,3579,59,61,819,1800,1900,2104,2242,2008,1776,1840,1968
480883,-28596,3752,-28147,4621,682,1263,62,62,431,698,1058,3724,55,64,812,1791,1887,2127,2251,2083,1853,1900,2031
481884,-28524,3832,-28082,4686,823,1296,90,67,424,611,1164,3710,51,56,819,1791,1887,2127,2251,2083,1853,1900,2031
482885,-28460,3936,-28017,4751,924,948,117,105,404,567,1334,3615,50,60,817,1791,1887,2127,2251,2083,1853,1900,2031
483886,-28380,4040,-27952,4816,706,901,165,156,427,1120,1687,3659,55,53,820,1791,1887,2127,2251,2083,1853,1900,2031
484887,-28324,4120,-27887,4881,1017,1182,202,197,420,1159,1686,3445,56,55,822,1791,1887,2127,2251,2083,1853,1900,2031
485888,-28252,4196,-27822,4946,809,1220,223,196,381,844,1729,3384,53,47,816,1791,1887,2127,2251,2083,1853,1900,2031
486889,-28184,4264,-27757,5011,856,1316,237,199,356,875,1880,3597,41,50,818,1743,1839,2055,2183,2015,1782,1839,1950
487890,-28112,4364,-27692,5076,797,874,227,213,351,805,1969,3447,43,55,816,1743,1839,2055,2183,2015,1782,1839,1950
488891,-28052,4456,-27627,5141,953,942,209,232,349,804,2026,3342,43,55,822,1743,1839,2055,2183,2015,1782,1839,1950
489892,-28008,4516,-27562,5206,1179,1348,188,223,347,897,2030,3366,45,40,819,1743,1839,2055,2183,2015,1782,1839,1950
490893,-27932,4580,-27497,5271,766,1299,170,182,334,665,1936,3288,41,53,812,1743,1839,2055,2183,2015,1782,1839,1950
491894,-27844,4652,-27432,5336,588,1190,162,156,320,345,1738,3335,61,59,817,1733,1815,2019,2171,1946,1722,1784,1869
492895,-27764,4704,-27367,5401,670,1457,162,131,314,364,1574,3242,48,42,820,1733,1815,2019,2171,1946,1722,1784,1869
493896,-27712,4796,-27302,5466,1036,924,182,154,316,491,1551,3458,58,52,817,1733,1815,2019,2171,1946,1722,1784,1869
494897,-27644,4860,-27237,5531,832,1276,216,171,313,628,1383,3113,58,45,819,1733,1815,2019,2171,1946,1722,1784,1869
495898,-27556,4936,-27172,5596,554,1112,248,154,323,293,1299,3178,41,46,815,1733,1815,2019,2171,1946,1722,1784,1869
496899,-27496,5024,-27107,5661,910,935,265,205,343,-163,1637,3173,49,54,821,1733,1815,2019,2171,1946,1722,1784,1869
497900,-27420,5096,-27042,5726,697,1127,331,381,331,759,73,3138,41,50,820,1726,1821,2029,2161,1939,1716,1776,1896
498901,-27344,5180,-26977,5791,684,953,400,365,263,2882,190,2004,41,48,820,1726,1821,2029,2161,1939,1716,1776,1896
499902,-27268,5284,-26912,5856,671,656,438,179,314,921,1108,2921,56,49,822,1726,1821,2029,2161,1939,1716,1776,1896
500903,-27192,5364,-26847,5921,658,938,439,269,344,307,1112,2277,59,59,825,1726,1821,2029,2161,1939,1716,1776,1896
501904,-27112,5444,-26782,5986,589,920,458,410,302,210,704,2376,41,46,823,1726,1821,2029,2161,1939,1716,1776,1896
502905,-27040,5524,-26717,6051,681,902,432,398,235,323,917,2809,55,45,823,1723,1831,2045,2177,1939,1726,1784,1891
503906,-26976,5612,-26652,6116,782,774,424,410,226,710,1365,2620,56,44,823,1723,1831,2045,2177,1939,1726,1784,1891
504907,-26900,5680,-26587,6181,619,1020,445,463,279,912,1348,2653,53,46,823,1723,1831,2045,2177,1939,1726,1784,1891
505908,-26848,5768,-26522,6246,935,743,447,467,286,943,1192,1878,38,53,822,1723,1831,2045,2177,1939,1726,1784,1891
506909,-26764,5864,-26457,6311,512,605,444,476,260,893,1415,2825,53,52,822,1723,1831,2045,2177,1939,1726,1784,1891
507910,-26700,5948,-26392,6376,763,732,441,505,255,867,1622,2306,60,51,828,1723,1831,2045,2177,1939,1726,1784,1891
508911,-26636,6020,-26327,6441,765,873,438,545,267,981,1414,2185,51,59,824,1722,1813,2009,2155,1928,1718,1775,1870
509912,-26564,6096,-26262,6506,656,810,424,532,240,971,1419,2567,52,49,823,1722,1813,2009,2155,1928,1718,1775,1870
510913,-26480,6184,-26197,6571,483,632,411,513,233,532,1193,2552,43,50,824,1722,1813,2009,2155,1928,1718,1775,1870
511914,-26412,6260,-26132,6636,679,768,408,540,240,702,1196,2802,55,50,827,1722,1813,2009,2155,1928,1718,1775,1870
512915,-26324,6328,-26067,6701,401,866,419,580,222,928,1070,2493,55,43,822,1722,1813,2009,2155,1928,1718,1775,1870
513916,-26268,6420,-26002,6766,812,533,451,623,187,837,910,2741,59,50,826,1663,1743,1939,2091,1945,1737,1789,1891
514917,-26188,6516,-25937,6831,494,445,486,690,164,773,748,2791,41,62,825,1663,1743,1939,2091,1945,1737,1789,1891
515918,-26108,6600,-25872,6896,477,572,541,746,173,1602,635,2391,44,54,829,1663,1743,1939,2091,1945,1737,1789,1891
516919,-26044,6696,-25807,6961,678,384,581,774,153,1842,228,2472,54,55,828,1663,1743,1939,2091,1945,1737,1789,1891
517922,-25964,6784,-25742,7026,459,456,598,743,116,953,407,2257,55,60,828,1663,1743,1939,2091,1945,1737,1789,1891
518921,-25880,6876,-25677,7091,386,373,596,719,119,406,548,2420,42,56,829,1663,1743,1939,2091,1945,1737,1789,1891
519922,-25800,6956,-25612,7156,418,505,564,761,119,400,488,2303,41,51,830,1656,1760,1956,2088,1945,1728,1792,1904
520923,-25720,7052,-25547,7221,400,267,500,786,122,469,316,2380,43,49,829,1656,1760,1956,2088,1945,1728,1792,1904
521924,-25652,7144,-25482,7286,546,285,441,818,114,632,514,2401,58,64,831,1656,1760,1956,2088,1945,1728,1792,1904
522925,-25584,7220,-25417,7351,542,471,385,842,107,800,550,2412,41,63,830,1656,1760,1956,2088,1945,1728,1792,1904
523926,-25504,7308,-25352,7416,374,293,322,835,92,865,740,2173,56,60,829,1656,1760,1956,2088,1945,1728,1792,1904
524927,-25436,7396,-25287,7481,520,265,250,815,86,466,670,2127,41,62,831,1687,1794,2003,2130,1983,1757,1819,1943
525928,-25376,7472,-25222,7546,626,402,169,831,67,522,730,2327,39,56,830,1687,1794,2003,2130,1983,1757,1819,1943
526929,-25304,7564,-25157,7611,468,169,102,846,66,622,748,2314,47,50,828,1687,1794,2003,2130,1983,1757,1819,1943
527930,-25228,7652,-25092,7676,405,191,36,892,58,914,757,2610,46,50,831,1687,1794,2003,2130,1983,1757,1819,1943
528931,-25156,7732,-25027,7741,446,272,-17,923,56,944,621,2494,47,49,832,1687,1794,2003,2130,1983,1757,1819,1943
529932,-25080,7816,-24962,7806,383,199,-58,971,40,927,713,2719,48,53,829,1687,1794,2003,2130,1983,1757,1819,1943
530933,-24992,7916,-24897,7871,205,-43,-95,1000,30,883,630,2689,49,61,832,1667,1776,1970,2076,2041,1799,1858,2003
531934,-24936,7972,-24832,7936,616,518,-127,1023,16,921,567,2594,43,45,834,1667,1776,1970,2076,2041,1799,1858,2003
532935,-24872,8068,-24767,8001,518,-20,-149,1032,-7,733,567,2875,47,51,828,1667,1776,1970,2076,2041,1799,1858,2003
533936,-24780,8156,-24702,8066,135,52,-176,1037,-32,682,600,2901,53,55,832,1667,1776,1970,2076,2041,1799,1858,2003
534937,-24712,8228,-24637,8131,431,243,-202,1043,-45,833,493,2908,59,52,834,1667,1776,1970,2076,2041,1799,1858,2003
535938,-24636,8288,-24572,8196,318,399,-231,1036,-54,838,532,2748,39,45,832,1601,1714,1919,2014,2104,1844,1883,2032
536939,-24544,8364,-24507,8261,85,186,-286,1034,-85,594,532,2909,57,57,831,1601,1714,1919,2014,2104,1844,1883,2032
537940,-24480,8448,-24442,8326,436,62,-339,1034,-109,674,576,2917,47,42,834,1601,1714,1919,2014,2104,1844,1883,2032
538941,-24420,8528,-24377,8391,492,93,-414,1026,-121,675,546,2885,38,44,832,1601,1714,1919,2014,2104,1844,1883,2032
539942,-24360,8604,-24312,8456,498,130,-475,987,-128,767,552,2635,54,42,832,1601,1714,1919,2014,2104,1844,1883,2032
540943,-24264,8672,-24247,8521,10,226,-574,966,-111,688,495,2611,45,53,831,1601,1714,1919,2014,2104,1844,1883,2032
541944,-24212,8772,-24182,8586,576,-217,-681,979,-122,-16,773,2426,57,42,834,1591,1709,1927,2029,2100,1842,1878,2022
542945,-24128,8876,-24117,8651,153,-314,-797,1034,-128,365,583,2655,54,57,830,1591,1709,1927,2029,2100,1842,1878,2022
543946,-24056,8996,-24052,8716,294,-581,-885,1106,-130,1060,641,2923,48,43,832,1591,1709,1927,2029,2100,1842,1878,2022
544947,-23980,9104,-23987,8781,231,-484,-974,1112,-119,679,563,2692,44,38,829,1591,1709,1927,2029,2100,1842,1878,2022
545948,-23904,9172,-23922,8846,218,13,-1060,1130,-123,643,647,2769,55,36,830,1591,1709,1927,2029,2100,1842,1878,2022
546949,-23820,9228,-23857,8911,94,174,-1165,1147,-137,439,399,2885,37,47,832,1618,1739,1953,2045,2090,1834,1875,2028
547950,-23744,9292,-23792,8976,181,75,-1263,1174,-143,258,290,3095,52,32,834,1618,1739,1953,2045,2090,1834,1875,2028
548951,-23680,9352,-23727,9041,332,130,-1341,1168,-127,377,316,3100,53,33,834,1618,1739,1953,2045,2090,1834,1875,2028
549952,-23600,9396,-23662,9106,114,355,-1392,1142,-120,357,407,3067,46,41,833,1618,1739,1953,2045,2090,1834,1875,2028
550953,-23508,9472,-23597,9171,-69,-58,-1420,1118,-124,491,199,3413,44,33,832,1618,1739,1953,2045,2090,1834,1875,2028
551954,-23436,9524,-23532,9236,172,258,-1432,1090,-129,404,77,3400,47,35,833,1618,1739,1953,2045,2090,1834,1875,2028
552955,-23352,9584,-23467,9301,-1,164,-1431,1040,-133,184,493,3543,42,48,833,1618,1737,1955,2049,2107,1848,1888,2042
553956,-23276,9644,-23402,9366,86,170,-1433,1013,-126,267,282,3810,50,48,834,1618,1737,1955,2049,2107,1848,1888,2042
554957,-23216,9716,-23337,9431,291,12,-1440,1010,-136,512,440,3900,39,42,834,1618,1737,1955,2049,2107,1848,1888,2042
555958,-23148,9768,-23272,9496,187,277,-1432,965,-139,258,482,3975,36,35,834,1618,1737,1955,2049,2107,1848,1888,2042
556959,-23072,9840,-23207,9561,74,19,-1418,899,-138,421,510,3999,45,47,833,1618,1737,1955,2049,2107,1848,1888,2042
557960,-22984,9892,-23142,9626,-104,284,-1398,843,-141,324,487,4321,42,44,835,1656,1778,1992,2114,2093,1840,1899,2027
558961,-22924,9960,-23077,9691,252,80,-1389,788,-145,299,715,3994,42,42,829,1656,1778,1992,2114,2093,1840,1899,2027
559962,-22836,10008,-23012,9756,-126,351,-1394,742,-141,166,677,4315,52,43,833,1656,1778,1992,2114,2093,1840,1899,2027
560963,-22760,10100,-22947,9821,10,-232,-1406,707,-118,164,733,4289,55,40,826,1656,1778,1992,2114,2093,1840,1899,2027
561964,-22668,10168,-22882,9886,-223,64,-1415,664,-79,255,687,4143,55,54,833,1656,1778,1992,2114,2093,1840,1899,2027
562965,-22552,10240,-22817,9951,-585,6,-1418,615,-50,337,621,4245,41,46,818,1656,1778,1992,2114,2093,1840,1899,2027
563966,-22424,10304,-22752,10016,-812,107,-1411,564,-15,191,383,4353,48,42,832,1760,1872,2113,2280,2000,1760,1884,1992
564967,-22368,10364,-22687,10081,99,163,-1389,527,16,195,444,4459,56,40,834,1760,1872,2113,2280,2000,1760,1884,1992
565968,-22276,10428,-22622,10146,-384,114,-1353,468,48,-162,384,4361,35,48,834,1760,1872,2113,2280,2000,1760,1884,1992
566969,-22224,10532,-22557,10211,131,-433,-1291,411,70,-187,179,4613,46,39,834,1760,1872,2113,2280,2000,1760,1884,1992
567971,-22156,10596,-22492,10276,-73,67,-1206,335,96,-119,160,4756,37,43,832,1760,1872,2113,2280,2000,1760,1884,1992
568971,-22072,10672,-22427,10341,-296,-97,-1120,256,134,-292,-31,4471,50,41,833,1925,2035,2223,2398,1986,1768,1858,1958
569972,-21992,10740,-22362,10406,-264,0,-1031,197,160,-66,-107,5005,41,51,834,1925,2035,2223,2398,1986,1768,1858,1958
570973,-21920,10828,-22297,10471,-173,-278,-943,138,188,-209,-127,4717,54,37,835,1925,2035,2223,2398,1986,1768,1858,1958
571974,-21868,10892,-22232,10536,93,23,-848,79,214,-463,-113,4962,51,42,834,1925,2035,2223,2398,1986,1768,1858,1958
572975,-21776,10976,-22167,10601,-440,-250,-765,49,235,-247,-144,4922,37,54,834,1925,2035,2223,2398,1986,1768,1858,1958
573976,-21716,11048,-22102,10666,-34,-109,-690,21,264,-80,-40,4875,35,39,834,1925,2035,2223,2398,1986,1768,1858,1958
574977,-21648,11112,-22037,10731,-138,-9,-620,9,293,-142,21,4844,36,42,835,1968,2063,2243,2420,1939,1708,1824,1914
575978,-21568,11188,-21972,10796,-307,-172,-557,17,311,-216,117,4964,49,50,826,1968,2063,2243,2420,1939,1708,1824,1914
576979,-21488,11268,-21907,10861,-325,-240,-497,15,310,-88,269,4895,39,39,834,1968,2063,2243,2420,1939,1708,1824,1914
577980,-21436,11344,-21842,10926,41,-204,-437,5,320,-250,315,4808,51,35,834,1968,2063,2243,2420,1939,1708,1824,1914
578981,-21372,11424,-21777,10991,-108,-272,-401,23,337,-178,202,4974,36,51,834,1968,2063,2243,2420,1939,1708,1824,1914
579982,-21288,11492,-21712,11056,-381,-126,-373,55,371,-200,84,4685,35,41,827,1960,2010,2171,2367,1923,1730,1834,1908
580983,-21220,11580,-21647,11121,-186,-405,-324,64,397,-436,130,4628,37,48,833,1960,2010,2171,2367,1923,1730,1834,1908
581984,-21140,11628,-21582,11186,-354,116,-265,70,431,-476,118,4574,49,39,832,1960,2010,2171,2367,1923,1730,1834,1908
582985,-21080,11692,-21517,11251,-98,-83,-204,90,463,-286,-53,4383,36,45,834,1960,2010,2171,2367,1923,1730,1834,1908
583986,-21016,11756,-21452,11316,-147,-82,-143,97,499,-327,-210,4237,50,37,832,1960,2010,2171,2367,1923,1730,1834,1908
584987,-20928,11836,-21387,11381,-475,-300,-72,104,533,-530,-285,4243,54,47,825,1960,2010,2171,2367,1923,1730,1834,1908
585988,-20876,11904,-21322,11446,-9,-154,0,120,559,-529,-277,4328,54,42,833,1862,1940,2121,2315,1943,1794,1866,1944
586989,-20820,11952,-21257,11511,-49,116,68,151,592,-389,-493,4065,43,45,834,1862,1940,2121,2315,1943,1794,1866,1944
587990,-20748,12012,-21192,11576,-257,-28,122,184,601,-360,-419,4364,38,35,835,1862,1940,2121,2315,1943,1794,1866,1944
588991,-20668,12100,-21127,11641,-376,-406,158,191,601,-683,-513,3888,47,39,835,1862,1940,2121,2315,1943,1794,1866,1944
589992,-20588,12156,-21062,11706,-394,5,165,190,601,-711,-659,4013,36,35,833,1862,1940,2121,2315,1943,1794,1866,1944
590993,-20528,12220,-20997,11771,-138,-94,175,228,601,-390,-649,3884,51,44,835,1794,1865,2075,2256,2023,1803,1866,1955
591994,-20464,12280,-20932,11836,-188,-37,173,271,626,-475,-747,3746,56,31,828,1794,1865,2075,2256,2023,1803,1866,1955
592995,-20372,12344,-20867,11901,-571,-87,173,341,621,-381,-617,4025,56,38,821,1794,1865,2075,2256,2023,1803,1866,1955
593996,-20300,12408,-20802,11966,-329,-86,167,387,617,-651,-720,3520,56,51,834,1794,1865,2075,2256,2023,1803,1866,1955
594997,-20236,12472,-20737,12031,-228,-85,161,392,601,-108,-572,3872,42,47,834,1794,1865,2075,2256,2023,1803,1866,1955
595998,-20152,12544,-20672,12096,-501,-193,159,390,602,-283,-728,3451,43,41,821,1764,1822,2013,2172,1991,1807,1852,1954
596999,-20084,12592,-20607,12161,-305,127,150,424,592,-233,-540,3752,50,50,834,1764,1822,2013,2172,1991,1807,1852,1954
598000,-19988,12664,-20542,12226,-694,-181,129,497,591,-102,-409,3459,39,42,832,1764,1822,2013,2172,1991,1807,1852,1954
599001,-19912,12720,-20477,12291,-457,29,97,550,577,234,-353,3420,51,33,834,1764,1822,2013,2172,1991,1807,1852,1954
600002,-19844,12780,-20412,12356,-361,-15,54,582,565,-20,-387,3208,56,34,833,1764,1822,2013,2172,1991,1807,1852,1954
601003,-19740,12832,-20347,12421,-858,101,5,613,537,-129,-459,3406,46,46,835,1764,1822,2013,2172,1991,1807,1852,1954
602004,-19672,12896,-20282,12486,-413,-48,-32,637,508,85,-366,3542,42,44,835,1740,1826,2023,2170,2009,1793,1857,1959
603005,-19588,12964,-20217,12551,-636,-102,-70,622,493,-363,-573,3141,44,39,835,1740,1826,2023,2170,2009,1793,1857,1959
604006,-19492,13020,-20152,12616,-824,59,-119,550,504,-578,-588,3139,50,46,833,1740,1826,2023,2170,2009,1793,1857,1959
605007,-19400,13096,-20087,12681,-807,-205,-149,461,497,-823,-665,3106,48,37,835,1740,1826,2023,2170,2009,1793,1857,1959
606008,-19332,13176,-20022,12746,-512,-273,-186,390,469,-1178,-791,3349,44,44,834,1740,1826,2023,2170,2009,1793,1857,1959
607009,-19244,13244,-19957,12811,-790,-127,-231,324,463,-855,-977,3270,39,33,833,1706,1804,2000,2144,2034,1919,1876,1993
608010,-19156,13300,-19892,12876,-818,34,-268,241,494,-513,-748,3363,42,43,833,1706,1804,2000,2144,2034,1919,1876,1993
609011,-19084,13376,-19827,12941,-626,-230,-288,156,493,-242,-1077,3032,43,36,835,1706,1804,2000,2144,2034,1919,1876,1993
610012,-19020,13444,-19762,13006,-526,-133,-298,109,467,-346,-1009,3643,48,46,834,1706,1804,2000,2144,2034,1919,1876,1993
611013,-18932,13504,-19697,13071,-854,-28,-294,117,435,-603,-877,3722,58,36,834,1706,1804,2000,2144,2034,1919,1876,1993
612014,-18832,13584,-19632,13136,-1047,-296,-302,142,445,-177,-1521,3471,45,33,835,1706,1804,2000,2144,2034,1919,1876,1993
613015,-18768,13652,-19567,13201,-597,-150,-309,163,431,577,-1026,3745,50,37,834,1696,1804,1969,2130,2067,1830,1902,2029
614016,-18688,13720,-19502,13266,-815,-154,-332,159,402,90,-939,3198,56,37,835,1696,1804,1969,2130,2067,1830,1902,2029
615017,-18592,13780,-19437,13331,-1053,-48,-357,157,381,-146,-690,3525,40,46,832,1696,1804,1969,2130,2067,1830,1902,2029
616018,-18528,13840,-19372,13396,-652,-41,-408,111,393,-361,-1224,2930,49,34,835,1696,1804,1969,2130,2067,1830,1902,2029
617019,-18448,13896,-19307,13461,-871,18,-469,32,373,-165,-656,3480,55,37,835,1696,1804,1969,2130,2067,1830,1902,2029
618020,-18388,13948,-19242,13526,-615,84,-509,-112,357,-796,-628,3015,44,44,835,1735,1843,2035,2187,2060,1826,1902,1998
619021,-18288,14028,-19177,13591,-1158,-284,-543,-259,316,-1066,-375,3683,56,49,835,1735,1843,2035,2187,2060,1826,1902,1998
620022,-18212,14096,-19112,13656,-872,-138,-593,-387,295,-1056,-923,3238,39,38,833,1735,1843,2035,2187,2060,1826,1902,1998
621023,-18132,14148,-19047,13721,-940,78,-648,-500,277,-425,-925,3803,50,48,835,1735,1843,2035,2187,2060,1826,1902,1998
622024,-18068,14200,-18982,13786,-740,94,-681,-577,264,-420,-817,3784,39,43,835,1735,1843,2035,2187,2060,1826,1902,1998
623025,-17992,14284,-18917,13851,-904,-330,-689,-634,254,-655,-893,4051,40,47,835,1735,1843,2035,2187,2060,1826,1902,1998
624026,-17928,14352,-18852,13916,-752,-134,-701,-658,254,-822,-1202,4399,55,39,833,1769,1867,2055,2212,2022,1811,1888,2000
625027,-17832,14412,-18787,13981,-1191,-28,-707,-625,263,-491,-1322,4558,39,48,834,1769,1867,2055,2212,2022,1811,1888,2000
626028,-17752,14484,-18722,14046,-1010,-186,-734,-616,252,-64,-1445,4557,52,38,835,1769,1867,2055,2212,2022,1811,1888,2000
627029,-17708,14544,-18657,14111,-534,-30,-762,-638,244,-126,-1249,4538,53,48,834,1769,1867,2055,2212,2022,1811,1888,2000
628030,-17608,14600,-18592,14176,-1278,30,-795,-671,257,-748,-1297,4427,52,32,835,1769,1867,2055,2212,2022,1811,1888,2000
629031,-17532,14672,-18527,14241,-991,-179,-819,-668,259,-983,-1386,4684,52,42,824,1785,1880,2079,2235,2055,1833,1911,2027
630032,-17456,14728,-18462,14306,-1005,32,-838,-698,244,-429,-1263,4440,40,36,834,1785,1880,2079,2235,2055,1833,1911,2027
631033,-17404,14784,-18397,14371,-690,43,-856,-758,234,-600,-1320,4353,35,35,835,1785,1880,2079,2235,2055,1833,1911,2027
632034,-17316,14844,-18332,14436,-1168,-1,-889,-795,212,-776,-1080,4543,43,34,833,1785,1880,2079,2235,2055,1833,1911,2027
633035,-17232,14908,-18267,14501,-1142,-49,-917,-846,203,-1035,-1265,4052,38,35,824,1785,1880,2079,2235,2055,1833,1911,2027
634036,-17164,14968,-18202,14566,-946,7,-921,-912,210,-583,-1344,4567,35,45,835,1785,1880,2079,2235,2055,1833,1911,2027
635037,-17096,15036,-18137,14631,-949,-98,-912,-911,195,-346,-1229,4528,50,32,835,1812,1908,2112,2261,2108,1888,1956,2061
636038,-17044,15088,-18072,14696,-734,118,-902,-885,157,-558,-1259,4580,33,35,835,1812,1908,2112,2261,2108,1888,1956,2061
637039,-16976,15148,-18007,14761,-938,24,-900,-844,123,-613,-1113,4729,49,46,822,1812,1908,2112,2261,2108,1888,1956,2061
638040,-16884,15216,-17942,14826,-1272,-80,-906,-835,105,-424,-1123,4542,41,41,835,1812,1908,2112,2261,2108,1888,1956,2061
639041,-16832,15256,-17877,14891,-756,301,-912,-825,98,121,-1219,4898,50,40,835,1812,1908,2112,2261,2108,1888,1956,2061
640042,-16768,15316,-17812,14956,-905,57,-909,-794,76,152,-971,5075,50,41,834,1780,1912,2113,2297,2109,1889,1954,2037
641043,-16712,15368,-17747,15021,-795,172,-911,-756,60,-525,-1107,4987,33,32,830,1780,1912,2113,2297,2109,1889,1954,2037
642044,-16616,15432,-17682,15086,-1333,23,-915,-683,39,-523,-1085,5553,35,45,834,1780,1912,2113,2297,2109,1889,1954,2037
643045,-16580,15480,-17617,15151,-548,244,-923,-630,23,-530,-1087,5274,42,31,835,1780,1912,2113,2297,2109,1889,1954,2037
644046,-16508,15536,-17552,15216,-1007,155,-944,-650,16,-591,-1392,4991,39,44,834,1780,1912,2113,2297,2109,1889,1954,2037
645047,-16452,15544,-17487,15281,-796,824,-941,-655,11,-162,-1336,5342,44,42,832,1780,1912,2113,2297,2109,1889,1954,2037
646048,-16376,15588,-17422,15346,-1060,400,-945,-700,17,-513,-1476,5024,31,40,829,1824,1906,2112,2315,2063,1834,1917,1993
647049,-16316,15640,-17357,15411,-854,316,-950,-722,19,-829,-1583,5412,40,47,833,1824,1906,2112,2315,2063,1834,1917,1993
648050,-16268,15696,-17292,15476,-684,277,-948,-703,20,-201,-1429,4825,31,42,833,1824,1906,2112,2315,2063,1834,1917,1993
649051,-16212,15768,-17227,15541,-774,68,-946,-655,17,31,-1453,5111,32,37,830,1824,1906,2112,2315,2063,1834,1917,1993
650052,-16132,15840,-17162,15606,-1092,59,-956,-593,4,2,-1484,4884,27,52,835,1824,1906,2112,2315,2063,1834,1917,1993
651053,-16072,15908,-17097,15671,-837,105,-966,-536,2,83,-1454,4911,34,44,835,1841,1926,2127,2339,2058,1853,1919,2005
652054,-16024,15980,-17032,15736,-666,47,-972,-483,-5,-79,-1335,4940,26,46,835,1841,1926,2127,2339,2058,1853,1919,2005
653055,-15976,16028,-16967,15801,-646,367,-975,-458,-20,-46,-1264,4681,30,39,834,1841,1926,2127,2339,2058,1853,1919,2005
654056,-15924,16096,-16902,15866,-680,114,-981,-472,-44,258,-1143,4666,30,40,833,1841,1926,2127,2339,2058,1853,1919,2005
655057,-15860,16180,-16837,15931,-829,-109,-975,-492,-63,130,-1206,4554,36,37,835,1841,1926,2127,2339,2058,1853,1919,2005
656058,-15812,16248,-16772,15996,-609,87,-973,-493,-89,163,-1077,4758,38,40,835,1841,1926,2127,2339,2058,1853,1919,2005
657059,-15776,16312,-16707,16061,-424,138,-968,-496,-112,284,-1058,4546,33,45,834,1860,1945,2149,2344,2071,1858,1931,2017
658060,-15712,16368,-16642,16126,-773,249,-964,-489,-136,299,-945,4874,42,41,835,1860,1945,2149,2344,2071,1858,1931,2017
659061,-15680,16432,-16577,16191,-333,150,-943,-477,-150,119,-1012,4650,41,35,834,1860,1945,2149,2344,2071,1858,1931,2017
660062,-15616,16492,-16512,16256,-732,206,-925,-503,-155,523,-916,4663,23,37,834,1860,1945,2149,2344,2071,1858,1931,2017
661063,-15576,16560,-16447,16321,-402,102,-891,-519,-160,300,-877,4840,24,31,834,1860,1945,2149,2344,2071,1858,1931,2017
662064,-15528,16620,-16382,16386,-482,208,-864,-546,-153,56,-870,4589,36,41,835,1834,1923,2117,2298,2069,1849,1924,2017
663065,-15500,16696,-16317,16451,-187,-6,-839,-530,-157,357,-808,4880,35,35,834,1834,1923,2117,2298,2069,1849,1924,2017
664066,-15456,16728,-16252,16516,-361,585,-815,-497,-164,421,-782,4523,17,41,835,1834,1923,2117,2298,2069,1849,1924,2017
665067,-15424,16804,-16187,16581,-172,21,-800,-499,-166,570,-735,4499,34,32,831,1834,1923,2117,2298,2069,1849,1924,2017
666068,-15380,16848,-16122,16646,-296,447,-789,-504,-168,576,-764,4351,31,39,833,1834,1923,2117,2298,2069,1849,1924,2017
667069,-15368,16924,-16057,16711,168,33,-784,-518,-186,496,-750,4216,28,40,832,1834,1923,2117,2298,2069,1849,1924,2017
668070,-15316,16992,-15992,16776,-317,130,-785,-509,-199,664,-817,4239,33,32,835,1820,1916,2108,2284,2040,1818,1876,1951
669071,-15288,17060,-15927,16841,28,126,-773,-492,-214,751,-739,4361,23,33,834,1820,1916,2108,2284,2040,1818,1876,1951
670072,-15268,17120,-15862,16906,183,232,-762,-489,-203,627,-1003,4001,26,29,835,1820,1916,2108,2284,2040,1818,1876,1951
671073,-15236,17172,-15797,16971,74,348,-743,-480,-211,540,-921,4352,27,36,833,1820,1916,2108,2284,2040,1818,1876,1951
672074,-15212,17244,-15732,17036,223,89,-732,-501,-226,267,-903,3990,27,37,833,1820,1916,2108,2284,2040,1818,1876,1951
673075,-15184,17304,-15667,17101,218,245,-708,-515,-240,637,-923,4204,28,34,833,1816,1905,2105,2289,2007,1796,1861,1945
674076,-15160,17360,-15602,17166,318,306,-686,-530,-245,600,-840,4090,14,30,833,1816,1905,2105,2289,2007,1796,1861,1945
675077,-15128,17416,-15537,17231,258,317,-665,-548,-259,407,-842,4153,17,42,832,1816,1905,2105,2289,2007,1796,1861,1945
676078,-15104,17488,-15472,17296,408,108,-649,-549,-274,830,-720,3986,14,41,832,1816,1905,2105,2289,2007,1796,1861,1945
677079,-15088,17540,-15407,17361,568,374,-632,-553,-280,704,-631,3937,22,36,832,1816,1905,2105,2289,2007,1796,1861,1945
678080,-15044,17584,-15342,17426,243,500,-621,-540,-294,681,-619,3880,21,32,829,1816,1905,2105,2289,2007,1796,1861,1945
679081,-15016,17648,-15277,17491,488,251,-606,-530,-303,836,-523,3851,32,36,831,1815,1899,2103,2295,1996,1794,1862,1940
680082,-14980,17692,-15212,17556,423,526,-580,-516,-313,1055,-440,3963,29,42,831,1815,1899,2103,2295,1996,1794,1862,1940
681083,-14960,17756,-15147,17621,678,278,-548,-469,-321,1009,-345,3974,32,33,829,1815,1899,2103,2295,1996,1794,1862,1940
682084,-14904,17804,-15082,17686,239,498,-519,-438,-314,803,-499,3822,21,32,828,1815,1899,2103,2295,1996,1794,1862,1940
683085,-14872,17864,-15017,17751,579,355,-487,-397,-317,860,-379,3955,36,47,829,1815,1899,2103,2295,1996,1794,1862,1940
684086,-14832,17952,-14952,17816,510,-24,-449,-353,-318,1000,-282,3724,21,30,829,1807,1878,2081,2272,1984,1796,1868,1928
685087,-14792,18000,-14887,17881,541,497,-414,-326,-315,868,-379,3620,40,34,831,1807,1878,2081,2272,1984,1796,1868,1928
686088,-14748,18064,-14822,17946,516,298,-377,-300,-321,787,-331,3792,39,43,829,1807,1878,2081,2272,1984,1796,1868,1928
687089,-14696,18120,-14757,18011,432,409,-333,-288,-322,709,-332,3634,26,36,830,1807,1878,2081,2272,1984,1796,1868,1928
688090,-14632,18212,-14692,18076,283,-74,-296,-272,-324,903,-323,3659,28,35,830,1807,1878,2081,2272,1984,1796,1868,1928
689091,-14592,18268,-14627,18141,614,386,-250,-225,-336,941,-276,3751,39,41,833,1807,1878,2081,2272,1984,1796,1868,1928
690092,-14524,18324,-14562,18206,260,397,-214,-205,-332,673,-502,3491,27,46,829,1805,1889,2087,2281,1987,1779,1845,1921
691093,-14464,18396,-14497,18271,366,189,-173,-180,-343,705,-390,3811,40,38,831,1805,1889,2087,2281,1987,1779,1845,1921
692094,-14420,18448,-14432,18336,592,455,-143,-167,-342,645,-426,3347,32,35,832,1805,1889,2087,2281,1987,1779,1845,1921
693095,-14352,18508,-14367,18401,288,361,-110,-148,-348,718,-408,3701,47,43,828,1805,1889,2087,2281,1987,1779,1845,1921
694096,-14280,18572,-14302,18466,230,312,-86,-141,-349,626,-420,3317,47,33,831,1805,1889,2087,2281,1987,1779,1845,1921
695097,-14228,18636,-14237,18531,496,313,-56,-116,-355,691,-383,3650,32,38,832,1798,1878,2082,2273,1953,1749,1814,1890
696098,-14168,18688,-14172,18596,402,479,-35,-99,-349,825,-421,3346,29,37,830,1798,1878,2082,2273,1953,1749,1814,1890
697099,-14104,18768,-14107,18661,353,111,-8,-51,-352,984,-330,3788,36,47,830,1798,1878,2082,2273,1953,1749,1814,1890
698100,-14040,18816,-14042,18726,354,532,17,-4,-345,955,-347,3421,49,46,833,1798,1878,2082,2273,1953,1749,1814,1890
699101,-13984,18876,-13977,18791,465,388,38,50,-339,1074,-372,3660,47,33,830,1798,1878,2082,2273,1953,1749,1814,1890
700102,-13924,18952,-13912,18856,421,174,68,90,-329,1186,-167,3621,47,38,829,1798,1878,2082,2273,1953,1749,1814,1890
701103,-13864,19012,-13847,18921,427,380,104,118,-317,1065,-311,3563,31,38,832,1800,1876,2076,2264,1945,1747,1815,1897
702104,-13796,19072,-13648,19120,487,550,141,151,-302,808,-288,3615,37,35,830,1800,1876,2076,2264,1945,1747,1815,1897
703105,-13728,19132,-13583,19185,484,556,180,168,-285,742,-168,3470,38,41,829,1800,1876,2076,2264,1945,1747,1815,1897
704106,-13680,19184,-13518,19250,754,672,216,183,-264,739,-243,3349,50,33,828,1800,1876,2076,2264,1945,1747,1815,1897
705107,-13608,19256,-13453,19315,446,414,257,181,-246,818,-228,3382,41,48,825,1800,1876,2076,2264,1945,1747,1815,1897
706108,-13548,19336,-13388,19380,602,295,295,154,-225,688,-204,3232,39,51,830,1795,1874,2076,2267,1974,1771,1839,1915
707109,-13488,19424,-13323,19445,608,167,339,151,-212,602,-265,3319,48,37,829,1795,1874,2076,2267,1974,1771,1839,1915
708110,-13420,19496,-13258,19510,504,359,383,171,-206,738,-147,3352,54,38,830,1795,1874,2076,2267,1974,1771,1839,1915
709111,-13340,19572,-13193,19575,336,295,422,189,-201,907,-125,3313,52,35,830,1795,1874,2076,2267,1974,1771,1839,1915
710112,-13280,19636,-13128,19640,592,446,454,211,-185,792,-143,3370,54,35,832,1795,1874,2076,2267,1974,1771,1839,1915
711113,-13208,19700,-13063,19705,434,448,485,237,-169,837,-163,3517,47,47,828,1795,1874,2076,2267,1974,1771,1839,1915
712114,-13136,19768,-12998,19770,425,394,519,249,-161,759,-140,3340,39,41,830,1799,1878,2081,2271,1986,1775,1842,1925
713115,-13088,19836,-12933,19835,746,390,546,252,-155,540,-193,3501,53,39,831,1799,1878,2081,2271,1986,1775,1842,1925
714116,-13004,19908,-12868,19900,273,332,581,266,-146,675,-216,3512,50,37,827,1799,1878,2081,2271,1986,1775,1842,1925
715117,-12944,19944,-12803,19965,579,817,613,281,-139,871,-242,3659,40,39,832,1799,1878,2081,2271,1986,1775,1842,1925
716118,-12868,20016,-12738,20030,365,359,642,258,-114,596,-328,3493,44,44,825,1799,1878,2081,2271,1986,1775,1842,1925
717119,-12796,20096,-12673,20095,407,240,678,252,-99,689,-259,3702,56,49,829,1798,1879,2080,2261,1971,1759,1825,1907
718120,-12728,20172,-12608,20160,454,277,706,264,-84,973,-276,3708,43,43,831,1798,1879,2080,2261,1971,1759,1825,1907
719121,-12664,20228,-12543,20225,505,538,727,273,-71,967,-224,3642,49,48,831,1798,1879,2080,2261,1971,1759,1825,1907
720122,-12592,20320,-12478,20290,397,55,738,296,-43,705,-318,3823,48,45,829,1798,1879,2080,2261,1971,1759,1825,1907
721123,-12520,20384,-12413,20355,388,406,742,316,-13,686,-210,3776,52,40,832,1798,1879,2080,2261,1971,1759,1825,1907
722124,-12444,20448,-12348,20420,325,407,757,326,15,645,-381,3836,50,34,830,1798,1879,2080,2261,1971,1759,1825,1907
723125,-12388,20500,-12283,20485,586,573,774,304,32,911,-256,3902,46,37,831,1802,1887,2089,2269,1967,1759,1839,1934
724126,-12332,20572,-12218,20550,597,315,781,282,68,910,-200,3894,42,45,828,1802,1887,2089,2269,1967,1759,1839,1934
725127,-12276,20636,-12153,20615,608,416,799,270,98,804,-268,3851,50,42,829,1802,1887,2089,2269,1967,1759,1839,1934
726128,-12204,20692,-12088,20680,399,527,822,271,112,684,-161,3877,38,47,828,1802,1887,2089,2269,1967,1759,1839,1934
727129,-12136,20756,-12023,20745,445,428,829,251,131,771,-109,3746,37,41,829,1802,1887,2089,2269,1967,1759,1839,1934
728130,-12092,20812,-11958,20810,771,539,842,242,157,790,-194,3966,46,31,830,1812,1911,2111,2285,2027,1823,1895,1996
729131,-12016,20880,-11893,20875,358,385,868,254,159,992,-188,3909,46,33,826,1812,1911,2111,2285,2027,1823,1895,1996
730132,-11960,20948,-11828,20940,619,382,910,242,158,966,-216,3819,35,42,830,1812,1911,2111,2285,2027,1823,1895,1996
731133,-11900,21012,-11763,21005,575,433,936,244,164,913,55,3849,47,37,829,1812,1911,2111,2285,2027,1823,1895,1996
732134,-11828,21068,-11698,21070,416,544,961,220,179,935,109,3846,34,30,829,1812,1911,2111,2285,2027,1823,1895,1996
733135,-11768,21116,-11633,21135,572,665,977,236,184,624,14,4107,35,30,829,1812,1911,2111,2285,2027,1823,1895,1996
734136,-11704,21180,-11568,21200,524,466,1013,254,188,773,-167,4127,43,40,825,1811,1899,2112,2287,2064,1838,1899,1998
735137,-11656,21268,-11503,21265,744,138,1048,267,194,889,-46,4157,30,43,829,1811,1899,2112,2287,2064,1838,1899,1998
736138,-11596,21320,-11438,21330,600,604,1074,261,204,684,-39,4174,44,31,829,1811,1899,2112,2287,2064,1838,1899,1998
737139,-11528,21376,-11373,21395,497,565,1090,273,216,600,-40,4067,32,31,827,1811,1899,2112,2287,2064,1838,1899,1998
738140,-11460,21428,-11308,21460,493,631,1086,243,249,379,-45,4048,37,37,828,1811,1899,2112,2287,2064,1838,1899,1998
739141,-11412,21488,-11243,21525,764,537,1085,237,273,459,-95,4179,44,31,828,1809,1899,2111,2292,2039,1816,1876,1967
740142,-11360,21548,-11178,21590,731,543,1075,252,288,766,-158,4119,49,36,826,1809,1899,2111,2292,2039,1816,1876,1967
741143,-11288,21608,-11113,21655,472,549,1071,265,301,747,28,4258,39,45,826,1809,1899,2111,2292,2039,1816,1876,1967
742144,-11224,21676,-11048,21720,573,445,1058,270,316,580,-38,4201,38,33,828,1809,1899,2111,2292,2039,1816,1876,1967
743148,-11152,21724,-10983,21785,465,716,1058,295,319,693,-53,4427,40,31,828,1809,1899,2111,2292,2039,1816,1876,1967
744146,-11088,21764,-10918,21850,566,846,1045,292,331,791,-52,4149,35,30,827,1809,1899,2111,2292,2039,1816,1876,1967
745147,-11028,21820,-10853,21915,622,657,1025,297,352,606,-25,4273,47,31,825,1808,1896,2107,2283,2019,1807,1866,1963
746148,-10948,21896,-10788,21980,354,394,1003,309,365,648,-53,4152,36,42,826,1808,1896,2107,2283,2019,1807,1866,1963
747149,-10872,21952,-10723,22045,390,655,999,305,372,858,-74,4148,40,37,830,1808,1896,2107,2283,2019,1807,1866,1963
748150,-10828,22028,-10658,22110,816,392,1014,281,385,868,-68,4278,50,39,828,1808,1896,2107,2283,2019,1807,1866,1963
749151,-10756,22076,-10593,22175,457,762,1028,300,395,752,-38,4370,44,45,827,1808,1896,2107,2283,2019,1807,1866,1963
750152,-10700,22124,-10528,22240,668,783,1048,319,400,632,4,4294,45,32,827,1796,1880,2104,2280,2058,1844,1896,2003
751153,-10644,22172,-10463,22305,679,804,1061,326,403,466,166,4292,40,44,823,1796,1880,2104,2280,2058,1844,1896,2003
752154,-10576,22252,-10398,22370,526,386,1084,324,403,533,142,4239,40,43,824,1796,1880,2104,2280,2058,1844,1896,2003
753155,-10520,22324,-10333,22435,687,477,1090,320,405,778,29,4024,41,46,829,1796,1880,2104,2280,2058,1844,1896,2003
754156,-10432,22388,-10268,22500,259,578,1099,324,395,826,57,4139,36,34,827,1796,1880,2104,2280,2058,1844,1896,2003
755157,-10388,22440,-10203,22565,834,744,1104,347,397,621,155,4171,43,33,830,1796,1880,2104,2280,2058,1844,1896,2003
756158,-10312,22504,-10138,22630,422,595,1099,369,406,385,338,4052,41,45,824,1787,1878,2102,2272,2091,1866,1916,2019
757159,-10252,22592,-10073,22695,628,267,1083,388,413,198,276,3919,49,48,828,1787,1878,2102,2272,2091,1866,1916,2019
758160,-10204,22676,-10008,22760,799,294,1062,395,416,360,241,3944,41,41,829,1787,1878,2102,2272,2091,1866,1916,2019
759161,-10144,22724,-9943,22825,655,766,1053,389,429,483,231,3892,45,46,827,1787,1878,2102,2272,2091,1866,1916,2019
760162,-10076,22792,-9878,22890,551,512,1049,376,455,272,167,4086,49,33,825,1787,1878,2102,2272,2091,1866,1916,2019
761163,-10040,22864,-9813,22955,987,454,1047,373,471,91,129,4125,32,43,828,1771,1895,2116,2286,2074,1851,1901,1982
762164,-9964,22916,-9748,23020,473,719,1041,407,474,329,59,4304,47,32,823,1771,1895,2116,2286,2074,1851,1901,1982
763165,-9900,22984,-9683,23085,624,516,1047,449,466,538,29,4350,51,36,826,1771,1895,2116,2286,2074,1851,1901,1982
764166,-9832,23044,-9618,23150,571,622,1050,516,460,487,-3,4658,38,33,827,1771,1895,2116,2286,2074,1851,1901,1982
765167,-9772,23128,-9553,23215,677,299,1040,570,480,520,-226,4381,40,47,827,1771,1895,2116,2286,2074,1851,1901,1982
766168,-9716,23204,-9488,23280,738,385,1026,596,498,493,-101,4411,41,50,829,1771,1895,2116,2286,2074,1851,1901,1982
767169,-9644,23248,-9423,23345,529,811,1019,612,507,332,-133,4361,36,43,827,1798,1883,2106,2272,2048,1832,1892,1992
768170,-9588,23324,-9358,23410,740,397,1001,604,510,301,-54,4336,52,34,823,1798,1883,2106,2272,2048,1832,1892,1992
769171,-9520,23396,-9293,23475,588,439,978,608,513,30,78,4135,52,47,827,1798,1883,2106,2272,2048,1832,1892,1992
770172,-9468,23456,-9228,23540,803,595,949,585,515,-24,110,3913,47,39,828,1798,1883,2106,2272,2048,1832,1892,1992
771173,-9404,23528,-9163,23605,655,436,923,529,514,-46,98,3913,49,33,825,1798,1883,2106,2272,2048,1832,1892,1992
772174,-9340,23580,-9098,23670,656,702,902,479,512,-98,176,3816,37,38,827,1797,1877,2105,2287,2051,1843,1891,1989
773175,-9276,23644,-9033,23735,657,554,881,460,521,-106,-34,3837,36,36,826,1797,1877,2105,2287,2051,1843,1891,1989
774176,-9208,23708,-8968,23800,603,555,879,468,514,62,-67,4124,39,33,826,1797,1877,2105,2287,2051,1843,1891,1989
775177,-9132,23784,-8903,23865,490,391,881,479,493,581,-93,4014,41,44,827,1797,1877,2105,2287,2051,1843,1891,1989
776178,-9084,23836,-8838,23930,861,707,854,429,491,1086,51,3449,47,34,829,1797,1877,2105,2287,2051,1843,1891,1989
777179,-9020,23896,-8773,23995,662,613,812,335,497,491,180,3354,47,31,823,1797,1877,2105,2287,2051,1843,1891,1989
778180,-8964,23972,-8708,24060,773,400,791,308,492,-139,265,3809,52,48,825,1793,1875,2104,2272,2082,1863,1917,2030
779181,-8904,24036,-8643,24125,729,551,788,311,491,186,338,3920,35,42,826,1793,1875,2104,2272,2082,1863,1917,2030
780182,-8840,24092,-8578,24190,681,662,808,377,485,505,287,4011,49,33,826,1793,1875,2104,2272,2082,1863,1917,2030
781183,-8764,24164,-8513,24255,518,454,848,462,470,499,225,4271,51,33,826,1793,1875,2104,2272,2082,1863,1917,2030
782184,-8700,24236,-8448,24320,669,445,888,491,478,263,165,4083,37,34,829,1793,1875,2104,2272,2082,1863,1917,2030
783185,-8660,24276,-8383,24385,1000,876,920,469,498,-31,151,4044,39,30,827,1767,1867,2078,2220,2081,1844,1896,2014
784186,-8588,24344,-8318,24450,591,522,930,443,509,-140,231,3918,38,32,820,1767,1867,2078,2220,2081,1844,1896,2014
785187,-8520,24400,-8253,24515,637,683,923,411,510,-292,338,4146,48,39,825,1767,1867,2078,2220,2081,1844,1896,2014
786188,-8456,24456,-8188,24580,689,694,894,384,499,-390,446,4081,47,27,825,1767,1867,2078,2220,2081,1844,1896,2014
787189,-8392,24508,-8123,24645,690,760,866,359,484,-263,378,3959,46,27,825,1767,1867,2078,2220,2081,1844,1896,2014
788190,-8340,24544,-8058,24710,856,995,844,326,462,-184,464,4114,41,39,824,1767,1867,2078,2220,2081,1844,1896,2014
789191,-8260,24616,-7993,24775,487,538,820,310,448,-443,415,4010,50,38,820,1753,1854,2082,2244,2016,1798,1853,1952
790192,-8212,24668,-7928,24840,909,803,791,294,425,-262,457,3962,36,30,828,1753,1854,2082,2244,2016,1798,1853,1952
791193,-8144,24732,-7863,24905,656,655,769,278,403,-78,420,3699,51,34,822,1753,1854,2082,2244,2016,1798,1853,1952
792194,-8072,24780,-7798,24970,597,875,743,275,380,-161,427,3916,50,34,825,1753,1854,2082,2244,2016,1798,1853,1952
793196,-8032,24828,-7733,25035,1027,896,723,303,366,-251,321,3869,33,32,824,1753,1854,2082,2244,2016,1798,1853,1952
794196,-7964,24888,-7668,25100,674,752,709,328,352,52,392,3763,42,38,819,1792,1889,2115,2276,1997,1810,1859,1957
795197,-7892,24960,-7603,25165,615,594,701,353,328,98,408,3770,33,45,824,1792,1889,2115,2276,1997,1810,1859,1957
796198,-7864,25024,-7538,25230,1210,695,694,346,311,40,319,3571,32,39,826,1792,1889,2115,2276,1997,1810,1859,1957
797199,-7796,25096,-7473,25295,707,586,701,340,296,53,426,3757,42,40,819,1792,1889,2115,2276,1997,1810,1859,1957
798200,-7724,25132,-7408,25360,648,1072,703,334,285,-87,477,3661,46,46,825,1792,1889,2115,2276,1997,1810,1859,1957
799201,-7684,25200,-7343,25425,1080,668,720,337,268,-104,561,3961,37,32,821,1792,1889,2115,2276,1997,1810,1859,1957
800202,-7612,25284,-7278,25490,671,445,741,339,259,-158,507,3903,49,44,821,1803,1877,2117,2291,2008,1804,1882,1980
801203,-7552,25348,-7213,25555,827,696,747,337,250,-151,521,3943,51,38,826,1803,1877,2117,2291,2008,1804,1882,1980
802204,-7496,25412,-7148,25620,888,697,760,321,239,-153,601,3844,37,47,822,1803,1877,2117,2291,2008,1804,1882,1980
803205,-7416,25484,-7083,25685,570,590,769,284,243,-289,813,3917,34,34,822,1803,1877,2117,2291,2008,1804,1882,1980
804206,-7364,25540,-7018,25750,936,801,785,290,249,-724,867,4260,42,40,826,1803,1877,2117,2291,2008,1804,1882,1980
805207,-7304,25620,-6953,25815,842,483,788,314,237,-642,789,3999,35,29,822,1792,1839,2068,2272,2048,1844,1892,1960
806208,-7252,25676,-6888,25880,958,794,804,351,232,-278,757,4065,36,38,825,1792,1839,2068,2272,2048,1844,1892,1960
807209,-7196,25744,-6823,25945,920,640,813,371,241,-178,807,4092,41,33,821,1792,1839,2068,2272,2048,1844,1892,1960
808210,-7132,25808,-6758,26010,821,691,830,381,232,-444,879,4073,50,43,822,1792,1839,2068,2272,2048,1844,1892,1960
809211,-7056,25868,-6693,26075,658,747,818,384,218,-755,646,3858,54,34,823,1792,1839,2068,2272,2048,1844,1892,1960
810212,-7008,25908,-6628,26140,1028,1028,802,411,194,-504,826,4015,44,43,824,1792,1839,2068,2272,2048,1844,1892,1960
811213,-6956,25976,-6563,26205,994,674,779,407,160,-412,810,3919,37,41,817,1791,1883,2099,2271,2031,1823,1875,1975
812214,-6880,26028,-6498,26270,681,890,763,382,127,-658,633,3895,38,39,821,1791,1883,2099,2271,2031,1823,1875,1975
813215,-6816,26096,-6433,26335,832,686,744,366,76,-338,813,4120,40,33,823,1791,1883,2099,2271,2031,1823,1875,1975
814216,-6752,26140,-6368,26400,834,1012,738,327,44,-571,579,3643,42,36,823,1791,1883,2099,2271,2031,1823,1875,1975
815217,-6676,26208,-6303,26465,671,709,727,298,7,-557,518,4289,45,43,820,1791,1883,2099,2271,2031,1823,1875,1975
816218,-6632,26264,-6238,26530,1096,870,724,278,-18,-447,502,3739,39,32,824,1792,1883,2114,2280,2016,1810,1864,1970
817219,-6560,26312,-6173,26595,738,991,714,285,-26,-177,654,4252,34,32,819,1792,1883,2114,2280,2016,1810,1864,1970
818220,-6500,26372,-6108,26660,894,847,709,268,-30,-199,545,3791,47,46,820,1792,1883,2114,2280,2016,1810,1864,1970
819221,-6460,26436,-6043,26725,1175,798,700,264,-36,-107,457,3973,40,42,819,1792,1883,2114,2280,2016,1810,1864,1970
820222,-6400,26508,-5978,26790,931,690,703,277,-20,-75,505,3967,33,35,818,1792,1883,2114,2280,2016,1810,1864,1970
821223,-6344,26572,-5913,26855,993,791,696,284,-7,-187,555,3753,51,39,821,1802,1886,2118,2275,2031,1833,1877,1986
822224,-6284,26616,-5848,26920,949,1067,694,293,-11,-290,583,4124,43,46,820,1802,1886,2118,2275,2031,1833,1877,1986
823225,-6216,26672,-5783,26985,845,928,696,255,2,-184,764,3812,42,44,818,1802,1886,2118,2275,2031,1833,1877,1986
824226,-6164,26728,-5718,27050,1061,939,707,223,2,-179,921,4029,37,35,820,1802,1886,2118,2275,2031,1833,1877,1986
825227,-6112,26820,-5653,27115,1077,457,707,178,8,-540,783,3846,39,37,818,1802,1886,2118,2275,2031,1833,1877,1986
826228,-6056,26868,-5588,27180,1038,1027,700,125,1,-511,857,3955,40,35,821,1802,1886,2118,2275,2031,1833,1877,1986
827229,-5988,26928,-5523,27245,885,883,693,81,-7,-472,883,3946,35,46,817,1785,1866,2090,2257,2045,1839,1876,1989
828230,-5948,26980,-5458,27310,1266,999,684,23,-27,-528,1008,4042,34,45,820,1785,1866,2090,2257,2045,1839,1876,1989
829231,-5880,27064,-5393,27375,912,576,681,-38,-35,-706,1157,3962,45,46,815,1785,1866,2090,2257,2045,1839,1876,1989
830232,-5824,27136,-5328,27440,1073,718,666,-64,-57,-465,976,4257,52,51,822,1785,1866,2090,2257,2045,1839,1876,1989
831233,-5772,27220,-5263,27505,1139,544,652,-75,-73,-252,751,3989,47,50,820,1785,1866,2090,2257,2045,1839,1876,1989
832234,-5708,27280,-5198,27570,991,851,637,-92,-77,-139,890,4194,40,48,820,1768,1856,2077,2233,2045,1839,1881,1985
833235,-5640,27328,-5133,27635,937,1022,628,-87,-92,-373,881,4189,36,44,819,1768,1856,2077,2233,2045,1839,1881,1985
834236,-5608,27396,-5068,27700,1428,769,615,-92,-104,-365,811,4232,34,48,818,1768,1856,2077,2233,2045,1839,1881,1985
835237,-5544,27464,-5003,27765,1029,765,610,-79,-116,-182,773,4203,33,34,814,1768,1856,2077,2233,2045,1839,1881,1985
836238,-5492,27536,-4938,27830,1195,706,604,-62,-128,-206,626,4111,34,41,816,1768,1856,2077,2233,2045,1839,1881,1985
837239,-5432,27604,-4873,27895,1101,753,594,-46,-140,-117,637,4110,34,43,818,1768,1856,2077,2233,2045,1839,1881,1985
838240,-5372,27664,-4808,27960,1108,859,587,-36,-139,-142,519,4036,50,49,819,1778,1866,2097,2224,2015,1823,1873,1983
839241,-5324,27716,-4743,28025,1279,975,569,-24,-139,-328,476,4139,53,44,818,1778,1866,2097,2224,2015,1823,1873,1983
840242,-5240,27776,-4678,28090,806,881,552,-34,-127,-379,576,3992,52,44,815,1778,1866,2097,2224,2015,1823,1873,1983
841243,-5196,27844,-4613,28155,1331,777,543,-40,-114,-75,704,4066,53,34,820,1778,1866,2097,2224,2015,1823,1873,1983
842244,-5152,27904,-4548,28220,1358,884,533,-58,-110,-333,635,3929,36,44,816,1778,1866,2097,2224,2015,1823,1873,1983
843245,-5088,27968,-4483,28285,1109,835,526,-69,-95,-435,711,4039,44,46,814,1808,1888,2160,2312,2001,1808,1888,1988
844246,-5044,28028,-4418,28350,1385,892,519,-70,-79,-242,840,4087,50,42,817,1808,1888,2160,2312,2001,1808,1888,1988
845247,-4984,28072,-4353,28415,1191,1117,504,-75,-73,-342,897,3976,43,46,814,1808,1888,2160,2312,2001,1808,1888,1988
846248,-4924,28128,-4288,28480,1197,978,487,-99,-69,-314,903,4008,51,34,813,1808,1888,2160,2312,2001,1808,1888,1988
847249,-4868,28212,-4223,28545,1259,605,470,-115,-62,-55,1074,3879,49,50,816,1808,1888,2160,2312,2001,1808,1888,1988
848250,-4800,28284,-4158,28610,1105,746,452,-121,-64,-61,1009,3949,46,44,818,1808,1888,2160,2312,2001,1808,1888,1988
849251,-4768,28328,-4093,28675,1595,1122,428,-114,-61,-102,940,3910,51,49,818,1831,1911,2159,2335,2087,1887,1919,2015
850252,-4696,28400,-4028,28740,1087,765,418,-85,-65,-11,1009,4136,51,49,810,1831,1911,2159,2335,2087,1887,1919,2015
851253,-4644,28464,-3963,28805,1354,866,408,-51,-65,89,969,4075,36,52,818,1831,1911,2159,2335,2087,1887,1919,2015
852254,-4592,28540,-3898,28870,1370,702,397,-47,-62,73,1054,4113,40,39,815,1831,1911,2159,2335,2087,1887,1919,2015
853255,-4528,28600,-3833,28935,1221,908,399,-28,-51,170,968,4225,48,48,814,1831,1911,2159,2335,2087,1887,1919,2015
854256,-4468,28656,-3768,29000,1278,969,398,-10,-58,68,1057,4188,35,44,815,1784,1842,2079,2270,2054,1844,1872,1976
855257,-4408,28696,-3703,29065,1284,1200,406,21,-66,-89,893,4181,47,31,814,1784,1842,2079,2270,2054,1844,1872,1976
856258,-4356,28772,-3638,29130,1400,737,404,24,-58,-8,905,4119,51,35,812,1784,1842,2079,2270,2054,1844,1872,1976
857259,-4312,28824,-3573,29195,1526,1052,409,52,-47,-40,861,4159,47,44,815,1784,1842,2079,2270,2054,1844,1872,1976
858260,-4244,28884,-3508,29260,1223,959,407,80,-44,-190,752,4129,37,44,811,1784,1842,2079,2270,2054,1844,1872,1976
859261,-4176,28944,-3443,29325,1219,966,406,108,-52,-54,812,4139,52,37,814,1784,1842,2079,2270,2054,1844,1872,1976
860262,-4112,28992,-3378,29390,1270,1136,406,128,-50,23,863,4036,55,33,815,1760,1844,2082,2237,2044,1839,1851,1953
861263,-4064,29056,-3313,29455,1491,938,393,141,-37,-188,649,3841,48,31,813,1760,1844,2082,2237,2044,1839,1851,1953
862264,-4000,29112,-3248,29520,1293,1049,379,137,-20,-166,825,3809,43,37,811,1760,1844,2082,2237,2044,1839,1851,1953
863265,-3948,29164,-3183,29585,1459,1114,360,147,-4,152,938,4020,52,42,813,1760,1844,2082,2237,2044,1839,1851,1953
864266,-3896,29228,-3118,29650,1475,966,340,160,11,-36,855,3898,49,38,810,1760,1844,2082,2237,2044,1839,1851,1953
865267,-3852,29280,-3053,29715,1602,1133,327,176,11,17,982,3939,48,38,811,1777,1855,2100,2272,2022,1815,1853,1945
866268,-3776,29332,-2988,29780,1188,1148,317,184,24,30,1115,3908,39,38,808,1777,1855,2100,2272,2022,1815,1853,1945
867269,-3736,29392,-2923,29845,1669,1054,304,189,34,120,1105,3897,43,35,812,1777,1855,2100,2272,2022,1815,1853,1945
868270,-3668,29436,-2858,29910,1315,1280,295,210,37,209,1060,3895,41,48,809,1777,1855,2100,2272,2022,1815,1853,1945
869271,-3616,29512,-2793,29975,1532,867,278,230,47,353,1093,4044,37,47,809,1777,1855,2100,2272,2022,1815,1853,1945
870272,-3544,29564,-2728,30040,1274,1183,260,255,52,236,1164,3959,48,38,809,1777,1855,2100,2272,2022,1815,1853,1945
871273,-3492,29620,-2663,30105,1539,1145,259,272,59,90,1072,3840,43,34,810,1778,1857,2104,2276,2017,1813,1846,1941
872274,-3460,29680,-2598,30170,1831,1101,253,261,68,288,1067,3852,37,43,808,1778,1857,2104,2276,2017,1813,1846,1941
873275,-3388,29716,-2533,30235,1322,1436,254,253,79,307,1210,3819,45,47,805,1778,1857,2104,2276,2017,1813,1846,1941
874276,-3348,29768,-2468,30300,1753,1252,256,273,78,361,1144,3958,49,46,807,1778,1857,2104,2276,2017,1813,1846,1941
875277,-3296,29860,-2403,30365,1620,719,260,303,64,443,1134,4031,41,43,805,1778,1857,2104,2276,2017,1813,1846,1941
876278,-3228,29924,-2338,30430,1416,1071,264,301,60,384,1086,3874,50,39,811,1768,1815,2061,2240,2016,1800,1839,1920
877279,-3172,29992,-2273,30495,1577,1018,271,300,53,193,1104,4080,52,51,811,1768,1815,2061,2240,2016,1800,1839,1920
878280,-3112,30048,-2208,30560,1534,1179,277,271,61,21,1056,3975,45,43,809,1768,1815,2061,2240,2016,1800,1839,1920
879281,-3068,30100,-2143,30625,1760,1244,285,270,66,121,1243,4105,56,47,808,1768,1815,2061,2240,2016,1800,1839,1920
880282,-3008,30164,-2078,30690,1566,1096,282,305,70,237,1137,4025,41,47,805,1768,1815,2061,2240,2016,1800,1839,1920
881283,-2928,30216,-2013,30755,1298,1262,279,336,78,331,1159,4074,60,39,807,1768,1815,2061,2240,2016,1800,1839,1920
882284,-2860,30288,-1948,30820,1445,1004,282,321,91,102,1078,3933,54,51,810,1760,1840,2098,2258,2048,1832,1872,1968
883285,-2784,30352,-1883,30885,1331,1105,277,295,96,70,1143,3995,59,42,811,1760,1840,2098,2258,2048,1832,1872,1968
884286,-2724,30404,-1818,30950,1538,1271,256,294,108,33,882,3789,55,48,812,1760,1840,2098,2258,2048,1832,1872,1968
885287,-2664,30456,-1753,31015,1545,1287,243,323,132,328,1009,4018,59,52,808,1760,1840,2098,2258,2048,1832,1872,1968
886288,-2592,30516,-1688,31080,1386,1194,219,351,151,473,1104,3975,46,42,807,1760,1840,2098,2258,2048,1832,1872,1968
887289,-2528,30584,-1623,31145,1488,1090,197,357,157,256,1135,3760,49,49,807,1815,1911,2172,2351,2079,1867,1899,1999
888290,-2464,30664,-1558,31210,1489,922,176,344,156,266,1197,3728,55,42,809,1815,1911,2172,2351,2079,1867,1899,1999
889291,-2404,30720,-1493,31275,1546,1233,156,317,168,359,952,3683,42,46,811,1815,1911,2172,2351,2079,1867,1899,1999
890292,-2348,30784,-1428,31340,1608,1134,130,331,175,377,1110,4010,52,54,809,1815,1911,2172,2351,2079,1867,1899,1999
891293,-2268,30856,-1363,31405,1289,1027,118,337,192,433,1289,3733,53,43,808,1815,1911,2172,2351,2079,1867,1899,1999
892294,-2200,30924,-1298,31470,1437,1073,95,337,195,311,1235,3826,51,48,812,1815,1911,2172,2351,2079,1867,1899,1999
893295,-2144,30964,-1233,31535,1598,1454,74,317,194,233,1225,3586,53,43,811,1791,1871,2127,2287,2043,1843,1879,1983
894296,-2100,31056,-1168,31600,1773,771,56,295,202,289,1197,3801,38,52,805,1791,1871,2127,2287,2043,1843,1879,1983
895297,-2036,31120,-1103,31665,1525,1122,45,282,197,267,1206,3599,45,58,807,1791,1871,2127,2287,2043,1843,1879,1983
896298,-1984,31208,-1038,31730,1691,795,31,281,189,229,1216,3734,39,47,809,1791,1871,2127,2287,2043,1843,1879,1983
897299,-1916,31276,-973,31795,1488,1041,30,279,182,446,1297,3822,56,52,810,1791,1871,2127,2287,2043,1843,1879,1983
898300,-1848,31368,-908,31860,1485,708,36,282,193,361,1155,3800,45,53,811,1757,1824,2064,2244,2059,1838,1863,1985
899301,-1804,31432,-843,31925,1811,1059,43,271,197,274,1284,3822,46,55,813,1757,1824,2064,2244,2059,1838,1863,1985
900302,-1724,31500,-778,31990,1342,1006,54,258,211,148,1131,3800,54,53,807,1757,1824,2064,2244,2059,1838,1863,1985
901303,-1664,31552,-713,32055,1599,1223,57,277,242,249,1127,4019,59,52,811,1757,1824,2064,2244,2059,1838,1863,1985
902304,-1580,31624,-648,32120,1276,964,57,279,273,147,1268,3753,54,49,808,1757,1824,2064,2244,2059,1838,1863,1985
903305,-1520,31708,-583,32185,1582,791,46,279,290,97,1195,3927,48,43,813,1757,1824,2064,2244,2059,1838,1863,1985
904306,-1468,31780,-518,32250,1699,932,32,255,306,186,1152,3748,38,44,811,1743,1830,2056,2207,2033,1821,1835,1939
905307,-1376,31864,-453,32315,1166,759,22,212,321,285,1180,3483,43,59,809,1743,1830,2056,2207,2033,1821,1835,1939
906308,-1312,31908,-388,32380,1517,1286,-11,194,330,244,1155,3757,55,43,816,1743,1830,2056,2207,2033,1821,1835,1939
907309,-1268,31976,-323,32445,1794,982,-34,210,338,292,1309,3591,46,57,810,1743,1830,2056,2207,2033,1821,1835,1939
908310,-1204,32048,-258,32510,1545,923,-63,241,350,354,1221,3827,45,47,806,1743,1830,2056,2207,2033,1821,1835,1939
909311,-1124,32112,-193,32575,1328,1025,-71,266,361,530,1215,3704,41,59,810,1753,1832,2084,2255,2015,1788,1820,1934
910312,-1064,32188,-128,32640,1584,861,-85,227,373,442,1380,3460,50,48,813,1753,1832,2084,2255,2015,1788,1820,1934
911313,-1008,32264,-63,32705,1645,848,-99,201,377,195,1385,3741,50,45,812,1753,1832,2084,2255,2015,1788,1820,1934
912314,-948,32336,2,32770,1602,890,-124,210,394,192,1342,3593,46,53,810,1753,1832,2084,2255,2015,1788,1820,1934
913315,-880,32404,67,32835,1499,937,-130,243,385,367,1274,3759,42,47,810,1753,1832,2084,2255,2015,1788,1820,1934
914316,-824,32484,132,32900,1659,768,-143,255,394,437,1304,3479,41,44,812,1753,1832,2084,2255,2015,1788,1820,1934
915317,-760,32540,197,32965,1562,1079,-147,240,399,529,1458,3601,44,48,811,1771,1856,2108,2263,2011,1811,1842,1942
916318,-704,32612,262,33030,1673,871,-159,238,412,182,1288,3431,43,43,811,1771,1856,2108,2263,2011,1811,1842,1942
917319,-640,32672,327,33095,1574,1027,-177,270,407,289,1412,3710,56,57,810,1771,1856,2108,2263,2011,1811,1842,1942
918320,-560,32732,392,33160,1357,1034,-183,336,402,243,1498,3537,44,56,810,1771,1856,2108,2263,2011,1811,1842,1942
919321,-504,32808,457,33225,1668,821,-179,359,426,140,1314,3709,59,51,811,1771,1856,2108,2263,2011,1811,1842,1942
920322,-440,32880,522,33290,1570,862,-156,364,453,316,1401,3838,50,55,811,1783,1840,2096,2269,2029,1808,1840,1907
921323,-372,32956,587,33355,1516,799,-143,340,432,75,1340,3604,43,51,809,1783,1840,2096,2269,2029,1808,1840,1907
922324,-308,33012,652,33420,1567,1060,-128,309,428,-117,1345,3702,54,43,812,1783,1840,2096,2269,2029,1808,1840,1907
923325,-228,33084,717,33485,1350,851,-137,302,416,258,1462,3764,56,56,810,1783,1840,2096,2269,2029,1808,1840,1907
924326,-152,33160,782,33550,1387,788,-140,269,410,149,1433,3703,59,47,812,1783,1840,2096,2269,2029,1808,1840,1907
925327,-84,33220,847,33615,1483,995,-129,272,408,152,1483,3650,58,43,815,1783,1840,2096,2269,2029,1808,1840,1907
926328,-20,33288,912,33680,1535,891,-140,262,417,148,1526,3628,57,50,812,1770,1846,2102,2272,2072,1868,1860,1960
927329,52,33372,977,33745,1427,668,-157,319,434,70,1495,3750,41,46,811,1770,1846,2102,2272,2072,1868,1860,1960
928330,116,33444,1042,33810,1528,809,-177,367,472,348,1563,3810,42,48,813,1770,1846,2102,2272,2072,1868,1860,1960
929331,196,33512,1107,33875,1311,856,-186,431,483,595,1541,3978,58,52,813,1770,1846,2102,2272,2072,1868,1860,1960
930332,256,33592,1172,33940,1567,687,-202,447,474,483,1491,3727,55,41,814,1770,1846,2102,2272,2072,1868,1860,1960
931333,320,33672,1237,34005,1518,669,-212,424,473,630,1368,3599,55,42,814,1791,1871,2127,2303,2047,1847,1879,1979
932334,400,33728,1302,34070,1301,981,-230,448,462,464,1542,3854,52,48,814,1791,1871,2127,2303,2047,1847,1879,1979
933335,456,33800,1367,34135,1612,772,-248,469,449,414,1625,3788,55,46,814,1791,1871,2127,2303,2047,1847,1879,1979
934336,524,33856,1432,34200,1458,983,-250,521,422,229,1485,4009,44,48,813,1791,1871,2127,2303,2047,1847,1879,1979
935337,596,33924,1497,34265,1400,830,-256,546,411,28,1355,3764,51,44,811,1791,1871,2127,2303,2047,1847,1879,1979
936338,644,33976,1562,34330,1721,1046,-257,521,410,228,1403,3553,45,44,813,1791,1871,2127,2303,2047,1847,1879,1979
937339,712,34064,1627,34395,1467,568,-265,456,396,316,1442,3604,52,53,810,1776,1855,2103,2265,2033,1834,1851,1958
938340,776,34136,1692,34460,1520,759,-279,426,364,18,1358,3552,49,59,809,1776,1855,2103,2265,2033,1834,1851,1958
939341,856,34204,1757,34525,1301,805,-291,422,331,175,1526,3635,52,46,814,1776,1855,2103,2265,2033,1834,1851,1958
940342,904,34264,1822,34590,1723,912,-288,427,318,97,1459,3524,55,44,814,1776,1855,2103,2265,2033,1834,1851,1958
941343,968,34348,1887,34655,1524,589,-294,414,315,-82,1450,3573,59,61,812,1776,1855,2103,2265,2033,1834,1851,1958
942344,1036,34424,1952,34720,1471,676,-294,428,313,72,1454,3782,62,51,812,1757,1863,2118,2274,2049,1844,1869,1968
943345,1108,34488,2017,34785,1413,827,-312,459,321,324,1571,3499,54,46,814,1757,1863,2118,2274,2049,1844,1869,1968
944346,1176,34564,2082,34850,1459,664,-317,493,311,465,1658,3743,54,55,814,1757,1863,2118,2274,2049,1844,1869,1968
945347,1264,34636,2147,34915,1181,705,-332,490,315,53,1563,3545,63,56,815,1757,1863,2118,2274,2049,1844,1869,1968
946348,1328,34732,2212,34980,1484,367,-338,518,325,93,1498,3902,49,43,817,1757,1863,2118,2274,2049,1844,1869,1968
947349,1404,34796,2277,35045,1320,768,-363,561,340,505,1561,3720,48,45,818,1757,1863,2118,2274,2049,1844,1869,1968
948350,1476,34892,2342,35110,1362,331,-360,619,334,545,1713,3915,61,47,816,1766,1852,2090,2250,2036,1830,1859,1963
949351,1536,34932,2407,35175,1519,1061,-370,632,318,292,1631,3949,52,47,817,1766,1852,2090,2250,2036,1830,1859,1963
950352,1608,35008,2472,35240,1360,599,-363,626,307,215,1563,3919,43,51,814,1766,1852,2090,2250,2036,1830,1859,1963
951353,1688,35088,2537,35305,1242,530,-381,590,305,256,1476,3930,48,51,814,1766,1852,2090,2250,2036,1830,1859,1963
952354,1764,35148,2736,35504,1443,950,-383,585,279,424,1683,3902,50,46,818,1766,1852,2090,2250,2036,1830,1859,1963
953355,1828,35224,2801,35569,1594,737,-407,585,244,141,1631,3732,58,48,816,1750,1846,2101,2230,2000,1827,1852,1957
954356,1896,35300,2866,35634,1541,723,-431,584,205,195,1547,3885,60,62,812,1750,1846,2101,2230,2000,1827,1852,1957
955357,1972,35364,2931,35699,1428,874,-454,573,168,305,1612,3585,54,49,812,1750,1846,2101,2230,2000,1827,1852,1957
956358,2056,35440,2996,35764,1305,711,-479,567,137,321,1572,3632,62,61,813,1750,1846,2101,2230,2000,1827,1852,1957
957359,2128,35508,3061,35829,1446,807,-509,587,101,253,1586,3777,50,45,815,1750,1846,2101,2230,2000,1827,1852,1957
958360,2204,35596,3126,35894,1384,529,-532,614,71,74,1583,3799,60,53,815,1750,1846,2101,2230,2000,1827,1852,1957
959361,2280,35676,3191,35959,1371,612,-555,644,54,316,1505,3794,62,51,816,1746,1817,2080,2256,2031,1815,1859,1967
960362,2364,35756,3256,36024,1247,594,-570,644,50,459,1473,3598,51,46,817,1746,1817,2080,2256,2031,1815,1859,1967
961363,2440,35824,3321,36089,1335,740,-578,650,46,329,1460,3732,65,50,818,1746,1817,2080,2256,2031,1815,1859,1967
962364,2520,35916,3386,36154,1267,407,-590,661,31,227,1594,3651,65,54,818,1746,1817,2080,2256,2031,1815,1859,1967
963365,2584,36008,3451,36219,1468,374,-605,685,17,50,1458,3753,61,49,816,1746,1817,2080,2256,2031,1815,1859,1967
964366,2676,36068,3516,36284,1086,780,-615,730,12,246,1475,3861,67,56,818,1787,1863,2127,2272,2064,1858,1880,2000
965367,2744,36152,3581,36349,1382,457,-628,742,22,140,1454,3603,67,47,820,1787,1863,2127,2272,2064,1858,1880,2000
966368,2844,36220,3646,36414,940,653,-629,762,15,70,1698,3939,66,64,817,1787,1863,2127,2272,2064,1858,1880,2000
967369,2920,36300,3711,36479,1227,485,-637,767,3,2,1609,3717,52,64,818,1787,1863,2127,2272,2064,1858,1880,2000
968372,3008,36372,3776,36544,1049,576,-645,779,-15,129,1725,3899,50,52,822,1787,1863,2127,2272,2064,1858,1880,2000
969371,3076,36464,3841,36609,1295,294,-668,756,-32,126,1720,3555,49,51,820,1787,1863,2127,2272,2064,1858,1880,2000
970372,3144,36536,3906,36674,1293,535,-685,743,-64,201,1701,3849,47,64,821,1797,1888,2110,2270,2088,1874,1884,1992
971373,3232,36616,3971,36739,1015,418,-718,751,-107,143,1780,3664,46,55,820,1797,1888,2110,2270,2088,1874,1884,1992
972374,3312,36692,4036,36804,1096,454,-741,749,-163,60,1831,3725,64,50,817,1797,1888,2110,2270,2088,1874,1884,1992
973375,3384,36764,4101,36869,1188,496,-764,742,-225,72,1742,3715,48,54,822,1797,1888,2110,2270,2088,1874,1884,1992
974376,3468,36860,4166,36934,1016,158,-786,746,-275,220,1598,3758,49,65,822,1797,1888,2110,2270,2088,1874,1884,1992
975377,3540,36940,4231,36999,1157,340,-799,756,-322,463,1713,3783,56,49,820,1763,1843,2097,2263,2047,1841,1867,1975
976378,3616,37032,4296,37064,1094,157,-811,760,-363,302,1714,3691,59,51,824,1763,1843,2097,2263,2047,1841,1867,1975
977379,3692,37108,4361,37129,1080,343,-822,775,-403,94,1716,3793,48,49,822,1763,1843,2097,2263,2047,1841,1867,1975
978380,3776,37196,4426,37194,958,165,-830,806,-425,8,1561,3607,56,52,823,1763,1843,2097,2263,2047,1841,1867,1975
979381,3864,37260,4491,37259,880,466,-835,818,-435,281,1635,3670,48,51,823,1763,1843,2097,2263,2047,1841,1867,1975
980382,3944,37360,4556,37324,962,-26,-832,833,-442,113,1632,3415,51,57,826,1763,1843,2097,2263,2047,1841,1867,1975
981383,4012,37444,4621,37389,1108,150,-843,818,-456,51,1568,3497,42,59,825,1761,1847,2103,2263,2036,1834,1861,1967
982384,4072,37520,4686,37454,1215,237,-855,793,-475,41,1460,3236,39,47,826,1761,1847,2103,2263,2036,1834,1861,1967
983385,4160,37600,4751,37519,837,169,-883,785,-498,-68,1459,3353,43,55,824,1761,1847,2103,2263,2036,1834,1861,1967
984386,4220,37676,4816,37584,1193,205,-907,771,-531,85,1582,3104,42,46,822,1761,1847,2103,2263,2036,1834,1861,1967
985387,4288,37736,4881,37649,1089,411,-927,757,-566,6,1574,3349,56,54,827,1761,1847,2103,2263,2036,1834,1861,1967
986388,4360,37820,4946,37714,1032,87,-941,735,-587,-120,1580,3214,60,49,823,1773,1858,2113,2274,2025,1826,1855,1962
987389,4440,37892,5011,37779,914,229,-946,727,-616,-102,1721,3294,49,59,822,1773,1858,2113,2274,2025,1826,1855,1962
988390,4536,37972,5076,37844,676,110,-952,719,-648,-99,1690,3299,59,59,825,1773,1858,2113,2274,2025,1826,1855,1962
989391,4596,38024,5141,37909,1132,476,-950,710,-682,-126,1671,3128,45,49,823,1773,1858,2113,2274,2025,1826,1855,1962
990392,4668,38108,5206,37974,973,53,-946,715,-716,-233,1718,3473,56,58,828,1773,1858,2113,2274,2025,1826,1855,1962
991393,4752,38176,5271,38039,801,249,-946,728,-757,-23,1754,3262,60,58,821,1773,1858,2113,2274,2025,1826,1855,1962
992394,4832,38244,5336,38104,833,246,-957,732,-797,64,1555,3211,59,58,826,1762,1846,2091,2247,2015,1811,1839,1946
993395,4912,38332,5401,38169,814,-32,-960,722,-836,152,1651,3160,54,57,827,1762,1846,2091,2247,2015,1811,1839,1946
994396,4968,38392,5466,38234,1125,324,-966,698,-877,2,1568,3083,47,51,826,1762,1846,2091,2247,2015,1811,1839,1946
995397,5064,38492,5531,38299,588,-219,-972,684,-927,12,1631,3178,54,51,828,1762,1846,2091,2247,2015,1811,1839,1946
996398,5160,38552,5596,38364,551,287,-977,674,-976,-24,1602,3143,46,41,823,1762,1846,2091,2247,2015,1811,1839,1946
997399,5232,38632,5661,38429,842,19,-981,673,-1037,65,1616,3137,41,48,829,1745,1828,2067,2222,1996,1792,1830,1936
998400,5304,38696,5726,38494,834,220,-971,668,-1075,-121,1562,3070,50,39,829,1745,1828,2067,2222,1996,1792,1830,1936
999401,5400,38772,5791,38559,496,56,-963,636,-1104,-273,1511,3035,44,49,828,1745,1828,2067,2222,1996,1792,1830,1936
1000402,5476,38832,5856,38624,732,263,-950,582,-1126,-356,1482,2879,42,54,827,1745,1828,2067,2222,1996,1792,1830,1936
1001403,5544,38912,5921,38689,829,-6,-941,543,-1154,-312,1443,3102,45,44,831,1745,1828,2067,2222,1996,1792,1830,1936
1002404,5628,38980,5986,38754,606,140,-934,508,-1174,-233,1334,2867,54,53,828,1745,1828,2067,2222,1996,1792,1830,1936
1003405,5700,39036,6051,38819,748,301,-927,469,-1192,-113,1338,2871,56,43,828,1740,1826,2066,2222,1980,1780,1821,1927
1004406,5800,39112,6116,38884,355,37,-916,441,-1226,-121,1343,2859,57,51,829,1740,1826,2066,2222,1980,1780,1821,1927
1005407,5884,39180,6181,38949,532,134,-909,367,-1252,9,1390,2551,41,43,827,1740,1826,2066,2222,1980,1780,1821,1927
1006408,5984,39252,6246,39014,289,75,-902,262,-1300,553,1670,2144,43,40,831,1740,1826,2066,2222,1980,1780,1821,1927
1007409,6080,39312,6311,39079,301,231,-873,19,-1358,748,1584,997,51,47,829,1740,1826,2066,2222,1980,1780,1821,1927
1008410,6156,39376,6376,39144,538,182,-766,-259,-1411,-3374,-232,1174,48,41,833,1758,1839,2071,2235,1959,1757,1809,1913
1009411,6244,39448,6441,39209,360,74,-744,-76,-1429,-4009,-298,3712,51,38,832,1758,1839,2071,2235,1959,1757,1809,1913
1010412,6336,39500,6506,39274,277,340,-745,254,-1464,570,1254,2931,39,39,830,1758,1839,2071,2235,1959,1757,1809,1913
1011413,6412,39572,6571,39339,464,81,-759,128,-1481,1388,1340,928,55,40,832,1758,1839,2071,2235,1959,1757,1809,1913
1012414,6492,39640,6636,39404,395,127,-808,-129,-1455,-268,993,1874,55,42,831,1758,1839,2071,2235,1959,1757,1809,1913
1013415,6568,39700,6701,39469,432,233,-879,-159,-1448,-606,1055,2795,51,46,831,1758,1839,2071,2235,1959,1757,1809,1913
1014416,6648,39768,6766,39534,364,129,-926,-67,-1527,-307,1393,2643,56,46,832,1770,1854,2048,2203,1872,1680,1764,1860
1015417,6740,39840,6831,39599,182,70,-958,-12,-1592,-458,1167,2662,45,55,831,1770,1854,2048,2203,1872,1680,1764,1860
1016418,6816,39928,6896,39664,368,-158,-983,-90,-1613,-115,948,2423,41,40,832,1770,1854,2048,2203,1872,1680,1764,1860
1017419,6896,39996,6961,39729,300,89,-999,-232,-1635,-361,788,2461,39,51,833,1770,1854,2048,2203,1872,1680,1764,1860
1018421,7000,40060,7026,39794,-48,140,-1008,-397,-1674,-1034,684,2395,41,42,832,1770,1854,2048,2203,1872,1680,1764,1860
1019421,7104,40144,7091,39859,-95,-133,-998,-516,-1717,-1240,522,2757,57,43,833,1719,1793,1991,2141,1924,1728,1791,1903
1020422,7204,40208,7156,39924,-88,118,-986,-617,-1740,-752,310,2701,56,40,834,1719,1793,1991,2141,1924,1728,1791,1903
1021423,7296,40292,7221,39989,-21,-155,-958,-664,-1757,-509,173,2760,54,47,830,1719,1793,1991,2141,1924,1728,1791,1903
1022424,7388,40368,7286,40054,-54,-69,-917,-688,-1759,-666,140,2949,55,40,831,1719,1793,1991,2141,1924,1728,1791,1903
1023425,7484,40440,7351,40119,-142,-28,-878,-738,-1752,-779,37,2648,53,43,832,1719,1793,1991,2141,1924,1728,1791,1903
1024426,7592,40504,7416,40184,-345,73,-853,-776,-1746,-563,269,2606,49,54,833,1719,1793,1991,2141,1924,1728,1791,1903
1025427,7672,40584,7481,40249,-14,-145,-831,-793,-1739,-464,166,2544,37,48,825,1681,1769,1997,2141,2029,1812,1863,1995
1026428,7772,40664,7546,40314,-306,-164,-825,-781,-1741,-558,271,2451,52,41,834,1681,1769,1997,2141,2029,1812,1863,1995
1027429,7872,40716,7611,40379,-349,202,-848,-781,-1723,-528,195,2502,56,47,834,1681,1769,1997,2141,2029,1812,1863,1995
1028430,7940,40804,7676,40444,47,-276,-880,-789,-1719,-129,392,2270,55,50,834,1681,1769,1997,2141,2029,1812,1863,1995
1029431,8020,40860,7741,40509,-121,135,-928,-790,-1709,-288,494,2272,39,51,829,1681,1769,1997,2141,2029,1812,1863,1995
