%  Data file recorded 2016/8/28  19:41:49
%  Stride Frequency         = [1, 1]
%  Lead In /Lead Out        = 
%  Deltas (Fractional)      = [0.25, 0.25, 0.25],[0.25, 0.25, 0.25]
%  Phase                    = 32768
%  Experiment.py 
%  Motor Gains    = [5000, 400, 200, 0, 300, 5000, 400, 200, 0, 300]
% Columns: 
% time | Right Leg Pos | Left Leg Pos | Commanded Right Leg Pos | Commanded Left Leg Pos | DCR | DCL | GyroX | GyroY | GyroZ | AX | AY | AZ | RBEMF | LBEMF | VBatt | S1 | S2 | S3 | S4 | S5 | S6 | S7 | S8
174,-45148,-14372,-46136,-13368,3800,3800,45,-64,27,-29,47,3927,-7,7,896,1748,1860,2075,2232,2046,1809,1965,2114
1175,-45156,-14364,-46136,-13368,3800,3800,45,-65,27,-5,79,3929,6,7,896,1748,1860,2075,2232,2046,1809,1965,2114
2176,-45152,-14360,-46136,-13368,3800,3800,45,-62,28,-3,55,3914,10,-1,895,1748,1860,2075,2232,2046,1809,1965,2114
3177,-45148,-14380,-46136,-13368,3800,3800,46,-60,30,-36,70,3921,2,-4,895,1748,1860,2075,2232,2046,1809,1965,2114
4178,-45152,-14360,-46136,-13368,3800,3800,46,-62,28,-17,72,3921,-8,6,895,1750,1862,2076,2234,2046,1810,1882,2010
5179,-45148,-14364,-46136,-13368,3800,3800,43,-60,26,-25,78,3913,-6,4,895,1750,1862,2076,2234,2046,1810,1882,2010
6180,-45148,-14368,-46136,-13368,3800,3800,44,-59,25,-27,69,3944,8,-6,896,1750,1862,2076,2234,2046,1810,1882,2010
7181,-45136,-14372,-46136,-13368,3800,3800,45,-61,29,-2,62,3967,7,5,896,1750,1862,2076,2234,2046,1810,1882,2010
8182,-45140,-14368,-46136,-13368,3800,3800,46,-62,30,-17,64,3941,-6,7,895,1750,1862,2076,2234,2046,1810,1882,2010
9183,-45160,-14368,-46136,-13368,3800,3800,45,-65,30,-5,67,3932,-3,-7,896,1750,1862,2076,2234,2046,1810,1882,2010
10184,-45144,-14368,-46136,-13368,3800,3800,42,-64,27,-19,60,3921,11,3,895,1748,1859,2074,2231,2132,1925,1881,2009
11185,-45144,-14356,-46136,-13368,3800,3800,41,-61,26,-25,62,3935,11,7,895,1748,1859,2074,2231,2132,1925,1881,2009
12186,-45148,-14360,-46136,-13368,3800,3800,41,-61,27,-38,61,3979,-3,-6,895,1748,1859,2074,2231,2132,1925,1881,2009
13187,-45148,-14368,-46136,-13368,3800,3800,45,-61,27,-19,75,3969,-8,-1,895,1748,1859,2074,2231,2132,1925,1881,2009
14188,-45148,-14360,-46136,-13368,3800,3800,46,-61,28,-23,65,3947,-2,6,896,1748,1859,2074,2231,2132,1925,1881,2009
15189,-45164,-14360,-46136,-13368,3800,3800,44,-61,26,-5,77,3937,11,1,895,1747,1862,2076,2234,2048,1812,1884,2012
16190,-45144,-14360,-46136,-13368,3800,3800,44,-61,28,-7,86,3955,5,-6,895,1747,1862,2076,2234,2048,1812,1884,2012
17191,-45156,-14364,-46136,-13368,3800,3800,43,-62,27,-5,65,3967,4,-3,895,1747,1862,2076,2234,2048,1812,1884,2012
18192,-45144,-14364,-46136,-13368,3800,3800,42,-63,28,-39,52,3963,-7,8,896,1747,1862,2076,2234,2048,1812,1884,2012
19193,-45132,-14368,-46136,-13368,3800,3800,41,-63,27,-35,62,3953,-3,8,895,1747,1862,2076,2234,2048,1812,1884,2012
20194,-45152,-14360,-46136,-13368,3800,3800,42,-64,28,-12,60,3930,4,8,895,1746,1859,2169,2324,2046,1809,1881,2010
21195,-45152,-14360,-46136,-13368,3800,3800,41,-63,27,-29,79,3911,10,-3,895,1746,1859,2169,2324,2046,1809,1881,2010
22196,-45156,-14360,-46136,-13368,3800,3800,41,-62,26,-13,94,3959,-4,-7,895,1746,1859,2169,2324,2046,1809,1881,2010
23197,-45152,-14348,-46136,-13368,3800,3800,41,-63,27,-24,67,3948,-8,-2,895,1746,1859,2169,2324,2046,1809,1881,2010
24198,-45140,-14368,-46136,-13368,3800,3800,42,-61,26,11,77,3905,0,7,896,1746,1859,2169,2324,2046,1809,1881,2010
25199,-45148,-14368,-46136,-13368,3800,3800,43,-59,25,3,81,3925,11,-3,895,1746,1859,2169,2324,2046,1809,1881,2010
26200,-45148,-14356,-46136,-13368,3800,3800,43,-58,24,-25,76,3904,6,-6,895,1750,1862,2076,2234,2046,1810,1882,2012
27201,-45144,-14372,-46136,-13368,3800,3800,41,-60,23,-12,74,3897,-8,8,895,1750,1862,2076,2234,2046,1810,1882,2012
28202,-45148,-14360,-46136,-13368,3800,3800,40,-62,25,-6,70,3910,-6,6,896,1750,1862,2076,2234,2046,1810,1882,2012
29203,-45144,-14364,-46136,-13368,3800,3800,41,-62,26,-16,60,3957,4,-6,895,1750,1862,2076,2234,2046,1810,1882,2012
30204,-45140,-14364,-46136,-13368,3800,3800,42,-61,26,-32,56,3943,11,5,895,1750,1862,2076,2234,2046,1810,1882,2012
31205,-45160,-14356,-46136,-13368,3800,3800,43,-60,27,-33,65,3954,-1,5,895,1798,1958,2074,2232,2046,1809,1881,2010
32206,-45152,-14360,-46136,-13368,3800,3800,44,-60,27,-40,38,3926,-8,-6,895,1798,1958,2074,2232,2046,1809,1881,2010
33207,-45140,-14368,-46136,-13368,3800,3800,42,-60,28,-26,55,3921,1,5,895,1798,1958,2074,2232,2046,1809,1881,2010
34208,-45148,-14360,-46136,-13368,3800,3800,39,-61,27,-24,56,3903,11,7,895,1798,1958,2074,2232,2046,1809,1881,2010
35209,-45144,-14360,-46136,-13368,3800,3800,38,-62,28,-26,58,3913,7,-5,895,1798,1958,2074,2232,2046,1809,1881,2010
36210,-45148,-14360,-46136,-13368,3800,3800,40,-61,28,-12,57,3914,-8,-6,895,1798,1958,2074,2232,2046,1809,1881,2010
37211,-45144,-14372,-46136,-13368,3800,3800,40,-60,29,-38,89,3937,-6,1,894,1749,1860,2074,2232,2046,1808,1880,2009
38212,-45144,-14364,-46136,-13368,3800,3800,37,-59,28,-16,67,3917,1,8,896,1749,1860,2074,2232,2046,1808,1880,2009
39213,-45152,-14364,-46136,-13368,3800,3800,41,-59,27,-11,56,3916,11,-4,895,1749,1860,2074,2232,2046,1808,1880,2009
40214,-45152,-14376,-46136,-13368,3800,3800,42,-60,27,-10,52,3965,-2,-5,895,1749,1860,2074,2232,2046,1808,1880,2009
41215,-45144,-14352,-46136,-13368,3800,3800,41,-61,27,-16,70,3960,-8,8,895,1749,1860,2074,2232,2046,1808,1880,2009
42216,-45148,-14368,-46136,-13368,3800,3800,40,-60,27,-7,43,3925,-4,-6,895,1748,1859,2074,2231,2046,1809,1881,2009
43217,-45144,-14372,-46136,-13368,3800,3800,40,-59,29,-43,63,3913,4,4,896,1748,1859,2074,2231,2046,1809,1881,2009
44218,-45140,-14368,-46136,-13368,3800,3800,42,-58,31,-35,66,3949,10,6,895,1748,1859,2074,2231,2046,1809,1881,2009
45219,-45148,-14368,-46136,-13368,3800,3800,40,-59,31,-39,56,3946,5,-6,895,1748,1859,2074,2231,2046,1809,1881,2009
46220,-45144,-14368,-46136,-13368,3800,3800,40,-62,30,-4,43,3943,-7,6,895,1748,1859,2074,2231,2046,1809,1881,2009
47221,-45148,-14356,-46136,-13368,3800,3800,41,-64,27,-4,51,3935,-5,4,895,1748,1859,2074,2231,2046,1809,1881,2009
48222,-45148,-14368,-46136,-13368,3800,3800,40,-63,27,-37,59,3949,11,-2,895,1748,1860,2074,2232,2046,1809,1882,2116
49223,-45148,-14372,-46136,-13368,3800,3800,37,-59,28,-29,84,3950,-7,8,895,1748,1860,2074,2232,2046,1809,1882,2116
50224,-45156,-14364,-46136,-13368,3800,3800,39,-60,28,-23,71,3942,-4,1,895,1748,1860,2074,2232,2046,1809,1882,2116
51225,-45144,-14372,-46136,-13368,3800,3800,41,-58,30,-32,77,3938,7,-6,895,1748,1860,2074,2232,2046,1809,1882,2116
52226,-45140,-14368,-46136,-13368,3800,3800,41,-59,28,-30,76,3928,-7,2,896,1748,1860,2074,2232,2046,1809,1882,2116
53227,-45148,-14368,-46136,-13368,3800,3800,40,-60,29,-25,55,3946,6,5,894,1748,1859,2074,2231,2045,1809,1881,2010
54228,-45148,-14356,-46136,-13368,3800,3800,41,-59,30,-54,65,3969,9,7,895,1748,1859,2074,2231,2045,1809,1881,2010
55229,-45152,-14372,-46136,-13368,3800,3800,40,-60,30,-6,49,3930,-8,-2,895,1748,1859,2074,2231,2045,1809,1881,2010
56230,-45140,-14360,-46136,-13368,3800,3800,41,-58,30,-14,45,3935,-8,-6,895,1748,1859,2074,2231,2045,1809,1881,2010
57231,-45152,-14364,-46136,-13368,3800,3800,42,-61,31,-26,61,3925,10,8,895,1748,1859,2074,2231,2045,1809,1881,2010
58232,-45144,-14360,-46136,-13368,3800,3800,44,-61,29,-21,61,3941,-2,-4,895,1748,1859,2074,2231,2045,1809,1881,2010
59233,-45132,-14368,-46136,-13368,3800,3800,41,-60,28,-18,70,3937,-6,-3,895,1750,1860,2076,2232,2045,1917,1968,2012
60234,-45144,-14372,-46136,-13368,3800,3800,40,-61,26,-38,45,3956,11,6,895,1750,1860,2076,2232,2045,1917,1968,2012
61235,-45152,-14368,-46136,-13368,3800,3800,41,-62,27,-45,68,3984,-7,-5,895,1750,1860,2076,2232,2045,1917,1968,2012
62236,-45148,-14360,-46136,-13368,3800,3800,41,-61,29,-15,65,3974,-6,-1,895,1750,1860,2076,2232,2045,1917,1968,2012
63237,-45148,-14360,-46136,-13368,3800,3800,41,-60,28,-8,58,3970,11,5,895,1750,1860,2076,2232,2045,1917,1968,2012
64238,-45156,-14364,-46136,-13368,3800,3800,42,-62,28,-39,53,3921,-7,-7,895,1747,1859,2072,2230,2046,1809,1881,2010
65239,-45148,-14364,-46136,-13368,3800,3800,41,-64,31,-43,66,3919,2,7,895,1747,1859,2072,2230,2046,1809,1881,2010
66240,-45148,-14360,-46136,-13368,3800,3800,41,-63,30,-51,62,3939,3,-5,896,1747,1859,2072,2230,2046,1809,1881,2010
67241,-45156,-14364,-46136,-13368,3800,3800,42,-63,28,-23,76,3944,-3,-4,895,1747,1859,2072,2230,2046,1809,1881,2010
68242,-45132,-14364,-46136,-13368,3800,3800,41,-64,29,-44,76,3970,11,7,895,1747,1859,2072,2230,2046,1809,1881,2010
69243,-45148,-14368,-46136,-13368,3800,3800,42,-62,27,-36,58,3940,-6,-4,895,1747,1859,2072,2230,2046,1809,1881,2010
70244,-45148,-14364,-46136,-13368,3800,3800,42,-62,26,-26,65,3933,4,-6,894,1748,1860,2074,2320,2144,1812,1881,2010
71245,-45156,-14364,-46136,-13368,3800,3800,41,-61,25,-30,72,3948,11,-3,895,1748,1860,2074,2320,2144,1812,1881,2010
72246,-45144,-14360,-46136,-13368,3800,3800,43,-61,26,0,62,3917,-4,8,895,1748,1860,2074,2320,2144,1812,1881,2010
73247,-45144,-14360,-46136,-13368,3800,3800,43,-63,26,-1,40,3927,-2,-1,895,1748,1860,2074,2320,2144,1812,1881,2010
74248,-45148,-14372,-46136,-13368,3800,3800,45,-62,27,-33,66,3920,7,-7,895,1748,1860,2074,2320,2144,1812,1881,2010
75249,-45140,-14352,-46136,-13368,3800,3800,45,-62,25,-8,58,3943,3,6,895,1747,1861,2074,2232,2046,1809,1881,2009
76250,-45148,-14364,-46136,-13368,3800,3800,43,-64,23,-26,65,3949,-4,7,895,1747,1861,2074,2232,2046,1809,1881,2009
77251,-45148,-14352,-46136,-13368,3800,3800,40,-64,25,-29,83,3946,10,-1,895,1747,1861,2074,2232,2046,1809,1881,2009
78252,-45140,-14356,-46136,-13368,3800,3800,42,-61,29,-12,73,3935,0,-3,895,1747,1861,2074,2232,2046,1809,1881,2009
79253,-45160,-14364,-46136,-13368,3800,3800,43,-62,28,-9,53,3943,-7,7,895,1747,1861,2074,2232,2046,1809,1881,2009
80254,-45148,-14372,-46136,-13368,3800,3800,43,-63,26,1,49,3954,-2,3,896,1747,1861,2074,2232,2046,1809,1881,2009
81255,-45136,-14352,-46136,-13368,3800,3800,44,-61,26,-28,67,3947,7,-3,895,1748,1952,2180,2236,2046,1809,1881,2011
82256,-45144,-14356,-46136,-13368,3800,3800,42,-61,24,-14,71,3907,9,7,895,1748,1952,2180,2236,2046,1809,1881,2011
83257,-45148,-14360,-46136,-13368,3800,3800,42,-59,23,-31,17,3883,7,-6,895,1748,1952,2180,2236,2046,1809,1881,2011
84258,-45136,-14368,-46136,-13368,3800,3800,43,-62,26,-44,38,3914,-7,7,896,1748,1952,2180,2236,2046,1809,1881,2011
85259,-45148,-14356,-46136,-13368,3800,3800,43,-63,25,-19,62,3935,-1,5,895,1748,1952,2180,2236,2046,1809,1881,2011
86260,-45152,-14360,-46136,-13368,3800,3800,46,-63,22,-17,84,3924,5,-3,895,1748,1859,2074,2231,2046,1809,1881,2009
87261,-45148,-14372,-46136,-13368,3800,3800,45,-61,23,-7,72,3924,8,-5,895,1748,1859,2074,2231,2046,1809,1881,2009
88262,-45152,-14364,-46136,-13368,3800,3800,43,-61,26,-20,68,3930,-4,-2,895,1748,1859,2074,2231,2046,1809,1881,2009
89263,-45152,-14364,-46136,-13368,3800,3800,43,-63,27,-17,64,3913,-7,6,895,1748,1859,2074,2231,2046,1809,1881,2009
90265,-45152,-14364,-46136,-13368,3800,3800,42,-65,24,-4,74,3936,-2,-2,895,1748,1859,2074,2231,2046,1809,1881,2009
91265,-45156,-14360,-46136,-13368,3800,3800,43,-63,25,-22,65,3972,11,-6,895,1748,1859,2074,2231,2046,1809,1881,2009
92266,-45156,-14368,-46136,-13368,3800,3800,45,-62,28,-22,61,3941,11,2,895,1805,1868,2076,2232,2046,1809,1882,2009
93267,-45144,-14356,-46136,-13368,3800,3800,44,-61,29,-28,67,3899,1,6,895,1805,1868,2076,2232,2046,1809,1882,2009
94268,-45140,-14348,-46136,-13368,3800,3800,40,-60,28,-1,69,3932,-8,-6,895,1805,1868,2076,2232,2046,1809,1882,2009
95269,-45152,-14380,-46136,-13368,3800,3800,43,-62,26,-15,77,3986,-1,0,895,1805,1868,2076,2232,2046,1809,1882,2009
96270,-45160,-14368,-46136,-13368,3800,3800,45,-62,27,-22,69,3982,11,3,895,1805,1868,2076,2232,2046,1809,1882,2009
97271,-45148,-14352,-46136,-13368,3800,3800,43,-61,28,-8,82,3919,3,-6,895,1748,1859,2073,2231,2046,1810,1883,2011
98272,-45164,-14364,-46136,-13368,3800,3800,42,-60,27,-13,60,3908,-7,-5,895,1748,1859,2073,2231,2046,1810,1883,2011
99273,-45148,-14368,-46136,-13368,3800,3800,42,-60,27,-15,75,3948,2,7,895,1748,1859,2073,2231,2046,1810,1883,2011
100274,-45148,-14364,-46136,-13368,3800,3800,41,-62,28,-6,43,3950,7,-2,895,1748,1859,2073,2231,2046,1810,1883,2011
101275,-45156,-14360,-46136,-13368,3800,3800,42,-60,30,-29,68,3931,-5,-6,895,1748,1859,2073,2231,2046,1810,1883,2011
102276,-45152,-14364,-46136,-13368,3800,3800,41,-59,31,-17,78,3921,-2,8,895,1748,1859,2073,2231,2046,1810,1883,2011
103277,-45148,-14364,-46136,-13368,3800,3800,41,-60,28,-6,51,3937,11,6,895,1748,1859,2073,2231,2047,1809,1881,2010
104278,-45152,-14364,-46136,-13368,3800,3800,40,-59,29,-22,58,3935,-1,6,894,1748,1859,2073,2231,2047,1809,1881,2010
105279,-45148,-14368,-46136,-13368,3800,3800,40,-59,29,-16,67,3984,-3,-4,895,1748,1859,2073,2231,2047,1809,1881,2010
106280,-45148,-14360,-46136,-13368,3800,3800,42,-59,27,-10,67,3946,10,-6,896,1748,1859,2073,2231,2047,1809,1881,2010
107281,-45144,-14364,-46136,-13368,3800,3800,43,-59,30,-28,44,3925,3,-6,895,1748,1859,2073,2231,2047,1809,1881,2010
108282,-45148,-14368,-46136,-13368,3800,3800,42,-59,30,-28,59,3938,-8,6,895,1749,1861,2075,2231,2046,1809,1957,2120
109283,-45148,-14364,-46136,-13368,3800,3800,40,-60,28,-15,70,3938,6,8,895,1749,1861,2075,2231,2046,1809,1957,2120
110284,-45148,-14364,-46136,-13368,3800,3800,39,-60,28,-18,75,3926,11,2,895,1749,1861,2075,2231,2046,1809,1957,2120
111285,-45144,-14360,-46136,-13368,3800,3800,39,-59,29,-17,89,3956,-3,-5,895,1749,1861,2075,2231,2046,1809,1957,2120
112286,-45148,-14356,-46136,-13368,3800,3800,40,-59,30,-24,85,3941,-7,8,895,1749,1861,2075,2231,2046,1809,1957,2120
113287,-45144,-14364,-46136,-13368,3800,3800,41,-60,27,-7,84,3945,-4,4,895,1749,1861,2075,2231,2046,1809,1957,2120
114288,-45152,-14360,-46136,-13368,3800,3800,42,-58,29,-30,60,3930,11,-7,895,1749,1859,2073,2231,2047,1810,1883,2011
115289,-45148,-14364,-46136,-13368,3800,3800,42,-60,30,-42,59,3922,-5,-4,895,1749,1859,2073,2231,2047,1810,1883,2011
116290,-45148,-14360,-46136,-13368,3800,3800,40,-60,30,-19,52,3936,-7,5,895,1749,1859,2073,2231,2047,1810,1883,2011
117291,-45152,-14368,-46136,-13368,3800,3800,41,-61,28,-12,68,3927,10,3,895,1749,1859,2073,2231,2047,1810,1883,2011
118292,-45152,-14360,-46136,-13368,3800,3800,43,-62,28,-8,81,3922,-5,-5,895,1749,1859,2073,2231,2047,1810,1883,2011
119293,-45148,-14352,-46136,-13368,3800,3800,40,-60,28,-29,76,3927,-6,-3,896,1749,1859,2074,2231,2127,1930,1895,2009
120294,-45152,-14360,-46136,-13368,3800,3800,39,-59,29,-28,59,3924,11,8,895,1749,1859,2074,2231,2127,1930,1895,2009
121295,-45144,-14368,-46136,-13368,3800,3800,40,-60,27,-13,55,3922,-8,7,895,1749,1859,2074,2231,2127,1930,1895,2009
122296,-45144,-14376,-46136,-13368,3800,3800,42,-61,31,-33,69,3915,3,6,895,1749,1859,2074,2231,2127,1930,1895,2009
123297,-45136,-14348,-46136,-13368,3800,3800,40,-60,29,-41,80,3916,7,-4,895,1749,1859,2074,2231,2127,1930,1895,2009
124298,-45136,-14360,-46136,-13368,3800,3800,41,-61,27,-9,65,3946,-8,-6,895,1749,1859,2074,2231,2127,1930,1895,2009
125299,-45152,-14364,-46136,-13368,3800,3800,41,-62,27,-14,48,3896,4,0,895,1749,1860,2074,2232,2045,1809,1881,2009
126300,-45144,-14360,-46136,-13368,3800,3800,40,-60,29,-51,56,3894,7,8,895,1749,1860,2074,2232,2045,1809,1881,2009
127301,-45148,-14376,-46136,-13368,3800,3800,42,-59,28,-57,65,3911,-6,3,896,1749,1860,2074,2232,2045,1809,1881,2009
128302,-45144,-14360,-46136,-13368,3800,3800,41,-59,29,-41,71,3919,9,-3,895,1749,1860,2074,2232,2045,1809,1881,2009
129303,-45140,-14364,-46136,-13368,3800,3800,39,-60,27,-31,72,3896,2,-6,895,1749,1860,2074,2232,2045,1809,1881,2009
130304,-45144,-14368,-46136,-13368,3800,3800,40,-62,27,-32,83,3903,-7,-3,895,1749,1859,2159,2328,2067,1809,1881,2011
131305,-45136,-14368,-46136,-13368,3800,3800,39,-63,28,-52,82,3945,6,3,895,1749,1859,2159,2328,2067,1809,1881,2011
132306,-45144,-14368,-46136,-13368,3800,3800,39,-62,28,-41,63,3981,5,6,895,1749,1859,2159,2328,2067,1809,1881,2011
133307,-45148,-14360,-46136,-13368,3800,3800,39,-63,27,-24,54,3924,-8,-5,895,1749,1859,2159,2328,2067,1809,1881,2011
134308,-45144,-14368,-46136,-13368,3800,3800,40,-63,26,-30,75,3938,-3,-5,895,1749,1859,2159,2328,2067,1809,1881,2011
135309,-45148,-14364,-46136,-13368,3800,3800,40,-62,25,-10,93,3940,9,8,895,1749,1859,2159,2328,2067,1809,1881,2011
136310,-45156,-14368,-46136,-13368,3800,3800,40,-60,24,-13,96,3920,4,8,895,1749,1859,2073,2231,2046,1809,1881,2008
137311,-45148,-14364,-46136,-13368,3800,3800,41,-61,26,-3,81,3913,-7,2,896,1749,1859,2073,2231,2046,1809,1881,2008
138312,-45152,-14364,-46136,-13368,3800,3800,43,-61,25,6,75,3926,-4,-5,895,1749,1859,2073,2231,2046,1809,1881,2008
139313,-45148,-14360,-46136,-13368,3800,3800,43,-63,25,-1,67,3921,6,-6,894,1749,1859,2073,2231,2046,1809,1881,2008
140314,-45148,-14364,-46136,-13368,3800,3800,41,-61,26,-20,67,3928,10,-4,895,1749,1859,2073,2231,2046,1809,1881,2008
141315,-45148,-14372,-46136,-13368,3800,3800,40,-61,25,-20,81,3940,0,7,895,1793,1963,2107,2233,2046,1808,1881,2009
142316,-45144,-14360,-46136,-13368,3800,3800,42,-64,26,-16,84,3929,-8,8,895,1793,1963,2107,2233,2046,1808,1881,2009
143317,-45148,-14372,-46136,-13368,3800,3800,42,-63,26,-5,76,3917,-7,1,895,1793,1963,2107,2233,2046,1808,1881,2009
144318,-45148,-14360,-46136,-13368,3800,3800,40,-64,26,-7,39,3974,11,-6,895,1793,1963,2107,2233,2046,1808,1881,2009
145319,-45136,-14352,-46136,-13368,3800,3800,41,-63,26,0,51,3960,6,2,895,1793,1963,2107,2233,2046,1808,1881,2009
146320,-45144,-14360,-46136,-13368,3800,3800,43,-62,25,-19,81,3927,-7,8,895,1793,1963,2107,2233,2046,1808,1881,2009
147321,-45140,-14360,-46136,-13368,3800,3800,43,-63,24,-26,69,3935,-6,-2,895,1749,1859,2073,2231,2045,1809,1882,2011
148322,-45148,-14368,-46136,-13368,3800,3800,44,-61,25,-17,65,3927,11,-6,895,1749,1859,2073,2231,2045,1809,1882,2011
149323,-45156,-14372,-46136,-13368,3800,3800,42,-61,26,-12,55,3927,8,-2,895,1749,1859,2073,2231,2045,1809,1882,2011
150324,-45152,-14364,-46136,-13368,3800,3800,42,-65,26,-20,66,3941,-8,8,895,1749,1859,2073,2231,2045,1809,1882,2011
151325,-45136,-14368,-46136,-13368,3800,3800,42,-62,28,-9,60,3933,7,5,895,1749,1859,2073,2231,2045,1809,1882,2011
152326,-45148,-14364,-46136,-13368,3800,3800,43,-59,30,-19,50,3919,12,-1,895,1773,1860,2074,2232,2046,1809,1881,2009
153327,-45148,-14368,-46136,-13368,3800,3800,43,-58,30,-18,54,3932,-4,-6,895,1773,1860,2074,2232,2046,1809,1881,2009
154328,-45152,-14356,-46136,-13368,3800,3800,42,-60,29,-23,71,3970,-8,-3,895,1773,1860,2074,2232,2046,1809,1881,2009
155329,-45148,-14352,-46136,-13368,3800,3800,42,-61,28,-30,63,3946,-4,0,894,1773,1860,2074,2232,2046,1809,1881,2009
156330,-45144,-14360,-46136,-13368,3800,3800,41,-60,26,-32,62,3917,9,8,895,1773,1860,2074,2232,2046,1809,1881,2009
157331,-45144,-14368,-46136,-13368,3800,3800,42,-60,27,-19,43,3928,5,0,896,1773,1860,2074,2232,2046,1809,1881,2009
158332,-45132,-14356,-46136,-13368,3800,3800,41,-60,31,-29,57,3921,-8,-6,895,1749,1860,2075,2231,2047,1809,1882,2075
159333,-45156,-14356,-46136,-13368,3800,3800,41,-61,30,-27,77,3930,7,3,895,1749,1860,2075,2231,2047,1809,1882,2075
160334,-45148,-14368,-46136,-13368,3800,3800,43,-62,29,-22,84,3964,6,8,895,1749,1860,2075,2231,2047,1809,1882,2075
161335,-45160,-14360,-46136,-13368,3800,3800,44,-61,28,-4,79,3945,-8,-1,895,1749,1860,2075,2231,2047,1809,1882,2075
162336,-45156,-14360,-46136,-13368,3800,3800,43,-61,29,14,81,3928,11,-4,895,1749,1860,2075,2231,2047,1809,1882,2075
163337,-45152,-14364,-46136,-13368,3800,3800,42,-58,29,-22,81,3954,-6,8,895,1748,1859,2074,2231,2046,1810,1882,2011
164338,-45148,-14364,-46136,-13368,3800,3800,43,-59,28,-13,59,3924,-8,3,895,1748,1859,2074,2231,2046,1810,1882,2011
165339,-45148,-14364,-46136,-13368,3800,3800,43,-61,28,7,54,3931,4,-4,895,1748,1859,2074,2231,2046,1810,1882,2011
166340,-45144,-14368,-46136,-13368,3800,3800,44,-62,29,-37,54,3914,7,7,896,1748,1859,2074,2231,2046,1810,1882,2011
167341,-45156,-14360,-46136,-13368,3800,3800,42,-60,28,-27,76,3912,-6,-1,895,1748,1859,2074,2231,2046,1810,1882,2011
168342,-45152,-14380,-46136,-13368,3800,3800,41,-61,31,-18,78,3921,5,0,895,1748,1859,2074,2231,2046,1810,1882,2011
169343,-45148,-14356,-46136,-13368,3800,3800,41,-63,31,-28,76,3929,6,8,895,1749,1859,2073,2231,2046,1865,1972,2098
170344,-45152,-14368,-46136,-13368,3800,3800,40,-62,31,-32,50,3910,-8,2,895,1749,1859,2073,2231,2046,1865,1972,2098
171345,-45148,-14360,-46136,-13368,3800,3800,42,-59,33,-13,44,3872,4,-5,895,1749,1859,2073,2231,2046,1865,1972,2098
172346,-45152,-14364,-46136,-13368,3800,3800,42,-58,33,-21,60,3851,1,1,894,1749,1859,2073,2231,2046,1865,1972,2098
173347,-45148,-14368,-46136,-13368,3800,3800,40,-59,31,-19,52,3907,-8,4,894,1749,1859,2073,2231,2046,1865,1972,2098
174348,-45152,-14372,-46136,-13368,3800,3800,38,-59,29,-21,48,3898,3,-1,895,1749,1860,2074,2232,2047,1809,1881,2010
175349,-45148,-14372,-46136,-13368,3800,3800,41,-62,29,-14,60,3931,7,-7,895,1749,1860,2074,2232,2047,1809,1881,2010
176350,-45148,-14372,-46136,-13368,3800,3800,40,-63,30,-20,45,3941,-6,1,895,1749,1860,2074,2232,2047,1809,1881,2010
177351,-45156,-14364,-46136,-13368,3800,3800,39,-60,30,-32,50,3939,4,4,895,1749,1860,2074,2232,2047,1809,1881,2010
178352,-45160,-14368,-46136,-13368,3800,3800,41,-57,29,-16,57,3945,4,-5,895,1749,1860,2074,2232,2047,1809,1881,2010
179353,-45152,-14360,-46136,-13368,3800,3800,43,-62,27,-8,60,3942,-8,-5,895,1749,1860,2074,2232,2047,1809,1881,2010
180354,-45156,-14352,-46136,-13368,3800,3800,43,-63,27,-34,56,3922,7,8,895,1749,1858,2072,2257,2146,1920,1881,2010
181355,-45144,-14376,-46136,-13368,3800,3800,42,-61,28,-19,68,3890,0,-1,896,1749,1858,2072,2257,2146,1920,1881,2010
182356,-45140,-14372,-46136,-13368,3800,3800,41,-58,28,-21,64,3929,-4,-6,895,1749,1858,2072,2257,2146,1920,1881,2010
183357,-45136,-14360,-46136,-13368,3800,3800,41,-58,26,-17,76,3960,9,3,895,1749,1858,2072,2257,2146,1920,1881,2010
184358,-45144,-14360,-46136,-13368,3800,3800,39,-60,27,-26,73,3922,-8,8,895,1749,1858,2072,2257,2146,1920,1881,2010
185359,-45144,-14356,-46136,-13368,3800,3800,40,-60,27,-18,68,3931,4,7,895,1749,1859,2073,2231,2045,1808,1881,2009
186360,-45148,-14356,-46136,-13368,3800,3800,40,-58,27,-13,83,3941,4,-6,895,1749,1859,2073,2231,2045,1808,1881,2009
187361,-45144,-14364,-46136,-13368,3800,3800,39,-60,27,-35,73,3946,-3,-6,895,1749,1859,2073,2231,2045,1808,1881,2009
188362,-45148,-14372,-46136,-13368,3800,3800,43,-61,25,-46,65,3949,11,0,895,1749,1859,2073,2231,2045,1808,1881,2009
189363,-45156,-14360,-46136,-13368,3800,3800,43,-60,25,-54,55,3930,-8,7,895,1749,1859,2073,2231,2045,1808,1881,2009
190364,-45152,-14360,-46136,-13368,3800,3800,42,-61,27,-42,61,3919,10,7,895,1749,1859,2073,2231,2045,1808,1881,2009
191365,-45152,-14360,-46136,-13368,3800,3800,41,-63,28,-49,57,3930,7,8,895,1749,1859,2184,2312,2046,1809,1881,2009
192366,-45152,-14372,-46136,-13368,3800,3800,40,-63,29,-38,75,3913,-7,-4,895,1749,1859,2184,2312,2046,1809,1881,2009
193367,-45144,-14364,-46136,-13368,3800,3800,43,-62,26,-27,86,3909,9,-5,895,1749,1859,2184,2312,2046,1809,1881,2009
194368,-45144,-14360,-46136,-13368,3800,3800,44,-62,26,-30,92,3915,8,2,895,1749,1859,2184,2312,2046,1809,1881,2009
195369,-45148,-14356,-46136,-13368,3800,3800,44,-63,27,-32,59,3944,-8,4,895,1749,1859,2184,2312,2046,1809,1881,2009
196370,-45148,-14372,-46136,-13368,3800,3800,42,-61,27,-41,77,3930,6,-6,895,1749,1859,2073,2231,2045,1808,1881,2011
197371,-45140,-14356,-46136,-13368,3800,3800,41,-63,25,-7,92,3924,11,-2,895,1749,1859,2073,2231,2045,1808,1881,2011
198372,-45148,-14352,-46136,-13368,3800,3800,40,-62,25,-42,69,3948,-8,8,895,1749,1859,2073,2231,2045,1808,1881,2011
199373,-45144,-14368,-46136,-13368,3800,3800,41,-60,28,-39,69,3952,10,2,895,1749,1859,2073,2231,2045,1808,1881,2011
200374,-45148,-14360,-46136,-13368,3800,3800,44,-60,27,-35,66,3950,7,-6,895,1749,1859,2073,2231,2045,1808,1881,2011
201375,-45160,-14372,-46071,-13303,-538,1879,43,-59,23,-36,88,3903,-8,7,895,1749,1859,2073,2231,2045,1808,1881,2011
202376,-45152,-14368,-46006,-13238,-719,1754,40,-60,24,-10,79,3893,9,-7,896,1805,1945,2074,2231,2045,1808,1881,2009
203377,-45156,-14336,-45941,-13173,-485,1444,39,-58,24,-13,59,3927,0,11,880,1805,1945,2074,2231,2045,1808,1881,2009
204378,-45148,-14288,-45876,-13108,-565,1266,38,-68,26,-84,66,3957,-4,30,882,1805,1945,2074,2231,2045,1808,1881,2009
205379,-45144,-14240,-45811,-13043,-442,1287,40,-81,28,-128,119,4043,15,39,885,1805,1945,2074,2231,2045,1808,1881,2009
206380,-45148,-14176,-45746,-12978,-257,1089,46,-95,24,-126,120,4074,6,48,886,1805,1945,2074,2231,2045,1808,1881,2009
207381,-45136,-14100,-45681,-12913,-393,925,46,-120,21,-200,72,4109,-1,41,886,1749,1859,2072,2231,2046,1810,1882,2012
208382,-45144,-14016,-45616,-12848,-54,803,46,-135,18,-198,28,4154,15,47,888,1749,1859,2072,2231,2046,1810,1882,2012
209383,-45148,-13912,-45551,-12783,-20,506,41,-143,14,53,-9,4093,5,58,890,1749,1859,2072,2231,2046,1810,1882,2012
210384,-45140,-13820,-45486,-12718,-101,623,45,-115,5,119,-16,4078,14,51,891,1749,1859,2072,2231,2046,1810,1882,2012
211385,-45144,-13720,-45421,-12653,133,481,34,-99,-16,-88,-78,4006,14,51,894,1749,1859,2072,2231,2046,1810,1882,2012
212386,-45148,-13628,-45356,-12588,218,548,30,-76,-29,-114,-73,3852,12,58,889,1749,1859,2072,2231,2046,1810,1882,2012
213387,-45152,-13524,-45291,-12523,302,351,12,-66,-39,-187,-39,4087,7,59,893,1754,1867,2081,2240,2054,1815,1891,2023
214388,-45144,-13428,-45226,-12458,221,414,4,-65,-43,-211,-38,3859,-3,59,892,1754,1867,2081,2240,2054,1815,1891,2023
215389,-45144,-13320,-45161,-12393,401,211,-7,-79,-54,-315,-10,4076,5,45,893,1754,1867,2081,2240,2054,1815,1891,2023
216390,-45148,-13224,-45096,-12328,535,324,-17,-109,-61,-449,-31,4014,16,53,893,1754,1867,2081,2240,2054,1815,1891,2023
217394,-45144,-13136,-45031,-12263,509,396,-25,-135,-57,-413,-47,4022,8,60,893,1754,1867,2081,2240,2054,1815,1891,2023
218392,-45120,-13036,-44966,-12198,309,203,-33,-152,-61,-439,-51,4056,7,54,892,1755,1867,2079,2237,2062,1825,1897,2144
219393,-45100,-12964,-44901,-12133,414,546,-33,-158,-65,-249,-7,4013,14,59,892,1755,1867,2079,2237,2062,1825,1897,2144
220394,-45096,-12860,-44836,-12068,689,98,-22,-143,-64,-225,-82,4194,17,48,893,1755,1867,2079,2237,2062,1825,1897,2144
221395,-45080,-12796,-44771,-12003,599,600,-19,-155,-64,-182,-59,3941,27,45,891,1755,1867,2079,2237,2062,1825,1897,2144
222396,-45060,-12704,-44706,-11938,604,218,-11,-150,-71,-318,-82,4294,13,57,891,1755,1867,2079,2237,2062,1825,1897,2144
223397,-45028,-12612,-44641,-11873,494,185,-2,-142,-71,-199,-41,4162,15,44,889,1755,1867,2079,2237,2062,1825,1897,2144
224398,-44996,-12556,-44576,-11808,534,646,10,-143,-66,-121,-52,4193,32,53,890,1746,1856,2072,2226,2065,1825,1897,2027
225399,-44952,-12480,-44511,-11743,411,382,14,-158,-71,-231,51,4099,29,40,892,1746,1856,2072,2226,2065,1825,1897,2027
226400,-44920,-12400,-44446,-11678,601,315,17,-178,-72,-377,16,4075,19,49,889,1746,1856,2072,2226,2065,1825,1897,2027
227401,-44868,-12332,-44381,-11613,367,461,13,-218,-67,-288,-67,3988,19,50,892,1746,1856,2072,2226,2065,1825,1897,2027
228402,-44816,-12256,-44316,-11548,383,348,12,-222,-70,-201,33,3990,23,37,891,1746,1856,2072,2226,2065,1825,1897,2027
229403,-44784,-12196,-44251,-11483,673,555,14,-237,-76,-130,-64,3910,23,43,892,1751,1860,2075,2235,2049,1938,1967,2015
230404,-44716,-12128,-44186,-11418,220,451,13,-251,-77,-282,-96,4034,23,41,892,1751,1860,2075,2235,2049,1938,1967,2015
231405,-44676,-12056,-44121,-11353,601,393,7,-253,-80,-202,-24,3941,43,34,889,1751,1860,2075,2235,2049,1938,1967,2015
232406,-44624,-11988,-44056,-11288,467,439,4,-263,-73,-199,-142,3932,43,45,893,1751,1860,2075,2235,2049,1938,1967,2015
233407,-44564,-11936,-43991,-11223,373,656,3,-270,-68,-155,-35,3962,38,36,891,1751,1860,2075,2235,2049,1938,1967,2015
234408,-44508,-11880,-43926,-11158,434,617,1,-265,-62,-225,-165,3677,30,36,891,1751,1860,2075,2235,2049,1938,1967,2015
235409,-44456,-11836,-43861,-11093,501,792,0,-250,-60,-258,-117,3891,42,34,890,1771,1879,2088,2248,2040,1800,1878,2008
236410,-44400,-11760,-43796,-11028,462,379,3,-253,-59,-106,-173,3760,27,30,890,1771,1879,2088,2248,2040,1800,1878,2008
237411,-44336,-11696,-43731,-10963,363,531,9,-244,-43,-160,-182,3875,31,30,889,1771,1879,2088,2248,2040,1800,1878,2008
238413,-44272,-11648,-43666,-10898,364,752,26,-233,-21,-181,-136,3904,41,41,891,1771,1879,2088,2248,2040,1800,1878,2008
239413,-44216,-11612,-43601,-10833,475,937,40,-252,-12,-195,-110,3958,48,24,889,1771,1879,2088,2248,2040,1800,1878,2008
240414,-44156,-11552,-43536,-10768,432,645,51,-258,-3,-242,-177,3882,46,31,886,1764,1870,2075,2334,2108,1784,1864,1988
241415,-44084,-11480,-43471,-10703,274,486,67,-259,15,-167,-142,3917,47,34,890,1764,1870,2075,2334,2108,1784,1864,1988
242416,-44036,-11424,-43406,-10638,595,697,85,-261,39,-114,-54,4054,44,40,892,1764,1870,2075,2334,2108,1784,1864,1988
243417,-43980,-11392,-43341,-10573,506,1037,101,-256,40,13,27,3818,30,36,889,1764,1870,2075,2334,2108,1784,1864,1988
244418,-43920,-11336,-43276,-10508,463,749,118,-249,53,-100,-94,3982,48,37,886,1764,1870,2075,2334,2108,1784,1864,1988
245419,-43860,-11268,-43211,-10443,469,596,130,-240,72,117,-79,3864,33,30,889,1755,1855,2063,2227,2015,1783,1863,1983
246420,-43776,-11228,-43146,-10378,146,976,139,-224,87,-19,-177,3916,36,26,890,1755,1855,2063,2227,2015,1783,1863,1983
247421,-43704,-11176,-43081,-10313,287,843,160,-206,101,69,-27,3865,51,24,889,1755,1855,2063,2227,2015,1783,1863,1983
248422,-43652,-11124,-43016,-10248,554,859,173,-201,116,-11,-50,3829,37,39,889,1755,1855,2063,2227,2015,1783,1863,1983
249423,-43596,-11084,-42951,-10183,515,1039,189,-203,125,22,-97,3796,32,35,887,1755,1855,2063,2227,2015,1783,1863,1983
250424,-43520,-11016,-42886,-10118,251,687,209,-208,134,-6,-72,3945,40,35,886,1755,1855,2063,2227,2015,1783,1863,1983
251425,-43456,-10968,-42821,-10053,403,957,224,-215,153,55,-117,3737,40,41,891,1759,1963,2163,2244,2020,1789,1865,1983
252426,-43384,-10916,-42756,-9988,295,923,226,-205,166,39,-141,3746,29,29,888,1759,1963,2163,2244,2020,1789,1865,1983
253427,-43312,-10860,-42691,-9923,287,885,239,-170,174,102,-69,4075,30,27,889,1759,1963,2163,2244,2020,1789,1865,1983
254428,-43248,-10800,-42626,-9858,388,841,247,-163,183,120,-139,3706,49,44,889,1759,1963,2163,2244,2020,1789,1865,1983
255429,-43196,-10732,-42561,-9793,554,738,259,-156,186,-20,-99,4049,30,43,889,1759,1963,2163,2244,2020,1789,1865,1983
256430,-43144,-10680,-42496,-9728,571,955,269,-136,190,60,-130,3972,36,31,888,1767,1869,2083,2253,2027,1793,1867,1991
257431,-43072,-10596,-42431,-9663,312,531,285,-139,205,10,-62,3932,47,35,886,1767,1869,2083,2253,2027,1793,1867,1991
258432,-43008,-10548,-42366,-9598,413,1003,293,-135,205,19,-105,4077,48,30,891,1767,1869,2083,2253,2027,1793,1867,1991
259433,-42952,-10496,-42301,-9533,524,969,302,-120,207,-64,-178,3979,40,33,887,1767,1869,2083,2253,2027,1793,1867,1991
260434,-42904,-10448,-42236,-9468,645,1040,300,-124,213,-78,-128,3852,44,35,887,1767,1869,2083,2253,2027,1793,1867,1991
261435,-42828,-10400,-42171,-9403,283,1062,295,-108,209,22,-210,3969,32,41,886,1767,1869,2083,2253,2027,1793,1867,1991
262436,-42760,-10340,-42106,-9338,379,918,294,-108,226,-113,-157,3867,38,38,887,1816,1875,2086,2251,2036,1800,1879,2008
263437,-42712,-10272,-42041,-9273,650,814,298,-123,242,-112,-62,3843,47,40,888,1816,1875,2086,2251,2036,1800,1879,2008
264438,-42652,-10208,-41976,-9208,506,866,301,-145,235,-93,-19,4061,42,32,887,1816,1875,2086,2251,2036,1800,1879,2008
265439,-42600,-10156,-41911,-9143,623,1032,312,-187,231,-34,-2,4025,39,30,887,1816,1875,2086,2251,2036,1800,1879,2008
266440,-42524,-10100,-41846,-9078,309,994,318,-198,229,143,-44,4076,41,30,886,1816,1875,2086,2251,2036,1800,1879,2008
267441,-42460,-10044,-41781,-9013,460,1005,321,-192,222,260,-86,3972,50,32,888,1756,1868,2075,2230,2052,1807,1887,2023
268442,-42408,-9972,-41716,-8948,627,797,321,-194,236,2,-2,3876,34,43,887,1756,1868,2075,2230,2052,1807,1887,2023
269443,-42336,-9904,-41651,-8883,369,844,318,-189,236,100,69,4099,31,40,887,1756,1868,2075,2230,2052,1807,1887,2023
270444,-42268,-9848,-41586,-8818,415,1005,318,-174,223,201,-24,3981,51,39,889,1756,1868,2075,2230,2052,1807,1887,2023
271445,-42212,-9800,-41521,-8753,576,1126,329,-183,207,303,20,4019,46,43,887,1756,1868,2075,2230,2052,1807,1887,2023
272446,-42152,-9744,-41456,-8688,533,1038,337,-164,212,284,30,4192,48,45,885,1756,1868,2075,2230,2052,1807,1887,2023
273447,-42072,-9692,-41391,-8623,265,1103,348,-181,216,140,135,3966,51,34,885,1747,1859,2067,2217,2063,1817,1895,2031
274448,-42012,-9620,-41326,-8558,521,846,350,-215,214,-169,53,3971,40,34,886,1747,1859,2067,2217,2063,1817,1895,2031
275449,-41944,-9548,-41261,-8493,417,837,345,-249,203,-239,130,3996,32,48,888,1747,1859,2067,2217,2063,1817,1895,2031
276450,-41864,-9484,-41196,-8428,250,940,347,-275,202,-173,122,3963,40,43,889,1747,1859,2067,2217,2063,1817,1895,2031
277451,-41804,-9420,-41131,-8363,506,941,343,-302,199,-72,96,3866,40,44,889,1747,1859,2067,2217,2063,1817,1895,2031
278452,-41744,-9372,-41066,-8298,512,1162,342,-309,191,-115,128,3945,30,30,887,1742,1855,2068,2223,2056,1811,1989,2119
279453,-41692,-9288,-41001,-8233,628,689,338,-314,174,-34,148,4167,41,46,885,1742,1855,2068,2223,2056,1811,1989,2119
280454,-41636,-9224,-40936,-8168,590,941,335,-336,162,-33,174,3945,35,47,888,1742,1855,2068,2223,2056,1811,1989,2119
281455,-41588,-9152,-40871,-8103,711,833,323,-362,154,60,216,4055,45,42,886,1742,1855,2068,2223,2056,1811,1989,2119
282456,-41512,-9104,-40806,-8038,347,1154,316,-374,153,109,27,3851,49,28,887,1742,1855,2068,2223,2056,1811,1989,2119
283457,-41460,-9044,-40741,-7973,663,1010,305,-374,155,143,98,4118,35,40,886,1742,1855,2068,2223,2056,1811,1989,2119
284458,-41400,-8992,-40676,-7908,570,1127,302,-364,161,66,2,3840,35,44,885,1750,1861,2077,2231,2048,1806,1879,2015
285459,-41336,-8912,-40611,-7843,522,758,293,-366,161,106,71,3943,36,45,885,1750,1861,2077,2231,2048,1806,1879,2015
286460,-41272,-8860,-40546,-7778,523,1125,290,-359,180,58,114,4017,54,38,888,1750,1861,2077,2231,2048,1806,1879,2015
287461,-41204,-8804,-40481,-7713,470,1086,285,-363,189,193,66,3891,34,40,885,1750,1861,2077,2231,2048,1806,1879,2015
288462,-41132,-8736,-40416,-7648,412,933,289,-363,193,99,61,3966,48,38,886,1750,1861,2077,2231,2048,1806,1879,2015
289463,-41080,-8700,-40351,-7583,677,1369,285,-370,204,-3,59,3852,33,40,888,1754,1864,2079,2232,2154,1914,1881,2016
290464,-41004,-8632,-40286,-7518,364,965,285,-354,206,105,147,3957,49,28,882,1754,1864,2079,2232,2154,1914,1881,2016
291465,-40936,-8560,-40221,-7453,461,908,278,-361,217,25,297,3893,44,46,887,1754,1864,2079,2232,2154,1914,1881,2016
292466,-40884,-8516,-40156,-7388,677,1283,283,-368,214,70,259,3902,44,32,888,1754,1864,2079,2232,2154,1914,1881,2016
293467,-40804,-8460,-40091,-7323,309,1144,281,-382,210,29,251,3925,31,39,883,1754,1864,2079,2232,2154,1914,1881,2016
294468,-40756,-8384,-40026,-7258,730,882,287,-371,191,111,298,4019,33,33,886,1754,1864,2079,2232,2154,1914,1881,2016
295469,-40668,-8340,-39961,-7193,203,1308,291,-353,180,241,358,4033,30,44,886,1742,1851,2065,2218,2051,1806,1878,2009
296470,-40632,-8272,-39896,-7128,888,1005,298,-337,181,192,433,4097,31,35,885,1742,1851,2065,2218,2051,1806,1878,2009
297471,-40560,-8220,-39831,-7063,429,1221,296,-327,176,96,336,3905,39,33,883,1742,1851,2065,2218,2051,1806,1878,2009
298472,-40500,-8160,-39766,-6998,585,1128,307,-318,158,50,390,4259,32,40,885,1742,1851,2065,2218,2051,1806,1878,2009
299473,-40436,-8100,-39701,-6933,538,1134,317,-296,141,125,386,4077,42,42,885,1742,1851,2065,2218,2051,1806,1878,2009
300474,-40384,-8044,-39636,-6868,704,1196,332,-277,136,320,300,4081,48,35,885,1736,1844,2169,2301,2049,1805,1876,2007
301475,-40324,-7988,-39571,-6803,610,1207,338,-258,140,149,341,4130,31,39,883,1736,1844,2169,2301,2049,1805,1876,2007
302476,-40264,-7940,-39506,-6738,617,1328,347,-244,133,28,323,4059,51,39,884,1736,1844,2169,2301,2049,1805,1876,2007
303477,-40204,-7868,-39441,-6673,623,1020,345,-235,139,6,254,3999,44,33,883,1736,1844,2169,2301,2049,1805,1876,2007
304478,-40128,-7808,-39376,-6608,409,1176,357,-228,157,88,277,3962,48,43,885,1736,1844,2169,2301,2049,1805,1876,2007
305479,-40076,-7756,-39311,-6543,725,1293,357,-218,154,58,262,4007,49,35,885,1736,1844,2169,2301,2049,1805,1876,2007
306480,-40028,-7700,-39246,-6478,797,1254,360,-206,154,-40,215,3984,44,40,882,1749,1860,2082,2245,2044,1807,1875,2005
307481,-39960,-7644,-39181,-6413,543,1266,366,-198,166,134,340,3999,32,37,881,1749,1860,2082,2245,2044,1807,1875,2005
308482,-39908,-7600,-39116,-6348,759,1442,364,-208,175,168,260,3802,39,35,883,1749,1860,2082,2245,2044,1807,1875,2005
309483,-39836,-7528,-39051,-6283,502,1084,353,-202,178,124,250,3957,36,39,880,1749,1860,2082,2245,2044,1807,1875,2005
310484,-39768,-7476,-38986,-6218,548,1350,351,-202,195,-54,276,3857,40,41,886,1749,1860,2082,2245,2044,1807,1875,2005
311485,-39704,-7432,-38921,-6153,599,1477,350,-183,201,85,261,3851,36,40,882,1823,1969,2100,2262,2039,1803,1873,2004
312486,-39632,-7376,-38856,-6088,492,1338,346,-189,189,191,276,3866,36,28,881,1823,1969,2100,2262,2039,1803,1873,2004
313487,-39576,-7312,-38791,-6023,703,1240,345,-199,182,158,329,3971,39,36,883,1823,1969,2100,2262,2039,1803,1873,2004
314488,-39500,-7252,-38726,-5958,439,1296,350,-193,176,206,370,3999,35,37,882,1823,1969,2100,2262,2039,1803,1873,2004
315490,-39448,-7204,-38661,-5893,755,1468,349,-176,152,279,360,3955,31,31,884,1823,1969,2100,2262,2039,1803,1873,2004
316490,-39384,-7148,-38596,-5828,607,1379,357,-171,131,230,437,4161,29,32,879,1823,1969,2100,2262,2039,1803,1873,2004
317491,-39324,-7076,-38531,-5763,664,1171,370,-156,107,310,505,4149,36,30,882,1760,1864,2076,2229,2038,1797,1871,2006
318492,-39256,-7024,-38466,-5698,560,1437,388,-158,75,38,418,4070,41,42,884,1760,1864,2076,2229,2038,1797,1871,2006
319493,-39192,-6972,-38401,-5633,612,1454,400,-166,55,354,483,4232,48,40,882,1760,1864,2076,2229,2038,1797,1871,2006
320494,-39124,-6920,-38336,-5568,558,1470,424,-158,50,128,389,4166,42,30,881,1760,1864,2076,2229,2038,1797,1871,2006
321495,-39072,-6844,-38271,-5503,774,1157,438,-150,52,96,476,4134,48,32,882,1760,1864,2076,2229,2038,1797,1871,2006
322496,-39012,-6776,-38206,-5438,681,1254,446,-169,53,-42,474,4124,38,42,883,1733,1845,2056,2206,2040,1796,1874,2013
323497,-38968,-6728,-38141,-5373,907,1526,455,-183,48,-86,388,4169,32,45,882,1733,1845,2056,2206,2040,1796,1874,2013
324498,-38896,-6672,-38076,-5308,548,1437,464,-193,49,-3,390,4086,32,41,878,1733,1845,2056,2206,2040,1796,1874,2013
325499,-38832,-6608,-38011,-5243,650,1339,480,-217,59,17,331,3920,46,35,881,1733,1845,2056,2206,2040,1796,1874,2013
326500,-38772,-6552,-37946,-5178,707,1450,480,-241,69,-64,335,3914,35,32,882,1733,1845,2056,2206,2040,1796,1874,2013
327501,-38708,-6468,-37881,-5113,658,1078,481,-252,71,44,448,4019,44,46,880,1733,1845,2056,2206,2040,1796,1874,2013
328502,-38652,-6436,-37816,-5048,769,1768,477,-265,70,180,279,3879,34,35,884,1746,1864,2080,2235,2047,1803,1882,2141
329503,-38568,-6364,-37751,-4983,397,1260,482,-277,80,73,327,3978,34,32,876,1746,1864,2080,2235,2047,1803,1882,2141
330504,-38520,-6320,-37686,-4918,868,1636,476,-273,82,125,299,3801,48,42,884,1746,1864,2080,2235,2047,1803,1882,2141
331505,-38440,-6248,-37621,-4853,449,1278,482,-268,71,190,271,4044,32,31,877,1746,1864,2080,2235,2047,1803,1882,2141
332506,-38384,-6200,-37556,-4788,761,1599,484,-270,61,300,323,4140,49,39,884,1746,1864,2080,2235,2047,1803,1882,2141
333507,-38312,-6132,-37491,-4723,553,1346,481,-280,45,272,239,3837,33,36,878,1771,1883,2099,2254,2047,1804,1880,2016
334508,-38244,-6072,-37426,-4658,599,1453,483,-283,31,198,357,4206,36,41,882,1771,1883,2099,2254,2047,1804,1880,2016
335509,-38192,-5980,-37361,-4593,816,1021,486,-288,20,142,370,4088,34,38,881,1771,1883,2099,2254,2047,1804,1880,2016
336510,-38144,-5948,-37296,-4528,887,1811,489,-292,-11,211,334,4028,48,40,883,1771,1883,2099,2254,2047,1804,1880,2016
337511,-38068,-5896,-37231,-4463,523,1578,500,-295,-44,145,448,4296,42,41,874,1771,1883,2099,2254,2047,1804,1880,2016
338512,-38020,-5836,-37166,-4398,895,1484,507,-324,-65,297,482,3902,45,28,880,1771,1883,2099,2254,2047,1804,1880,2016
339513,-37948,-5784,-37101,-4333,586,1601,519,-381,-73,329,439,3991,30,29,879,1765,1869,2085,2240,2045,1931,1986,2013
340514,-37908,-5736,-37036,-4268,1017,1672,534,-431,-61,-58,465,4083,35,34,880,1765,1869,2085,2240,2045,1931,1986,2013
341515,-37840,-5672,-36971,-4203,663,1474,545,-440,-56,-124,362,3992,48,39,876,1765,1869,2085,2240,2045,1931,1986,2013
342516,-37776,-5620,-36906,-4138,716,1641,546,-429,-40,91,355,4330,36,29,879,1765,1869,2085,2240,2045,1931,1986,2013
343517,-37700,-5568,-36841,-4073,552,1656,557,-405,-27,267,365,4195,42,27,879,1765,1869,2085,2240,2045,1931,1986,2013
344518,-37652,-5512,-36776,-4008,923,1618,562,-395,-4,257,331,4165,41,28,879,1746,1857,2069,2221,2041,1795,1874,2012
345519,-37600,-5460,-36711,-3943,890,1684,573,-377,26,93,463,4281,35,40,877,1746,1857,2069,2221,2041,1795,1874,2012
346520,-37532,-5400,-36646,-3878,686,1591,584,-366,49,11,449,4085,34,34,876,1746,1857,2069,2221,2041,1795,1874,2012
347521,-37504,-5332,-36581,-3813,1231,1489,588,-351,50,167,441,4157,38,43,880,1746,1857,2069,2221,2041,1795,1874,2012
348522,-37440,-5272,-36516,-3748,783,1595,585,-337,55,208,554,4235,39,32,876,1746,1857,2069,2221,2041,1795,1874,2012
349523,-37368,-5208,-36451,-3683,675,1547,590,-337,54,152,555,4230,54,48,879,1746,1857,2069,2221,2041,1795,1874,2012
350524,-37300,-5152,-36386,-3618,722,1658,586,-356,48,64,472,4046,42,34,880,1747,1860,2072,2325,2135,1804,1882,2020
351525,-37240,-5096,-36321,-3553,828,1670,583,-386,42,51,435,4090,52,46,878,1747,1860,2072,2325,2135,1804,1882,2020
352526,-37180,-5040,-36256,-3488,834,1681,583,-417,38,-79,421,4016,36,33,877,1747,1860,2072,2325,2135,1804,1882,2020
353527,-37096,-4968,-36191,-3423,512,1473,583,-443,17,-10,393,4023,49,33,877,1747,1860,2072,2325,2135,1804,1882,2020
354528,-37040,-4888,-36126,-3358,873,1356,594,-449,10,81,390,4096,54,37,882,1747,1860,2072,2325,2135,1804,1882,2020
355529,-36964,-4836,-36061,-3293,610,1722,610,-464,4,157,292,4035,32,36,881,1759,1867,2089,2244,2066,1817,1889,2031
356530,-36904,-4772,-35996,-3228,817,1574,608,-463,-18,181,247,4165,42,50,878,1759,1867,2089,2244,2066,1817,1889,2031
357531,-36844,-4708,-35931,-3163,823,1575,618,-448,-26,188,298,4149,34,46,879,1759,1867,2089,2244,2066,1817,1889,2031
358532,-36768,-4648,-35866,-3098,610,1633,619,-413,-31,401,383,4236,51,34,879,1759,1867,2089,2244,2066,1817,1889,2031
359533,-36716,-4580,-35801,-3033,926,1530,631,-376,-24,213,414,4132,50,40,877,1759,1867,2089,2244,2066,1817,1889,2031
360534,-36652,-4520,-35736,-2968,778,1636,639,-375,-32,165,420,4052,43,32,878,1759,1867,2089,2244,2066,1817,1889,2031
361535,-36588,-4460,-35671,-2903,779,1643,644,-373,-37,193,531,4187,44,36,878,1762,1970,2185,2242,2058,1811,1883,2022
362536,-36532,-4392,-35606,-2838,891,1539,663,-371,-30,208,456,4003,48,37,878,1762,1970,2185,2242,2058,1811,1883,2022
363537,-36468,-4332,-35541,-2773,792,1647,656,-357,-27,-4,469,4104,34,30,878,1762,1970,2185,2242,2058,1811,1883,2022
364538,-36416,-4264,-35476,-2708,958,1543,659,-346,-13,-248,675,4232,36,39,878,1762,1970,2185,2242,2058,1811,1883,2022
365539,-36340,-4216,-35411,-2643,646,1815,652,-372,-7,53,693,3776,37,33,878,1762,1970,2185,2242,2058,1811,1883,2022
366540,-36292,-4156,-35346,-2578,1016,1672,671,-443,-3,-66,653,4029,47,35,877,1755,1862,2077,2233,2040,1798,1872,2002
367541,-36240,-4088,-35281,-2513,982,1568,681,-495,8,-319,554,3813,41,30,875,1755,1862,2077,2233,2040,1798,1872,2002
368542,-36180,-4028,-35216,-2448,889,1675,672,-512,37,-386,485,3947,38,34,877,1755,1862,2077,2233,2040,1798,1872,2002
369543,-36116,-3968,-35151,-2383,840,1681,677,-497,63,-157,648,4200,35,41,877,1755,1862,2077,2233,2040,1798,1872,2002
370544,-36060,-3908,-35086,-2318,952,1688,681,-476,62,117,608,4174,44,44,877,1755,1862,2077,2233,2040,1798,1872,2002
371545,-35968,-3840,-35021,-2253,470,1586,689,-445,61,392,560,4394,51,46,876,1755,1862,2077,2233,2040,1798,1872,2002
372546,-35908,-3780,-34956,-2188,876,1692,688,-450,66,157,396,4004,36,34,881,1794,1854,2066,2216,2028,1784,1861,2000
373547,-35840,-3716,-34891,-2123,773,1644,683,-440,63,-157,371,4001,39,30,877,1794,1854,2066,2216,2028,1784,1861,2000
374548,-35780,-3664,-34826,-2058,879,1810,678,-409,36,229,626,4062,44,41,878,1794,1854,2066,2216,2028,1784,1861,2000
375549,-35704,-3600,-34761,-1993,666,1662,682,-405,11,593,531,4075,48,37,875,1794,1854,2066,2216,2028,1784,1861,2000
376550,-35652,-3556,-34696,-1928,982,1939,683,-404,-6,282,421,3892,30,38,878,1794,1854,2066,2216,2028,1784,1861,2000
377551,-35592,-3484,-34631,-1863,889,1580,685,-399,-30,-37,457,3820,40,45,873,1744,1850,2069,2218,2042,1795,1870,2013
378552,-35540,-3420,-34566,-1798,1004,1682,688,-404,-61,-69,534,3833,30,44,877,1744,1850,2069,2218,2042,1795,1870,2013
379553,-35476,-3352,-34501,-1733,857,1630,682,-423,-91,31,464,3716,32,45,876,1744,1850,2069,2218,2042,1795,1870,2013
380554,-35420,-3296,-34436,-1668,968,1791,690,-432,-109,117,454,3926,41,51,877,1744,1850,2069,2218,2042,1795,1870,2013
381555,-35348,-3224,-34371,-1603,760,1583,694,-449,-122,-43,407,3734,44,35,875,1744,1850,2069,2218,2042,1795,1870,2013
382556,-35288,-3144,-34306,-1538,916,1465,699,-466,-107,-232,475,3940,52,35,879,1744,1850,2069,2218,2042,1795,1870,2013
383557,-35236,-3088,-34241,-1473,1032,1777,699,-482,-98,-134,515,3762,38,34,879,1745,1854,2076,2224,2056,1808,1880,2021
384558,-35184,-3036,-34176,-1408,1049,1844,694,-490,-84,-132,489,3875,33,34,874,1745,1854,2076,2224,2056,1808,1880,2021
385559,-35104,-2976,-34111,-1343,681,1750,685,-489,-77,-77,471,3810,48,46,873,1745,1854,2076,2224,2056,1808,1880,2021
386560,-35044,-2892,-34046,-1278,937,1428,668,-500,-58,-126,553,3915,45,35,877,1745,1854,2076,2224,2056,1808,1880,2021
387561,-34988,-2848,-33981,-1213,999,1953,666,-516,-19,-51,620,3966,33,28,879,1745,1854,2076,2224,2056,1808,1880,2021
388562,-34928,-2780,-33916,-1148,955,1651,650,-562,3,-114,525,3781,48,39,872,1733,1846,2061,2207,2051,1805,2026,2123
389563,-34868,-2736,-33851,-1083,962,1977,645,-583,3,-164,584,4179,37,33,876,1733,1846,2061,2207,2051,1805,2026,2123
390564,-34800,-2672,-33786,-1018,858,1729,634,-607,14,-19,561,3969,41,43,873,1733,1846,2061,2207,2051,1805,2026,2123
391565,-34744,-2612,-33721,-953,1019,1786,636,-617,28,143,551,4280,55,45,877,1733,1846,2061,2207,2051,1805,2026,2123
392566,-34684,-2544,-33656,-888,976,1683,640,-626,27,84,527,4090,53,47,875,1733,1846,2061,2207,2051,1805,2026,2123
393567,-34628,-2480,-33591,-823,1037,1734,654,-648,25,176,451,4196,35,36,875,1733,1846,2061,2207,2051,1805,2026,2123
394568,-34556,-2416,-33526,-758,829,1736,666,-668,1,292,428,4239,39,42,875,1727,1838,2054,2196,2060,1808,1882,2032
395569,-34520,-2372,-33461,-693,1315,2012,673,-690,-21,223,475,4097,40,46,876,1727,1838,2054,2196,2060,1808,1882,2032
396570,-34464,-2308,-33396,-628,1076,1764,675,-692,-41,318,484,4256,38,40,869,1727,1838,2054,2196,2060,1808,1882,2032
397571,-34372,-2248,-33331,-563,594,1821,673,-710,-46,179,407,3960,61,40,875,1727,1838,2054,2196,2060,1808,1882,2032
398572,-34288,-2180,-33266,-498,671,1718,669,-741,-39,-96,460,4019,52,48,878,1727,1838,2054,2196,2060,1808,1882,2032
399573,-34216,-2116,-33201,-433,813,1770,670,-753,-39,-107,399,3860,42,42,878,1744,1859,2077,2220,2162,1914,1890,2035
400574,-34152,-2064,-33136,-368,915,1937,665,-757,-43,-36,529,3976,44,46,877,1744,1859,2077,2220,2162,1914,1890,2035
401575,-34088,-1992,-33071,-303,916,1678,668,-758,-46,-102,628,4110,38,42,874,1744,1859,2077,2220,2162,1914,1890,2035
402576,-34000,-1940,-33006,-238,589,1945,647,-760,-50,-146,594,3869,57,46,877,1744,1859,2077,2220,2162,1914,1890,2035
403577,-33932,-1880,-32941,-173,835,1852,616,-786,-35,-179,638,3772,45,33,876,1744,1859,2077,2220,2162,1914,1890,2035
404578,-33880,-1816,-32876,-108,1051,1803,582,-793,-8,-253,696,3918,40,36,875,1744,1859,2077,2220,2162,1914,1890,2035
405579,-33808,-1740,-32811,-43,794,1641,547,-770,2,-138,643,3877,54,44,874,1763,1877,2091,2239,2051,1803,1882,2026
406580,-33752,-1692,-32746,22,1005,2013,531,-724,16,-58,694,4114,54,31,878,1763,1877,2091,2239,2051,1803,1882,2026
407581,-33688,-1628,-32681,87,906,1814,529,-718,52,-16,565,4097,34,41,872,1763,1877,2091,2239,2051,1803,1882,2026
408582,-33628,-1568,-32616,152,963,1871,525,-709,69,-49,473,4146,47,42,875,1763,1877,2091,2239,2051,1803,1882,2026
409583,-33576,-1516,-32551,217,1079,1988,516,-712,91,-404,426,4147,40,31,874,1763,1877,2091,2239,2051,1803,1882,2026
410584,-33512,-1440,-32486,282,931,1675,522,-699,129,-241,567,4438,35,39,871,1744,1851,2164,2297,2067,1814,1878,2019
411585,-33460,-1372,-32421,347,1097,1772,526,-667,145,162,504,4398,54,46,876,1744,1851,2164,2297,2067,1814,1878,2019
412586,-33420,-1328,-32356,412,1277,2098,540,-645,159,-2,512,4569,34,37,874,1744,1851,2164,2297,2067,1814,1878,2019
413587,-33336,-1268,-32291,477,705,1905,552,-641,179,3,520,4421,52,46,868,1744,1851,2164,2297,2067,1814,1878,2019
414588,-33256,-1196,-32226,542,737,1747,561,-641,187,117,464,4282,54,44,876,1744,1851,2164,2297,2067,1814,1878,2019
415589,-33188,-1144,-32161,607,884,2013,564,-640,192,48,612,4294,36,37,876,1744,1851,2164,2297,2067,1814,1878,2019
416590,-33132,-1076,-32096,672,1045,1810,564,-617,203,88,717,4370,40,36,873,1713,1815,2049,2199,2079,1830,1887,2030
417591,-33060,-1020,-32031,737,837,1972,563,-576,202,230,775,4340,33,46,874,1713,1815,2049,2199,2079,1830,1887,2030
418592,-33016,-932,-31966,802,1213,1544,565,-555,205,199,827,4352,52,42,874,1713,1815,2049,2199,2079,1830,1887,2030
419593,-32952,-880,-31901,867,964,2011,555,-557,216,80,829,4241,50,42,875,1713,1815,2049,2199,2079,1830,1887,2030
420594,-32904,-816,-31836,932,1186,1863,535,-538,212,205,876,4103,34,45,873,1713,1815,2049,2199,2079,1830,1887,2030
421595,-32824,-724,-31771,997,768,1480,517,-501,225,-279,723,4367,36,50,872,1782,1938,2085,2236,2086,1836,1900,2042
422596,-32768,-656,-31706,1062,1079,1778,563,-585,221,178,294,4383,49,40,880,1782,1938,2085,2236,2086,1836,1900,2042
423597,-32696,-580,-31641,1127,871,1665,633,-888,263,1483,192,3860,48,50,873,1782,1938,2085,2236,2086,1836,1900,2042
424598,-32648,-544,-31576,1192,1192,2201,594,-963,199,-2247,-913,5667,47,42,877,1782,1938,2085,2236,2086,1836,1900,2042
425599,-32580,-460,-31511,1257,939,1578,533,-726,11,-3982,-498,6293,39,43,869,1782,1938,2085,2236,2086,1836,1900,2042
426600,-32524,-368,-31446,1322,1100,1446,573,-625,98,2328,1066,3850,44,50,878,1782,1938,2085,2236,2086,1836,1900,2042
427601,-32456,-308,-31381,1387,947,1853,529,-678,269,3261,373,4596,38,57,876,1782,1901,2123,2271,2075,1823,1911,2059
428602,-32408,-232,-31316,1452,1219,1640,405,-653,208,-71,600,3966,51,43,874,1782,1901,2123,2271,2075,1823,1911,2059
429603,-32332,-128,-31251,1517,855,1244,360,-545,206,-1643,941,4758,37,43,875,1782,1901,2123,2271,2075,1823,1911,2059
430604,-32272,-48,-31186,1582,1062,1525,323,-459,236,634,675,3798,40,44,881,1782,1901,2123,2271,2075,1823,1911,2059
431605,-32224,24,-31121,1647,1233,1618,298,-279,270,1300,205,4516,53,44,877,1782,1901,2123,2271,2075,1823,1911,2059
432606,-32148,88,-31056,1712,870,1720,291,-226,306,413,542,4554,51,54,875,1819,1936,2136,2276,2108,1853,1935,2087
433607,-32092,148,-30991,1777,1131,1776,281,-300,311,-549,508,4322,37,41,876,1819,1936,2136,2276,2108,1853,1935,2087
434608,-32004,204,-30926,1842,703,1838,297,-350,301,-288,419,4343,52,45,874,1819,1936,2136,2276,2108,1853,1935,2087
435609,-31928,296,-30861,1907,841,1355,306,-450,319,-210,371,3920,40,45,876,1819,1936,2136,2276,2108,1853,1935,2087
436610,-31872,368,-30796,1972,1102,1598,343,-571,310,-305,434,4395,44,37,881,1819,1936,2136,2276,2108,1853,1935,2087
437611,-31836,428,-30731,2037,1388,1755,394,-678,279,-479,504,4142,41,38,876,1819,1936,2136,2276,2108,1853,1935,2087
438612,-31768,500,-30666,2102,985,1596,451,-753,238,-395,587,4804,39,54,872,1729,1835,2055,2194,2125,1864,1912,2172
439613,-31692,572,-30601,2167,871,1589,492,-817,195,89,398,4367,42,44,877,1729,1835,2055,2194,2125,1864,1912,2172
440614,-31636,640,-30536,2232,1133,1635,514,-888,163,37,532,4575,41,50,878,1729,1835,2055,2194,2125,1864,1912,2172
441615,-31576,720,-30471,2297,1089,1468,519,-911,161,261,741,4483,48,50,875,1729,1835,2055,2194,2125,1864,1912,2172
442618,-31504,784,-30406,2362,932,1670,506,-866,150,752,799,4397,40,42,877,1729,1835,2055,2194,2125,1864,1912,2172
443617,-31432,848,-30341,2427,923,1671,484,-824,133,898,889,4383,52,40,877,1697,1806,2037,2182,2053,1801,1867,2006
444618,-31376,912,-30276,2492,1134,1673,453,-756,121,931,806,4401,40,43,876,1697,1806,2037,2182,2053,1801,1867,2006
445619,-31300,992,-30211,2557,872,1455,422,-689,137,694,955,4216,51,42,875,1697,1806,2037,2182,2053,1801,1867,2006
446620,-31248,1056,-30146,2622,1188,1657,379,-606,149,689,1171,4093,48,45,878,1697,1806,2037,2182,2053,1801,1867,2006
447621,-31172,1120,-30081,2687,875,1659,325,-531,161,885,1031,3880,52,38,874,1697,1806,2037,2182,2053,1801,1867,2006
448622,-31092,1164,-30016,2752,807,1935,285,-474,185,776,1101,3921,42,30,877,1697,1806,2037,2182,2053,1801,1867,2006
449623,-31028,1220,-29951,2817,1009,1797,251,-453,203,377,965,3580,56,40,874,1759,1876,2092,2244,2030,1900,2000,2032
450624,-30972,1280,-29752,3016,1971,2604,226,-463,210,-48,741,3749,37,26,874,1759,1876,2092,2244,2030,1900,2000,2032
451625,-30888,1352,-29687,3081,1598,2446,213,-504,214,-327,850,3748,43,29,856,1759,1876,2092,2244,2030,1900,2000,2032
452626,-30808,1420,-29622,3146,1630,2493,239,-537,233,-281,560,3685,65,42,862,1759,1876,2092,2244,2030,1900,2000,2032
453627,-30740,1504,-29557,3211,1777,2270,279,-632,244,-69,520,3694,76,48,861,1759,1876,2092,2244,2030,1900,2000,2032
454628,-30620,1600,-29492,3276,1060,2083,309,-724,227,-356,480,3874,78,50,863,1762,1875,2101,2243,2062,1812,1874,2018
455629,-30492,1684,-29427,3341,884,2211,309,-734,191,-403,642,3515,84,69,872,1762,1875,2101,2243,2062,1812,1874,2018
456630,-30388,1808,-29362,3406,1137,1639,275,-662,167,165,674,3676,82,65,872,1762,1875,2101,2243,2062,1812,1874,2018
457631,-30276,1912,-29297,3471,980,1843,238,-583,144,597,894,3645,84,68,876,1762,1875,2101,2243,2062,1812,1874,2018
458632,-30168,2020,-29232,3536,977,1740,237,-543,149,296,865,3979,72,78,876,1762,1875,2101,2243,2062,1812,1874,2018
459633,-30072,2140,-29167,3601,1090,1524,266,-501,131,519,966,4234,82,84,877,1762,1875,2101,2243,2062,1812,1874,2018
460634,-29956,2256,-29102,3666,778,1513,305,-462,110,618,1191,4149,73,69,878,1727,1836,2060,2265,2151,1843,1869,2011
461635,-29836,2372,-29037,3731,661,1450,345,-417,97,861,1245,4116,65,71,879,1727,1836,2060,2265,2151,1843,1869,2011
462636,-29732,2516,-28972,3796,814,1005,376,-375,79,843,1016,3987,78,74,882,1727,1836,2060,2265,2151,1843,1869,2011
463637,-29636,2636,-28907,3861,876,1238,385,-339,50,728,1459,4422,76,72,884,1727,1836,2060,2265,2151,1843,1869,2011
464638,-29540,2740,-28842,3926,839,1391,407,-272,71,684,1548,4046,65,71,882,1727,1836,2060,2265,2151,1843,1869,2011
465639,-29444,2852,-28777,3991,801,1234,411,-232,64,1302,1420,4189,58,58,881,1696,1802,2026,2176,2038,1797,1859,1985
466640,-29344,2936,-28712,4056,709,1561,392,-231,70,469,1327,3837,55,58,882,1696,1802,2026,2176,2038,1797,1859,1985
467641,-29268,3048,-28647,4121,996,1154,386,-255,87,78,1536,3767,67,57,880,1696,1802,2026,2176,2038,1797,1859,1985
468642,-29176,3152,-28582,4186,763,1207,377,-276,96,367,1487,3792,68,58,882,1696,1802,2026,2176,2038,1797,1859,1985
469643,-29084,3236,-28517,4251,730,1435,381,-292,113,511,1389,3826,52,69,883,1696,1802,2026,2176,2038,1797,1859,1985
470644,-28984,3324,-28452,4316,588,1356,400,-310,121,297,1364,3639,53,54,881,1729,1904,2173,2274,2027,1795,1854,1988
471645,-28888,3412,-28387,4381,600,1328,402,-353,120,-37,1235,3718,57,67,883,1729,1904,2173,2274,2027,1795,1854,1988
472646,-28832,3508,-28322,4446,1111,1192,419,-379,130,-27,1165,3519,57,52,883,1729,1904,2173,2274,2027,1795,1854,1988
473647,-28752,3584,-28257,4511,793,1428,422,-405,139,126,1169,3432,49,58,881,1729,1904,2173,2274,2027,1795,1854,1988
474648,-28656,3680,-28192,4576,555,1141,440,-404,125,379,1161,3775,63,55,881,1729,1904,2173,2274,2027,1795,1854,1988
475649,-28596,3764,-28127,4641,1012,1268,452,-393,109,275,1049,3525,43,63,885,1729,1904,2173,2274,2027,1795,1854,1988
476650,-28516,3860,-28062,4706,744,1080,477,-364,113,421,1114,3646,40,60,880,1771,1885,2123,2267,2027,1780,1844,1994
477651,-28444,3944,-27997,4771,835,1208,519,-328,127,783,1310,3420,44,55,884,1771,1885,2123,2267,2027,1780,1844,1994
478652,-28376,4012,-27932,4836,881,1404,553,-293,86,669,1256,3455,40,44,881,1771,1885,2123,2267,2027,1780,1844,1994
479653,-28300,4092,-27867,4901,768,1236,583,-269,37,442,1368,3715,41,45,881,1771,1885,2123,2267,2027,1780,1844,1994
480654,-28232,4172,-27802,4966,864,1218,599,-253,12,621,1581,3603,49,49,883,1771,1885,2123,2267,2027,1780,1844,1994
481655,-28168,4240,-27737,5031,917,1365,605,-231,8,636,1574,3653,42,45,882,1822,1939,2096,2224,1986,1740,1818,1955
482656,-28096,4316,-27672,5096,808,1252,607,-214,1,671,1746,3723,53,55,880,1822,1939,2096,2224,1986,1740,1818,1955
483657,-28024,4388,-27607,5161,800,1293,600,-232,-14,290,1843,3415,40,43,882,1822,1939,2096,2224,1986,1740,1818,1955
484658,-27940,4472,-27542,5226,626,1121,602,-268,-17,145,1921,3523,52,49,881,1822,1939,2096,2224,1986,1740,1818,1955
485659,-27884,4524,-27477,5291,987,1537,614,-299,-15,166,1815,3648,45,53,884,1822,1939,2096,2224,1986,1740,1818,1955
486660,-27808,4592,-27412,5356,724,1333,618,-348,-9,31,1712,3321,48,54,879,1822,1939,2096,2224,1986,1740,1818,1955
487661,-27736,4656,-27347,5421,765,1384,641,-405,1,171,1823,3525,42,57,882,1732,1840,2042,2180,1972,1736,1812,1948
488662,-27668,4732,-27282,5486,813,1222,680,-451,12,268,1839,3540,47,49,881,1732,1840,2042,2180,1972,1736,1812,1948
489663,-27596,4812,-27217,5551,754,1154,716,-482,30,249,1649,3525,37,45,882,1732,1840,2042,2180,1972,1736,1812,1948
490664,-27516,4880,-27152,5616,636,1300,761,-500,53,465,1603,3614,55,52,883,1732,1840,2042,2180,1972,1736,1812,1948
491665,-27440,4944,-27087,5681,672,1352,794,-532,52,539,1485,3442,40,41,883,1732,1840,2042,2180,1972,1736,1812,1948
492666,-27380,5032,-27022,5746,879,1024,829,-532,58,423,1407,3683,53,39,882,1702,1812,2031,2168,2002,1766,1832,1976
493667,-27296,5088,-26957,5811,555,1435,878,-513,76,770,1637,3531,46,39,883,1702,1812,2031,2168,2002,1766,1832,1976
494668,-27216,5164,-26892,5876,587,1172,917,-537,98,905,1558,3134,52,46,882,1702,1812,2031,2168,2002,1766,1832,1976
495669,-27144,5224,-26827,5941,679,1379,962,-585,85,625,1445,3326,39,44,883,1702,1812,2031,2168,2002,1766,1832,1976
496670,-27072,5276,-26762,6006,671,1495,987,-639,58,107,1343,3148,39,45,881,1702,1812,2031,2168,2002,1766,1832,1976
497671,-26996,5332,-26697,6071,607,1456,1005,-686,42,86,1490,3183,51,30,880,1702,1812,2031,2168,2002,1766,1832,1976
498672,-26936,5392,-26632,6136,814,1413,998,-695,51,470,1566,2994,51,42,881,1731,1846,2083,2223,2011,1771,1894,2092
499673,-26864,5456,-26567,6201,655,1364,987,-742,55,623,1466,2986,44,32,880,1731,1846,2083,2223,2011,1771,1894,2092
500674,-26796,5512,-26502,6266,701,1475,974,-788,48,201,1541,3026,50,35,881,1731,1846,2083,2223,2011,1771,1894,2092
501675,-26732,5572,-26437,6331,753,1431,965,-840,38,-88,1676,2921,43,47,881,1731,1846,2083,2223,2011,1771,1894,2092
502676,-26676,5624,-26372,6396,864,1548,954,-865,21,214,1647,3096,38,37,881,1731,1846,2083,2223,2011,1771,1894,2092
503677,-26600,5700,-26307,6461,600,1234,942,-878,9,568,1742,3193,45,46,879,1767,1879,2099,2227,1995,1750,1824,1970
504678,-26516,5772,-26242,6526,478,1276,936,-882,14,442,1621,3171,53,38,884,1767,1879,2099,2227,1995,1750,1824,1970
505679,-26440,5820,-26177,6591,565,1598,927,-886,29,390,1498,3344,47,36,884,1767,1879,2099,2227,1995,1750,1824,1970
506680,-26376,5892,-26112,6656,716,1289,921,-887,42,269,1546,3235,50,46,880,1767,1879,2099,2227,1995,1750,1824,1970
507681,-26300,5960,-26047,6721,552,1335,926,-879,42,290,1640,3468,43,56,883,1767,1879,2099,2227,1995,1750,1824,1970
508682,-26228,6036,-25982,6786,594,1222,944,-860,52,231,1491,3531,51,60,884,1767,1879,2099,2227,1995,1750,1824,1970
509683,-26156,6108,-25917,6851,585,1264,960,-860,74,485,1569,3524,38,45,884,1724,1838,2043,2158,2003,1865,1950,1972
510684,-26092,6192,-25852,6916,686,1091,981,-854,81,632,1652,3546,38,59,883,1724,1838,2043,2158,2003,1865,1950,1972
511685,-26016,6268,-25787,6981,523,1178,989,-854,90,258,1516,3684,54,58,884,1724,1838,2043,2158,2003,1865,1950,1972
512686,-25940,6324,-25722,7046,510,1440,994,-823,93,258,1574,3764,42,59,884,1724,1838,2043,2158,2003,1865,1950,1972
513687,-25868,6416,-25657,7111,551,957,987,-816,97,585,1719,3737,36,57,882,1724,1838,2043,2158,2003,1865,1950,1972
514688,-25776,6508,-25592,7176,268,924,968,-817,117,663,1488,3635,42,53,887,1677,1789,2009,2137,2030,1789,1847,1993
515689,-25704,6588,-25527,7241,511,1056,971,-815,147,422,1671,3610,40,49,889,1677,1789,2009,2137,2030,1789,1847,1993
516690,-25624,6664,-25462,7306,392,1093,973,-840,148,259,1679,3145,35,44,886,1677,1789,2009,2137,2030,1789,1847,1993
517691,-25580,6744,-25397,7371,868,1025,972,-882,115,229,1581,3424,35,58,886,1677,1789,2009,2137,2030,1789,1847,1993
518692,-25496,6820,-25332,7436,345,1061,961,-945,107,157,1592,3096,44,56,884,1677,1789,2009,2137,2030,1789,1847,1993
519693,-25448,6896,-25267,7501,815,1048,955,-997,119,495,1539,2993,54,58,887,1677,1789,2009,2137,2030,1789,1847,1993
520694,-25364,6988,-25202,7566,342,815,938,-1022,125,510,1407,2944,35,40,884,1693,1801,2046,2274,2176,1834,1878,2027
521695,-25308,7064,-25137,7631,703,1003,930,-1058,138,143,1303,2845,51,46,889,1693,1801,2046,2274,2176,1834,1878,2027
522696,-25244,7132,-25072,7696,604,1099,913,-1048,148,168,1289,2958,52,54,886,1693,1801,2046,2274,2176,1834,1878,2027
523697,-25156,7208,-25007,7761,276,986,895,-1021,177,552,1136,3070,40,59,885,1693,1801,2046,2274,2176,1834,1878,2027
524698,-25088,7300,-24942,7826,523,753,870,-969,212,866,1134,3219,40,59,888,1693,1801,2046,2274,2176,1834,1878,2027
525699,-25000,7368,-24877,7891,245,1050,836,-901,252,689,1127,3426,36,53,888,1720,1832,2072,2194,2066,1812,1861,2016
526700,-24932,7448,-24812,7956,491,882,790,-789,292,721,1245,3576,47,45,888,1720,1832,2072,2194,2066,1812,1861,2016
527701,-24864,7532,-24747,8021,487,808,738,-692,321,929,1320,3547,50,61,888,1720,1832,2072,2194,2066,1812,1861,2016
528702,-24796,7616,-24682,8086,484,785,684,-624,334,831,1321,3589,35,58,888,1720,1832,2072,2194,2066,1812,1861,2016
529703,-24708,7696,-24617,8151,206,817,640,-537,343,462,1280,3781,42,54,887,1720,1832,2072,2194,2066,1812,1861,2016
530704,-24644,7788,-24552,8216,507,634,601,-460,373,606,1438,3491,50,53,890,1720,1832,2072,2194,2066,1812,1861,2016
531705,-24580,7884,-24487,8281,508,547,562,-416,370,532,1478,3438,54,59,890,1696,1906,2131,2147,2051,1797,1848,1995
532706,-24504,7956,-24422,8346,345,839,520,-407,337,12,1552,3575,38,48,890,1696,1906,2131,2147,2051,1797,1848,1995
533707,-24436,8044,-24357,8411,441,610,473,-474,335,-170,1642,3081,40,57,889,1696,1906,2131,2147,2051,1797,1848,1995
534708,-24364,8116,-24292,8476,382,802,444,-551,331,241,1424,3003,37,50,890,1696,1906,2131,2147,2051,1797,1848,1995
535709,-24300,8196,-24227,8541,485,684,424,-580,351,-111,1077,3181,33,44,889,1696,1906,2131,2147,2051,1797,1848,1995
536710,-24232,8284,-24162,8606,431,556,401,-565,391,-308,965,2901,50,46,889,1650,1759,1996,2118,2088,1832,1872,2021
537711,-24152,8356,-24097,8671,263,747,397,-505,414,247,1085,3069,48,54,890,1650,1759,1996,2118,2088,1832,1872,2021
538712,-24072,8436,-24032,8736,244,630,381,-443,455,747,1019,3243,51,56,890,1650,1759,1996,2118,2088,1832,1872,2021
539713,-23996,8512,-23967,8801,281,666,368,-365,496,892,956,3210,39,44,891,1650,1759,1996,2118,2088,1832,1872,2021
540714,-23932,8588,-23902,8866,432,653,350,-288,533,1035,1117,3221,51,45,891,1650,1759,1996,2118,2088,1832,1872,2021
541715,-23864,8656,-23837,8931,378,749,323,-165,575,1218,1093,3475,33,46,890,1650,1759,1996,2118,2088,1832,1872,2021
542716,-23796,8740,-23772,8996,375,526,292,-31,617,1467,1027,3012,47,45,890,1688,1757,1998,2120,2089,1837,1875,2019
543717,-23716,8820,-23707,9061,206,558,265,101,651,1346,1062,3240,52,42,891,1688,1757,1998,2120,2089,1837,1875,2019
544718,-23644,8904,-23642,9126,298,484,213,199,669,1109,1128,3018,53,56,892,1688,1757,1998,2120,2089,1837,1875,2019
545719,-23572,8992,-23577,9191,289,406,153,267,681,837,1236,2684,53,44,892,1688,1757,1998,2120,2089,1837,1875,2019
546720,-23492,9048,-23512,9256,171,817,100,301,700,644,1155,2559,36,57,891,1688,1757,1998,2120,2089,1837,1875,2019
547721,-23436,9132,-23447,9321,482,444,55,286,706,567,1199,2403,43,53,890,1671,1775,2020,2160,2064,1822,1854,1978
548722,-23356,9216,-23382,9386,164,421,6,190,706,450,1259,1947,33,40,891,1671,1775,2020,2160,2064,1822,1854,1978
549723,-23288,9308,-23317,9451,310,289,-31,102,701,-108,1135,2079,43,43,892,1671,1775,2020,2160,2064,1822,1854,1978
550724,-23204,9376,-23252,9516,87,585,-76,121,713,-378,796,2516,48,41,893,1671,1775,2020,2160,2064,1822,1854,1978
551725,-23136,9468,-23187,9581,283,252,-132,189,737,386,695,2533,37,46,892,1671,1775,2020,2160,2064,1822,1854,1978
552726,-23064,9536,-23122,9646,225,549,-192,284,764,702,608,2746,42,40,893,1671,1775,2020,2160,2064,1822,1854,1978
553727,-22988,9620,-23057,9711,161,326,-268,407,797,725,682,3097,42,43,892,1661,1764,1997,2125,2019,1774,1818,1953
554728,-22908,9692,-22992,9776,92,467,-340,515,837,875,708,3025,41,50,893,1661,1764,1997,2125,2019,1774,1818,1953
555729,-22828,9772,-22927,9841,74,349,-398,637,863,1204,715,3165,34,53,893,1661,1764,1997,2125,2019,1774,1818,1953
556730,-22780,9840,-22862,9906,494,495,-443,752,881,1217,642,3157,47,40,894,1661,1764,1997,2125,2019,1774,1818,1953
557731,-22696,9896,-22797,9971,21,656,-476,867,893,933,583,3050,33,47,891,1661,1764,1997,2125,2019,1774,1818,1953
558732,-22640,9984,-22732,10036,382,228,-489,996,889,869,674,3070,32,45,892,1618,1734,1956,2070,2040,1792,1932,2104
559733,-22568,10076,-22667,10101,174,145,-512,1096,877,747,724,2810,33,48,893,1618,1734,1956,2070,2040,1792,1932,2104
560734,-22516,10156,-22602,10166,440,277,-551,1132,876,885,1001,2571,46,47,894,1618,1734,1956,2070,2040,1792,1932,2104
561735,-22456,10248,-22537,10231,346,94,-597,1117,864,1088,1144,2309,41,49,892,1618,1734,1956,2070,2040,1792,1932,2104
562736,-22360,10344,-22472,10296,-142,6,-629,1095,865,441,983,1998,39,53,893,1618,1734,1956,2070,2040,1792,1932,2104
563737,-22296,10432,-22407,10361,259,78,-658,1089,865,4,645,1914,46,53,888,1618,1734,1956,2070,2040,1792,1932,2104
564738,-22224,10528,-22342,10426,150,-60,-693,1078,880,481,820,1722,34,41,894,1612,1725,1960,2093,2080,1834,1870,2002
565739,-22136,10612,-22277,10491,-78,67,-718,1052,892,852,898,1703,36,54,894,1612,1725,1960,2093,2080,1834,1870,2002
566740,-22060,10676,-22212,10556,59,318,-738,1030,921,465,515,1785,54,49,893,1612,1725,1960,2093,2080,1834,1870,2002
567741,-21984,10756,-22147,10621,46,100,-771,1046,952,418,328,1781,35,50,894,1612,1725,1960,2093,2080,1834,1870,2002
568742,-21912,10844,-22082,10686,87,-28,-811,1111,976,924,515,2176,41,43,895,1612,1725,1960,2093,2080,1834,1870,2002
569743,-21836,10940,-22017,10751,24,-166,-880,1245,995,1284,488,2418,33,42,895,1625,1739,1970,2100,2132,1908,1836,1960
570744,-21740,11068,-21952,10816,-264,-644,-968,1436,1015,1591,426,2848,36,43,895,1625,1739,1970,2100,2132,1908,1836,1960
571745,-21664,11188,-21887,10881,-28,-611,-1067,1641,1029,1976,557,2957,48,37,891,1625,1739,1970,2100,2132,1908,1836,1960
572746,-21612,11268,-21822,10946,288,-130,-1167,1784,1032,1840,728,2709,34,45,891,1625,1739,1970,2100,2132,1908,1836,1960
573747,-21536,11336,-21757,11011,-26,17,-1261,1888,1004,1268,866,3050,31,28,893,1625,1739,1970,2100,2132,1908,1836,1960
574748,-21464,11384,-21692,11076,15,288,-1355,1938,961,764,597,2891,31,29,895,1625,1739,1970,2100,2132,1908,1836,1960
575749,-21368,11444,-21627,11141,-323,144,-1441,1939,914,300,390,2707,43,36,894,1628,1732,1953,2085,2012,1778,1821,1953
576750,-21292,11520,-21562,11206,-86,-70,-1522,1921,886,390,371,2590,33,27,895,1628,1732,1953,2085,2012,1778,1821,1953
577751,-21204,11564,-21497,11271,-264,356,-1592,1920,855,497,637,2566,38,36,895,1628,1732,1953,2085,2012,1778,1821,1953
578752,-21120,11616,-21432,11336,-237,272,-1655,1894,824,335,556,2227,29,40,894,1628,1732,1953,2085,2012,1778,1821,1953
579753,-21072,11680,-21367,11401,233,122,-1717,1823,785,62,370,2044,39,42,894,1628,1732,1953,2085,2012,1778,1821,1953
580754,-21004,11744,-21302,11466,-20,123,-1758,1814,749,152,379,2399,35,36,894,1598,1711,2062,2166,2102,1854,1884,2038
581755,-20948,11820,-21237,11531,141,-40,-1791,1855,752,487,303,2386,33,33,895,1598,1711,2062,2166,2102,1854,1884,2038
582756,-20904,11880,-21172,11596,315,166,-1801,1927,757,967,405,2502,31,32,895,1598,1711,2062,2166,2102,1854,1884,2038
583757,-20844,11948,-21107,11661,121,62,-1817,2000,759,1171,487,2420,41,40,893,1598,1711,2062,2166,2102,1854,1884,2038
584758,-20800,12008,-21042,11726,347,168,-1851,2074,759,993,390,2345,37,36,895,1598,1711,2062,2166,2102,1854,1884,2038
585759,-20728,12072,-20977,11791,-11,119,-1896,2168,779,1000,329,2453,39,42,893,1598,1711,2062,2166,2102,1854,1884,2038
586760,-20664,12136,-20912,11856,90,121,-1961,2287,793,1466,531,2519,37,34,895,1596,1724,1960,2077,2120,1858,1897,2044
587761,-20588,12196,-20847,11921,-74,177,-2043,2401,804,1580,562,2427,46,37,895,1596,1724,1960,2077,2120,1858,1897,2044
588762,-20512,12252,-20782,11986,-87,237,-2143,2509,821,1522,657,2534,36,46,893,1596,1724,1960,2077,2120,1858,1897,2044
589763,-20444,12320,-20717,12051,9,83,-2260,2577,820,1437,775,2357,39,38,892,1596,1724,1960,2077,2120,1858,1897,2044
590764,-20400,12396,-20652,12116,335,-30,-2380,2615,803,1034,643,2342,38,50,895,1596,1724,1960,2077,2120,1858,1897,2044
591765,-20344,12480,-20587,12181,196,-153,-2493,2649,772,818,711,2496,38,51,894,1663,1811,1951,2082,2062,1815,1856,1986
592766,-20268,12544,-20522,12246,-69,98,-2598,2658,734,885,838,2429,37,49,894,1663,1811,1951,2082,2062,1815,1856,1986
593767,-20204,12616,-20457,12311,83,-11,-2692,2648,688,1089,796,2544,38,35,894,1663,1811,1951,2082,2062,1815,1856,1986
594768,-20164,12684,-20392,12376,413,36,-2783,2629,627,930,743,2526,29,38,895,1663,1811,1951,2082,2062,1815,1856,1986
595769,-20088,12748,-20327,12441,-50,87,-2854,2614,566,534,443,2676,32,39,894,1663,1811,1951,2082,2062,1815,1856,1986
596770,-20040,12844,-20262,12506,321,-352,-2880,2572,557,96,376,2922,48,40,895,1663,1811,1951,2082,2062,1815,1856,1986
597771,-19956,12892,-20197,12571,-153,269,-2874,2424,536,-232,124,2916,50,36,891,1591,1698,1932,2053,2072,1823,1851,2000
598772,-19888,12968,-20132,12636,44,-95,-2804,2263,495,-165,-132,3722,46,42,887,1591,1698,1932,2053,2072,1823,1851,2000
599773,-19816,13036,-20067,12701,-15,2,-2670,2093,471,33,-348,4247,44,38,895,1591,1698,1932,2053,2072,1823,1851,2000
600774,-19752,13112,-20002,12766,86,-112,-2512,1876,497,-232,-343,4167,44,48,895,1591,1698,1932,2053,2072,1823,1851,2000
601775,-19680,13200,-19937,12831,-22,-290,-2357,1707,522,53,-69,4556,47,43,895,1591,1698,1932,2053,2072,1823,1851,2000
602776,-19620,13272,-19872,12896,134,-98,-2242,1546,564,297,43,4041,28,46,894,1613,1746,1986,2128,2048,1792,1872,2011
603777,-19544,13328,-19807,12961,-81,113,-2182,1350,600,676,303,4053,42,48,895,1613,1746,1986,2128,2048,1792,1872,2011
604778,-19480,13412,-19742,13026,71,-262,-2171,1171,626,409,709,4084,47,49,893,1613,1746,1986,2128,2048,1792,1872,2011
605779,-19428,13472,-19677,13091,237,44,-2190,1087,664,541,1017,4242,31,35,894,1613,1746,1986,2128,2048,1792,1872,2011
606780,-19348,13572,-19612,13156,-132,-498,-2237,1075,713,1082,1257,4255,29,43,894,1613,1746,1986,2128,2048,1792,1872,2011
607781,-19264,13640,-19547,13221,-205,-102,-2287,975,756,999,1185,3853,30,41,887,1613,1746,1986,2128,2048,1792,1872,2011
608782,-19212,13704,-19482,13286,211,-51,-2319,820,768,582,1026,4309,38,35,884,1909,2073,2231,2415,1943,1709,1877,2113
609783,-19136,13776,-19417,13351,-103,-159,-2323,560,766,225,1009,4036,34,51,894,1909,2073,2231,2415,1943,1709,1877,2113
610784,-19100,13852,-19352,13416,433,-224,-2293,288,748,-114,586,4339,30,49,891,1909,2073,2231,2415,1943,1709,1877,2113
611785,-19028,13916,-19287,13481,-26,-73,-2221,25,739,181,173,4835,31,43,893,1909,2073,2231,2415,1943,1709,1877,2113
612786,-18960,13988,-19222,13546,20,-181,-2118,-277,740,-395,51,4805,34,35,895,1909,2073,2231,2415,1943,1709,1877,2113
613787,-18904,14068,-19157,13611,181,-299,-2007,-566,744,-1151,-413,5615,31,50,895,2115,2263,2367,2525,1960,1718,1885,2045
614788,-18816,14136,-19092,13676,-247,-153,-1871,-780,733,-1034,-517,6306,47,40,892,2115,2263,2367,2525,1960,1718,1885,2045
615789,-18772,14196,-19027,13741,328,-47,-1702,-987,739,-726,-725,6416,44,40,893,2115,2263,2367,2525,1960,1718,1885,2045
616790,-18716,14276,-18962,13806,189,-316,-1506,-1185,733,-888,-756,6788,45,41,895,2115,2263,2367,2525,1960,1718,1885,2045
617793,-18632,14364,-18897,13871,-184,-444,-1311,-1354,730,-1266,-734,7061,35,48,893,2115,2263,2367,2525,1960,1718,1885,2045
618792,-18568,14432,-18832,13936,67,-198,-1125,-1509,750,-932,-1085,6841,33,44,884,2115,2263,2367,2525,1960,1718,1885,2045
619793,-18504,14508,-18767,14001,68,-311,-944,-1628,761,-815,-727,7173,29,44,894,2084,2213,2328,2488,2004,1874,1976,2050
620794,-18432,14588,-18702,14066,-40,-380,-787,-1722,751,-1014,-291,6862,38,31,894,2084,2213,2328,2488,2004,1874,1976,2050
621795,-18372,14648,-18637,14131,116,-125,-672,-1804,755,-1202,-246,6394,27,34,893,2084,2213,2328,2488,2004,1874,1976,2050
622796,-18296,14724,-18572,14196,-98,-338,-606,-1865,778,-813,222,6303,30,29,894,2084,2213,2328,2488,2004,1874,1976,2050
623797,-18220,14784,-18507,14261,-112,-132,-580,-1954,827,-983,172,5419,32,34,891,2084,2213,2328,2488,2004,1874,1976,2050
624798,-18168,14832,-18442,14326,204,39,-577,-1991,847,-1297,182,5684,36,30,890,2085,2191,2339,2577,2003,1807,1935,2006
625799,-18108,14888,-18377,14391,110,-50,-611,-2008,837,-969,360,5275,28,37,895,2085,2191,2339,2577,2003,1807,1935,2006
626800,-18060,14920,-18312,14456,281,289,-653,-1999,830,-680,147,4936,30,37,895,2085,2191,2339,2577,2003,1807,1935,2006
627801,-17968,14996,-18247,14521,-302,-274,-711,-1927,806,-696,-27,5029,28,39,893,2085,2191,2339,2577,2003,1807,1935,2006
628802,-17904,15060,-18182,14586,49,-123,-777,-1892,793,-738,-409,4785,35,28,894,2085,2191,2339,2577,2003,1807,1935,2006
629803,-17844,15112,-18117,14651,105,43,-810,-1836,763,-769,-558,5431,32,36,895,2085,2191,2339,2577,2003,1807,1935,2006
630804,-17776,15160,-18052,14716,2,114,-812,-1798,741,-1334,-935,5174,42,32,895,2003,2047,2243,2566,2171,1899,1947,2025
631805,-17720,15204,-17987,14781,162,189,-752,-1788,733,-1265,-1334,5819,32,31,894,2003,2047,2243,2566,2171,1899,1947,2025
632806,-17640,15252,-17922,14846,-157,159,-660,-1796,711,-1343,-1598,5568,38,26,894,2003,2047,2243,2566,2171,1899,1947,2025
633807,-17560,15296,-17857,14911,-175,235,-540,-1778,709,-1549,-1868,5637,46,29,887,2003,2047,2243,2566,2171,1899,1947,2025
634808,-17492,15344,-17792,14976,-29,205,-432,-1746,727,-1370,-2187,5203,37,33,886,2003,2047,2243,2566,2171,1899,1947,2025
635809,-17440,15404,-17727,15041,187,61,-322,-1713,741,-941,-2199,5376,34,28,894,1724,1784,2045,2218,2169,1956,1945,2046
636810,-17376,15448,-17662,15106,38,287,-220,-1622,769,-622,-2181,5147,37,43,894,1724,1784,2045,2218,2169,1956,1945,2046
637811,-17296,15488,-17597,15171,-180,368,-143,-1531,793,-387,-1637,4887,49,39,894,1724,1784,2045,2218,2169,1956,1945,2046
638812,-17220,15572,-17532,15236,-143,-206,-107,-1469,826,-816,-1310,4928,30,30,885,1724,1784,2045,2218,2169,1956,1945,2046
639813,-17164,15644,-17467,15301,118,-65,-132,-1380,887,-705,-1012,4733,34,28,888,1724,1784,2045,2218,2169,1956,1945,2046
640814,-17104,15688,-17402,15366,73,310,-179,-1201,913,551,-521,4584,29,39,895,1724,1784,2045,2218,2169,1956,1945,2046
641815,-17048,15740,-17337,15431,134,226,-260,-1016,902,639,-370,3792,36,44,894,1660,1846,2098,2190,2094,1861,1923,2016
642816,-16984,15792,-17272,15496,35,242,-378,-817,854,380,-268,3896,46,40,894,1660,1846,2098,2190,2094,1861,1923,2016
643817,-16924,15840,-17207,15561,91,313,-507,-594,787,641,-206,3403,47,45,895,1660,1846,2098,2190,2094,1861,1923,2016
644818,-16860,15860,-17142,15626,42,718,-644,-359,727,759,-477,3650,31,41,894,1660,1846,2098,2190,2094,1861,1923,2016
645819,-16816,15900,-17077,15691,318,498,-738,-144,648,904,-321,3751,27,35,892,1660,1846,2098,2190,2094,1861,1923,2016
646820,-16756,15960,-17012,15756,124,254,-797,-10,564,-3,-644,4176,27,33,892,1764,1861,2059,2259,2052,1821,1899,1987
647821,-16688,16020,-16947,15821,20,261,-837,80,488,-299,-844,4207,43,39,894,1764,1861,2059,2259,2052,1821,1899,1987
648822,-16620,16076,-16882,15886,17,321,-864,98,427,-603,-1146,3710,42,39,893,1764,1861,2059,2259,2052,1821,1899,1987
649823,-16584,16160,-16817,15951,451,-53,-882,124,382,-821,-1474,4219,28,38,894,1764,1861,2059,2259,2052,1821,1899,1987
650824,-16532,16220,-16752,16016,267,253,-902,89,378,-1207,-2008,3656,27,50,893,1764,1861,2059,2259,2052,1821,1899,1987
651825,-16480,16304,-16687,16081,283,-70,-912,22,368,-993,-2007,3795,42,50,894,1764,1861,2059,2259,2052,1821,1899,1987
652826,-16420,16384,-16622,16146,189,-38,-923,-32,362,-700,-2190,3627,43,46,894,1789,1844,2068,2256,2072,1852,1896,2004
653827,-16364,16440,-16557,16211,250,273,-914,-47,382,-452,-2288,3984,28,46,895,1789,1844,2068,2256,2072,1852,1896,2004
654828,-16308,16516,-16492,16276,261,10,-891,-49,413,-27,-2286,3978,27,34,893,1789,1844,2068,2256,2072,1852,1896,2004
655829,-16244,16584,-16427,16341,162,106,-858,-15,437,173,-2256,4105,34,40,894,1789,1844,2068,2256,2072,1852,1896,2004
656830,-16216,16656,-16362,16406,657,47,-842,50,467,527,-2258,4093,36,39,894,1789,1844,2068,2256,2072,1852,1896,2004
657831,-16144,16720,-16297,16471,99,149,-829,147,486,1086,-1758,4166,34,46,892,1720,1828,2063,2240,2075,1864,1920,2023
658832,-16100,16796,-16232,16536,474,-15,-830,225,517,1154,-1761,4046,41,44,894,1720,1828,2063,2240,2075,1864,1920,2023
659833,-16044,16828,-16167,16601,335,574,-824,291,520,1483,-1456,4283,32,42,893,1720,1828,2063,2240,2075,1864,1920,2023
660834,-15992,16912,-16102,16666,401,-99,-834,327,507,1597,-1312,3905,43,45,891,1720,1828,2063,2240,2075,1864,1920,2023
661835,-15936,16972,-16037,16731,362,207,-839,319,481,1385,-1024,4290,34,36,893,1720,1828,2063,2240,2075,1864,1920,2023
662836,-15884,17044,-15972,16796,428,49,-837,297,436,1334,-810,4301,35,48,893,1720,1828,2063,2240,2075,1864,1920,2023
663837,-15824,17108,-15907,16861,334,150,-841,253,385,1038,-862,4319,38,47,893,1760,1856,2056,2268,2046,1833,1926,2000
664838,-15772,17176,-15842,16926,450,96,-849,209,309,972,-788,4497,29,31,893,1760,1856,2056,2268,2046,1833,1926,2000
665839,-15720,17232,-15777,16991,466,257,-854,138,229,755,-833,4030,44,34,892,1760,1856,2056,2268,2046,1833,1926,2000
666840,-15668,17292,-15712,17056,481,213,-867,30,140,371,-1019,4245,43,28,892,1760,1856,2056,2268,2046,1833,1926,2000
667842,-15592,17352,-15647,17121,167,220,-870,-53,50,99,-1203,4258,23,38,892,1760,1856,2056,2268,2046,1833,1926,2000
668842,-15544,17408,-15582,17186,538,281,-851,-167,-29,84,-1469,4287,26,33,894,1801,1907,2089,2305,2036,1805,1973,2107
669843,-15488,17448,-15517,17251,449,511,-824,-278,-93,4,-1870,4423,31,25,892,1801,1907,2089,2305,2036,1805,1973,2107
670844,-15456,17496,-15452,17316,789,431,-791,-323,-161,-3,-2025,4668,39,30,891,1801,1907,2089,2305,2036,1805,1973,2107
671845,-15396,17544,-15387,17381,445,452,-765,-314,-200,278,-2376,4594,33,30,889,1801,1907,2089,2305,2036,1805,1973,2107
672846,-15336,17600,-15322,17446,452,363,-737,-315,-203,375,-2579,4532,35,29,891,1801,1907,2089,2305,2036,1805,1973,2107
673847,-15296,17648,-15257,17511,732,483,-690,-296,-187,300,-2638,4847,28,26,891,1801,1907,2089,2305,2036,1805,1973,2107
674848,-15220,17684,-15192,17576,269,669,-633,-234,-180,522,-2636,5176,33,34,889,1836,1978,2157,2334,2040,1800,1912,2034
675849,-15172,17760,-15127,17641,639,155,-590,-189,-158,635,-2948,4772,43,37,891,1836,1978,2157,2334,2040,1800,1912,2034
676850,-15124,17816,-15062,17706,660,416,-548,-117,-154,1039,-2505,5124,37,43,891,1836,1978,2157,2334,2040,1800,1912,2034
677851,-15064,17868,-14997,17771,516,482,-533,-92,-139,901,-2489,4454,29,35,890,1836,1978,2157,2334,2040,1800,1912,2034
678852,-14992,17936,-14932,17836,358,278,-514,-60,-133,928,-2204,4680,32,46,890,1836,1978,2157,2334,2040,1800,1912,2034
679853,-14936,17976,-14867,17901,570,659,-495,-64,-147,1081,-2007,4527,47,43,893,1874,2006,2185,2389,2136,1916,1923,2000
680854,-14884,18036,-14802,17966,636,415,-464,-102,-188,964,-1767,4671,41,39,889,1874,2006,2185,2389,2136,1916,1923,2000
681855,-14812,18104,-14737,18031,377,311,-442,-156,-232,908,-1857,4380,45,42,890,1874,2006,2185,2389,2136,1916,1923,2000
682856,-14744,18172,-14672,18096,423,308,-419,-217,-296,1012,-1516,4508,33,38,891,1874,2006,2185,2389,2136,1916,1923,2000
683857,-14684,18240,-14607,18161,529,304,-397,-292,-351,1014,-1384,4123,48,48,892,1874,2006,2185,2389,2136,1916,1923,2000
684858,-14624,18292,-14542,18226,536,520,-368,-354,-406,1046,-1276,4394,32,39,891,1874,2006,2185,2389,2136,1916,1923,2000
685859,-14556,18356,-14477,18291,432,371,-332,-387,-483,891,-1244,4648,39,33,890,1876,1953,2140,2398,2028,1832,1922,1966
686860,-14480,18412,-14412,18356,319,482,-292,-396,-540,988,-1492,4504,33,37,892,1876,1953,2140,2398,2028,1832,1922,1966
687861,-14420,18480,-14347,18421,525,328,-240,-401,-578,925,-1531,4807,33,46,892,1876,1953,2140,2398,2028,1832,1922,1966
688862,-14356,18548,-14282,18486,476,325,-186,-449,-598,697,-1544,4421,48,45,891,1876,1953,2140,2398,2028,1832,1922,1966
689863,-14276,18608,-14217,18551,258,431,-123,-466,-619,598,-1740,4811,48,37,892,1876,1953,2140,2398,2028,1832,1922,1966
690864,-14216,18660,-14152,18616,514,547,-49,-471,-617,686,-1819,4747,35,36,892,1807,1880,2192,2384,2011,1805,1888,1957
691865,-14152,18728,-14087,18681,465,343,27,-435,-596,730,-1983,4937,35,37,890,1807,1880,2192,2384,2011,1805,1888,1957
692866,-14092,18796,-14022,18746,521,339,98,-379,-563,829,-2047,4708,41,41,891,1807,1880,2192,2384,2011,1805,1888,1957
693867,-14028,18860,-13957,18811,472,391,157,-341,-529,560,-2183,4538,43,36,891,1807,1880,2192,2384,2011,1805,1888,1957
694868,-13972,18916,-13892,18876,583,502,210,-262,-512,650,-2110,4386,46,37,891,1807,1880,2192,2384,2011,1805,1888,1957
695869,-13904,18976,-13827,18941,429,458,231,-108,-481,641,-2163,4568,31,47,890,1787,1899,2098,2302,1995,1774,1868,1964
696870,-13844,19036,-13762,19006,536,464,253,57,-474,977,-2022,4144,32,35,891,1787,1899,2098,2302,1995,1774,1868,1964
697871,-13788,19104,-13697,19071,597,360,257,149,-452,712,-2034,3761,33,39,891,1787,1899,2098,2302,1995,1774,1868,1964
698872,-13724,19168,-13632,19136,498,411,266,168,-446,357,-1767,3942,34,36,891,1787,1899,2098,2302,1995,1774,1868,1964
699873,-13668,19236,-13567,19201,609,358,279,137,-451,34,-1732,3407,31,50,890,1787,1899,2098,2302,1995,1774,1868,1964
700874,-13600,19288,-13368,19400,619,736,287,122,-472,41,-1617,3699,29,50,890,1787,1899,2098,2302,1995,1774,1868,1964
701875,-13552,19364,-13303,19465,889,424,295,101,-496,135,-1442,3505,41,45,888,1890,2012,2138,2342,1990,1769,1864,1949
702876,-13484,19444,-13238,19530,636,355,308,83,-520,295,-1166,3326,43,49,888,1890,2012,2138,2342,1990,1769,1864,1949
703877,-13412,19540,-13173,19595,577,118,318,77,-544,452,-1189,3267,47,39,890,1890,2012,2138,2342,1990,1769,1864,1949
704878,-13360,19588,-13108,19660,843,738,332,106,-586,745,-1032,3441,33,49,892,1890,2012,2138,2342,1990,1769,1864,1949
705879,-13284,19676,-13043,19725,531,210,348,146,-614,917,-1029,3332,45,43,887,1890,2012,2138,2342,1990,1769,1864,1949
706880,-13212,19744,-12978,19790,572,457,375,185,-633,953,-971,3464,52,41,892,1811,1891,2081,2283,1991,1775,1862,1942
707881,-13148,19808,-12913,19855,673,508,416,235,-656,993,-844,3633,48,50,890,1811,1891,2081,2283,1991,1775,1862,1942
708882,-13080,19892,-12848,19920,620,235,463,261,-652,925,-1005,3486,53,37,889,1811,1891,2081,2283,1991,1775,1862,1942
709883,-13028,19968,-12783,19985,836,321,516,248,-634,964,-967,3594,39,42,891,1811,1891,2081,2283,1991,1775,1862,1942
710884,-12948,20052,-12718,20050,467,198,575,229,-593,755,-1008,3457,52,51,889,1811,1891,2081,2283,1991,1775,1862,1942
711885,-12868,20108,-12653,20115,449,559,628,199,-551,657,-993,3565,39,44,892,1811,1891,2081,2283,1991,1775,1862,1942
712886,-12792,20176,-12588,20180,486,405,684,218,-503,730,-978,3602,41,46,891,1732,1809,2007,2201,1975,1765,1838,1921
713887,-12724,20248,-12523,20245,582,347,729,239,-439,746,-991,3567,42,46,891,1732,1809,2007,2201,1975,1765,1838,1921
714888,-12640,20328,-12458,20310,359,229,776,279,-388,774,-974,3625,40,41,891,1732,1809,2007,2201,1975,1765,1838,1921
715889,-12568,20396,-12393,20375,500,375,815,286,-323,595,-988,3394,54,46,892,1732,1809,2007,2201,1975,1765,1838,1921
716890,-12496,20460,-12328,20440,492,426,844,271,-271,311,-933,3392,34,48,890,1732,1809,2007,2201,1975,1765,1838,1921
717891,-12432,20536,-12263,20505,593,263,867,252,-237,226,-885,3167,32,41,891,1719,1815,2023,2218,1965,1749,1825,2022
718892,-12368,20596,-12198,20570,595,469,881,251,-206,233,-931,3301,37,34,891,1719,1815,2023,2218,1965,1749,1825,2022
719893,-12308,20656,-12133,20635,651,475,887,248,-185,346,-795,2980,51,35,890,1719,1815,2023,2218,1965,1749,1825,2022
720894,-12236,20732,-12068,20700,493,261,896,216,-180,196,-682,2828,53,35,890,1719,1815,2023,2218,1965,1749,1825,2022
721895,-12176,20788,-12003,20765,649,522,892,182,-179,66,-610,2768,35,45,892,1719,1815,2023,2218,1965,1749,1825,2022
722896,-12100,20848,-11938,20830,435,479,894,186,-188,193,-544,2851,49,40,890,1719,1815,2023,2218,1965,1749,1825,2022
723897,-12040,20916,-11873,20895,641,375,894,207,-201,332,-577,2814,32,35,891,1785,1888,2095,2283,1984,1755,1842,1955
724898,-11968,20992,-11808,20960,483,261,899,230,-221,422,-550,2810,31,34,890,1785,1888,2095,2283,1984,1755,1842,1955
725899,-11916,21040,-11743,21025,749,632,907,291,-237,539,-429,2968,31,37,892,1785,1888,2095,2283,1984,1755,1842,1955
726900,-11844,21116,-11678,21090,490,269,926,333,-229,554,-310,3043,44,39,888,1785,1888,2095,2283,1984,1755,1842,1955
727901,-11780,21184,-11613,21155,591,365,948,375,-219,654,-256,3168,43,31,892,1785,1888,2095,2283,1984,1755,1842,1955
728902,-11716,21228,-11548,21220,593,691,981,413,-207,505,-368,3395,46,28,891,1798,1894,2090,2258,1992,1865,1902,1957
729903,-11636,21288,-11483,21285,374,497,1018,447,-178,471,-399,3596,31,36,889,1798,1894,2090,2258,1992,1865,1902,1957
730904,-11592,21352,-11418,21350,850,448,1060,467,-145,460,-282,3529,46,42,891,1798,1894,2090,2258,1992,1865,1902,1957
731905,-11536,21408,-11353,21415,711,559,1093,483,-112,406,-215,3603,43,32,888,1798,1894,2090,2258,1992,1865,1902,1957
732906,-11476,21456,-11288,21480,667,680,1128,452,-62,298,-193,3483,30,40,888,1798,1894,2090,2258,1992,1865,1902,1957
733907,-11428,21520,-11223,21545,838,481,1149,408,-6,123,-185,3576,33,42,887,1798,1894,2090,2258,1992,1865,1902,1957
734908,-11348,21576,-11158,21610,420,592,1178,379,46,279,-134,3563,42,38,888,1747,1838,2043,2222,1985,1770,1839,1936
735909,-11272,21632,-11093,21675,457,603,1203,359,103,402,-150,3532,38,28,890,1747,1838,2043,2222,1985,1770,1839,1936
736910,-11208,21688,-11028,21740,608,614,1236,347,155,344,-81,3658,52,34,890,1747,1838,2043,2222,1985,1770,1839,1936
737911,-11140,21716,-10963,21805,555,1009,1263,342,193,287,-4,3688,37,30,889,1747,1838,2043,2222,1985,1770,1839,1936
738912,-11076,21780,-10898,21870,606,560,1289,335,214,441,78,3620,46,38,887,1747,1838,2043,2222,1985,1770,1839,1936
739913,-11004,21836,-10833,21935,497,671,1309,325,246,490,97,3490,46,37,889,1742,1830,2051,2327,2095,1800,1857,1960
740914,-10936,21908,-10768,22000,544,463,1319,320,275,415,158,3476,44,39,889,1742,1830,2051,2327,2095,1800,1857,1960
741915,-10872,21952,-10703,22065,595,838,1341,315,285,442,70,3448,36,30,890,1742,1830,2051,2327,2095,1800,1857,1960
742916,-10804,21988,-10638,22130,541,974,1354,317,299,348,58,3503,36,25,887,1742,1830,2051,2327,2095,1800,1857,1960
743917,-10748,22052,-10573,22195,702,625,1376,330,299,369,134,3533,44,37,887,1742,1830,2051,2327,2095,1800,1857,1960
744918,-10672,22104,-10508,22260,439,791,1382,340,298,336,174,3437,49,32,888,1742,1830,2051,2327,2095,1800,1857,1960
745919,-10608,22156,-10443,22325,590,807,1396,349,294,418,174,3688,33,35,888,1784,1876,2106,2290,2032,1806,1872,1989
746920,-10552,22220,-10378,22390,701,658,1407,370,303,404,130,3703,30,25,888,1784,1876,2106,2290,2032,1806,1872,1989
747921,-10472,22268,-10313,22455,383,879,1419,369,308,388,215,3743,36,31,888,1784,1876,2106,2290,2032,1806,1872,1989
748922,-10416,22344,-10248,22520,694,515,1425,395,313,363,163,3788,29,29,888,1784,1876,2106,2290,2032,1806,1872,1989
749923,-10360,22416,-10183,22585,705,557,1430,407,318,373,238,3908,44,41,889,1784,1876,2106,2290,2032,1806,1872,1989
750924,-10296,22492,-10118,22650,607,493,1438,424,339,281,230,3830,47,33,887,1803,1989,2221,2297,2035,1802,1870,1996
751925,-10252,22536,-10053,22715,882,919,1427,421,368,8,136,3939,32,44,889,1803,1989,2221,2297,2035,1802,1870,1996
752926,-10184,22576,-9988,22780,579,1000,1433,438,395,126,303,3919,48,33,885,1803,1989,2221,2297,2035,1802,1870,1996
753927,-10124,22632,-9923,22845,685,811,1434,444,431,222,223,4056,42,43,886,1803,1989,2221,2297,2035,1802,1870,1996
754928,-10064,22696,-9858,22910,691,712,1448,444,476,64,5,4208,42,39,887,1803,1989,2221,2297,2035,1802,1870,1996
755929,-10012,22780,-9793,22975,807,440,1501,462,475,394,267,4589,31,31,888,1803,1989,2221,2297,2035,1802,1870,1996
756930,-9944,22840,-9728,23040,603,746,1526,453,483,617,374,4346,36,33,888,1784,1890,2108,2268,2044,1814,1880,2002
757931,-9876,22912,-9663,23105,600,587,1532,444,470,510,784,4293,38,32,888,1784,1890,2108,2268,2044,1814,1880,2002
758932,-9828,22972,-9598,23170,870,743,1502,341,467,245,883,4020,48,43,889,1784,1890,2108,2268,2044,1814,1880,2002
759933,-9764,23044,-9533,23235,671,585,1463,243,468,28,1007,4332,50,42,886,1784,1890,2108,2268,2044,1814,1880,2002
760934,-9700,23104,-9468,23300,673,741,1417,159,453,291,1080,4346,34,33,889,1784,1890,2108,2268,2044,1814,1880,2002
761935,-9640,23164,-9403,23365,729,747,1397,112,429,544,803,4644,42,30,887,1824,1888,2104,2276,2078,1857,1919,2051
762936,-9564,23224,-9338,23430,515,753,1399,111,379,847,760,4701,45,41,887,1824,1888,2104,2276,2078,1857,1919,2051
763937,-9508,23300,-9273,23495,777,540,1398,93,333,1352,682,4731,33,34,888,1824,1888,2104,2276,2078,1857,1919,2051
764938,-9448,23352,-9208,23560,733,855,1354,41,303,1526,964,4184,39,30,888,1824,1888,2104,2276,2078,1857,1919,2051
765939,-9384,23400,-9143,23625,685,926,1276,-6,277,831,1253,3857,49,43,886,1824,1888,2104,2276,2078,1857,1919,2051
766940,-9312,23468,-9078,23690,576,672,1204,-13,251,221,853,4324,33,32,886,1824,1888,2104,2276,2078,1857,1919,2051
767941,-9268,23548,-9013,23755,952,504,1156,6,242,765,521,4534,51,40,887,1788,1898,2143,2294,2166,1932,1974,2138
768942,-9216,23624,-8948,23820,868,542,1147,33,233,1032,583,4498,44,33,887,1788,1898,2143,2294,2166,1932,1974,2138
769943,-9144,23684,-8883,23885,609,748,1148,27,235,429,423,4651,49,50,887,1788,1898,2143,2294,2166,1932,1974,2138
770944,-9076,23740,-8818,23950,655,809,1157,20,241,-75,333,4695,37,34,887,1788,1898,2143,2294,2166,1932,1974,2138
771945,-9032,23808,-8753,24015,981,655,1164,-26,248,97,578,4573,47,42,887,1788,1898,2143,2294,2166,1932,1974,2138
772946,-8976,23876,-8688,24080,842,652,1141,-53,239,-38,743,4598,28,45,885,1753,1880,2137,2258,2218,1957,1981,2148
773947,-8916,23944,-8623,24145,798,648,1105,-83,220,-221,704,4543,40,49,887,1753,1880,2137,2258,2218,1957,1981,2148
774948,-8836,24024,-8558,24210,531,480,1046,-105,195,-182,923,4665,37,48,887,1753,1880,2137,2258,2218,1957,1981,2148
775949,-8796,24104,-8493,24275,1061,461,986,-130,156,-136,1145,4587,50,38,890,1753,1880,2137,2258,2218,1957,1981,2148
776950,-8740,24152,-8428,24340,872,882,916,-145,121,-168,1136,4491,32,48,887,1753,1880,2137,2258,2218,1957,1981,2148
777951,-8684,24248,-8363,24405,883,244,870,-128,89,75,1181,4783,33,39,885,1753,1880,2137,2258,2218,1957,1981,2148
778952,-8616,24312,-8298,24470,730,645,818,-87,49,347,1318,4706,35,48,888,1738,1863,2116,2250,2180,1928,2012,2197
779953,-8548,24392,-8233,24535,726,427,772,-34,-13,340,1369,4788,31,35,888,1738,1863,2116,2250,2180,1928,2012,2197
780954,-8496,24436,-8168,24600,942,903,713,-11,-85,127,1285,4734,47,43,889,1738,1863,2116,2250,2180,1928,2012,2197
781955,-8416,24512,-8103,24665,574,489,656,33,-156,241,1289,4736,50,33,884,1738,1863,2116,2250,2180,1928,2012,2197
782956,-8356,24572,-8038,24730,831,695,604,51,-209,464,1250,4399,47,44,889,1738,1863,2116,2250,2180,1928,2012,2197
783957,-8308,24636,-7973,24795,1001,647,548,73,-238,532,1085,4498,42,44,887,1737,1843,2096,2254,2141,1912,1938,2065
784958,-8256,24708,-7908,24860,967,539,499,92,-250,683,1055,4285,34,51,885,1737,1843,2096,2254,2141,1912,1938,2065
785959,-8188,24784,-7843,24925,764,476,440,124,-253,576,1072,4322,52,50,886,1737,1843,2096,2254,2141,1912,1938,2065
786960,-8120,24836,-7778,24990,760,791,399,166,-269,466,993,4198,51,50,888,1737,1843,2096,2254,2141,1912,1938,2065
787961,-8068,24924,-7713,25055,976,313,361,177,-263,232,818,4005,38,43,887,1737,1843,2096,2254,2141,1912,1938,2065
788962,-8000,24988,-7648,25120,772,615,336,189,-259,165,634,4144,40,35,887,1737,1843,2096,2254,2141,1912,1938,2065
789963,-7948,25048,-7583,25185,988,671,328,218,-238,84,293,3838,32,37,887,1738,1836,2103,2268,2220,2004,1948,2052
790964,-7888,25124,-7518,25250,895,457,352,233,-220,179,225,3911,48,35,886,1738,1836,2103,2268,2220,2004,1948,2052
791965,-7844,25188,-7453,25315,1121,609,371,227,-167,225,91,3678,49,45,888,1738,1836,2103,2268,2220,2004,1948,2052
792966,-7784,25264,-7388,25380,927,445,374,217,-109,360,482,3612,45,36,885,1738,1836,2103,2268,2220,2004,1948,2052
793967,-7708,25332,-7323,25445,713,541,372,249,-61,-155,761,3842,38,45,887,1738,1836,2103,2268,2220,2004,1948,2052
794968,-7656,25412,-7258,25510,1029,373,380,276,-40,-378,669,3727,46,46,889,1736,1834,2095,2260,2078,1847,1881,1991
795969,-7588,25468,-7193,25575,826,684,381,281,-28,30,784,3910,30,48,887,1736,1834,2095,2260,2078,1847,1881,1991
796970,-7536,25536,-7128,25640,1042,530,367,255,-2,-68,1109,3591,32,35,887,1736,1834,2095,2260,2078,1847,1881,1991
797971,-7484,25596,-7063,25705,1058,637,327,256,9,-281,1268,3656,42,45,886,1736,1834,2095,2260,2078,1847,1881,1991
798972,-7424,25676,-6998,25770,965,368,287,291,-15,33,1273,3828,31,40,885,1736,1834,2095,2260,2078,1847,1881,1991
799973,-7352,25744,-6933,25835,806,515,250,322,-60,400,1133,3469,34,36,887,1736,1834,2095,2260,2078,1847,1881,1991
800974,-7300,25808,-6868,25900,1072,566,222,373,-118,433,1253,3920,51,45,888,1766,1862,2173,2328,2060,1779,1845,1960
801975,-7260,25872,-6803,25965,1252,567,188,455,-175,355,1205,3740,47,35,884,1766,1862,2173,2328,2060,1779,1845,1960
802976,-7204,25936,-6738,26030,1063,568,172,526,-221,549,1049,3657,48,36,884,1766,1862,2173,2328,2060,1779,1845,1960
803977,-7112,25980,-6673,26095,581,844,170,599,-259,564,865,3832,39,35,885,1766,1862,2173,2328,2060,1779,1845,1960
804978,-7060,26040,-6608,26160,1097,650,202,691,-278,115,561,3871,37,39,887,1766,1862,2173,2328,2060,1779,1845,1960
805979,-6988,26116,-6543,26225,839,437,250,807,-293,999,567,4348,51,42,884,1777,1868,2091,2253,2017,1797,1855,1977
806980,-6920,26152,-6478,26290,885,972,296,838,-259,813,339,3683,35,47,888,1777,1868,2091,2253,2017,1797,1855,1977
807981,-6852,26216,-6413,26355,881,623,344,828,-205,-549,443,3614,35,40,885,1777,1868,2091,2253,2017,1797,1855,1977
808982,-6788,26272,-6348,26420,933,735,410,790,-170,-688,473,4125,36,33,886,1777,1868,2091,2253,2017,1797,1855,1977
809983,-6728,26348,-6283,26485,990,472,443,743,-93,-439,334,3366,46,33,885,1777,1868,2091,2253,2017,1797,1855,1977
810984,-6680,26404,-6218,26550,1160,733,478,662,-34,-270,637,3433,48,46,886,1777,1868,2091,2253,2017,1797,1855,1977
811985,-6604,26460,-6153,26615,797,744,485,574,28,-585,611,3370,44,32,884,1806,1948,2196,2312,2024,1824,1868,1964
812986,-6552,26528,-6088,26680,1113,590,481,489,95,-657,682,3292,40,48,886,1806,1948,2196,2312,2024,1824,1868,1964
813987,-6504,26596,-6023,26745,1184,586,481,432,140,-499,885,3253,48,33,885,1806,1948,2196,2312,2024,1824,1868,1964
814988,-6432,26648,-5958,26810,875,802,472,374,195,-270,677,3221,45,33,884,1806,1948,2196,2312,2024,1824,1868,1964
815989,-6376,26708,-5893,26875,1087,708,479,367,239,182,965,3589,51,35,885,1806,1948,2196,2312,2024,1824,1868,1964
816990,-6316,26772,-5828,26940,1043,660,480,394,257,297,1001,3534,36,31,884,1815,1901,2142,2335,2012,1810,1864,1968
817991,-6264,26832,-5763,27005,1159,716,487,437,254,540,981,3761,48,49,885,1815,1901,2142,2335,2012,1810,1864,1968
818992,-6208,26896,-5698,27070,1120,667,502,492,240,779,980,3813,33,41,882,1815,1901,2142,2335,2012,1810,1864,1968
819993,-6136,26964,-5633,27135,912,613,523,546,212,652,941,3941,37,44,884,1815,1901,2142,2335,2012,1810,1864,1968
820994,-6080,27012,-5568,27200,1124,884,553,588,164,469,703,4097,52,45,886,1815,1901,2142,2335,2012,1810,1864,1968
821995,-6024,27100,-5503,27265,1134,356,581,613,124,557,758,4190,33,49,883,1815,1901,2142,2335,2012,1810,1864,1968
822996,-5948,27152,-5438,27330,871,822,633,608,87,440,846,4146,33,50,885,1851,1880,2107,2272,2013,1792,1851,1971
823997,-5900,27228,-5373,27395,1242,508,659,563,34,-120,895,4167,50,50,885,1851,1880,2107,2272,2013,1792,1851,1971
824998,-5836,27284,-5308,27460,1043,769,691,527,-14,-392,851,4105,43,45,884,1851,1880,2107,2272,2013,1792,1851,1971
825999,-5776,27364,-5243,27525,1100,452,704,458,-29,-444,817,3945,40,40,884,1851,1880,2107,2272,2013,1792,1851,1971
827000,-5720,27428,-5178,27590,1161,653,720,400,-36,-536,872,3930,41,45,885,1851,1880,2107,2272,2013,1792,1851,1971
828001,-5632,27488,-5113,27655,733,709,721,338,-36,-732,839,3845,34,36,884,1777,1877,2108,2270,2027,1803,1871,2027
829002,-5588,27556,-5048,27720,1309,606,728,288,-9,-673,767,3873,49,39,887,1777,1877,2108,2270,2027,1803,1871,2027
830003,-5516,27608,-4983,27785,950,822,724,268,40,-631,804,3857,30,40,883,1777,1877,2108,2270,2027,1803,1871,2027
831004,-5456,27668,-4918,27850,1107,728,704,242,89,-556,748,3607,30,32,884,1777,1877,2108,2270,2027,1803,1871,2027
832005,-5400,27724,-4853,27915,1168,789,694,239,149,-495,546,3743,40,31,883,1777,1877,2108,2270,2027,1803,1871,2027
833006,-5348,27780,-4788,27980,1234,800,671,241,213,-179,716,3699,31,42,883,1777,1877,2108,2270,2027,1803,1871,2027
834007,-5276,27856,-4723,28045,976,536,661,254,277,-197,547,3678,32,32,882,1800,1917,2148,2311,2063,1846,1908,2038
835008,-5212,27908,-4658,28110,1077,852,651,255,327,28,709,3779,40,33,885,1800,1917,2148,2311,2063,1846,1908,2038
836009,-5160,27972,-4593,28175,1244,703,642,251,354,62,807,3667,43,40,883,1800,1917,2148,2311,2063,1846,1908,2038
837010,-5084,28036,-4528,28240,930,705,628,222,371,-33,640,3742,34,46,882,1800,1917,2148,2311,2063,1846,1908,2038
838011,-5040,28116,-4463,28305,1356,486,621,177,375,116,635,3948,36,48,885,1800,1917,2148,2311,2063,1846,1908,2038
839012,-4980,28172,-4398,28370,1162,797,616,115,362,185,705,3709,39,31,883,1797,1889,2132,2295,2095,1875,1965,2125
840013,-4936,28204,-4333,28435,1388,1138,607,37,329,26,733,3804,50,33,882,1797,1889,2132,2295,2095,1875,1965,2125
841014,-4868,28280,-4268,28500,1085,575,595,-28,303,36,694,3942,39,46,879,1797,1889,2132,2295,2095,1875,1965,2125
842015,-4792,28340,-4203,28565,971,781,590,-80,255,253,907,4108,51,50,883,1797,1889,2132,2295,2095,1875,1965,2125
843018,-4736,28408,-4138,28630,1232,677,587,-144,207,106,634,3954,34,40,885,1797,1889,2132,2295,2095,1875,1965,2125
844017,-4680,28480,-4073,28695,1243,619,581,-181,154,-20,765,4206,37,50,883,1797,1889,2132,2295,2095,1875,1965,2125
845018,-4624,28556,-4008,28760,1255,556,573,-197,118,16,891,4079,44,48,883,1757,1836,2085,2242,2099,1870,1907,2035
846019,-4568,28624,-3943,28825,1266,652,561,-197,93,180,797,4207,41,45,884,1757,1836,2085,2242,2099,1870,1907,2035
847020,-4508,28676,-3878,28890,1223,868,546,-199,74,-31,1008,4100,40,52,883,1757,1836,2085,2242,2099,1870,1907,2035
848021,-4456,28748,-3813,28955,1338,609,521,-193,74,-431,1065,4232,34,49,882,1757,1836,2085,2242,2099,1870,1907,2035
849022,-4388,28820,-3748,29020,1135,601,503,-164,95,-453,826,4158,53,51,882,1757,1836,2085,2242,2099,1870,1907,2035
850023,-4308,28888,-3683,29085,967,647,481,-150,131,-308,813,4017,37,38,883,1737,1844,2086,2239,2175,1953,1907,2039
851024,-4256,28952,-3618,29150,1333,698,449,-157,174,-537,891,4117,44,45,885,1737,1844,2086,2239,2175,1953,1907,2039
852025,-4176,29024,-3553,29215,965,590,399,-145,223,-558,862,4037,33,51,882,1737,1844,2086,2239,2175,1953,1907,2039
853026,-4128,29088,-3488,29280,1386,691,367,-128,266,-503,830,4001,48,34,883,1737,1844,2086,2239,2175,1953,1907,2039
854027,-4060,29152,-3423,29345,1133,693,338,-98,314,-560,737,3882,50,51,881,1737,1844,2086,2239,2175,1953,1907,2039
855028,-4024,29208,-3358,29410,1568,804,314,-65,356,-380,631,4093,38,50,882,1737,1844,2086,2239,2175,1953,1907,2039
856029,-3968,29268,-3293,29475,1329,760,284,-53,393,-405,549,3770,41,51,879,1762,1879,2127,2285,2106,1881,1922,2053
857030,-3908,29328,-3228,29540,1286,766,270,-55,403,-213,706,3990,37,40,881,1762,1879,2127,2285,2106,1881,1922,2053
858031,-3840,29408,-3163,29605,1183,498,242,-46,394,-134,644,3909,34,42,882,1762,1879,2127,2285,2106,1881,1922,2053
859032,-3768,29476,-3098,29670,1124,644,233,-46,367,125,871,4056,33,45,884,1762,1879,2127,2285,2106,1881,1922,2053
860033,-3716,29544,-3033,29735,1390,641,221,-51,316,99,894,4062,33,40,884,1762,1879,2127,2285,2106,1881,1922,2053
861034,-3648,29624,-2968,29800,1187,472,204,-47,274,18,690,4283,42,52,882,1784,1877,2237,2387,2107,1887,1914,2031
862035,-3616,29680,-2903,29865,1678,783,189,-44,239,312,760,4225,38,41,883,1784,1877,2237,2387,2107,1887,1914,2031
863036,-3584,29728,-2838,29930,1718,904,169,-41,214,321,963,4191,38,53,879,1784,1877,2237,2387,2107,1887,1914,2031
864037,-3500,29812,-2773,29995,1045,431,153,-20,184,321,1000,4247,35,51,876,1784,1877,2237,2387,2107,1887,1914,2031
865038,-3456,29876,-2708,30060,1572,682,137,-3,145,351,1036,4214,40,37,884,1784,1877,2237,2387,2107,1887,1914,2031
866039,-3404,29944,-2643,30125,1487,628,120,23,119,383,1072,4228,46,55,880,1784,1877,2237,2387,2107,1887,1914,2031
867040,-3344,30012,-2578,30190,1394,625,97,60,110,333,1030,4283,44,39,880,1779,1856,2121,2298,2089,1878,1907,2016
868041,-3304,30080,-2513,30255,1674,622,74,75,124,190,966,4107,41,38,881,1779,1856,2121,2298,2089,1878,1907,2016
869042,-3240,30148,-2448,30320,1376,618,50,121,132,263,1234,4277,33,41,879,1779,1856,2121,2298,2089,1878,1907,2016
870043,-3168,30212,-2383,30385,1268,670,34,169,158,89,1188,4139,52,43,880,1779,1856,2121,2298,2089,1878,1907,2016
871044,-3132,30296,-2318,30450,1753,396,28,200,179,-25,1213,4192,33,50,882,1779,1856,2121,2298,2089,1878,1907,2016
872045,-3060,30340,-2253,30515,1296,922,20,229,222,-246,1154,4219,50,55,880,1807,1933,2111,2287,2086,1871,1910,2024
873046,-2984,30408,-2188,30580,1232,618,14,254,261,-243,1124,4214,41,41,880,1807,1933,2111,2287,2086,1871,1910,2024
874047,-2932,30484,-2123,30645,1548,505,14,276,290,-363,1119,4280,44,39,882,1807,1933,2111,2287,2086,1871,1910,2024
875048,-2872,30548,-2058,30710,1454,656,28,297,312,-294,1040,4231,55,48,881,1807,1933,2111,2287,2086,1871,1910,2024
876049,-2800,30628,-1993,30775,1297,438,36,320,332,-327,1016,4220,54,53,881,1807,1933,2111,2287,2086,1871,1910,2024
877050,-2720,30696,-1928,30840,1178,584,53,350,330,-98,841,4129,57,39,883,1807,1933,2111,2287,2086,1871,1910,2024
878051,-2664,30748,-1863,30905,1489,800,67,382,321,87,960,4225,45,40,884,1762,1868,2128,2298,2089,1867,1900,2020
879052,-2604,30820,-1798,30970,1446,542,84,425,305,102,1072,4103,40,48,880,1762,1868,2128,2298,2089,1867,1900,2020
880053,-2520,30888,-1733,31035,1123,588,93,465,291,150,925,4298,36,41,880,1762,1868,2128,2298,2089,1867,1900,2020
881054,-2456,30964,-1668,31100,1374,475,103,517,258,291,1191,4164,43,39,884,1762,1868,2128,2298,2089,1867,1900,2020
882055,-2412,31032,-1603,31165,1651,571,104,563,231,349,1245,4121,49,51,883,1762,1868,2128,2298,2089,1867,1900,2020
883056,-2332,31112,-1538,31230,1183,403,96,591,198,365,1197,3971,45,51,881,1802,1898,2162,2342,2060,1844,1881,1989
884057,-2288,31156,-1473,31295,1658,878,75,621,163,493,1290,3975,50,44,882,1802,1898,2162,2342,2060,1844,1881,1989
885058,-2232,31240,-1408,31360,1520,356,58,644,121,560,1355,3865,32,45,880,1802,1898,2162,2342,2060,1844,1881,1989
886059,-2160,31292,-1343,31425,1312,772,38,650,94,549,1380,3797,51,53,879,1802,1898,2162,2342,2060,1844,1881,1989
887060,-2096,31364,-1278,31490,1413,513,17,661,63,396,1397,3825,40,48,881,1802,1898,2162,2342,2060,1844,1881,1989
888061,-2052,31428,-1213,31555,1689,615,-4,668,41,419,1303,3781,34,55,881,1802,1898,2162,2342,2060,1844,1881,1989
889062,-1992,31516,-1148,31620,1496,286,-21,685,42,450,1328,3764,32,43,880,1824,1902,2160,2347,2030,1830,1871,2063
890063,-1920,31560,-1083,31685,1337,862,-34,674,66,420,1304,3750,54,38,880,1824,1902,2160,2347,2030,1830,1871,2063
891064,-1860,31620,-1018,31750,1493,668,-35,658,82,237,1393,3805,38,51,881,1824,1902,2160,2347,2030,1830,1871,2063
892065,-1792,31704,-953,31815,1391,345,15,620,135,88,1336,3941,38,52,880,1824,1902,2160,2347,2030,1830,1871,2063
893067,-1724,31768,-888,31880,1387,596,37,607,174,220,1191,3810,37,49,882,1824,1902,2160,2347,2030,1830,1871,2063
894067,-1656,31836,-823,31945,1383,543,65,591,203,216,1372,3862,54,40,882,1775,1864,2116,2284,2044,1840,1876,1996
895068,-1604,31892,-758,32010,1600,704,80,580,222,56,1253,3848,54,39,882,1775,1864,2116,2284,2044,1840,1876,1996
896069,-1520,31956,-693,32075,1177,605,113,564,229,220,1248,3801,51,42,880,1775,1864,2116,2284,2044,1840,1876,1996
897070,-1444,32024,-628,32140,1264,551,142,541,216,143,1343,3745,52,40,881,1775,1864,2116,2284,2044,1840,1876,1996
898071,-1400,32072,-563,32205,1690,822,169,530,192,170,1148,3744,34,53,883,1775,1864,2116,2284,2044,1840,1876,1996
899072,-1320,32136,-498,32270,1222,623,176,530,172,253,1370,3672,36,51,880,1775,1864,2116,2284,2044,1840,1876,1996
900073,-1256,32208,-433,32335,1423,515,170,566,143,370,1385,3754,46,40,880,1743,1847,2099,2253,2059,1927,1935,2007
901074,-1184,32280,-368,32400,1316,506,152,634,112,793,1355,3742,42,51,883,1743,1847,2099,2253,2059,1927,1935,2007
902075,-1116,32340,-303,32465,1362,662,134,649,98,655,1494,3659,53,50,882,1743,1847,2099,2253,2059,1927,1935,2007
903076,-1048,32408,-238,32530,1358,558,101,641,87,207,1430,3634,51,51,882,1743,1847,2099,2253,2059,1927,1935,2007
904077,-996,32472,-173,32595,1574,610,75,619,41,197,1391,3498,54,52,880,1743,1847,2099,2253,2059,1927,1935,2007
905078,-920,32548,-108,32660,1262,446,41,595,-6,442,1475,3531,52,43,881,1772,1876,2124,2284,2046,1822,1872,1996
906079,-864,32620,-43,32725,1523,488,-3,579,-38,335,1517,3360,36,46,881,1772,1876,2124,2284,2046,1822,1872,1996
907080,-788,32668,22,32790,1259,808,-41,534,-64,59,1591,3379,38,54,882,1772,1876,2124,2284,2046,1822,1872,1996
908081,-728,32748,87,32855,1466,390,-79,493,-90,-58,1499,3378,55,49,881,1772,1876,2124,2284,2046,1822,1872,1996
909082,-644,32808,152,32920,1143,647,-103,463,-96,189,1299,3574,39,43,882,1772,1876,2124,2284,2046,1822,1872,1996
910083,-584,32876,217,32985,1449,544,-119,466,-98,496,1271,3602,41,53,883,1772,1876,2124,2284,2046,1822,1872,1996
911084,-516,32956,282,33050,1347,375,-127,448,-91,450,1090,3730,40,51,882,1779,1873,2126,2353,2157,1846,1884,2013
912085,-456,33012,347,33115,1453,686,-136,460,-87,283,1149,3540,55,52,882,1779,1873,2126,2353,2157,1846,1884,2013
913086,-384,33088,412,33180,1294,423,-144,439,-90,388,1294,3553,43,54,882,1779,1873,2126,2353,2157,1846,1884,2013
914087,-300,33160,477,33245,1122,464,-156,470,-104,520,1203,3607,39,41,882,1779,1873,2126,2353,2157,1846,1884,2013
915088,-224,33228,542,33310,1209,511,-181,486,-110,651,1273,3506,56,41,885,1779,1873,2126,2353,2157,1846,1884,2013
916089,-152,33296,607,33375,1250,507,-193,509,-108,603,1487,3599,46,54,884,1737,1835,2095,2245,2091,1874,1902,2031
917090,-68,33360,672,33440,1077,558,-219,513,-97,492,1485,3397,45,55,884,1737,1835,2095,2245,2091,1874,1902,2031
918091,32,33424,737,33505,835,559,-243,500,-95,262,1361,3475,42,55,884,1737,1835,2095,2245,2091,1874,1902,2031
919092,104,33500,802,33570,1177,396,-278,531,-99,-23,1201,3680,43,51,886,1737,1835,2095,2245,2091,1874,1902,2031
920093,188,33564,867,33635,1003,547,-305,578,-114,-145,1284,3742,49,53,886,1737,1835,2095,2245,2091,1874,1902,2031
921094,280,33648,932,33700,870,274,-321,612,-132,-347,1151,3606,53,58,884,1708,1880,2172,2223,2088,1868,1892,2013
922095,356,33720,997,33765,1058,415,-351,653,-140,-600,775,4049,55,42,887,1708,1880,2172,2223,2088,1868,1892,2013
923096,416,33796,1062,33830,1264,352,-401,730,-148,-69,992,3941,40,43,887,1708,1880,2172,2223,2088,1868,1892,2013
924097,500,33884,1127,33895,941,174,-445,745,-171,348,1253,3630,39,54,886,1708,1880,2172,2223,2088,1868,1892,2013
925098,592,33956,1192,33960,808,365,-490,707,-227,-180,1434,3596,59,50,887,1708,1880,2172,2223,2088,1868,1892,2013
926099,652,34024,1257,34025,1215,412,-535,679,-280,-610,1246,3474,55,46,888,1708,1880,2172,2223,2088,1868,1892,2013
927100,736,34076,1322,34090,892,628,-583,662,-310,-135,999,3531,53,46,886,1710,1806,2071,2236,2090,1872,1898,2020
928101,804,34152,1387,34155,1088,314,-635,671,-343,301,1189,3432,41,48,886,1710,1806,2071,2236,2090,1872,1898,2020
929102,884,34236,1452,34220,920,191,-675,658,-388,170,1251,3330,47,56,886,1710,1806,2071,2236,2090,1872,1898,2020
930103,976,34320,1517,34285,738,168,-708,619,-437,-294,1247,3040,45,56,887,1710,1806,2071,2236,2090,1872,1898,2020
931104,1044,34408,1582,34350,1034,90,-737,633,-472,-227,998,3514,46,48,889,1710,1806,2071,2236,2090,1872,1898,2020
932105,1112,34460,1647,34415,1031,556,-770,688,-482,474,1031,3414,43,43,889,1777,1821,2088,2244,2114,1886,1915,2053
933106,1216,34524,1712,34480,533,407,-787,731,-493,535,933,3358,61,44,887,1777,1821,2088,2244,2114,1886,1915,2053
934107,1292,34588,1777,34545,870,408,-813,769,-500,225,887,3543,55,38,886,1777,1821,2088,2244,2114,1886,1915,2053
935108,1388,34680,1842,34610,583,25,-820,782,-506,83,988,3318,52,45,890,1777,1821,2088,2244,2114,1886,1915,2053
936109,1448,34736,1907,34675,1039,486,-840,802,-492,-9,754,3598,59,44,888,1777,1821,2088,2244,2114,1886,1915,2053
937110,1536,34796,1972,34740,661,442,-868,808,-455,-58,819,3494,57,50,892,1777,1821,2088,2244,2114,1886,1915,2053
938111,1612,34868,2037,34805,797,284,-878,796,-459,146,1138,3626,59,44,885,1723,1827,2086,2228,2098,1864,1900,2032
939112,1704,34932,2102,34870,564,385,-903,746,-446,-387,959,3241,41,36,889,1723,1827,2086,2228,2098,1864,1900,2032
940113,1788,34980,2167,34935,641,606,-931,683,-421,-579,928,3631,52,46,889,1723,1827,2086,2228,2098,1864,1900,2032
941114,1884,35068,2232,35000,453,77,-963,633,-406,-359,986,3396,57,35,891,1723,1827,2086,2228,2098,1864,1900,2032
942115,1956,35108,2297,35065,746,708,-985,560,-421,-266,1092,3399,40,44,888,1723,1827,2086,2228,2098,1864,1900,2032
943116,2056,35164,2362,35130,353,519,-1020,506,-453,-253,1059,3478,40,50,892,1718,1824,2068,2221,2052,1825,1871,1996
944117,2128,35244,2427,35195,694,201,-1059,451,-464,-317,977,3416,38,47,887,1718,1824,2068,2221,2052,1825,1871,1996
945118,2208,35288,2492,35260,576,676,-1103,411,-485,-115,1127,3418,35,43,891,1718,1824,2068,2221,2052,1825,1871,1996
946119,2304,35360,2557,35325,338,318,-1138,369,-520,-20,926,3247,42,46,891,1718,1824,2068,2221,2052,1825,1871,1996
947120,2360,35424,2622,35390,849,419,-1173,334,-546,24,852,3467,39,48,888,1718,1824,2068,2221,2052,1825,1871,1996
948121,2448,35500,2687,35455,421,256,-1201,311,-568,41,884,3398,48,41,892,1718,1824,2068,2221,2052,1825,1871,1996
949122,2524,35568,2752,35520,558,352,-1212,304,-613,200,1026,3572,56,38,888,1733,1831,2071,2226,2044,1816,1924,2093
950123,2592,35640,2817,35585,654,293,-1221,264,-640,49,749,3331,43,46,892,1733,1831,2071,2226,2044,1816,1924,2093
951124,2660,35708,3016,35784,814,502,-1216,241,-658,-30,688,3456,38,39,891,1733,1831,2071,2226,2044,1816,1924,2093
952125,2732,35760,3081,35849,757,719,-1207,218,-674,-1,789,3292,55,42,890,1733,1831,2071,2226,2044,1816,1924,2093
953126,2812,35844,3146,35914,638,296,-1182,194,-687,84,819,3409,45,54,888,1733,1831,2071,2226,2044,1816,1924,2093
954127,2908,35932,3211,35979,400,218,-1168,141,-694,-249,636,3286,61,42,887,1741,1842,2079,2228,2058,1827,1883,2018
955128,2996,36004,3276,36044,472,409,-1154,96,-689,-371,616,3241,45,53,889,1741,1842,2079,2228,2058,1827,1883,2018
956129,3076,36080,3341,36109,554,346,-1145,43,-696,-308,734,3082,63,46,892,1741,1842,2079,2228,2058,1827,1883,2018
957130,3172,36152,3406,36174,316,387,-1130,7,-700,-182,853,3289,49,48,891,1741,1842,2079,2228,2058,1827,1883,2018
958131,3252,36232,3471,36239,498,269,-1123,-47,-689,-458,892,3118,49,56,891,1741,1842,2079,2228,2058,1827,1883,2018
959132,3344,36312,3536,36304,315,251,-1114,-92,-680,-556,779,3063,53,50,892,1741,1842,2079,2228,2058,1827,1883,2018
960133,3424,36376,3601,36369,447,452,-1119,-134,-657,-556,835,3274,46,58,892,1756,1862,2095,2258,2124,1908,1865,1980
961134,3516,36440,3666,36434,264,453,-1102,-162,-649,-237,975,3272,58,45,893,1756,1862,2095,2258,2124,1908,1865,1980
962135,3600,36528,3731,36499,341,125,-1089,-213,-637,-418,1036,3397,57,53,891,1756,1862,2095,2258,2124,1908,1865,1980
963136,3684,36604,3796,36564,318,262,-1087,-239,-634,-625,955,3323,40,50,892,1756,1862,2095,2258,2124,1908,1865,1980
964137,3756,36676,3861,36629,460,303,-1080,-250,-642,-150,866,3448,46,48,893,1756,1862,2095,2258,2124,1908,1865,1980
965138,3840,36760,3926,36694,286,130,-1066,-253,-652,53,977,3677,40,56,892,1766,1861,2089,2263,1977,1763,1827,1933
966139,3928,36828,3991,36759,208,326,-1057,-282,-678,-394,975,3257,43,46,892,1766,1861,2089,2263,1977,1763,1827,1933
967140,4016,36920,4056,36824,180,-8,-1042,-304,-703,-408,768,3473,56,46,894,1766,1861,2089,2263,1977,1763,1827,1933
968141,4088,37020,4121,36889,372,-150,-1032,-304,-728,-72,630,3575,37,51,893,1766,1861,2089,2263,1977,1763,1827,1933
969142,4168,37108,4186,36954,253,-28,-1011,-293,-762,164,608,3453,52,45,894,1766,1861,2089,2263,1977,1763,1827,1933
970143,4252,37192,4251,37019,180,-2,-995,-293,-803,0,713,3552,41,58,893,1766,1861,2089,2263,1977,1763,1827,1933
971144,4320,37280,4316,37084,377,-80,-957,-283,-841,-176,612,3365,44,44,894,1776,1860,2180,2332,1962,1756,1820,1931
972145,4408,37360,4381,37149,99,2,-929,-275,-856,-244,608,3558,43,54,893,1776,1860,2180,2332,1962,1756,1820,1931
973146,4472,37432,4446,37214,400,93,-885,-251,-866,-30,658,3560,38,54,892,1776,1860,2180,2332,1962,1756,1820,1931
974147,4536,37520,4511,37279,401,-135,-833,-217,-862,66,554,3554,32,42,895,1776,1860,2180,2332,1962,1756,1820,1931
975148,4620,37576,4576,37344,128,276,-793,-207,-852,-204,590,3546,33,43,893,1776,1860,2180,2332,1962,1756,1820,1931
976149,4696,37648,4641,37409,214,68,-749,-230,-833,-492,723,3287,44,46,892,1777,1862,2098,2281,1980,1773,1837,1945
977150,4776,37720,4706,37474,146,59,-708,-239,-807,-503,692,3316,29,46,894,1777,1862,2098,2281,1980,1773,1837,1945
978151,4856,37804,4771,37539,128,-114,-677,-242,-779,-482,713,3313,47,41,894,1777,1862,2098,2281,1980,1773,1837,1945
979152,4912,37896,4836,37604,439,-247,-652,-216,-773,-306,653,3557,46,53,894,1777,1862,2098,2281,1980,1773,1837,1945
980153,4996,37956,4901,37669,66,158,-636,-232,-758,-460,642,3209,46,50,894,1777,1862,2098,2281,1980,1773,1837,1945
981154,5064,38036,4966,37734,262,-110,-610,-252,-749,-492,690,3285,47,50,892,1777,1862,2098,2281,1980,1773,1837,1945
982155,5132,38100,5031,37799,257,91,-593,-251,-750,-550,652,3353,40,53,895,1844,1956,2111,2303,1988,1781,1848,1948
983156,5204,38184,5096,37864,199,-182,-578,-233,-755,-337,632,3372,32,38,894,1844,1956,2111,2303,1988,1781,1848,1948
984157,5272,38260,5161,37929,245,-96,-556,-196,-768,-21,628,3439,46,49,894,1844,1956,2111,2303,1988,1781,1848,1948
985158,5360,38340,5226,37994,-33,-164,-534,-183,-764,-154,546,3448,45,51,893,1844,1956,2111,2303,1988,1781,1848,1948
986159,5444,38412,5291,38059,-6,-72,-510,-177,-779,-117,562,3486,32,37,894,1844,1956,2111,2303,1988,1781,1848,1948
987160,5536,38480,5356,38124,-139,-26,-479,-174,-793,-180,424,3279,47,46,895,1785,1869,2091,2275,1981,1768,1834,1942
988161,5624,38552,5421,38189,-117,-86,-454,-149,-808,74,532,3599,37,38,895,1785,1869,2091,2275,1981,1768,1834,1942
989162,5716,38628,5486,38254,-200,-149,-431,-124,-817,227,375,3604,29,47,888,1785,1869,2091,2275,1981,1768,1834,1942
990163,5792,38684,5551,38319,-14,112,-412,-92,-836,245,247,3551,47,47,889,1785,1869,2091,2275,1981,1768,1834,1942
991164,5864,38740,5616,38384,28,123,-378,-69,-846,-1,150,3746,38,34,884,1785,1869,2091,2275,1981,1768,1834,1942
992165,5932,38784,5681,38449,74,299,-352,-49,-840,-201,250,3563,43,34,895,1785,1869,2091,2275,1981,1768,1834,1942
993166,6008,38852,5746,38514,-39,-5,-330,-67,-823,-189,229,3489,33,32,895,1758,1843,2063,2238,1966,1751,1830,1948
994167,6072,38916,5811,38579,112,46,-319,-71,-822,-28,134,3684,31,43,894,1758,1843,2063,2238,1966,1751,1830,1948
995168,6140,38976,5876,38644,57,101,-316,-98,-808,-264,93,3290,29,40,895,1758,1843,2063,2238,1966,1751,1830,1948
996169,6200,39044,5941,38709,163,-2,-326,-121,-787,-300,187,3399,46,37,895,1758,1843,2063,2238,1966,1751,1830,1948
997170,6280,39116,6006,38774,-105,-61,-342,-169,-757,-366,200,3175,36,36,895,1758,1843,2063,2238,1966,1751,1830,1948
998171,6344,39164,6071,38839,96,260,-363,-201,-743,-269,201,3235,41,42,895,1749,1842,2068,2241,2005,1786,1855,2058
999172,6412,39216,6136,38904,43,226,-384,-231,-723,-216,135,3178,33,34,891,1749,1842,2068,2241,2005,1786,1855,2058
1000173,6492,39296,6201,38969,-126,-143,-396,-262,-693,-209,227,3102,51,50,894,1749,1842,2068,2241,2005,1786,1855,2058
1001174,6564,39344,6266,39034,-34,278,-409,-282,-672,-201,253,3183,32,44,894,1749,1842,2068,2241,2005,1786,1855,2058
1002175,6648,39412,6331,39099,-207,24,-410,-289,-658,-172,206,3208,37,43,889,1749,1842,2068,2241,2005,1786,1855,2058
1003176,6724,39468,6396,39164,-121,184,-409,-294,-640,4,245,3294,46,49,894,1749,1842,2068,2241,2005,1786,1855,2058
1004177,6796,39528,6461,39229,-80,141,-399,-297,-631,130,198,3427,33,48,884,1750,1846,2067,2227,2051,1817,1888,2023
1005178,6864,39616,6526,39294,-34,-238,-388,-292,-631,16,203,3316,37,43,889,1750,1846,2067,2227,2051,1817,1888,2023
1006179,6952,39676,6591,39359,-312,119,-375,-285,-644,29,132,3473,50,51,892,1750,1846,2067,2227,2051,1817,1888,2023
1007180,7016,39756,6656,39424,-11,-150,-366,-268,-655,232,147,3546,44,39,893,1750,1846,2067,2227,2051,1817,1888,2023
1008181,7092,39816,6721,39489,-174,106,-363,-264,-651,86,169,3425,35,41,895,1750,1846,2067,2227,2051,1817,1888,2023
1009182,7176,39888,6786,39554,-298,-52,-364,-257,-655,-7,170,3473,37,55,895,1726,1827,2045,2195,2067,1911,1939,2017
1010183,7240,39988,6851,39619,-46,-445,-371,-249,-664,59,151,3557,35,49,886,1726,1827,2045,2195,2067,1911,1939,2017
1011184,7336,40076,6916,39684,-485,-324,-392,-261,-666,-101,3,3546,52,49,895,1726,1827,2045,2195,2067,1911,1939,2017
1012185,7408,40144,6981,39749,-194,-78,-410,-270,-660,-126,96,3474,45,44,893,1726,1827,2045,2195,2067,1911,1939,2017
1013186,7492,40216,7046,39814,-367,-136,-432,-251,-640,-121,100,3496,40,52,893,1726,1827,2045,2195,2067,1911,1939,2017
1014187,7568,40292,7111,39879,-280,-200,-462,-249,-617,29,2,3260,41,39,884,1726,1827,2045,2195,2067,1911,1939,2017
1015188,7640,40352,7176,39944,-239,6,-488,-263,-584,-221,12,3357,44,38,894,1719,1817,2045,2205,2043,1808,1856,1971
1016189,7724,40420,7241,40009,-412,-97,-515,-265,-556,-301,-64,3484,39,55,894,1719,1817,2045,2205,2043,1808,1856,1971
1017190,7804,40476,7306,40074,-381,63,-532,-240,-528,-150,-83,3413,53,51,895,1719,1817,2045,2205,2043,1808,1856,1971
1018191,7912,40552,7371,40139,-784,-201,-560,-247,-506,77,-197,3359,37,50,895,1719,1817,2045,2205,2043,1808,1856,1971
1019192,7988,40620,7436,40204,-397,-104,-566,-215,-483,-150,-150,3517,54,50,895,1719,1817,2045,2205,2043,1808,1856,1971
1020193,8064,40668,7501,40269,-411,166,-575,-190,-459,-118,-210,3905,56,54,887,1724,1819,2051,2282,2139,1810,1863,1982
1021194,8156,40744,7566,40334,-644,-197,-574,-191,-448,130,-237,3554,52,54,895,1724,1819,2051,2282,2139,1810,1863,1982
1022195,8264,40820,7631,40399,-897,-210,-569,-204,-438,109,-174,3831,46,55,895,1724,1819,2051,2282,2139,1810,1863,1982
1023196,8340,40888,7696,40464,-511,-114,-554,-190,-425,-261,-422,3848,41,50,893,1724,1819,2051,2282,2139,1810,1863,1982
1024197,8452,40952,7761,40529,-1018,-64,-544,-147,-415,132,-408,3623,59,52,886,1724,1819,2051,2282,2139,1810,1863,1982
