%  Data file recorded 2016/8/28  19:50:5
%  Stride Frequency         = [1, 1]
%  Lead In /Lead Out        = 
%  Deltas (Fractional)      = [0.25, 0.25, 0.25],[0.25, 0.25, 0.25]
%  Phase                    = 32768
%  Experiment.py 
%  Motor Gains    = [5000, 400, 200, 0, 300, 5000, 400, 200, 0, 300]
% Columns: 
% time | Right Leg Pos | Left Leg Pos | Commanded Right Leg Pos | Commanded Left Leg Pos | DCR | DCL | GyroX | GyroY | GyroZ | AX | AY | AZ | RBEMF | LBEMF | VBatt | S1 | S2 | S3 | S4 | S5 | S6 | S7 | S8
999,15896,-12768,17954,-14814,-3800,3152,39,-58,27,-43,140,3939,-4,-1,880,1733,1862,2067,2211,2035,1795,1875,2005
2000,15908,-12756,17954,-14814,-3800,2786,42,-60,29,-61,154,3951,6,9,880,1733,1862,2067,2211,2035,1795,1875,2005
3001,15892,-12748,17954,-14814,-3800,2826,42,-61,27,-32,149,3977,10,-1,879,1733,1862,2067,2211,2035,1795,1875,2005
4002,15904,-12748,17954,-14814,-3800,2925,41,-61,26,-42,134,3990,12,-6,879,1735,1865,2176,2276,2035,1796,1877,2006
5003,15900,-12760,17954,-14814,-3800,3088,41,-60,29,-83,135,3949,4,-2,880,1735,1865,2176,2276,2035,1796,1877,2006
6004,15912,-12760,17954,-14814,-3800,2938,40,-59,27,-50,126,3956,-3,9,880,1735,1865,2176,2276,2035,1796,1877,2006
7005,15896,-12744,17954,-14814,-3800,2718,40,-60,26,-39,143,3945,-7,9,880,1735,1865,2176,2276,2035,1796,1877,2006
8006,15896,-12752,17954,-14814,-3800,3026,39,-59,25,-54,150,3957,-3,6,880,1735,1865,2176,2276,2035,1796,1877,2006
9007,15900,-12756,17954,-14814,-3800,2980,42,-60,27,-59,142,3920,2,-5,880,1735,1865,2176,2276,2035,1796,1877,2006
10008,15900,-12744,17954,-14814,-3800,2765,42,-60,29,-37,140,3889,2,-6,880,1736,1865,2068,2212,2034,1796,1877,2006
11009,15900,-12764,17954,-14814,-3800,3189,38,-61,30,-35,147,3892,12,-6,880,1736,1865,2068,2212,2034,1796,1877,2006
12010,15892,-12744,17954,-14814,-3800,2664,38,-61,28,-42,130,3938,11,2,879,1736,1865,2068,2212,2034,1796,1877,2006
13011,15900,-12752,17954,-14814,-3800,3022,42,-60,25,-50,135,3960,4,9,880,1736,1865,2068,2212,2034,1796,1877,2006
14012,15896,-12756,17954,-14814,-3800,2976,42,-60,24,-51,127,3948,-7,7,880,1736,1865,2068,2212,2034,1796,1877,2006
15013,15892,-12752,17954,-14814,-3800,2870,39,-58,27,-54,127,3942,-7,-5,880,1801,1938,2068,2212,2034,1796,1876,2005
16014,15896,-12756,17954,-14814,-3800,2975,38,-58,29,-37,180,3924,-7,-6,880,1801,1938,2068,2212,2034,1796,1876,2005
17015,15892,-12756,17954,-14814,-3800,2924,38,-60,30,-21,174,3904,-5,-5,880,1801,1938,2068,2212,2034,1796,1876,2005
18016,15896,-12752,17954,-14814,-3800,2868,42,-62,27,-37,149,3901,-1,5,880,1801,1938,2068,2212,2034,1796,1876,2005
19017,15892,-12756,17954,-14814,-3800,2972,43,-62,27,-39,149,3939,-1,9,880,1801,1938,2068,2212,2034,1796,1876,2005
20018,15892,-12768,17954,-14814,-3800,3087,45,-62,26,-51,125,3936,3,9,879,1801,1938,2068,2212,2034,1796,1876,2005
21019,15896,-12764,17954,-14814,-3800,2881,45,-62,26,-37,164,3924,5,3,879,1734,1864,2067,2211,2034,1795,1877,2004
22020,15892,-12740,17954,-14814,-3800,2601,46,-62,26,-40,155,3934,5,-4,880,1734,1864,2067,2211,2034,1795,1877,2004
23021,15896,-12752,17954,-14814,-3800,3064,42,-60,28,-58,151,3896,12,-4,880,1734,1864,2067,2211,2034,1795,1877,2004
24022,15908,-12752,17954,-14814,-3800,2913,41,-60,29,-68,156,3915,12,7,880,1734,1864,2067,2211,2034,1795,1877,2004
25023,15900,-12752,17954,-14814,-3800,2913,42,-61,30,-81,127,3920,12,9,880,1734,1864,2067,2211,2034,1795,1877,2004
26024,15888,-12752,17954,-14814,-3800,2912,43,-60,30,-65,138,3956,6,2,879,1735,1864,2068,2212,2036,1796,1877,2008
27025,15904,-12756,17954,-14814,-3800,2966,42,-63,28,-51,120,3934,5,-5,879,1735,1864,2068,2212,2036,1796,1877,2008
28026,15892,-12752,17954,-14814,-3800,2860,41,-65,28,-52,128,3915,3,-2,880,1735,1864,2068,2212,2036,1796,1877,2008
29027,15896,-12748,17954,-14814,-3800,2855,40,-64,28,-83,153,3943,-5,8,879,1735,1864,2068,2212,2036,1796,1877,2008
30028,15896,-12760,17954,-14814,-3800,3069,41,-62,28,-66,126,3949,-6,6,880,1735,1864,2068,2212,2036,1796,1877,2008
31029,15892,-12744,17954,-14814,-3800,2699,40,-61,29,-54,131,3924,-7,-3,880,1735,1864,2068,2212,2036,1796,1877,2008
32030,15892,-12748,17954,-14814,-3800,2953,42,-61,27,-36,137,3895,-7,-5,880,1734,1864,2067,2211,2034,1795,1875,2093
33031,15900,-12752,17954,-14814,-3800,2956,43,-59,29,-49,135,3922,-1,7,880,1734,1864,2067,2211,2034,1795,1875,2093
34032,15900,-12748,17954,-14814,-3800,2851,42,-58,30,-42,143,3945,2,9,880,1734,1864,2067,2211,2034,1795,1875,2093
35033,15896,-12744,17954,-14814,-3800,2846,42,-59,30,-44,155,3946,10,7,880,1734,1864,2067,2211,2034,1795,1875,2093
36034,15896,-12764,17954,-14814,-3800,3169,43,-62,29,-54,128,3938,12,-4,879,1734,1864,2067,2211,2034,1795,1875,2093
37035,15900,-12756,17954,-14814,-3800,2808,42,-62,25,-70,147,3926,11,-5,879,1735,1866,2070,2214,2036,1796,1877,2008
38036,15900,-12748,17954,-14814,-3800,2798,40,-59,26,-48,161,3902,-4,-5,879,1735,1866,2070,2214,2036,1796,1877,2008
39037,15896,-12748,17954,-14814,-3800,2898,41,-60,27,-43,158,3943,-7,8,880,1735,1866,2070,2214,2036,1796,1877,2008
40038,15908,-12752,17954,-14814,-3800,2951,42,-60,30,-54,130,3953,-4,9,879,1735,1866,2070,2214,2036,1796,1877,2008
41039,15892,-12756,17954,-14814,-3800,2955,41,-59,29,-63,152,3935,11,7,879,1735,1866,2070,2214,2036,1796,1877,2008
42040,15908,-12748,17954,-14814,-3800,2795,42,-60,31,-62,163,3920,11,0,880,1735,1866,2070,2214,2036,1796,1877,2008
43041,15896,-12748,17954,-14814,-3800,2894,42,-61,31,-35,124,3946,12,-4,880,1734,1864,2067,2210,2034,1892,1926,2005
44042,15888,-12760,17954,-14814,-3800,3058,44,-62,26,-29,134,3947,8,-6,880,1734,1864,2067,2210,2034,1892,1926,2005
45043,15900,-12748,17954,-14814,-3800,2743,39,-62,27,-43,131,3952,1,2,879,1734,1864,2067,2210,2034,1892,1926,2005
46044,15900,-12748,17954,-14814,-3800,2892,37,-60,29,-55,127,3954,-2,4,880,1734,1864,2067,2210,2034,1892,1926,2005
47045,15896,-12764,17954,-14814,-3800,3110,40,-59,25,-45,138,3957,-6,5,880,1734,1864,2067,2210,2034,1892,1926,2005
48046,15896,-12756,17954,-14814,-3800,2799,41,-58,27,-50,131,3939,-4,8,880,1738,1866,2069,2212,2036,1796,1877,2006
49047,15904,-12752,17954,-14814,-3800,2844,42,-59,28,-56,135,3937,-7,7,880,1738,1866,2069,2212,2036,1796,1877,2006
50048,15908,-12744,17954,-14814,-3800,2784,41,-59,28,-48,155,3929,-4,6,880,1738,1866,2069,2212,2036,1796,1877,2006
51049,15900,-12752,17954,-14814,-3800,2992,40,-59,26,-29,167,3952,-1,-5,880,1738,1866,2069,2212,2036,1796,1877,2006
52050,15896,-12744,17954,-14814,-3800,2782,40,-61,26,-55,131,3947,-5,-5,880,1738,1866,2069,2212,2036,1796,1877,2006
53051,15896,-12760,17954,-14814,-3800,3100,43,-62,27,-41,128,3914,1,-2,880,1738,1866,2069,2212,2036,1796,1877,2006
54052,15892,-12748,17954,-14814,-3800,2736,43,-63,29,-54,124,3928,3,4,878,1736,1864,2068,2292,2118,1796,1877,2007
55053,15908,-12760,17954,-14814,-3800,3049,40,-60,29,-79,120,3936,8,8,879,1736,1864,2068,2292,2118,1796,1877,2007
56054,15896,-12744,17954,-14814,-3800,2679,38,-60,29,-65,123,3951,11,9,879,1736,1864,2068,2292,2118,1796,1877,2007
57055,15908,-12752,17954,-14814,-3800,2987,40,-59,26,-44,160,3960,8,0,880,1736,1864,2068,2292,2118,1796,1877,2007
58056,15892,-12752,17954,-14814,-3800,2887,41,-59,27,-40,155,3952,4,-5,880,1736,1864,2068,2292,2118,1796,1877,2007
59057,15892,-12768,17954,-14814,-3800,3106,41,-60,26,-43,150,3930,8,-6,880,1735,1863,2068,2213,2036,1798,1880,2008
60058,15896,-12752,17954,-14814,-3800,2685,39,-59,25,-42,160,3956,6,0,880,1735,1863,2068,2213,2036,1798,1880,2008
61059,15896,-12768,17954,-14814,-3800,3104,38,-60,26,-58,144,3940,1,1,880,1735,1863,2068,2213,2036,1798,1880,2008
62060,15900,-12760,17954,-14814,-3800,2793,39,-61,25,-44,140,3957,12,3,880,1735,1863,2068,2213,2036,1798,1880,2008
63061,15904,-12748,17954,-14814,-3800,2729,42,-61,26,-58,145,3989,12,9,880,1735,1863,2068,2213,2036,1798,1880,2008
64062,15900,-12748,17954,-14814,-3800,2878,43,-61,27,-55,133,3988,12,8,880,1735,1863,2068,2213,2036,1798,1880,2008
65063,15904,-12752,17954,-14814,-3800,2931,42,-62,27,-71,135,3953,1,4,880,1736,1952,2158,2211,2034,1796,1877,2005
66064,15900,-12752,17954,-14814,-3800,2880,39,-61,27,-69,119,3938,-4,-4,879,1736,1952,2158,2211,2034,1796,1877,2005
67065,15900,-12760,17954,-14814,-3800,2989,37,-60,27,-34,135,3922,-6,-6,880,1736,1952,2158,2211,2034,1796,1877,2005
68066,15904,-12748,17954,-14814,-3800,2725,36,-61,25,-22,126,3902,-4,-5,879,1736,1952,2158,2211,2034,1796,1877,2005
69067,15888,-12756,17954,-14814,-3800,2983,40,-62,26,-56,132,3949,1,3,879,1736,1952,2158,2211,2034,1796,1877,2005
70068,15896,-12748,17954,-14814,-3800,2773,41,-62,24,-69,124,3917,0,7,880,1734,1863,2070,2214,2038,1800,1880,2008
71069,15900,-12756,17954,-14814,-3800,2981,39,-61,26,-59,142,3935,8,5,878,1734,1863,2070,2214,2038,1800,1880,2008
72070,15896,-12752,17954,-14814,-3800,2825,39,-61,26,-39,150,3916,9,9,879,1734,1863,2070,2214,2038,1800,1880,2008
73071,15900,-12756,17954,-14814,-3800,2930,43,-62,27,-51,129,3915,2,9,879,1734,1863,2070,2214,2038,1800,1880,2008
74072,15896,-12736,17954,-14814,-3800,2605,40,-60,26,-66,123,3934,-7,6,879,1734,1863,2070,2214,2038,1800,1880,2008
75073,15904,-12752,17954,-14814,-3800,3073,38,-59,28,-62,121,3947,-7,-4,880,1734,1863,2070,2214,2038,1800,1880,2008
76074,15896,-12756,17954,-14814,-3800,2927,37,-59,30,-62,132,3945,-2,-5,880,1794,1865,2067,2212,2034,1796,1877,2006
77075,15904,-12760,17954,-14814,-3800,2932,39,-62,28,-53,130,3945,11,-6,880,1794,1865,2067,2212,2034,1796,1877,2006
78076,15896,-12748,17954,-14814,-3800,2717,39,-60,27,-45,146,3932,12,0,880,1794,1865,2067,2212,2034,1796,1877,2006
79077,15900,-12740,17954,-14814,-3800,2756,40,-60,27,-62,126,3975,11,5,880,1794,1865,2067,2212,2034,1796,1877,2006
80078,15896,-12752,17954,-14814,-3800,3019,41,-60,26,-51,117,3956,3,9,880,1794,1865,2067,2212,2034,1796,1877,2006
81079,15892,-12752,17954,-14814,-3800,2868,40,-60,26,-46,154,3949,0,0,880,1738,1866,2070,2214,2036,1798,1880,2008
82080,15900,-12752,17954,-14814,-3800,2868,38,-62,28,-20,149,3939,1,-5,879,1738,1866,2070,2214,2036,1798,1880,2008
83081,15908,-12756,17954,-14814,-3800,2922,40,-62,27,-17,138,3958,-7,-6,880,1738,1866,2070,2214,2036,1798,1880,2008
84082,15892,-12744,17954,-14814,-3800,2707,41,-61,26,-45,127,3926,-7,6,879,1738,1866,2070,2214,2036,1798,1880,2008
85083,15904,-12756,17954,-14814,-3800,3020,42,-62,28,-54,144,3950,-6,9,880,1738,1866,2070,2214,2036,1798,1880,2008
86084,15892,-12752,17954,-14814,-3800,2814,44,-61,28,-54,134,3922,0,5,880,1738,1866,2070,2214,2036,1798,1880,2008
87085,15904,-12752,17954,-14814,-3800,2864,42,-61,28,-56,168,3900,6,-6,879,1736,1864,2068,2212,2035,1795,1877,2005
88086,15908,-12756,17954,-14814,-3800,2918,42,-61,28,-39,126,3950,7,-6,879,1736,1864,2068,2212,2035,1795,1877,2005
89087,15896,-12752,17954,-14814,-3800,2812,40,-62,28,-60,135,3956,7,-6,879,1736,1864,2068,2212,2035,1795,1877,2005
90088,15892,-12748,17954,-14814,-3800,2807,40,-61,26,-36,129,3917,2,5,880,1736,1864,2068,2212,2035,1795,1877,2005
91089,15888,-12744,17954,-14814,-3800,2801,41,-62,26,-52,138,3895,-7,8,880,1736,1864,2068,2212,2035,1795,1877,2005
92090,15904,-12752,17954,-14814,-3800,2960,42,-62,27,-65,149,3904,-2,-4,880,1738,1866,2068,2212,2034,1796,1937,2084
93091,15884,-12760,17954,-14814,-3800,2969,42,-61,30,-66,129,3919,5,-1,879,1738,1866,2068,2212,2034,1796,1937,2084
94092,15896,-12768,17954,-14814,-3800,2978,43,-60,31,-37,119,3972,12,9,880,1738,1866,2068,2212,2034,1796,1937,2084
95093,15904,-12748,17954,-14814,-3800,2603,45,-58,30,-52,146,3953,7,2,879,1738,1866,2068,2212,2034,1796,1937,2084
96094,15892,-12752,17954,-14814,-3800,2907,44,-58,29,-49,143,3907,-2,-6,879,1738,1866,2068,2212,2034,1796,1937,2084
97095,15900,-12768,17954,-14814,-3800,3076,43,-60,29,-52,139,3927,-7,0,880,1738,1866,2068,2212,2034,1796,1937,2084
98096,15888,-12752,17954,-14814,-3800,2655,43,-60,30,-49,145,3928,8,7,879,1736,1864,2067,2211,2033,1795,1876,2005
99097,15900,-12760,17954,-14814,-3800,2964,42,-61,28,-44,154,3944,11,4,880,1736,1864,2067,2211,2033,1795,1876,2005
100098,15896,-12748,17954,-14814,-3800,2699,41,-63,28,-59,159,3936,12,-5,880,1736,1864,2067,2211,2033,1795,1876,2005
101099,15900,-12756,17954,-14814,-3800,2958,40,-63,30,-46,140,3927,10,-4,880,1736,1864,2067,2211,2033,1795,1876,2005
102100,15908,-12772,17954,-14814,-3800,3077,42,-62,30,-62,126,3946,3,9,880,1736,1864,2067,2211,2033,1795,1876,2005
103101,15904,-12764,17954,-14814,-3800,2766,42,-60,30,-38,135,3946,-5,6,880,1735,1863,2069,2212,2142,1878,1880,2008
104102,15896,-12756,17954,-14814,-3800,2755,41,-59,30,-36,129,3923,-6,-3,879,1735,1863,2069,2212,2142,1878,1880,2008
105103,15892,-12752,17954,-14814,-3800,2799,41,-58,29,-51,177,3912,-6,-5,879,1735,1863,2069,2212,2142,1878,1880,2008
106104,15896,-12772,17954,-14814,-3800,3124,43,-60,27,-59,174,3940,1,-2,879,1735,1863,2069,2212,2142,1878,1880,2008
107105,15904,-12756,17954,-14814,-3800,2653,42,-61,28,-50,124,3970,12,7,879,1735,1863,2069,2212,2142,1878,1880,2008
108106,15900,-12756,17954,-14814,-3800,2852,43,-59,27,-37,124,3935,12,3,880,1735,1863,2069,2212,2142,1878,1880,2008
109107,15900,-12752,17954,-14814,-3800,2796,42,-59,28,-38,124,3928,12,0,880,1737,1864,2067,2211,2034,1794,1876,2005
110108,15892,-12756,17954,-14814,-3800,2901,40,-60,28,-49,131,3921,11,-4,880,1737,1864,2067,2211,2034,1794,1876,2005
111109,15892,-12760,17954,-14814,-3800,2905,41,-62,29,-56,153,3905,7,-4,879,1737,1864,2067,2211,2034,1794,1876,2005
112110,15912,-12760,17954,-14814,-3800,2854,44,-59,28,-39,168,3897,9,2,879,1737,1864,2067,2211,2034,1794,1876,2005
113111,15904,-12748,17954,-14814,-3800,2689,43,-58,29,-65,159,3912,0,8,879,1737,1864,2067,2211,2034,1794,1876,2005
114112,15904,-12752,17954,-14814,-3800,2892,43,-59,31,-65,161,3915,-4,1,880,1737,1863,2173,2278,2035,1796,1878,2007
115113,15900,-12760,17954,-14814,-3800,2952,42,-59,30,-25,148,3929,-5,-6,880,1737,1863,2173,2278,2035,1796,1878,2007
116114,15908,-12760,17954,-14814,-3800,2851,42,-59,28,-41,157,3939,-7,-5,879,1737,1863,2173,2278,2035,1796,1878,2007
117115,15904,-12752,17954,-14814,-3800,2740,42,-61,29,-54,140,3965,-7,7,880,1737,1863,2173,2278,2035,1796,1878,2007
118116,15896,-12756,17954,-14814,-3800,2894,42,-61,30,-57,154,3971,-6,9,880,1737,1863,2173,2278,2035,1796,1878,2007
119120,15888,-12748,17954,-14814,-3800,2734,43,-60,28,-39,141,3925,-4,3,880,1737,1863,2173,2278,2035,1796,1878,2007
120118,15900,-12744,17954,-14814,-3800,2779,42,-61,24,-45,143,3933,-7,-6,879,1736,1864,2068,2211,2034,1795,1877,2005
121119,15896,-12764,17954,-14814,-3800,3102,43,-61,25,-58,131,3941,-6,-4,880,1736,1864,2068,2211,2034,1795,1877,2005
122120,15896,-12756,17954,-14814,-3800,2741,41,-60,27,-54,144,3939,5,-4,879,1736,1864,2068,2211,2034,1795,1877,2005
123121,15892,-12764,17954,-14814,-3800,2950,42,-61,26,-53,153,3947,12,5,879,1736,1864,2068,2211,2034,1795,1877,2005
124122,15904,-12744,17954,-14814,-3800,2575,43,-61,28,-65,154,3971,11,9,879,1736,1864,2068,2211,2034,1795,1877,2005
125123,15908,-12756,17954,-14814,-3800,2989,41,-61,30,-43,147,3946,3,4,880,1797,1939,2069,2212,2035,1798,1878,2007
126124,15892,-12752,17954,-14814,-3800,2783,40,-61,30,-38,145,3937,1,-5,880,1797,1939,2069,2212,2035,1798,1878,2007
127125,15900,-12756,17954,-14814,-3800,2887,39,-63,27,-30,126,3957,1,3,880,1797,1939,2069,2212,2035,1798,1878,2007
128126,15904,-12764,17954,-14814,-3800,2946,39,-63,26,-67,119,3927,-3,9,879,1797,1939,2069,2212,2035,1798,1878,2007
129127,15896,-12760,17954,-14814,-3800,2791,40,-62,26,-40,121,3935,-3,-4,880,1797,1939,2069,2212,2035,1798,1878,2007
130128,15916,-12756,17954,-14814,-3800,2785,42,-60,29,-61,140,3921,-3,-3,880,1797,1939,2069,2212,2035,1798,1878,2007
131129,15900,-12756,17954,-14814,-3800,2834,42,-61,29,-60,166,3917,1,6,880,1737,1864,2068,2211,2034,1796,1876,2006
132130,15904,-12744,17954,-14814,-3800,2669,40,-61,24,-57,149,3932,10,4,879,1737,1864,2068,2211,2034,1796,1876,2006
133131,15908,-12748,17954,-14814,-3800,2873,39,-61,23,-75,116,3946,10,-5,880,1737,1864,2068,2211,2034,1796,1876,2006
134132,15908,-12752,17954,-14814,-3800,2877,40,-63,27,-57,160,3932,5,-5,879,1737,1864,2068,2211,2034,1796,1876,2006
135133,15896,-12752,17954,-14814,-3800,2826,40,-60,28,-43,134,3930,7,5,880,1737,1864,2068,2211,2034,1796,1876,2006
136134,15900,-12736,17954,-14814,-3800,2606,40,-59,27,-48,117,3935,3,9,880,1735,1861,2065,2214,2038,1798,1879,2008
137135,15896,-12756,17954,-14814,-3800,3079,40,-61,29,-55,127,3952,-4,4,880,1735,1861,2065,2214,2038,1798,1879,2008
138136,15896,-12756,17954,-14814,-3800,2828,39,-60,29,-66,159,3905,0,-6,879,1735,1861,2065,2214,2038,1798,1879,2008
139137,15896,-12756,17954,-14814,-3800,2828,37,-59,27,-39,133,3925,7,-4,878,1735,1861,2065,2214,2038,1798,1879,2008
140138,15892,-12752,17954,-14814,-3800,2772,37,-58,26,-68,127,3922,-5,-2,878,1735,1861,2065,2214,2038,1798,1879,2008
141139,15896,-12752,17954,-14814,-3800,2821,38,-60,27,-69,131,3893,-4,8,880,1735,1861,2065,2214,2038,1798,1879,2008
142140,15904,-12760,17954,-14814,-3800,2930,40,-63,28,-42,122,3907,-4,1,879,1737,1864,2068,2211,2034,1796,1876,2099
143141,15900,-12740,17954,-14814,-3800,2556,40,-63,27,-43,119,3946,-7,-6,879,1737,1864,2068,2211,2034,1796,1876,2099
144142,15896,-12744,17954,-14814,-3800,2860,38,-61,27,-46,157,3925,-7,8,879,1737,1864,2068,2211,2034,1796,1876,2099
145143,15892,-12752,17954,-14814,-3800,2918,38,-59,27,-55,162,3950,-5,6,880,1737,1864,2068,2211,2034,1796,1876,2099
146144,15904,-12752,17954,-14814,-3800,2817,41,-60,27,-42,152,3950,-7,-2,879,1737,1864,2068,2211,2034,1796,1876,2099
147145,15892,-12760,17954,-14814,-3800,2926,42,-60,28,-55,149,3944,-7,0,879,1735,1863,2067,2211,2034,1795,1878,2008
148146,15892,-12756,17954,-14814,-3800,2771,39,-61,30,-46,138,3952,-6,9,879,1735,1863,2067,2211,2034,1795,1878,2008
149147,15896,-12748,17954,-14814,-3800,2711,40,-63,30,-71,130,3949,-6,-1,880,1735,1863,2067,2211,2034,1795,1878,2008
150148,15892,-12752,17954,-14814,-3800,2864,41,-63,29,-74,123,3931,-3,-2,879,1735,1863,2067,2211,2034,1795,1878,2008
151149,15908,-12760,17954,-14814,-3800,2923,42,-62,30,-60,130,3968,2,9,880,1735,1863,2067,2211,2034,1795,1878,2008
152150,15900,-12764,17954,-14814,-3800,2877,39,-59,29,-38,155,3938,-5,3,880,1735,1863,2067,2211,2034,1795,1878,2008
153151,15900,-12752,17954,-14814,-3800,2662,41,-59,27,-33,157,3947,-7,-5,879,1737,1865,2068,2212,2036,1895,1928,2008
154152,15900,-12740,17954,-14814,-3800,2647,41,-61,28,-37,138,3931,-7,4,879,1737,1865,2068,2212,2036,1895,1928,2008
155153,15896,-12756,17954,-14814,-3800,3015,42,-61,29,-41,138,3920,-6,9,879,1737,1865,2068,2212,2036,1895,1928,2008
156154,15908,-12752,17954,-14814,-3800,2759,44,-61,29,-53,146,3949,-7,8,878,1737,1865,2068,2212,2036,1895,1928,2008
157155,15900,-12764,17954,-14814,-3800,2973,42,-60,28,-36,120,3937,-3,5,878,1737,1865,2068,2212,2036,1895,1928,2008
158156,15908,-12756,17954,-14814,-3800,2713,40,-62,28,-47,133,3919,4,-4,880,1737,1865,2068,2212,2035,1797,1877,2005
159157,15908,-12752,17954,-14814,-3800,2757,41,-61,28,-63,121,3915,6,-2,879,1737,1865,2068,2212,2035,1797,1877,2005
160158,15908,-12768,17954,-14814,-3800,3026,41,-60,28,-76,128,3937,11,5,880,1737,1865,2068,2212,2035,1797,1877,2005
161159,15904,-12748,17954,-14814,-3800,2551,44,-58,28,-62,120,3954,12,9,879,1737,1865,2068,2212,2035,1797,1877,2005
162160,15900,-12748,17954,-14814,-3800,2801,43,-59,28,-67,137,3905,10,3,879,1737,1865,2068,2212,2035,1797,1877,2005
163161,15908,-12748,17954,-14814,-3800,2800,42,-61,28,-48,153,3906,4,-4,880,1737,1865,2068,2212,2035,1797,1877,2005
164162,15900,-12756,17954,-14814,-3800,2908,42,-61,29,-87,140,3948,-5,-6,879,1737,1865,2069,2291,2124,1798,1877,2006
165163,15900,-12744,17954,-14814,-3800,2643,42,-63,31,-78,134,3952,-7,3,879,1737,1865,2069,2291,2124,1798,1877,2006
166164,15896,-12752,17954,-14814,-3800,2901,43,-62,31,-31,119,3935,-7,9,879,1737,1865,2069,2291,2124,1798,1877,2006
167167,15892,-12752,17954,-14814,-3800,2801,43,-60,28,-40,162,3956,-2,8,879,1737,1865,2069,2291,2124,1798,1877,2006
168166,15900,-12740,17954,-14814,-3800,2636,41,-58,28,-59,169,3937,-1,-6,879,1737,1865,2069,2291,2124,1798,1877,2006
169167,15892,-12748,17954,-14814,-3800,2895,42,-61,29,-61,146,3908,5,-2,879,1737,1864,2069,2212,2035,1796,1877,2005
170168,15888,-12756,17954,-14814,-3800,2903,42,-61,28,-58,138,3927,12,7,880,1737,1864,2069,2212,2035,1796,1877,2005
171169,15904,-12756,17954,-14814,-3800,2802,43,-61,26,-78,114,3950,11,6,880,1737,1864,2069,2212,2035,1796,1877,2005
172170,15912,-12760,17954,-14814,-3800,2857,43,-60,28,-59,129,3929,12,0,879,1737,1864,2069,2212,2035,1796,1877,2005
173171,15884,-12752,17954,-14814,-3800,2696,47,-59,28,-46,141,3957,9,-3,878,1737,1864,2069,2212,2035,1796,1877,2005
174172,15896,-12760,17954,-14814,-3800,2905,45,-60,30,-59,157,3946,2,-5,878,1737,1947,2162,2214,2034,1795,1877,2005
175173,15904,-12740,17954,-14814,-3800,2530,42,-61,31,-54,129,3929,-3,3,880,1737,1947,2162,2214,2034,1795,1877,2005
176174,15900,-12752,17954,-14814,-3800,2943,43,-59,29,-38,124,3962,-7,8,879,1737,1947,2162,2214,2034,1795,1877,2005
177175,15896,-12756,17954,-14814,-3800,2848,43,-60,27,-53,157,3950,-7,2,879,1737,1947,2162,2214,2034,1795,1877,2005
178176,15900,-12748,17954,-14814,-3800,2688,40,-61,26,-37,137,3949,-7,-4,879,1737,1947,2162,2214,2034,1795,1877,2005
179177,15896,-12764,17954,-14814,-3800,3006,41,-62,25,-61,146,3912,6,-5,880,1737,1947,2162,2214,2034,1795,1877,2005
180178,15904,-12760,17954,-14814,-3800,2750,41,-62,26,-39,152,3929,11,7,880,1737,1864,2068,2212,2034,1795,1876,2005
181179,15900,-12752,17954,-14814,-3800,2690,40,-60,27,-68,132,3960,11,8,879,1737,1864,2068,2212,2034,1795,1876,2005
182180,15900,-12756,17954,-14814,-3800,2844,41,-61,28,-70,142,3959,10,-1,879,1737,1864,2068,2212,2034,1795,1876,2005
183181,15896,-12748,17954,-14814,-3800,2684,43,-60,29,-36,138,3949,7,-3,880,1737,1864,2068,2212,2034,1795,1876,2005
184182,15900,-12760,17954,-14814,-3800,2947,42,-59,29,-53,133,3927,6,6,879,1737,1864,2068,2212,2034,1795,1876,2005
185183,15892,-12752,17954,-14814,-3800,2686,41,-61,29,-85,158,3939,-4,8,880,1800,1868,2067,2211,2034,1796,1877,2006
186184,15892,-12748,17954,-14814,-3800,2732,40,-63,28,-79,132,3943,-7,-6,880,1800,1868,2067,2211,2034,1796,1877,2006
187185,15900,-12748,17954,-14814,-3800,2781,40,-61,27,-54,121,3965,-7,2,880,1800,1868,2067,2211,2034,1796,1877,2006
188186,15896,-12748,17954,-14814,-3800,2780,40,-59,26,-67,138,3926,-1,9,880,1800,1868,2067,2211,2034,1796,1877,2006
189187,15892,-12756,17954,-14814,-3800,2888,39,-61,26,-37,117,3925,5,-4,879,1800,1868,2067,2211,2034,1796,1877,2006
190188,15908,-12748,17954,-14814,-3800,2678,38,-61,29,-40,143,3923,6,-4,878,1800,1868,2067,2211,2034,1796,1877,2006
191189,15892,-12752,17954,-14814,-3800,2832,40,-59,28,-49,146,3934,8,-5,878,1737,1863,2067,2211,2034,1795,1876,2004
192190,15900,-12748,17954,-14814,-3800,2727,39,-58,25,-50,162,3927,-3,0,879,1737,1863,2067,2211,2034,1795,1876,2004
193191,15888,-12760,17954,-14814,-3800,2940,39,-60,27,-57,145,3970,-7,7,880,1737,1863,2067,2211,2034,1795,1876,2004
194192,15900,-12744,17954,-14814,-3800,2570,41,-61,29,-39,140,3928,0,9,879,1737,1863,2067,2211,2034,1795,1876,2004
195193,15896,-12744,17954,-14814,-3800,2769,41,-61,28,-35,143,3920,12,4,880,1737,1863,2067,2211,2034,1795,1876,2004
196194,15900,-12744,17954,-14814,-3800,2769,41,-62,26,-45,154,3954,12,0,880,1737,1863,2068,2212,2036,1798,1878,2008
197195,15908,-12752,17954,-14814,-3800,2877,42,-61,28,-57,143,3959,2,-2,880,1737,1863,2068,2212,2036,1798,1878,2008
198196,15900,-12756,17954,-14814,-3800,2831,40,-59,27,-64,158,3935,-3,-3,879,1737,1863,2068,2212,2036,1798,1878,2008
199197,15908,-12744,17954,-14814,-3800,2616,40,-61,28,-46,136,3949,-7,7,880,1737,1863,2068,2212,2036,1798,1878,2008
200198,15896,-12752,17954,-14814,-3800,2874,40,-62,28,-48,128,3930,-4,9,880,1737,1863,2068,2212,2036,1798,1878,2008
201199,15904,-12748,17954,-14814,-3800,2720,41,-61,31,-62,132,3899,8,-3,880,1737,1863,2068,2212,2036,1798,1878,2008
202200,15912,-12752,17954,-14814,-3800,2823,40,-61,29,-28,125,3880,12,-6,880,1737,1863,2067,2210,2034,1795,1936,2084
203201,15892,-12744,17954,-14814,-3800,2663,40,-61,28,-44,123,3925,1,-4,879,1737,1863,2067,2210,2034,1795,1936,2084
204202,15908,-12752,17954,-14814,-3800,2871,41,-60,27,-52,131,3948,-7,9,879,1737,1863,2067,2210,2034,1795,1936,2084
205203,15892,-12744,18019,-14749,3221,-2123,40,-59,29,-80,144,3915,-5,4,879,1737,1863,2067,2210,2034,1795,1936,2084
206204,15892,-12752,18084,-14684,3100,-1835,40,-60,27,-54,126,3911,-61,25,880,1737,1863,2067,2210,2034,1795,1936,2084
207205,15916,-12772,18149,-14619,2851,-1582,40,-61,24,-49,152,3951,-37,14,828,1737,1864,2067,2211,2034,1795,1877,2005
208206,15988,-12804,18214,-14554,2244,-1315,38,-64,29,-70,104,3835,13,3,835,1737,1864,2067,2211,2034,1795,1877,2005
209207,16092,-12864,18279,-14489,1797,-812,35,-63,38,-66,-117,3849,70,-20,843,1737,1864,2067,2211,2034,1795,1877,2005
210208,16228,-12956,18344,-14424,1312,-221,20,-62,45,-24,39,3682,82,-24,854,1737,1864,2067,2211,2034,1795,1877,2005
211209,16396,-13028,18409,-14359,786,-305,7,-41,54,113,125,3786,103,-31,863,1737,1864,2067,2211,2034,1795,1877,2005
212210,16548,-13096,18474,-14294,881,-193,6,-48,68,34,63,3500,102,-24,870,1737,1864,2067,2211,2034,1795,1877,2005
213211,16720,-13188,18539,-14229,501,298,11,-23,79,-121,53,4016,101,-22,874,1737,1864,2067,2209,2136,1881,1883,2005
214212,16888,-13272,18604,-14164,426,380,24,-39,99,-15,-206,3643,99,-25,874,1737,1864,2067,2209,2136,1881,1883,2005
215213,17052,-13348,18669,-14099,355,452,41,-61,114,188,-45,4049,104,-26,876,1737,1864,2067,2209,2136,1881,1883,2005
216214,17216,-13432,18734,-14034,236,733,49,-87,128,-71,47,3684,88,-32,876,1737,1864,2067,2209,2136,1881,1883,2005
217216,17380,-13492,18799,-13969,116,585,63,-88,136,-33,47,3532,103,-21,876,1737,1864,2067,2209,2136,1881,1883,2005
218216,17548,-13548,18864,-13904,-60,683,72,-138,145,-59,234,3696,88,-15,874,1726,1850,2051,2196,2027,1786,1867,1993
219217,17680,-13604,18929,-13839,309,831,104,-111,131,-46,8,4275,97,-23,876,1726,1850,2051,2196,2027,1786,1867,1993
220218,17832,-13636,18994,-13774,-47,649,118,-31,129,1052,126,4509,84,-16,874,1726,1850,2051,2196,2027,1786,1867,1993
221219,17980,-13676,19059,-13709,-98,877,121,-46,163,230,-118,3183,81,-8,873,1726,1850,2051,2196,2027,1786,1867,1993
222220,18124,-13704,19124,-13644,-144,841,121,-103,160,-741,142,3403,70,1,875,1726,1850,2051,2196,2027,1786,1867,1993
223221,18240,-13716,19189,-13579,144,735,123,-90,145,-200,32,4278,74,4,871,1726,1850,2051,2196,2027,1786,1867,1993
224222,18372,-13716,19254,-13514,-137,664,118,-90,164,465,98,3591,76,0,866,1736,1860,2152,2280,2032,1770,1859,1979
225223,18472,-13720,19319,-13449,220,798,132,-92,183,182,44,3857,72,14,873,1736,1860,2152,2280,2032,1770,1859,1979
226224,18584,-13724,19384,-13384,13,883,114,-117,199,-542,-26,3932,57,15,869,1736,1860,2152,2280,2032,1770,1859,1979
227225,18672,-13728,19449,-13319,286,967,116,-122,197,-185,99,3883,66,12,874,1736,1860,2152,2280,2032,1770,1859,1979
228226,18748,-13720,19514,-13254,423,886,99,-92,209,88,-66,3990,59,27,874,1736,1860,2152,2280,2032,1770,1859,1979
229227,18832,-13700,19579,-13189,299,791,84,-73,221,280,-98,4084,54,32,872,1753,1876,2073,2227,2013,1777,1867,1994
230228,18892,-13684,19644,-13124,605,902,86,-43,227,52,-29,3982,42,24,872,1753,1876,2073,2227,2013,1777,1867,1994
231229,18964,-13648,19709,-13059,448,687,89,-47,226,-165,-140,4061,54,38,874,1753,1876,2073,2227,2013,1777,1867,1994
232230,19036,-13596,19774,-12994,439,503,106,-36,226,-11,-56,4265,53,44,871,1753,1876,2073,2227,2013,1777,1867,1994
233231,19108,-13532,19839,-12929,431,355,122,-39,224,38,58,4291,52,45,874,1753,1876,2073,2227,2013,1777,1867,1994
234232,19180,-13460,19904,-12864,423,246,145,-68,217,-122,-53,4106,51,34,875,1753,1876,2073,2227,2013,1777,1867,1994
235233,19232,-13396,19969,-12799,689,348,162,-89,202,-214,19,4359,46,32,876,1804,1962,2110,2228,2040,1808,1892,2022
236234,19280,-13332,20034,-12734,760,349,172,-94,198,-183,-122,4180,27,46,877,1804,1962,2110,2228,2040,1808,1892,2022
237235,19344,-13280,20099,-12669,561,515,182,-74,190,43,-33,4228,30,47,875,1804,1962,2110,2228,2040,1808,1892,2022
238236,19384,-13228,20164,-12604,893,531,187,-63,180,-160,-38,3986,40,38,874,1804,1962,2110,2228,2040,1808,1892,2022
239237,19440,-13156,20229,-12539,704,274,175,-68,173,-345,-17,4142,39,46,874,1804,1962,2110,2228,2040,1808,1892,2022
240238,19480,-13076,20294,-12474,934,155,169,-89,163,-406,97,4070,33,49,871,1758,1885,2091,2242,2060,1824,1906,2034
241239,19528,-13012,20359,-12409,856,357,157,-109,157,-484,94,4208,25,43,873,1758,1885,2091,2242,2060,1824,1906,2034
242240,19584,-12964,20424,-12344,767,577,149,-127,164,-455,73,4176,36,47,872,1758,1885,2091,2242,2060,1824,1906,2034
243241,19628,-12908,20489,-12279,943,489,135,-144,159,-457,107,4354,29,31,873,1758,1885,2091,2242,2060,1824,1906,2034
244242,19692,-12868,20554,-12214,695,720,128,-136,157,-338,66,4172,27,36,873,1758,1885,2091,2242,2060,1824,1906,2034
245243,19724,-12800,20619,-12149,1135,366,115,-127,146,-152,13,4209,36,40,871,1758,1885,2091,2242,2060,1824,1906,2034
246244,19772,-12748,20684,-12084,956,582,104,-119,141,-480,46,4267,26,44,872,1778,1881,2083,2230,2062,1823,1906,2040
247245,19832,-12704,20749,-12019,813,709,100,-102,131,-419,64,4319,30,33,870,1778,1881,2083,2230,2062,1823,1906,2040
248246,19872,-12656,20814,-11954,1093,679,106,-91,109,-339,-11,4337,31,45,871,1778,1881,2083,2230,2062,1823,1906,2040
249247,19928,-12604,20879,-11889,904,645,108,-106,97,-317,-3,4299,36,39,871,1778,1881,2083,2230,2062,1823,1906,2040
250248,19988,-12556,20944,-11824,861,716,121,-116,91,-476,46,4366,48,44,869,1778,1881,2083,2230,2062,1823,1906,2040
251249,20028,-12480,21009,-11759,1142,354,124,-138,71,-544,-11,4256,47,44,871,1737,1865,2070,2205,2057,1814,1894,2101
252250,20084,-12424,21074,-11694,953,615,129,-158,51,-578,24,4318,29,48,870,1737,1865,2070,2205,2057,1814,1894,2101
253251,20136,-12372,21139,-11629,1020,680,135,-166,44,-531,78,4197,35,46,870,1737,1865,2070,2205,2057,1814,1894,2101
254252,20188,-12316,21204,-11564,1036,641,133,-178,25,-350,112,4019,34,41,871,1737,1865,2070,2205,2057,1814,1894,2101
255253,20252,-12272,21269,-11499,887,818,128,-192,15,-438,60,3975,52,36,869,1737,1865,2070,2205,2057,1814,1894,2101
256254,20312,-12200,21334,-11434,944,460,126,-188,6,-358,207,4111,38,37,870,1737,1865,2070,2205,2057,1814,1894,2101
257255,20364,-12136,21399,-11369,1060,561,124,-192,3,-459,108,3794,50,39,870,1738,1868,2071,2211,2039,1799,1881,2013
258256,20420,-12076,21464,-11304,1022,618,112,-198,-2,-440,117,3927,36,36,871,1738,1868,2071,2211,2039,1799,1881,2013
259257,20496,-12024,21529,-11239,758,734,111,-201,5,-369,118,3813,41,46,869,1738,1868,2071,2211,2039,1799,1881,2013
260258,20552,-11948,21594,-11174,1019,420,102,-199,10,-275,234,3908,42,36,870,1738,1868,2071,2211,2039,1799,1881,2013
261259,20620,-11892,21659,-11109,867,681,94,-200,22,-225,187,3729,44,34,871,1738,1868,2071,2211,2039,1799,1881,2013
262260,20668,-11848,21724,-11044,1138,858,90,-197,31,-271,206,3819,49,49,871,1751,1878,2079,2223,2025,1847,1923,2061
263261,20744,-11784,21789,-10979,775,609,86,-200,33,-259,154,3832,48,50,871,1751,1878,2079,2223,2025,1847,1923,2061
264262,20784,-11712,21854,-10914,1256,501,88,-183,32,-185,171,3875,34,43,867,1751,1878,2079,2223,2025,1847,1923,2061
265263,20836,-11656,21919,-10849,1122,713,83,-191,40,-231,250,3918,45,51,871,1751,1878,2079,2223,2025,1847,1923,2061
266264,20916,-11584,21984,-10784,754,504,94,-175,43,-150,219,4096,48,50,869,1751,1878,2079,2223,2025,1847,1923,2061
267265,20960,-11516,22049,-10719,1230,550,99,-181,33,-183,166,3962,39,38,868,1751,1878,2079,2223,2025,1847,1923,2061
268266,21020,-11460,22114,-10654,1037,712,103,-192,31,-196,76,3922,38,53,873,1745,1865,2065,2210,2016,1782,1866,1993
269267,21080,-11388,22179,-10589,1043,504,127,-181,32,-142,163,3987,36,50,868,1745,1865,2065,2210,2016,1782,1866,1993
270268,21132,-11320,22244,-10524,1159,550,142,-185,23,-251,135,3752,45,52,869,1745,1865,2065,2210,2016,1782,1866,1993
271269,21192,-11256,22309,-10459,1066,601,155,-176,19,-112,152,4018,33,43,870,1745,1865,2065,2210,2016,1782,1866,1993
272270,21248,-11200,22374,-10394,1127,713,177,-173,25,-148,57,3839,50,36,869,1745,1865,2065,2210,2016,1782,1866,1993
273271,21312,-11140,22439,-10329,1029,669,191,-178,32,-194,92,3864,52,38,870,1734,1856,2059,2240,2117,1881,1868,1991
274272,21360,-11076,22504,-10264,1250,621,206,-176,42,-314,133,3839,43,48,869,1734,1856,2059,2240,2117,1881,1868,1991
275273,21416,-11028,22569,-10199,1162,842,204,-186,54,-201,123,3808,43,39,868,1734,1856,2059,2240,2117,1881,1868,1991
276274,21476,-10940,22634,-10134,1118,314,205,-187,64,-135,211,3846,51,45,867,1734,1856,2059,2240,2117,1881,1868,1991
277275,21532,-10864,22699,-10069,1179,451,208,-172,73,-138,241,3856,37,50,867,1734,1856,2059,2240,2117,1881,1868,1991
278276,21596,-10824,22764,-10004,1081,932,211,-150,81,-28,138,3862,37,37,870,1734,1856,2059,2240,2117,1881,1868,1991
279277,21664,-10756,22829,-9939,1028,579,218,-121,85,147,192,3868,52,50,870,1745,1869,2072,2223,2019,1784,1869,1992
280278,21728,-10700,22894,-9874,1080,740,216,-100,83,227,166,3988,41,39,867,1745,1869,2072,2223,2019,1784,1869,1992
281279,21792,-10636,22959,-9809,1081,642,217,-69,90,10,139,3883,39,42,870,1745,1869,2072,2223,2019,1784,1869,1992
282280,21860,-10576,23024,-9744,1028,698,223,-69,96,-37,234,3781,43,44,868,1745,1869,2072,2223,2019,1784,1869,1992
283281,21936,-10524,23089,-9679,915,814,227,-82,91,-105,22,3661,38,45,869,1745,1869,2072,2223,2019,1784,1869,1992
284282,21992,-10452,23154,-9614,1177,555,226,-105,90,39,116,3908,52,47,869,1753,1880,2180,2305,2025,1788,1873,1999
285283,22056,-10392,23219,-9549,1078,713,231,-101,91,17,96,3895,51,50,869,1753,1880,2180,2305,2025,1788,1873,1999
286284,22128,-10336,23284,-9484,970,774,243,-92,90,24,35,3897,56,48,869,1753,1880,2180,2305,2025,1788,1873,1999
287285,22196,-10268,23349,-9419,1017,620,261,-90,94,-129,71,4155,40,39,868,1753,1880,2180,2305,2025,1788,1873,1999
288286,22260,-10232,23414,-9354,1068,1056,277,-107,93,26,18,3960,46,33,869,1753,1880,2180,2305,2025,1788,1873,1999
289287,22312,-10156,23479,-9289,1235,543,292,-119,91,75,44,4046,46,39,870,1753,1880,2180,2305,2025,1788,1873,1999
290288,22380,-10120,23544,-9224,1031,1078,298,-121,92,84,106,4124,48,47,866,1743,1866,2069,2213,2030,1789,1873,2002
291289,22436,-10060,23609,-9159,1193,785,302,-99,80,152,46,4119,41,36,868,1743,1866,2069,2213,2030,1789,1873,2002
292290,22488,-10000,23674,-9094,1259,791,308,-79,79,58,143,4124,32,36,865,1743,1866,2069,2213,2030,1789,1873,2002
293291,22564,-9956,23739,-9029,947,1017,318,-43,83,95,165,4218,36,46,866,1743,1866,2069,2213,2030,1789,1873,2002
294292,22608,-9896,23804,-8964,1372,824,325,-44,87,280,89,3926,38,48,866,1743,1866,2069,2213,2030,1789,1873,2002
295293,22664,-9844,23869,-8899,1233,940,326,-51,103,-127,207,4146,50,40,867,1803,1952,2069,2216,2035,1795,1881,2009
296294,22740,-9772,23934,-8834,971,683,317,-75,96,-71,131,3806,49,50,865,1803,1952,2069,2216,2035,1795,1881,2009
297295,22784,-9732,23999,-8769,1397,1113,318,-87,105,-150,148,3992,40,50,865,1803,1952,2069,2216,2035,1795,1881,2009
298296,22844,-9668,24064,-8704,1204,814,318,-137,112,-48,252,3808,38,50,869,1803,1952,2069,2216,2035,1795,1881,2009
299297,22896,-9592,24129,-8639,1320,652,320,-156,109,17,103,4053,58,36,862,1803,1952,2069,2216,2035,1795,1881,2009
300298,22976,-9532,24194,-8574,952,858,319,-177,111,-22,97,3732,39,41,867,1803,1952,2069,2216,2035,1795,1881,2009
301299,23036,-9468,24259,-8509,1208,809,326,-168,114,-70,85,3867,58,38,866,1749,1876,2080,2228,2046,1804,1889,2022
302300,23124,-9396,24324,-8444,831,702,316,-173,110,-39,-55,3654,50,46,869,1749,1876,2080,2228,2046,1804,1889,2022
303301,23188,-9352,24389,-8379,1133,1077,328,-164,100,161,84,4010,45,34,867,1749,1876,2080,2228,2046,1804,1889,2022
304302,23240,-9292,24454,-8314,1299,883,338,-160,103,81,-120,3883,44,46,871,1749,1876,2080,2228,2046,1804,1889,2022
305303,23304,-9224,24519,-8249,1151,781,348,-150,97,92,29,4184,37,47,865,1749,1876,2080,2228,2046,1804,1889,2022
306304,23384,-9168,24584,-8184,932,942,357,-156,106,-32,58,4169,56,40,865,1749,1876,2080,2216,2043,1800,1883,2016
307305,23428,-9108,24649,-8119,1409,899,362,-168,115,33,127,4143,51,32,867,1749,1876,2080,2216,2043,1800,1883,2016
308306,23504,-9056,24714,-8054,996,1015,364,-174,118,51,127,4121,47,46,868,1749,1876,2080,2216,2043,1800,1883,2016
309307,23564,-9000,24779,-7989,1203,976,364,-154,127,79,30,4047,37,46,863,1749,1876,2080,2216,2043,1800,1883,2016
310308,23624,-8940,24844,-7924,1209,933,352,-142,133,40,60,4016,36,34,866,1749,1876,2080,2216,2043,1800,1883,2016
311309,23684,-8888,24909,-7859,1216,1049,350,-152,132,-281,235,4003,47,36,865,1749,1876,2080,2216,2043,1800,1883,2016
312310,23748,-8816,24974,-7794,1167,790,348,-167,120,-414,262,3989,38,43,866,1743,1855,2063,2207,2015,1775,1871,2079
313311,23800,-8772,25039,-7729,1334,1167,358,-187,99,-153,314,3988,37,37,865,1743,1855,2063,2207,2015,1775,1871,2079
314312,23868,-8708,25104,-7664,1130,918,353,-198,95,-105,205,4085,40,46,867,1743,1855,2063,2207,2015,1775,1871,2079
315313,23912,-8644,25169,-7599,1457,920,360,-185,88,3,339,4169,48,36,863,1743,1855,2063,2207,2015,1775,1871,2079
316314,23972,-8608,25234,-7534,1263,1306,342,-193,93,-75,295,3935,43,49,866,1743,1855,2063,2207,2015,1775,1871,2079
317315,24044,-8556,25299,-7469,1105,1121,353,-196,92,-146,460,4098,60,45,864,1737,1862,2065,2211,2035,1796,1881,2011
318316,24096,-8480,25364,-7404,1371,809,357,-180,87,-144,319,3843,57,39,862,1737,1862,2065,2211,2035,1796,1881,2011
319317,24168,-8416,25429,-7339,1114,960,373,-178,89,-10,103,3949,44,50,865,1737,1862,2065,2211,2035,1796,1881,2011
320318,24244,-8372,25494,-7274,1050,1237,382,-178,97,46,291,4045,63,44,865,1737,1862,2065,2211,2035,1796,1881,2011
321319,24312,-8316,25559,-7209,1148,1098,396,-194,120,-399,89,3783,57,36,866,1737,1862,2065,2211,2035,1796,1881,2011
322320,24384,-8256,25624,-7144,1089,1054,392,-199,136,-342,161,3756,41,47,865,1737,1862,2065,2211,2035,1796,1881,2011
323321,24464,-8188,25689,-7079,971,951,394,-218,150,-208,181,3651,56,50,865,1743,1868,2079,2223,2044,1890,1939,2014
324322,24528,-8140,25754,-7014,1173,1222,381,-243,192,-331,-133,3525,45,44,866,1743,1868,2079,2223,2044,1890,1939,2014
325323,24608,-8072,25819,-6949,955,969,377,-271,210,-40,65,3742,53,43,868,1743,1868,2079,2223,2044,1890,1939,2014
326324,24676,-8012,25884,-6884,1102,1075,364,-283,224,-386,31,3607,52,36,862,1743,1868,2079,2223,2044,1890,1939,2014
327325,24732,-7956,25949,-6819,1263,1137,354,-279,223,-217,293,3797,53,44,866,1743,1868,2079,2223,2044,1890,1939,2014
328326,24796,-7896,26014,-6754,1165,1094,342,-276,222,-16,316,3626,39,50,865,1744,1866,2072,2208,2032,1788,1869,2003
329327,24852,-7836,26079,-6689,1276,1100,330,-272,213,235,196,3917,39,51,864,1744,1866,2072,2208,2032,1788,1869,2003
330328,24920,-7772,26144,-6624,1124,1052,325,-262,199,119,353,3862,50,46,865,1744,1866,2072,2208,2032,1788,1869,2003
331329,24980,-7720,26209,-6559,1230,1218,315,-242,173,67,453,4103,38,44,864,1744,1866,2072,2208,2032,1788,1869,2003
332330,25036,-7676,26274,-6494,1292,1344,310,-223,159,54,192,3977,38,43,866,1744,1866,2072,2208,2032,1788,1869,2003
333331,25104,-7608,26339,-6429,1138,1041,309,-218,131,241,626,4188,54,45,864,1744,1866,2072,2208,2032,1788,1869,2003
334332,25168,-7524,26404,-6364,1190,819,303,-232,136,-127,207,3648,58,39,861,1721,1843,2042,2249,2133,1785,1870,2009
335333,25240,-7468,26469,-6299,1082,1180,304,-256,141,50,329,3952,48,34,865,1721,1843,2042,2249,2133,1785,1870,2009
336334,25292,-7416,26534,-6234,1348,1246,313,-271,153,-241,278,3957,38,39,866,1721,1843,2042,2249,2133,1785,1870,2009
337335,25356,-7364,26599,-6169,1200,1262,317,-297,157,-405,108,3627,38,39,864,1721,1843,2042,2249,2133,1785,1870,2009
338336,25412,-7316,26664,-6104,1311,1333,329,-315,157,-386,241,3997,45,45,862,1721,1843,2042,2249,2133,1785,1870,2009
339337,25468,-7260,26729,-6039,1323,1245,334,-333,181,-533,20,3586,57,35,863,1711,1840,2045,2181,2053,1803,1886,2025
340338,25524,-7208,26794,-5974,1334,1311,347,-326,175,17,319,3819,48,46,862,1711,1840,2045,2181,2053,1803,1886,2025
341339,25620,-7140,26859,-5909,797,1108,356,-333,191,-339,224,3774,44,37,863,1711,1840,2045,2181,2053,1803,1886,2025
342340,25688,-7084,26924,-5844,1143,1269,373,-372,222,-48,218,3700,50,33,862,1711,1840,2045,2181,2053,1803,1886,2025
343341,25776,-7028,26989,-5779,866,1281,380,-402,238,183,95,3520,36,34,866,1711,1840,2045,2181,2053,1803,1886,2025
344345,25836,-6964,27054,-5714,1222,1182,380,-377,246,144,188,3904,57,40,862,1711,1840,2045,2181,2053,1803,1886,2025
345343,25896,-6904,27119,-5649,1229,1239,364,-355,254,172,221,3747,33,35,865,1733,1951,2182,2219,2044,1801,1881,2011
346344,25948,-6864,27184,-5584,1345,1520,358,-337,259,80,268,3804,43,36,864,1733,1951,2182,2219,2044,1801,1881,2011
347345,26028,-6792,27249,-5519,978,1112,348,-334,263,129,308,3841,54,52,863,1733,1951,2182,2219,2044,1801,1881,2011
348346,26084,-6736,27314,-5454,1289,1323,341,-344,256,237,246,3772,58,41,858,1733,1951,2182,2219,2044,1801,1881,2011
349347,26148,-6680,27379,-5389,1191,1335,333,-339,244,-10,202,3947,43,48,866,1733,1951,2182,2219,2044,1801,1881,2011
350348,26212,-6604,27444,-5324,1192,1072,334,-341,224,221,359,4071,39,53,862,1743,1863,2063,2224,2016,1782,1865,1984
351349,26276,-6560,27509,-5259,1195,1499,318,-356,212,542,392,4024,41,41,862,1743,1863,2063,2224,2016,1782,1865,1984
352350,26340,-6484,27574,-5194,1196,1085,310,-358,202,332,338,4261,53,38,864,1743,1863,2063,2224,2016,1782,1865,1984
353351,26396,-6428,27639,-5129,1307,1347,301,-346,183,-65,279,4233,44,50,861,1743,1863,2063,2224,2016,1782,1865,1984
354352,26472,-6368,27704,-5064,1044,1303,291,-351,177,124,244,4207,48,45,864,1743,1863,2063,2224,2016,1782,1865,1984
355353,26524,-6320,27769,-4999,1360,1475,297,-347,182,285,181,4316,42,43,861,1743,1863,2063,2224,2016,1782,1865,1984
356354,26596,-6252,27834,-4934,1103,1221,312,-345,179,5,159,4166,46,42,864,1801,1863,2071,2215,2027,1789,1871,2007
357355,26664,-6188,27899,-4869,1149,1274,316,-358,183,-160,151,4302,59,52,860,1801,1863,2071,2215,2027,1789,1871,2007
358356,26724,-6132,27964,-4804,1256,1385,321,-371,210,-130,178,4017,48,49,864,1801,1863,2071,2215,2027,1789,1871,2007
359357,26772,-6076,28029,-4739,1427,1397,321,-355,235,9,153,4185,41,50,864,1801,1863,2071,2215,2027,1789,1871,2007
360358,26840,-6012,28094,-4674,1174,1298,339,-326,248,110,336,4303,53,43,860,1801,1863,2071,2215,2027,1789,1871,2007
361359,26908,-5952,28159,-4609,1171,1355,360,-306,256,193,338,4275,53,47,859,1735,1864,2076,2217,2072,1822,1904,2045
362360,26996,-5888,28224,-4544,894,1306,375,-307,273,84,264,4074,56,33,863,1735,1864,2076,2217,2072,1822,1904,2045
363361,27064,-5832,28289,-4479,1140,1418,378,-301,288,144,270,3893,60,31,862,1735,1864,2076,2217,2072,1822,1904,2045
364362,27120,-5784,28354,-4414,1302,1539,378,-284,289,225,201,4017,38,45,865,1735,1864,2076,2217,2072,1822,1904,2045
365363,27184,-5752,28419,-4349,1203,1780,382,-268,301,70,238,4186,43,41,862,1735,1864,2076,2217,2072,1822,1904,2045
366364,27264,-5680,28484,-4284,986,1272,390,-264,297,207,483,4073,48,34,858,1735,1864,2076,2217,2072,1822,1904,2045
367365,27332,-5628,28549,-4219,1132,1538,395,-257,281,7,388,3967,55,34,858,1751,1881,2089,2233,2079,1826,1910,2042
368366,27392,-5576,28614,-4154,1238,1554,392,-276,270,92,475,4186,37,44,864,1751,1881,2089,2233,2079,1826,1910,2042
369367,27452,-5516,28679,-4089,1245,1461,376,-269,260,401,360,4173,44,39,860,1751,1881,2089,2233,2079,1826,1910,2042
370368,27512,-5464,28744,-4024,1251,1577,358,-252,260,429,416,4198,42,34,860,1751,1881,2089,2233,2079,1826,1910,2042
371369,27576,-5412,28809,-3959,1204,1594,348,-243,256,233,583,4295,54,47,861,1751,1881,2089,2233,2079,1826,1910,2042
372370,27644,-5352,28874,-3894,1150,1500,347,-240,236,170,505,4262,49,36,859,1756,1879,2086,2230,2051,1803,1936,2104
373371,27688,-5284,28939,-3829,1477,1398,349,-255,218,237,353,4151,54,34,859,1756,1879,2086,2230,2051,1803,1936,2104
374372,27764,-5220,29004,-3764,1063,1450,348,-290,219,165,301,4366,36,40,860,1756,1879,2086,2230,2051,1803,1936,2104
375373,27820,-5156,29069,-3699,1325,1451,350,-290,226,82,319,4380,50,35,859,1756,1879,2086,2230,2051,1803,1936,2104
376374,27892,-5124,29134,-3634,1117,1892,353,-297,234,-29,269,4257,41,48,862,1756,1879,2086,2230,2051,1803,1936,2104
377375,27948,-5064,29199,-3569,1329,1548,361,-300,238,101,256,4364,41,44,859,1756,1879,2086,2230,2051,1803,1936,2104
378376,27988,-4980,29264,-3504,1559,1226,378,-317,252,-95,267,4210,53,54,857,1741,1865,2077,2215,2038,1793,1871,2014
379377,28064,-4932,29329,-3439,1097,1697,382,-328,272,48,319,4335,45,50,859,1741,1865,2077,2215,2038,1793,1871,2014
380378,28124,-4876,29394,-3374,1303,1609,395,-347,293,273,295,4226,53,37,860,1741,1865,2077,2215,2038,1793,1871,2014
381379,28204,-4820,29459,-3309,1035,1620,405,-348,309,46,206,4139,57,46,859,1741,1865,2077,2215,2038,1793,1871,2014
382380,28296,-4744,29524,-3244,853,1358,407,-348,318,-146,299,4055,49,53,858,1741,1865,2077,2215,2038,1793,1871,2014
383381,28364,-4688,29589,-3179,1150,1620,409,-364,340,-131,384,4001,57,42,861,1746,1877,2086,2227,2145,1896,1888,2028
384382,28440,-4616,29654,-3114,1036,1411,405,-375,352,-158,376,3893,42,53,865,1746,1877,2086,2227,2145,1896,1888,2028
385383,28504,-4528,29719,-3049,1189,1184,409,-360,343,-188,636,4181,54,52,860,1746,1877,2086,2227,2145,1896,1888,2028
386384,28576,-4472,29784,-2984,1080,1595,415,-357,322,149,659,4006,39,40,864,1746,1877,2086,2227,2145,1896,1888,2028
387385,28644,-4424,29849,-2919,1126,1717,419,-384,306,576,783,3921,41,46,864,1746,1877,2086,2227,2145,1896,1888,2028
388386,28720,-4360,29914,-2854,1014,1518,416,-399,271,381,685,3787,37,33,860,1746,1877,2086,2227,2145,1896,1888,2028
389387,28776,-4308,29979,-2789,1275,1685,420,-383,239,-343,699,4197,41,46,859,1764,1892,2095,2237,2053,1802,1888,2024
390389,28844,-4232,30044,-2724,1122,1372,421,-390,225,278,825,3896,39,40,858,1764,1892,2095,2237,2053,1802,1888,2024
391389,28904,-4172,30109,-2659,1228,1578,446,-400,189,421,650,3920,38,34,862,1764,1892,2095,2237,2053,1802,1888,2024
392392,28960,-4120,30174,-2594,1290,1695,459,-445,172,-40,575,4036,47,33,859,1764,1892,2095,2237,2053,1802,1888,2024
393391,29036,-4060,30239,-2529,1027,1601,478,-486,166,-22,420,4047,52,42,857,1764,1892,2095,2237,2053,1802,1888,2024
394392,29084,-4004,30304,-2464,1399,1663,526,-499,175,-192,83,4135,43,45,860,1748,1880,2188,2300,2038,1791,1874,2004
395393,29164,-3940,30369,-2399,980,1566,562,-524,181,-625,38,4196,43,33,857,1748,1880,2188,2300,2038,1791,1874,2004
396394,29228,-3888,30434,-2334,1183,1731,592,-513,177,-430,301,4357,57,46,861,1748,1880,2188,2300,2038,1791,1874,2004
397395,29264,-3844,30499,-2269,1568,1858,608,-519,200,382,369,4088,46,40,858,1748,1880,2188,2300,2038,1791,1874,2004
398396,29340,-3776,30564,-2204,1055,1554,625,-539,237,331,410,4127,41,45,853,1748,1880,2188,2300,2038,1791,1874,2004
399397,29420,-3728,30629,-2139,987,1826,616,-538,244,62,616,4222,53,46,861,1745,1871,2076,2222,2001,1766,1853,1980
400398,29508,-3664,30694,-2074,859,1627,610,-532,266,-301,436,3994,41,32,859,1745,1871,2076,2222,2001,1766,1853,1980
401399,29572,-3624,30759,-2009,1161,1959,588,-547,300,85,339,3764,54,46,861,1745,1871,2076,2222,2001,1766,1853,1980
402400,29628,-3544,30824,-1944,1272,1442,580,-547,318,20,462,3781,36,33,856,1745,1871,2076,2222,2001,1766,1853,1980
403401,29716,-3488,30889,-1879,845,1753,574,-534,330,-167,578,3736,52,53,860,1745,1871,2076,2222,2001,1766,1853,1980
404402,29784,-3408,30954,-1814,1092,1435,575,-536,317,84,660,3862,34,46,861,1745,1871,2076,2222,2001,1766,1853,1980
405403,29832,-3356,31019,-1749,1363,1802,571,-536,305,20,659,3661,35,35,862,1821,1963,2087,2239,2013,1775,1864,1992
406404,29888,-3304,31084,-1684,1274,1818,566,-523,288,87,698,3720,42,39,856,1821,1963,2087,2239,2013,1775,1864,1992
407405,29956,-3236,31149,-1619,1122,1615,569,-498,250,250,898,3991,40,46,856,1821,1963,2087,2239,2013,1775,1864,1992
408406,30016,-3184,31214,-1554,1228,1831,589,-480,215,324,865,3854,35,51,860,1821,1963,2087,2239,2013,1775,1864,1992
409407,30060,-3112,31279,-1489,1454,1574,614,-474,179,447,758,3881,36,38,857,1821,1963,2087,2239,2013,1775,1864,1992
410408,30140,-3060,31344,-1424,986,1841,650,-480,143,77,703,3972,45,35,857,1745,1859,2067,2206,2036,1790,1866,2002
411409,30188,-3004,31409,-1359,1407,1802,684,-495,128,-284,628,3843,52,32,857,1745,1859,2067,2206,2036,1790,1866,2002
412410,30272,-2948,31474,-1294,935,1814,711,-516,119,-204,456,3734,52,44,855,1745,1859,2067,2206,2036,1790,1866,2002
413411,30348,-2896,31539,-1229,1021,1879,728,-534,127,-211,489,3964,45,40,859,1745,1859,2067,2206,2036,1790,1866,2002
414412,30400,-2824,31604,-1164,1338,1622,748,-515,148,-339,625,3915,37,46,858,1745,1859,2067,2206,2036,1790,1866,2002
415413,30468,-2764,31669,-1099,1135,1779,746,-486,166,-23,555,3897,53,51,856,1745,1859,2067,2206,2036,1790,1866,2002
416414,30524,-2708,31734,-1034,1297,1840,743,-480,191,258,719,4026,41,34,858,1719,1843,2059,2196,2031,1788,1864,2000
417415,30592,-2648,31799,-969,1143,1797,737,-462,216,-63,691,3951,58,33,856,1719,1843,2059,2196,2031,1788,1864,2000
418416,30660,-2596,31864,-904,1140,1914,734,-421,226,-45,665,3994,43,36,858,1719,1843,2059,2196,2031,1788,1864,2000
419417,30728,-2524,31929,-839,1137,1655,727,-395,235,240,836,3957,44,39,855,1719,1843,2059,2196,2031,1788,1864,2000
420418,30796,-2464,31994,-774,1133,1812,706,-372,244,389,828,3907,42,46,859,1719,1843,2059,2196,2031,1788,1864,2000
421419,30852,-2400,32059,-709,1295,1765,683,-335,247,191,831,3989,50,35,858,1732,1857,2071,2213,2034,1793,1871,2092
422420,30912,-2336,32124,-644,1251,1766,664,-315,247,-38,877,3929,44,46,857,1732,1857,2071,2213,2034,1793,1871,2092
423421,30976,-2288,32189,-579,1203,1988,650,-308,241,-1,806,4028,58,43,857,1732,1857,2071,2213,2034,1793,1871,2092
424422,31056,-2240,32254,-514,985,2009,634,-281,215,397,865,3964,63,46,855,1732,1857,2071,2213,2034,1793,1871,2092
425423,31136,-2164,32319,-449,968,1646,624,-298,201,184,748,3819,62,43,857,1732,1857,2071,2213,2034,1793,1871,2092
426424,31224,-2104,32384,-384,840,1853,617,-341,189,134,722,3932,46,39,861,1732,1857,2071,2213,2034,1793,1871,2092
427425,31292,-2036,32449,-319,1087,1749,617,-362,165,150,775,4042,51,42,858,1740,1860,2080,2220,2064,1818,1888,2032
428426,31392,-1968,32514,-254,644,1747,618,-372,122,47,746,4001,58,41,857,1740,1860,2080,2220,2064,1818,1888,2032
429427,31468,-1916,32579,-189,932,1964,619,-369,83,-21,699,4166,42,46,862,1740,1860,2080,2220,2064,1818,1888,2032
430428,31520,-1860,32644,-124,1248,1925,606,-354,62,340,797,4116,47,44,858,1740,1860,2080,2220,2064,1818,1888,2032
431429,31588,-1780,32709,-59,1044,1607,602,-346,56,420,888,4060,53,50,856,1740,1860,2080,2220,2064,1818,1888,2032
432430,31648,-1704,32774,6,1151,1645,595,-318,38,371,993,4270,49,40,861,1727,1855,2074,2204,2081,1917,1940,2048
433431,31708,-1648,32839,71,1157,1906,597,-282,15,218,837,4105,38,42,859,1727,1855,2074,2204,2081,1917,1940,2048
434432,31772,-1596,32904,136,1109,1973,592,-259,1,310,998,4250,55,36,856,1727,1855,2074,2204,2081,1917,1940,2048
435433,31844,-1544,32969,201,1001,1990,582,-242,-5,324,765,3946,55,35,856,1727,1855,2074,2204,2081,1917,1940,2048
436434,31908,-1456,33034,266,1102,1512,566,-235,-1,110,916,4315,39,41,857,1727,1855,2074,2204,2081,1917,1940,2048
437435,31960,-1380,33099,331,1269,1649,552,-239,7,-7,989,4148,55,43,861,1727,1855,2074,2204,2081,1917,1940,2048
438436,32020,-1328,33164,396,1175,1966,544,-230,6,18,977,4169,45,39,858,1724,1855,2074,2201,2078,1824,1896,2043
439437,32100,-1276,33229,461,908,1982,525,-261,-3,109,1104,4285,45,48,855,1724,1855,2074,2201,2078,1824,1896,2043
440438,32164,-1232,33294,526,1109,2108,514,-281,5,232,973,4026,47,46,858,1724,1855,2074,2201,2078,1824,1896,2043
441439,32228,-1172,33359,591,1111,1916,489,-296,7,10,949,4103,38,40,855,1724,1855,2074,2201,2078,1824,1896,2043
442441,32300,-1096,33424,656,1003,1702,471,-312,6,-64,1114,4266,40,38,856,1724,1855,2074,2201,2078,1824,1896,2043
443441,32376,-1012,33489,721,940,1580,463,-316,-9,394,1055,4243,51,52,860,1723,1856,2073,2277,2172,1820,1891,2039
444442,32448,-952,33554,786,982,1887,461,-325,-36,309,1050,4201,52,45,859,1723,1856,2073,2277,2172,1820,1891,2039
445443,32500,-916,33619,851,1247,2222,448,-340,-68,135,966,4296,35,47,856,1723,1856,2073,2277,2172,1820,1891,2039
446444,32572,-840,33684,916,990,1710,435,-355,-109,408,1104,4117,52,44,852,1723,1856,2073,2277,2172,1820,1891,2039
447445,32628,-776,33749,981,1201,1862,418,-352,-142,504,1087,4233,42,49,860,1723,1856,2073,2277,2172,1820,1891,2039
448446,32700,-712,33814,1046,993,1863,400,-334,-169,680,1130,4229,41,39,856,1723,1856,2073,2277,2172,1820,1891,2039
449447,32764,-656,33879,1111,1095,1975,388,-314,-198,621,1108,4177,39,35,858,1737,1866,2087,2218,2074,1821,1890,2042
450448,32832,-600,33944,1176,1041,1987,385,-320,-226,448,1123,4125,54,35,855,1737,1866,2087,2218,2074,1821,1890,2042
451449,32900,-532,34009,1241,1038,1834,380,-328,-257,469,1043,4252,38,49,856,1737,1866,2087,2218,2074,1821,1890,2042
452450,32940,-476,34074,1306,1419,1996,364,-330,-272,248,1085,4096,39,40,857,1737,1866,2087,2218,2074,1821,1890,2042
453451,33012,-416,34139,1371,1011,1953,360,-328,-278,226,1200,4319,47,48,853,1737,1866,2087,2218,2074,1821,1890,2042
454452,33068,-348,34338,1570,2073,2700,344,-336,-283,351,1246,4067,59,34,857,1742,1949,2195,2219,2069,1816,1887,2034
455453,33152,-300,34403,1635,1701,2972,347,-346,-280,278,1156,4182,58,11,838,1742,1949,2195,2219,2069,1816,1887,2034
456454,33220,-248,34468,1700,1897,2938,337,-356,-268,203,1267,4127,68,10,838,1742,1949,2195,2219,2069,1816,1887,2034
457455,33292,-180,34533,1765,1839,2736,338,-347,-260,269,1213,4132,71,16,837,1742,1949,2195,2219,2069,1816,1887,2034
458456,33436,-96,34598,1830,843,2513,343,-342,-259,508,1324,4383,77,43,840,1742,1949,2195,2219,2069,1816,1887,2034
459457,33532,-12,34663,1895,1405,2490,353,-358,-243,54,1363,4147,64,45,852,1742,1949,2195,2219,2069,1816,1887,2034
460458,33660,76,34728,1960,929,2413,361,-380,-206,-393,817,3979,68,39,847,1736,1866,2085,2214,2064,1812,1882,2026
461459,33768,148,34793,2025,1127,2605,369,-390,-196,-209,1090,4561,65,57,851,1736,1866,2085,2214,2064,1812,1882,2026
462460,33852,244,34858,2090,1405,2268,376,-392,-213,235,1452,4456,76,45,849,1736,1866,2085,2214,2064,1812,1882,2026
463461,33956,340,34923,2155,1107,2231,386,-415,-220,576,1450,4368,77,54,850,1736,1866,2085,2214,2064,1812,1882,2026
464462,34052,448,34988,2220,1169,2030,401,-470,-240,509,1651,4185,69,63,854,1736,1866,2085,2214,2064,1812,1882,2026
465463,34156,540,35053,2285,1022,2197,422,-493,-271,31,1484,4475,69,60,856,1788,1868,2090,2224,2054,1803,1877,2022
466464,34268,628,35118,2350,865,2220,435,-481,-311,385,1597,4538,76,57,855,1788,1868,2090,2224,2054,1803,1877,2022
467465,34344,724,35183,2415,1302,2083,450,-436,-347,697,1618,4581,66,65,856,1788,1868,2090,2224,2054,1803,1877,2022
468466,34456,836,35248,2480,795,1825,460,-394,-353,732,1555,4592,67,59,854,1788,1868,2090,2224,2054,1803,1877,2022
469467,34564,944,35313,2545,793,1824,476,-365,-377,664,1590,4661,70,60,860,1788,1868,2090,2224,2054,1803,1877,2022
470468,34644,1036,35378,2610,1124,1991,476,-377,-391,280,1522,4466,63,56,860,1788,1868,2090,2224,2054,1803,1877,2022
471469,34736,1144,35443,2675,943,1739,481,-376,-389,470,1560,4470,65,48,856,1775,1900,2123,2262,2044,1797,1874,2019
472470,34824,1216,35508,2740,964,2182,494,-330,-379,708,1705,4343,66,64,860,1775,1900,2123,2262,2044,1797,1874,2019
473471,34928,1304,35573,2805,717,1954,506,-319,-365,319,1501,4148,62,43,855,1775,1900,2123,2262,2044,1797,1874,2019
474472,35024,1396,35638,2870,779,1872,524,-353,-378,71,1487,4259,59,59,859,1775,1900,2123,2262,2044,1797,1874,2019
475473,35104,1468,35703,2935,962,2113,525,-415,-371,-70,1385,4387,57,57,859,1775,1900,2123,2262,2044,1797,1874,2019
476474,35196,1552,35768,3000,779,1941,551,-435,-360,248,1466,4388,52,41,856,1804,1924,2150,2288,2040,1802,1872,2016
477475,35276,1632,35833,3065,910,1973,555,-476,-358,30,1437,4082,58,46,859,1804,1924,2150,2288,2040,1802,1872,2016
478476,35368,1708,35898,3130,727,2010,567,-522,-341,-345,1546,4435,47,57,857,1804,1924,2150,2288,2040,1802,1872,2016
479477,35436,1784,35963,3195,1025,1997,568,-561,-318,-65,1711,3985,47,43,856,1804,1924,2150,2288,2040,1802,1872,2016
480478,35516,1852,36028,3260,857,2094,565,-576,-307,156,1720,4287,42,43,856,1804,1924,2150,2288,2040,1802,1872,2016
481479,35600,1936,36093,3325,783,1872,564,-580,-302,192,1663,4269,62,56,857,1804,1924,2150,2288,2040,1802,1872,2016
482480,35680,2024,36158,3390,815,1794,569,-571,-301,76,1656,4556,52,48,860,1784,1906,2128,2257,2042,1796,1923,2113
483481,35740,2116,36223,3455,1071,1712,597,-554,-303,42,1510,4706,50,57,859,1784,1906,2128,2257,2042,1796,1923,2113
484482,35832,2208,36288,3520,638,1679,687,-687,-286,466,1420,4499,41,48,859,1784,1906,2128,2257,2042,1796,1923,2113
485483,35896,2304,36353,3585,990,1592,762,-934,-292,830,1428,4457,53,64,863,1784,1906,2128,2257,2042,1796,1923,2113
486484,35952,2352,36418,3650,1101,2213,702,-956,-409,-420,920,4905,38,56,861,1784,1906,2128,2257,2042,1796,1923,2113
487485,36016,2460,36483,3715,1003,1411,610,-638,-588,-1695,825,6348,50,59,854,1752,1878,2098,2218,2048,1794,1880,2042
488486,36096,2552,36548,3780,784,1579,576,-486,-512,1302,2077,3638,43,52,863,1752,1878,2098,2218,2048,1794,1880,2042
489487,36176,2632,36613,3845,766,1711,544,-535,-349,2323,1994,4014,61,52,862,1752,1878,2098,2218,2048,1794,1880,2042
490488,36256,2732,36678,3910,748,1418,485,-624,-404,675,1680,3550,55,53,861,1752,1878,2098,2218,2048,1794,1880,2042
491489,36316,2808,36743,3975,1005,1705,479,-697,-514,-791,1301,4325,40,50,865,1752,1878,2098,2218,2048,1794,1880,2042
492490,36400,2880,36808,4040,682,1748,474,-707,-525,-905,1434,3908,44,58,860,1752,1878,2098,2218,2048,1794,1880,2042
493491,36452,2964,36873,4105,1097,1574,453,-529,-495,527,1360,3815,47,51,862,1749,1874,2088,2205,2199,1938,1917,2080
494492,36516,3040,36938,4170,949,1662,413,-505,-431,643,1177,3786,42,48,861,1749,1874,2088,2205,2199,1938,1917,2080
495493,36608,3120,37003,4235,566,1594,395,-645,-403,-297,1179,3880,42,54,860,1749,1874,2088,2205,2199,1938,1917,2080
496494,36672,3200,37068,4300,917,1576,412,-777,-395,-1072,1412,3663,43,59,864,1749,1874,2088,2205,2199,1938,1917,2080
497495,36744,3280,37133,4365,809,1558,446,-847,-383,-824,1166,3558,37,53,863,1749,1874,2088,2205,2199,1938,1917,2080
498496,36808,3368,37198,4430,911,1430,472,-966,-375,91,960,3533,54,46,864,1695,1823,2054,2163,2124,1858,1904,2063
499497,36884,3440,37263,4495,747,1622,495,-1096,-373,-293,878,3986,49,59,864,1695,1823,2054,2163,2124,1858,1904,2063
500498,36956,3516,37328,4560,789,1559,493,-1115,-379,-672,1023,4119,41,59,863,1695,1823,2054,2163,2124,1858,1904,2063
501499,37032,3592,37393,4625,725,1546,473,-1072,-392,25,1147,3682,45,48,863,1695,1823,2054,2163,2124,1858,1904,2063
502500,37096,3668,37458,4690,876,1533,416,-1054,-397,413,1161,3562,42,56,864,1695,1823,2054,2163,2124,1858,1904,2063
503501,37148,3772,37523,4755,1042,1135,356,-1029,-402,434,1370,3754,47,58,864,1695,1823,2054,2163,2124,1858,1904,2063
504502,37232,3840,37588,4820,620,1583,313,-976,-387,592,1448,3586,51,59,865,1684,1816,2135,2214,2060,1792,1859,2010
505503,37292,3916,37653,4885,926,1469,300,-936,-374,883,1639,3577,39,52,864,1684,1816,2135,2214,2060,1792,1859,2010
506504,37364,3988,37718,4950,768,1512,265,-899,-389,706,1376,3640,38,42,863,1684,1816,2135,2214,2060,1792,1859,2010
507505,37432,4060,37783,5015,814,1503,230,-875,-409,261,1378,3626,54,40,864,1684,1816,2135,2214,2060,1792,1859,2010
508506,37492,4140,37848,5080,920,1385,178,-842,-403,146,1498,3624,51,38,864,1684,1816,2135,2214,2060,1792,1859,2010
509507,37568,4200,37913,5145,707,1642,128,-810,-391,293,1422,3232,53,49,864,1699,1825,2035,2156,2015,1767,1842,1983
510508,37640,4264,37978,5210,748,1593,87,-816,-375,239,1369,3305,53,44,862,1699,1825,2035,2156,2015,1767,1842,1983
511509,37704,4320,38043,5275,849,1704,65,-869,-353,-143,1278,3011,39,53,864,1699,1825,2035,2156,2015,1767,1842,1983
512510,37788,4392,38108,5340,577,1497,52,-922,-337,-398,1321,2947,53,37,862,1699,1825,2035,2156,2015,1767,1842,1983
513511,37852,4460,38173,5405,828,1543,51,-981,-320,-334,1252,2971,52,41,865,1699,1825,2035,2156,2015,1767,1842,1983
514512,37928,4540,38238,5470,665,1375,54,-1003,-298,-360,1069,3046,38,56,863,1699,1825,2035,2156,2015,1767,1842,1983
515513,37988,4620,38303,5535,871,1357,74,-1026,-267,-276,1104,3112,42,59,866,1743,1875,2038,2150,2026,1777,1838,1982
516514,38084,4684,38368,5600,383,1559,87,-1013,-237,-208,1014,3040,41,55,865,1743,1875,2038,2150,2026,1777,1838,1982
517515,38128,4760,38433,5665,1059,1395,116,-1010,-202,-102,1074,3027,38,60,866,1743,1875,2038,2150,2026,1777,1838,1982
518516,38216,4836,38498,5730,481,1383,141,-989,-178,163,1129,3019,39,46,864,1743,1875,2038,2150,2026,1777,1838,1982
519517,38288,4920,38563,5795,672,1260,168,-985,-144,96,1132,2965,45,61,867,1743,1875,2038,2150,2026,1777,1838,1982
520518,38364,5008,38628,5860,609,1182,189,-976,-125,-20,1180,2844,39,58,867,1679,1805,2025,2145,2005,1755,1826,1958
521519,38448,5104,38693,5925,487,1045,205,-968,-106,289,1270,2868,40,47,868,1679,1805,2025,2145,2005,1755,1826,1958
522520,38508,5180,38758,5990,793,1281,244,-911,-74,740,1208,2647,38,56,870,1679,1805,2025,2145,2005,1755,1826,1958
523521,38564,5252,38823,6055,854,1323,277,-821,-30,582,1161,2837,52,55,866,1679,1805,2025,2145,2005,1755,1826,1958
524522,38656,5324,38888,6120,371,1315,280,-721,-11,258,1204,2855,42,44,865,1679,1805,2025,2145,2005,1755,1826,1958
525523,38736,5404,38953,6185,502,1197,246,-661,2,94,1343,2751,58,51,868,1679,1805,2025,2145,2005,1755,1826,1958
526524,38788,5484,39018,6250,868,1179,191,-592,36,448,1424,3118,41,43,869,1710,1820,2024,2163,1942,1709,1783,1893
527525,38856,5556,39083,6315,665,1271,138,-490,84,701,1556,2814,50,46,867,1710,1820,2024,2163,1942,1709,1783,1893
528526,38920,5632,39148,6380,716,1208,89,-415,115,624,1527,2940,42,62,867,1710,1820,2024,2163,1942,1709,1783,1893
529527,38992,5712,39213,6445,607,1139,57,-406,115,193,1312,2655,40,58,868,1710,1820,2024,2163,1942,1709,1783,1893
530528,39080,5792,39278,6510,379,1121,41,-431,116,-244,1284,2884,42,57,868,1710,1820,2024,2163,1942,1709,1783,1893
531529,39152,5888,39343,6575,571,884,26,-446,136,-260,1139,2599,39,57,870,1707,1807,2014,2155,1939,1719,1783,1987
532530,39236,5952,39408,6640,398,1285,20,-463,155,-142,1035,2757,37,49,871,1707,1807,2014,2155,1939,1719,1783,1987
533531,39300,6032,39473,6705,650,1067,23,-507,187,-260,878,2703,39,59,869,1707,1807,2014,2155,1939,1719,1783,1987
534532,39380,6104,39538,6770,431,1158,39,-541,223,-499,768,2681,45,49,869,1707,1807,2014,2155,1939,1719,1783,1987
535533,39444,6196,39603,6835,633,877,69,-529,252,-238,694,2882,41,58,870,1707,1807,2014,2155,1939,1719,1783,1987
536534,39520,6292,39668,6900,469,789,98,-528,287,38,666,2802,37,54,871,1707,1807,2014,2155,1939,1719,1783,1987
537535,39592,6360,39733,6965,511,1135,133,-504,318,293,657,2841,54,53,872,1665,1774,2002,2122,2014,1774,1828,1977
538536,39668,6460,39798,7030,447,692,159,-453,342,368,657,2880,37,63,869,1665,1774,2002,2122,2014,1774,1828,1977
539537,39748,6532,39863,7095,379,1035,170,-391,375,355,583,2730,52,62,873,1665,1774,2002,2122,2014,1774,1828,1977
540538,39828,6628,39928,7160,361,697,185,-330,433,535,876,2679,55,53,871,1665,1774,2002,2122,2014,1774,1828,1977
541539,39896,6708,39993,7225,507,879,177,-273,471,614,1009,2545,46,61,874,1665,1774,2002,2122,2014,1774,1828,1977
542540,39952,6800,40058,7290,668,696,143,-225,501,484,1045,2650,36,62,872,1665,1792,2006,2120,2029,1861,1903,2003
543541,40024,6872,40123,7355,459,937,85,-176,533,422,1247,2732,41,60,872,1665,1792,2006,2120,2029,1861,1903,2003
544542,40100,6948,40188,7420,396,875,4,-127,567,390,1351,2737,36,61,871,1665,1792,2006,2120,2029,1861,1903,2003
545543,40168,7028,40253,7485,492,806,-94,-78,591,575,1451,2765,53,55,872,1665,1792,2006,2120,2029,1861,1903,2003
546544,40228,7112,40318,7550,598,733,-183,-73,609,401,1410,2671,52,43,873,1665,1792,2006,2120,2029,1861,1903,2003
547545,40280,7192,40383,7615,714,765,-275,-73,608,60,1378,2890,53,53,871,1665,1792,2006,2120,2029,1861,1903,2003
548546,40356,7268,40448,7680,401,801,-347,-75,592,-36,1234,2919,45,48,871,1679,1800,1999,2120,2031,1782,1852,1995
549547,40440,7320,40513,7745,278,1117,-412,-104,579,205,1164,2931,41,58,873,1679,1800,1999,2120,2031,1782,1852,1995
550548,40528,7408,40578,7810,200,640,-467,-139,576,49,932,3070,50,50,871,1679,1800,1999,2120,2031,1782,1852,1995
551549,40604,7468,40643,7875,336,996,-513,-175,573,-14,806,3020,36,46,875,1679,1800,1999,2120,2031,1782,1852,1995
552550,40652,7540,40708,7940,707,838,-543,-210,573,-176,555,3141,44,53,872,1679,1800,1999,2120,2031,1782,1852,1995
553551,40724,7624,40773,8005,398,665,-552,-208,579,-96,356,3198,33,53,871,1631,1752,1974,2130,2206,1862,1880,2055
554552,40800,7704,40838,8070,335,696,-547,-179,596,155,268,3240,44,49,874,1631,1752,1974,2130,2206,1862,1880,2055
555553,40880,7788,40903,8135,267,623,-535,-148,621,419,422,3106,45,49,874,1631,1752,1974,2130,2206,1862,1880,2055
556554,40948,7856,40968,8200,413,819,-533,-142,626,466,416,3065,39,52,875,1631,1752,1974,2130,2206,1862,1880,2055
557555,41032,7924,41033,8265,190,817,-545,-165,622,179,542,3029,54,42,873,1631,1752,1974,2130,2206,1862,1880,2055
558556,41104,8008,41098,8330,331,594,-570,-177,626,-59,671,2999,42,49,874,1631,1752,1974,2130,2206,1862,1880,2055
559557,41160,8092,41163,8395,542,570,-586,-183,648,484,929,2770,38,41,875,1613,1747,1985,2083,2118,1849,1892,2052
560558,41232,8148,41228,8460,334,931,-632,-168,675,708,1041,2600,37,50,874,1613,1747,1985,2083,2118,1849,1892,2052
561559,41304,8220,41293,8525,325,723,-713,-137,708,238,942,2694,56,56,873,1613,1747,1985,2083,2118,1849,1892,2052
562560,41372,8296,41358,8590,371,659,-816,-78,729,191,1074,2668,40,46,874,1613,1747,1985,2083,2118,1849,1892,2052
563561,41436,8376,41423,8655,423,591,-947,-5,764,353,1200,2977,47,54,874,1613,1747,1985,2083,2118,1849,1892,2052
564562,41520,8448,41488,8720,149,683,-1079,61,804,693,1272,3098,42,41,873,1662,1853,2069,2148,2039,1791,1857,1990
565563,41588,8528,41553,8785,346,564,-1217,114,828,885,1304,3036,38,45,875,1662,1853,2069,2148,2039,1791,1857,1990
566564,41660,8588,41618,8850,287,821,-1333,161,831,565,1277,3175,36,57,875,1662,1853,2069,2148,2039,1791,1857,1990
567565,41736,8652,41683,8915,224,773,-1424,197,813,432,1175,3144,43,56,873,1662,1853,2069,2148,2039,1791,1857,1990
568566,41804,8724,41748,8980,320,664,-1492,244,787,390,1047,3416,43,46,874,1662,1853,2069,2148,2039,1791,1857,1990
569570,41904,8788,41813,9045,-123,765,-1539,268,768,581,892,3059,39,46,875,1662,1853,2069,2148,2039,1791,1857,1990
570568,41980,8892,41878,9110,164,218,-1552,247,748,401,775,2910,50,46,870,1656,1774,1987,2100,2071,1822,1867,2022
571569,42060,8984,41943,9175,96,335,-1549,237,733,-70,518,2969,42,51,877,1656,1774,1987,2100,2071,1822,1867,2022
572570,42132,9056,42008,9240,187,576,-1523,234,738,-141,378,2773,54,55,877,1656,1774,1987,2100,2071,1822,1867,2022
573571,42216,9136,42073,9305,14,458,-1495,234,733,195,362,2803,49,55,876,1656,1774,1987,2100,2071,1822,1867,2022
574572,42312,9220,42138,9370,-174,385,-1471,210,725,230,390,2692,35,43,877,1656,1774,1987,2100,2071,1822,1867,2022
575573,42384,9300,42203,9435,118,416,-1461,224,727,242,362,2948,34,40,869,1655,1764,1972,2077,2107,1842,1872,2022
576574,42456,9364,42268,9500,109,618,-1460,279,740,457,561,3006,43,44,877,1655,1764,1972,2077,2107,1842,1872,2022
577575,42536,9436,42333,9565,-9,509,-1486,354,756,676,788,2798,50,39,875,1655,1764,1972,2077,2107,1842,1872,2022
578576,42620,9512,42398,9630,-82,446,-1530,478,780,860,865,3152,49,40,876,1655,1764,1972,2077,2107,1842,1872,2022
579577,42704,9592,42463,9695,-106,377,-1598,618,805,1037,974,2943,53,48,875,1655,1764,1972,2077,2107,1842,1872,2022
580578,42840,9652,42528,9760,-842,634,-1658,762,837,1208,1042,2983,53,41,874,1655,1764,1972,2077,2107,1842,1872,2022
581579,42968,9732,42593,9825,-820,366,-1739,889,881,1246,1025,2936,47,40,875,1640,1770,1992,2116,2017,1774,1833,1949
582580,43084,9804,42658,9890,-733,457,-1820,1005,922,1218,1011,2874,43,45,878,1640,1770,1992,2116,2017,1774,1833,1949
583581,43140,9888,42723,9955,28,284,-1919,1090,963,894,901,2596,36,42,877,1640,1770,1992,2116,2017,1774,1833,1949
584582,43212,9952,42788,10020,-180,536,-1987,1113,978,394,1291,2587,38,50,878,1640,1770,1992,2116,2017,1774,1833,1949
585583,43300,10016,42853,10085,-408,537,-2043,1078,992,-72,1109,2499,45,38,868,1640,1770,1992,2116,2017,1774,1833,1949
586584,43360,10112,42918,10150,-52,99,-2079,1022,994,244,833,2911,44,49,876,1675,1786,2001,2150,1986,1762,1817,1917
587585,43432,10188,42983,10215,-212,335,-2087,923,985,338,802,2801,34,43,879,1675,1786,2001,2150,1986,1762,1817,1917
588586,43504,10288,43048,10280,-220,-7,-2045,873,980,281,692,3137,38,47,867,1675,1786,2001,2150,1986,1762,1817,1917
589587,43580,10352,43113,10345,-284,444,-1986,879,959,480,646,3193,47,43,867,1675,1786,2001,2150,1986,1762,1817,1917
590588,43656,10440,43178,10410,-297,116,-1910,882,938,532,225,3287,53,55,877,1675,1786,2001,2150,1986,1762,1817,1917
591589,43736,10532,43243,10475,-365,33,-1824,819,928,898,235,3142,35,54,878,1675,1786,2001,2150,1986,1762,1817,1917
592590,43800,10600,43308,10540,-164,329,-1740,741,937,877,476,3222,48,43,879,1660,1778,1976,2106,1986,1750,1853,2055
593591,43868,10676,43373,10605,-219,216,-1662,754,944,721,229,3369,40,40,878,1660,1778,1976,2106,1986,1750,1853,2055
594592,43924,10756,43438,10670,-58,148,-1594,795,948,1016,318,3329,40,50,867,1660,1778,1976,2106,1986,1750,1853,2055
595593,44004,10824,43503,10735,-376,294,-1567,828,983,1192,417,3406,46,40,878,1660,1778,1976,2106,1986,1750,1853,2055
596594,44088,10892,43568,10800,-449,290,-1539,917,1026,1185,461,3505,44,44,878,1660,1778,1976,2106,1986,1750,1853,2055
597595,44148,10968,43633,10865,-143,176,-1528,969,1044,1273,682,3274,43,39,878,1720,1872,2072,2184,1928,1718,1820,1928
598596,44224,11052,43698,10930,-358,53,-1529,959,1080,832,876,3284,42,37,877,1720,1872,2072,2184,1928,1718,1820,1928
599597,44292,11124,43763,10995,-261,194,-1518,980,1126,733,1040,3232,49,53,879,1720,1872,2072,2184,1928,1718,1820,1928
600598,44360,11192,43828,11060,-265,240,-1501,1040,1161,943,748,3327,39,45,878,1720,1872,2072,2184,1928,1718,1820,1928
601599,44440,11308,43893,11125,-433,-422,-1472,1000,1179,1164,519,3310,48,51,878,1720,1872,2072,2184,1928,1718,1820,1928
602600,44512,11520,43958,11190,-342,-1801,-1426,884,1181,232,533,3601,47,38,877,1720,1872,2072,2184,1928,1718,1820,1928
603601,44576,11588,44023,11255,-242,-5,-1376,821,1189,-233,715,3758,36,35,862,1835,1968,2129,2296,1936,1772,1846,1893
604602,44668,11644,44088,11320,-625,156,-1298,710,1200,382,702,3558,27,18,879,1835,1968,2129,2296,1936,1772,1846,1893
605603,44732,11692,44153,11385,-273,277,-1242,504,1169,-206,290,4315,53,23,879,1835,1968,2129,2296,1936,1772,1846,1893
606604,44816,11736,44218,11450,-546,352,-1159,315,1134,-888,-143,4465,55,29,878,1835,1968,2129,2296,1936,1772,1846,1893
607605,44900,11784,44283,11515,-571,323,-1064,202,1133,-25,250,4672,41,27,878,1835,1968,2129,2296,1936,1772,1846,1893
608606,44964,11852,44348,11580,-319,68,-953,139,1124,768,263,4564,54,37,878,1848,1968,2135,2308,1918,1706,1814,1925
609607,45044,11904,44413,11645,-538,284,-834,134,1108,1039,-119,4565,38,43,879,1848,1968,2135,2308,1918,1706,1814,1925
610608,45120,11968,44478,11710,-501,136,-723,119,1113,798,-271,4302,38,35,878,1848,1968,2135,2308,1918,1706,1814,1925
611609,45196,12032,44543,11775,-516,137,-615,115,1118,688,-45,4388,55,30,879,1848,1968,2135,2308,1918,1706,1814,1925
612610,45292,12104,44608,11840,-803,28,-527,136,1118,1015,-50,4435,42,43,871,1848,1968,2135,2308,1918,1706,1814,1925
613611,45380,12172,44673,11905,-732,75,-464,141,1125,1040,-75,4288,42,39,879,1848,1968,2135,2308,1918,1706,1814,1925
614612,45472,12228,44738,11970,-814,236,-427,148,1166,711,-221,4351,44,43,879,1885,2009,2184,2422,2053,1746,1859,1964
615613,45556,12296,44803,12035,-739,82,-409,180,1207,583,-74,4411,42,33,877,1885,2009,2184,2422,2053,1746,1859,1964
616614,45644,12372,44868,12100,-817,-32,-396,222,1238,438,-60,4446,53,49,871,1885,2009,2184,2422,2053,1746,1859,1964
617617,45752,12448,44933,12165,-1119,-45,-387,219,1256,532,-86,4457,48,39,879,1885,2009,2184,2422,2053,1746,1859,1964
618616,45836,12536,44998,12230,-843,-224,-387,136,1264,486,-250,4568,48,52,879,1885,2009,2184,2422,2053,1746,1859,1964
619617,45920,12608,45063,12295,-867,-33,-380,74,1264,-87,-303,4662,62,47,878,1904,2018,2188,2369,1993,1790,1888,1988
620618,46024,12688,45128,12360,-1164,-151,-362,9,1253,-209,-312,4605,61,52,876,1904,2018,2188,2369,1993,1790,1888,1988
621619,46120,12748,45193,12425,-1103,105,-327,-23,1230,-81,-489,4996,47,37,879,1904,2018,2188,2369,1993,1790,1888,1988
622620,46208,12828,45258,12490,-1031,-163,-282,-109,1211,-66,-642,4721,58,48,879,1904,2018,2188,2369,1993,1790,1888,1988
623621,46312,12916,45323,12555,-1279,-291,-220,-192,1181,-497,-784,4836,66,41,879,1904,2018,2188,2369,1993,1790,1888,1988
624622,46404,12988,45388,12620,-1163,-100,-154,-260,1128,-390,-754,5011,54,42,875,1817,1999,2177,2287,2076,1850,1906,2044
625623,46508,13056,45453,12685,-1360,-53,-94,-286,1063,-145,-726,4966,55,40,879,1817,1999,2177,2287,2076,1850,1906,2044
626624,46624,13136,45518,12750,-1573,-223,-50,-318,1038,-80,-524,4375,49,39,879,1817,1999,2177,2287,2076,1850,1906,2044
627625,46712,13228,45583,12815,-1252,-406,0,-331,1005,481,-224,4864,63,53,878,1817,1999,2177,2287,2076,1850,1906,2044
628626,46844,13300,45648,12880,-1883,-164,39,-293,981,304,-712,4467,54,53,875,1817,1999,2177,2287,2076,1850,1906,2044
629627,46932,13376,45713,12945,-1363,-228,74,-192,984,279,-1241,4414,60,42,879,1817,1999,2177,2287,2076,1850,1906,2044
630628,47064,13440,45778,13010,-1994,-76,67,-43,972,780,-989,4502,64,43,878,1766,1896,2092,2220,2094,1856,1934,2050
631629,47160,13504,45843,13075,-1583,-75,23,99,974,664,-1017,4260,54,53,879,1766,1896,2092,2220,2094,1856,1934,2050
632630,47268,13572,45908,13140,-1786,-130,-72,235,977,633,-1011,4375,66,39,875,1766,1896,2092,2220,2094,1856,1934,2050
633631,47388,13624,45973,13205,-2004,86,-200,297,980,132,-1124,3879,69,45,879,1766,1896,2092,2220,2094,1856,1934,2050
634632,47500,13716,46038,13270,-1961,-447,-333,316,984,-100,-1470,4269,59,48,879,1766,1896,2092,2220,2094,1856,1934,2050
635633,47612,13772,46103,13335,-2020,14,-444,302,989,-108,-1235,4036,67,40,877,1811,1876,2070,2231,2074,1857,1922,2028
636634,47732,13824,46168,13400,-2187,80,-522,256,989,-847,-1320,4129,72,49,879,1811,1876,2070,2231,2074,1857,1922,2028
637635,47844,13892,46233,13465,-2145,-124,-565,162,975,-1030,-1472,4478,79,39,879,1811,1876,2070,2231,2074,1857,1922,2028
638636,47972,13972,46298,13530,-2423,-293,-579,31,949,-952,-1495,4470,62,37,879,1811,1876,2070,2231,2074,1857,1922,2028
639637,48084,14032,46363,13595,-2280,-37,-564,-77,910,-696,-1515,4534,72,37,878,1811,1876,2070,2231,2074,1857,1922,2028
640638,48196,14092,46428,13660,-2339,-31,-520,-176,863,-546,-1559,4823,61,46,879,1811,1876,2070,2231,2074,1857,1922,2028
641639,48348,14164,46493,13725,-2946,-189,-496,-212,828,-479,-1711,4738,67,50,879,1677,1788,2007,2158,2150,1911,1965,2095
642640,48456,14216,46558,13790,-2448,76,-479,-208,804,-89,-1639,4511,69,44,878,1677,1788,2007,2158,2150,1911,1965,2095
643641,48564,14276,46623,13855,-2502,-17,-480,-176,773,320,-1347,4290,76,49,879,1677,1788,2007,2158,2150,1911,1965,2095
644642,48704,14356,46688,13920,-2994,-287,-503,-182,760,55,-1347,4093,62,35,879,1677,1788,2007,2158,2150,1911,1965,2095
645643,48812,14420,46753,13985,-2648,-86,-521,-170,767,-54,-1071,4041,82,50,878,1677,1788,2007,2158,2150,1911,1965,2095
646644,48916,14472,46818,14050,-2646,80,-546,-153,776,147,-934,3880,68,40,879,1700,1831,2038,2191,2156,1899,1978,2106
647645,49052,14536,46883,14115,-3133,-68,-580,-150,769,12,-1057,3570,69,35,879,1700,1831,2038,2191,2156,1899,1978,2106
648646,49168,14592,46948,14180,-2946,43,-623,-151,778,100,-1027,3803,63,38,879,1700,1831,2038,2191,2156,1899,1978,2106
649647,49300,14652,47013,14245,-3229,-1,-668,-151,787,422,-858,3659,81,44,878,1700,1831,2038,2191,2156,1899,1978,2106
650648,49428,14720,47078,14310,-3257,-106,-726,-199,789,186,-820,3454,69,36,879,1700,1831,2038,2191,2156,1899,1978,2106
651649,49552,14772,47143,14375,-3280,110,-788,-292,781,-462,-1023,3444,77,39,879,1700,1831,2038,2191,2156,1899,1978,2106
652650,49688,14848,47208,14440,-3518,-204,-853,-421,764,-525,-1159,3610,71,40,879,1774,1911,2087,2243,2069,1821,1965,2106
653651,49804,14908,47273,14505,-3330,3,-909,-531,749,-459,-1276,3505,77,40,878,1774,1911,2087,2243,2069,1821,1965,2106
654652,49928,14980,47338,14570,-3503,-156,-957,-596,723,-433,-1446,3763,67,36,879,1774,1911,2087,2243,2069,1821,1965,2106
655653,50032,15028,47403,14635,-3302,165,-1000,-638,689,-595,-1694,3930,81,34,879,1774,1911,2087,2243,2069,1821,1965,2106
656654,50168,15096,47468,14700,-3789,-90,-1037,-689,668,-257,-1713,4083,65,35,879,1774,1911,2087,2243,2069,1821,1965,2106
657655,50272,15148,47533,14765,-3438,126,-1069,-784,666,38,-1921,4013,63,48,855,1771,1882,2072,2209,2020,1782,1873,2001
658656,50388,15196,47598,14830,-3652,197,-1088,-914,669,-386,-2028,4275,80,34,879,1771,1882,2072,2209,2020,1782,1873,2001
659657,50488,15256,47663,14895,-3496,53,-1106,-1015,649,-664,-2050,4255,65,48,879,1771,1882,2072,2209,2020,1782,1873,2001
660658,50624,15300,47728,14960,-3800,278,-1114,-1101,644,-431,-2232,4188,74,39,879,1771,1882,2072,2209,2020,1782,1873,2001
661659,50740,15376,47793,15025,-3800,-135,-1124,-1118,639,240,-1935,4639,67,49,870,1771,1882,2072,2209,2020,1782,1873,2001
662660,50868,15436,47858,15090,-3800,71,-1117,-1079,670,213,-2095,4801,76,38,879,1771,1882,2072,2209,2020,1782,1873,2001
663661,50964,15504,47923,15155,-3714,-34,-1073,-990,679,837,-1951,5410,64,47,879,1733,1863,2045,2189,2147,1907,1913,2043
664662,51056,15560,47988,15220,-3698,127,-984,-879,662,1023,-2047,5695,69,34,879,1733,1863,2045,2189,2147,1907,1913,2043
665663,51212,15620,48053,15285,-3800,84,-893,-748,657,1013,-2141,6023,67,34,873,1733,1863,2045,2189,2147,1907,1913,2043
666664,51300,15676,48118,15350,-3790,145,-800,-625,651,1203,-1859,5570,66,37,878,1733,1863,2045,2189,2147,1907,1913,2043
667666,51416,15740,48183,15415,-3800,46,-731,-533,655,740,-1770,5535,63,43,879,1733,1863,2045,2189,2147,1907,1913,2043
668666,51528,15784,48248,15480,-3800,321,-705,-487,665,301,-1566,5001,58,47,879,1770,1896,2096,2313,2099,1889,1984,2033
669667,51640,15828,48313,15545,-3800,347,-716,-479,653,-43,-1168,4758,73,43,874,1770,1896,2096,2313,2099,1889,1984,2033
670668,51752,15896,48378,15610,-3800,43,-734,-540,641,-463,-1002,4589,63,48,878,1770,1896,2096,2313,2099,1889,1984,2033
671669,51832,15956,48443,15675,-3800,149,-740,-629,646,-522,-1145,4715,69,49,879,1770,1896,2096,2313,2099,1889,1984,2033
672670,51944,16008,48508,15740,-3800,264,-715,-724,644,-604,-1346,4662,54,34,879,1770,1896,2096,2313,2099,1889,1984,2033
673671,52028,16060,48573,15805,-3800,280,-677,-769,627,-460,-1595,4908,62,46,876,1770,1896,2096,2313,2099,1889,1984,2033
674672,52132,16124,48638,15870,-3800,131,-613,-763,608,5,-1788,5398,48,33,878,1910,2010,2277,2585,2082,1893,1970,2001
675673,52216,16160,48703,15935,-3800,517,-533,-701,586,356,-2024,5276,62,44,879,1910,2010,2277,2585,2082,1893,1970,2001
676674,52304,16200,48768,16000,-3800,497,-475,-582,571,295,-2264,5518,64,41,877,1910,2010,2277,2585,2082,1893,1970,2001
677675,52380,16260,48833,16065,-3800,253,-409,-392,555,818,-2280,5691,44,49,876,1910,2010,2277,2585,2082,1893,1970,2001
678676,52440,16332,48898,16130,-3800,95,-346,-178,552,1445,-2314,5724,56,34,878,1910,2010,2277,2585,2082,1893,1970,2001
679677,52516,16396,48963,16195,-3800,196,-279,2,554,1407,-2435,5683,52,37,879,1967,2056,2266,2523,2006,1810,1890,1944
680678,52596,16432,49028,16260,-3800,582,-207,215,552,842,-2490,5818,41,34,878,1967,2056,2266,2523,2006,1810,1890,1944
681679,52660,16500,49093,16325,-3800,178,-126,387,552,1107,-2403,6004,43,43,875,1967,2056,2266,2523,2006,1810,1890,1944
682680,52716,16564,49158,16390,-3800,229,-42,520,563,976,-2376,5790,38,34,878,1967,2056,2266,2523,2006,1810,1890,1944
683681,52784,16640,49223,16455,-3800,65,35,579,586,716,-2174,5660,36,48,878,1967,2056,2266,2523,2006,1810,1890,1944
684682,52844,16692,49288,16520,-3800,381,115,628,593,373,-1963,5628,33,42,879,1967,2056,2266,2523,2006,1810,1890,1944
685683,52900,16756,49353,16585,-3800,232,190,673,591,346,-1786,5642,24,48,877,1978,2090,2194,2433,1931,1744,1836,1864
686684,52960,16804,49418,16650,-3800,453,257,703,580,523,-1457,5387,40,44,879,1978,2090,2194,2433,1931,1744,1836,1864
687685,52996,16876,49483,16715,-3571,144,310,786,566,584,-1314,5230,23,35,878,1978,2090,2194,2433,1931,1744,1836,1864
688686,53036,16928,49548,16780,-3592,410,344,802,535,702,-1174,4587,18,39,879,1978,2090,2194,2433,1931,1744,1836,1864
689687,53072,17004,49613,16845,-3508,96,389,796,497,508,-995,4720,33,43,877,1978,2090,2194,2433,1931,1744,1836,1864
690688,53120,17056,49678,16910,-3638,412,441,785,465,507,-956,4314,32,30,879,1875,1968,2140,2390,1918,1747,1859,1910
691689,53148,17140,49743,16975,-3345,-11,489,769,420,551,-924,4325,23,30,877,1875,1968,2140,2390,1918,1747,1859,1910
692690,53188,17196,49808,17040,-3465,350,540,796,381,945,-897,4071,10,28,879,1875,1968,2140,2390,1918,1747,1859,1910
693691,53208,17256,49873,17105,-3162,306,592,804,361,1065,-958,3838,10,44,878,1875,1968,2140,2390,1918,1747,1859,1910
694692,53236,17320,49938,17170,-3218,257,645,823,348,939,-1073,3561,26,37,878,1875,1968,2140,2390,1918,1747,1859,1910
695693,53260,17384,50003,17235,-3119,259,700,825,330,926,-1119,3562,8,41,878,1875,1968,2140,2390,1918,1747,1859,1910
696694,53276,17436,50068,17300,-2961,424,756,797,308,990,-1214,3458,14,31,878,1835,1930,2111,2321,1992,1787,1886,1974
697695,53316,17488,50133,17365,-3231,440,818,775,313,1001,-1477,3507,21,31,877,1835,1930,2111,2321,1992,1787,1886,1974
698696,53320,17552,50198,17430,-2709,292,890,774,324,1182,-1534,3308,7,42,877,1835,1930,2111,2321,1992,1787,1886,1974
699697,53332,17604,50263,17495,-2745,457,950,759,326,1078,-1566,3303,7,43,878,1835,1930,2111,2321,1992,1787,1886,1974
700698,53356,17664,50328,17560,-2846,363,1024,733,317,1045,-1686,3205,10,27,876,1835,1930,2111,2321,1992,1787,1886,1974
701699,53364,17724,50393,17625,-2577,369,1079,692,316,995,-1661,3136,19,30,878,1767,1886,2067,2224,1993,1768,1848,2043
702700,53380,17776,50458,17690,-2618,485,1130,643,311,870,-1458,3000,20,31,878,1767,1886,2067,2224,1993,1768,1848,2043
703701,53392,17824,50523,17755,-2505,555,1164,592,307,662,-1379,3011,3,40,877,1767,1886,2067,2224,1993,1768,1848,2043
704702,53412,17908,50722,17954,-2387,246,1192,529,306,575,-1278,2963,15,39,877,1767,1886,2067,2224,1993,1768,1848,2043
705703,53424,17940,50787,18019,-2223,936,1204,461,293,471,-1115,2917,1,39,878,1767,1886,2067,2224,1993,1768,1848,2043
706704,53424,18012,50852,18084,-1995,427,1187,371,257,409,-911,2658,0,29,874,1767,1886,2067,2224,1993,1768,1848,2043
707705,53432,18092,50917,18149,-2027,309,1167,280,221,274,-833,2733,16,43,877,1721,1842,2018,2168,1929,1704,1800,1897
708706,53444,18168,50982,18214,-2013,346,1127,198,203,290,-664,2619,0,32,878,1721,1842,2018,2168,1929,1704,1800,1897
709707,53444,18244,51047,18279,-1785,332,1098,143,193,501,-503,2499,18,45,877,1721,1842,2018,2168,1929,1704,1800,1897
710708,53452,18300,51112,18344,-1816,593,1057,78,169,423,-409,2546,0,46,878,1721,1842,2018,2168,1929,1704,1800,1897
711709,53456,18380,51177,18409,-1692,275,1014,30,136,316,-435,2572,2,42,876,1721,1842,2018,2168,1929,1704,1800,1897
712710,53452,18456,51242,18474,-1509,311,971,-15,114,387,-429,2514,16,34,878,1701,1823,1988,2142,1929,1793,1858,1925
713711,53468,18524,51307,18539,-1700,408,938,-52,99,512,-446,2540,16,43,878,1701,1823,1988,2142,1929,1793,1858,1925
714712,53460,18600,51372,18604,-1312,294,906,-74,86,502,-438,2620,7,45,871,1701,1823,1988,2142,1929,1793,1858,1925
715713,53460,18668,51437,18669,-1334,391,887,-107,70,435,-519,2607,-3,39,878,1701,1823,1988,2142,1929,1793,1858,1925
716714,53464,18724,51502,18734,-1310,552,880,-146,64,546,-622,2632,-3,32,877,1701,1823,1988,2142,1929,1793,1858,1925
717715,53464,18804,51567,18799,-1181,233,887,-176,69,639,-716,2680,2,44,875,1701,1823,1988,2142,1929,1793,1858,1925
718716,53476,18880,51632,18864,-1267,270,905,-186,75,597,-765,2704,0,36,871,1675,1793,1960,2123,2026,1798,1874,2007
719717,53484,18936,51697,18929,-1148,531,921,-197,82,591,-794,2727,15,32,878,1675,1793,1960,2123,2026,1798,1874,2007
720718,53480,19004,51762,18994,-915,377,951,-213,87,458,-729,2752,4,30,877,1675,1793,1960,2123,2026,1798,1874,2007
721719,53484,19076,51827,19059,-941,319,974,-221,98,334,-721,2745,13,41,878,1675,1793,1960,2123,2026,1798,1874,2007
722720,53484,19148,51892,19124,-812,310,991,-234,116,293,-634,2828,11,45,875,1675,1793,1960,2123,2026,1798,1874,2007
723721,53468,19224,51957,19189,-514,247,994,-260,129,326,-517,2848,12,44,878,1666,1787,2008,2218,2184,1854,1903,2008
724722,53480,19300,52022,19254,-800,233,995,-282,130,210,-368,2923,0,46,878,1666,1787,2008,2218,2184,1854,1903,2008
725723,53480,19356,52087,19319,-571,494,971,-309,126,116,-237,2949,14,30,878,1666,1787,2008,2218,2184,1854,1903,2008
726724,53484,19424,52152,19384,-547,341,935,-332,126,45,-155,3064,2,36,874,1666,1787,2008,2218,2184,1854,1903,2008
727725,53496,19532,52217,19449,-583,-212,887,-345,119,57,50,3206,4,34,878,1666,1787,2008,2218,2184,1854,1903,2008
728726,53492,19600,52282,19514,-300,285,839,-351,109,247,210,3220,4,37,878,1666,1787,2008,2218,2184,1854,1903,2008
729727,53488,19656,52347,19579,-215,446,771,-320,97,314,334,3591,13,33,878,1705,1819,2043,2213,2031,1819,1874,1974
730728,53500,19700,52412,19644,-352,621,704,-290,81,119,342,3742,11,24,867,1705,1819,2043,2213,2031,1819,1874,1974
731729,53492,19764,52477,19709,-13,372,641,-266,68,174,317,3884,-3,36,876,1705,1819,2043,2213,2031,1819,1874,1974
732730,53500,19824,52542,19774,-143,428,580,-232,56,343,327,4080,3,29,878,1705,1819,2043,2213,2031,1819,1874,1974
733731,53504,19892,52607,19839,-19,325,527,-189,46,313,232,4203,2,39,871,1705,1819,2043,2213,2031,1819,1874,1974
734732,53500,19940,52672,19904,165,596,502,-130,50,300,68,4456,14,28,877,1732,1904,2103,2221,2039,1819,1879,1995
735733,53492,19980,52737,19969,304,726,495,-71,49,393,4,4678,14,27,876,1732,1904,2103,2221,2039,1819,1879,1995
736734,53496,20060,52802,20034,227,208,504,-36,55,294,-5,4667,11,39,874,1732,1904,2103,2221,2039,1819,1879,1995
737735,53504,20120,52867,20099,247,464,513,17,64,130,-35,4812,1,39,877,1732,1904,2103,2221,2039,1819,1879,1995
738736,53496,20180,52932,20164,536,470,526,78,71,251,-39,4680,-2,39,876,1732,1904,2103,2221,2039,1819,1879,1995
739737,53508,20256,52997,20229,350,257,541,112,86,259,-30,4649,1,25,874,1732,1904,2103,2221,2039,1819,1879,1995
740738,53504,20292,53062,20294,634,792,566,129,103,18,56,4569,4,26,877,1738,1860,2102,2257,2116,1889,1937,2072
741739,53508,20344,53127,20359,608,608,576,122,114,-174,231,4562,11,22,872,1738,1860,2102,2257,2116,1889,1937,2072
742740,53540,20412,53192,20424,299,404,579,103,123,-166,390,4448,11,30,873,1738,1860,2102,2257,2116,1889,1937,2072
743741,53556,20480,53257,20489,559,400,573,113,127,-9,553,4623,11,42,876,1738,1860,2102,2257,2116,1889,1937,2072
744742,53580,20528,53322,20554,509,671,558,125,126,146,558,4361,21,39,875,1738,1860,2102,2257,2116,1889,1937,2072
745743,53636,20556,53387,20619,120,966,535,114,124,142,725,4294,16,25,873,1872,1926,2173,2349,2156,1923,1975,2095
746744,53640,20632,53452,20684,844,353,512,101,127,36,753,4354,34,28,872,1872,1926,2173,2349,2156,1923,1975,2095
747745,53688,20672,53517,20749,314,833,473,62,135,-100,801,4272,33,32,872,1872,1926,2173,2349,2156,1923,1975,2095
748746,53744,20720,53582,20814,225,754,431,62,130,21,982,4570,39,43,873,1872,1926,2173,2349,2156,1923,1975,2095
749747,53788,20792,53647,20879,400,446,398,83,120,154,946,4657,31,37,874,1872,1926,2173,2349,2156,1923,1975,2095
750748,53828,20856,53712,20944,481,547,369,116,122,159,796,4667,24,29,875,1872,1926,2173,2349,2156,1923,1975,2095
751749,53884,20936,53777,21009,292,329,351,170,122,229,707,4952,27,31,873,1839,1948,2178,2344,2130,1892,1948,2072
752750,53932,20992,53842,21074,413,640,360,224,114,294,390,4863,24,43,877,1839,1948,2178,2344,2130,1892,1948,2072
753751,53980,21048,53907,21139,433,651,394,241,123,354,192,5078,30,34,874,1839,1948,2178,2344,2130,1892,1948,2072
754752,54032,21104,53972,21204,399,662,418,232,124,188,230,5129,42,33,874,1839,1948,2178,2344,2130,1892,1948,2072
755753,54088,21156,54037,21269,360,727,425,175,139,-224,183,5027,39,37,874,1839,1948,2178,2344,2130,1892,1948,2072
756754,54140,21212,54102,21334,426,688,440,165,146,-163,126,5066,38,25,874,1782,1891,2120,2263,2081,1844,1895,2023
757755,54196,21264,54167,21399,387,754,473,172,162,117,-181,4784,30,31,874,1782,1891,2120,2263,2081,1844,1895,2023
758756,54264,21316,54232,21464,233,770,501,158,174,448,48,4869,46,39,873,1782,1891,2120,2263,2081,1844,1895,2023
759757,54312,21376,54297,21529,504,677,508,163,195,74,327,4793,47,26,874,1782,1891,2120,2263,2081,1844,1895,2023
760758,54376,21444,54362,21594,305,574,519,252,223,-222,290,4878,47,37,873,1782,1891,2120,2263,2081,1844,1895,2023
761759,54436,21492,54427,21659,362,844,515,260,216,238,287,3867,31,39,875,1782,1891,2120,2263,2081,1844,1895,2023
762760,54504,21536,54492,21724,258,920,494,206,204,-112,595,4071,29,28,873,1770,1890,2116,2276,2050,1824,1935,2081
763761,54576,21604,54557,21789,199,616,431,188,205,-535,877,3880,31,42,873,1770,1890,2116,2276,2050,1824,1935,2081
764762,54656,21660,54622,21854,81,777,354,144,195,-306,947,3533,40,41,875,1770,1890,2116,2276,2050,1824,1935,2081
765763,54700,21720,54687,21919,557,733,276,55,184,-37,958,3608,46,29,875,1770,1890,2116,2276,2050,1824,1935,2081
766764,54768,21784,54752,21984,253,685,230,6,164,-111,883,3892,33,27,873,1770,1890,2116,2276,2050,1824,1935,2081
767765,54840,21844,54817,22049,194,741,205,4,153,20,829,3860,36,43,875,1800,1910,2128,2294,2067,1847,1913,2033
768766,54912,21892,54882,22114,186,911,202,13,155,386,736,3803,39,43,873,1800,1910,2128,2294,2067,1847,1913,2033
769767,54968,21956,54947,22179,397,713,220,31,152,550,603,3883,45,30,873,1800,1910,2128,2294,2067,1847,1913,2033
770768,55012,22016,55012,22244,573,769,249,44,147,351,426,3912,32,31,874,1800,1910,2128,2294,2067,1847,1913,2033
771769,55084,22088,55077,22309,214,610,279,70,142,261,338,3980,37,45,872,1800,1910,2128,2294,2067,1847,1913,2033
772770,55136,22156,55142,22374,480,657,318,96,138,476,361,3947,43,49,875,1800,1910,2128,2294,2067,1847,1913,2033
773771,55196,22204,55207,22439,386,928,352,94,134,467,271,3986,28,33,873,1753,1863,2093,2231,2190,1955,1911,2043
774772,55264,22288,55272,22504,282,455,392,75,135,266,307,3999,37,32,872,1753,1863,2093,2231,2190,1955,1911,2043
775773,55308,22332,55337,22569,608,981,417,44,129,60,414,4018,40,44,876,1753,1863,2093,2231,2190,1955,1911,2043
776774,55368,22420,55402,22634,414,403,438,6,120,-6,406,3859,29,30,870,1753,1863,2093,2231,2190,1955,1911,2043
777775,55420,22500,55467,22699,530,484,449,-19,115,38,557,3915,43,41,876,1753,1863,2093,2231,2190,1955,1911,2043
778776,55472,22564,55532,22764,546,686,431,-45,117,-18,583,3727,44,32,874,1717,1835,2067,2215,2047,1815,1867,1979
779777,55532,22636,55597,22829,452,577,420,-47,106,61,808,3876,31,44,873,1717,1835,2067,2215,2047,1815,1867,1979
780778,55596,22700,55662,22894,403,678,385,-61,98,46,908,3824,31,46,874,1717,1835,2067,2215,2047,1815,1867,1979
781779,55660,22768,55727,22959,404,625,341,-78,88,-80,944,3673,30,40,874,1717,1835,2067,2215,2047,1815,1867,1979
782780,55716,22828,55792,23024,515,731,289,-88,62,-42,972,3821,35,43,874,1717,1835,2067,2215,2047,1815,1867,1979
783781,55768,22896,55857,23089,581,627,245,-87,37,97,986,3707,44,30,873,1717,1835,2067,2215,2047,1815,1867,1979
784782,55824,22952,55922,23154,542,788,200,-81,20,192,909,3550,38,45,873,1752,1866,2145,2323,2002,1788,1855,1968
785783,55888,23008,55987,23219,443,799,169,-57,5,325,1015,3769,42,30,871,1752,1866,2145,2323,2002,1788,1855,1968
786784,55944,23092,56052,23284,554,427,148,-34,-8,289,908,3599,35,30,873,1752,1866,2145,2323,2002,1788,1855,1968
787785,55996,23152,56117,23349,620,733,140,-5,-20,287,704,3703,40,46,874,1752,1866,2145,2323,2002,1788,1855,1968
788786,56048,23220,56182,23414,636,629,145,26,-27,272,621,3675,32,32,872,1752,1866,2145,2323,2002,1788,1855,1968
789787,56112,23268,56247,23479,487,900,164,36,-40,201,591,3564,47,40,873,1767,1877,2104,2260,2049,1833,1887,2013
790788,56164,23340,56312,23544,653,592,196,46,-49,102,486,3582,44,29,871,1767,1877,2104,2260,2049,1833,1887,2013
791789,56220,23396,56377,23609,614,803,235,58,-54,154,497,3691,41,43,872,1767,1877,2104,2260,2049,1833,1887,2013
792790,56280,23456,56442,23674,570,759,279,58,-64,209,462,3713,40,44,872,1767,1877,2104,2260,2049,1833,1887,2013
793791,56336,23520,56507,23739,631,710,308,54,-68,71,433,3745,48,30,872,1767,1877,2104,2260,2049,1833,1887,2013
794794,56388,23572,56572,23804,698,876,339,47,-75,46,501,3661,39,38,872,1767,1877,2104,2260,2049,1833,1887,2013
795793,56452,23648,56637,23869,549,562,364,49,-77,159,638,3669,48,29,870,1813,1945,2099,2256,2065,1843,1885,1996
796794,56508,23696,56702,23934,660,933,370,33,-84,124,748,3612,37,27,874,1813,1945,2099,2256,2065,1843,1885,1996
797795,56552,23736,56767,23999,836,1064,357,21,-90,133,840,3647,27,39,870,1813,1945,2099,2256,2065,1843,1885,1996
798796,56612,23792,56832,24064,642,875,337,4,-85,61,900,3585,35,38,868,1813,1945,2099,2256,2065,1843,1885,1996
799797,56672,23864,56897,24129,648,667,315,-21,-77,-16,985,3671,33,32,871,1813,1945,2099,2256,2065,1843,1885,1996
800798,56720,23920,56962,24194,819,878,295,-22,-85,74,1000,3796,31,34,872,1754,1859,2087,2258,2019,1805,1862,1963
801799,56780,23988,57027,24259,675,724,278,-13,-88,292,890,3870,45,30,870,1754,1859,2087,2258,2019,1805,1862,1963
802800,56840,24032,57092,24324,681,1050,273,6,-86,441,870,4005,34,40,871,1754,1859,2087,2258,2019,1805,1862,1963
803801,56892,24100,57157,24389,797,746,278,23,-81,440,903,3985,39,41,869,1754,1859,2087,2258,2019,1805,1862,1963
804802,56944,24160,57222,24454,813,852,284,55,-87,280,785,4066,38,43,871,1754,1859,2087,2258,2019,1805,1862,1963
805803,57000,24220,57287,24519,774,858,286,114,-97,328,676,4000,37,44,870,1754,1859,2087,2258,2019,1805,1862,1963
806804,57056,24292,57352,24584,786,700,292,160,-103,476,642,3974,32,45,870,1760,1864,2086,2252,2012,1800,1858,1973
807805,57112,24348,57417,24649,797,911,305,185,-103,426,593,3960,30,33,871,1760,1864,2086,2252,2012,1800,1858,1973
808806,57176,24400,57482,24714,698,978,326,180,-99,161,524,3956,29,38,869,1760,1864,2086,2252,2012,1800,1858,1973
809807,57224,24484,57547,24779,919,555,352,182,-103,50,487,3905,45,46,870,1760,1864,2086,2252,2012,1800,1858,1973
810808,57284,24552,57612,24844,775,751,382,182,-96,44,466,3949,47,38,871,1760,1864,2086,2252,2012,1800,1858,1973
811809,57352,24624,57677,24909,671,692,411,167,-90,26,414,3789,37,38,871,1767,1880,2115,2276,2048,1826,1882,2077
812810,57388,24676,57742,24974,1107,958,434,144,-77,38,435,3760,44,45,872,1767,1880,2115,2276,2048,1826,1882,2077
813811,57456,24752,57807,25039,703,645,461,129,-63,-59,487,3772,47,39,867,1767,1880,2115,2276,2048,1826,1882,2077
814812,57524,24804,57872,25104,700,961,479,127,-56,57,534,3601,49,36,872,1767,1880,2115,2276,2048,1826,1882,2077
815813,57568,24872,57937,25169,1026,757,499,106,-54,-74,569,3621,45,34,870,1767,1880,2115,2276,2048,1826,1882,2077
816814,57636,24924,58002,25234,722,973,510,94,-37,22,675,3699,35,35,869,1767,1880,2115,2276,2048,1826,1882,2077
817815,57680,25016,58067,25299,1048,441,517,78,-15,161,645,3657,31,52,869,1796,1909,2141,2313,2039,1821,1879,1983
818816,57728,25076,58132,25364,1019,847,512,69,-1,280,685,3927,40,44,870,1796,1909,2141,2313,2039,1821,1879,1983
819817,57792,25148,58197,25429,820,689,517,73,25,212,684,3862,50,38,867,1796,1909,2141,2313,2039,1821,1879,1983
820818,57848,25220,58262,25494,931,680,531,69,57,508,702,3907,33,50,871,1796,1909,2141,2313,2039,1821,1879,1983
821819,57916,25276,58327,25559,778,891,543,58,93,499,784,4044,32,42,870,1796,1909,2141,2313,2039,1821,1879,1983
822820,57964,25352,58392,25624,1049,628,541,62,132,294,874,4230,32,41,870,1799,1902,2119,2291,2012,1876,1911,1971
823821,58008,25444,58457,25689,1125,395,541,90,168,422,747,4337,34,53,869,1799,1902,2119,2291,2012,1876,1911,1971
824822,58072,25528,58522,25754,876,471,547,118,189,790,638,4158,37,45,870,1799,1902,2119,2291,2012,1876,1911,1971
825823,58128,25596,58587,25819,987,668,567,109,223,637,517,4052,32,52,872,1799,1902,2119,2291,2012,1876,1911,1971
826824,58172,25676,58652,25884,1162,499,606,114,250,407,645,4328,41,36,869,1799,1902,2119,2291,2012,1876,1911,1971
827825,58240,25736,58717,25949,860,756,621,113,284,230,508,4260,35,34,869,1799,1902,2119,2291,2012,1876,1911,1971
828826,58300,25800,58782,26014,966,708,650,146,296,503,460,4219,52,36,870,1779,1881,2106,2269,2031,1810,1871,1989
829827,58336,25872,58847,26079,1301,599,680,150,317,366,251,4122,52,45,870,1779,1881,2106,2269,2031,1810,1871,1989
830828,58396,25940,58912,26144,1007,646,722,141,336,205,301,4098,40,40,867,1779,1881,2106,2269,2031,1810,1871,1989
831829,58460,26000,58977,26209,959,752,757,129,341,124,339,4042,50,46,869,1779,1881,2106,2269,2031,1810,1871,1989
832830,58528,26044,59042,26274,906,977,774,108,363,70,330,3892,35,40,869,1779,1881,2106,2269,2031,1810,1871,1989
833831,58580,26108,59107,26339,1122,728,786,92,384,169,473,3887,53,33,868,1784,1892,2130,2360,2156,1840,1892,2008
834832,58632,26180,59172,26404,1138,620,781,92,410,136,578,3835,46,48,868,1784,1892,2130,2360,2156,1840,1892,2008
835833,58712,26240,59237,26469,769,776,773,99,450,162,513,3950,51,45,869,1784,1892,2130,2360,2156,1840,1892,2008
836834,58768,26292,59302,26534,1080,892,768,136,485,234,620,3914,48,34,870,1784,1892,2130,2360,2156,1840,1892,2008
837835,58832,26344,59367,26599,983,908,769,170,526,342,703,3878,46,44,867,1784,1892,2130,2360,2156,1840,1892,2008
838836,58892,26420,59432,26664,1039,594,770,225,577,299,559,3962,37,49,868,1808,1917,2147,2360,2156,1840,1892,2008
839837,58940,26480,59497,26729,1209,800,754,281,617,440,716,4055,44,47,869,1808,1917,2147,2318,2059,1837,1897,2006
840838,58996,26544,59562,26794,1120,753,751,334,650,377,595,4150,36,51,867,1808,1917,2147,2318,2059,1837,1897,2006
841839,59064,26628,59627,26859,967,479,749,369,679,322,491,4116,34,43,867,1808,1917,2147,2318,2059,1837,1897,2006
842842,59120,26688,59692,26924,1129,786,751,383,680,305,582,4287,49,38,871,1808,1917,2147,2318,2059,1837,1897,2006
843841,59172,26736,59757,26989,1195,956,747,376,694,195,388,4253,33,49,867,1808,1917,2147,2318,2059,1837,1897,2006
844842,59244,26796,59822,27054,936,812,749,354,701,423,523,4530,40,35,866,1779,1959,2179,2287,2055,1839,1890,1998
845843,59288,26864,59887,27119,1312,709,738,334,714,377,520,4593,44,39,869,1779,1959,2179,2287,2055,1839,1890,1998
846844,59332,26936,59952,27184,1337,650,735,303,715,132,628,4422,41,38,867,1779,1959,2179,2287,2055,1839,1890,1998
847845,59392,27000,60017,27249,1144,751,730,260,721,23,447,4291,47,54,867,1779,1959,2179,2287,2055,1839,1890,1998
848846,59464,27060,60082,27314,986,808,729,242,727,291,475,4416,42,52,867,1779,1959,2179,2287,2055,1839,1890,1998
849847,59512,27124,60147,27379,1307,759,727,216,737,406,467,4080,42,40,869,1754,1857,2101,2267,2080,1839,1890,1998
850848,59564,27200,60212,27444,1273,595,732,204,759,445,409,4314,39,48,866,1754,1857,2101,2267,2080,1864,1910,2034
851849,59644,27284,60277,27509,905,473,725,228,785,475,516,4214,52,41,867,1754,1857,2101,2267,2080,1864,1910,2034
852850,59688,27352,60342,27574,1381,669,742,262,821,678,492,4181,47,40,871,1754,1857,2101,2267,2080,1864,1910,2034
853851,59748,27416,60407,27639,1187,721,741,316,848,667,774,4327,42,38,865,1754,1857,2101,2267,2080,1864,1910,2034
854852,59812,27488,60472,27704,1138,612,736,373,882,305,826,4186,36,50,867,1754,1857,2101,2267,2080,1864,1910,2034
855853,59876,27580,60537,27769,1140,329,731,455,900,452,712,4064,46,45,869,1836,1895,2125,2279,2108,1876,1929,2053
856854,59948,27636,60602,27834,1032,790,718,475,884,576,730,4015,36,37,870,1836,1895,2125,2279,2108,1876,1929,2053
857855,60016,27696,60667,27899,1078,746,706,475,859,332,710,3906,48,49,869,1836,1895,2125,2279,2108,1876,1929,2053
858856,60068,27764,60732,27964,1294,643,685,463,826,107,762,3967,34,37,867,1836,1895,2125,2279,2108,1876,1929,2053
859857,60136,27824,60797,28029,1091,749,661,432,781,93,816,3980,38,47,867,1836,1895,2125,2279,2108,1876,1929,2053
860858,60180,27876,60862,28094,1417,865,616,388,739,5,743,3868,48,45,868,1782,1899,2137,2293,2087,1857,1907,2024
861859,60236,27956,60927,28159,1278,496,586,351,710,-175,1012,3924,50,35,864,1782,1899,2137,2293,2087,1857,1907,2024
862860,60308,28020,60992,28224,1069,698,551,312,679,-194,883,4082,41,48,868,1782,1899,2137,2293,2087,1857,1907,2024
863861,60360,28080,61057,28289,1336,754,514,259,646,-143,814,4059,49,45,869,1782,1899,2137,2293,2087,1857,1907,2024
864862,60432,28144,61122,28354,1078,706,480,218,613,1,969,4252,39,50,866,1782,1899,2137,2293,2087,1857,1907,2024
865863,60480,28200,61187,28419,1399,817,455,166,594,-17,805,4217,41,46,868,1782,1899,2137,2293,2087,1857,1907,2024
866864,60540,28268,61252,28484,1255,663,434,156,584,78,648,4364,46,40,865,1758,1872,2109,2256,2069,1850,1897,2026
867865,60596,28328,61317,28549,1317,769,429,171,583,395,629,4448,38,49,867,1758,1872,2109,2256,2069,1850,1897,2026
868866,60664,28392,61382,28614,1163,720,425,220,584,514,586,4358,36,46,866,1758,1872,2109,2256,2069,1850,1897,2026
869867,60708,28464,61447,28679,1489,612,412,255,586,549,692,4305,50,53,868,1758,1872,2109,2256,2069,1850,1897,2026
870868,60792,28544,61512,28744,965,494,407,305,572,565,717,4426,42,50,864,1758,1872,2109,2256,2069,1850,1897,2026
871869,60864,28608,61577,28809,1108,695,413,339,579,552,673,4217,51,54,870,1734,1856,2096,2241,2087,1873,1955,2121
872870,60900,28684,61642,28874,1593,531,432,343,584,665,707,4224,37,47,868,1734,1856,2096,2241,2087,1873,1955,2121
873871,60952,28756,61707,28939,1409,573,443,329,579,339,998,4150,49,42,865,1734,1856,2096,2241,2087,1873,1955,2121
874872,61020,28812,61772,29004,1206,784,435,309,575,-15,1003,4061,36,38,866,1734,1856,2096,2241,2087,1873,1955,2121
875873,61084,28872,61837,29069,1258,740,425,306,543,25,1138,3980,48,39,867,1734,1856,2096,2241,2087,1873,1955,2121
876874,61148,28944,61902,29134,1259,581,421,268,481,106,1281,3843,37,40,867,1734,1856,2096,2241,2087,1873,1955,2121
877875,61220,28984,61967,29199,1150,1013,395,196,411,-218,1278,3789,51,39,868,1752,1870,2119,2291,2089,1874,1915,2023
878876,61272,29060,62032,29264,1417,550,352,117,342,-272,1286,3560,48,39,866,1752,1870,2119,2291,2089,1874,1915,2023
879877,61324,29132,62097,29329,1433,591,314,65,272,-204,1257,3700,38,37,866,1752,1870,2119,2291,2089,1874,1915,2023
880878,61412,29204,62162,29394,955,582,280,67,189,-83,1204,3753,44,40,866,1752,1870,2119,2291,2089,1874,1915,2023
881879,61484,29268,62227,29459,1147,684,250,98,117,133,1140,3821,44,40,870,1752,1870,2119,2291,2089,1874,1915,2023
882880,61536,29324,62292,29524,1413,795,219,143,60,157,1186,3935,38,35,868,1785,1896,2137,2299,2133,1939,1909,2013
883881,61620,29372,62357,29589,990,915,202,169,20,38,971,3911,41,48,865,1785,1896,2137,2299,2133,1939,1909,2013
884882,61664,29460,62422,29654,1516,387,183,190,-1,-101,963,4147,35,43,868,1785,1896,2137,2299,2133,1939,1909,2013
885883,61724,29532,62487,29719,1323,579,181,234,-37,42,1038,4213,38,51,867,1785,1896,2137,2299,2133,1939,1909,2013
886884,61792,29600,62552,29784,1219,625,193,291,-60,213,763,4286,36,46,867,1785,1896,2137,2299,2133,1939,1909,2013
887885,61864,29664,62617,29849,1161,676,211,298,-67,179,719,4217,43,38,867,1785,1896,2137,2299,2133,1939,1909,2013
888886,61924,29728,62682,29914,1318,678,222,307,-64,-113,988,4421,36,35,868,1754,1870,2113,2257,2045,1834,1875,1996
889887,61984,29800,62747,29979,1324,569,235,326,-68,-97,959,4227,33,46,866,1754,1870,2113,2257,2045,1834,1875,1996
890888,62024,29832,62812,30044,1604,1109,254,337,-63,16,868,4224,43,51,867,1754,1870,2113,2257,2045,1834,1875,1996
891889,62084,29892,62877,30109,1361,766,281,335,-60,85,999,4098,34,51,860,1754,1870,2113,2257,2045,1834,1875,1996
892891,62144,29968,62942,30174,1368,553,294,313,-68,52,1116,3938,32,47,865,1754,1870,2113,2257,2045,1834,1875,1996
893891,62212,30044,63007,30239,1264,540,276,284,-78,-37,1341,3761,33,44,866,1744,1861,2153,2348,2074,1832,1877,1984
894892,62284,30100,63072,30304,1205,801,255,267,-113,-1,1347,3634,52,39,868,1744,1861,2153,2348,2074,1832,1877,1984
895893,62324,30172,63137,30369,1637,592,235,259,-158,80,1354,3724,46,50,867,1744,1861,2153,2348,2074,1832,1877,1984
896894,62392,30248,63202,30434,1283,529,218,249,-202,167,1676,3686,41,42,864,1744,1861,2153,2348,2074,1832,1877,1984
897895,62452,30304,63267,30499,1389,790,201,253,-256,142,1520,3453,52,41,867,1744,1861,2153,2348,2074,1832,1877,1984
898896,62508,30364,63332,30564,1451,746,173,234,-321,213,1582,3515,53,44,865,1744,1861,2153,2348,2074,1832,1877,1984
899897,62572,30440,63397,30629,1353,532,156,218,-378,15,1534,3504,38,37,865,1780,1881,2126,2301,2037,1831,1879,1987
900898,62644,30500,63462,30694,1244,738,138,224,-421,85,1416,3624,54,46,867,1780,1881,2126,2301,2037,1831,1879,1987
901899,62716,30548,63527,30759,1236,909,137,235,-465,301,1317,3631,42,40,867,1780,1881,2126,2301,2037,1831,1879,1987
902900,62784,30624,63592,30824,1283,546,148,243,-498,197,1303,3778,40,49,866,1780,1881,2126,2301,2037,1831,1879,1987
903901,62856,30692,63657,30889,1224,642,161,265,-528,46,1175,3789,53,44,868,1780,1881,2126,2301,2037,1831,1879,1987
904902,62940,30752,63722,30954,1051,748,176,270,-535,87,955,3725,59,46,867,1807,1956,2150,2262,2044,1828,1870,1994
905903,62992,30812,63787,31019,1468,755,200,281,-535,122,955,3951,43,49,868,1807,1956,2150,2262,2044,1828,1870,1994
906904,63080,30872,63852,31084,990,761,220,300,-527,98,857,3725,48,51,865,1807,1956,2150,2262,2044,1828,1870,1994
907905,63152,30928,63917,31149,1181,822,242,306,-506,106,888,3917,51,53,868,1807,1956,2150,2262,2044,1828,1870,1994
908906,63212,31012,63982,31214,1338,449,242,319,-499,-89,1034,3852,35,53,867,1807,1956,2150,2262,2044,1828,1870,1994
909907,63264,31084,64047,31279,1454,591,250,333,-489,-85,843,3787,38,46,868,1807,1956,2150,2262,2044,1828,1870,1994
910908,63320,31156,64112,31344,1415,582,241,337,-475,164,1062,3797,37,44,866,1736,1854,2098,2244,2030,1816,1864,1981
911909,63404,31216,64177,31409,1042,738,230,337,-465,146,1212,3724,55,46,866,1736,1854,2098,2244,2030,1816,1864,1981
912910,63476,31280,64242,31474,1185,689,212,331,-473,37,1319,3702,56,43,868,1736,1854,2098,2244,2030,1816,1864,1981
913911,63524,31360,64307,31539,1505,471,188,323,-488,-199,1516,3662,34,49,867,1736,1854,2098,2244,2030,1816,1864,1981
914912,63588,31428,64372,31604,1307,617,161,304,-503,-88,1535,3608,35,51,866,1736,1854,2098,2244,2030,1816,1864,1981
915913,63652,31500,64437,31669,1309,559,122,314,-523,183,1424,3582,37,49,867,1813,1865,2107,2271,2038,1827,1879,1997
916914,63712,31560,64502,31734,1365,715,81,288,-561,411,1569,3423,46,41,867,1813,1865,2107,2271,2038,1827,1879,1997
917915,63788,31628,64567,31799,1151,611,62,270,-601,305,1687,3374,41,43,866,1813,1865,2107,2271,2038,1827,1879,1997
918916,63844,31696,64632,31864,1413,608,42,225,-628,-20,1480,3518,48,55,868,1813,1865,2107,2271,2038,1827,1879,1997
919917,63916,31780,64697,31929,1205,385,32,233,-666,132,1469,3638,37,48,866,1813,1865,2107,2271,2038,1827,1879,1997
920918,63976,31828,64762,31994,1361,856,24,244,-701,499,1248,3659,49,40,869,1813,1865,2107,2271,2038,1827,1879,1997
921919,64044,31892,64827,32059,1257,657,31,261,-720,664,1182,3618,54,39,864,1759,1862,2109,2262,2078,1859,1895,2048
922920,64116,31960,64892,32124,1200,604,39,235,-727,342,1131,3586,54,55,867,1759,1862,2109,2262,2078,1859,1895,2048
923921,64184,32036,64957,32189,1246,490,47,211,-740,145,1108,3566,54,46,867,1759,1862,2109,2262,2078,1859,1895,2048
924922,64264,32096,65022,32254,1078,696,56,182,-747,175,1113,3592,42,54,868,1759,1862,2109,2262,2078,1859,1895,2048
925923,64340,32172,65087,32319,1115,483,64,178,-734,197,960,3654,49,53,869,1759,1862,2109,2262,2078,1859,1895,2048
926924,64396,32252,65152,32384,1376,415,63,178,-712,240,928,3683,48,55,869,1727,1845,2097,2236,2076,1849,1886,2018
927925,64460,32312,65217,32449,1278,671,62,171,-685,193,1026,3674,46,51,868,1727,1845,2097,2236,2076,1849,1886,2018
928926,64536,32400,65282,32514,1114,293,47,166,-664,125,1061,3733,42,43,867,1727,1845,2097,2236,2076,1849,1886,2018
929927,64600,32464,65347,32579,1266,594,36,163,-648,18,1270,3545,44,53,870,1727,1845,2097,2236,2076,1849,1886,2018
930928,64656,32532,65412,32644,1377,540,12,148,-643,18,1309,3634,43,48,868,1727,1845,2097,2236,2076,1849,1886,2018
931929,64736,32608,65477,32709,1059,427,-21,153,-627,70,1240,3661,52,57,867,1727,1845,2097,2236,2076,1849,1886,2018
932930,64800,32668,65542,32774,1261,633,-61,154,-615,43,1449,3561,37,49,870,1728,1848,2089,2233,2043,1819,1916,2070
933931,64856,32740,65607,32839,1372,474,-103,150,-625,50,1499,3556,52,41,867,1728,1848,2089,2233,2043,1819,1916,2070
934932,64924,32792,65672,32904,1219,740,-142,150,-637,43,1547,3776,47,46,867,1728,1848,2089,2233,2043,1819,1916,2070
935933,65004,32884,65737,32969,1050,207,-183,136,-646,106,1490,3563,46,56,867,1728,1848,2089,2233,2043,1819,1916,2070
936934,65072,32940,65802,33034,1198,668,-213,142,-663,188,1478,3770,41,56,871,1728,1848,2089,2233,2043,1819,1916,2070
937935,65144,33016,65867,33099,1139,405,-240,142,-699,288,1435,3690,56,54,868,1740,1850,2089,2240,2057,1833,1880,2009
938936,65208,33084,65932,33164,1240,501,-259,143,-717,191,1291,3703,48,39,868,1740,1850,2089,2240,2057,1833,1880,2009
939937,65280,33136,65997,33229,1133,717,-264,142,-729,221,1291,3903,38,51,868,1740,1850,2089,2240,2057,1833,1880,2009
940938,65348,33212,66062,33294,1179,404,-263,159,-749,303,1100,3779,46,49,868,1740,1850,2089,2240,2057,1833,1880,2009
941939,65436,33300,66127,33359,901,226,-257,180,-760,329,987,3852,58,50,870,1740,1850,2089,2240,2057,1833,1880,2009
942940,65508,33332,66192,33424,1092,967,-256,190,-771,398,1154,3615,40,42,872,1740,1850,2089,2240,2057,1833,1880,2009
943941,65580,33408,66257,33489,1085,403,-249,201,-765,210,1070,3634,40,45,867,1735,1843,2099,2247,2184,1942,1900,2029
944942,65644,33464,66322,33554,1186,664,-262,199,-747,116,1045,3737,39,36,870,1735,1843,2099,2247,2184,1942,1900,2029
945943,65716,33520,66387,33619,1078,675,-284,221,-720,159,1016,3608,52,45,868,1735,1843,2099,2247,2184,1942,1900,2029
946944,65800,33588,66452,33684,904,522,-307,221,-693,246,1045,3663,36,45,868,1735,1843,2099,2247,2184,1942,1900,2029
947945,65860,33652,66517,33749,1212,573,-329,204,-682,36,1357,3506,42,50,871,1735,1843,2099,2247,2184,1942,1900,2029
948946,65924,33692,66582,33814,1163,903,-353,178,-659,-316,1148,3474,53,48,869,1742,1850,2107,2261,2080,1859,1894,2015
949947,65996,33764,66647,33879,1054,495,-399,199,-619,39,940,3846,43,45,867,1742,1850,2107,2261,2080,1859,1894,2015
950948,66068,33832,66712,33944,1046,541,-437,231,-583,425,1147,3685,52,40,870,1742,1850,2107,2261,2080,1859,1894,2015
951949,66132,33920,66777,34009,1148,263,-469,233,-574,170,1235,3542,53,53,870,1742,1850,2107,2261,2080,1859,1894,2015
952950,66196,33976,66842,34074,1149,674,-500,194,-580,-196,1196,3491,44,41,870,1742,1850,2107,2261,2080,1859,1894,2015
953951,66268,34028,66907,34139,1041,740,-529,187,-574,-210,1102,3637,41,39,868,1742,1850,2107,2261,2080,1859,1894,2015
954952,66332,34100,67106,34338,1305,645,-569,207,-555,122,1040,3755,43,48,868,1738,1845,2157,2303,2071,1843,1884,2012
955953,66408,34176,67171,34403,1143,582,-600,250,-551,516,1106,3907,43,44,866,1738,1845,2157,2303,2071,1843,1884,2012
956954,66476,34260,67236,34468,1239,458,-626,261,-549,228,1031,3714,48,54,868,1738,1845,2157,2303,2071,1843,1884,2012
957955,66556,34340,67301,34533,1071,490,-629,267,-570,29,1058,3689,40,48,869,1738,1845,2157,2303,2071,1843,1884,2012
958956,66624,34416,67366,34598,1217,527,-639,264,-581,-90,1048,3736,48,51,870,1738,1845,2157,2303,2071,1843,1884,2012
959957,66680,34480,67431,34663,1379,678,-648,315,-575,224,861,3856,53,49,869,1722,1834,2080,2215,2077,1842,1888,2021
960958,66760,34556,67496,34728,1061,514,-668,371,-559,601,904,3892,60,61,866,1722,1834,2080,2215,2077,1842,1888,2021
961959,66852,34652,67561,34793,878,227,-678,384,-559,220,1004,3743,48,64,870,1722,1834,2080,2215,2077,1842,1888,2021
962960,66940,34748,67626,34858,901,190,-681,382,-577,-105,1055,3706,54,62,873,1722,1834,2080,2215,2077,1842,1888,2021
963961,67016,34848,67691,34923,1037,97,-686,367,-581,-184,1021,3687,57,53,873,1722,1834,2080,2215,2077,1842,1888,2021
964962,67112,34924,67756,34988,750,384,-707,395,-568,34,849,3687,62,47,872,1722,1834,2080,2215,2077,1842,1888,2021
965963,67196,34992,67821,35053,876,480,-734,416,-532,284,890,3626,47,52,873,1796,1911,2083,2231,2072,1841,1887,2014
966964,67280,35064,67886,35118,854,421,-744,423,-537,232,1362,3702,61,56,872,1796,1911,2083,2231,2072,1841,1887,2014
967965,67356,35128,67951,35183,941,523,-763,382,-521,-451,1115,3179,57,52,872,1796,1911,2083,2231,2072,1841,1887,2014
968966,67436,35212,68016,35248,873,249,-782,359,-504,-302,936,3756,55,43,871,1796,1911,2083,2231,2072,1841,1887,2014
969967,67524,35284,68081,35313,744,391,-805,348,-463,55,1057,3433,52,49,873,1796,1911,2083,2231,2072,1841,1887,2014
970968,67612,35376,68146,35378,716,108,-832,331,-439,-80,949,3405,47,47,873,1748,1860,2107,2265,2054,1832,1876,1996
971969,67716,35452,68211,35443,470,295,-847,340,-432,-16,754,3673,63,53,874,1748,1860,2107,2265,2054,1832,1876,1996
972970,67788,35516,68276,35508,861,446,-859,349,-402,234,787,3278,47,43,874,1748,1860,2107,2265,2054,1832,1876,1996
973971,67852,35588,68341,35573,962,337,-865,341,-385,171,953,3660,47,43,872,1748,1860,2107,2265,2054,1832,1876,1996
974972,67952,35676,68406,35638,470,109,-862,324,-393,-67,744,3416,47,51,872,1748,1860,2107,2265,2054,1832,1876,1996
975973,68024,35756,68471,35703,811,191,-866,318,-402,25,677,3705,43,59,876,1748,1860,2107,2265,2054,1832,1876,1996
976974,68096,35848,68536,35768,804,8,-853,312,-404,249,818,3626,57,42,874,1753,1858,2101,2252,2025,1805,1852,1976
977975,68184,35928,68601,35833,576,140,-841,289,-397,98,819,3296,44,50,874,1753,1858,2101,2252,2025,1805,1852,1976
978976,68252,36008,68666,35898,822,121,-837,262,-403,-150,863,3536,42,50,875,1753,1858,2101,2252,2025,1805,1852,1976
979977,68332,36092,68731,35963,654,48,-839,273,-408,-61,803,3563,43,50,874,1753,1858,2101,2252,2025,1805,1852,1976
980978,68420,36152,68796,36028,525,353,-837,281,-415,124,826,3410,45,54,875,1753,1858,2101,2252,2025,1805,1852,1976
981979,68492,36232,68861,36093,717,85,-836,280,-410,195,902,3354,46,51,875,1745,1851,2086,2232,2006,1783,1842,2046
982980,68588,36308,68926,36158,379,121,-838,249,-417,-306,898,3295,59,58,875,1745,1851,2086,2232,2006,1783,1842,2046
983981,68676,36364,68991,36223,452,382,-845,240,-416,-308,833,3302,62,46,877,1745,1851,2086,2232,2006,1783,1842,2046
984982,68748,36452,69056,36288,643,-46,-842,252,-429,152,952,3457,43,43,876,1745,1851,2086,2232,2006,1783,1842,2046
985983,68840,36524,69121,36353,361,146,-847,243,-428,-48,896,3189,44,55,875,1745,1851,2086,2232,2006,1783,1842,2046
986984,68920,36588,69186,36418,492,247,-859,230,-418,-361,741,3307,57,59,877,1745,1851,2086,2232,2006,1783,1842,2046
987985,68988,36672,69251,36483,639,-26,-855,216,-408,-263,746,3195,38,58,876,1747,1858,2082,2235,1989,1769,1836,1956
988986,69068,36748,69316,36548,470,60,-839,197,-410,-143,765,3255,54,45,876,1747,1858,2082,2235,1989,1769,1836,1956
989987,69164,36832,69381,36613,232,-63,-829,179,-414,-203,601,3232,59,54,875,1747,1858,2082,2235,1989,1769,1836,1956
990988,69236,36920,69446,36678,524,-141,-823,156,-402,-341,391,3209,39,56,877,1747,1858,2082,2235,1989,1769,1836,1956
991989,69308,36984,69511,36743,515,160,-803,161,-398,-70,534,3499,47,46,877,1747,1858,2082,2235,1989,1769,1836,1956
992990,69396,37056,69576,36808,287,52,-793,155,-388,-27,392,3107,52,55,876,1750,1862,2088,2242,1985,1853,1875,1952
993991,69480,37156,69641,36873,314,-342,-760,154,-394,85,401,3398,53,45,877,1750,1862,2088,2242,1985,1853,1875,1952
994992,69560,37220,69706,36938,347,109,-749,141,-388,-118,255,3160,35,46,876,1750,1862,2088,2242,1985,1853,1875,1952
995993,69632,37304,69771,37003,438,-164,-722,157,-378,-16,427,3208,41,41,877,1750,1862,2088,2242,1985,1853,1875,1952
996994,69708,37368,69836,37068,375,87,-711,159,-350,-88,449,3131,52,50,877,1750,1862,2088,2242,1985,1853,1875,1952
997995,69792,37420,69901,37133,252,253,-694,164,-350,-20,522,3223,41,39,877,1750,1862,2088,2242,1985,1853,1875,1952
998996,69888,37496,69966,37198,64,-60,-691,158,-349,159,461,3132,50,39,877,1759,1866,2098,2260,1982,1770,1834,1942
999997,69964,37564,70031,37263,300,36,-676,127,-365,-81,573,2994,46,43,879,1759,1866,2098,2260,1982,1770,1834,1942
1000998,70040,37640,70096,37328,287,-77,-683,91,-359,-265,461,3000,36,43,878,1759,1866,2098,2260,1982,1770,1834,1942
1001999,70112,37696,70161,37393,328,184,-689,95,-374,-98,430,3284,33,37,878,1759,1866,2098,2260,1982,1770,1834,1942
1003000,70192,37768,70226,37458,210,-26,-695,97,-394,158,346,3132,39,44,877,1759,1866,2098,2260,1982,1770,1834,1942
1004001,70244,37836,70291,37523,576,20,-708,95,-412,127,264,3145,49,43,878,1766,1864,2089,2333,2050,1757,1821,1928
1005002,70316,37888,70356,37588,317,236,-709,87,-424,-114,304,3178,52,48,877,1766,1864,2089,2333,2050,1757,1821,1928
1006003,70404,37960,70421,37653,89,-22,-712,89,-438,-200,83,3228,32,39,877,1766,1864,2089,2333,2050,1757,1821,1928
1007004,70472,38048,70486,37718,336,-250,-706,95,-442,-100,-15,3349,45,50,878,1766,1864,2089,2333,2050,1757,1821,1928
1008005,70544,38116,70551,37783,277,-4,-684,114,-442,67,64,3386,32,51,877,1766,1864,2089,2333,2050,1757,1821,1928
1009006,70620,38176,70616,37848,214,102,-658,122,-434,-92,4,3491,39,37,878,1766,1864,2089,2333,2050,1757,1821,1928
1010007,70712,38252,70681,37913,-19,-111,-628,132,-417,-236,-130,3300,35,39,878,1750,1852,2072,2229,1970,1756,1825,1943
1011008,70800,38316,70746,37978,3,39,-597,125,-410,-292,-96,3284,35,43,878,1750,1852,2072,2229,1970,1756,1825,1943
1012009,70888,38380,70811,38043,-25,40,-572,116,-402,-206,-139,3341,38,37,879,1750,1852,2072,2229,1970,1756,1825,1943
1013010,70956,38476,70876,38108,221,-398,-548,83,-393,-196,47,3278,42,37,879,1750,1852,2072,2229,1970,1756,1825,1943
1014011,71052,38548,70941,38173,-167,-106,-534,63,-393,-248,-98,3305,40,36,877,1750,1852,2072,2229,1970,1756,1825,1943
1015012,71128,38620,71006,38238,70,-115,-528,83,-390,-155,-143,3375,52,44,872,1738,1945,2124,2235,1984,1765,1840,1951
1016013,71216,38676,71071,38303,-109,96,-533,97,-390,26,190,3194,50,36,876,1738,1945,2124,2235,1984,1765,1840,1951
1017014,71312,38736,71136,38368,-246,52,-527,93,-399,26,311,3272,52,38,875,1738,1945,2124,2235,1984,1765,1840,1951
1018015,71384,38812,71201,38433,45,-162,-527,86,-400,-179,173,3300,55,54,868,1738,1945,2124,2235,1984,1765,1840,1951
1019016,71464,38876,71266,38498,-74,-11,-536,112,-403,98,66,3401,42,38,878,1738,1945,2124,2235,1984,1765,1840,1951
1020019,71532,38948,71331,38563,72,-119,-549,134,-400,146,77,3329,52,49,878,1738,1945,2124,2235,1984,1765,1840,1951
1021018,71600,39004,71396,38628,68,92,-559,114,-400,31,67,3295,52,44,878,1784,1898,2113,2288,1974,1766,1846,1955
1022019,71680,39080,71461,38693,-100,-172,-567,79,-418,-181,7,3317,53,40,878,1784,1898,2113,2288,1974,1766,1846,1955
1023020,71756,39144,71526,38758,-63,-21,-575,53,-443,-148,-114,3357,52,38,876,1784,1898,2113,2288,1974,1766,1846,1955
1024021,71824,39200,71591,38823,33,90,-579,35,-459,77,-239,3467,44,55,877,1784,1898,2113,2288,1974,1766,1846,1955
1025022,71892,39264,71656,38888,29,-9,-576,32,-474,129,-162,3462,50,45,878,1784,1898,2113,2288,1974,1766,1846,1955
1026023,71984,39336,71721,38953,-304,-118,-576,19,-492,-40,-313,3589,52,51,879,1876,1915,2135,2309,1986,1775,1846,1960
1027024,72056,39392,71786,39018,-62,93,-568,5,-509,-121,-380,3627,42,40,875,1876,1915,2135,2309,1986,1775,1846,1960
1028025,72128,39452,71851,39083,-71,49,-555,2,-513,-8,-361,3845,54,44,879,1876,1915,2135,2309,1986,1775,1846,1960
1029026,72212,39540,71916,39148,-244,-329,-540,-2,-508,94,-295,3715,54,57,878,1876,1915,2135,2309,1986,1775,1846,1960
1030027,72316,39620,71981,39213,-542,-247,-525,-20,-510,-70,-287,3894,40,45,875,1876,1915,2135,2309,1986,1775,1846,1960
1031028,72392,39696,72046,39278,-206,-211,-514,-45,-513,-157,-264,3952,53,45,878,1876,1915,2135,2309,1986,1775,1846,1960
