%  Data file recorded 2016/10/8  20:17:55
%  Stride Frequency         = [1, 1]
%  Lead In /Lead Out        = 
%  Deltas (Fractional)      = [0.25, 0.25, 0.25],[0.25, 0.25, 0.25]
%  Phase                    = 32768
%  Experiment.py 
%  Motor Gains    = [5000, 400, 200, 0, 300, 5000, 400, 200, 0, 300]
% Columns: 
% time | Right Leg Pos | Left Leg Pos | Commanded Right Leg Pos | Commanded Left Leg Pos | DCR | DCL | GyroX | GyroY | GyroZ | AX | AY | AZ | RBEMF | LBEMF | VBatt | S1 | S2 | S3 | S4 | S5 | S6 | S7 | S8
498,17608,-18108,15018,-17750,3800,3800,-65,-58,-105,-79,128,3923,0,5,856,1807,1887,2082,2264,2025,1804,1867,1985
1499,17628,-18120,15018,-17750,3800,3800,-64,-59,-101,-83,124,3949,-11,-3,856,1807,1887,2082,2264,2025,1804,1867,1985
2500,17624,-18116,15018,-17750,3800,3800,-64,-59,-104,-85,104,3936,3,0,856,1807,1887,2082,2264,2025,1804,1867,1985
3501,17624,-18116,15018,-17750,3800,3800,-63,-59,-104,-67,128,3938,-8,0,856,1808,1888,2082,2264,2026,1805,1867,1986
4502,17616,-18120,15018,-17750,3800,3800,-63,-59,-105,-42,113,3934,-3,-6,856,1808,1888,2082,2264,2026,1805,1867,1986
5503,17612,-18120,15018,-17750,3800,3800,-63,-60,-103,-67,137,3947,8,-5,856,1808,1888,2082,2264,2026,1805,1867,1986
6504,17632,-18116,15018,-17750,3800,3800,-65,-58,-103,-92,134,3934,-11,-4,856,1808,1888,2082,2264,2026,1805,1867,1986
7505,17620,-18096,15018,-17750,3800,3800,-68,-57,-106,-80,114,3913,-2,-7,856,1808,1888,2082,2264,2026,1805,1867,1986
8506,17620,-18116,15018,-17750,3800,3800,-67,-59,-108,-73,131,3935,7,-5,856,1808,1888,2082,2264,2026,1805,1867,1986
9507,17624,-18112,15018,-17750,3800,3800,-66,-57,-107,-90,111,3939,-8,-4,856,1806,1887,2081,2263,2023,1806,1870,1988
10508,17624,-18108,15018,-17750,3800,3800,-67,-57,-106,-71,111,3913,-11,-6,856,1806,1887,2081,2263,2023,1806,1870,1988
11509,17612,-18128,15018,-17750,3800,3800,-67,-59,-102,-75,115,3916,3,-5,856,1806,1887,2081,2263,2023,1806,1870,1988
12510,17628,-18120,15018,-17750,3800,3800,-65,-60,-100,-88,129,3936,2,-2,856,1806,1887,2081,2263,2023,1806,1870,1988
13511,17620,-18116,15018,-17750,3800,3800,-66,-59,-102,-80,128,3945,-10,-6,856,1806,1887,2081,2263,2023,1806,1870,1988
14512,17616,-18116,15018,-17750,3800,3800,-65,-60,-105,-69,113,3933,6,-2,856,1807,1887,2081,2264,2026,1806,1867,1987
15513,17616,-18120,15018,-17750,3800,3800,-64,-60,-105,-85,100,3951,-7,2,856,1807,1887,2081,2264,2026,1806,1867,1987
16514,17628,-18120,15018,-17750,3800,3800,-63,-61,-104,-66,103,3964,-7,1,856,1807,1887,2081,2264,2026,1806,1867,1987
17515,17628,-18108,15018,-17750,3800,3800,-64,-61,-105,-83,114,3940,8,6,856,1807,1887,2081,2264,2026,1806,1867,1987
18516,17624,-18120,15018,-17750,3800,3800,-65,-61,-103,-82,114,3919,-10,7,856,1807,1887,2081,2264,2026,1806,1867,1987
19517,17620,-18116,15018,-17750,3800,3800,-64,-61,-104,-72,111,3970,1,7,854,1807,1888,2083,2264,2027,1805,1867,1985
20518,17624,-18112,15018,-17750,3800,3800,-64,-60,-104,-89,134,3940,3,5,856,1807,1888,2083,2264,2027,1805,1867,1985
21519,17620,-18124,15018,-17750,3800,3800,-66,-60,-104,-84,127,3949,3,0,856,1807,1888,2083,2264,2027,1805,1867,1985
22520,17612,-18112,15018,-17750,3800,3800,-67,-58,-105,-85,124,3929,-2,5,856,1807,1888,2083,2264,2027,1805,1867,1985
23521,17616,-18108,15018,-17750,3800,3800,-67,-57,-104,-86,119,3925,-8,2,856,1807,1888,2083,2264,2027,1805,1867,1985
24522,17628,-18120,15018,-17750,3800,3800,-66,-58,-102,-97,103,3923,4,-3,856,1807,1888,2083,2264,2027,1805,1867,1985
25523,17608,-18116,15018,-17750,3800,3800,-67,-61,-100,-96,118,3923,-11,-3,856,1808,1888,2080,2264,2027,1806,1869,1987
26524,17632,-18116,15018,-17750,3800,3800,-67,-62,-101,-106,113,3901,8,-5,856,1808,1888,2080,2264,2027,1806,1869,1987
27525,17628,-18120,15018,-17750,3800,3800,-68,-62,-103,-95,114,3892,-11,-7,856,1808,1888,2080,2264,2027,1806,1869,1987
28526,17616,-18116,15018,-17750,3800,3800,-66,-59,-103,-64,106,3933,5,-7,856,1808,1888,2080,2264,2027,1806,1869,1987
29527,17624,-18112,15018,-17750,3800,3800,-65,-58,-101,-83,100,3935,-7,-6,856,1808,1888,2080,2264,2027,1806,1869,1987
30528,17628,-18120,15018,-17750,3800,3800,-66,-59,-102,-99,98,3940,2,1,856,1807,1886,2081,2263,2027,1806,1870,1988
31529,17632,-18116,15018,-17750,3800,3800,-65,-61,-103,-77,106,3911,-2,-1,856,1807,1886,2081,2263,2027,1806,1870,1988
32530,17620,-18112,15018,-17750,3800,3800,-65,-60,-104,-53,120,3945,-8,6,856,1807,1886,2081,2263,2027,1806,1870,1988
33531,17612,-18120,15018,-17750,3800,3800,-65,-60,-102,-40,120,3936,2,6,856,1807,1886,2081,2263,2027,1806,1870,1988
34532,17620,-18116,15018,-17750,3800,3800,-66,-60,-102,-70,119,3921,-11,6,856,1807,1886,2081,2263,2027,1806,1870,1988
35533,17604,-18128,15018,-17750,3800,3800,-66,-59,-103,-89,135,3942,8,3,856,1807,1886,2081,2263,2027,1806,1870,1988
36534,17624,-18116,15018,-17750,3800,3800,-66,-61,-103,-95,120,3947,-11,-4,854,1806,1886,2081,2263,2027,1805,1867,1985
37535,17632,-18104,15018,-17750,3800,3800,-66,-62,-104,-89,112,3929,6,-6,856,1806,1886,2081,2263,2027,1805,1867,1985
38536,17620,-18120,15018,-17750,3800,3800,-65,-57,-105,-78,117,3951,-5,-8,856,1806,1886,2081,2263,2027,1805,1867,1985
39537,17616,-18108,15018,-17750,3800,3800,-66,-57,-103,-63,136,3916,2,-7,856,1806,1886,2081,2263,2027,1805,1867,1985
40538,17620,-18104,15018,-17750,3800,3800,-67,-56,-102,-81,103,3924,-10,-7,856,1806,1886,2081,2263,2027,1805,1867,1985
41539,17624,-18116,15018,-17750,3800,3800,-67,-56,-105,-98,95,3914,-4,-7,856,1805,1886,2079,2262,2026,1805,1868,1986
42540,17624,-18112,15018,-17750,3800,3800,-67,-59,-106,-91,111,3906,7,-6,856,1805,1886,2079,2262,2026,1805,1868,1986
43541,17628,-18116,15018,-17750,3800,3800,-67,-60,-104,-110,126,3923,-7,-7,856,1805,1886,2079,2262,2026,1805,1868,1986
44542,17632,-18120,15018,-17750,3800,3800,-66,-56,-104,-98,124,3927,-9,-8,856,1805,1886,2079,2262,2026,1805,1868,1986
45543,17612,-18112,15018,-17750,3800,3800,-67,-56,-105,-82,122,3933,5,-7,856,1805,1886,2079,2262,2026,1805,1868,1986
46544,17612,-18120,15018,-17750,3800,3800,-68,-59,-105,-59,125,3942,-11,-8,856,1805,1886,2079,2262,2026,1805,1868,1986
47545,17624,-18116,15018,-17750,3800,3800,-69,-61,-105,-72,143,3936,2,-6,856,1805,1883,2079,2263,2028,1806,1868,1986
48546,17616,-18124,15018,-17750,3800,3800,-66,-61,-104,-68,133,3939,-3,-1,856,1805,1883,2079,2263,2028,1806,1868,1986
49547,17620,-18128,15018,-17750,3800,3800,-65,-60,-103,-78,115,3925,-9,-2,856,1805,1883,2079,2263,2028,1806,1868,1986
50548,17616,-18120,15018,-17750,3800,3800,-66,-62,-102,-88,128,3895,7,5,856,1805,1883,2079,2263,2028,1806,1868,1986
51549,17624,-18108,15018,-17750,3800,3800,-66,-62,-101,-97,106,3915,-5,7,856,1805,1883,2079,2263,2028,1806,1868,1986
52550,17620,-18104,15018,-17750,3800,3800,-66,-62,-104,-92,102,3928,-6,7,856,1807,1888,2082,2265,2027,1806,1868,1986
53551,17620,-18112,15018,-17750,3800,3800,-65,-62,-106,-77,101,3960,6,3,855,1807,1888,2082,2265,2027,1806,1868,1986
54552,17624,-18108,15018,-17750,3800,3800,-63,-60,-106,-95,105,3946,-7,-7,856,1807,1888,2082,2265,2027,1806,1868,1986
55553,17624,-18120,15018,-17750,3800,3800,-64,-59,-105,-80,107,3947,4,-7,856,1807,1888,2082,2265,2027,1806,1868,1986
56554,17608,-18116,15018,-17750,3800,3800,-66,-57,-104,-73,101,3955,-11,-5,856,1807,1888,2082,2265,2027,1806,1868,1986
57555,17624,-18120,15018,-17750,3800,3800,-67,-59,-105,-68,108,3942,7,-3,856,1807,1888,2082,2265,2027,1806,1868,1986
58556,17616,-18116,15018,-17750,3800,3800,-66,-61,-106,-71,100,3945,-2,-5,856,1807,1888,2081,2264,2027,1806,1868,1988
59557,17620,-18104,15018,-17750,3800,3800,-64,-60,-108,-78,116,3920,-10,-2,856,1807,1888,2081,2264,2027,1806,1868,1988
60558,17628,-18116,15018,-17750,3800,3800,-64,-60,-105,-100,121,3906,2,3,856,1807,1888,2081,2264,2027,1806,1868,1988
61559,17620,-18120,15018,-17750,3800,3800,-67,-62,-103,-99,130,3933,-11,4,856,1807,1888,2081,2264,2027,1806,1868,1988
62560,17632,-18132,15018,-17750,3800,3800,-68,-62,-102,-95,122,3931,5,6,856,1807,1888,2081,2264,2027,1806,1868,1988
63561,17616,-18116,15018,-17750,3800,3800,-67,-62,-103,-80,107,3913,-5,7,856,1805,1887,2083,2266,2030,1808,1868,1986
64562,17612,-18112,15018,-17750,3800,3800,-65,-60,-104,-71,110,3903,-8,4,856,1805,1887,2083,2266,2030,1808,1868,1986
65563,17616,-18124,15018,-17750,3800,3800,-65,-57,-104,-78,104,3931,7,5,856,1805,1887,2083,2266,2030,1808,1868,1986
66564,17620,-18116,15018,-17750,3800,3800,-66,-58,-103,-75,110,3942,-10,6,856,1805,1887,2083,2266,2030,1808,1868,1986
67565,17628,-18104,15018,-17750,3800,3800,-67,-62,-103,-79,124,3954,1,2,856,1805,1887,2083,2266,2030,1808,1868,1986
68566,17632,-18112,15018,-17750,3800,3800,-66,-61,-105,-86,118,3944,-3,5,856,1805,1887,2083,2266,2030,1808,1868,1986
69567,17624,-18116,15018,-17750,3800,3800,-66,-59,-104,-84,136,3960,0,7,856,1807,1886,2082,2265,2028,1806,1868,1985
70568,17616,-18112,15018,-17750,3800,3800,-68,-60,-105,-90,115,3930,2,7,855,1807,1886,2082,2265,2028,1806,1868,1985
71569,17628,-18112,15018,-17750,3800,3800,-66,-57,-107,-70,108,3956,-8,1,856,1807,1886,2082,2265,2028,1806,1868,1985
72570,17620,-18116,15018,-17750,3800,3800,-66,-56,-109,-89,129,3924,-7,-2,856,1807,1886,2082,2265,2028,1806,1868,1985
73571,17624,-18120,15018,-17750,3800,3800,-67,-58,-105,-75,134,3942,-5,3,856,1807,1886,2082,2265,2028,1806,1868,1985
74572,17624,-18124,15018,-17750,3800,3800,-66,-60,-104,-68,100,3917,6,1,856,1806,1886,2080,2263,2027,1804,1867,1986
75573,17616,-18120,15018,-17750,3800,3800,-66,-60,-103,-73,106,3929,-6,-5,856,1806,1886,2080,2263,2027,1804,1867,1986
76574,17624,-18124,15018,-17750,3800,3800,-67,-57,-101,-97,116,3924,7,-3,856,1806,1886,2080,2263,2027,1804,1867,1986
77575,17628,-18124,15018,-17750,3800,3800,-68,-55,-102,-73,107,3920,-11,-7,856,1806,1886,2080,2263,2027,1804,1867,1986
78576,17624,-18116,15018,-17750,3800,3800,-67,-57,-101,-91,114,3938,7,-8,856,1806,1886,2080,2263,2027,1804,1867,1986
79577,17604,-18120,15018,-17750,3800,3800,-66,-57,-101,-91,108,3925,-8,-8,856,1806,1886,2080,2263,2027,1804,1867,1986
80578,17616,-18116,15018,-17750,3800,3800,-68,-57,-101,-90,119,3897,8,-8,856,1808,1888,2080,2264,2027,1805,1867,1985
81579,17624,-18112,15018,-17750,3800,3800,-69,-57,-102,-87,110,3922,-11,-6,856,1808,1888,2080,2264,2027,1805,1867,1985
82580,17628,-18112,15018,-17750,3800,3800,-69,-56,-102,-71,122,3938,8,-7,856,1808,1888,2080,2264,2027,1805,1867,1985
83581,17624,-18120,15018,-17750,3800,3800,-66,-58,-103,-71,135,3937,-9,-6,856,1808,1888,2080,2264,2027,1805,1867,1985
84582,17624,-18108,15018,-17750,3800,3800,-66,-60,-101,-75,126,3904,8,-5,856,1808,1888,2080,2264,2027,1805,1867,1985
85583,17608,-18112,15018,-17750,3800,3800,-66,-60,-99,-71,110,3893,-11,-7,856,1806,1887,2083,2263,2030,1807,1869,1986
86584,17632,-18120,15018,-17750,3800,3800,-66,-58,-100,-73,109,3915,8,-4,856,1806,1887,2083,2263,2030,1807,1869,1986
87585,17624,-18120,15018,-17750,3800,3800,-66,-57,-102,-71,111,3956,-9,-4,854,1806,1887,2083,2263,2030,1807,1869,1986
88586,17628,-18104,15018,-17750,3800,3800,-66,-60,-104,-70,117,3958,8,-3,856,1806,1887,2083,2263,2030,1807,1869,1986
89587,17616,-18120,15018,-17750,3800,3800,-68,-60,-104,-74,122,3962,-10,3,856,1806,1887,2083,2263,2030,1807,1869,1986
90588,17616,-18120,15018,-17750,3800,3800,-67,-60,-101,-80,105,3913,4,6,856,1806,1887,2083,2263,2030,1807,1869,1986
91589,17620,-18128,15018,-17750,3800,3800,-65,-59,-102,-46,132,3934,-10,2,856,1806,1887,2081,2264,2027,1804,1867,1987
92590,17612,-18108,15018,-17750,3800,3800,-64,-58,-100,-57,103,3936,8,5,856,1806,1887,2081,2264,2027,1804,1867,1987
93591,17620,-18116,15018,-17750,3800,3800,-64,-60,-101,-73,111,3913,-11,7,856,1806,1887,2081,2264,2027,1804,1867,1987
94592,17616,-18116,15018,-17750,3800,3800,-65,-59,-104,-69,98,3881,8,7,856,1806,1887,2081,2264,2027,1804,1867,1987
95596,17616,-18116,15018,-17750,3800,3800,-67,-57,-106,-69,129,3932,-6,6,856,1806,1887,2081,2264,2027,1804,1867,1987
96594,17628,-18120,15018,-17750,3800,3800,-65,-59,-104,-85,121,3938,3,4,856,1807,1888,2082,2264,2027,1805,1868,1986
97595,17624,-18124,15018,-17750,3800,3800,-65,-62,-103,-95,109,3933,1,5,856,1807,1888,2082,2264,2027,1805,1868,1986
98596,17612,-18120,15018,-17750,3800,3800,-66,-64,-104,-86,118,3931,-9,3,856,1807,1888,2082,2264,2027,1805,1868,1986
99597,17624,-18124,15018,-17750,3800,3800,-68,-63,-104,-94,130,3908,7,-1,856,1807,1888,2082,2264,2027,1805,1868,1986
100598,17624,-18120,15018,-17750,3800,3800,-68,-60,-101,-95,146,3952,-11,4,856,1807,1888,2082,2264,2027,1805,1868,1986
101599,17624,-18120,15018,-17750,3800,3800,-67,-59,-103,-73,127,3973,8,3,856,1807,1888,2082,2264,2027,1805,1868,1986
102600,17612,-18108,15018,-17750,3800,3800,-67,-60,-105,-71,134,3943,-11,-1,856,1808,1888,2082,2265,2029,1806,1869,1986
103601,17624,-18116,15018,-17750,3800,3800,-66,-61,-101,-67,109,3963,2,4,856,1808,1888,2082,2265,2029,1806,1869,1986
104602,17620,-18116,15018,-17750,3800,3800,-65,-61,-100,-70,113,3954,5,1,855,1808,1888,2082,2265,2029,1806,1869,1986
105603,17608,-18124,15018,-17750,3800,3800,-65,-60,-102,-90,98,3928,-9,-8,856,1808,1888,2082,2265,2029,1806,1869,1986
106604,17624,-18120,15018,-17750,3800,3800,-64,-58,-105,-78,108,3905,6,-8,856,1808,1888,2082,2265,2029,1806,1869,1986
107605,17616,-18120,15018,-17750,3800,3800,-63,-60,-107,-100,115,3928,-9,-8,856,1807,1883,2082,2266,2028,1806,1868,1986
108606,17616,-18120,15018,-17750,3800,3800,-64,-63,-106,-75,119,3915,5,-8,856,1807,1883,2082,2266,2028,1806,1868,1986
109607,17632,-18120,15018,-17750,3800,3800,-66,-59,-103,-65,119,3960,-3,-7,856,1807,1883,2082,2266,2028,1806,1868,1986
110608,17620,-18120,15018,-17750,3800,3800,-66,-57,-103,-71,111,3933,-9,-8,856,1807,1883,2082,2266,2028,1806,1868,1986
111609,17620,-18120,15018,-17750,3800,3800,-65,-57,-104,-76,112,3926,1,-8,856,1807,1883,2082,2266,2028,1806,1868,1986
112610,17616,-18116,15018,-17750,3800,3800,-65,-58,-106,-83,121,3943,-8,-8,856,1807,1883,2082,2266,2028,1806,1868,1986
113611,17632,-18112,15018,-17750,3800,3800,-65,-58,-106,-93,120,3943,6,-7,856,1806,1887,2081,2263,2028,1806,1868,1985
114612,17628,-18124,15018,-17750,3800,3800,-65,-59,-106,-78,117,3907,-9,-7,856,1806,1887,2081,2263,2028,1806,1868,1985
115613,17612,-18116,15018,-17750,3800,3800,-68,-57,-103,-90,117,3916,8,-7,856,1806,1887,2081,2263,2028,1806,1868,1985
116614,17616,-18108,15018,-17750,3800,3800,-67,-56,-103,-95,149,3935,-11,-8,856,1806,1887,2081,2263,2028,1806,1868,1985
117615,17620,-18124,15018,-17750,3800,3800,-67,-55,-105,-101,100,3885,7,-6,856,1806,1887,2081,2263,2028,1806,1868,1985
118616,17620,-18108,15018,-17750,3800,3800,-67,-59,-104,-86,119,3895,-10,-8,856,1806,1886,2081,2265,2029,1805,1868,1987
119617,17628,-18112,15018,-17750,3800,3800,-65,-60,-103,-91,109,3898,8,-7,856,1806,1886,2081,2265,2029,1805,1868,1987
120618,17620,-18120,15018,-17750,3800,3800,-66,-59,-104,-92,109,3886,-7,-7,856,1806,1886,2081,2265,2029,1805,1868,1987
121619,17624,-18116,15018,-17750,3800,3800,-66,-58,-103,-58,126,3932,7,1,855,1806,1886,2081,2265,2029,1805,1868,1987
122620,17620,-18112,15018,-17750,3800,3800,-67,-59,-102,-43,123,3905,-9,-6,856,1806,1886,2081,2265,2029,1805,1868,1987
123621,17632,-18112,15018,-17750,3800,3800,-67,-62,-103,-46,121,3926,-5,-8,856,1806,1886,2081,2265,2029,1805,1868,1987
124622,17612,-18116,15018,-17750,3800,3800,-67,-61,-105,-74,112,3925,-5,-7,856,1807,1888,2080,2264,2027,1805,1867,1986
125623,17612,-18120,15018,-17750,3800,3800,-66,-61,-103,-82,98,3892,8,-8,856,1807,1888,2080,2264,2027,1805,1867,1986
126624,17624,-18104,15018,-17750,3800,3800,-65,-58,-103,-72,92,3927,-11,-8,856,1807,1888,2080,2264,2027,1805,1867,1986
127625,17632,-18112,15018,-17750,3800,3800,-65,-60,-104,-83,103,3923,8,-5,856,1807,1888,2080,2264,2027,1805,1867,1986
128626,17632,-18112,15018,-17750,3800,3800,-65,-61,-103,-57,110,3942,-11,-4,856,1807,1888,2080,2264,2027,1805,1867,1986
129627,17612,-18108,15018,-17750,3800,3800,-67,-62,-104,-44,119,3927,5,-3,856,1806,1887,2082,2264,2027,1803,1866,1987
130628,17616,-18116,15018,-17750,3800,3800,-67,-62,-103,-74,120,3910,-11,5,856,1806,1887,2082,2264,2027,1803,1866,1987
131629,17616,-18120,15018,-17750,3800,3800,-67,-59,-105,-76,127,3907,8,2,856,1806,1887,2082,2264,2027,1803,1866,1987
132630,17620,-18108,15018,-17750,3800,3800,-69,-61,-104,-112,111,3884,-11,0,856,1806,1887,2082,2264,2027,1803,1866,1987
133631,17616,-18120,15018,-17750,3800,3800,-68,-62,-103,-105,128,3909,7,6,856,1806,1887,2082,2264,2027,1803,1866,1987
134632,17620,-18112,15018,-17750,3800,3800,-67,-60,-101,-85,128,3921,-4,6,856,1806,1887,2082,2264,2027,1803,1866,1987
135633,17612,-18112,15018,-17750,3800,3800,-66,-61,-101,-78,114,3930,-4,5,856,1806,1887,2082,2264,2028,1806,1869,1986
136634,17608,-18120,15018,-17750,3800,3800,-64,-65,-103,-63,102,3921,4,7,856,1806,1887,2082,2264,2028,1806,1869,1986
137635,17624,-18128,15018,-17750,3800,3800,-65,-63,-105,-76,113,3925,-10,4,856,1806,1887,2082,2264,2028,1806,1869,1986
138636,17608,-18108,15018,-17750,3800,3800,-66,-62,-102,-78,118,3943,8,-1,855,1806,1887,2082,2264,2028,1806,1869,1986
139637,17628,-18124,15018,-17750,3800,3800,-67,-61,-101,-83,132,3959,-11,-7,856,1806,1887,2082,2264,2028,1806,1869,1986
140638,17624,-18112,15018,-17750,3800,3800,-66,-61,-102,-101,128,3918,8,-7,856,1806,1888,2081,2264,2027,1805,1868,1985
141639,17620,-18112,15018,-17750,3800,3800,-64,-60,-101,-73,124,3895,-9,-4,856,1806,1888,2081,2264,2027,1805,1868,1985
142640,17616,-18108,15018,-17750,3800,3800,-65,-61,-100,-78,112,3926,8,-3,856,1806,1888,2081,2264,2027,1805,1868,1985
143641,17628,-18124,15018,-17750,3800,3800,-66,-61,-103,-94,107,3952,-9,2,856,1806,1888,2081,2264,2027,1805,1868,1985
144642,17632,-18112,15018,-17750,3800,3800,-67,-60,-102,-65,118,3901,5,7,856,1806,1888,2081,2264,2027,1805,1868,1985
145644,17624,-18116,15018,-17750,3800,3800,-66,-59,-104,-73,113,3909,-1,6,856,1806,1888,2081,2264,2027,1805,1868,1985
146644,17616,-18108,15018,-17750,3800,3800,-65,-57,-104,-48,109,3914,-4,7,856,1803,1887,2082,2264,2028,1804,1867,1985
147645,17616,-18124,15018,-17750,3800,3800,-63,-58,-104,-62,111,3930,-5,2,856,1803,1887,2082,2264,2028,1804,1867,1985
148646,17616,-18120,15018,-17750,3800,3800,-63,-61,-101,-71,115,3933,1,3,856,1803,1887,2082,2264,2028,1804,1867,1985
149647,17628,-18120,15018,-17750,3800,3800,-64,-59,-102,-68,105,3917,-3,-4,856,1803,1887,2082,2264,2028,1804,1867,1985
150648,17612,-18124,15018,-17750,3800,3800,-64,-59,-101,-81,129,3943,3,-8,856,1803,1887,2082,2264,2028,1804,1867,1985
151649,17624,-18116,15018,-17750,3800,3800,-68,-57,-103,-69,125,3982,-2,-6,856,1805,1886,2080,2264,2029,1803,1867,1988
152650,17624,-18128,15018,-17750,3800,3800,-69,-57,-104,-100,126,3943,-10,-8,856,1805,1886,2080,2264,2029,1803,1867,1988
153651,17616,-18116,15018,-17750,3800,3800,-67,-57,-103,-103,102,3966,7,-3,856,1805,1886,2080,2264,2029,1803,1867,1988
154652,17604,-18116,15018,-17750,3800,3800,-67,-59,-104,-93,117,3933,-1,-4,856,1805,1886,2080,2264,2029,1803,1867,1988
155653,17624,-18100,15018,-17750,3800,3800,-65,-58,-106,-86,124,3902,-11,-6,856,1805,1886,2080,2264,2029,1803,1867,1988
156654,17620,-18116,15018,-17750,3800,3800,-66,-59,-105,-93,116,3929,7,4,856,1805,1886,2080,2264,2029,1803,1867,1988
157655,17632,-18120,15018,-17750,3800,3800,-67,-59,-104,-95,101,3958,-8,4,856,1805,1886,2080,2264,2027,1805,1867,1987
158656,17632,-18096,15018,-17750,3800,3800,-66,-59,-106,-103,117,3917,7,7,856,1805,1886,2080,2264,2027,1805,1867,1987
159657,17620,-18124,15018,-17750,3800,3800,-65,-60,-106,-105,139,3907,-4,7,856,1805,1886,2080,2264,2027,1805,1867,1987
160658,17620,-18112,15018,-17750,3800,3800,-65,-59,-104,-100,124,3942,5,6,856,1805,1886,2080,2264,2027,1805,1867,1987
161659,17620,-18128,15018,-17750,3800,3800,-64,-58,-101,-83,124,3941,-11,7,856,1805,1886,2080,2264,2027,1805,1867,1987
162660,17620,-18120,15018,-17750,3800,3800,-65,-58,-103,-64,110,3946,8,6,856,1808,1888,2082,2265,2029,1806,1868,1986
163661,17628,-18100,15018,-17750,3800,3800,-66,-59,-106,-76,115,3951,-7,7,856,1808,1888,2082,2265,2029,1806,1868,1986
164662,17620,-18120,15018,-17750,3800,3800,-67,-62,-107,-64,126,3915,-7,7,856,1808,1888,2082,2265,2029,1806,1868,1986
165663,17612,-18116,15018,-17750,3800,3800,-68,-63,-107,-70,142,3906,-2,4,856,1808,1888,2082,2265,2029,1806,1868,1986
166664,17624,-18112,15018,-17750,3800,3800,-67,-60,-105,-62,119,3909,7,6,856,1808,1888,2082,2265,2029,1806,1868,1986
167665,17624,-18116,15018,-17750,3800,3800,-66,-57,-106,-57,134,3939,-8,7,856,1808,1888,2082,2265,2029,1806,1868,1986
168666,17620,-18116,15018,-17750,3800,3800,-67,-58,-105,-88,110,3916,8,6,856,1803,1888,2084,2268,2032,1808,1869,1987
169667,17620,-18116,15018,-17750,3800,3800,-68,-63,-106,-94,124,3897,-6,5,856,1803,1888,2084,2268,2032,1808,1869,1987
170668,17624,-18120,15018,-17750,3800,3800,-70,-64,-105,-83,114,3907,-3,3,856,1803,1888,2084,2268,2032,1808,1869,1987
171669,17632,-18108,15018,-17750,3800,3800,-69,-62,-105,-81,78,3919,8,-4,856,1803,1888,2084,2268,2032,1808,1869,1987
172670,17624,-18112,15018,-17750,3800,3800,-68,-60,-105,-67,111,3922,-11,3,854,1803,1888,2084,2268,2032,1808,1869,1987
173671,17620,-18116,15018,-17750,3800,3800,-68,-60,-105,-94,95,3935,-4,7,856,1805,1886,2081,2264,2029,1805,1868,1987
174672,17624,-18112,15018,-17750,3800,3800,-65,-61,-104,-114,109,3920,-3,3,856,1805,1886,2081,2264,2029,1805,1868,1987
175673,17612,-18108,15018,-17750,3800,3800,-67,-60,-103,-84,120,3929,-1,7,856,1805,1886,2081,2264,2029,1805,1868,1987
176674,17612,-18120,15018,-17750,3800,3800,-69,-59,-105,-87,133,3911,-4,6,856,1805,1886,2081,2264,2029,1805,1868,1987
177675,17624,-18108,15018,-17750,3800,3800,-67,-59,-105,-85,121,3954,1,7,856,1805,1886,2081,2264,2029,1805,1868,1987
178676,17620,-18120,15018,-17750,3800,3800,-66,-61,-104,-64,119,3951,-6,7,856,1805,1886,2081,2264,2029,1805,1868,1987
179677,17620,-18128,15018,-17750,3800,3800,-66,-62,-103,-90,109,3949,-3,6,856,1806,1887,2082,2262,2028,1804,1867,1984
180678,17620,-18128,15018,-17750,3800,3800,-66,-60,-103,-95,99,3902,3,7,856,1806,1887,2082,2262,2028,1804,1867,1984
181679,17628,-18104,15018,-17750,3800,3800,-68,-59,-102,-77,101,3893,-4,7,856,1806,1887,2082,2262,2028,1804,1867,1984
182680,17620,-18108,15018,-17750,3800,3800,-67,-58,-104,-75,105,3936,8,6,856,1806,1887,2082,2262,2028,1804,1867,1984
183681,17624,-18124,15018,-17750,3800,3800,-68,-59,-105,-90,115,3946,-9,6,856,1806,1887,2082,2262,2028,1804,1867,1984
184682,17628,-18120,15018,-17750,3800,3800,-67,-59,-105,-83,126,3939,-4,4,856,1805,1888,2080,2264,2030,1806,1868,1987
185683,17628,-18108,15018,-17750,3800,3800,-66,-57,-104,-68,110,3909,7,5,856,1805,1888,2080,2264,2030,1806,1868,1987
186684,17620,-18124,15018,-17750,3800,3800,-66,-56,-103,-65,122,3889,-9,-2,856,1805,1888,2080,2264,2030,1806,1868,1987
187685,17620,-18112,15018,-17750,3800,3800,-66,-57,-103,-73,110,3921,4,2,856,1805,1888,2080,2264,2030,1806,1868,1987
188686,17632,-18116,15018,-17750,3800,3800,-64,-60,-104,-58,97,3929,5,7,856,1805,1888,2080,2264,2030,1806,1868,1987
189687,17628,-18108,15018,-17750,3800,3800,-64,-58,-103,-64,113,3928,-10,6,855,1805,1888,2080,2264,2030,1806,1868,1987
190688,17632,-18108,15018,-17750,3800,3800,-67,-57,-101,-52,114,3953,1,0,856,1805,1887,2079,2261,2031,1806,1868,1986
191689,17620,-18112,15018,-17750,3800,3800,-67,-57,-102,-65,112,3923,5,-4,856,1805,1887,2079,2261,2031,1806,1868,1986
192690,17624,-18120,15018,-17750,3800,3800,-66,-57,-103,-58,123,3932,-8,-1,856,1805,1887,2079,2261,2031,1806,1868,1986
193692,17632,-18116,15018,-17750,3800,3800,-63,-59,-101,-68,117,3909,5,-7,856,1805,1887,2079,2261,2031,1806,1868,1986
194692,17624,-18116,15018,-17750,3800,3800,-64,-58,-101,-63,119,3946,-11,-7,856,1805,1887,2079,2261,2031,1806,1868,1986
195693,17612,-18100,15018,-17750,3800,3800,-63,-60,-103,-73,119,3941,7,-7,856,1806,1888,2082,2263,2029,1804,1868,1986
196694,17632,-18120,15018,-17750,3800,3800,-65,-62,-104,-68,115,3914,-9,-2,856,1806,1888,2082,2263,2029,1804,1868,1986
197695,17616,-18120,15018,-17750,3800,3800,-63,-61,-104,-78,135,3931,8,4,856,1806,1888,2082,2263,2029,1804,1868,1986
198696,17620,-18116,15018,-17750,3800,3800,-65,-60,-104,-89,121,3944,-10,2,856,1806,1888,2082,2263,2029,1804,1868,1986
199697,17624,-18112,15083,-17685,-2727,896,-67,-59,-103,-69,138,3955,6,7,856,1806,1888,2082,2263,2029,1804,1868,1986
200698,17612,-18124,15148,-17620,-2434,1190,-69,-58,-102,-79,132,3894,-9,-4,847,1806,1888,2082,2263,2029,1804,1868,1986
201699,17628,-18124,15213,-17555,-2725,1119,-69,-62,-102,-85,108,3893,10,3,848,1806,1887,2082,2264,2030,1806,1869,1987
202700,17612,-18108,15278,-17490,-2228,979,-68,-61,-100,-62,117,3932,-9,7,848,1806,1887,2082,2264,2030,1806,1869,1987
203701,17624,-18084,15343,-17425,-2514,929,-66,-63,-100,-70,110,3908,-6,14,848,1806,1887,2082,2264,2030,1806,1869,1987
204702,17620,-18060,15408,-17360,-2231,980,-61,-67,-104,-130,119,3963,10,30,849,1806,1887,2082,2264,2030,1806,1869,1987
205703,17624,-18004,15473,-17295,-2257,591,-68,-85,-104,-168,139,3973,2,31,850,1806,1887,2082,2264,2030,1806,1869,1987
206704,17620,-17952,15538,-17230,-2074,657,-64,-97,-105,-191,85,4084,0,39,851,1807,1888,2080,2264,2028,1804,1867,1959
207705,17620,-17880,15603,-17165,-2046,398,-63,-95,-112,-111,86,4008,10,36,852,1807,1888,2080,2264,2028,1804,1867,1959
208706,17624,-17808,15668,-17100,-2021,391,-65,-101,-118,-88,43,3953,-4,40,853,1807,1888,2080,2264,2028,1804,1867,1959
209707,17620,-17780,15733,-17035,-1838,986,-72,-88,-126,-6,43,4009,-6,33,854,1807,1888,2080,2264,2028,1804,1867,1959
210708,17628,-17696,15798,-16970,-1919,263,-84,-68,-134,24,70,3973,11,35,852,1807,1888,2080,2264,2028,1804,1867,1959
211709,17620,-17640,15863,-16905,-1631,624,-98,-63,-149,98,35,3694,5,45,853,1807,1888,2080,2264,2028,1804,1867,1959
212710,17616,-17592,15928,-16840,-1597,745,-110,-50,-153,-76,79,3981,-3,43,853,1807,1890,2083,2265,2013,1809,1873,1992
213711,17616,-17512,15993,-16775,-1569,327,-126,-33,-165,-55,94,3760,-7,37,845,1807,1890,2083,2265,2013,1809,1873,1992
214712,17632,-17436,16058,-16710,-1709,364,-143,-47,-175,-105,92,3845,10,37,854,1807,1890,2083,2265,2013,1809,1873,1992
215713,17608,-17368,16123,-16645,-1101,461,-142,-65,-173,-371,58,3989,1,50,854,1807,1890,2083,2265,2013,1809,1873,1992
216714,17624,-17272,16188,-16580,-1542,73,-146,-101,-170,-359,102,3976,-7,47,854,1807,1890,2083,2265,2013,1809,1873,1992
217715,17616,-17204,16253,-16515,-1153,420,-141,-139,-167,-234,91,4012,0,48,843,1800,1875,2076,2256,2040,1816,1877,2000
218716,17612,-17124,16318,-16450,-1120,251,-138,-146,-175,1,92,3887,-3,50,855,1800,1875,2076,2256,2040,1816,1877,2000
219717,17616,-17052,16383,-16385,-1146,344,-125,-140,-178,-130,120,4025,5,48,854,1800,1875,2076,2256,2040,1816,1877,2000
220718,17628,-16972,16448,-16320,-1182,225,-131,-143,-194,-146,13,4000,2,36,855,1800,1875,2076,2256,2040,1816,1877,2000
221719,17620,-16904,16513,-16255,-843,372,-122,-120,-201,-78,46,4147,4,48,851,1800,1875,2076,2256,2040,1816,1877,2000
222720,17632,-16824,16578,-16190,-1029,203,-121,-116,-197,-38,115,4057,-8,36,855,1800,1875,2076,2256,2040,1816,1877,2000
223721,17616,-16740,16643,-16125,-580,131,-108,-129,-193,-183,100,4180,-7,43,853,1789,1875,2070,2246,2039,1812,1871,1998
224722,17616,-16652,16708,-16060,-701,53,-111,-156,-207,-209,140,4126,-8,35,855,1789,1875,2070,2246,2039,1812,1871,1998
225723,17620,-16592,16773,-15995,-677,409,-117,-177,-223,-249,118,4196,4,43,854,1789,1875,2070,2246,2039,1812,1871,1998
226724,17616,-16504,16838,-15930,-493,31,-129,-182,-227,-86,142,4019,-7,33,855,1789,1875,2070,2246,2039,1812,1871,1998
227725,17612,-16444,16903,-15865,-409,387,-134,-171,-234,9,139,3979,-4,47,855,1789,1875,2070,2246,2039,1812,1871,1998
228726,17628,-16368,16968,-15800,-600,175,-147,-155,-240,3,158,3835,10,31,855,1804,1891,2084,2266,2035,1809,1875,1995
229727,17616,-16304,17033,-15735,-156,326,-175,-123,-265,-69,87,3843,-1,30,854,1804,1891,2084,2266,2035,1809,1875,1995
230728,17612,-16232,17098,-15670,-172,218,-205,-91,-292,85,30,3672,-5,44,855,1804,1891,2084,2266,2035,1809,1875,1995
231729,17624,-16172,17163,-15605,-307,374,-226,-86,-308,43,30,3677,-6,44,846,1804,1891,2084,2266,2035,1809,1875,1995
232730,17624,-16100,17228,-15540,-78,216,-238,-118,-325,-244,0,3737,8,28,843,1804,1891,2084,2266,2035,1809,1875,1995
233731,17616,-16024,17293,-15475,110,153,-242,-130,-335,-395,-3,3941,4,37,854,1819,1902,2094,2260,2019,1797,1864,1992
234732,17632,-15984,17358,-15410,-130,633,-242,-162,-340,-214,-92,3786,4,25,855,1819,1902,2094,2260,2019,1797,1864,1992
235733,17616,-15916,17423,-15345,369,280,-241,-179,-350,-188,-105,3878,-2,39,851,1819,1902,2094,2260,2019,1797,1864,1992
236734,17612,-15848,17488,-15280,303,276,-238,-183,-355,-186,-125,3892,-5,43,850,1819,1902,2094,2260,2019,1797,1864,1992
237735,17628,-15780,17553,-15215,113,273,-236,-154,-365,-96,-201,3831,13,40,853,1819,1902,2094,2260,2019,1797,1864,1992
238736,17628,-15736,17618,-15150,392,599,-244,-117,-377,3,-69,3772,2,30,854,1819,1902,2094,2260,2019,1797,1864,1992
239737,17628,-15664,17683,-15085,472,240,-241,-94,-373,-75,-100,3855,10,40,852,1793,1871,2061,2245,2031,1807,1866,1981
240738,17628,-15624,17748,-15020,551,671,-236,-58,-371,51,-132,3984,-2,42,850,1793,1871,2061,2245,2031,1807,1866,1981
241739,17644,-15568,17813,-14955,411,483,-222,-53,-364,-26,-68,3989,15,42,850,1793,1871,2061,2245,2031,1807,1866,1981
242740,17668,-15512,17878,-14890,361,494,-204,-74,-358,-428,12,3994,19,36,850,1793,1871,2061,2245,2031,1807,1866,1981
243741,17664,-15436,17943,-14825,795,230,-193,-81,-361,-283,33,3963,5,43,851,1793,1871,2061,2245,2031,1807,1866,1981
244742,17692,-15380,18008,-14760,440,491,-187,-93,-360,-120,23,3954,7,37,851,1772,1855,2049,2236,2019,1796,1859,1967
245743,17716,-15320,18073,-14695,540,447,-181,-124,-352,-109,137,3894,17,42,851,1772,1855,2049,2236,2019,1796,1859,1967
246744,17748,-15252,18138,-14630,482,345,-182,-151,-344,-319,118,3972,25,40,851,1772,1855,2049,2236,2019,1796,1859,1967
247745,17764,-15196,18203,-14565,741,506,-187,-147,-338,-105,182,3914,30,28,851,1772,1855,2049,2236,2019,1796,1859,1967
248746,17804,-15144,18268,-14500,472,572,-197,-123,-345,104,110,3973,16,34,851,1772,1855,2049,2236,2019,1796,1859,1967
249747,17844,-15080,18333,-14435,502,423,-208,-96,-352,131,78,3801,35,34,850,1772,1855,2049,2236,2019,1796,1859,1967
250748,17888,-15020,18398,-14370,478,480,-213,-73,-349,111,52,3803,17,34,851,1800,1878,2069,2264,2016,1793,1862,1977
251749,17924,-14952,18463,-14305,613,376,-225,-69,-362,83,-32,3684,21,46,851,1800,1878,2069,2264,2016,1793,1862,1977
252750,17976,-14892,18528,-14240,430,482,-221,-38,-393,164,-94,3918,23,30,851,1800,1878,2069,2264,2016,1793,1862,1977
253751,18028,-14820,18593,-14175,446,324,-225,-49,-396,117,-104,3603,23,40,851,1800,1878,2069,2264,2016,1793,1862,1977
254752,18072,-14764,18658,-14110,572,536,-215,-74,-384,-137,-108,3726,30,37,851,1800,1878,2069,2264,2016,1793,1862,1977
255753,18124,-14704,18723,-14045,488,492,-209,-83,-384,-114,-150,3844,23,43,852,1826,1904,2100,2283,2023,1800,1868,1988
256754,18192,-14636,18788,-13980,284,388,-208,-69,-398,-83,-207,3781,28,41,851,1826,1904,2100,2283,2023,1800,1868,1988
257755,18244,-14588,18853,-13915,501,659,-210,-36,-394,80,-267,3653,35,29,851,1826,1904,2100,2283,2023,1800,1868,1988
258756,18292,-14524,18918,-13850,572,461,-213,-29,-378,69,-241,3580,27,42,852,1826,1904,2100,2283,2023,1800,1868,1988
259757,18356,-14484,18983,-13785,373,792,-204,-52,-369,-236,-177,3788,31,33,850,1826,1904,2100,2283,2023,1800,1868,1988
260758,18412,-14420,19048,-13720,484,493,-197,-70,-364,-301,-164,3886,30,36,851,1826,1904,2100,2283,2023,1800,1868,1988
261759,18472,-14352,19113,-13655,441,439,-181,-86,-348,-267,-132,3965,32,46,850,1819,1899,2089,2268,2023,1795,1861,1976
262760,18540,-14292,19178,-13590,337,546,-165,-113,-331,-213,-27,3980,46,43,851,1819,1899,2089,2268,2023,1795,1861,1976
263761,18604,-14232,19243,-13525,389,553,-150,-136,-315,-303,-27,4128,35,37,851,1819,1899,2089,2268,2023,1795,1861,1976
264762,18648,-14180,19308,-13460,664,668,-132,-157,-287,-199,86,4235,46,35,851,1819,1899,2089,2268,2023,1795,1861,1976
265763,18720,-14100,19373,-13395,307,300,-120,-173,-261,-210,191,4129,33,48,851,1819,1899,2089,2268,2023,1795,1861,1976
266764,18788,-14052,19438,-13330,353,722,-102,-168,-240,-112,224,4258,46,34,849,1794,1877,2059,2248,2012,1786,1860,1973
267765,18840,-13960,19503,-13265,569,139,-100,-126,-228,55,214,4440,33,32,853,1794,1877,2059,2248,2012,1786,1860,1973
268766,18904,-13916,19568,-13200,420,765,-97,-95,-222,396,270,4357,49,40,851,1794,1877,2059,2248,2012,1786,1860,1973
269767,18968,-13840,19633,-13135,422,352,-110,-98,-218,-134,188,3589,33,43,852,1794,1877,2059,2248,2012,1786,1860,1973
270768,19040,-13784,19698,-13070,314,613,-101,-71,-239,117,268,4257,43,33,849,1794,1877,2059,2248,2012,1786,1860,1973
271769,19092,-13736,19763,-13005,580,734,-92,-103,-235,143,82,3844,35,42,852,1794,1877,2059,2248,2012,1786,1860,1973
272770,19176,-13660,19828,-12940,156,370,-66,-156,-235,-259,163,3832,48,41,851,1812,1892,2081,2275,2027,1803,1871,1989
273771,19240,-13580,19893,-12875,409,303,-62,-195,-246,-396,35,4070,38,32,849,1812,1892,2081,2275,2027,1803,1871,1989
274772,19296,-13516,19958,-12810,520,504,-54,-198,-243,-141,-72,3971,42,31,852,1812,1892,2081,2275,2027,1803,1871,1989
275773,19372,-13464,20023,-12745,256,670,-37,-201,-237,54,-46,3778,48,45,852,1812,1892,2081,2275,2027,1803,1871,1989
276774,19440,-13392,20088,-12680,353,412,-9,-240,-219,-152,-227,3841,35,39,851,1812,1892,2081,2275,2027,1803,1871,1989
277775,19488,-13340,20153,-12615,624,679,15,-262,-218,-580,-302,3847,30,45,851,1836,1914,2114,2301,2031,1806,1871,1992
278776,19556,-13284,20218,-12550,371,639,39,-255,-220,-462,-338,3815,42,43,852,1836,1914,2114,2301,2031,1806,1871,1992
279777,19628,-13212,20283,-12485,312,431,42,-236,-207,-333,-304,3835,38,32,849,1836,1914,2114,2301,2031,1806,1871,1992
280778,19700,-13156,20348,-12420,304,643,42,-224,-190,-308,-212,3879,31,34,851,1836,1914,2114,2301,2031,1806,1871,1992
281779,19736,-13092,20413,-12355,790,544,36,-215,-167,-354,2,4130,42,42,852,1836,1914,2114,2301,2031,1806,1871,1992
282780,19812,-13040,20478,-12290,276,710,28,-230,-145,-432,99,4128,45,44,851,1836,1914,2114,2301,2031,1806,1871,1992
283781,19872,-12972,20543,-12225,483,506,17,-232,-142,-433,143,4054,47,42,848,1841,1920,2105,2290,2003,1781,1854,1967
284782,19936,-12904,20608,-12160,434,504,9,-236,-127,-487,61,4092,35,44,851,1841,1920,2105,2290,2003,1781,1854,1967
285783,20000,-12848,20673,-12095,436,665,1,-227,-113,-313,119,4095,37,42,851,1841,1920,2105,2290,2003,1781,1854,1967
286784,20052,-12784,20738,-12030,602,566,5,-208,-108,-301,184,4106,40,35,851,1841,1920,2105,2290,2003,1781,1854,1967
287785,20112,-12728,20803,-11965,508,677,5,-207,-111,-330,190,4126,36,28,850,1841,1920,2105,2290,2003,1781,1854,1967
288786,20172,-12676,20868,-11900,514,744,12,-214,-117,-246,218,4213,48,39,850,1818,1894,2075,2261,2011,1790,1863,1979
289787,20228,-12616,20933,-11835,576,650,25,-224,-116,-313,174,4081,47,30,849,1818,1894,2075,2261,2011,1790,1863,1979
290788,20292,-12556,20998,-11770,477,656,54,-237,-127,-172,134,4204,30,39,849,1818,1894,2075,2261,2011,1790,1863,1979
291789,20360,-12504,21063,-11705,424,773,82,-249,-127,-308,125,4009,37,44,847,1818,1894,2075,2261,2011,1790,1863,1979
292790,20424,-12448,21128,-11640,475,734,113,-273,-129,-339,56,4069,42,39,849,1818,1894,2075,2261,2011,1790,1863,1979
293791,20480,-12388,21193,-11575,587,690,144,-279,-130,-372,-10,4101,32,45,849,1818,1894,2075,2261,2011,1790,1863,1979
294792,20536,-12324,21258,-11510,598,642,177,-279,-135,-347,62,3909,27,43,849,1796,1874,2067,2251,2038,1812,1876,1992
295793,20604,-12252,21323,-11445,444,534,190,-277,-125,-357,11,3971,44,43,849,1796,1874,2067,2251,2038,1812,1876,1992
296794,20664,-12184,21388,-11380,551,580,202,-282,-118,-281,80,3868,46,40,849,1796,1874,2067,2251,2038,1812,1876,1992
297795,20732,-12120,21453,-11315,448,631,196,-274,-118,-280,62,3926,29,34,851,1796,1874,2067,2251,2038,1812,1876,1992
298796,20784,-12052,21518,-11250,663,579,189,-261,-117,-346,65,3918,34,30,850,1796,1874,2067,2251,2038,1812,1876,1992
299797,20840,-11992,21583,-11185,624,685,176,-264,-95,-388,81,3792,41,36,850,1815,1897,2094,2282,2027,1803,1868,1985
300798,20912,-11940,21648,-11120,417,800,158,-275,-80,-444,87,3763,27,39,848,1815,1897,2094,2282,2027,1803,1868,1985
301799,20964,-11880,21713,-11055,683,708,142,-261,-82,-420,145,4029,44,32,849,1815,1897,2094,2282,2027,1803,1868,1985
302800,21028,-11800,21778,-10990,534,439,126,-254,-75,-356,53,3755,39,43,850,1815,1897,2094,2282,2027,1803,1868,1985
303801,21072,-11748,21843,-10925,810,805,114,-254,-60,-342,52,4055,27,40,848,1815,1897,2094,2282,2027,1803,1868,1985
304802,21120,-11692,21908,-10860,781,767,111,-251,-63,-559,72,3946,36,43,851,1815,1897,2094,2282,2027,1803,1868,1985
305803,21188,-11620,21973,-10795,528,559,112,-245,-73,-225,105,4131,37,45,846,1826,1905,2098,2280,2022,1797,1862,1982
306804,21260,-11572,22038,-10730,469,879,118,-260,-65,-218,-25,4123,40,34,847,1826,1905,2098,2280,2022,1797,1862,1982
307805,21312,-11504,22103,-10665,736,627,116,-274,-61,-314,52,3970,44,47,850,1826,1905,2098,2280,2022,1797,1862,1982
308806,21364,-11432,22168,-10600,752,568,118,-264,-74,-284,156,4093,40,50,847,1826,1905,2098,2280,2022,1797,1862,1982
309807,21420,-11360,22233,-10535,713,560,119,-246,-85,-37,86,4128,42,44,847,1826,1905,2098,2280,2022,1797,1862,1982
310808,21496,-11284,22298,-10470,451,497,133,-244,-82,-22,122,4201,41,34,849,1807,1887,2081,2254,2038,1808,1872,1996
311809,21532,-11236,22363,-10405,986,868,145,-233,-92,-155,136,4093,38,43,849,1807,1887,2081,2254,2038,1808,1872,1996
312810,21604,-11156,22428,-10340,527,450,156,-233,-99,-199,114,4122,47,49,851,1807,1887,2081,2254,2038,1808,1872,1996
313811,21668,-11100,22493,-10275,629,761,159,-238,-91,-109,193,4031,52,42,845,1807,1887,2081,2254,2038,1808,1872,1996
314812,21720,-11048,22558,-10210,795,827,169,-232,-89,-138,163,4051,37,46,851,1807,1887,2081,2254,2038,1808,1872,1996
315813,21784,-10972,22623,-10145,647,514,163,-248,-88,-245,203,3855,38,32,848,1807,1887,2081,2254,2038,1808,1872,1996
316814,21856,-10916,22688,-10080,538,775,169,-246,-75,-298,217,3953,49,34,846,1796,1877,2070,2253,2044,1815,1880,2000
317815,21932,-10864,22753,-10015,476,842,161,-258,-65,-237,180,3870,46,46,849,1796,1877,2070,2253,2044,1815,1880,2000
318816,22000,-10800,22818,-9950,572,693,161,-270,-52,-109,238,3956,41,34,848,1796,1877,2070,2253,2044,1815,1880,2000
319817,22052,-10720,22883,-9885,788,475,140,-284,-38,-162,250,3787,33,47,849,1796,1877,2070,2253,2044,1815,1880,2000
320820,22120,-10660,22948,-9820,585,732,121,-291,-19,-224,283,3827,48,31,850,1796,1877,2070,2253,2044,1815,1880,2000
321819,22192,-10604,23013,-9755,527,793,103,-268,-14,-235,367,3922,34,40,849,1802,1887,2079,2260,2042,1810,1874,1996
322820,22260,-10540,23078,-9690,573,694,114,-212,-18,-29,310,4123,48,41,848,1802,1887,2079,2260,2042,1810,1874,1996
323821,22324,-10480,23143,-9625,625,751,126,-152,-20,236,99,4148,40,42,849,1802,1887,2079,2260,2042,1810,1874,1996
324822,22388,-10436,23208,-9560,626,977,136,-94,-24,109,60,4246,29,33,849,1802,1887,2079,2260,2042,1810,1874,1996
325823,22444,-10364,23273,-9495,737,618,126,-78,-1,-383,-44,3765,33,38,847,1802,1887,2079,2260,2042,1810,1874,1996
326824,22520,-10316,23338,-9430,475,940,121,-77,37,-973,4,3897,46,32,845,1802,1887,2079,2260,2042,1810,1874,1996
327825,22560,-10268,23403,-9365,956,961,114,-66,46,-975,319,3974,49,40,848,1801,1882,2082,2260,2039,1809,1863,1985
328826,22640,-10192,23468,-9300,437,597,129,-52,30,-498,180,4011,39,32,847,1801,1882,2082,2260,2039,1809,1863,1985
329827,22696,-10144,23533,-9235,748,969,146,-46,10,-32,207,4008,36,29,844,1801,1882,2082,2260,2039,1809,1863,1985
330828,22768,-10088,23598,-9170,541,880,166,-56,3,-247,129,4209,34,32,850,1801,1882,2082,2260,2039,1809,1863,1985
331829,22816,-10008,23663,-9105,861,562,180,-88,4,-492,237,4041,45,41,846,1801,1882,2082,2260,2039,1809,1863,1985
332830,22900,-9956,23728,-9040,388,929,158,-100,0,-494,173,3806,48,39,848,1799,1874,2081,2265,2021,1799,1855,1972
333831,22968,-9900,23793,-8975,586,890,145,-102,10,-239,147,3803,50,28,847,1799,1874,2081,2265,2021,1799,1855,1972
334832,23036,-9832,23858,-8910,582,736,140,-137,25,-229,205,3598,38,30,848,1799,1874,2081,2265,2021,1799,1855,1972
335833,23120,-9768,23923,-8845,359,788,131,-158,35,-437,116,3757,52,43,847,1799,1874,2081,2265,2021,1799,1855,1972
336834,23188,-9732,23988,-8780,556,1174,131,-153,42,-117,306,3688,38,30,849,1799,1874,2081,2265,2021,1799,1855,1972
337835,23252,-9652,24053,-8715,607,605,118,-170,59,72,283,3648,48,31,849,1799,1874,2081,2265,2021,1799,1855,1972
338836,23308,-9596,24118,-8650,718,917,112,-154,69,185,369,3952,33,38,845,1816,1888,2083,2269,2013,1790,1858,1978
339837,23372,-9548,24183,-8585,620,1038,115,-129,78,185,395,3944,50,43,849,1816,1888,2083,2269,2013,1790,1858,1978
340838,23456,-9492,24248,-8520,347,950,129,-112,83,211,414,4015,44,40,846,1816,1888,2083,2269,2013,1790,1858,1978
341839,23520,-9440,24313,-8455,599,1016,143,-95,87,67,253,3897,39,30,845,1816,1888,2083,2269,2013,1790,1858,1978
342840,23576,-9384,24378,-8390,711,977,156,-84,85,98,294,4011,41,41,846,1816,1888,2083,2269,2013,1790,1858,1978
343841,23648,-9312,24443,-8325,502,769,172,-77,89,75,219,4003,48,34,845,1801,1883,2067,2241,2021,1788,1860,1986
344842,23704,-9252,24508,-8260,713,925,193,-88,89,-40,366,4196,48,34,846,1801,1883,2067,2241,2021,1788,1860,1986
345843,23768,-9196,24573,-8195,614,986,208,-115,91,-262,198,4040,46,30,849,1801,1883,2067,2241,2021,1788,1860,1986
346844,23832,-9136,24638,-8130,616,944,234,-161,108,-462,-71,4180,47,38,846,1801,1883,2067,2241,2021,1788,1860,1986
347845,23892,-9064,24703,-8065,672,785,247,-194,116,-586,204,4086,44,33,846,1801,1883,2067,2241,2021,1788,1860,1986
348846,23956,-9000,24768,-8000,624,887,248,-197,115,-266,171,4010,44,43,846,1801,1883,2067,2241,2021,1788,1860,1986
349847,24020,-8960,24833,-7935,626,1218,261,-198,114,-95,61,4104,34,37,847,1791,1886,2076,2252,2028,1792,1864,1991
350848,24080,-8912,24898,-7870,682,1138,267,-253,122,-546,250,4000,47,42,847,1791,1886,2076,2252,2028,1792,1864,1991
351849,24144,-8848,24963,-7805,633,941,268,-271,107,-368,160,3876,36,30,844,1791,1886,2076,2252,2028,1792,1864,1991
352850,24212,-8784,25028,-7740,581,942,276,-268,91,244,136,4212,34,37,844,1791,1886,2076,2252,2028,1792,1864,1991
353851,24276,-8736,25093,-7675,632,1163,295,-301,89,110,40,3740,42,40,846,1791,1886,2076,2252,2028,1792,1864,1991
354852,24364,-8688,25158,-7610,304,1184,309,-332,92,-313,110,3940,34,31,847,1827,1915,2108,2295,2034,1803,1873,1995
355853,24412,-8616,25223,-7545,824,876,311,-318,77,152,195,4012,47,27,844,1827,1915,2108,2295,2034,1803,1873,1995
356854,24484,-8548,25288,-7480,517,923,313,-303,72,535,186,3806,45,34,846,1827,1915,2108,2295,2034,1803,1873,1995
357855,24544,-8496,25353,-7415,673,1139,309,-317,89,390,70,3913,50,29,846,1827,1915,2108,2295,2034,1803,1873,1995
358856,24608,-8436,25418,-7350,624,1045,320,-300,92,227,220,4065,34,28,847,1827,1915,2108,2295,2034,1803,1873,1995
359857,24684,-8388,25483,-7285,462,1217,320,-292,88,299,238,3880,38,34,843,1827,1915,2108,2295,2034,1803,1873,1995
360858,24764,-8320,25548,-7220,394,963,331,-291,85,579,306,4103,36,42,844,1846,1921,2112,2302,2024,1799,1866,1978
361859,24812,-8272,25613,-7155,814,1235,348,-299,89,370,263,3944,37,28,845,1846,1921,2112,2302,2024,1799,1866,1978
362860,24868,-8204,25678,-7090,726,981,354,-334,90,23,311,4052,41,36,847,1846,1921,2112,2302,2024,1799,1866,1978
363861,24920,-8148,25743,-7025,792,1143,359,-337,92,129,206,4429,41,40,842,1846,1921,2112,2302,2024,1799,1866,1978
364862,25000,-8092,25808,-6960,424,1154,379,-354,98,287,299,4158,37,35,845,1846,1921,2112,2302,2024,1799,1866,1978
365863,25048,-8020,25873,-6895,846,946,391,-367,106,40,251,4213,33,39,843,1816,1888,2080,2265,2011,1787,1853,1970
366864,25100,-7976,25938,-6830,811,1322,399,-376,103,184,305,4373,47,42,845,1816,1888,2080,2265,2011,1787,1853,1970
367865,25172,-7924,26003,-6765,553,1238,420,-384,96,149,223,4231,50,32,845,1816,1888,2080,2265,2011,1787,1853,1970
368866,25228,-7868,26068,-6700,764,1200,438,-400,94,96,115,4345,45,31,842,1816,1888,2080,2265,2011,1787,1853,1970
369867,25292,-7796,26133,-6635,666,992,470,-388,111,-59,7,4471,42,41,844,1816,1888,2080,2265,2011,1787,1853,1970
370869,25348,-7744,26198,-6570,777,1259,492,-395,115,-201,178,4254,48,45,843,1816,1888,2080,2265,2011,1787,1853,1970
371869,25400,-7688,26263,-6505,843,1220,502,-379,101,20,159,4316,31,30,845,1792,1873,2067,2251,2030,1796,1864,1988
372870,25468,-7628,26328,-6440,640,1177,515,-359,97,308,226,4215,43,43,842,1792,1873,2067,2251,2030,1796,1864,1988
373871,25536,-7584,26393,-6375,637,1402,519,-356,94,241,186,3900,41,34,842,1792,1873,2067,2251,2030,1796,1864,1988
374872,25608,-7520,26458,-6310,578,1154,523,-329,73,247,307,4108,52,30,844,1792,1873,2067,2251,2030,1796,1864,1988
375873,25672,-7448,26523,-6245,680,1046,535,-312,69,202,219,3806,49,38,842,1792,1873,2067,2251,2030,1796,1864,1988
376874,25748,-7380,26588,-6180,517,1092,533,-323,62,198,55,3629,32,35,843,1824,1915,2109,2295,2044,1809,1879,2003
377875,25812,-7320,26653,-6115,668,1199,539,-321,36,282,236,3990,47,40,844,1824,1915,2109,2295,2044,1809,1879,2003
378876,25888,-7288,26718,-6050,506,1590,538,-304,24,315,280,3814,31,33,845,1824,1915,2109,2295,2044,1809,1879,2003
379877,25944,-7220,26783,-5985,767,1137,529,-265,17,641,314,3977,38,41,844,1824,1915,2109,2295,2044,1809,1879,2003
380878,26016,-7172,26848,-5920,558,1408,525,-239,19,536,321,3891,32,47,841,1824,1915,2109,2295,2044,1809,1879,2003
381879,26076,-7080,26913,-5855,715,826,529,-256,18,390,355,4140,51,47,844,1824,1915,2109,2295,2044,1809,1879,2003
382880,26136,-7024,26978,-5790,721,1287,551,-239,18,333,45,4292,36,36,843,1832,1913,2103,2287,2031,1802,1864,1980
383881,26188,-6956,27043,-5725,837,1134,576,-253,28,120,151,4312,49,40,847,1832,1913,2103,2287,2031,1802,1864,1980
384882,26252,-6876,27108,-5660,689,966,577,-230,22,31,252,4529,48,49,842,1832,1913,2103,2287,2031,1802,1864,1980
385883,26316,-6836,27173,-5595,691,1497,593,-177,18,578,154,4313,33,40,843,1832,1913,2103,2287,2031,1802,1864,1980
386884,26376,-6752,27238,-5530,747,924,593,-221,35,474,245,4230,35,30,846,1832,1913,2103,2287,2031,1802,1864,1980
387885,26456,-6688,27303,-5465,479,1175,604,-272,27,-194,245,4394,35,35,840,1800,1876,2070,2257,2018,1794,1856,1971
388886,26516,-6648,27368,-5400,736,1507,604,-286,6,113,223,4396,38,43,845,1800,1876,2070,2257,2018,1794,1856,1971
389887,26560,-6588,27433,-5335,961,1263,613,-306,3,357,262,4168,45,39,845,1800,1876,2070,2257,2018,1794,1856,1971
390888,26636,-6508,27498,-5270,549,996,604,-312,-1,249,267,4063,37,50,840,1800,1876,2070,2257,2018,1794,1856,1971
391889,26688,-6456,27563,-5205,865,1362,599,-289,-12,229,266,4386,45,32,841,1800,1876,2070,2257,2018,1794,1856,1971
392890,26752,-6396,27628,-5140,716,1269,597,-279,-5,376,285,4001,47,45,846,1800,1876,2070,2257,2018,1794,1856,1971
393891,26820,-6332,27693,-5075,663,1220,594,-289,-15,261,345,4161,44,36,839,1795,1878,2078,2267,2041,1807,1877,2006
394892,26888,-6284,27758,-5010,660,1442,596,-280,-29,268,331,3956,34,40,841,1795,1878,2078,2267,2041,1807,1877,2006
395893,26952,-6220,27823,-4945,711,1243,600,-264,-40,448,348,3810,47,39,842,1795,1878,2078,2267,2041,1807,1877,2006
396894,27032,-6160,27888,-4880,492,1300,585,-248,-46,347,264,3727,44,30,841,1795,1878,2078,2267,2041,1807,1877,2006
397895,27088,-6084,27953,-4815,804,1087,582,-226,-52,523,292,3976,46,27,843,1795,1878,2078,2267,2041,1807,1877,2006
398896,27164,-6036,28018,-4750,541,1458,617,-191,-34,960,-560,4262,45,26,844,1812,1901,2096,2272,2062,1819,1885,2018
399897,27240,-5984,28083,-4685,528,1424,651,-221,32,-471,-217,3999,44,32,844,1812,1901,2096,2272,2062,1819,1885,2018
400898,27300,-5940,28148,-4620,735,1551,581,-133,47,-1439,299,4312,47,32,841,1812,1901,2096,2272,2062,1819,1885,2018
401899,27344,-5892,28213,-4555,960,1522,491,18,29,362,146,3418,30,22,842,1812,1901,2096,2272,2062,1819,1885,2018
402900,27424,-5840,28278,-4490,492,1488,431,59,55,164,-163,4465,30,40,839,1812,1901,2096,2272,2062,1819,1885,2018
403901,27496,-5784,28343,-4425,584,1449,415,36,57,-344,158,3910,48,22,838,1812,1901,2096,2272,2062,1819,1885,2018
404902,27560,-5732,28408,-4360,686,1516,437,32,30,-185,141,4157,33,38,841,1807,1889,2079,2252,2061,1818,1878,2005
405903,27612,-5692,28473,-4295,852,1697,437,-76,-7,274,259,3500,31,31,841,1807,1889,2079,2252,2061,1818,1878,2005
406904,27676,-5640,28538,-4230,704,1564,437,-123,-44,-121,197,3948,46,31,839,1807,1889,2079,2252,2061,1818,1878,2005
407905,27736,-5592,28603,-4165,760,1634,430,-99,-58,-91,234,3928,43,38,837,1807,1889,2079,2252,2061,1818,1878,2005
408906,27792,-5540,28668,-4100,821,1601,424,-55,-54,556,157,3793,33,35,839,1807,1889,2079,2252,2061,1818,1878,2005
409907,27844,-5484,28733,-4035,888,1562,416,-8,-31,520,303,3943,48,30,839,1755,1831,2034,2211,2065,1824,1874,1997
410908,27920,-5412,28798,-3970,574,1355,424,41,-14,361,387,3821,40,39,837,1755,1831,2034,2211,2065,1824,1874,1997
411909,27968,-5368,28863,-3905,945,1731,437,52,-4,378,364,3878,42,42,837,1755,1831,2034,2211,2065,1824,1874,1997
412910,28032,-5316,28928,-3840,747,1647,452,27,1,207,291,3712,47,33,843,1755,1831,2034,2211,2065,1824,1874,1997
413911,28092,-5240,28993,-3775,803,1335,461,0,11,-83,251,3810,41,33,836,1755,1831,2034,2211,2065,1824,1874,1997
414912,28148,-5184,29058,-3710,864,1596,460,2,29,132,576,3764,40,36,838,1755,1831,2034,2211,2065,1824,1874,1997
415913,28224,-5108,29123,-3645,602,1333,449,11,61,247,378,3576,41,38,841,1741,1819,2021,2202,2034,1798,1851,1973
416914,28300,-5056,29188,-3580,588,1649,429,1,99,78,353,3403,40,38,838,1741,1819,2021,2202,2034,1798,1851,1973
417915,28352,-4980,29253,-3515,904,1337,397,-52,133,-405,442,3353,43,35,843,1741,1819,2021,2202,2034,1798,1851,1973
418916,28416,-4908,29318,-3450,757,1378,366,-68,143,-212,460,3498,47,45,839,1741,1819,2021,2202,2034,1798,1851,1973
419917,28488,-4864,29383,-3385,648,1755,333,-85,145,249,465,3422,48,38,840,1741,1819,2021,2202,2034,1798,1851,1973
420918,28544,-4776,29448,-3320,859,1178,307,-76,150,215,450,3511,37,36,841,1774,1858,2056,2232,2004,1768,1833,1965
421919,28624,-4716,29513,-3255,542,1534,286,-70,141,186,380,3558,38,43,838,1774,1858,2056,2232,2004,1768,1833,1965
422920,28680,-4648,29578,-3190,853,1431,276,-58,139,-48,551,3700,51,34,842,1774,1858,2056,2232,2004,1768,1833,1965
423921,28744,-4592,29643,-3125,754,1592,251,-68,140,13,510,3466,47,40,840,1774,1858,2056,2232,2004,1768,1833,1965
424922,28812,-4524,29708,-3060,701,1440,241,-64,116,371,409,3539,47,31,839,1774,1858,2056,2232,2004,1768,1833,1965
425923,28872,-4456,29773,-2995,807,1436,246,-38,89,362,491,3880,32,32,839,1774,1858,2056,2232,2004,1768,1833,1965
426924,28952,-4392,29838,-2930,539,1488,262,-59,59,257,467,3306,46,45,841,1784,1869,2062,2220,2019,1773,1841,1983
427925,28992,-4340,29903,-2865,1071,1654,285,-66,30,-26,649,3934,47,30,839,1784,1869,2062,2220,2019,1773,1841,1983
428926,29064,-4272,29968,-2800,662,1451,300,-103,5,7,662,3411,29,32,840,1784,1869,2062,2220,2019,1773,1841,1983
429927,29112,-4196,30033,-2735,983,1339,304,-133,-18,104,743,3614,44,42,835,1784,1869,2062,2220,2019,1773,1841,1983
430928,29172,-4148,30098,-2670,840,1710,314,-192,-15,-124,759,3591,47,40,840,1784,1869,2062,2220,2019,1773,1841,1983
431929,29224,-4108,30163,-2605,956,1841,313,-223,-5,53,851,3485,38,41,839,1775,1863,2055,2219,2029,1788,1855,1988
432930,29280,-4052,30228,-2540,918,1652,304,-289,-4,194,810,3278,44,36,837,1775,1863,2055,2219,2029,1788,1855,1988
433931,29340,-4004,30293,-2475,874,1774,302,-351,12,-80,837,3658,36,45,834,1775,1863,2055,2219,2029,1788,1855,1988
434932,29396,-3932,30358,-2410,935,1465,304,-368,41,-53,897,3598,42,34,837,1775,1863,2055,2219,2029,1788,1855,1988
435933,29484,-3876,30423,-2345,508,1677,317,-350,68,323,829,3669,36,37,835,1775,1863,2055,2219,2029,1788,1855,1988
436934,29528,-3820,30488,-2280,1083,1689,317,-375,102,469,800,3546,32,36,838,1775,1863,2055,2219,2029,1788,1855,1988
437935,29608,-3764,30553,-2215,615,1700,330,-441,144,203,774,3539,46,44,839,1779,1865,2058,2233,2022,1788,1852,1980
438936,29668,-3716,30618,-2150,872,1822,341,-502,161,-25,869,3831,46,31,835,1779,1865,2058,2233,2022,1788,1852,1980
439937,29736,-3656,30683,-2085,769,1678,357,-541,160,4,905,3929,36,45,838,1779,1865,2058,2233,2022,1788,1852,1980
440938,29796,-3588,30748,-2020,875,1576,353,-535,158,194,915,4004,46,31,835,1779,1865,2058,2233,2022,1788,1852,1980
441939,29860,-3520,30813,-1955,827,1572,358,-489,147,408,886,4027,43,43,837,1779,1865,2058,2233,2022,1788,1852,1980
442940,29904,-3464,30878,-1890,1102,1734,354,-459,111,381,930,4018,41,31,838,1787,1869,2067,2239,2011,1777,1840,1974
443941,29956,-3416,30943,-1825,1019,1856,336,-481,77,449,969,3869,25,32,838,1787,1869,2067,2239,2011,1777,1840,1974
444942,30000,-3352,31008,-1760,1145,1657,333,-527,29,325,945,3897,44,43,832,1787,1869,2067,2239,2011,1777,1840,1974
445943,30072,-3300,31073,-1695,786,1824,322,-561,-13,-83,807,3998,33,34,832,1787,1869,2067,2239,2011,1777,1840,1974
446944,30148,-3244,31138,-1630,724,1786,322,-571,-35,-128,754,4062,51,43,835,1787,1869,2067,2239,2011,1777,1840,1974
447945,30188,-3176,31203,-1565,1205,1632,334,-591,-49,-126,718,3907,30,38,836,1787,1869,2067,2239,2011,1777,1840,1974
448946,30244,-3120,31402,-1366,1866,2645,337,-633,-59,-325,739,4144,39,39,836,1791,1880,2091,2263,2028,1790,1847,1986
449947,30312,-3060,31467,-1301,1713,2601,342,-639,-68,-384,866,4372,31,22,834,1791,1880,2091,2263,2028,1790,1847,1986
450948,30376,-2984,31532,-1236,1765,2388,331,-614,-92,-160,866,4121,47,46,816,1791,1880,2091,2263,2028,1790,1847,1986
451949,30452,-2896,31597,-1171,1602,2211,316,-562,-89,92,821,4205,65,55,818,1791,1880,2091,2263,2028,1790,1847,1986
452950,30544,-2808,31662,-1106,1369,2183,313,-526,-60,108,930,4132,54,58,821,1791,1880,2091,2263,2028,1790,1847,1986
453951,30640,-2712,31727,-1041,1282,2046,320,-523,-37,106,956,4120,60,64,825,1810,1896,2105,2277,2056,1818,1879,2016
454952,30716,-2624,31792,-976,1519,2119,324,-551,-40,-158,959,4185,63,61,828,1810,1896,2105,2277,2056,1818,1879,2016
455953,30804,-2524,31857,-911,1341,1926,333,-548,-20,-255,1041,4434,58,53,830,1810,1896,2105,2277,2056,1818,1879,2016
456954,30888,-2416,31922,-846,1369,1775,340,-519,12,67,1141,4229,61,56,827,1810,1896,2105,2277,2056,1818,1879,2016
457955,30976,-2308,31987,-781,1291,1723,343,-468,24,378,1093,4342,62,65,832,1810,1896,2105,2277,2056,1818,1879,2016
458956,31088,-2240,32052,-716,934,2220,356,-462,18,176,1355,4603,68,64,832,1810,1896,2105,2277,2056,1818,1879,2016
459957,31208,-2120,32117,-651,767,1504,376,-497,19,141,1345,4560,76,49,833,1806,1888,2098,2278,2074,1837,1889,2018
460958,31308,-2056,32182,-586,974,2205,387,-538,5,214,1140,4436,68,50,830,1806,1888,2098,2278,2074,1837,1889,2018
461959,31428,-1956,32247,-521,658,1713,419,-539,-19,-55,1325,5057,65,43,838,1806,1888,2098,2278,2074,1837,1889,2018
462960,31544,-1876,32312,-456,646,1945,421,-502,-38,-1,1207,4758,72,60,828,1806,1888,2098,2278,2074,1837,1889,2018
463961,31628,-1804,32377,-391,1023,2037,443,-526,-66,222,1241,4645,59,44,838,1806,1888,2098,2278,2074,1837,1889,2018
464962,31732,-1708,32442,-326,725,1700,435,-534,-94,476,1468,5034,60,50,835,1812,1887,2104,2290,2064,1824,1872,2003
465963,31820,-1672,32507,-261,898,2486,453,-504,-136,330,1578,4718,54,46,831,1812,1887,2104,2290,2064,1824,1872,2003
466964,31900,-1596,32572,-196,980,1972,438,-459,-183,268,1464,4613,50,36,837,1812,1887,2104,2290,2064,1824,1872,2003
467965,31980,-1540,32637,-131,962,2234,433,-426,-243,377,1343,4549,63,32,826,1812,1887,2104,2290,2064,1824,1872,2003
468966,32072,-1472,32702,-66,780,2082,421,-429,-261,201,1352,4838,58,29,831,1812,1887,2104,2290,2064,1824,1872,2003
469967,32144,-1424,32767,-1,1021,2353,433,-424,-284,29,1117,4934,51,27,829,1836,1915,2136,2315,2046,1813,1863,2001
470968,32228,-1360,32832,64,848,2155,421,-439,-277,-458,1090,4863,64,32,832,1836,1915,2136,2315,2046,1813,1863,2001
471969,32316,-1316,32897,129,770,2430,407,-432,-274,-339,1054,4795,49,38,827,1836,1915,2136,2315,2046,1813,1863,2001
472970,32396,-1256,32962,194,851,2238,384,-419,-252,-111,938,4579,43,31,831,1836,1915,2136,2315,2046,1813,1863,2001
473971,32484,-1200,33027,259,724,2299,395,-440,-212,-237,1016,4788,41,38,828,1836,1915,2136,2315,2046,1813,1863,2001
474972,32548,-1136,33092,324,1026,2201,391,-468,-189,-551,1130,4683,40,40,830,1836,1915,2136,2315,2046,1813,1863,2001
475973,32608,-1064,33157,389,1082,2092,384,-451,-193,-117,1177,4723,54,41,830,1850,1937,2156,2329,2068,1833,1889,2036
476974,32680,-1004,33222,454,923,2249,386,-442,-183,304,1289,4551,51,46,828,1850,1937,2156,2329,2068,1833,1889,2036
477975,32752,-952,33287,519,915,2365,386,-444,-171,31,1358,4669,41,31,830,1850,1937,2156,2329,2068,1833,1889,2036
478976,32820,-880,33352,584,962,2108,372,-422,-182,-138,1365,4405,49,34,828,1850,1937,2156,2329,2068,1833,1889,2036
479977,32888,-816,33417,649,958,2210,364,-423,-199,149,1545,4343,42,34,826,1850,1937,2156,2329,2068,1833,1889,2036
480978,32964,-736,33482,714,845,1992,355,-453,-222,163,1454,4592,49,47,831,1837,1921,2132,2300,2096,1848,1901,2045
481979,33024,-676,33547,779,1051,2249,376,-472,-254,62,1624,4511,42,49,829,1837,1921,2132,2300,2096,1848,1901,2045
482980,33076,-612,33612,844,1167,2200,410,-539,-293,270,1632,4661,37,34,833,1837,1921,2132,2300,2096,1848,1901,2045
483981,33152,-552,33677,909,854,2257,454,-589,-350,-51,1348,4902,54,37,828,1837,1921,2132,2300,2096,1848,1901,2045
484982,33208,-464,33742,974,1115,1879,473,-601,-408,-77,1849,4792,54,46,828,1837,1921,2132,2300,2096,1848,1901,2045
485983,33264,-380,33807,1039,1126,1907,481,-590,-452,583,1836,4329,36,55,829,1837,1921,2132,2300,2096,1848,1901,2045
486984,33332,-312,33872,1104,973,2103,477,-620,-463,749,1629,4627,54,37,832,1803,1886,2091,2255,2079,1830,1882,2024
487985,33400,-232,33937,1169,969,1936,475,-678,-469,95,1778,4480,48,37,832,1803,1886,2091,2255,2079,1830,1882,2024
488986,33488,-164,34002,1234,692,2082,472,-696,-470,-263,1553,4349,50,49,830,1803,1886,2091,2255,2079,1830,1882,2024
489987,33552,-76,34067,1299,993,1805,456,-699,-475,270,1468,4139,48,34,833,1803,1886,2091,2255,2079,1830,1882,2024
490988,33616,8,34132,1364,994,1833,451,-768,-442,529,1405,3970,36,51,833,1803,1886,2091,2255,2079,1830,1882,2024
491989,33684,76,34197,1429,941,2029,423,-914,-408,-97,1231,3709,47,38,834,1792,1872,2080,2240,2039,1797,1840,1988
492990,33740,152,34262,1494,1102,1917,327,-964,-437,-1330,1298,4552,45,38,834,1792,1872,2080,2240,2039,1797,1840,1988
493991,33808,212,34327,1559,949,2123,224,-834,-477,-304,1403,3776,36,50,832,1792,1872,2080,2240,2039,1797,1840,1988
494992,33868,276,34392,1624,1055,2075,145,-729,-464,757,1185,3944,38,55,831,1792,1872,2080,2240,2039,1797,1840,1988
495996,33944,368,34457,1689,842,1692,140,-722,-409,444,1189,4087,51,45,830,1792,1872,2080,2240,2039,1797,1840,1988
496994,34000,448,34522,1754,1103,1825,186,-834,-363,-365,1107,3604,55,49,829,1792,1872,2080,2240,2039,1797,1840,1988
497995,34080,536,34587,1819,784,1697,274,-997,-347,-802,1116,4079,51,48,836,1782,1874,2084,2220,2063,1818,1860,2019
498996,34140,612,34652,1884,1042,1834,336,-1085,-360,-262,1086,3770,58,58,833,1782,1874,2084,2220,2063,1818,1860,2019
499997,34216,692,34717,1949,828,1766,352,-1082,-372,278,1111,3819,38,47,837,1782,1874,2084,2220,2063,1818,1860,2019
500998,34284,788,34782,2014,924,1529,340,-1025,-365,284,1302,3953,58,47,834,1782,1874,2084,2220,2063,1818,1860,2019
501999,34348,864,34847,2079,976,1766,317,-968,-372,285,1573,3762,53,55,836,1782,1874,2084,2220,2063,1818,1860,2019
503000,34416,952,34912,2144,922,1588,301,-946,-397,302,1708,3825,45,50,838,1764,1854,2066,2214,2056,1804,1856,1991
504001,34500,1040,34977,2209,700,1561,295,-993,-423,230,1947,3661,57,57,835,1764,1854,2066,2214,2056,1804,1856,1991
505002,34568,1128,35042,2274,896,1532,301,-1070,-434,62,1964,3567,58,56,836,1764,1854,2066,2214,2056,1804,1856,1991
506003,34640,1196,35107,2339,838,1780,311,-1126,-441,186,2032,3677,48,46,839,1764,1854,2066,2214,2056,1804,1856,1991
507004,34716,1276,35172,2404,774,1611,299,-1158,-455,326,2022,3387,42,50,838,1764,1854,2066,2214,2056,1804,1856,1991
508005,34780,1348,35237,2469,925,1704,288,-1154,-467,241,1926,3534,49,49,836,1764,1854,2066,2214,2056,1804,1856,1991
509006,34840,1428,35302,2534,981,1586,271,-1125,-454,106,2071,3680,40,43,838,1771,1848,2051,2221,2015,1776,1830,1955
510007,34920,1512,35367,2599,714,1512,252,-1101,-445,375,1854,3263,59,54,836,1771,1848,2051,2221,2015,1776,1830,1955
511008,35000,1580,35432,2664,696,1710,238,-1085,-430,431,1767,3406,46,52,836,1771,1848,2051,2221,2015,1776,1830,1955
512009,35068,1656,35497,2729,842,1596,240,-1095,-397,168,1642,3352,42,43,839,1771,1848,2051,2221,2015,1776,1830,1955
513010,35156,1736,35562,2794,564,1529,260,-1105,-364,15,1536,3460,58,54,835,1771,1848,2051,2221,2015,1776,1830,1955
514011,35236,1824,35627,2859,646,1401,286,-1120,-323,77,1350,3448,45,48,836,1774,1849,2059,2220,1990,1759,1802,1935
515012,35308,1888,35692,2924,737,1702,318,-1139,-282,101,1300,3539,56,43,840,1774,1849,2059,2220,1990,1759,1802,1935
516013,35376,1952,35757,2989,785,1704,351,-1135,-259,-70,1210,3507,51,42,841,1774,1849,2059,2220,1990,1759,1802,1935
517014,35452,2032,35822,3054,671,1486,368,-1124,-234,-2,1180,3409,49,40,837,1774,1849,2059,2220,1990,1759,1802,1935
518015,35524,2104,35887,3119,713,1579,386,-1111,-196,45,1252,3416,49,52,837,1774,1849,2059,2220,1990,1759,1802,1935
519016,35604,2168,35952,3184,594,1680,394,-1109,-164,118,1264,3229,42,50,840,1774,1849,2059,2220,1990,1759,1802,1935
520017,35676,2252,36017,3249,686,1407,394,-1102,-141,11,1226,3253,42,51,839,1772,1854,2074,2229,1977,1748,1794,1925
521018,35752,2328,36082,3314,622,1494,394,-1083,-132,93,1415,3190,49,53,839,1772,1854,2074,2229,1977,1748,1794,1925
522019,35828,2392,36147,3379,609,1645,384,-1073,-118,95,1520,3193,53,45,841,1772,1854,2074,2229,1977,1748,1794,1925
523020,35896,2492,36212,3444,705,1154,378,-1055,-117,186,1570,3193,46,53,841,1772,1854,2074,2229,1977,1748,1794,1925
524021,35968,2580,36277,3509,648,1276,346,-1037,-127,239,1735,3225,44,59,839,1772,1854,2074,2229,1977,1748,1794,1925
525022,36040,2668,36342,3574,639,1247,327,-988,-122,377,1872,3337,43,58,843,1789,1864,2067,2233,1986,1757,1816,1940
526023,36108,2760,36407,3639,685,1165,322,-943,-100,597,1967,2959,53,41,842,1789,1864,2067,2233,1986,1757,1816,1940
527024,36196,2832,36472,3704,407,1407,306,-947,-103,415,1789,2871,53,46,843,1789,1864,2067,2233,1986,1757,1816,1940
528025,36272,2912,36537,3769,544,1289,303,-963,-113,-87,1827,3304,54,49,843,1789,1864,2067,2233,1986,1757,1816,1940
529026,36340,2988,36602,3834,640,1326,293,-953,-108,52,1779,3069,54,44,843,1789,1864,2067,2233,1986,1757,1816,1940
530027,36420,3072,36667,3899,472,1203,288,-933,-86,316,1601,3173,52,36,842,1789,1864,2067,2233,1986,1757,1816,1940
531028,36504,3148,36732,3964,399,1290,287,-905,-57,370,1631,3298,55,41,841,1760,1829,2031,2191,2020,1787,1832,1965
532029,36576,3228,36797,4029,540,1222,298,-883,-24,239,1496,3001,37,48,844,1760,1829,2031,2191,2020,1787,1832,1965
533030,36660,3284,36862,4094,367,1533,315,-886,1,-72,1364,3216,51,41,844,1760,1829,2031,2191,2020,1787,1832,1965
534031,36732,3356,36927,4159,510,1325,338,-896,22,-52,1316,3218,54,41,844,1760,1829,2031,2191,2020,1787,1832,1965
535032,36804,3436,36992,4224,501,1206,355,-901,45,109,1232,3175,44,51,842,1760,1829,2031,2191,2020,1787,1832,1965
536033,36876,3516,37057,4289,492,1189,371,-894,86,147,1147,3236,36,56,843,1711,1793,2007,2151,2039,1797,1831,1969
537034,36952,3612,37122,4354,429,951,378,-880,133,180,1138,3206,35,48,844,1711,1793,2007,2151,2039,1797,1831,1969
538035,37028,3668,37187,4419,416,1462,379,-871,154,164,1218,3157,40,59,845,1711,1793,2007,2151,2039,1797,1831,1969
539036,37092,3764,37252,4484,567,925,356,-863,169,66,1157,3090,46,51,847,1711,1793,2007,2151,2039,1797,1831,1969
540037,37148,3840,37317,4549,678,1162,322,-850,194,150,1240,3168,43,46,842,1711,1793,2007,2151,2039,1797,1831,1969
541038,37240,3936,37382,4614,195,874,267,-844,203,77,1307,3076,51,60,847,1711,1793,2007,2151,2039,1797,1831,1969
542039,37320,4036,37447,4679,327,781,227,-802,233,262,1354,3192,49,52,844,1714,1804,2016,2160,2016,1776,1820,1959
543040,37388,4120,37512,4744,473,959,172,-776,247,383,1364,2887,37,49,849,1714,1804,2016,2160,2016,1776,1820,1959
544041,37452,4224,37577,4809,524,662,110,-800,239,184,1347,2969,34,52,849,1714,1804,2016,2160,2016,1776,1820,1959
545042,37532,4300,37642,4874,306,998,39,-798,236,-112,1328,3124,40,56,847,1714,1804,2016,2160,2016,1776,1820,1959
546044,37596,4368,37707,4939,507,1095,-30,-773,237,203,1297,2825,48,49,849,1714,1804,2016,2160,2016,1776,1820,1959
547044,37676,4460,37772,5004,289,763,-103,-728,255,391,1208,3079,35,51,846,1728,1818,2020,2155,2039,1793,1839,1995
548045,37752,4536,37837,5069,325,949,-158,-683,266,325,1257,3042,54,57,844,1728,1818,2020,2155,2039,1793,1839,1995
549046,37824,4632,37902,5134,367,661,-201,-671,268,59,1217,2844,36,48,850,1728,1818,2020,2155,2039,1793,1839,1995
550047,37884,4704,37967,5199,523,953,-242,-663,263,61,1174,3078,52,55,847,1728,1818,2020,2155,2039,1793,1839,1995
551048,37956,4772,38032,5264,364,999,-257,-641,266,192,1152,3135,32,53,850,1728,1818,2020,2155,2039,1793,1839,1995
552049,38060,4844,38097,5329,-83,941,-276,-636,275,147,1115,2923,42,43,847,1728,1818,2020,2155,2039,1793,1839,1995
553050,38120,4924,38162,5394,473,823,-300,-624,286,119,1014,3028,52,54,847,1684,1779,1982,2100,2102,1841,1875,2037
554051,38196,5000,38227,5459,259,860,-310,-611,310,48,1046,3078,36,54,847,1684,1779,1982,2100,2102,1841,1875,2037
555052,38276,5076,38292,5524,191,846,-328,-607,324,122,1114,2804,40,51,848,1684,1779,1982,2100,2102,1841,1875,2037
556053,38348,5176,38357,5589,282,504,-348,-580,343,56,933,3017,53,54,849,1684,1779,1982,2100,2102,1841,1875,2037
557054,38428,5260,38422,5654,164,680,-358,-542,373,320,1150,3032,35,40,849,1684,1779,1982,2100,2102,1841,1875,2037
558055,38488,5340,38487,5719,420,712,-378,-535,396,296,1083,2841,41,43,851,1644,1746,1953,2077,2097,1835,1864,2008
559056,38568,5424,38552,5784,152,640,-421,-541,406,198,1119,3044,43,49,851,1644,1746,1953,2077,2097,1835,1864,2008
560057,38632,5516,38617,5849,353,507,-477,-530,431,85,1166,2834,36,48,849,1644,1746,1953,2077,2097,1835,1864,2008
561058,38708,5580,38682,5914,190,858,-541,-506,458,291,1175,2901,47,53,851,1644,1746,1953,2077,2097,1835,1864,2008
562059,38780,5668,38747,5979,231,530,-615,-450,474,387,1150,2959,51,53,851,1644,1746,1953,2077,2097,1835,1864,2008
563060,38852,5732,38812,6044,223,831,-700,-406,487,442,1232,2835,49,47,849,1644,1746,1953,2077,2097,1835,1864,2008
564062,38920,5816,38877,6109,269,558,-776,-384,503,288,1215,2667,46,39,848,1655,1753,1955,2094,2046,1796,1832,1968
565062,39008,5868,38942,6174,-9,974,-855,-371,509,451,1093,2828,33,41,851,1655,1753,1955,2094,2046,1796,1832,1968
566063,39088,5960,39007,6239,73,441,-918,-326,502,440,939,2818,38,50,849,1655,1753,1955,2094,2046,1796,1832,1968
567064,39140,6048,39072,6304,438,464,-984,-260,512,291,817,2795,39,58,853,1655,1753,1955,2094,2046,1796,1832,1968
568065,39224,6132,39137,6369,15,491,-1051,-191,513,419,883,2848,33,41,851,1655,1753,1955,2094,2046,1796,1832,1968
569066,39280,6208,39202,6434,376,577,-1109,-153,522,683,738,2695,46,55,853,1669,1764,1973,2105,2046,1798,1832,1979
570067,39364,6280,39267,6499,3,619,-1146,-121,520,609,679,2665,46,39,850,1669,1764,1973,2105,2046,1798,1832,1979
571068,39432,6368,39332,6564,199,391,-1181,-75,514,344,548,2621,43,52,851,1669,1764,1973,2105,2046,1798,1832,1979
572069,39516,6468,39397,6629,-24,198,-1213,-4,505,385,497,2718,38,49,852,1669,1764,1973,2105,2046,1798,1832,1979
573070,39600,6548,39462,6694,-47,430,-1229,45,521,455,591,2420,33,43,854,1669,1764,1973,2105,2046,1798,1832,1979
574071,39664,6620,39527,6759,204,521,-1250,105,532,418,521,2564,50,42,853,1669,1764,1973,2105,2046,1798,1832,1979
575072,39732,6708,39592,6824,151,293,-1284,141,541,378,636,2477,33,46,852,1661,1756,1970,2100,2066,1814,1843,1979
576073,39824,6792,39657,6889,-182,320,-1327,163,555,341,782,2283,34,41,853,1661,1756,1970,2100,2066,1814,1843,1979
577074,39888,6880,39722,6954,169,242,-1377,193,582,350,756,2348,39,44,844,1661,1756,1970,2100,2066,1814,1843,1979
578075,39968,6964,39787,7019,-49,269,-1429,255,610,460,822,2413,51,51,853,1661,1756,1970,2100,2066,1814,1843,1979
579076,40064,7052,39852,7084,-287,191,-1481,312,636,581,983,2258,38,53,854,1661,1756,1970,2100,2066,1814,1843,1979
580077,40148,7128,39917,7149,-160,327,-1539,372,659,519,881,2411,39,56,845,1654,1746,1946,2048,2048,1791,1830,1949
581078,40256,7224,39982,7214,-514,39,-1590,450,674,767,1017,2496,39,52,853,1654,1746,1946,2048,2048,1791,1830,1949
582079,40344,7304,40047,7279,-292,221,-1650,521,690,790,870,2432,32,43,855,1654,1746,1946,2048,2048,1791,1830,1949
583080,40452,7392,40112,7344,-595,93,-1700,609,705,931,809,2634,36,42,854,1654,1746,1946,2048,2048,1791,1830,1949
584081,40556,7464,40177,7409,-592,284,-1763,670,721,844,691,2375,49,49,851,1654,1746,1946,2048,2048,1791,1830,1949
585082,40624,7536,40242,7474,-146,276,-1809,739,737,789,788,2625,45,52,854,1654,1746,1946,2048,2048,1791,1830,1949
586083,40696,7616,40307,7539,-204,158,-1839,816,743,948,643,2475,33,55,854,1636,1724,1923,2071,2016,1779,1813,1934
587084,40768,7720,40372,7604,-213,-190,-1875,886,730,821,565,2430,33,47,843,1636,1724,1923,2071,2016,1779,1813,1934
588085,40828,7804,40437,7669,-57,37,-1913,946,712,927,592,2595,33,42,842,1636,1724,1923,2071,2016,1779,1813,1934
589086,40896,7884,40502,7734,-161,68,-1930,990,717,852,502,2283,31,43,855,1636,1724,1923,2071,2016,1779,1813,1934
590087,40972,7980,40567,7799,-275,-169,-1953,1036,707,821,345,2433,47,42,846,1636,1724,1923,2071,2016,1779,1813,1934
591088,41032,8072,40632,7864,-69,-152,-1984,1062,688,678,338,2100,48,52,854,1632,1711,1915,2056,2001,1783,1807,1934
592089,41084,8196,40697,7929,47,-624,-2026,1089,683,501,297,2297,34,49,853,1632,1711,1915,2056,2001,1783,1807,1934
593090,41148,8328,40762,7994,-102,-806,-2070,1144,715,704,403,2115,36,36,851,1632,1711,1915,2056,2001,1783,1807,1934
594091,41216,8412,40827,8059,-155,-229,-2121,1222,739,873,329,2103,33,31,845,1632,1711,1915,2056,2001,1783,1807,1934
595092,41268,8476,40892,8124,60,21,-2177,1293,753,896,329,2133,23,28,846,1632,1711,1915,2056,2001,1783,1807,1934
596093,41340,8508,40957,8189,-199,461,-2231,1361,745,654,227,2296,29,39,855,1632,1711,1915,2056,2001,1783,1807,1934
597094,41400,8600,41022,8254,-43,-322,-2304,1369,752,130,280,2165,28,42,841,1657,1752,1965,2111,2019,1782,1810,1934
598095,41464,8628,41087,8319,-92,523,-2335,1361,799,320,348,2693,38,32,852,1657,1752,1965,2111,2019,1782,1810,1934
599096,41516,8696,41152,8384,74,20,-2325,1324,857,178,177,2997,26,41,849,1657,1752,1965,2111,2019,1782,1810,1934
600097,41568,8772,41217,8449,90,-94,-2262,1183,868,-127,138,3292,42,30,855,1657,1752,1965,2111,2019,1782,1810,1934
601098,41632,8828,41282,8514,-59,167,-2143,1020,869,-230,191,3962,27,41,854,1657,1752,1965,2111,2019,1782,1810,1934
602099,41696,8888,41347,8579,-59,123,-2002,886,882,101,125,4258,25,30,854,1653,1771,1972,2132,2015,1774,1836,1954
603100,41772,8936,41412,8644,-222,293,-1859,762,883,510,271,4325,32,27,855,1653,1771,1972,2132,2015,1774,1836,1954
604101,41816,8992,41477,8709,204,204,-1762,677,883,606,331,4633,33,31,841,1653,1771,1972,2132,2015,1774,1836,1954
605102,41892,9052,41542,8774,-210,160,-1686,607,899,682,585,4664,39,32,854,1653,1771,1972,2132,2015,1774,1836,1954
606103,41956,9120,41607,8839,-59,56,-1613,543,938,829,778,4646,34,34,843,1653,1771,1972,2132,2015,1774,1836,1954
607104,42016,9184,41672,8904,-2,108,-1540,497,950,1152,769,4856,32,36,855,1653,1771,1972,2132,2015,1774,1836,1954
608105,42084,9260,41737,8969,-106,-56,-1477,425,945,1140,811,4606,27,39,854,1837,1954,2080,2290,1947,1721,1824,1927
609106,42148,9312,41802,9034,-55,260,-1435,340,950,829,812,4752,45,42,851,1837,1954,2080,2290,1947,1721,1824,1927
610107,42216,9396,41867,9099,-110,-163,-1407,252,964,641,795,4437,42,47,854,1837,1954,2080,2290,1947,1721,1824,1927
611108,42276,9472,41932,9164,-3,-76,-1373,137,985,581,660,4339,35,47,849,1837,1954,2080,2290,1947,1721,1824,1927
612109,42332,9544,41997,9229,58,-36,-1332,11,1024,278,390,4338,36,48,855,1837,1954,2080,2290,1947,1721,1824,1927
613110,42412,9608,42062,9294,-261,65,-1266,-126,1041,61,185,4386,35,46,855,2149,2254,2371,2620,1931,1721,1861,1963
614111,42472,9684,42127,9359,-5,-98,-1199,-289,1059,-258,-85,4383,49,43,854,2149,2254,2371,2620,1931,1721,1861,1963
615112,42552,9784,42192,9424,-273,-441,-1118,-426,1078,-252,-288,4621,33,55,853,2149,2254,2371,2620,1931,1721,1861,1963
616113,42608,9848,42257,9489,38,10,-1019,-553,1124,-282,-500,4634,35,37,852,2149,2254,2371,2620,1931,1721,1861,1963
617114,42680,9940,42322,9554,-172,-373,-907,-682,1161,-278,-689,4878,29,42,855,2149,2254,2371,2620,1931,1721,1861,1963
618115,42756,10024,42387,9619,-235,-296,-794,-827,1171,-447,-884,5002,34,53,844,2149,2254,2371,2620,1931,1721,1861,1963
619116,42844,10092,42452,9684,-413,-101,-682,-932,1188,-590,-1045,5324,48,41,854,2220,2293,2415,2627,1948,1739,1846,1949
620117,42900,10180,42517,9749,-2,-379,-566,-998,1207,-492,-903,5561,41,51,854,2220,2293,2415,2627,1948,1739,1846,1949
621118,42984,10248,42582,9814,-375,-132,-458,-1053,1215,-431,-893,5505,52,38,853,2220,2293,2415,2627,1948,1739,1846,1949
622119,43068,10332,42647,9879,-398,-355,-358,-1104,1214,-141,-850,5576,47,40,854,2220,2293,2415,2627,1948,1739,1846,1949
623120,43148,10420,42712,9944,-367,-434,-268,-1147,1217,36,-704,5567,45,48,853,2220,2293,2415,2627,1948,1739,1846,1949
624121,43224,10496,42777,10009,-331,-297,-205,-1149,1211,-102,-412,5500,51,40,852,2044,2175,2237,2452,1957,1758,1851,1926
625122,43308,10580,42842,10074,-454,-421,-167,-1076,1206,-13,-207,5274,46,48,853,2044,2175,2237,2452,1957,1758,1851,1926
626123,43392,10660,42907,10139,-478,-389,-151,-954,1212,501,63,5280,38,37,853,2044,2175,2237,2452,1957,1758,1851,1926
627124,43484,10716,42972,10204,-610,-78,-156,-889,1217,669,21,4652,59,35,853,2044,2175,2237,2452,1957,1758,1851,1926
628125,43576,10800,43037,10269,-643,-452,-148,-867,1228,462,89,4484,52,45,855,2044,2175,2237,2452,1957,1758,1851,1926
629126,43664,10884,43102,10334,-623,-475,-149,-867,1228,44,134,4258,44,48,852,2044,2175,2237,2452,1957,1758,1851,1926
630127,43768,10944,43167,10399,-870,-170,-137,-818,1229,-244,-335,4259,43,30,853,1880,1918,2086,2323,2028,1843,1896,1966
631128,43860,11016,43232,10464,-753,-328,-133,-694,1238,144,-617,4175,40,36,854,1880,1918,2086,2323,2028,1843,1896,1966
632129,43940,11072,43297,10529,-621,-117,-137,-512,1248,-32,-831,4517,56,44,852,1880,1918,2086,2323,2028,1843,1896,1966
633130,44040,11140,43362,10594,-915,-271,-183,-337,1274,-305,-1067,4433,49,41,854,1880,1918,2086,2323,2028,1843,1896,1966
634131,44140,11180,43427,10659,-958,110,-223,-234,1299,-355,-1269,3937,64,31,854,1880,1918,2086,2323,2028,1843,1896,1966
635132,44232,11260,43492,10724,-891,-410,-252,-170,1319,-548,-1408,4193,48,31,854,1735,1787,2006,2215,2134,1934,1932,2024
636133,44344,11320,43557,10789,-1198,-154,-270,-119,1319,-863,-1509,3946,62,37,853,1735,1787,2006,2215,2134,1934,1932,2024
637134,44436,11372,43622,10854,-982,-38,-248,-83,1282,-1309,-1434,3842,62,41,854,1735,1787,2006,2215,2134,1934,1932,2024
638135,44548,11424,43687,10919,-1290,-22,-215,-126,1239,-1207,-1405,3671,63,44,855,1735,1787,2006,2215,2134,1934,1932,2024
639136,44640,11520,43752,10984,-1072,-610,-197,-193,1201,-1005,-1914,3223,53,36,855,1735,1787,2006,2215,2134,1934,1932,2024
640137,44732,11564,43817,11049,-1106,65,-160,-232,1164,-458,-1611,3272,56,50,851,1735,1787,2006,2215,2134,1934,1932,2024
641138,44848,11636,43882,11114,-1469,-294,-128,-261,1139,-699,-1988,2939,53,31,855,1664,1741,1992,2177,2160,1897,1918,2025
642139,44948,11684,43947,11179,-1311,27,-115,-169,1135,-941,-2118,3901,51,47,845,1664,1741,1992,2177,2160,1897,1918,2025
643140,45048,11732,44012,11244,-1355,48,-178,-2,1156,-225,-1807,3733,54,47,855,1664,1741,1992,2177,2160,1897,1918,2025
644141,45180,11800,44077,11309,-1837,-206,-312,284,1163,757,-1554,3859,54,32,855,1664,1741,1992,2177,2160,1897,1918,2025
645142,45252,11872,44142,11374,-1096,-265,-492,568,1188,1103,-1393,4047,54,34,854,1664,1741,1992,2177,2160,1897,1918,2025
646143,45392,11944,44207,11439,-2038,-274,-682,724,1247,643,-1298,3323,66,33,846,1740,1834,2015,2216,2020,1797,1870,1965
647144,45500,12004,44272,11504,-1691,-118,-883,750,1253,394,-1016,3499,51,37,854,1740,1834,2015,2216,2020,1797,1870,1965
648145,45584,12076,44337,11569,-1415,-276,-1044,776,1261,328,-1200,3769,68,36,854,1740,1834,2015,2216,2020,1797,1870,1965
649146,45692,12140,44402,11634,-1767,-175,-1194,676,1269,163,-1342,3154,68,45,852,1740,1834,2015,2216,2020,1797,1870,1965
650147,45800,12208,44467,11699,-1821,-230,-1291,521,1249,-738,-1412,3236,54,37,850,1740,1834,2015,2216,2020,1797,1870,1965
651148,45920,12272,44532,11764,-2038,-179,-1356,415,1215,-1049,-1480,4077,57,43,854,1740,1834,2015,2216,2020,1797,1870,1965
652149,46044,12340,44597,11829,-2161,-232,-1382,227,1207,-613,-1876,3194,67,45,854,1769,1849,2015,2201,2080,1850,1931,2054
653150,46152,12388,44662,11894,-2014,38,-1410,1,1182,-92,-2184,3662,56,44,854,1769,1849,2015,2201,2080,1850,1931,2054
654151,46264,12456,44727,11959,-2122,-215,-1378,-239,1110,-165,-2289,3246,51,33,853,1769,1849,2015,2201,2080,1850,1931,2054
655152,46340,12520,44792,12024,-1686,-165,-1356,-445,1055,-506,-2411,3506,51,40,854,1769,1849,2015,2201,2080,1850,1931,2054
656153,46444,12576,44857,12089,-2084,-54,-1339,-531,1027,-270,-2750,3913,52,31,854,1769,1849,2015,2201,2080,1850,1931,2054
657154,46572,12640,44922,12154,-2462,-153,-1342,-560,1023,569,-2468,3664,48,34,855,1724,1830,2005,2152,2199,1924,2005,2167
658155,46660,12704,44987,12219,-1991,-152,-1325,-582,1003,1145,-2396,4244,64,46,854,1724,1830,2005,2152,2199,1924,2005,2167
659156,46732,12736,45052,12284,-1799,289,-1329,-590,1031,608,-2612,4088,48,40,854,1724,1830,2005,2152,2199,1924,2005,2167
660157,46860,12816,45117,12349,-2577,-330,-1335,-563,1039,530,-2284,4444,47,39,854,1724,1830,2005,2152,2199,1924,2005,2167
661158,46960,12880,45182,12414,-2270,-129,-1316,-540,1051,863,-2339,4683,58,37,853,1724,1830,2005,2152,2199,1924,2005,2167
662159,47036,12936,45247,12479,-1984,-18,-1294,-494,1070,847,-2751,5050,42,43,854,1724,1830,2005,2152,2199,1924,2005,2167
663160,47104,12992,45312,12544,-1889,-7,-1288,-401,1084,549,-2476,5458,55,39,854,1757,1890,2045,2209,2143,1874,1956,2084
664161,47212,13072,45377,12609,-2442,-326,-1299,-378,1074,848,-1769,5434,44,31,854,1757,1890,2045,2209,2143,1874,1956,2084
665162,47280,13136,45442,12674,-1946,-124,-1293,-498,1065,503,-2072,5146,42,40,853,1757,1890,2045,2209,2143,1874,1956,2084
666163,47376,13200,45507,12739,-2335,-124,-1260,-665,1013,-132,-2154,5352,43,46,853,1757,1890,2045,2209,2143,1874,1956,2084
667164,47436,13256,45572,12804,-1880,-13,-1254,-880,964,-364,-1990,4546,40,45,855,1757,1890,2045,2209,2143,1874,1956,2084
668165,47524,13336,45637,12869,-2258,-332,-1269,-1063,906,-319,-2277,4624,33,33,855,1877,1990,2152,2417,2035,1824,1923,1966
669166,47596,13392,45702,12934,-2068,-21,-1284,-1150,827,51,-2372,5048,35,45,854,1877,1990,2152,2417,2035,1824,1923,1966
670167,47664,13440,45767,12999,-2022,100,-1322,-1185,759,530,-2355,5132,46,42,855,1877,1990,2152,2417,2035,1824,1923,1966
671168,47736,13512,45832,13064,-2082,-208,-1344,-1137,670,1156,-2456,5561,29,35,855,1877,1990,2152,2417,2035,1824,1923,1966
672169,47796,13568,45897,13129,-1926,2,-1363,-1054,581,1500,-2575,6110,35,42,855,1877,1990,2152,2417,2035,1824,1923,1966
673176,47864,13616,45962,13194,-2030,122,-1339,-954,504,1552,-2837,6231,31,33,855,1877,1990,2152,2417,2035,1824,1923,1966
674171,47928,13676,46027,13259,-1980,-22,-1294,-832,460,1488,-2962,6397,21,43,855,2030,2104,2276,2601,1992,1824,1920,1957
675172,47984,13752,46092,13324,-1869,-235,-1226,-729,423,1656,-3044,6417,24,35,846,2030,2104,2276,2601,1992,1824,1920,1957
676173,48036,13788,46157,13389,-1804,300,-1154,-610,402,1549,-3087,6632,32,29,854,2030,2104,2276,2601,1992,1824,1920,1957
677174,48080,13852,46222,13454,-1680,-48,-1074,-525,376,1328,-3153,6391,17,31,854,2030,2104,2276,2601,1992,1824,1920,1957
678175,48120,13908,46287,13519,-1600,62,-983,-434,358,1195,-3274,6519,16,27,856,2030,2104,2276,2601,1992,1824,1920,1957
679176,48180,13964,46352,13584,-1844,73,-875,-364,338,1229,-3022,6427,18,43,846,2033,2101,2247,2572,2060,1888,1970,2005
680177,48208,14016,46417,13649,-1400,139,-754,-294,314,1247,-2995,6302,21,32,855,2033,2101,2247,2572,2060,1888,1970,2005
681178,48248,14080,46482,13714,-1520,-10,-623,-239,275,1290,-2739,6464,26,30,855,2033,2101,2247,2572,2060,1888,1970,2005
682179,48264,14128,46547,13779,-1160,210,-503,-185,240,821,-2745,5950,7,30,856,2033,2101,2247,2572,2060,1888,1970,2005
683180,48284,14176,46612,13844,-1157,231,-408,-152,171,967,-2366,5627,5,28,850,2033,2101,2247,2572,2060,1888,1970,2005
684181,48316,14180,46677,13909,-1267,856,-336,-115,97,1217,-2120,5138,21,31,854,2033,2101,2247,2572,2060,1888,1970,2005
685182,48340,14216,46742,13974,-1117,490,-259,-131,54,725,-2252,5113,7,42,850,1952,2042,2196,2486,2074,1862,1966,1994
686183,48352,14284,46807,14039,-903,86,-171,-183,23,446,-2106,4813,11,41,853,1952,2042,2196,2486,2074,1862,1966,1994
687184,48364,14348,46872,14104,-839,138,-78,-176,-43,864,-1893,4887,11,47,853,1952,2042,2196,2486,2074,1862,1966,1994
688185,48372,14400,46937,14169,-720,304,-14,-56,-121,1815,-1784,4836,0,48,855,1952,2042,2196,2486,2074,1862,1966,1994
689186,48380,14492,47002,14234,-652,-229,42,94,-175,1943,-1884,4533,11,32,854,1952,2042,2196,2486,2074,1862,1966,1994
690187,48380,14576,47067,14299,-472,-153,67,188,-206,1294,-1936,4519,12,47,855,1899,1998,2121,2378,1975,1756,1869,1917
691188,48372,14648,47132,14364,-284,-11,87,245,-265,1198,-1851,4186,-7,30,854,1899,1998,2121,2378,1975,1756,1869,1917
692189,48396,14728,47197,14429,-634,-129,98,318,-348,1618,-1944,4134,-6,28,856,1899,1998,2121,2378,1975,1756,1869,1917
693190,48392,14776,47262,14494,-201,291,119,408,-402,1860,-2108,4211,0,29,855,1899,1998,2121,2378,1975,1756,1869,1917
694191,48384,14848,47327,14559,-62,-17,165,413,-443,1294,-2332,3958,-6,32,843,1899,1998,2121,2378,1975,1756,1869,1917
695192,48392,14900,47392,14624,-192,248,211,300,-499,737,-2371,3773,-3,39,855,1862,1940,2082,2312,1896,1702,1776,1819
696193,48400,14936,47457,14689,-124,483,274,223,-552,985,-2254,4061,-7,28,844,1862,1940,2082,2312,1896,1702,1776,1819
697194,48392,15000,47522,14754,165,134,333,134,-592,1087,-2311,3547,1,38,847,1862,1940,2082,2312,1896,1702,1776,1819
698195,48404,15052,47587,14819,-20,300,388,53,-627,1378,-2263,3344,3,27,854,1862,1940,2082,2312,1896,1702,1776,1819
699196,48404,15096,47786,15018,372,589,427,-28,-653,1306,-2220,3174,-7,26,854,1862,1940,2082,2312,1896,1702,1776,1819
700197,48396,15152,47851,15083,561,450,457,-87,-670,1059,-2081,2733,9,30,849,1862,1940,2082,2312,1896,1702,1776,1819
701198,48396,15208,47916,15148,541,461,473,-153,-676,1142,-1941,2398,11,40,850,1780,1867,2063,2304,1906,1723,1800,1875
702199,48408,15244,47981,15213,455,747,492,-163,-678,1150,-1729,2420,2,35,851,1780,1867,2063,2304,1906,1723,1800,1875
703200,48420,15308,48046,15278,519,398,501,-163,-664,956,-1526,2310,7,30,849,1780,1867,2063,2304,1906,1723,1800,1875
704201,48432,15388,48111,15343,584,180,514,-185,-649,999,-1189,2175,18,40,851,1780,1867,2063,2304,1906,1723,1800,1875
705202,48448,15456,48176,15408,593,326,529,-191,-646,930,-897,2170,15,38,851,1780,1867,2063,2304,1906,1723,1800,1875
706203,48468,15524,48241,15473,598,322,531,-206,-652,833,-724,2221,8,38,851,1817,1885,2047,2263,1950,1748,1834,1914
707204,48492,15588,48306,15538,598,373,547,-164,-639,688,-541,2234,12,47,851,1817,1885,2047,2263,1950,1748,1834,1914
708205,48536,15640,48371,15603,374,539,565,-179,-642,608,-280,2299,11,38,850,1817,1885,2047,2263,1950,1748,1834,1914
709206,48568,15716,48436,15668,564,226,601,-149,-660,308,-227,2596,10,37,851,1817,1885,2047,2263,1950,1748,1834,1914
710207,48576,15784,48501,15733,934,322,642,-158,-668,249,-155,2608,12,33,851,1817,1885,2047,2263,1950,1748,1834,1914
711208,48620,15844,48566,15798,510,428,760,-172,-687,191,-234,3011,14,35,848,1817,1885,2047,2263,1950,1748,1834,1914
712209,48660,15900,48631,15863,590,489,823,-167,-706,122,-305,3029,18,51,851,1741,1820,1977,2172,1974,1742,1819,1911
713210,48716,15968,48696,15928,401,336,886,-146,-723,215,-351,3153,19,38,850,1741,1820,1977,2172,1974,1742,1819,1911
714211,48744,16036,48761,15993,796,332,942,-105,-736,309,-442,3383,37,48,852,1741,1820,1977,2172,1974,1742,1819,1911
715212,48800,16112,48826,16058,457,219,1003,-47,-747,500,-551,3378,33,44,849,1741,1820,1977,2172,1974,1742,1819,1911
716213,48832,16160,48891,16123,798,589,1052,2,-751,452,-567,3331,38,50,855,1741,1820,1977,2172,1974,1742,1819,1911
717214,48888,16244,48956,16188,509,116,1078,48,-748,495,-530,3054,22,41,847,1722,1804,1994,2190,1945,1728,1784,1873
718215,48944,16300,49021,16253,519,477,1091,82,-734,473,-519,3094,36,44,852,1722,1804,1994,2190,1945,1728,1784,1873
719216,49008,16364,49086,16318,421,378,1090,109,-690,342,-703,2782,24,47,851,1722,1804,1994,2190,1945,1728,1784,1873
720217,49052,16424,49151,16383,696,434,1076,151,-646,504,-530,3007,37,50,852,1722,1804,1994,2190,1945,1728,1784,1873
721220,49120,16496,49216,16448,393,276,1060,189,-609,533,-411,2813,43,44,850,1722,1804,1994,2190,1945,1728,1784,1873
722219,49196,16552,49281,16513,279,487,1039,228,-555,560,-439,2937,48,44,853,1722,1804,1994,2190,1945,1728,1784,1873
723220,49260,16616,49346,16578,430,388,1028,256,-500,683,-282,3110,30,33,852,1818,1882,2104,2334,1928,1744,1793,1872
724221,49324,16676,49411,16643,432,444,1019,258,-451,508,-206,2920,28,47,852,1818,1882,2104,2334,1928,1744,1793,1872
725222,49380,16752,49476,16708,543,231,999,273,-401,478,-133,3156,42,38,852,1818,1882,2104,2334,1928,1744,1793,1872
726223,49452,16832,49541,16773,334,161,987,273,-346,428,73,3070,44,47,852,1818,1882,2104,2334,1928,1744,1793,1872
727224,49520,16912,49606,16838,380,143,992,297,-301,513,218,3307,30,43,854,1818,1882,2104,2334,1928,1744,1793,1872
728225,49584,16952,49671,16903,432,674,1003,339,-262,557,285,3532,40,41,854,1883,1921,2144,2385,1985,1796,1847,1931
729226,49628,17028,49736,16968,707,210,1043,370,-238,610,388,3807,44,30,850,1883,1921,2144,2385,1985,1796,1847,1931
730227,49700,17092,49801,17033,349,361,1099,399,-205,517,439,3938,45,47,851,1883,1921,2144,2385,1985,1796,1847,1931
731228,49768,17164,49866,17098,395,253,1163,424,-187,555,514,4244,47,35,853,1883,1921,2144,2385,1985,1796,1847,1931
732229,49828,17228,49931,17163,501,354,1236,448,-172,428,597,4195,33,35,853,1883,1921,2144,2385,1985,1796,1847,1931
733230,49896,17296,49996,17228,398,300,1300,458,-154,277,614,4383,38,33,851,1883,1921,2144,2385,1985,1796,1847,1931
734231,49964,17352,50061,17293,394,461,1358,481,-133,326,576,4429,45,32,851,1831,1888,2093,2297,2060,1829,1883,1991
735232,50024,17408,50126,17358,500,472,1403,500,-102,434,587,4285,38,36,852,1831,1888,2093,2297,2060,1829,1883,1991
736233,50088,17476,50191,17423,451,319,1439,550,-69,562,519,4580,35,45,851,1831,1888,2093,2297,2060,1829,1883,1991
737234,50144,17540,50256,17488,562,370,1471,630,-30,679,450,4638,34,35,852,1831,1888,2093,2297,2060,1829,1883,1991
738235,50200,17604,50321,17553,573,371,1508,698,1,614,505,4576,41,39,851,1831,1888,2093,2297,2060,1829,1883,1991
739236,50264,17656,50386,17618,474,537,1521,754,31,699,458,4529,41,29,851,1822,1906,2107,2301,2060,1814,1878,1999
740237,50336,17712,50451,17683,366,498,1535,793,70,722,366,4395,30,38,851,1822,1906,2107,2301,2060,1814,1878,1999
741238,50384,17776,50516,17748,688,399,1551,841,112,668,217,4595,46,43,851,1822,1906,2107,2301,2060,1814,1878,1999
742239,50436,17836,50581,17813,654,455,1560,853,141,736,295,4463,37,41,850,1822,1906,2107,2301,2060,1814,1878,1999
743240,50500,17892,50646,17878,505,516,1561,831,173,577,181,4277,46,32,850,1822,1906,2107,2301,2060,1814,1878,1999
744241,50576,17940,50711,17943,341,637,1568,832,187,549,368,4631,48,45,851,1822,1906,2107,2301,2060,1814,1878,1999
745242,50644,18008,50776,18008,438,384,1525,762,194,525,764,4160,49,30,851,1872,1959,2170,2373,2039,1815,1865,1975
746243,50704,18060,50841,18073,544,599,1424,580,238,36,528,3527,32,30,852,1872,1959,2170,2373,2039,1815,1865,1975
747244,50768,18124,50906,18138,495,451,1315,398,262,121,682,4199,46,30,850,1872,1959,2170,2373,2039,1815,1865,1975
748245,50832,18172,50971,18203,496,671,1215,239,282,346,517,4460,31,29,851,1872,1959,2170,2373,2039,1815,1865,1975
749246,50908,18248,51036,18268,333,308,1146,128,290,961,668,4554,33,42,850,1872,1959,2170,2373,2039,1815,1865,1975
750247,50972,18300,51101,18333,484,624,1117,89,289,1318,448,5069,49,42,853,1909,1976,2196,2391,2081,1868,1917,2066
751248,51052,18368,51166,18398,266,420,1077,41,288,1305,377,4694,43,30,849,1909,1976,2196,2391,2081,1868,1917,2066
752249,51112,18428,51231,18463,522,526,1013,-90,281,1227,819,4121,46,31,853,1909,1976,2196,2391,2081,1868,1917,2066
753250,51180,18488,51296,18528,418,532,922,-226,277,793,899,3712,49,37,850,1909,1976,2196,2391,2081,1868,1917,2066
754251,51264,18532,51361,18593,195,758,823,-305,280,864,888,3985,50,43,851,1909,1976,2196,2391,2081,1868,1917,2066
755252,51328,18620,51426,18658,446,180,763,-333,278,1353,791,3995,33,42,851,1909,1976,2196,2391,2081,1868,1917,2066
756253,51384,18680,51491,18723,557,536,762,-295,265,1577,837,4777,47,30,853,1826,1916,2132,2259,2243,1975,2017,2226
757254,51460,18740,51556,18788,294,542,791,-211,234,1515,957,4957,46,39,850,1826,1916,2132,2259,2243,1975,2017,2226
758255,51524,18796,51621,18853,445,603,828,-165,210,1121,1005,5165,48,45,851,1826,1916,2132,2259,2243,1975,2017,2226
759256,51604,18864,51686,18918,227,449,855,-143,191,838,1029,5305,38,30,850,1826,1916,2132,2259,2243,1975,2017,2226
760257,51652,18924,51751,18983,647,556,875,-146,166,427,1059,5173,34,30,852,1826,1916,2132,2259,2243,1975,2017,2226
761258,51724,18992,51816,19048,339,452,890,-170,144,-219,985,4884,41,45,849,1706,1832,2039,2135,2309,1991,2018,2207
762259,51780,19060,51881,19113,550,448,870,-249,118,-341,1201,4663,38,45,852,1706,1832,2039,2135,2309,1991,2018,2207
763260,51848,19124,51946,19178,396,499,811,-396,101,-797,1278,4068,32,31,851,1706,1832,2039,2135,2309,1991,2018,2207
764261,51916,19172,52011,19243,392,720,731,-553,80,-1060,1416,4193,38,33,851,1706,1832,2039,2135,2309,1991,2018,2207
765262,51980,19236,52076,19308,445,521,631,-676,51,-926,1589,4188,31,29,850,1706,1832,2039,2135,2309,1991,2018,2207
766263,52052,19304,52141,19373,336,468,511,-758,29,-586,1453,4023,28,32,851,1706,1832,2039,2135,2309,1991,2018,2207
767264,52108,19372,52206,19438,547,464,382,-753,3,-217,1338,4231,36,35,852,1712,1838,2063,2224,2167,1901,1926,2056
768265,52168,19444,52271,19503,503,406,253,-745,-30,-78,1370,4165,31,45,849,1712,1838,2063,2224,2167,1901,1926,2056
769266,52228,19508,52336,19568,509,507,131,-689,-67,133,1142,4276,32,48,851,1712,1838,2063,2224,2167,1901,1926,2056
770267,52284,19572,52401,19633,570,508,38,-560,-101,900,961,4091,36,46,851,1712,1838,2063,2224,2167,1901,1926,2056
771268,52340,19632,52466,19698,581,564,-18,-443,-135,1362,773,3961,44,38,850,1712,1838,2063,2224,2167,1901,1926,2056
772269,52408,19712,52531,19763,428,296,-79,-360,-154,918,344,3781,42,41,850,1806,1893,2133,2311,2078,1868,1878,2001
773270,52476,19776,52596,19828,424,498,-130,-278,-195,811,555,3873,31,34,852,1806,1893,2133,2311,2078,1868,1878,2001
774271,52528,19852,52661,19893,640,335,-164,-213,-245,816,575,3637,46,43,851,1806,1893,2133,2311,2078,1868,1878,2001
775272,52604,19920,52726,19958,326,431,-190,-192,-265,591,473,3500,37,44,851,1806,1893,2133,2311,2078,1868,1878,2001
776273,52664,19976,52791,20023,533,592,-185,-177,-316,334,722,3547,34,43,852,1806,1893,2133,2311,2078,1868,1878,2001
777274,52724,20060,52856,20088,539,219,-161,-178,-339,-185,360,3422,35,36,850,1806,1893,2133,2311,2078,1868,1878,2001
778275,52792,20120,52921,20153,435,525,-141,-213,-362,109,790,3526,34,36,852,1803,1858,2122,2312,2070,1872,1866,1968
779276,52852,20168,52986,20218,541,696,-134,-241,-387,-223,939,3476,39,45,851,1803,1858,2122,2312,2070,1872,1866,1968
780277,52924,20244,53051,20283,383,332,-153,-261,-415,-462,1148,3338,44,42,849,1803,1858,2122,2312,2070,1872,1866,1968
781278,52992,20296,53116,20348,429,648,-173,-254,-454,-452,1420,3593,42,37,852,1803,1858,2122,2312,2070,1872,1866,1968
782279,53048,20360,53181,20413,590,499,-195,-219,-469,-393,1490,3455,42,40,850,1803,1858,2122,2312,2070,1872,1866,1968
783280,53120,20424,53246,20478,381,500,-219,-173,-483,-314,1535,3597,45,42,850,1755,1816,2045,2244,2018,1809,1845,1935
784281,53176,20480,53311,20543,592,611,-229,-100,-496,-419,1622,3582,31,46,852,1755,1816,2045,2244,2018,1809,1845,1935
785282,53240,20548,53376,20608,494,458,-242,-9,-520,-326,1645,3612,42,46,848,1755,1816,2045,2244,2018,1809,1845,1935
786283,53304,20620,53441,20673,495,399,-265,90,-540,15,1618,3369,34,46,851,1755,1816,2045,2244,2018,1809,1845,1935
787284,53372,20676,53506,20738,441,610,-266,166,-564,78,1495,3500,27,40,851,1755,1816,2045,2244,2018,1809,1845,1935
788285,53428,20756,53571,20803,603,292,-237,240,-582,-175,1205,3643,28,38,851,1755,1816,2045,2244,2018,1809,1845,1935
789286,53488,20820,53636,20868,559,493,-195,288,-591,-259,948,3591,39,41,851,1741,1831,2023,2207,1993,1769,1828,1938
790287,53544,20872,53701,20933,620,659,-159,341,-603,-9,787,3690,44,41,850,1741,1831,2023,2207,1993,1769,1828,1938
791288,53608,20936,53766,20998,521,510,-126,395,-634,79,621,3531,41,43,849,1741,1831,2023,2207,1993,1769,1828,1938
792289,53680,21004,53831,21063,413,457,-97,436,-651,88,526,3479,29,41,851,1741,1831,2023,2207,1993,1769,1828,1938
793290,53732,21064,53896,21128,679,563,-52,502,-680,107,271,3555,36,36,851,1741,1831,2023,2207,1993,1769,1828,1938
794291,53788,21128,53961,21193,640,514,22,539,-689,186,-27,2955,44,34,849,1773,1865,2079,2262,1986,1773,1818,1929
795292,53860,21216,54026,21258,431,186,77,546,-670,279,3,3204,32,31,850,1773,1865,2079,2262,1986,1773,1818,1929
796293,53924,21268,54091,21323,532,652,101,533,-636,77,47,3075,39,41,853,1773,1865,2079,2262,1986,1773,1818,1929
797294,53964,21336,54156,21388,863,448,83,469,-616,-14,206,2803,41,30,849,1773,1865,2079,2262,1986,1773,1818,1929
798295,54020,21400,54221,21453,674,499,46,349,-610,-274,403,2783,26,29,848,1773,1865,2079,2262,1986,1773,1818,1929
799296,54084,21432,54286,21518,575,939,-13,199,-599,-437,452,2856,28,41,849,1773,1865,2079,2262,1986,1773,1818,1929
800297,54136,21516,54351,21583,741,266,-60,73,-591,-218,613,3088,31,36,847,1861,1924,2151,2372,1949,1760,1808,1893
801298,54196,21560,54416,21648,647,792,-101,-6,-575,82,556,3221,35,43,850,1861,1924,2151,2372,1949,1760,1808,1893
802299,54256,21608,54481,21713,653,763,-128,-16,-551,419,644,3485,30,41,847,1861,1924,2151,2372,1949,1760,1808,1893
803300,54340,21676,54546,21778,330,509,-140,18,-531,624,704,3643,42,34,848,1861,1924,2151,2372,1949,1760,1808,1893
804301,54396,21744,54611,21843,692,505,-133,55,-513,630,663,3813,42,31,852,1861,1924,2151,2372,1949,1760,1808,1893
805302,54472,21792,54676,21908,429,776,-112,85,-492,488,561,3956,41,28,849,1885,1930,2128,2336,1986,1784,1853,1964
806303,54532,21860,54741,21973,635,522,-93,88,-462,352,506,4047,48,29,849,1885,1930,2128,2336,1986,1784,1853,1964
807304,54592,21912,54806,22038,641,738,-52,109,-445,303,462,4277,44,36,849,1885,1930,2128,2336,1986,1784,1853,1964
808305,54648,21980,54871,22103,702,535,-8,106,-432,208,328,4224,28,28,848,1885,1930,2128,2336,1986,1784,1853,1964
809306,54732,22040,54936,22168,329,641,51,112,-407,6,234,4436,46,41,849,1885,1930,2128,2336,1986,1784,1853,1964
810307,54784,22080,55001,22233,744,921,118,99,-356,-310,51,4573,45,32,851,1885,1930,2128,2336,1986,1784,1853,1964
811308,54864,22160,55066,22298,376,403,203,109,-316,-435,-46,4702,37,27,846,1804,1880,2072,2245,2082,1841,1905,2038
812309,54908,22208,55131,22363,852,824,265,109,-284,-332,-59,4492,45,33,852,1804,1880,2072,2245,2082,1841,1905,2038
813310,54968,22260,55196,22428,658,791,310,82,-244,-451,5,4416,42,39,846,1804,1880,2072,2245,2082,1841,1905,2038
814311,55016,22312,55261,22493,829,806,324,50,-206,-714,9,4233,33,40,847,1804,1880,2072,2245,2082,1841,1905,2038
815312,55080,22368,55326,22558,630,767,319,1,-180,-622,106,4175,42,34,846,1804,1880,2072,2245,2082,1841,1905,2038
816313,55140,22428,55391,22623,687,724,297,-26,-158,-494,64,4118,39,38,847,1801,1899,2104,2299,2103,1857,1918,2036
817314,55200,22492,55456,22688,693,675,267,-58,-124,-344,40,4011,28,27,847,1801,1899,2104,2299,2103,1857,1918,2036
818315,55260,22564,55521,22753,699,566,229,-63,-91,-102,-14,4031,38,39,848,1801,1899,2104,2299,2103,1857,1918,2036
819316,55316,22640,55586,22818,760,503,184,-44,-56,180,-14,4200,42,31,847,1801,1899,2104,2299,2103,1857,1918,2036
820317,55376,22688,55651,22883,716,874,143,-20,-16,336,-109,4135,46,42,848,1801,1899,2104,2299,2103,1857,1918,2036
821318,55432,22760,55716,22948,777,565,110,0,9,433,-37,4346,34,28,846,1801,1899,2104,2299,2103,1857,1918,2036
822319,55492,22804,55781,23013,733,941,77,14,20,505,-94,4414,45,31,848,1880,1957,2167,2387,2067,1849,1899,2001
823320,55544,22852,55846,23078,849,911,48,24,40,581,-173,4397,31,28,846,1880,1957,2167,2387,2067,1849,1899,2001
824321,55596,22924,55911,23143,865,603,34,35,43,773,-146,4529,37,36,845,1880,1957,2167,2387,2067,1849,1899,2001
825322,55668,23000,55976,23208,606,539,41,35,51,696,-193,4554,34,30,847,1880,1957,2167,2387,2067,1849,1899,2001
826323,55708,23040,56041,23273,1038,1020,51,33,70,560,-220,4624,33,30,849,1880,1957,2167,2387,2067,1849,1899,2001
827324,55756,23112,56106,23338,959,612,70,28,92,593,-240,4733,27,28,842,1896,1944,2167,2379,2072,1864,1898,2000
828325,55824,23180,56171,23403,705,659,105,18,116,459,-233,4702,34,42,846,1896,1944,2167,2379,2072,1864,1898,2000
829326,55880,23236,56236,23468,866,820,148,-6,142,286,-114,4546,33,32,847,1896,1944,2167,2379,2072,1864,1898,2000
830327,55924,23300,56301,23533,1042,721,186,-23,171,43,-52,4604,30,41,845,1896,1944,2167,2379,2072,1864,1898,2000
831328,55988,23344,56366,23598,793,997,210,-70,200,46,127,4528,47,42,845,1896,1944,2167,2379,2072,1864,1898,2000
832329,56048,23424,56431,23663,849,528,228,-81,234,-34,209,4605,48,45,845,1896,1944,2167,2379,2072,1864,1898,2000
833330,56108,23476,56496,23728,856,894,253,-84,262,5,261,4446,43,43,847,1839,1903,2124,2334,2076,1852,1900,2000
834331,56184,23536,56561,23793,643,800,276,-95,293,32,393,4368,44,37,845,1839,1903,2124,2334,2076,1852,1900,2000
835332,56228,23600,56626,23858,1068,751,305,-121,335,-126,537,4372,34,35,847,1839,1903,2124,2334,2076,1852,1900,2000
836333,56276,23648,56691,23923,1039,972,321,-107,362,-105,654,4487,35,31,843,1839,1903,2124,2334,2076,1852,1900,2000
837334,56336,23704,56756,23988,895,883,344,-53,375,345,625,4229,36,35,843,1839,1903,2124,2334,2076,1852,1900,2000
838335,56396,23772,56821,24053,901,731,381,-31,394,546,462,4188,28,35,845,1837,1924,2119,2326,2050,1816,1885,1989
839336,56464,23848,56886,24118,798,617,428,-19,412,399,459,4206,45,35,846,1837,1924,2119,2326,2050,1816,1885,1989
840337,56508,23892,56951,24183,1124,1043,451,16,434,257,309,4057,43,35,847,1837,1924,2119,2326,2050,1816,1885,1989
841338,56556,23968,57016,24248,1095,629,463,37,430,758,482,3813,33,34,841,1837,1924,2119,2326,2050,1816,1885,1989
842339,56620,24024,57081,24313,896,890,470,46,426,859,468,3880,45,41,845,1837,1924,2119,2326,2050,1816,1885,1989
843340,56672,24096,57146,24378,1062,682,488,26,433,604,477,3879,33,46,845,1837,1924,2119,2326,2050,1816,1885,1989
844341,56728,24168,57211,24443,1023,673,505,-6,438,451,472,3939,38,37,845,1878,1965,2159,2364,2004,1781,1844,1946
845342,56784,24252,57276,24508,1034,500,513,-15,432,651,334,3804,34,53,845,1878,1965,2159,2364,2004,1781,1844,1946
846343,56852,24328,57341,24573,881,587,513,-50,430,787,236,3658,42,37,846,1878,1965,2159,2364,2004,1781,1844,1946
847344,56904,24396,57406,24638,1097,683,519,-83,424,695,285,3764,39,50,847,1878,1965,2159,2364,2004,1781,1844,1946
848345,56964,24460,57471,24703,1003,735,526,-104,435,561,212,3761,46,43,845,1878,1965,2159,2364,2004,1781,1844,1946
849346,57020,24524,57536,24768,1064,736,525,-127,439,637,213,3678,34,41,845,1893,1956,2168,2376,1979,1776,1825,1925
850347,57096,24596,57601,24833,801,628,534,-122,438,789,94,3729,32,43,845,1893,1956,2168,2376,1979,1776,1825,1925
851348,57160,24652,57666,24898,953,839,542,-129,446,819,282,3781,51,47,847,1893,1956,2168,2376,1979,1776,1825,1925
852349,57228,24724,57731,24963,900,630,556,-144,460,505,282,3648,51,35,845,1893,1956,2168,2376,1979,1776,1825,1925
853350,57280,24780,57796,25028,1115,841,574,-153,475,575,322,3788,39,33,846,1893,1956,2168,2376,1979,1776,1825,1925
854351,57348,24824,57861,25093,912,1017,601,-162,496,500,522,3675,33,32,843,1893,1956,2168,2376,1979,1776,1825,1925
855352,57396,24900,57926,25158,1182,603,629,-187,521,211,613,3798,50,33,843,1853,1910,2123,2325,2005,1805,1852,1952
856353,57456,24972,57991,25223,1040,645,662,-193,539,285,591,3702,37,43,844,1853,1910,2123,2325,2005,1805,1852,1952
857354,57532,25028,58056,25288,826,856,692,-185,565,460,677,3659,45,44,845,1853,1910,2123,2325,2005,1805,1852,1952
858355,57572,25092,58121,25353,1307,757,712,-194,578,324,857,3736,34,43,845,1853,1910,2123,2325,2005,1805,1852,1952
859356,57640,25144,58186,25418,953,924,730,-193,586,110,776,3646,42,46,842,1853,1910,2123,2325,2005,1805,1852,1952
860357,57704,25204,58251,25483,1004,830,749,-193,592,272,944,3737,51,46,844,1776,1864,2070,2269,2046,1823,1886,1983
861358,57756,25268,58316,25548,1171,781,774,-187,600,81,941,3821,38,33,844,1776,1864,2070,2269,2046,1823,1886,1983
862359,57812,25332,58381,25613,1132,783,794,-165,592,102,765,3907,34,34,843,1776,1864,2070,2269,2046,1823,1886,1983
863360,57876,25396,58446,25678,1033,784,808,-132,580,431,667,3787,37,39,843,1776,1864,2070,2269,2046,1823,1886,1983
864361,57932,25468,58511,25743,1144,675,818,-94,572,549,663,3816,50,37,844,1776,1864,2070,2269,2046,1823,1886,1983
865362,58012,25532,58576,25808,826,776,830,-56,573,343,633,3643,49,43,844,1776,1864,2070,2269,2046,1823,1886,1983
866363,58056,25580,58641,25873,1303,997,831,-14,556,322,628,3840,31,44,846,1783,1870,2075,2270,2045,1817,1868,1977
867364,58104,25660,58706,25938,1273,579,824,30,538,324,372,3813,47,45,840,1783,1870,2075,2270,2045,1817,1868,1977
868365,58176,25732,58771,26003,965,671,816,69,530,573,306,3747,36,46,844,1783,1870,2075,2270,2045,1817,1868,1977
869366,58232,25796,58836,26068,1176,773,809,103,525,463,149,3728,42,47,846,1783,1870,2075,2270,2045,1817,1868,1977
870367,58300,25872,58901,26133,1023,609,792,115,519,361,69,3780,36,36,841,1783,1870,2075,2270,2045,1817,1868,1977
871368,58352,25924,58966,26198,1239,925,777,115,512,436,109,3589,46,43,846,1828,1908,2128,2325,2027,1814,1851,1958
872369,58424,25988,59031,26263,980,776,752,118,519,345,-13,3532,39,37,841,1828,1908,2128,2325,2027,1814,1851,1958
873370,58476,26072,59096,26328,1246,503,723,124,525,232,214,3692,47,51,845,1828,1908,2128,2325,2027,1814,1851,1958
874371,58532,26132,59161,26393,1207,809,696,146,524,303,173,3613,49,47,844,1828,1908,2128,2325,2027,1814,1851,1958
875372,58600,26208,59226,26458,1055,596,663,156,535,644,67,3751,38,41,843,1828,1908,2128,2325,2027,1814,1851,1958
876373,58672,26280,59291,26523,996,637,647,156,533,848,534,3701,37,46,846,1828,1908,2128,2325,2027,1814,1851,1958
877374,58712,26348,59356,26588,1427,683,614,109,553,321,161,3661,50,43,846,1849,1913,2146,2352,2025,1826,1863,1964
878375,58776,26416,59421,26653,1128,680,611,93,559,77,527,3921,52,50,841,1849,1913,2146,2352,2025,1826,1863,1964
879376,58848,26488,59486,26718,1020,622,595,83,550,348,617,3876,51,41,844,1849,1913,2146,2352,2025,1826,1863,1964
880377,58908,26560,59551,26783,1176,614,599,97,544,651,555,3950,36,50,846,1849,1913,2146,2352,2025,1826,1863,1964
881378,58964,26648,59616,26848,1237,386,593,115,544,559,747,4064,42,38,844,1849,1913,2146,2352,2025,1826,1863,1964
882379,59016,26704,59681,26913,1303,797,592,125,537,307,729,4015,46,48,845,1810,1875,2093,2293,2068,1857,1899,2006
883380,59080,26772,59746,26978,1155,643,590,145,534,216,771,4092,31,43,841,1810,1875,2093,2293,2068,1857,1899,2006
884381,59136,26848,59811,27043,1266,530,578,152,528,302,733,4074,37,41,844,1810,1875,2093,2293,2068,1857,1899,2006
885382,59200,26900,59876,27108,1168,845,589,166,514,408,534,4290,41,51,844,1810,1875,2093,2293,2068,1857,1899,2006
886383,59244,26996,59941,27173,1443,258,601,175,515,816,450,4550,49,39,843,1810,1875,2093,2293,2068,1857,1899,2006
887384,59296,27052,60006,27238,1360,769,632,187,493,316,682,3945,38,43,842,1810,1875,2093,2293,2068,1857,1899,2006
888385,59348,27112,60071,27303,1376,725,637,185,468,-241,568,4167,38,52,841,1774,1859,2071,2259,2103,1871,1917,2036
889386,59408,27180,60136,27368,1282,621,628,198,447,232,633,4113,32,38,842,1774,1859,2071,2259,2103,1871,1917,2036
890387,59444,27244,60201,27433,1618,672,605,221,437,544,556,3878,35,41,843,1774,1859,2071,2259,2103,1871,1917,2036
891388,59516,27324,60266,27498,1160,454,598,233,423,108,388,3879,40,49,839,1774,1859,2071,2259,2103,1871,1917,2036
892389,59576,27396,60331,27563,1316,546,586,243,417,-52,398,3956,50,45,846,1774,1859,2071,2259,2103,1871,1917,2036
893390,59628,27456,60396,27628,1432,702,587,277,425,561,203,4682,45,45,843,1799,1899,2124,2308,2093,1860,1900,2018
894391,59684,27500,60461,27693,1394,928,587,244,441,95,197,3716,49,32,841,1799,1899,2124,2308,2093,1860,1900,2018
895392,59752,27564,60526,27758,1240,679,577,220,419,-210,396,4017,49,43,839,1799,1899,2124,2308,2093,1860,1900,2018
896393,59816,27600,60591,27823,1292,1065,532,226,414,186,280,4063,50,45,843,1799,1899,2124,2308,2093,1860,1900,2018
897394,59856,27668,60656,27888,1622,661,485,201,415,607,468,3805,47,34,839,1799,1899,2124,2308,2093,1860,1900,2018
898400,59924,27724,60721,27953,1269,822,438,184,398,210,426,3810,46,38,839,1799,1899,2124,2308,2093,1860,1900,2018
899396,59976,27788,60786,28018,1485,723,394,161,371,102,528,3952,44,42,841,1860,1943,2176,2375,2048,1836,1871,1967
900397,60036,27844,60851,28083,1391,834,357,134,351,301,511,3971,30,31,840,1860,1943,2176,2375,2048,1836,1871,1967
901398,60096,27892,60916,28148,1398,955,343,124,333,605,483,4309,38,35,840,1860,1943,2176,2375,2048,1836,1871,1967
902399,60140,27952,60981,28213,1624,811,326,115,314,674,585,4235,42,38,839,1860,1943,2176,2375,2048,1836,1871,1967
903400,60204,28020,61046,28278,1375,707,317,119,284,458,697,4140,40,47,838,1860,1943,2176,2375,2048,1836,1871,1967
904401,60256,28068,61111,28343,1542,978,304,121,258,475,670,4226,38,34,840,1865,1928,2152,2354,2051,1845,1886,1991
905402,60316,28128,61176,28408,1448,835,298,118,210,588,879,4018,44,48,837,1865,1928,2152,2354,2051,1845,1886,1991
906403,60364,28212,61241,28473,1619,512,294,98,189,312,778,4148,48,50,839,1865,1928,2152,2354,2051,1845,1886,1991
907404,60432,28252,61306,28538,1366,1093,307,107,168,361,925,4378,28,40,840,1865,1928,2152,2354,2051,1845,1886,1991
908405,60464,28312,61371,28603,1857,849,323,116,149,354,864,4278,32,39,838,1865,1928,2152,2354,2051,1845,1886,1991
909406,60536,28392,61436,28668,1348,580,362,117,135,315,803,4257,40,37,835,1816,1888,2104,2300,2083,1870,1886,1991
910407,60584,28448,61501,28733,1670,891,388,109,140,296,755,4240,42,51,842,1816,1888,2104,2300,2083,1870,1910,2020
911408,60636,28516,61566,28798,1636,738,420,99,132,159,812,4285,47,49,838,1816,1888,2104,2300,2083,1870,1910,2020
912409,60700,28584,61631,28863,1487,734,447,79,138,-189,645,4048,48,45,838,1816,1888,2104,2300,2083,1870,1910,2020
913410,60756,28656,61696,28928,1599,676,461,77,152,-116,934,4372,48,49,840,1816,1888,2104,2300,2083,1870,1910,2020
914411,60808,28740,61761,28993,1665,503,475,92,151,197,1010,3921,32,40,839,1816,1888,2104,2300,2083,1870,1910,2020
915412,60852,28804,61826,29058,1790,755,467,94,152,214,901,4237,50,54,839,1797,1888,2111,2307,2078,1856,1896,2004
916413,60904,28876,61891,29123,1707,646,469,84,156,-59,870,3752,47,50,837,1797,1888,2111,2307,2078,1856,1896,2004
917414,60972,28964,61956,29188,1504,418,458,77,150,37,834,4056,50,41,838,1797,1888,2111,2307,2078,1856,1896,2004
918415,61036,29020,62021,29253,1556,829,447,101,127,401,868,4118,32,50,841,1797,1888,2111,2307,2078,1856,1896,2004
919416,61092,29080,62086,29318,1667,785,436,132,98,331,816,4033,41,47,839,1797,1888,2111,2307,2078,1856,1896,2004
920417,61136,29136,62151,29383,1843,846,410,169,71,412,754,4125,49,50,838,1852,1938,2165,2366,2035,1823,1864,1971
921418,61192,29212,62216,29448,1705,583,393,199,35,509,640,3991,39,42,834,1852,1938,2165,2366,2035,1823,1864,1971
922419,61268,29284,62281,29513,1441,624,373,211,0,547,569,3969,52,43,839,1852,1938,2165,2366,2035,1823,1864,1971
923420,61336,29332,62346,29578,1537,945,360,230,-48,640,734,3986,35,49,841,1852,1938,2165,2366,2035,1823,1864,1971
924421,61380,29388,62411,29643,1864,856,354,220,-71,435,767,4035,44,43,838,1852,1938,2165,2366,2035,1823,1864,1971
925422,61440,29468,62476,29708,1670,538,345,227,-92,470,639,4094,48,43,835,1852,1938,2165,2366,2035,1823,1864,1971
926423,61492,29528,62541,29773,1787,795,339,238,-109,594,668,4104,45,55,839,1880,1944,2178,2384,2025,1824,1859,1962
927424,61564,29612,62606,29838,1528,471,337,236,-120,481,734,4044,43,49,836,1880,1944,2178,2384,2025,1824,1859,1962
928425,61604,29684,62671,29903,1959,613,327,246,-121,262,587,4017,43,43,841,1880,1944,2178,2384,2025,1824,1859,1962
929426,61664,29744,62736,29968,1716,769,332,256,-117,546,615,4250,51,47,836,1880,1944,2178,2384,2025,1824,1859,1962
930427,61732,29796,62801,30033,1612,885,346,241,-107,498,991,4251,49,51,837,1880,1944,2178,2384,2025,1824,1859,1962
931428,61800,29848,62866,30098,1610,901,358,245,-97,94,993,4052,40,42,837,1849,1911,2142,2350,2051,1853,1891,1990
932429,61836,29928,62931,30163,2045,532,360,251,-88,351,977,4121,43,44,837,1849,1911,2142,2350,2051,1853,1891,1990
933430,61900,30012,62996,30228,1696,459,364,256,-71,434,1067,3876,32,55,835,1849,1911,2142,2350,2051,1853,1891,1990
934431,61956,30064,63061,30293,1808,875,359,239,-42,226,997,3766,28,45,839,1849,1911,2142,2350,2051,1853,1891,1990
935432,62000,30124,63126,30358,1984,781,363,245,-25,205,1119,3881,39,46,835,1849,1911,2142,2350,2051,1853,1891,1990
936433,62052,30192,63191,30423,1901,677,369,240,-15,367,1080,3847,27,55,834,1849,1911,2142,2350,2051,1853,1891,1990
937434,62092,30292,63256,30488,2081,236,380,285,-10,544,987,4117,28,54,836,1813,1883,2111,2317,2088,1872,1906,2013
938435,62156,30352,63321,30553,1784,742,385,312,1,346,1002,3940,41,42,835,1813,1883,2111,2317,2088,1872,1906,2013
939436,62200,30416,63386,30618,2059,693,403,356,-1,575,892,4160,34,52,837,1813,1883,2111,2317,2088,1872,1906,2013
940437,62276,30472,63451,30683,1646,804,405,358,1,870,883,4028,45,41,834,1813,1883,2111,2317,2088,1872,1906,2013
941438,62340,30536,63516,30748,1798,705,412,340,-34,445,1137,3624,34,43,837,1813,1883,2111,2317,2088,1872,1906,2013
942439,62400,30592,63581,30813,1854,816,396,356,-62,39,824,4047,53,45,836,1804,1885,2111,2303,2075,1848,1871,1991
943440,62444,30648,63646,30878,2081,827,378,396,-92,646,747,3883,52,47,836,1804,1885,2111,2303,2075,1848,1871,1991
944441,62520,30728,63711,30943,1667,509,358,410,-109,945,688,3764,46,50,833,1804,1885,2111,2303,2075,1848,1871,1991
945442,62584,30784,63776,31008,1820,820,340,412,-128,571,638,3746,42,58,839,1804,1885,2111,2303,2075,1848,1871,1991
946444,62652,30848,63841,31073,1766,721,323,401,-154,384,903,3778,40,42,836,1804,1885,2111,2303,2075,1848,1871,1991
947444,62724,30924,63906,31138,1708,558,301,420,-172,476,811,3970,53,56,837,1804,1885,2111,2303,2075,1848,1871,1991
948445,62792,30996,63971,31203,1755,599,275,457,-177,560,726,3782,56,42,839,1820,1899,2133,2319,2042,1824,1855,1967
949446,62864,31056,64170,31402,1860,919,245,487,-169,588,821,3791,44,48,838,1820,1899,2133,2319,2042,1824,1855,1967
950447,62936,31136,64235,31467,1852,652,207,482,-144,338,665,3720,54,55,835,1820,1899,2133,2319,2042,1824,1855,1967
951448,63008,31176,64300,31532,1844,1182,163,490,-131,52,770,3665,40,53,836,1820,1899,2133,2319,2042,1824,1855,1967
952449,63084,31248,64365,31597,1781,774,115,516,-127,275,811,3717,38,45,832,1820,1899,2133,2319,2042,1824,1855,1967
953450,63164,31324,64430,31662,1713,710,44,555,-80,934,604,3899,41,47,836,1828,1901,2136,2332,2045,1842,1874,1982
954451,63212,31408,64495,31727,2135,587,-46,512,-13,909,597,3228,43,58,838,1828,1901,2136,2332,2045,1842,1874,1982
955452,63288,31488,64560,31792,1771,619,-118,430,29,349,753,3302,41,44,833,1828,1901,2136,2332,2045,1842,1874,1982
956453,63352,31544,64625,31857,1923,930,-148,356,49,47,913,3536,52,60,837,1828,1901,2136,2332,2045,1842,1874,1982
957454,63412,31604,64690,31922,1980,886,-129,348,25,177,1181,3905,51,54,834,1828,1901,2136,2332,2045,1842,1874,1982
958455,63476,31676,64755,31987,1932,728,-95,398,4,618,1071,4045,42,42,833,1828,1901,2136,2332,2045,1842,1874,1982
959456,63556,31744,64820,32052,1713,774,-75,476,-9,745,1198,4078,47,50,835,1791,1859,2094,2280,2124,1903,1923,2045
960457,63608,31812,64885,32117,2080,771,-36,505,-30,805,1319,3814,54,53,837,1791,1859,2094,2280,2124,1903,1923,2045
961458,63680,31880,64950,32182,1822,767,-10,475,-64,593,1304,3729,42,56,834,1791,1859,2094,2280,2124,1903,1923,2045
962459,63744,31932,65015,32247,1924,983,24,449,-124,476,1425,3720,38,56,836,1791,1859,2094,2280,2124,1903,1923,2045
963460,63820,32012,65080,32312,1761,615,50,440,-181,411,1330,3770,46,55,833,1791,1859,2094,2280,2124,1903,1923,2045
964461,63884,32096,65145,32377,1913,542,70,506,-234,680,1275,4179,56,57,838,1757,1838,2076,2256,2126,1886,1907,2025
965462,63956,32140,65210,32442,1804,1067,77,571,-255,781,1323,3949,58,46,837,1757,1838,2076,2256,2126,1886,1907,2025
966463,64032,32208,65275,32507,1742,763,76,600,-266,362,1420,3744,41,43,834,1757,1838,2076,2256,2126,1886,1907,2025
967464,64104,32264,65340,32572,1783,925,56,609,-269,173,1357,3725,47,53,837,1757,1838,2076,2256,2126,1886,1907,2025
968465,64196,32328,65405,32637,1501,827,29,596,-261,80,1348,3402,46,48,835,1757,1838,2076,2256,2126,1886,1907,2025
969466,64256,32392,65470,32702,1907,828,-21,573,-250,107,1262,3658,42,42,838,1757,1838,2076,2256,2126,1886,1907,2025
970467,64332,32456,65535,32767,1695,829,-71,585,-241,244,1214,3508,52,54,835,1801,1892,2128,2326,2022,1808,1842,1943
971468,64396,32524,65600,32832,1846,775,-127,562,-236,107,1235,3373,39,52,837,1801,1892,2128,2326,2022,1808,1842,1943
972469,64456,32572,65665,32897,1902,1046,-183,537,-229,-96,1107,3553,53,52,834,1801,1892,2128,2326,2022,1808,1842,1943
973470,64524,32644,65730,32962,1800,738,-234,513,-232,83,1198,3475,51,44,833,1801,1892,2128,2326,2022,1808,1842,1943
974471,64580,32700,65795,33027,1961,949,-264,494,-238,128,1159,3510,41,51,836,1801,1892,2128,2326,2022,1808,1842,1943
975472,64640,32784,65860,33092,1918,576,-297,476,-259,427,1190,3566,44,57,832,1857,1933,2167,2370,1982,1791,1828,1937
976473,64724,32844,65925,33157,1595,883,-301,466,-276,370,1202,3535,37,56,836,1857,1933,2167,2370,1982,1791,1828,1937
977474,64780,32908,65990,33222,1957,834,-316,432,-301,410,1252,3651,53,57,838,1857,1933,2167,2370,1982,1791,1828,1937
978475,64844,32980,66055,33287,1858,725,-307,454,-333,396,1197,3834,47,50,834,1857,1933,2167,2370,1982,1791,1828,1937
979476,64912,33036,66120,33352,1805,936,-302,476,-357,715,1368,3663,53,50,836,1857,1933,2167,2370,1982,1791,1828,1937
980477,64976,33104,66185,33417,1856,783,-275,499,-401,980,1380,3830,48,47,835,1857,1933,2167,2370,1982,1791,1828,1937
981478,65052,33160,66250,33482,1694,944,-258,518,-436,750,1479,3886,48,45,835,1835,1902,2140,2324,2039,1837,1870,1991
982479,65132,33236,66315,33547,1626,680,-224,508,-480,694,1715,3772,45,57,836,1835,1902,2140,2324,2039,1837,1870,1991
983480,65180,33304,66380,33612,2047,776,-210,512,-508,508,1599,3861,50,54,838,1835,1902,2140,2324,2039,1837,1870,1991
984481,65248,33372,66445,33677,1794,774,-203,494,-545,480,1851,3526,52,43,834,1835,1902,2140,2324,2039,1837,1870,1991
985482,65336,33432,66510,33742,1516,880,-188,476,-582,309,1963,3748,39,46,836,1835,1902,2140,2324,2039,1837,1870,1991
986483,65396,33500,66575,33807,1873,776,-183,457,-604,96,1875,3784,59,59,838,1797,1871,2103,2290,2086,1868,1900,2013
987484,65484,33588,66640,33872,1495,498,-183,433,-626,178,1861,3721,58,54,835,1797,1871,2103,2290,2086,1868,1900,2013
988485,65540,33640,66705,33937,1907,964,-188,410,-629,96,1701,3692,56,51,841,1797,1871,2103,2290,2086,1868,1900,2013
989486,65612,33720,66770,34002,1698,596,-198,406,-639,174,1963,3884,50,41,832,1797,1871,2103,2290,2086,1868,1900,2013
990487,65704,33792,66835,34067,1416,687,-206,373,-651,-21,1980,3599,54,54,838,1797,1871,2103,2290,2086,1868,1900,2013
991488,65756,33860,66900,34132,1932,734,-232,362,-646,-233,1453,3772,51,55,841,1797,1871,2103,2290,2086,1868,1900,2013
992489,65820,33936,66965,34197,1783,620,-287,385,-602,488,1178,4109,54,45,836,1790,1876,2110,2300,2076,1856,1883,2001
993490,65880,34000,67030,34262,1840,772,-334,385,-564,863,1236,3730,54,61,837,1790,1876,2110,2300,2076,1856,1883,2001
994491,65964,34072,67095,34327,1517,664,-369,362,-578,86,1482,3561,54,45,836,1790,1876,2110,2300,2076,1856,1883,2001
995492,66036,34128,67160,34392,1660,875,-394,349,-614,-157,1243,3872,47,51,839,1790,1876,2110,2300,2076,1856,1883,2001
996493,66088,34192,67225,34457,1925,776,-409,434,-621,506,811,4389,36,47,837,1790,1876,2110,2300,2076,1856,1883,2001
997494,66144,34264,67290,34522,1887,667,-426,512,-605,1094,923,4117,35,51,835,1812,1896,2144,2318,2071,1851,1867,2002
998495,66224,34356,67355,34587,1569,384,-442,564,-615,756,1073,4035,51,57,835,1812,1896,2144,2318,2071,1851,1867,2002
999496,66276,34408,67420,34652,1936,900,-480,580,-652,290,1225,4008,38,63,841,1812,1896,2144,2318,2071,1851,1867,2002
1000497,66340,34492,67485,34717,1787,477,-496,551,-689,323,1413,3787,54,57,834,1812,1896,2144,2318,2071,1851,1867,2002
1001498,66404,34576,67550,34782,1788,454,-534,530,-705,196,1197,3808,45,57,838,1812,1896,2144,2318,2071,1851,1867,2002
1002499,66476,34652,67615,34847,1681,541,-572,547,-740,638,1293,4057,47,59,838,1812,1896,2144,2318,2071,1851,1867,2002
1003500,66548,34724,67680,34912,1672,582,-613,561,-762,708,1536,3884,58,50,839,1823,1895,2152,2333,2090,1874,1891,2013
1004501,66624,34792,67745,34977,1610,629,-662,537,-782,276,1699,3549,44,49,839,1823,1895,2152,2333,2090,1874,1891,2013
1005502,66704,34860,67810,35042,1542,626,-695,525,-817,170,1891,3775,40,44,839,1823,1895,2152,2333,2090,1874,1891,2013
1006503,66756,34932,67875,35107,1908,567,-725,488,-840,234,1915,3707,56,54,839,1823,1895,2152,2333,2090,1874,1891,2013
1007504,66836,35020,67940,35172,1540,339,-747,509,-830,262,1710,3932,46,44,837,1823,1895,2152,2333,2090,1874,1891,2013
1008505,66900,35072,68005,35237,1741,805,-786,554,-817,509,1729,3942,56,60,842,1808,1873,2121,2310,2117,1899,1917,2038
1009506,66992,35144,68070,35302,1359,546,-785,562,-825,394,2039,3840,50,41,837,1808,1873,2121,2310,2117,1899,1917,2038
1010507,67076,35192,68135,35367,1436,867,-792,544,-819,-37,1794,3903,47,56,843,1808,1873,2121,2310,2117,1899,1917,2038
1011508,67136,35284,68200,35432,1743,284,-799,560,-814,13,1640,4112,43,45,839,1808,1873,2121,2310,2117,1899,1917,2038
1012509,67232,35344,68265,35497,1255,690,-813,588,-792,510,1501,4062,43,57,840,1808,1873,2121,2310,2117,1899,1917,2038
1013510,67308,35412,68330,35562,1492,587,-816,599,-780,399,1561,3982,58,56,843,1808,1873,2121,2310,2117,1899,1917,2038
1014511,67384,35488,68395,35627,1480,473,-810,604,-778,-69,1484,4055,54,41,841,1770,1851,2091,2273,2116,1888,1904,2028
1015512,67456,35548,68460,35692,1521,679,-808,589,-781,-8,1444,3962,42,46,842,1770,1851,2091,2273,2116,1888,1904,2028
1016513,67524,35616,68525,35757,1568,576,-814,593,-783,104,1269,3941,43,46,840,1770,1851,2091,2273,2116,1888,1904,2028
1017514,67608,35696,68590,35822,1345,407,-828,612,-794,314,1268,3970,53,43,840,1770,1851,2091,2273,2116,1888,1904,2028
1018515,67688,35776,68655,35887,1377,389,-853,607,-829,296,1446,3722,60,56,843,1770,1851,2091,2273,2116,1888,1904,2028
1019516,67768,35840,68720,35952,1360,590,-872,586,-861,38,1423,3571,56,50,843,1780,1868,2118,2294,2073,1846,1869,1993
1020517,67860,35908,68785,36017,1177,537,-896,577,-894,138,1351,3669,62,56,842,1780,1868,2118,2294,2073,1846,1869,1993
1021518,67924,35972,68850,36082,1528,588,-944,584,-915,423,1290,3910,51,50,844,1780,1868,2118,2294,2073,1846,1869,1993
1022519,68008,36044,68915,36147,1256,479,-978,574,-956,399,1608,3342,59,43,841,1780,1868,2118,2294,2073,1846,1869,1993
1023520,68096,36104,68980,36212,1178,635,-1013,531,-1001,-246,1469,3378,48,55,842,1780,1868,2118,2294,2073,1846,1869,1993
