%  Data file recorded 2016/10/2  20:47:46
%  Stride Frequency         = [1, 1]
%  Lead In /Lead Out        = 
%  Deltas (Fractional)      = [0.25, 0.25, 0.25],[0.25, 0.25, 0.25]
%  Phase                    = 32768
%  Experiment.py 
%  Motor Gains    = [5000, 400, 200, 0, 300, 5000, 400, 200, 0, 300]
% Columns: 
% time | Right Leg Pos | Left Leg Pos | Commanded Right Leg Pos | Commanded Left Leg Pos | DCR | DCL | GyroX | GyroY | GyroZ | AX | AY | AZ | RBEMF | LBEMF | VBatt | S1 | S2 | S3 | S4 | S5 | S6 | S7 | S8
85,16252,-17208,16022,-16746,-3800,3800,-13,-6,3,-158,167,3870,10,-4,909,1783,1884,2103,2292,2071,1843,1887,2011
1086,16248,-17220,16022,-16746,-3800,3800,-15,-8,2,-162,155,3931,0,7,909,1783,1884,2103,2292,2071,1843,1887,2011
2087,16256,-17208,16022,-16746,-3800,3800,-16,-9,1,-159,158,3929,-9,3,909,1783,1884,2103,2292,2071,1843,1887,2011
3088,16244,-17216,16022,-16746,-3800,3800,-15,-8,3,-154,138,3895,1,-4,909,1783,1884,2103,2292,2071,1843,1887,2011
4089,16252,-17216,16022,-16746,-3800,3800,-14,-8,1,-156,151,3914,10,-5,908,1783,1884,2103,2292,2071,1843,1887,2011
5090,16256,-17220,16022,-16746,-3800,3800,-12,-8,1,-151,140,3938,-6,3,908,1786,1885,2102,2291,2071,1843,1889,2010
6091,16260,-17216,16022,-16746,-3800,3800,-13,-7,1,-125,156,3927,-9,7,909,1786,1885,2102,2291,2071,1843,1889,2010
7092,16252,-17220,16022,-16746,-3800,3800,-12,-8,2,-148,166,3914,-4,3,909,1786,1885,2102,2291,2071,1843,1889,2010
8093,16264,-17220,16022,-16746,-3800,3800,-12,-11,0,-177,171,3903,6,-4,908,1786,1885,2102,2291,2071,1843,1889,2010
9096,16252,-17216,16022,-16746,-3800,3800,-14,-12,0,-176,165,3909,10,-7,909,1786,1885,2102,2291,2071,1843,1889,2010
10095,16248,-17216,16022,-16746,-3800,3800,-14,-11,1,-152,152,3924,5,1,908,1784,1885,2103,2292,2073,1845,1890,2011
11096,16260,-17228,16022,-16746,-3800,3800,-15,-10,1,-142,149,3908,-7,7,909,1784,1885,2103,2292,2073,1845,1890,2011
12097,16252,-17212,16022,-16746,-3800,3800,-12,-9,1,-131,187,3905,-9,6,909,1784,1885,2103,2292,2073,1845,1890,2011
13098,16256,-17220,16022,-16746,-3800,3800,-11,-7,0,-149,167,3890,5,-7,908,1784,1885,2103,2292,2073,1845,1890,2011
14099,16252,-17220,16022,-16746,-3800,3800,-10,-10,-1,-182,128,3926,9,-1,909,1784,1885,2103,2292,2073,1845,1890,2011
15100,16256,-17208,16022,-16746,-3800,3800,-12,-10,2,-147,151,3921,1,7,909,1784,1885,2103,2292,2073,1845,1890,2011
16101,16252,-17216,16022,-16746,-3800,3800,-11,-13,3,-143,165,3908,-9,1,909,1783,1887,2104,2293,2072,1842,1889,2011
17102,16248,-17220,16022,-16746,-3800,3800,-11,-13,4,-150,162,3889,-6,-6,909,1783,1887,2104,2293,2072,1842,1889,2011
18103,16256,-17220,16022,-16746,-3800,3800,-15,-12,4,-155,138,3876,-2,-3,909,1783,1887,2104,2293,2072,1842,1889,2011
19104,16252,-17212,16022,-16746,-3800,3800,-15,-12,3,-135,154,3906,10,8,907,1783,1887,2104,2293,2072,1842,1889,2011
20105,16260,-17220,16022,-16746,-3800,3800,-15,-10,2,-137,142,3946,3,7,909,1783,1887,2104,2293,2072,1842,1889,2011
21106,16256,-17216,16022,-16746,-3800,3800,-18,-9,2,-157,143,3929,-2,-2,908,1785,1885,2103,2292,2073,1843,1887,2011
22107,16248,-17216,16022,-16746,-3800,3800,-20,-7,3,-150,170,3904,-9,-5,909,1785,1885,2103,2292,2073,1843,1887,2011
23108,16252,-17216,16022,-16746,-3800,3800,-17,-6,-1,-153,159,3906,-4,2,909,1785,1885,2103,2292,2073,1843,1887,2011
24109,16252,-17208,16022,-16746,-3800,3800,-15,-9,-1,-169,155,3921,-1,7,909,1785,1885,2103,2292,2073,1843,1887,2011
25110,16264,-17212,16022,-16746,-3800,3800,-15,-8,3,-142,156,3917,9,-6,909,1785,1885,2103,2292,2073,1843,1887,2011
26111,16252,-17232,16022,-16746,-3800,3800,-15,-7,3,-143,166,3870,4,-4,909,1785,1885,2103,2292,2073,1843,1887,2011
27112,16252,-17216,16022,-16746,-3800,3800,-12,-8,3,-122,169,3913,-2,7,909,1784,1884,2102,2291,2073,1844,1891,2011
28113,16252,-17216,16022,-16746,-3800,3800,-12,-9,4,-146,139,3917,-9,-3,908,1784,1884,2102,2291,2073,1844,1891,2011
29114,16252,-17224,16022,-16746,-3800,3800,-14,-9,4,-145,138,3918,4,-6,909,1784,1884,2102,2291,2073,1844,1891,2011
30115,16248,-17220,16022,-16746,-3800,3800,-15,-11,2,-159,163,3903,9,6,909,1784,1884,2102,2291,2073,1844,1891,2011
31116,16256,-17212,16022,-16746,-3800,3800,-14,-9,1,-150,163,3892,6,-3,908,1784,1884,2102,2291,2073,1844,1891,2011
32117,16264,-17232,16022,-16746,-3800,3800,-14,-8,2,-126,144,3945,-6,-7,909,1784,1884,2102,2292,2072,1844,1890,2010
33118,16252,-17220,16022,-16746,-3800,3800,-17,-10,1,-123,141,3932,-8,-2,909,1784,1884,2102,2292,2072,1844,1890,2010
34119,16260,-17220,16022,-16746,-3800,3800,-19,-7,0,-118,147,3893,-8,7,909,1784,1884,2102,2292,2072,1844,1890,2010
35120,16248,-17228,16022,-16746,-3800,3800,-17,-9,1,-128,151,3928,6,-1,909,1784,1884,2102,2292,2072,1844,1890,2010
36121,16252,-17220,16022,-16746,-3800,3800,-15,-10,1,-130,148,3894,10,-8,907,1784,1884,2102,2292,2072,1844,1890,2010
37122,16252,-17212,16022,-16746,-3800,3800,-14,-8,1,-130,137,3879,11,-4,909,1786,1887,2106,2292,2072,1842,1890,2010
38123,16248,-17228,16022,-16746,-3800,3800,-15,-6,2,-164,162,3914,10,1,909,1786,1887,2106,2292,2072,1842,1890,2010
39124,16252,-17224,16022,-16746,-3800,3800,-16,-8,2,-154,146,3937,10,8,909,1786,1887,2106,2292,2072,1842,1890,2010
40125,16256,-17220,16022,-16746,-3800,3800,-15,-10,-1,-133,132,3906,1,-4,909,1786,1887,2106,2292,2072,1842,1890,2010
41126,16264,-17224,16022,-16746,-3800,3800,-15,-10,-1,-121,130,3940,-9,-7,908,1786,1887,2106,2292,2072,1842,1890,2010
42127,16260,-17216,16022,-16746,-3800,3800,-16,-8,-1,-106,142,3914,-9,2,909,1786,1887,2106,2292,2072,1842,1890,2010
43128,16256,-17220,16022,-16746,-3800,3800,-15,-10,-1,-127,143,3898,-3,4,909,1784,1885,2104,2292,2073,1843,1892,2013
44129,16248,-17224,16022,-16746,-3800,3800,-14,-10,1,-126,123,3946,8,-4,909,1784,1885,2104,2292,2073,1843,1892,2013
45130,16252,-17208,16022,-16746,-3800,3800,-15,-9,3,-142,126,3923,8,-7,909,1784,1885,2104,2292,2073,1843,1892,2013
46131,16260,-17220,16022,-16746,-3800,3800,-16,-9,4,-149,148,3896,-9,6,909,1784,1885,2104,2292,2073,1843,1892,2013
47132,16252,-17220,16022,-16746,-3800,3800,-13,-8,2,-140,160,3905,2,6,909,1784,1885,2104,2292,2073,1843,1892,2013
48133,16248,-17220,16022,-16746,-3800,3800,-14,-10,1,-132,154,3930,9,-2,909,1784,1885,2103,2292,2072,1843,1890,2011
49134,16252,-17216,16022,-16746,-3800,3800,-15,-8,1,-129,136,3941,-2,-7,909,1784,1885,2103,2292,2072,1843,1890,2011
50135,16252,-17220,16022,-16746,-3800,3800,-16,-8,1,-143,147,3941,-8,0,909,1784,1885,2103,2292,2072,1843,1890,2011
51136,16248,-17228,16022,-16746,-3800,3800,-14,-8,1,-158,149,3908,-1,7,909,1784,1885,2103,2292,2072,1843,1890,2011
52137,16248,-17224,16022,-16746,-3800,3800,-13,-7,-3,-129,164,3924,10,0,909,1784,1885,2103,2292,2072,1843,1890,2011
53138,16244,-17216,16022,-16746,-3800,3800,-13,-6,0,-138,155,3946,1,-6,908,1784,1885,2103,2292,2072,1843,1890,2011
54139,16252,-17220,16022,-16746,-3800,3800,-12,-11,4,-149,150,3938,-6,-6,909,1786,1886,2104,2291,2072,1844,1888,2011
55140,16248,-17224,16022,-16746,-3800,3800,-15,-13,4,-146,154,3905,-9,1,909,1786,1886,2104,2291,2072,1844,1888,2011
56141,16264,-17216,16022,-16746,-3800,3800,-14,-12,0,-144,157,3943,5,8,909,1786,1886,2104,2291,2072,1844,1888,2011
57142,16252,-17216,16022,-16746,-3800,3800,-14,-11,2,-160,142,3922,10,0,909,1786,1886,2104,2291,2072,1844,1888,2011
58143,16252,-17216,16022,-16746,-3800,3800,-13,-7,2,-138,147,3927,-4,-4,909,1786,1886,2104,2291,2072,1844,1888,2011
59144,16252,-17228,16022,-16746,-3800,3800,-15,-7,0,-150,154,3931,-4,6,909,1786,1886,2104,2292,2072,1844,1890,2011
60145,16268,-17216,16022,-16746,-3800,3800,-17,-10,1,-155,148,3916,9,6,909,1786,1886,2104,2292,2072,1844,1890,2011
61146,16244,-17228,16022,-16746,-3800,3800,-18,-13,2,-135,165,3885,5,-6,909,1786,1886,2104,2292,2072,1844,1890,2011
62147,16252,-17224,16022,-16746,-3800,3800,-15,-11,3,-157,157,3911,-9,-7,908,1786,1886,2104,2292,2072,1844,1890,2011
63148,16252,-17212,16022,-16746,-3800,3800,-11,-9,3,-157,136,3918,-7,-1,909,1786,1886,2104,2292,2072,1844,1890,2011
64149,16252,-17228,16022,-16746,-3800,3800,-12,-5,2,-150,133,3908,9,7,908,1786,1886,2104,2292,2072,1844,1890,2011
65150,16252,-17216,16022,-16746,-3800,3800,-15,-6,2,-155,160,3908,6,7,909,1784,1884,2103,2292,2073,1841,1887,2012
66151,16252,-17216,16022,-16746,-3800,3800,-16,-8,3,-162,154,3914,-6,-1,909,1784,1884,2103,2292,2073,1841,1887,2012
67152,16260,-17220,16022,-16746,-3800,3800,-14,-8,4,-158,144,3925,-8,-6,909,1784,1884,2103,2292,2073,1841,1887,2012
68153,16256,-17232,16022,-16746,-3800,3800,-14,-8,6,-177,154,3889,7,3,909,1784,1884,2103,2292,2073,1841,1887,2012
69154,16244,-17220,16022,-16746,-3800,3800,-14,-7,5,-169,151,3903,6,7,909,1784,1884,2103,2292,2073,1841,1887,2012
70155,16248,-17220,16022,-16746,-3800,3800,-15,-11,5,-166,153,3904,-9,-7,907,1785,1885,2103,2291,2071,1843,1889,2010
71156,16252,-17216,16022,-16746,-3800,3800,-13,-9,1,-159,144,3902,5,-7,908,1785,1885,2103,2291,2071,1843,1889,2010
72157,16248,-17216,16022,-16746,-3800,3800,-12,-6,0,-158,163,3960,10,-4,909,1785,1885,2103,2291,2071,1843,1889,2010
73158,16252,-17212,16022,-16746,-3800,3800,-14,-5,2,-159,157,3910,-6,8,909,1785,1885,2103,2291,2071,1843,1889,2010
74159,16248,-17212,16022,-16746,-3800,3800,-15,-6,3,-162,146,3906,-6,6,908,1785,1885,2103,2291,2071,1843,1889,2010
75160,16260,-17212,16022,-16746,-3800,3800,-14,-9,3,-195,175,3907,6,-2,909,1785,1885,2103,2291,2071,1843,1889,2010
76161,16256,-17232,16022,-16746,-3800,3800,-13,-9,3,-154,165,3871,0,-4,909,1785,1884,2103,2292,2073,1843,1890,2011
77162,16240,-17212,16022,-16746,-3800,3800,-12,-7,3,-140,149,3876,-8,2,909,1785,1884,2103,2292,2073,1843,1890,2011
78163,16252,-17216,16022,-16746,-3800,3800,-13,-9,3,-143,144,3914,3,8,909,1785,1884,2103,2292,2073,1843,1890,2011
79164,16256,-17216,16022,-16746,-3800,3800,-13,-10,3,-138,159,3905,-1,-1,909,1785,1884,2103,2292,2073,1843,1890,2011
80165,16260,-17220,16022,-16746,-3800,3800,-12,-12,4,-157,157,3907,-7,-7,909,1785,1884,2103,2292,2073,1843,1890,2011
81166,16260,-17220,16022,-16746,-3800,3800,-13,-12,3,-138,173,3913,3,-3,908,1785,1885,2101,2291,2071,1844,1891,2010
82167,16260,-17216,16022,-16746,-3800,3800,-14,-12,5,-137,167,3930,9,6,908,1785,1885,2101,2291,2071,1844,1891,2010
83168,16252,-17220,16022,-16746,-3800,3800,-13,-10,4,-155,165,3937,-8,-4,909,1785,1885,2101,2291,2071,1844,1891,2010
84169,16256,-17228,16022,-16746,-3800,3800,-12,-8,2,-119,171,3899,-3,-6,909,1785,1885,2101,2291,2071,1844,1891,2010
85170,16256,-17224,16022,-16746,-3800,3800,-10,-12,0,-128,140,3916,9,8,909,1785,1885,2101,2291,2071,1844,1891,2010
86171,16248,-17220,16022,-16746,-3800,3800,-11,-9,1,-164,133,3919,-8,-2,909,1785,1885,2101,2291,2071,1844,1891,2010
87172,16256,-17220,16022,-16746,-3800,3800,-12,-8,1,-165,139,3892,0,-7,907,1785,1886,2103,2292,2071,1843,1890,2010
88173,16256,-17220,16022,-16746,-3800,3800,-11,-11,2,-131,155,3914,10,-5,909,1785,1886,2103,2292,2071,1843,1890,2010
89174,16248,-17216,16022,-16746,-3800,3800,-13,-11,4,-151,157,3914,-3,2,909,1785,1886,2103,2292,2071,1843,1890,2010
90175,16248,-17208,16022,-16746,-3800,3800,-14,-10,2,-146,159,3906,-8,7,909,1785,1886,2103,2292,2071,1843,1890,2010
91176,16256,-17216,16022,-16746,-3800,3800,-14,-9,2,-153,129,3900,6,-1,909,1785,1886,2103,2292,2071,1843,1890,2010
92177,16252,-17212,16022,-16746,-3800,3800,-13,-12,2,-166,133,3905,10,-6,909,1785,1885,2102,2291,2072,1844,1890,2011
93178,16252,-17220,16022,-16746,-3800,3800,-12,-14,1,-154,152,3898,7,-7,909,1785,1885,2102,2291,2072,1844,1890,2011
94179,16252,-17208,16022,-16746,-3800,3800,-12,-12,0,-146,155,3920,-6,1,908,1785,1885,2102,2291,2072,1844,1890,2011
95180,16256,-17232,16022,-16746,-3800,3800,-11,-9,0,-142,157,3912,-8,4,909,1785,1885,2102,2291,2072,1844,1890,2011
96181,16244,-17204,16022,-16746,-3800,3800,-11,-9,-2,-147,140,3952,0,6,909,1785,1885,2102,2291,2072,1844,1890,2011
97182,16256,-17216,16022,-16746,-3800,3800,-14,-9,-1,-142,137,3927,10,3,909,1785,1885,2102,2291,2072,1844,1890,2011
98183,16256,-17224,16022,-16746,-3800,3800,-16,-10,3,-153,164,3899,-3,-3,909,1786,1886,2104,2292,2072,1843,1889,2010
99184,16260,-17220,16022,-16746,-3800,3800,-13,-10,1,-158,157,3904,-9,-3,909,1786,1886,2104,2292,2072,1843,1889,2010
100185,16248,-17220,16022,-16746,-3800,3800,-12,-12,0,-143,163,3946,7,-7,909,1786,1886,2104,2292,2072,1843,1889,2010
101186,16260,-17220,16022,-16746,-3800,3800,-14,-11,-1,-156,172,3893,-1,-6,909,1786,1886,2104,2292,2072,1843,1889,2010
102187,16256,-17224,16022,-16746,-3800,3800,-18,-8,1,-153,159,3877,-8,-6,909,1786,1886,2104,2292,2072,1843,1889,2010
103188,16260,-17216,16022,-16746,-3800,3800,-17,-10,-2,-107,144,3907,5,-2,909,1785,1886,2103,2292,2073,1843,1887,2011
104189,16256,-17224,16022,-16746,-3800,3800,-15,-11,-4,-118,134,3917,2,-4,907,1785,1886,2103,2292,2073,1843,1887,2011
105190,16252,-17212,16022,-16746,-3800,3800,-14,-9,2,-145,140,3928,-7,-7,909,1785,1886,2103,2292,2073,1843,1887,2011
106191,16256,-17216,16022,-16746,-3800,3800,-12,-10,3,-135,156,3912,-4,1,909,1785,1886,2103,2292,2073,1843,1887,2011
107192,16248,-17224,16022,-16746,-3800,3800,-13,-10,1,-124,151,3908,10,6,909,1785,1886,2103,2292,2073,1843,1887,2011
108193,16264,-17220,16022,-16746,-3800,3800,-13,-6,0,-129,140,3906,-3,8,908,1785,1886,2103,2292,2073,1843,1887,2011
109194,16244,-17212,16022,-16746,-3800,3800,-16,-5,1,-139,152,3869,-2,0,909,1785,1884,2102,2291,2072,1844,1890,2011
110195,16256,-17220,16022,-16746,-3800,3800,-15,-5,2,-145,151,3872,7,-3,908,1785,1884,2102,2291,2072,1844,1890,2011
111196,16244,-17212,16022,-16746,-3800,3800,-14,-11,0,-141,148,3895,-1,-5,909,1785,1884,2102,2291,2072,1844,1890,2011
112197,16256,-17216,16022,-16746,-3800,3800,-14,-12,-1,-143,162,3938,-8,-7,908,1785,1884,2102,2291,2072,1844,1890,2011
113198,16264,-17216,16022,-16746,-3800,3800,-13,-7,3,-159,146,3936,9,-6,909,1785,1884,2102,2291,2072,1844,1890,2011
114199,16256,-17216,16022,-16746,-3800,3800,-14,-9,4,-159,146,3947,9,-1,909,1785,1885,2103,2292,2072,1844,1890,2010
115200,16252,-17216,16022,-16746,-3800,3800,-15,-10,5,-152,147,3874,-2,7,909,1785,1885,2103,2292,2072,1844,1890,2010
116201,16252,-17208,16022,-16746,-3800,3800,-16,-9,3,-143,118,3895,-6,5,909,1785,1885,2103,2292,2072,1844,1890,2010
117202,16260,-17220,16022,-16746,-3800,3800,-15,-7,4,-124,152,3896,-6,-1,909,1785,1885,2103,2292,2072,1844,1890,2010
118203,16260,-17216,16022,-16746,-3800,3800,-15,-6,6,-144,176,3911,-8,-5,909,1785,1885,2103,2292,2072,1844,1890,2010
119204,16248,-17224,16022,-16746,-3800,3800,-16,-9,5,-127,175,3908,0,3,909,1785,1885,2103,2292,2072,1844,1890,2010
120205,16244,-17216,16022,-16746,-3800,3800,-17,-10,1,-107,157,3926,4,8,908,1785,1883,2103,2294,2074,1844,1890,2011
121206,16256,-17224,16022,-16746,-3800,3800,-16,-7,0,-123,121,3933,9,-2,907,1785,1883,2103,2294,2074,1844,1890,2011
122207,16256,-17216,16022,-16746,-3800,3800,-16,-7,4,-135,152,3898,10,1,909,1785,1883,2103,2294,2074,1844,1890,2011
123208,16248,-17224,16022,-16746,-3800,3800,-16,-7,6,-124,137,3900,9,-2,909,1785,1883,2103,2294,2074,1844,1890,2011
124209,16248,-17224,16022,-16746,-3800,3800,-15,-9,6,-126,136,3909,4,-7,909,1785,1883,2103,2294,2074,1844,1890,2011
125210,16248,-17224,16022,-16746,-3800,3800,-15,-7,4,-133,146,3916,-9,-7,909,1785,1884,2103,2292,2072,1844,1890,2012
126211,16264,-17216,16022,-16746,-3800,3800,-15,-7,0,-123,158,3918,-3,-4,909,1785,1884,2103,2292,2072,1844,1890,2012
127212,16248,-17216,16022,-16746,-3800,3800,-15,-7,0,-135,155,3916,10,5,908,1785,1884,2103,2292,2072,1844,1890,2012
128213,16260,-17208,16022,-16746,-3800,3800,-19,-9,1,-151,162,3901,-2,8,909,1785,1884,2103,2292,2072,1844,1890,2012
129214,16244,-17212,16022,-16746,-3800,3800,-18,-10,1,-163,132,3935,-8,7,909,1785,1884,2103,2292,2072,1844,1890,2012
130215,16264,-17212,16022,-16746,-3800,3800,-15,-10,0,-172,148,3950,-4,-2,909,1785,1884,2103,2292,2072,1844,1890,2012
131216,16252,-17220,16022,-16746,-3800,3800,-16,-8,2,-150,128,3927,6,-5,909,1786,1885,2102,2292,2072,1842,1889,2009
132217,16252,-17208,16022,-16746,-3800,3800,-16,-8,1,-148,151,3934,9,-7,909,1786,1885,2102,2292,2072,1842,1889,2009
133218,16256,-17220,16022,-16746,-3800,3800,-14,-7,2,-167,155,3921,8,6,909,1786,1885,2102,2292,2072,1842,1889,2009
134219,16256,-17220,16022,-16746,-3800,3800,-14,-6,4,-162,163,3870,-9,8,909,1786,1885,2102,2292,2072,1842,1889,2009
135220,16248,-17212,16022,-16746,-3800,3800,-14,-8,3,-139,154,3909,-7,8,908,1786,1885,2102,2292,2072,1842,1889,2009
136221,16248,-17216,16022,-16746,-3800,3800,-14,-10,1,-165,157,3939,3,-1,909,1788,1888,2104,2292,2072,1843,1889,2010
137222,16252,-17200,16022,-16746,-3800,3800,-14,-9,3,-148,170,3914,10,-5,908,1788,1888,2104,2292,2072,1843,1889,2010
138223,16248,-17208,16022,-16746,-3800,3800,-15,-10,3,-137,170,3922,2,-7,907,1788,1888,2104,2292,2072,1843,1889,2010
139224,16236,-17216,16022,-16746,-3800,3800,-14,-10,4,-162,153,3919,-9,-7,909,1788,1888,2104,2292,2072,1843,1889,2010
140225,16260,-17212,16022,-16746,-3800,3800,-14,-7,4,-151,150,3932,0,-7,909,1788,1888,2104,2292,2072,1843,1889,2010
141226,16248,-17224,16022,-16746,-3800,3800,-15,-6,4,-138,165,3910,10,-7,909,1788,1888,2104,2292,2072,1843,1889,2010
142227,16248,-17216,16022,-16746,-3800,3800,-15,-6,1,-160,161,3892,-7,4,908,1785,1884,2103,2289,2071,1844,1892,2012
143228,16252,-17220,16022,-16746,-3800,3800,-14,-7,2,-168,140,3911,3,7,908,1785,1884,2103,2289,2071,1844,1892,2012
144229,16260,-17228,16022,-16746,-3800,3800,-14,-9,0,-170,157,3906,8,6,908,1785,1884,2103,2289,2071,1844,1892,2012
145230,16248,-17228,16022,-16746,-3800,3800,-15,-10,-3,-143,154,3884,-8,-7,909,1785,1884,2103,2289,2071,1844,1892,2012
146231,16248,-17216,16022,-16746,-3800,3800,-15,-10,-3,-177,152,3908,-4,-7,908,1785,1884,2103,2289,2071,1844,1892,2012
147232,16252,-17220,16022,-16746,-3800,3800,-14,-7,0,-164,148,3905,4,-2,909,1785,1885,2102,2291,2071,1842,1890,2010
148233,16244,-17216,16022,-16746,-3800,3800,-14,-7,0,-130,137,3924,10,7,908,1785,1885,2102,2291,2071,1842,1890,2010
149234,16248,-17228,16022,-16746,-3800,3800,-14,-9,1,-134,149,3949,-5,5,909,1785,1885,2102,2291,2071,1842,1890,2010
150235,16248,-17224,16022,-16746,-3800,3800,-14,-8,1,-151,138,3919,-9,0,909,1785,1885,2102,2291,2071,1842,1890,2010
151236,16248,-17220,16022,-16746,-3800,3800,-12,-7,-1,-148,145,3911,7,-6,909,1785,1885,2102,2291,2071,1842,1890,2010
152237,16252,-17208,16022,-16746,-3800,3800,-15,-8,1,-160,166,3921,4,4,909,1785,1885,2102,2291,2071,1842,1890,2010
153238,16252,-17224,16022,-16746,-3800,3800,-15,-10,2,-158,134,3890,-4,7,909,1786,1886,2104,2293,2072,1844,1888,2010
154239,16256,-17232,16022,-16746,-3800,3800,-15,-9,1,-166,119,3891,-8,-4,909,1786,1886,2104,2293,2072,1844,1888,2010
155240,16256,-17216,16022,-16746,-3800,3800,-14,-9,-1,-162,141,3929,7,-7,908,1786,1886,2104,2293,2072,1844,1888,2010
156241,16252,-17224,16022,-16746,-3800,3800,-13,-8,-1,-134,144,3925,6,-8,908,1786,1886,2104,2293,2072,1844,1888,2010
157242,16256,-17224,16022,-16746,-3800,3800,-11,-8,-2,-145,137,3924,8,-6,908,1786,1886,2104,2293,2072,1844,1888,2010
158243,16256,-17220,16022,-16746,-3800,3800,-13,-10,2,-154,120,3942,6,0,909,1788,1886,2104,2292,2072,1843,1890,2011
159244,16256,-17224,16022,-16746,-3800,3800,-14,-11,1,-163,162,3910,-4,6,909,1788,1886,2104,2292,2072,1843,1890,2011
160245,16252,-17216,16022,-16746,-3800,3800,-14,-9,1,-141,153,3945,-9,2,909,1788,1886,2104,2292,2072,1843,1890,2011
161246,16248,-17216,16022,-16746,-3800,3800,-15,-8,0,-128,153,3912,1,-2,909,1788,1886,2104,2292,2072,1843,1890,2011
162247,16260,-17216,16022,-16746,-3800,3800,-15,-10,4,-135,169,3903,10,-6,909,1788,1886,2104,2292,2072,1843,1890,2011
163248,16256,-17220,16022,-16746,-3800,3800,-14,-11,3,-120,153,3865,-4,-3,909,1788,1886,2104,2292,2072,1843,1890,2011
164249,16252,-17216,16022,-16746,-3800,3800,-14,-10,1,-150,153,3875,-2,5,909,1786,1886,2103,2292,2072,1843,1887,2007
165250,16240,-17220,16022,-16746,-3800,3800,-14,-8,3,-164,135,3908,8,7,909,1786,1886,2103,2292,2072,1843,1887,2007
166251,16256,-17216,16022,-16746,-3800,3800,-13,-9,1,-144,157,3928,2,-1,909,1786,1886,2103,2292,2072,1843,1887,2007
167252,16244,-17220,16022,-16746,-3800,3800,-13,-6,3,-156,140,3923,-9,-5,909,1786,1886,2103,2292,2072,1843,1887,2007
168253,16244,-17216,16022,-16746,-3800,3800,-14,-7,5,-160,173,3925,1,-7,909,1786,1886,2103,2292,2072,1843,1887,2007
169254,16248,-17220,16022,-16746,-3800,3800,-14,-6,6,-147,151,3926,8,1,909,1786,1886,2104,2293,2072,1843,1890,2011
170255,16260,-17204,16022,-16746,-3800,3800,-13,-10,5,-132,163,3940,-7,7,909,1786,1886,2104,2293,2072,1843,1890,2011
171256,16248,-17212,16022,-16746,-3800,3800,-10,-11,5,-144,162,3935,-8,6,908,1786,1886,2104,2293,2072,1843,1890,2011
172257,16252,-17224,16022,-16746,-3800,3800,-11,-11,5,-165,167,3882,9,-6,907,1786,1886,2104,2293,2072,1843,1890,2011
173258,16248,-17224,16022,-16746,-3800,3800,-15,-10,4,-170,172,3902,3,-6,909,1786,1886,2104,2293,2072,1843,1890,2011
174259,16248,-17224,16022,-16746,-3800,3800,-15,-8,4,-164,151,3925,-1,-7,908,1786,1886,2104,2293,2072,1843,1890,2011
175260,16260,-17216,16022,-16746,-3800,3800,-13,-7,5,-159,146,3895,-9,7,909,1788,1884,2104,2292,2073,1843,1889,2011
176261,16248,-17216,16022,-16746,-3800,3800,-12,-10,6,-164,152,3905,-1,6,908,1788,1884,2104,2292,2073,1843,1889,2011
177262,16256,-17228,16022,-16746,-3800,3800,-12,-12,5,-167,159,3890,6,1,909,1788,1884,2104,2292,2073,1843,1889,2011
178263,16248,-17220,16022,-16746,-3800,3800,-14,-11,3,-146,141,3892,3,-7,909,1788,1884,2104,2292,2073,1843,1889,2011
179264,16248,-17220,16022,-16746,-3800,3800,-17,-11,5,-138,129,3917,-9,0,908,1788,1884,2104,2292,2073,1843,1889,2011
180265,16252,-17216,16022,-16746,-3800,3800,-19,-8,6,-148,152,3936,4,7,909,1785,1885,2102,2291,2071,1843,1890,2012
181266,16244,-17216,16022,-16746,-3800,3800,-12,-7,3,-148,157,3916,1,1,909,1785,1885,2102,2291,2071,1843,1890,2012
182267,16252,-17220,16022,-16746,-3800,3800,-10,-6,2,-163,171,3927,-7,-5,909,1785,1885,2102,2291,2071,1843,1890,2012
183268,16256,-17212,16022,-16746,-3800,3800,-12,-9,3,-137,162,3946,5,-7,909,1785,1885,2102,2291,2071,1843,1890,2012
184271,16260,-17208,16022,-16746,-3800,3800,-14,-10,4,-154,155,3897,8,2,909,1785,1885,2102,2291,2071,1843,1890,2012
185270,16248,-17220,16022,-16746,-3800,3800,-15,-9,4,-142,131,3848,-9,7,909,1785,1885,2102,2291,2071,1843,1890,2012
186271,16256,-17220,16022,-16746,-3800,3800,-13,-6,2,-148,117,3900,0,5,909,1785,1884,2103,2291,2073,1843,1889,2011
187272,16248,-17224,16022,-16746,-3800,3800,-12,-3,2,-133,144,3914,9,-6,909,1785,1884,2103,2291,2073,1843,1889,2011
188273,16252,-17216,16022,-16746,-3800,3800,-14,-4,3,-126,172,3897,-9,-6,909,1785,1884,2103,2291,2073,1843,1889,2011
189274,16252,-17208,16022,-16746,-3800,3800,-14,-5,3,-121,135,3938,-4,3,907,1785,1884,2103,2291,2073,1843,1889,2011
190275,16244,-17216,16022,-16746,-3800,3800,-13,-7,2,-159,139,3910,10,7,909,1785,1884,2103,2291,2073,1843,1889,2011
191276,16252,-17228,16022,-16746,-3800,3800,-13,-6,0,-137,168,3896,2,7,909,1785,1884,2103,2291,2071,1843,1890,2010
192277,16248,-17212,16022,-16746,-3800,3800,-14,-8,3,-148,136,3918,-9,0,908,1785,1884,2103,2291,2071,1843,1890,2010
193278,16256,-17220,16022,-16746,-3800,3800,-13,-8,3,-146,161,3909,8,-7,908,1785,1884,2103,2291,2071,1843,1890,2010
194279,16252,-17216,16022,-16746,-3800,3800,-13,-6,4,-133,149,3927,-3,-4,909,1785,1884,2103,2291,2071,1843,1890,2010
195280,16252,-17224,16022,-16746,-3800,3800,-13,-7,1,-125,145,3933,-5,1,908,1785,1884,2103,2291,2071,1843,1890,2010
196281,16260,-17220,16022,-16746,-3800,3800,-14,-9,1,-141,162,3928,9,7,909,1785,1884,2103,2291,2071,1843,1890,2010
197282,16256,-17216,16022,-16746,-3800,3800,-15,-12,-3,-131,149,3914,-9,5,909,1783,1886,2103,2294,2073,1844,1889,2010
198283,16252,-17216,16022,-16746,-3800,3800,-15,-10,-1,-150,177,3894,5,1,909,1783,1886,2103,2294,2073,1844,1889,2010
199325,16252,-17216,16022,-16746,-3800,3800,-14,-10,1,-127,140,3884,1,-7,908,1783,1886,2103,2294,2073,1844,1889,2010
200285,16260,-17216,16087,-16681,113,1078,-15,-9,1,-141,131,3896,-8,-7,909,1783,1886,2103,2294,2073,1844,1889,2010
201286,16264,-17224,16152,-16616,237,1267,-15,-8,3,-158,145,3871,7,-4,900,1783,1886,2103,2294,2073,1844,1889,2010
202287,16264,-17224,16217,-16551,366,1246,-15,-8,3,-170,160,3914,8,3,897,1785,1884,2103,2292,2073,1843,1889,2011
203288,16252,-17212,16282,-16486,610,1161,-18,-5,1,-133,162,3903,2,14,896,1785,1884,2103,2292,2073,1843,1889,2011
204289,16260,-17192,16347,-16421,430,1116,-18,-12,-2,-195,151,3870,12,26,895,1785,1884,2103,2292,2073,1843,1889,2011
205290,16268,-17148,16412,-16356,499,842,-15,-12,2,-179,123,3981,3,32,897,1785,1884,2103,2292,2073,1843,1889,2011
206291,16280,-17084,16477,-16291,514,594,-17,-18,3,-249,135,3974,4,32,898,1785,1884,2103,2292,2073,1843,1889,2011
207292,16280,-17020,16542,-16226,744,595,-22,-41,0,-253,69,4012,5,38,901,1785,1884,2103,2292,2073,1843,1889,2011
208293,16296,-16964,16607,-16161,604,707,-18,-50,-1,-304,86,4162,22,35,900,1786,1885,2102,2291,2072,1842,1889,2012
209294,16328,-16892,16672,-16096,444,498,-20,-56,-2,-92,108,3949,12,44,900,1786,1885,2102,2291,2072,1842,1889,2012
210295,16344,-16808,16737,-16031,704,325,-23,-51,-10,-88,0,3883,30,40,903,1786,1885,2102,2291,2072,1842,1889,2012
211296,16368,-16716,16802,-15966,654,193,-35,-44,-14,-121,38,3855,13,39,902,1786,1885,2102,2291,2072,1842,1889,2012
212297,16412,-16652,16867,-15901,430,544,-47,-42,-22,-153,32,3872,17,46,903,1786,1885,2102,2291,2072,1842,1889,2012
213298,16452,-16584,16932,-15836,510,491,-64,-36,-35,-127,64,3842,32,56,903,1791,1892,2108,2296,2080,1849,1897,2021
214299,16480,-16492,16997,-15771,707,158,-71,-54,-42,-200,67,3777,35,50,903,1791,1892,2108,2296,2080,1849,1897,2021
215300,16520,-16396,17062,-15706,587,71,-79,-52,-37,-315,-27,3997,18,54,902,1791,1892,2108,2296,2080,1849,1897,2021
216301,16572,-16320,17127,-15641,453,307,-73,-64,-43,-94,31,3991,22,56,904,1791,1892,2108,2296,2080,1849,1897,2021
217302,16616,-16256,17192,-15576,579,459,-65,-71,-45,-280,-16,4076,38,44,904,1791,1892,2108,2296,2080,1849,1897,2021
218303,16656,-16168,17257,-15511,659,131,-55,-90,-52,-227,27,4008,27,42,903,1791,1892,2108,2296,2080,1849,1897,2021
219304,16720,-16084,17322,-15446,361,158,-49,-115,-51,-462,57,3999,31,40,904,1782,1883,2100,2286,2088,1855,1903,2023
220305,16772,-16040,17387,-15381,527,684,-36,-129,-58,-361,148,4137,39,39,905,1782,1883,2100,2286,2088,1855,1903,2023
221306,16816,-15952,17452,-15316,653,106,-29,-130,-65,-158,86,4106,23,37,902,1782,1883,2100,2286,2088,1855,1903,2023
222307,16876,-15880,17517,-15251,459,297,-23,-118,-60,-182,59,4040,25,50,903,1782,1883,2100,2286,2088,1855,1903,2023
223308,16924,-15800,17582,-15186,631,180,-25,-102,-66,-141,168,4166,33,43,902,1782,1883,2100,2286,2088,1855,1903,2023
224309,16984,-15740,17647,-15121,487,436,-22,-97,-71,-257,138,3898,38,37,904,1784,1887,2102,2292,2079,1848,1898,2018
225310,17036,-15696,17712,-15056,603,662,-30,-119,-74,-391,172,4007,44,43,904,1784,1887,2102,2292,2079,1848,1898,2018
226311,17092,-15612,17777,-14991,564,139,-27,-123,-86,-367,174,3818,45,39,901,1784,1887,2102,2292,2079,1848,1898,2018
227312,17140,-15540,17842,-14926,685,281,-24,-130,-85,-332,165,4040,30,46,904,1784,1887,2102,2292,2079,1848,1898,2018
228313,17208,-15476,17907,-14861,432,382,-21,-143,-79,-373,121,3993,46,48,903,1784,1887,2102,2292,2079,1848,1898,2018
229314,17256,-15408,17972,-14796,703,329,-21,-165,-76,-426,117,3861,46,44,904,1784,1887,2102,2292,2079,1848,1898,2018
230315,17320,-15340,18037,-14731,504,325,-12,-198,-81,-409,70,4016,33,45,902,1801,1901,2112,2305,2065,1838,1887,2005
231316,17380,-15280,18102,-14666,561,432,-17,-213,-81,-400,91,4044,37,46,903,1801,1901,2112,2305,2065,1838,1887,2005
232317,17428,-15208,18167,-14601,732,273,-8,-202,-80,-224,92,3906,35,43,903,1801,1901,2112,2305,2065,1838,1887,2005
233318,17496,-15152,18232,-14536,478,484,-9,-197,-82,-271,16,3845,28,35,902,1801,1901,2112,2305,2065,1838,1887,2005
234320,17540,-15084,18297,-14471,804,331,-2,-180,-88,-269,30,4013,39,38,903,1801,1901,2112,2305,2065,1838,1887,2005
235320,17616,-15012,18362,-14406,391,272,2,-158,-89,-126,144,3942,31,43,902,1806,1901,2117,2310,2055,1831,1880,1996
236321,17668,-14956,18427,-14341,707,484,1,-162,-88,-195,32,3885,32,30,904,1806,1901,2117,2310,2055,1831,1880,1996
237322,17740,-14904,18492,-14276,448,550,7,-169,-92,-405,85,3896,43,45,902,1806,1901,2117,2310,2055,1831,1880,1996
238323,17804,-14832,18557,-14211,551,292,12,-176,-93,-400,141,3933,44,43,902,1806,1901,2117,2310,2055,1831,1880,1996
239324,17864,-14780,18622,-14146,607,557,21,-185,-88,-336,134,3838,26,29,903,1806,1901,2117,2310,2055,1831,1880,1996
240325,17924,-14724,18687,-14081,613,519,20,-184,-86,-354,92,3907,29,39,900,1806,1901,2117,2310,2055,1831,1880,1996
241326,17980,-14656,18752,-14016,674,366,23,-188,-78,-295,166,3837,28,36,901,1800,1892,2107,2299,2055,1829,1879,1997
242327,18048,-14600,18817,-13951,521,527,25,-190,-63,-355,189,3838,40,31,902,1800,1892,2107,2299,2055,1829,1879,1997
243328,18100,-14556,18882,-13886,737,702,32,-194,-58,-366,197,3795,30,41,903,1800,1892,2107,2299,2055,1829,1879,1997
244329,18164,-14500,18947,-13821,588,564,41,-197,-55,-364,271,3863,44,46,899,1800,1892,2107,2299,2055,1829,1879,1997
245330,18216,-14444,19012,-13756,755,575,50,-199,-41,-378,199,3916,34,46,900,1800,1892,2107,2299,2055,1829,1879,1997
246331,18276,-14380,19077,-13691,661,477,66,-191,-27,-222,149,4006,32,48,900,1785,1878,2092,2283,2064,1835,1884,2002
247332,18324,-14316,19142,-13626,832,478,76,-186,-17,-308,153,3914,39,39,901,1785,1878,2092,2283,2064,1835,1884,2002
248333,18380,-14264,19207,-13561,744,645,92,-186,-13,-251,138,3967,29,45,900,1785,1878,2092,2283,2064,1835,1884,2002
249334,18452,-14192,19272,-13496,535,386,102,-177,-8,-180,193,3935,46,41,900,1785,1878,2092,2283,2064,1835,1884,2002
250335,18504,-14128,19337,-13431,801,487,112,-174,-8,-142,162,3841,43,44,902,1785,1878,2092,2283,2064,1835,1884,2002
251336,18556,-14076,19402,-13366,817,653,113,-175,-9,-215,1,3944,30,48,900,1782,1878,2096,2288,2069,1840,1884,2002
252337,18616,-14000,19467,-13301,724,341,112,-149,-10,-249,69,3839,36,45,899,1782,1878,2096,2288,2069,1840,1888,2008
253338,18672,-13928,19532,-13236,785,382,105,-138,-8,-103,90,3852,32,39,901,1782,1878,2096,2288,2069,1840,1888,2008
254339,18724,-13868,19597,-13171,851,538,100,-132,-6,-100,45,3640,45,39,901,1782,1878,2096,2288,2069,1840,1888,2008
255340,18780,-13820,19662,-13106,813,709,90,-138,-12,-120,111,3877,39,38,899,1782,1878,2096,2288,2069,1840,1888,2008
256341,18836,-13760,19727,-13041,824,566,80,-145,-14,-247,76,3739,30,40,898,1782,1878,2096,2288,2069,1840,1888,2008
257342,18872,-13704,19792,-12976,1110,627,69,-158,-10,-183,-22,3852,36,50,898,1792,1888,2108,2300,2071,1843,1892,2013
258343,18952,-13640,19857,-12911,542,528,72,-162,-7,-137,14,3935,52,37,895,1792,1888,2108,2300,2071,1843,1892,2013
259344,19004,-13564,19922,-12846,908,366,73,-171,-6,-119,38,4058,50,46,900,1792,1888,2108,2300,2071,1843,1892,2013
260345,19076,-13504,19987,-12781,650,572,81,-180,-3,-117,44,3937,52,46,900,1792,1888,2108,2300,2071,1843,1892,2013
261346,19140,-13428,20052,-12716,752,359,99,-205,3,-63,-53,3916,47,42,900,1792,1888,2108,2300,2071,1843,1892,2013
262347,19208,-13376,20117,-12651,698,675,129,-213,-3,-279,-188,3902,39,48,901,1790,1890,2105,2294,2078,1847,1895,2016
263348,19280,-13304,20182,-12586,641,417,162,-186,-17,-314,-212,4056,49,46,900,1790,1890,2105,2294,2078,1847,1895,2016
264349,19336,-13252,20247,-12521,852,683,178,-141,-38,-231,-166,3959,46,34,901,1790,1890,2105,2294,2078,1847,1895,2016
265350,19380,-13176,20312,-12456,1027,369,188,-121,-47,-323,-121,3935,35,36,899,1790,1890,2105,2294,2078,1847,1895,2016
266351,19444,-13136,20377,-12391,779,850,184,-117,-44,-220,138,4002,43,41,898,1790,1890,2105,2294,2078,1847,1895,2016
267352,19512,-13056,20442,-12326,726,333,167,-145,-37,-102,210,3951,33,41,897,1790,1890,2105,2294,2078,1847,1895,2016
268353,19552,-12988,20507,-12261,1106,479,151,-166,-26,-236,40,3900,40,41,901,1795,1895,2107,2303,2058,1832,1887,1999
269354,19604,-12936,20572,-12196,973,695,150,-186,-30,-559,112,3905,47,44,898,1795,1895,2107,2303,2058,1832,1887,1999
270355,19680,-12892,20637,-12131,660,821,159,-195,-44,-452,119,3903,50,49,897,1795,1895,2107,2303,2058,1832,1887,1999
271356,19740,-12808,20702,-12066,866,298,160,-215,-40,29,127,3851,34,47,898,1795,1895,2107,2303,2058,1832,1887,1999
272357,19796,-12736,20767,-12001,928,440,151,-210,-41,-28,168,3895,46,40,899,1795,1895,2107,2303,2058,1832,1887,1999
273358,19860,-12684,20832,-11936,829,706,139,-201,-36,-204,138,3991,41,40,899,1796,1893,2099,2295,2050,1827,1884,2000
274359,19916,-12628,20897,-11871,940,668,135,-204,-44,-90,60,4091,29,46,897,1796,1893,2099,2295,2050,1827,1884,2000
275360,19976,-12572,20962,-11806,897,679,155,-205,-53,29,30,4076,50,46,897,1796,1893,2099,2295,2050,1827,1884,2000
276361,20016,-12520,21027,-11741,1178,744,177,-199,-56,73,-26,4183,44,39,897,1796,1893,2099,2295,2050,1827,1884,2000
277362,20080,-12456,21092,-11676,880,597,198,-193,-60,-56,-14,4090,34,37,895,1796,1893,2099,2295,2050,1827,1884,2000
278363,20116,-12400,21157,-11611,1265,708,215,-201,-64,-117,11,3947,40,36,897,1796,1893,2099,2295,2050,1827,1884,2000
279364,20188,-12328,21222,-11546,807,499,228,-211,-74,-263,-99,4060,34,48,895,1791,1888,2104,2293,2072,1842,1890,2015
280365,20260,-12260,21287,-11481,799,545,251,-222,-93,-296,19,3924,35,47,897,1791,1888,2104,2293,2072,1842,1890,2015
281366,20328,-12216,21352,-11416,846,872,269,-235,-104,-299,-75,3904,38,34,899,1791,1888,2104,2293,2072,1842,1890,2015
282367,20400,-12136,21417,-11351,788,404,270,-258,-99,-329,-48,3825,29,46,897,1791,1888,2104,2293,2072,1842,1890,2015
283368,20448,-12080,21482,-11286,1109,715,263,-255,-93,-243,105,3913,33,34,899,1791,1888,2104,2293,2072,1842,1890,2015
284369,20500,-12016,21547,-11221,1075,617,246,-260,-83,-323,49,3788,33,38,897,1799,1898,2119,2310,2075,1844,1894,2016
285370,20564,-11956,21612,-11156,927,673,233,-256,-72,-336,75,3913,49,38,895,1799,1898,2119,2310,2075,1844,1894,2016
286371,20620,-11904,21677,-11091,1038,789,218,-254,-54,-225,164,3782,49,48,896,1799,1898,2119,2310,2075,1844,1894,2016
287372,20676,-11836,21742,-11026,1049,586,200,-245,-32,-212,139,3783,31,38,895,1799,1898,2119,2310,2075,1844,1894,2016
288373,20752,-11776,21807,-10961,786,692,185,-231,-15,-197,193,3938,34,38,895,1799,1898,2119,2310,2075,1844,1894,2016
289374,20792,-11700,21872,-10896,1267,479,171,-215,4,-197,164,3979,28,48,897,1799,1898,2119,2310,2075,1844,1894,2016
290375,20856,-11644,21937,-10831,969,740,172,-197,23,-120,173,4008,38,51,897,1800,1896,2108,2296,2081,1848,1897,2019
291376,20896,-11568,22002,-10766,1300,478,172,-187,31,-18,181,4120,44,45,894,1800,1896,2108,2296,2081,1848,1897,2019
292377,20952,-11504,22067,-10701,1112,629,184,-174,37,-22,168,4112,42,46,895,1800,1896,2108,2296,2081,1848,1897,2019
293378,21016,-11444,22132,-10636,1013,685,188,-175,40,-2,170,4070,51,36,894,1800,1896,2108,2296,2081,1848,1897,2019
294379,21064,-11408,22197,-10571,1234,1021,201,-164,42,34,217,4265,33,52,896,1800,1896,2108,2296,2081,1848,1897,2019
295380,21140,-11324,22262,-10506,871,398,224,-125,32,-61,149,4257,36,48,893,1772,1865,2083,2271,2095,1860,1900,2024
296381,21192,-11256,22327,-10441,1187,594,242,-107,31,-175,135,4142,45,52,895,1772,1865,2083,2271,2095,1860,1900,2024
297382,21252,-11188,22392,-10376,1094,592,251,-123,43,-78,150,4099,38,38,897,1772,1865,2083,2271,2095,1860,1900,2024
298383,21308,-11124,22457,-10311,1155,643,252,-141,50,-72,197,4052,47,39,895,1772,1865,2083,2271,2095,1860,1900,2024
299384,21352,-11064,22522,-10246,1332,699,248,-154,55,-252,195,3967,47,44,895,1772,1865,2083,2271,2095,1860,1900,2024
300385,21408,-11000,22587,-10181,1193,651,236,-171,66,-259,173,4015,52,46,893,1772,1865,2083,2271,2095,1860,1900,2024
301386,21484,-10936,22652,-10116,929,652,223,-166,86,-182,171,4004,51,49,893,1773,1870,2099,2292,2092,1857,1901,2024
302387,21532,-10872,22717,-10051,1301,654,209,-168,104,-215,119,3851,46,51,897,1773,1870,2099,2292,2092,1857,1901,2024
303388,21584,-10812,22782,-9986,1267,710,193,-151,123,-99,43,3914,54,46,895,1773,1870,2099,2292,2092,1857,1901,2024
304389,21660,-10736,22847,-9921,954,497,177,-155,134,-50,95,3741,56,41,893,1773,1870,2099,2292,2092,1857,1901,2024
305390,21732,-10680,22912,-9856,996,758,159,-152,158,-186,194,3800,48,45,895,1773,1870,2099,2292,2092,1857,1901,2024
306391,21800,-10616,22977,-9791,1043,660,151,-152,168,65,101,3563,51,33,896,1797,1899,2122,2308,2087,1853,1899,2029
307392,21868,-10556,23042,-9726,1040,717,151,-121,176,-87,127,3948,35,41,895,1797,1899,2122,2308,2087,1853,1899,2029
308393,21940,-10508,23107,-9661,982,887,145,-92,181,-9,142,3843,34,42,894,1797,1899,2122,2308,2087,1853,1899,2029
309394,22008,-10448,23172,-9596,1028,744,139,-27,180,-16,169,4076,52,39,894,1797,1899,2122,2308,2087,1853,1899,2029
310395,22064,-10384,23237,-9531,1189,696,141,9,181,16,116,4007,34,46,895,1797,1899,2122,2308,2087,1853,1899,2029
311396,22124,-10316,23302,-9466,1146,642,162,16,182,-446,223,4050,40,35,894,1797,1899,2122,2308,2087,1853,1899,2029
312397,22196,-10260,23367,-9401,988,803,172,22,169,-265,395,4074,52,35,894,1788,1885,2103,2281,2075,1839,1887,2012
313398,22256,-10212,23432,-9336,1145,925,170,13,174,120,312,4046,47,41,895,1788,1885,2103,2281,2075,1839,1887,2012
314399,22324,-10148,23497,-9271,1041,726,163,-10,182,-230,338,4026,33,37,894,1788,1885,2103,2281,2075,1839,1887,2012
315400,22372,-10096,23562,-9206,1313,892,163,-35,163,-843,459,4023,48,42,893,1788,1885,2103,2281,2075,1839,1887,2012
316401,22424,-10012,23627,-9141,1279,470,186,-44,135,-595,326,4124,38,49,892,1788,1885,2103,2281,2075,1839,1887,2012
317402,22484,-9964,23692,-9076,1186,940,202,-88,137,-376,341,3873,52,41,892,1771,1868,2086,2275,2069,1838,1885,2006
318403,22552,-9912,23757,-9011,1082,906,203,-118,143,-83,519,3877,55,33,893,1771,1868,2086,2275,2069,1838,1885,2006
319404,22596,-9844,23822,-8946,1408,704,196,-126,157,-20,445,3912,39,40,893,1771,1868,2086,2275,2069,1838,1885,2006
320405,22672,-9788,23887,-8881,996,865,181,-120,174,-117,382,3749,42,51,892,1771,1868,2086,2275,2069,1838,1885,2006
321406,22740,-9732,23952,-8816,1092,876,176,-101,175,-344,523,3928,54,43,893,1771,1868,2086,2275,2069,1838,1885,2006
322407,22788,-9660,24017,-8751,1364,668,181,-82,194,-332,280,3693,38,36,894,1771,1868,2086,2275,2069,1838,1885,2006
323408,22852,-9604,24082,-8686,1165,879,206,-64,196,279,410,4138,50,46,892,1783,1882,2102,2291,2068,1839,1886,2012
324409,22920,-9560,24147,-8621,1112,1055,234,-49,201,113,462,3824,42,34,893,1783,1882,2102,2291,2068,1839,1886,2012
325410,22996,-9504,24212,-8556,999,917,237,-60,201,-260,350,3723,53,42,891,1783,1882,2102,2291,2068,1839,1886,2012
326411,23072,-9464,24277,-8491,986,1147,228,-88,186,-153,437,3505,51,38,892,1783,1882,2102,2291,2068,1839,1886,2012
327412,23132,-9388,24342,-8426,1193,684,219,-139,187,-91,240,3391,53,34,894,1783,1882,2102,2291,2068,1839,1886,2012
328413,23200,-9340,24407,-8361,1090,1056,204,-188,183,-212,272,3714,39,49,890,1797,1895,2118,2300,2064,1830,1878,2005
329414,23272,-9264,24472,-8296,1031,692,210,-221,161,-385,483,3602,46,47,894,1797,1895,2118,2300,2064,1830,1878,2005
330415,23328,-9212,24537,-8231,1243,1009,216,-260,127,-280,432,3837,37,45,891,1797,1895,2118,2300,2064,1830,1878,2005
331416,23396,-9160,24602,-8166,1090,1025,227,-284,99,79,441,3886,35,46,895,1797,1895,2118,2300,2064,1830,1878,2005
332417,23460,-9108,24667,-8101,1141,1041,234,-287,92,87,452,3919,43,36,890,1797,1895,2118,2300,2064,1830,1878,2005
333418,23504,-9028,24732,-8036,1418,673,241,-263,81,283,496,4024,48,33,892,1797,1895,2118,2300,2064,1830,1878,2005
334419,23564,-8960,24797,-7971,1224,820,251,-220,71,-19,505,4051,51,38,891,1788,1889,2101,2276,2056,1820,1877,2003
335420,23612,-8924,24862,-7906,1395,1255,259,-168,60,-180,663,4284,37,32,891,1788,1889,2101,2276,2056,1820,1877,2003
336421,23692,-8876,24927,-7841,977,1127,277,-135,56,-182,487,4121,40,42,892,1788,1889,2101,2276,2056,1820,1877,2003
337422,23744,-8812,24992,-7776,1344,928,304,-142,65,-279,413,4138,52,32,886,1788,1889,2101,2276,2056,1820,1877,2003
338423,23808,-8764,25057,-7711,1195,1150,326,-162,72,-416,626,3946,40,39,892,1788,1889,2101,2276,2056,1820,1877,2003
339424,23868,-8692,25122,-7646,1252,841,324,-185,94,-512,507,3896,48,42,889,1782,1887,2102,2290,2065,1833,1885,2007
340425,23928,-8644,25187,-7581,1258,1162,334,-217,114,-470,592,3853,42,48,889,1782,1887,2102,2290,2065,1833,1885,2007
341426,23992,-8580,25252,-7516,1211,964,337,-250,126,-728,672,3963,54,49,892,1782,1887,2102,2290,2065,1833,1885,2007
342427,24052,-8524,25317,-7451,1267,1075,357,-269,117,-314,627,4055,58,35,887,1782,1887,2102,2290,2065,1833,1885,2007
343428,24112,-8456,25382,-7386,1274,923,371,-271,106,210,469,4016,52,33,890,1782,1887,2102,2290,2065,1833,1885,2007
344429,24172,-8412,25447,-7321,1280,1248,388,-287,96,72,636,4077,50,42,889,1782,1887,2102,2290,2065,1833,1885,2007
345430,24232,-8360,25512,-7256,1287,1164,395,-276,79,158,561,4136,52,40,891,1802,1898,2124,2321,2080,1853,1895,2015
346431,24324,-8280,25577,-7191,854,797,396,-280,67,411,597,3970,53,50,887,1802,1898,2124,2321,2080,1853,1895,2015
347432,24400,-8232,25642,-7126,1042,1218,400,-280,59,-50,554,4011,52,36,888,1802,1898,2124,2321,2080,1853,1895,2015
348433,24484,-8180,25707,-7061,918,1184,402,-268,56,-230,300,4225,44,39,896,1802,1898,2124,2321,2080,1853,1895,2015
349434,24520,-8124,25772,-6996,1555,1145,396,-220,37,295,531,4195,44,35,890,1802,1898,2124,2321,2080,1853,1895,2015
350435,24592,-8052,25837,-6931,1096,938,401,-142,45,180,50,4337,33,42,892,1817,1906,2136,2329,2077,1851,1891,2014
351436,24656,-7984,25902,-6866,1197,984,414,-105,75,-170,211,4575,50,41,884,1817,1906,2136,2329,2077,1851,1891,2014
352437,24724,-7940,25967,-6801,1145,1310,421,-108,74,-258,415,4148,48,34,892,1817,1906,2136,2329,2077,1851,1891,2014
353438,24776,-7880,26032,-6736,1361,1117,393,-107,83,167,145,4054,49,35,891,1817,1906,2136,2329,2077,1851,1891,2014
354439,24824,-7820,26097,-6671,1432,1123,391,-118,112,-102,315,3992,34,43,887,1817,1906,2136,2329,2077,1851,1891,2014
355440,24876,-7764,26162,-6606,1398,1185,372,-164,127,-807,468,4197,47,38,887,1817,1906,2136,2329,2077,1851,1891,2014
356441,24952,-7704,26227,-6541,1086,1141,361,-145,138,-320,217,4684,46,48,887,1809,1900,2126,2316,2088,1856,1899,2025
357442,25016,-7648,26292,-6476,1237,1203,359,-113,141,147,490,4174,55,36,886,1809,1900,2126,2316,2088,1856,1899,2025
358443,25076,-7576,26357,-6411,1294,995,364,-129,141,-861,399,4305,49,43,890,1809,1900,2126,2316,2088,1856,1899,2025
359444,25136,-7508,26422,-6346,1300,1041,365,-129,146,-418,287,4422,43,48,887,1809,1900,2126,2316,2088,1856,1899,2025
360445,25188,-7460,26487,-6281,1417,1313,354,-118,170,354,461,4188,44,39,888,1809,1900,2126,2316,2088,1856,1899,2025
361446,25248,-7408,26552,-6216,1323,1279,339,-60,181,147,410,4078,50,37,889,1788,1888,2106,2288,2120,1874,1921,2056
362447,25296,-7348,26617,-6151,1495,1186,318,6,168,-175,344,4574,47,36,885,1788,1888,2106,2288,2120,1874,1921,2056
363448,25348,-7276,26682,-6086,1461,1027,338,58,166,79,364,4454,52,49,885,1788,1888,2106,2288,2120,1874,1921,2056
364449,25408,-7224,26747,-6021,1368,1294,346,65,181,984,451,4192,44,50,885,1788,1888,2106,2288,2120,1874,1921,2056
365450,25460,-7168,26812,-5956,1484,1255,369,39,174,581,516,4429,44,53,887,1788,1888,2106,2288,2120,1874,1921,2056
366451,25556,-7088,26877,-5891,897,938,382,42,153,-448,497,4379,47,51,886,1788,1888,2106,2288,2120,1874,1921,2056
367452,25644,-7040,26942,-5826,969,1358,399,82,130,-170,280,4248,50,44,884,1769,1868,2093,2273,2131,1883,1924,2056
368453,25704,-6968,27007,-5761,1326,1051,418,79,118,297,362,4012,39,34,894,1769,1868,2093,2273,2131,1883,1924,2056
369454,25776,-6900,27072,-5696,1168,1097,438,82,113,109,376,4015,29,52,889,1769,1868,2093,2273,2131,1883,1924,2056
370455,25836,-6840,27137,-5631,1325,1203,454,94,119,86,398,4226,49,42,889,1769,1868,2093,2273,2131,1883,1924,2056
371456,25892,-6772,27202,-5566,1386,1101,459,65,127,-133,497,4045,34,40,889,1769,1868,2093,2273,2131,1883,1924,2056
372457,25952,-6712,27267,-5501,1343,1207,465,81,125,-477,296,4460,50,43,887,1782,1883,2113,2305,2087,1851,1891,2007
373458,26016,-6656,27332,-5436,1294,1269,461,107,128,-136,533,4226,50,49,888,1782,1883,2113,2305,2087,1851,1891,2007
374459,26084,-6584,27397,-5371,1241,1060,450,104,151,-86,378,4112,49,46,887,1782,1883,2113,2305,2087,1851,1891,2007
375460,26152,-6524,27462,-5306,1238,1217,412,55,167,22,553,3668,49,40,887,1782,1883,2113,2305,2087,1851,1891,2007
376461,26228,-6452,27527,-5241,1125,1059,388,-40,174,176,586,3671,56,51,888,1782,1883,2113,2305,2087,1851,1891,2007
377462,26280,-6396,27592,-5176,1441,1271,362,-105,184,87,488,3665,40,39,887,1782,1883,2113,2305,2087,1851,1891,2007
378463,26360,-6344,27657,-5111,1074,1337,356,-151,184,-83,449,3634,50,43,891,1816,1913,2139,2338,2048,1823,1872,1993
379464,26420,-6284,27722,-5046,1330,1244,354,-160,177,258,473,3728,44,48,885,1816,1913,2139,2338,2048,1823,1872,1993
380465,26492,-6208,27787,-4981,1172,1030,356,-137,165,609,379,3797,59,37,888,1816,1913,2139,2338,2048,1823,1872,1993
381466,26552,-6176,27852,-4916,1328,1622,360,-99,154,539,432,3744,42,46,886,1816,1913,2139,2338,2048,1823,1872,1993
382467,26620,-6116,27917,-4851,1226,1278,371,-71,140,472,538,3885,59,44,890,1816,1913,2139,2338,2048,1823,1872,1993
383468,26680,-6060,27982,-4786,1332,1339,385,-35,130,638,264,3934,54,42,882,1811,1905,2118,2292,2056,1818,1872,2005
384469,26732,-6024,28047,-4721,1449,1625,397,-11,109,1234,495,3974,58,30,887,1811,1905,2118,2292,2056,1818,1872,2005
385470,26812,-5972,28112,-4656,1080,1441,416,59,77,916,771,4163,55,30,885,1811,1905,2118,2292,2056,1818,1872,2005
386471,26884,-5908,28177,-4591,1173,1293,436,92,34,293,751,3777,43,42,881,1811,1905,2118,2292,2056,1818,1872,2005
387472,26976,-5864,28242,-4526,890,1569,456,99,-21,209,769,4068,39,41,886,1811,1905,2118,2292,2056,1818,1872,2005
388473,27060,-5824,28307,-4461,968,1650,469,60,-51,342,694,3623,37,30,886,1811,1905,2118,2292,2056,1818,1872,2005
389474,27136,-5760,28372,-4396,1054,1352,479,39,-73,-4,768,3888,47,32,886,1760,1859,2068,2245,2066,1825,1873,1996
390475,27196,-5732,28437,-4331,1261,1848,486,7,-79,-590,810,3806,41,34,885,1760,1859,2068,2245,2066,1825,1873,1996
391476,27268,-5692,28502,-4266,1103,1729,489,0,-72,-842,618,4017,52,39,887,1760,1859,2068,2245,2066,1825,1873,1996
392477,27324,-5632,28567,-4201,1315,1485,484,-13,-52,-604,497,3964,35,42,879,1760,1859,2068,2245,2066,1825,1873,1996
393478,27388,-5576,28632,-4136,1216,1547,478,-17,-44,-449,634,3712,51,30,881,1760,1859,2068,2245,2066,1825,1873,1996
394479,27460,-5524,28697,-4071,1109,1613,466,-49,-49,-72,741,3694,49,36,882,1742,1847,2071,2263,2080,1851,1888,2010
395480,27528,-5472,28762,-4006,1155,1630,459,-120,-50,514,700,3405,40,33,883,1742,1847,2071,2263,2080,1851,1888,2010
396481,27596,-5412,28827,-3941,1151,1536,451,-183,-48,472,710,3403,42,50,884,1742,1847,2071,2263,2080,1851,1888,2010
397482,27672,-5352,28892,-3876,1039,1543,456,-198,-50,68,733,3330,37,50,883,1742,1847,2071,2263,2080,1851,1888,2010
398483,27720,-5292,28957,-3811,1410,1549,460,-199,-65,435,610,3665,57,41,885,1742,1847,2071,2263,2080,1851,1888,2010
399484,27788,-5224,29022,-3746,1157,1447,461,-169,-65,677,470,3734,54,39,885,1742,1847,2071,2263,2080,1851,1888,2010
400485,27844,-5180,29087,-3681,1318,1773,458,-118,-72,645,547,3685,43,44,881,1766,1868,2102,2284,2092,1860,1893,2027
401486,27904,-5100,29152,-3616,1275,1305,451,-97,-76,440,530,3634,59,50,886,1766,1868,2102,2284,2092,1860,1893,2027
402487,27980,-5024,29217,-3551,1062,1343,451,-82,-90,762,410,3848,58,58,880,1766,1868,2102,2284,2092,1860,1893,2027
403488,28040,-4944,29282,-3486,1269,1274,442,-93,-116,1104,613,3806,47,47,887,1766,1868,2102,2284,2092,1860,1893,2027
404489,28100,-4888,29347,-3421,1275,1586,443,-49,-157,772,748,3975,49,41,888,1766,1868,2102,2284,2092,1860,1893,2027
405490,28176,-4820,29412,-3356,1062,1433,443,-27,-204,396,882,4156,42,50,886,1778,1871,2099,2270,2074,1833,1875,2007
406491,28276,-4756,29477,-3291,720,1485,438,-38,-255,202,815,3991,42,38,882,1778,1871,2099,2270,2074,1833,1875,2007
407492,28364,-4696,29542,-3226,842,1541,421,-63,-293,-193,681,4133,36,48,887,1778,1871,2099,2270,2074,1833,1875,2007
408493,28444,-4644,29607,-3161,924,1658,393,-42,-324,-78,1024,4211,42,38,890,1778,1871,2099,2270,2074,1833,1875,2007
409496,28476,-4568,29672,-3096,1564,1345,362,-27,-357,-161,960,4082,37,43,888,1778,1871,2099,2270,2074,1833,1875,2007
410495,28560,-4496,29737,-3031,892,1387,333,-11,-357,-793,640,4276,31,46,884,1778,1871,2099,2270,2074,1833,1875,2007
411496,28624,-4436,29802,-2966,1143,1544,302,-13,-345,-832,787,4141,46,40,881,1765,1869,2091,2269,2076,1839,1886,2018
412497,28696,-4372,29867,-2901,1036,1495,286,-33,-354,-652,809,3990,53,48,889,1765,1869,2091,2269,2076,1839,1886,2018
413498,28764,-4312,29932,-2836,1082,1552,256,-88,-357,-9,791,4067,52,43,885,1765,1869,2091,2269,2076,1839,1886,2018
414499,28832,-4248,29997,-2771,1080,1503,244,-147,-360,32,842,3807,37,40,886,1765,1869,2091,2269,2076,1839,1886,2018
415500,28892,-4200,30062,-2706,1186,1725,236,-195,-358,-684,913,3713,38,36,885,1765,1869,2091,2269,2076,1839,1886,2018
416501,28964,-4128,30127,-2641,1028,1417,248,-227,-358,-410,771,3926,38,37,886,1763,1871,2102,2280,2134,1892,1929,2074
417502,29028,-4076,30192,-2576,1129,1684,260,-213,-357,356,826,3864,55,37,882,1763,1871,2102,2280,2134,1892,1929,2074
418503,29088,-4016,30257,-2511,1186,1591,279,-188,-357,200,641,3826,44,41,887,1763,1871,2102,2280,2134,1892,1929,2074
419504,29160,-3940,30322,-2446,1028,1377,274,-158,-350,216,762,4101,38,37,883,1763,1871,2102,2280,2134,1892,1929,2074
420505,29224,-3892,30387,-2381,1129,1749,289,-128,-359,344,731,3861,52,33,884,1763,1871,2102,2280,2134,1892,1929,2074
421506,29272,-3844,30452,-2316,1351,1770,292,-99,-376,444,716,4060,43,46,888,1763,1871,2102,2280,2134,1892,1929,2074
422507,29344,-3792,30517,-2251,1042,1737,303,-62,-408,822,871,4236,46,47,882,1770,1870,2107,2279,2139,1893,1917,2055
423508,29448,-3724,30582,-2186,596,1533,303,-19,-443,1203,935,4064,58,47,880,1770,1870,2107,2279,2139,1893,1917,2055
424509,29544,-3664,30647,-2121,658,1640,287,2,-474,567,938,4072,43,46,883,1770,1870,2107,2279,2139,1893,1917,2055
425510,29600,-3612,30712,-2056,1170,1757,252,-6,-493,-152,823,3963,31,31,890,1770,1870,2107,2279,2139,1893,1917,2055
426511,29672,-3556,30777,-1991,961,1718,230,12,-522,-221,960,4339,38,34,888,1770,1870,2107,2279,2139,1893,1917,2055
427512,29736,-3484,30842,-1926,1063,1510,206,26,-555,-342,955,4204,48,34,880,1774,1865,2098,2280,2079,1843,1875,1996
428513,29800,-3432,30907,-1861,1065,1776,182,-12,-569,-578,860,4414,48,39,882,1774,1865,2098,2280,2079,1843,1875,1996
429514,29856,-3372,30972,-1796,1176,1683,154,-66,-572,-615,885,4340,36,46,886,1774,1865,2098,2280,2079,1843,1875,1996
430515,29924,-3312,31037,-1731,1023,1690,136,-123,-585,-904,983,4147,49,45,883,1774,1865,2098,2280,2079,1843,1875,1996
431516,29988,-3256,31102,-1666,1074,1751,121,-211,-589,-742,1041,4191,51,43,883,1774,1865,2098,2280,2079,1843,1875,1996
432517,30056,-3188,31167,-1601,1022,1599,99,-272,-580,-28,920,4221,41,36,884,1774,1865,2098,2280,2079,1843,1875,1996
433518,30144,-3128,31232,-1536,744,1705,97,-281,-559,-248,842,4025,45,47,883,1771,1865,2100,2287,2074,1843,1883,2020
434519,30200,-3068,31297,-1471,1155,1712,105,-276,-526,-767,707,4068,36,32,885,1771,1865,2100,2287,2074,1843,1883,2020
435520,30260,-3012,31362,-1406,1112,1774,118,-271,-500,-228,659,4122,39,39,886,1771,1865,2100,2287,2074,1843,1883,2020
436521,30324,-2952,31427,-1341,1063,1730,129,-253,-477,24,738,3976,39,51,882,1771,1865,2100,2287,2074,1843,1883,2020
437522,30404,-2872,31492,-1276,846,1463,141,-220,-446,-194,836,3991,45,43,882,1771,1865,2100,2287,2074,1843,1883,2020
438523,30468,-2816,31557,-1211,1047,1774,152,-176,-422,99,979,3962,38,35,882,1791,1898,2128,2298,2112,1865,1911,2056
439524,30544,-2756,31622,-1146,883,1731,174,-163,-414,193,999,3821,52,39,889,1791,1898,2128,2298,2112,1865,1911,2056
440525,30596,-2684,31687,-1081,1200,1573,182,-149,-416,341,1032,3887,58,49,883,1791,1898,2128,2298,2112,1865,1911,2056
441526,30668,-2620,31752,-1016,942,1675,185,-132,-423,379,1165,3793,48,36,884,1791,1898,2128,2298,2112,1865,1911,2056
442527,30740,-2568,31817,-951,934,1841,188,-143,-425,431,1196,3783,48,36,883,1791,1898,2128,2298,2112,1865,1911,2056
443528,30784,-2496,31882,-886,1310,1584,189,-171,-436,541,1216,3940,42,39,885,1791,1898,2128,2298,2112,1865,1911,2056
444529,30860,-2420,31947,-821,896,1520,192,-180,-459,-109,1308,4020,59,49,881,1806,1900,2124,2299,2095,1847,1890,2020
445530,30948,-2356,32012,-756,719,1673,198,-236,-480,-557,1408,3998,56,50,880,1806,1900,2124,2299,2095,1847,1890,2020
446531,31016,-2304,32077,-691,966,1838,211,-263,-488,-442,1393,4417,53,33,887,1806,1900,2124,2299,2095,1847,1890,2020
447532,31112,-2236,32142,-626,579,1636,217,-252,-490,-410,1250,4209,44,48,887,1806,1900,2124,2299,2095,1847,1890,2020
448533,31196,-2180,32207,-561,706,1798,205,-280,-436,-652,1137,4202,61,36,882,1806,1900,2124,2299,2095,1847,1890,2020
449534,31276,-2112,32406,-362,1588,2495,208,-344,-420,-626,991,3924,50,38,888,1784,1871,2099,2283,2059,1825,1860,1983
450535,31356,-2068,32471,-297,1571,2821,215,-431,-391,-69,940,4137,56,32,885,1784,1871,2099,2283,2059,1825,1860,1983
451536,31448,-1980,32536,-232,1388,2244,240,-517,-363,-489,1008,3712,59,20,866,1784,1871,2099,2283,2059,1825,1860,1983
452537,31524,-1888,32601,-167,1575,2161,263,-592,-331,-1046,1018,4091,68,46,863,1784,1871,2099,2283,2059,1825,1860,1983
453538,31632,-1812,32666,-102,1123,2349,288,-622,-304,-204,1121,4059,62,60,874,1784,1871,2099,2283,2059,1825,1860,1983
454539,31744,-1696,32731,-37,1016,1787,298,-633,-259,81,1090,3781,66,50,873,1784,1871,2099,2283,2059,1825,1860,1983
455540,31832,-1588,32796,28,1288,1835,310,-610,-203,-307,1068,4098,66,55,874,1787,1876,2113,2295,2063,1831,1869,2005
456541,31940,-1496,32861,93,986,2003,300,-625,-176,-194,1065,3577,63,59,883,1787,1876,2113,2295,2063,1831,1869,2005
457542,32052,-1408,32926,158,879,2025,318,-630,-165,-143,1278,4326,70,47,880,1787,1876,2113,2295,2063,1831,1869,2005
458543,32172,-1316,32991,223,712,1943,330,-616,-158,487,1307,4173,84,56,881,1787,1876,2113,2295,2063,1831,1869,2005
459544,32292,-1244,33056,288,645,2185,324,-539,-150,491,1348,4180,64,55,882,1787,1876,2113,2295,2063,1831,1869,2005
460545,32408,-1176,33121,353,634,2232,330,-467,-132,-454,1466,3895,64,53,884,1814,1910,2140,2312,2078,1840,1886,2029
461546,32512,-1060,33186,418,736,1571,293,-467,-125,-685,1487,3858,73,54,880,1814,1910,2140,2312,2078,1840,1886,2029
462547,32628,-980,33251,483,524,2002,276,-517,-138,140,1638,3833,59,58,877,1814,1910,2140,2312,2078,1840,1886,2029
463548,32736,-900,33316,548,572,1985,281,-581,-127,228,1431,3761,55,42,889,1814,1910,2140,2312,2078,1840,1886,2029
464549,32824,-824,33381,613,794,2022,306,-688,-135,-1002,1455,3912,60,57,885,1814,1910,2140,2312,2078,1840,1886,2029
465550,32912,-724,33446,678,766,1680,327,-796,-146,-1218,1708,4052,48,60,885,1814,1910,2140,2312,2078,1840,1886,2029
466551,33000,-628,33511,743,738,1692,354,-852,-139,-157,1606,3950,53,62,882,1814,1902,2127,2302,2100,1856,1893,2031
467552,33084,-560,33576,808,765,2039,372,-870,-122,-207,1474,3974,69,52,886,1814,1902,2127,2302,2100,1856,1893,2031
468553,33176,-460,33641,873,632,1597,388,-911,-84,-944,1356,3952,56,55,887,1814,1902,2127,2302,2100,1856,1893,2031
469554,33260,-388,33706,938,709,1939,394,-956,-39,-784,1399,4257,54,43,882,1814,1902,2127,2302,2100,1856,1893,2031
470555,33360,-300,33771,1003,467,1711,418,-996,-15,-146,1650,4000,63,49,889,1814,1902,2127,2302,2100,1856,1893,2031
471556,33476,-212,33836,1068,205,1684,431,-1032,43,43,1197,3968,62,41,883,1785,1879,2113,2280,2097,1852,1883,2025
472557,33564,-140,33901,1133,527,1875,413,-1045,92,118,1330,3905,43,51,889,1785,1879,2113,2280,2097,1852,1883,2025
473558,33636,-40,33966,1198,718,1484,385,-1038,118,-995,1478,3764,40,37,891,1785,1879,2113,2280,2097,1852,1883,2025
474559,33704,36,34031,1263,765,1770,362,-1005,136,-1024,1284,3964,42,40,886,1785,1879,2113,2280,2097,1852,1883,2025
475560,33792,100,34096,1328,487,1923,335,-1011,161,88,1306,3983,54,42,889,1785,1879,2113,2280,2097,1852,1883,2025
476561,33868,184,34161,1393,623,1649,309,-1049,166,511,1443,3845,53,36,885,1785,1879,2113,2280,2097,1852,1883,2025
477562,33924,252,34226,1458,885,1847,281,-1114,179,22,1438,3876,54,48,886,1784,1876,2109,2272,2080,1840,1871,2016
478563,34000,352,34291,1523,622,1404,240,-1209,170,-647,1387,3495,53,54,887,1784,1876,2109,2272,2080,1840,1871,2016
479564,34076,432,34356,1588,608,1637,166,-1261,149,-979,1219,4045,58,49,883,1784,1876,2109,2272,2080,1840,1871,2016
480565,34148,512,34421,1653,650,1618,110,-1197,143,-69,1234,4142,49,42,892,1784,1876,2109,2272,2080,1840,1871,2016
481566,34196,580,34486,1718,971,1766,66,-1156,158,261,1170,3695,57,42,889,1784,1876,2109,2272,2080,1840,1871,2016
482567,34284,672,34551,1783,442,1433,32,-1186,172,-327,1260,3922,38,52,889,1773,1861,2097,2251,2111,1865,1899,2056
483568,34364,760,34616,1848,524,1455,6,-1244,198,-626,1310,3616,56,46,884,1773,1861,2097,2251,2111,1865,1899,2056
484569,34416,856,34681,1913,890,1318,-27,-1273,212,-633,1230,3563,54,57,893,1773,1861,2097,2251,2111,1865,1899,2056
485570,34512,924,34746,1978,302,1664,-56,-1235,221,-267,1142,3650,47,61,892,1773,1861,2097,2251,2111,1865,1899,2056
486571,34568,1020,34811,2043,813,1277,-89,-1192,264,-271,1090,3668,59,45,891,1773,1861,2097,2251,2111,1865,1899,2056
487572,34628,1096,34876,2108,770,1514,-109,-1181,318,-486,1114,3512,42,42,891,1727,1824,2061,2206,2177,1920,1933,2091
488573,34700,1180,34941,2173,612,1391,-114,-1191,359,-629,1255,3468,50,42,892,1727,1824,2061,2206,2177,1920,1933,2091
489574,34788,1252,35006,2238,384,1533,-134,-1218,384,-574,1113,3238,45,56,889,1727,1824,2061,2206,2177,1920,1933,2091
490575,34868,1344,35071,2303,465,1250,-150,-1234,415,-482,1172,3451,57,52,892,1727,1824,2061,2206,2177,1920,1933,2091
491576,34948,1424,35136,2368,447,1382,-182,-1221,461,-594,1312,3520,39,52,892,1727,1824,2061,2206,2177,1920,1933,2091
492577,35020,1496,35201,2433,538,1474,-222,-1192,492,-413,1197,3359,37,41,895,1727,1824,2061,2206,2177,1920,1933,2091
493578,35100,1584,35266,2498,420,1246,-257,-1183,523,-320,1289,3587,45,51,893,1689,1789,2031,2181,2167,1906,1912,2051
494579,35188,1652,35331,2563,292,1494,-299,-1199,549,-515,1236,3506,55,55,891,1689,1789,2031,2181,2167,1906,1912,2051
495580,35244,1728,35396,2628,703,1380,-341,-1182,544,-410,1217,3652,39,37,893,1689,1789,2031,2181,2167,1906,1912,2051
496581,35316,1824,35461,2693,495,1092,-392,-1142,542,-22,1218,3559,50,57,891,1689,1789,2031,2181,2167,1906,1912,2051
497582,35392,1912,35526,2758,431,1165,-437,-1097,546,138,1176,3556,35,56,891,1689,1789,2031,2181,2167,1906,1912,2051
498583,35460,1984,35591,2823,527,1357,-489,-1057,565,-66,1053,3509,51,53,896,1693,1783,2030,2191,2100,1852,1864,1996
499584,35548,2048,35656,2888,249,1458,-529,-1024,585,-80,986,3468,47,46,896,1693,1783,2030,2191,2100,1852,1864,1996
500585,35600,2144,35721,2953,715,1021,-582,-976,614,-34,914,3322,54,41,893,1693,1783,2030,2191,2100,1852,1864,1996
501586,35664,2224,35786,3018,566,1203,-641,-902,645,-76,875,3326,51,57,894,1693,1783,2030,2191,2100,1852,1864,1996
502587,35736,2284,35851,3083,458,1459,-696,-811,677,82,907,3061,49,41,895,1693,1783,2030,2191,2100,1852,1864,1996
503588,35808,2344,35916,3148,449,1465,-756,-749,717,-14,831,3022,37,53,895,1693,1783,2030,2191,2100,1852,1864,1996
504589,35880,2424,35981,3213,442,1198,-804,-689,761,-105,865,3154,34,49,893,1723,1811,2059,2223,2072,1841,1856,1985
505590,35948,2524,36046,3278,488,905,-840,-654,794,-150,879,2976,35,48,893,1723,1811,2059,2223,2072,1841,1856,1985
506591,36004,2608,36111,3343,649,1082,-869,-608,844,-303,807,3058,36,56,895,1723,1811,2059,2223,2072,1841,1856,1985
507592,36072,2720,36176,3408,495,675,-866,-552,913,14,1047,2835,40,44,898,1723,1811,2059,2223,2072,1841,1856,1985
508593,36152,2804,36241,3473,327,1002,-888,-531,959,-72,969,2721,47,56,895,1723,1811,2059,2223,2072,1841,1856,1985
509594,36228,2880,36306,3538,364,1089,-909,-523,1007,-439,717,2820,45,52,900,1721,1807,2056,2227,2091,1857,1867,1988
510595,36296,2968,36371,3603,460,911,-938,-483,1056,-364,923,2881,43,53,898,1721,1807,2056,2227,2091,1857,1867,1988
511596,36372,3040,36436,3668,347,1103,-976,-419,1108,-240,939,2803,46,39,898,1721,1807,2056,2227,2091,1857,1867,1988
512597,36444,3112,36501,3733,388,1095,-1005,-348,1154,-55,984,3076,48,49,897,1721,1807,2056,2227,2091,1857,1867,1988
513598,36500,3188,36566,3798,599,1031,-1016,-300,1191,41,1078,2836,35,52,896,1721,1807,2056,2227,2091,1857,1867,1988
514599,36572,3264,36631,3863,391,1018,-1015,-291,1208,16,1074,3042,49,42,897,1721,1807,2056,2227,2091,1857,1867,1988
515600,36648,3336,36696,3928,327,1060,-1002,-267,1222,150,999,3126,35,41,895,1702,1785,2021,2192,2084,1844,1859,1977
516601,36708,3412,36761,3993,533,997,-998,-232,1240,369,896,3132,51,44,898,1702,1785,2021,2192,2084,1844,1859,1977
517602,36776,3500,36826,4058,430,819,-987,-182,1263,476,871,3164,44,55,898,1702,1785,2021,2192,2084,1844,1859,1977
518603,36860,3580,36891,4123,206,900,-981,-141,1291,369,868,3137,31,59,897,1702,1785,2021,2192,2084,1844,1859,1977
519604,36916,3656,36956,4188,567,937,-978,-107,1314,374,780,3173,30,43,900,1702,1785,2021,2192,2084,1844,1859,1977
520605,36992,3740,37021,4253,304,815,-969,-91,1341,494,794,3181,30,57,901,1689,1779,2010,2180,2048,1807,1834,1954
521606,37036,3820,37086,4318,730,846,-972,-92,1364,491,838,3154,48,58,897,1689,1779,2010,2180,2048,1807,1834,1954
522607,37096,3888,37151,4383,536,993,-968,-70,1383,436,802,3229,42,53,901,1689,1779,2010,2180,2048,1807,1834,1954
523608,37164,4000,37216,4448,432,385,-962,-46,1428,608,947,3175,47,46,897,1689,1779,2010,2180,2048,1807,1834,1954
524609,37224,4084,37281,4513,538,712,-964,-44,1475,561,705,2949,33,61,898,1689,1779,2010,2180,2048,1807,1834,1954
525610,37320,4160,37346,4578,50,799,-964,-70,1512,289,548,3072,47,57,904,1689,1779,2010,2180,2048,1807,1834,1954
526611,37376,4248,37411,4643,561,622,-976,-110,1567,149,482,3014,46,51,900,1735,1833,2059,2239,2014,1787,1832,1949
527612,37432,4328,37476,4708,572,703,-983,-141,1627,183,524,3044,29,45,903,1735,1833,2059,2239,2014,1787,1832,1949
528613,37488,4420,37541,4773,583,520,-986,-164,1664,348,462,3038,35,55,900,1735,1833,2059,2239,2014,1787,1832,1949
529614,37556,4500,37606,4838,430,652,-972,-202,1688,364,538,3251,35,59,898,1735,1833,2059,2239,2014,1787,1832,1949
530615,37632,4588,37671,4903,316,524,-953,-241,1716,338,546,3182,39,57,900,1735,1833,2059,2239,2014,1787,1832,1949
531616,37708,4648,37736,4968,303,880,-936,-285,1740,406,445,3181,38,54,901,1795,1901,2116,2298,2017,1792,1848,1970
532617,37784,4736,37801,5033,289,502,-917,-324,1754,483,522,3262,41,41,903,1795,1901,2116,2298,2017,1792,1848,1970
533618,37840,4808,37866,5098,550,695,-906,-337,1762,605,527,3255,36,54,900,1795,1901,2116,2298,2017,1792,1848,1970
534619,37900,4900,37931,5163,506,412,-892,-352,1768,713,504,3367,47,56,904,1795,1901,2116,2298,2017,1792,1848,1970
535620,37992,4972,37996,5228,73,653,-867,-375,1765,698,584,3311,49,50,900,1795,1901,2116,2298,2017,1792,1848,1970
536621,38064,5056,38061,5293,315,480,-840,-409,1757,653,564,3450,51,46,903,1795,1901,2116,2298,2017,1792,1848,1970
537622,38108,5144,38126,5358,690,402,-800,-425,1732,714,617,3575,32,55,903,1821,1923,2126,2304,2040,1808,1868,1986
538623,38160,5232,38191,5423,606,374,-761,-429,1728,838,597,3564,50,56,904,1821,1923,2126,2304,2040,1808,1868,1986
539624,38260,5312,38256,5488,-36,455,-714,-442,1701,947,609,3728,44,45,901,1821,1923,2126,2304,2040,1808,1868,1986
540625,38328,5404,38321,5553,360,272,-683,-465,1689,689,379,3560,38,43,902,1821,1923,2126,2304,2040,1808,1868,1986
541626,38396,5476,38386,5618,356,514,-650,-483,1686,570,423,3868,41,56,906,1821,1923,2126,2304,2040,1808,1868,1986
542627,38476,5564,38451,5683,188,286,-616,-496,1693,584,516,3752,48,56,905,1800,1902,2098,2279,2037,1810,1867,1975
543628,38536,5640,38516,5748,444,422,-588,-518,1693,512,399,3829,44,56,903,1800,1902,2098,2279,2037,1810,1867,1975
544629,38612,5732,38581,5813,231,189,-559,-532,1701,504,400,3986,33,44,906,1800,1902,2098,2279,2037,1810,1867,1975
545630,38684,5804,38646,5878,272,431,-534,-530,1704,495,333,3773,42,57,903,1800,1902,2098,2279,2037,1810,1867,1975
546631,38744,5900,38711,5943,428,93,-518,-516,1709,510,274,3843,40,49,904,1800,1902,2098,2279,2037,1810,1867,1975
547632,38816,5972,38776,6008,270,384,-510,-505,1715,502,272,3718,36,56,903,1800,1902,2098,2279,2037,1810,1867,1975
548633,38904,6060,38841,6073,42,156,-495,-495,1716,539,214,3747,36,48,905,1778,1884,2086,2277,2031,1815,1862,1967
549634,38980,6148,38906,6138,178,128,-496,-473,1720,447,114,3680,42,44,905,1778,1884,2086,2277,2031,1815,1862,1967
550635,39048,6224,38971,6203,275,265,-498,-420,1720,555,80,3696,33,42,907,1778,1884,2086,2277,2031,1815,1862,1967
551636,39132,6372,39036,6268,51,-736,-513,-392,1702,549,21,3474,46,55,907,1778,1884,2086,2277,2031,1815,1862,1967
552637,39192,6488,39101,6333,357,-399,-500,-357,1704,385,177,3654,41,41,906,1778,1884,2086,2277,2031,1815,1862,1967
553638,39280,6604,39166,6398,-21,-461,-490,-315,1693,490,-34,3497,47,45,902,1784,1888,2102,2292,2053,1839,1876,1986
554639,39356,6700,39231,6463,116,-249,-481,-285,1671,492,25,3506,52,42,903,1784,1888,2102,2292,2053,1839,1876,1986
555640,39464,6760,39296,6528,-337,207,-478,-247,1635,367,-40,3848,34,41,905,1784,1888,2102,2292,2053,1839,1876,1986
556641,39564,6832,39361,6593,-279,49,-470,-181,1585,827,-100,3613,40,41,906,1784,1888,2102,2292,2053,1839,1876,1986
557642,39696,6896,39426,6658,-761,150,-472,-125,1559,923,-60,3697,32,34,907,1784,1888,2102,2292,2053,1839,1876,1986
558643,39796,6968,39491,6723,-405,41,-461,-38,1509,785,-9,3688,30,33,908,1784,1888,2102,2292,2053,1839,1876,1986
559644,39912,7020,39556,6788,-667,307,-472,26,1453,788,2,3326,43,36,907,1764,1861,2084,2269,2078,1855,1885,1993
560645,40004,7084,39621,6853,-400,159,-481,86,1399,640,38,3773,33,36,897,1764,1861,2084,2269,2078,1855,1885,1993
561646,40060,7156,39686,6918,61,50,-487,117,1341,453,329,3218,49,33,906,1764,1861,2084,2269,2078,1855,1885,1993
562647,40156,7244,39751,6983,-477,-179,-488,163,1291,229,332,3566,37,49,907,1764,1861,2084,2269,2078,1855,1885,1993
563648,40212,7304,39816,7048,34,177,-484,205,1264,431,248,3405,39,43,907,1764,1861,2084,2269,2078,1855,1885,1993
564649,40268,7384,39881,7113,45,-91,-484,207,1228,586,200,3455,45,46,901,1734,1832,2048,2233,2075,1852,1882,1985
565650,40348,7460,39946,7178,-274,-55,-466,199,1219,142,103,3467,48,48,907,1734,1832,2048,2233,2075,1852,1882,1985
566651,40412,7536,40011,7243,-73,-68,-454,229,1228,107,5,3577,48,51,908,1734,1832,2048,2233,2075,1852,1882,1985
567652,40492,7604,40076,7308,-291,28,-463,272,1238,320,-274,3324,35,49,908,1734,1832,2048,2233,2075,1852,1882,1985
568653,40564,7680,40141,7373,-200,-85,-468,298,1247,342,-398,3813,49,44,907,1734,1832,2048,2233,2075,1852,1882,1985
569654,40620,7756,40206,7438,11,-99,-467,349,1247,294,-275,3670,45,49,908,1734,1832,2048,2233,2075,1852,1882,1985
570655,40688,7824,40271,7503,-143,-2,-481,404,1256,448,-342,3742,35,53,894,1712,1820,2016,2217,2048,1827,1867,1976
571656,40764,7908,40336,7568,-257,-227,-495,473,1251,678,-338,3673,32,45,907,1712,1820,2016,2217,2048,1827,1867,1976
572657,40836,7980,40401,7633,-216,-85,-529,495,1232,686,-245,3445,32,44,899,1712,1820,2016,2217,2048,1827,1867,1976
573658,40904,8076,40466,7698,-169,-423,-548,508,1188,490,-273,3650,33,46,907,1712,1820,2016,2217,2048,1827,1867,1976
574659,40976,8140,40531,7763,-228,-22,-568,518,1144,368,-257,3476,45,52,908,1712,1820,2016,2217,2048,1827,1867,1976
575660,41036,8228,40596,7828,-72,-350,-568,534,1092,535,-207,3621,42,45,895,1737,1847,2055,2239,2053,1833,1875,1987
576661,41124,8304,40661,7893,-450,-213,-590,528,1045,470,-273,3134,55,45,892,1737,1847,2055,2239,2053,1833,1875,1987
577662,41188,8364,40726,7958,-149,-7,-599,487,992,233,-396,3205,49,39,904,1737,1847,2055,2239,2053,1833,1875,1987
578663,41256,8444,40791,8023,-203,-276,-617,406,940,188,-341,3072,33,48,907,1737,1847,2055,2239,2053,1833,1875,1987
579664,41320,8536,40856,8088,-152,-459,-611,329,896,-10,-490,3170,35,41,899,1737,1847,2055,2239,2053,1833,1875,1987
580665,41380,8604,40921,8153,-96,-163,-612,310,865,333,-481,3239,34,47,891,1737,1847,2055,2239,2053,1833,1875,1987
581666,41484,8672,40986,8218,-693,-167,-592,285,823,316,-519,3267,32,38,894,1772,1878,2088,2272,2080,1849,1888,2008
582667,41540,8736,41051,8283,-82,-115,-578,273,796,319,-637,3497,37,42,903,1772,1878,2088,2272,2080,1849,1888,2008
583668,41600,8816,41116,8348,-127,-334,-557,258,774,244,-494,3434,37,43,907,1772,1878,2088,2272,2080,1849,1888,2008
584672,41680,8892,41181,8413,-396,-298,-542,245,764,55,-336,3531,36,41,905,1772,1878,2088,2272,2080,1849,1888,2008
585670,41772,8968,41246,8478,-579,-312,-517,252,767,271,-501,3760,33,40,899,1772,1878,2088,2272,2080,1849,1888,2008
586671,41844,9032,41311,8543,-337,-160,-499,245,765,268,-602,3754,51,41,906,1772,1883,2076,2255,2063,1830,1890,1999
587672,41936,9100,41376,8608,-620,-214,-483,210,764,264,-535,3703,40,36,906,1772,1883,2076,2255,2063,1830,1890,1999
588673,42028,9188,41441,8673,-654,-492,-478,175,763,-58,-374,3680,40,40,907,1772,1883,2076,2255,2063,1830,1890,1999
589674,42132,9248,41506,8738,-852,-137,-472,138,767,-47,-519,3620,39,36,907,1772,1883,2076,2255,2063,1830,1890,1999
590675,42204,9332,41571,8803,-460,-460,-466,72,769,86,-531,3518,37,51,905,1772,1883,2076,2255,2063,1830,1890,1999
591676,42272,9404,41636,8868,-414,-319,-469,-30,755,-204,-542,3415,44,43,907,1772,1883,2076,2255,2063,1830,1890,1999
592677,42360,9460,41701,8933,-693,-108,-472,-114,726,-309,-548,3395,37,38,905,1779,1888,2072,2256,2021,1805,1869,1967
593678,42436,9548,41766,8998,-556,-536,-485,-184,698,-59,-642,3528,48,49,902,1779,1888,2072,2256,2021,1805,1869,1967
594679,42528,9608,41831,9063,-789,-181,-489,-269,676,191,-672,3387,54,50,907,1779,1888,2072,2256,2021,1805,1869,1967
595680,42620,9692,41896,9128,-822,-504,-491,-344,644,107,-755,3628,46,40,904,1779,1888,2072,2256,2021,1805,1869,1967
596681,42720,9744,41961,9193,-966,-88,-479,-388,601,15,-811,3812,61,38,907,1779,1888,2072,2256,2021,1805,1869,1967
597682,42808,9816,42026,9258,-844,-347,-461,-401,562,307,-912,3809,42,44,895,1789,1898,2092,2293,2025,1809,1875,1988
598683,42892,9884,42091,9323,-817,-300,-434,-413,526,401,-979,3921,56,48,906,1789,1898,2092,2293,2025,1809,1875,1988
599684,42984,9952,42156,9388,-951,-305,-413,-415,505,384,-1072,3860,49,34,906,1789,1898,2092,2293,2025,1809,1875,1988
600685,43096,10020,42221,9453,-1259,-309,-387,-401,492,350,-1086,3938,65,40,906,1789,1898,2092,2293,2025,1809,1875,1988
601686,43192,10072,42286,9518,-1096,-93,-377,-337,497,133,-1130,4015,63,34,901,1789,1898,2092,2293,2025,1809,1875,1988
602687,43288,10144,42351,9583,-1135,-351,-370,-199,506,389,-1076,4112,65,33,906,1789,1898,2092,2293,2025,1809,1875,1988
603688,43408,10196,42416,9648,-1502,-86,-399,-143,495,547,-899,3654,48,37,908,1816,1917,2117,2318,2062,1846,1905,2009
604689,43528,10264,42481,9713,-1570,-290,-437,-132,463,-20,-944,3947,65,48,906,1816,1917,2117,2318,2062,1846,1905,2009
605690,43628,10316,42546,9778,-1363,-74,-504,-194,430,-354,-745,3506,60,38,905,1816,1917,2117,2318,2062,1846,1905,2009
606691,43732,10380,42611,9843,-1461,-223,-547,-287,417,-535,-886,3473,68,46,906,1816,1917,2117,2318,2062,1846,1905,2009
607692,43852,10448,42676,9908,-1729,-277,-567,-377,407,-1063,-849,3878,69,37,908,1816,1917,2117,2318,2062,1846,1905,2009
608693,43968,10520,42741,9973,-1741,-336,-561,-411,391,-919,-887,3840,69,47,907,1826,1914,2128,2352,2105,1899,1936,2011
609694,44064,10568,42806,10038,-1529,-15,-514,-463,394,-820,-912,3976,62,39,906,1826,1914,2128,2352,2105,1899,1936,2011
610695,44196,10636,42871,10103,-2062,-269,-469,-569,385,-506,-881,3826,75,43,906,1826,1914,2128,2352,2105,1899,1936,2011
611696,44300,10700,42936,10168,-1760,-218,-423,-703,362,-289,-1035,3991,74,50,908,1826,1914,2128,2352,2105,1899,1936,2011
612697,44408,10764,43001,10233,-1863,-217,-402,-765,323,13,-1151,3994,60,35,907,1826,1914,2128,2352,2105,1899,1936,2011
613698,44544,10840,43066,10298,-2301,-381,-404,-710,288,225,-966,4009,64,34,906,1826,1914,2128,2352,2105,1899,1936,2011
614699,44660,10912,43131,10363,-2113,-340,-406,-589,273,704,-1081,4516,79,34,906,1790,1877,2101,2317,2115,1901,1937,2035
615700,44784,10968,43196,10428,-2286,-129,-414,-458,252,1052,-1210,4508,63,32,904,1790,1877,2101,2317,2115,1901,1937,2035
616701,44924,11024,43261,10493,-2578,-118,-418,-372,224,920,-1160,4476,76,28,906,1790,1877,2101,2317,2115,1901,1937,2035
617702,45048,11072,43326,10558,-2451,2,-441,-301,195,603,-1108,4730,59,43,907,1790,1877,2101,2317,2115,1901,1937,2035
618703,45168,11132,43391,10623,-2469,-142,-507,-255,208,253,-1487,4454,67,43,908,1790,1877,2101,2317,2115,1901,1937,2035
619704,45296,11204,43456,10688,-2646,-300,-573,-241,221,113,-1150,4514,85,36,908,1798,1889,2102,2314,2075,1862,1912,2011
620705,45412,11260,43521,10753,-2559,-89,-635,-240,231,-452,-1037,4463,69,35,907,1798,1889,2102,2314,2075,1862,1912,2011
621706,45556,11304,43586,10818,-3006,86,-676,-305,236,-279,-1033,4371,78,39,906,1798,1889,2102,2314,2075,1862,1912,2011
622707,45696,11360,43651,10883,-3048,-53,-686,-424,213,-191,-1028,4181,71,47,908,1798,1889,2102,2314,2075,1862,1912,2011
623708,45812,11428,43716,10948,-2811,-207,-674,-556,175,-444,-1103,4344,77,35,908,1798,1889,2102,2314,2075,1862,1912,2011
624709,45976,11492,43781,11013,-3533,-156,-669,-630,154,-544,-1382,4364,69,38,909,1798,1889,2102,2314,2075,1862,1912,2011
625710,46100,11560,43846,11078,-3106,-210,-650,-630,124,-205,-1246,4716,69,45,907,1816,1910,2125,2334,2120,1901,1949,2064
626711,46268,11616,43911,11143,-3783,-49,-637,-626,95,68,-1449,4497,87,33,896,1816,1910,2125,2334,2120,1901,1949,2064
627712,46372,11652,43976,11208,-3031,237,-628,-624,64,49,-1358,4562,88,39,907,1816,1910,2125,2334,2120,1901,1949,2064
628713,46508,11716,44041,11273,-3519,-113,-610,-688,36,461,-1003,3969,83,46,908,1816,1910,2125,2334,2120,1901,1949,2064
629714,46652,11788,44106,11338,-3716,-222,-587,-756,10,200,-1085,4161,82,41,907,1816,1910,2125,2334,2120,1901,1949,2064
630715,46776,11848,44171,11403,-3538,-66,-586,-736,16,56,-1143,4185,84,37,900,1828,1947,2164,2376,2160,1928,1980,2093
631716,46900,11932,44236,11468,-3611,-389,-583,-632,29,628,-1137,4600,81,46,906,1828,1947,2164,2376,2160,1928,1980,2093
632717,47048,11996,44301,11533,-3800,-138,-600,-492,71,825,-1003,4810,68,36,907,1828,1947,2164,2376,2160,1928,1980,2093
633718,47180,12036,44366,11598,-3800,193,-624,-376,113,532,-1238,4972,73,46,906,1828,1947,2164,2376,2160,1928,1980,2093
634720,47336,12116,44431,11663,-3800,-326,-641,-300,152,776,-1024,4913,82,38,903,1828,1947,2164,2376,2160,1928,1980,2093
635720,47460,12176,44496,11728,-3800,-70,-610,-295,172,661,-1012,4913,76,38,907,1828,1947,2164,2376,2160,1928,1980,2093
636721,47572,12244,44561,11793,-3800,-174,-555,-309,190,598,-1095,4955,74,50,908,1868,1967,2173,2397,2121,1897,1949,2034
637722,47728,12296,44626,11858,-3800,42,-469,-327,171,740,-931,5224,67,36,905,1868,1967,2173,2397,2121,1897,1949,2034
638723,47880,12352,44691,11923,-3800,3,-421,-327,165,122,-1377,4894,67,36,908,1868,1967,2173,2397,2121,1897,1949,2034
639724,47976,12424,44756,11988,-3800,-206,-406,-274,150,863,-1222,5519,66,37,908,1868,1967,2173,2397,2121,1897,1949,2034
640725,48124,12492,44821,12053,-3800,-160,-434,-286,147,404,-1266,4603,72,49,907,1868,1967,2173,2397,2121,1897,1949,2034
641726,48244,12544,44886,12118,-3800,55,-469,-258,138,306,-1279,5218,67,34,906,1866,1946,2167,2436,2072,1870,1908,2176
642727,48380,12600,44951,12183,-3800,16,-486,-248,114,532,-1154,4773,80,36,908,1866,1946,2167,2436,2072,1870,1908,2176
643728,48488,12656,45016,12248,-3800,27,-498,-264,113,110,-1436,4610,77,33,908,1866,1946,2167,2436,2072,1870,1908,2176
644729,48596,12720,45081,12313,-3800,-71,-508,-208,104,613,-1492,5116,75,50,908,1866,1946,2167,2436,2072,1870,1908,2176
645730,48728,12772,45146,12378,-3800,95,-504,-142,100,1248,-1424,4430,73,36,907,1866,1946,2167,2436,2072,1870,1908,2176
646731,48856,12832,45211,12443,-3800,0,-480,-125,92,541,-1391,4595,67,40,908,1866,1946,2167,2436,2072,1870,1908,2176
647732,48924,12896,45276,12508,-3800,-49,-472,-57,68,1030,-1313,4929,55,36,907,1902,1966,2203,2479,2069,1890,1930,2004
648733,49088,12944,45341,12573,-3800,172,-463,-25,99,1076,-1547,4188,68,45,906,1902,1966,2203,2479,2069,1890,1930,2004
649734,49172,13000,45406,12638,-3800,83,-442,53,115,662,-1631,4548,59,38,907,1902,1966,2203,2479,2069,1890,1930,2004
650735,49272,13068,45471,12703,-3800,-71,-421,154,118,1152,-1707,5087,71,44,908,1902,1966,2203,2479,2069,1890,1930,2004
651736,49408,13136,45536,12768,-3800,-75,-398,221,163,1413,-1705,4002,57,50,908,1902,1966,2203,2479,2069,1890,1930,2004
652737,49504,13192,45601,12833,-3800,85,-361,282,174,1202,-1452,4891,64,39,908,1888,1958,2194,2440,2127,1914,1957,2044
653738,49628,13264,45666,12898,-3800,-123,-328,357,186,1224,-1696,4752,47,34,907,1888,1958,2194,2440,2127,1914,1957,2044
654739,49732,13312,45731,12963,-3800,197,-289,372,206,1226,-1605,4345,60,42,908,1888,1958,2194,2440,2127,1914,1957,2044
655740,49820,13380,45796,13028,-3800,-56,-237,431,190,1392,-1292,5036,62,31,907,1888,1958,2194,2440,2127,1914,1957,2044
656741,49892,13428,45861,13093,-3800,215,-194,432,194,1418,-1434,4478,54,42,908,1888,1958,2194,2440,2127,1914,1957,2044
657742,49988,13484,45926,13158,-3800,126,-152,412,191,945,-1324,4289,44,40,907,1888,1958,2194,2440,2127,1914,1957,2044
658743,50108,13552,45991,13223,-3800,-28,-123,379,170,953,-1217,4456,55,35,895,1831,1926,2131,2364,2112,1885,1933,2019
659744,50180,13624,46056,13288,-3800,-87,-96,341,147,1048,-1208,4029,48,39,908,1831,1926,2131,2364,2112,1885,1933,2019
660745,50236,13676,46121,13353,-3800,178,-82,299,134,996,-1283,4025,38,48,908,1831,1926,2131,2364,2112,1885,1933,2019
661746,50336,13712,46186,13418,-3800,414,-58,293,93,1549,-920,4254,54,44,907,1831,1926,2131,2364,2112,1885,1933,2019
662747,50408,13768,46251,13483,-3800,175,-42,313,59,1524,-1016,4120,53,34,896,1831,1926,2131,2364,2112,1885,1933,2019
663748,50468,13812,46316,13548,-3800,350,-35,347,57,1203,-1355,4123,35,41,907,1820,1921,2115,2352,2048,1822,1889,1970
664749,50536,13816,46381,13613,-3800,925,-32,359,34,1447,-1289,4057,32,47,905,1820,1921,2115,2352,2048,1822,1889,1970
665750,50604,13856,46446,13678,-3800,505,-24,345,1,1521,-1229,4026,48,39,900,1820,1921,2115,2352,2048,1822,1889,1970
666751,50668,13936,46511,13743,-3800,-13,-18,350,-17,1446,-1322,3844,45,41,900,1820,1921,2115,2352,2048,1822,1889,1970
667752,50736,13988,46576,13808,-3800,353,-1,350,-21,1360,-1358,3606,29,40,908,1820,1921,2115,2352,2048,1822,1889,1970
668753,50796,14072,46641,13873,-3800,-70,39,364,-15,1275,-1411,3969,42,39,906,1820,1921,2115,2352,2048,1822,1889,1970
669754,50848,14152,46706,13938,-3800,-39,83,328,-8,1133,-1514,3515,39,51,907,1842,1940,2134,2365,2012,1794,1867,1956
670755,50900,14224,46771,14003,-3800,53,127,295,-1,931,-1610,3781,35,47,905,1842,1940,2134,2365,2012,1794,1867,1956
671756,50952,14304,46836,14068,-3800,-67,183,258,0,902,-1378,3620,29,36,908,1842,1940,2134,2365,2012,1794,1867,1956
672757,50996,14364,46901,14133,-3800,190,223,219,-3,936,-1449,3346,34,52,908,1842,1940,2134,2365,2012,1794,1867,1956
673758,51060,14452,46966,14198,-3800,-189,253,166,2,828,-1378,3457,19,49,907,1842,1940,2134,2365,2012,1794,1867,1956
674759,51100,14508,47031,14263,-3800,222,279,127,5,834,-1059,3299,19,46,905,1850,1941,2141,2381,2010,1805,1866,1952
675760,51148,14584,47096,14328,-3800,-41,306,75,10,827,-976,3368,34,45,907,1850,1941,2141,2381,2010,1805,1866,1952
676761,51172,14656,47161,14393,-3800,0,334,58,8,820,-955,3280,33,45,908,1850,1941,2141,2381,2010,1805,1866,1952
677762,51224,14708,47226,14458,-3800,266,349,70,9,933,-784,3425,26,32,908,1850,1941,2141,2381,2010,1805,1866,1952
678763,51252,14760,47291,14523,-3800,282,365,75,8,873,-653,3355,20,43,906,1850,1941,2141,2381,2010,1805,1866,1952
679764,51284,14828,47356,14588,-3800,79,383,66,11,775,-601,3450,24,31,907,1850,1941,2141,2381,2010,1805,1866,1952
680765,51312,14888,47421,14653,-3800,185,409,79,4,747,-543,3508,14,34,907,1847,1930,2125,2359,2011,1803,1868,1949
681766,51356,14960,47486,14718,-3800,25,439,85,5,840,-471,3524,20,31,907,1847,1930,2125,2359,2011,1803,1868,1949
682767,51376,15008,47551,14783,-3800,346,474,97,11,747,-466,3592,20,31,906,1847,1930,2125,2359,2011,1803,1868,1949
683768,51396,15060,47616,14848,-3749,312,506,86,16,457,-507,3551,25,33,906,1847,1930,2125,2359,2011,1803,1868,1949
684769,51424,15132,47681,14913,-3800,53,546,84,9,466,-443,3820,7,39,906,1847,1930,2125,2359,2011,1803,1868,1949
685770,51440,15184,47746,14978,-3597,319,590,83,8,487,-547,3599,15,31,908,1812,1871,2089,2313,2021,1807,1859,1954
686771,51460,15240,47811,15043,-3593,280,646,107,18,497,-585,3853,22,33,906,1812,1871,2089,2313,2021,1807,1859,1954
687772,51464,15292,47876,15108,-3320,346,698,134,29,401,-622,3745,21,36,907,1812,1871,2089,2313,2021,1807,1859,1954
688773,51468,15348,47941,15173,-3247,307,742,153,42,270,-706,3626,20,39,906,1812,1871,2089,2313,2021,1807,1859,1954
689774,51484,15416,48006,15238,-3339,153,783,171,45,242,-673,3786,5,29,906,1812,1871,2089,2313,2021,1807,1859,1954
690775,51492,15480,48071,15303,-3171,204,824,194,57,310,-576,3451,-2,27,907,1812,1871,2089,2313,2021,1807,1859,1954
691776,51492,15536,48136,15368,-2992,315,858,248,77,324,-569,3626,14,39,907,1791,1874,2094,2312,2028,1816,1852,1953
692777,51500,15612,48201,15433,-3025,52,875,276,84,240,-505,3351,-1,40,906,1791,1874,2094,2312,2028,1816,1852,1953
693778,51504,15680,48266,15498,-2901,148,879,300,98,197,-476,3417,3,27,908,1791,1874,2094,2312,2028,1816,1852,1953
694779,51500,15728,48331,15563,-2718,418,874,301,112,134,-424,3349,4,31,907,1791,1874,2094,2312,2028,1816,1852,1953
695780,51496,15776,48396,15628,-2635,439,882,331,115,281,-350,3401,-4,32,895,1791,1874,2094,2312,2028,1816,1852,1953
696781,51504,15856,48461,15693,-2716,21,877,347,117,202,-274,3394,-6,33,906,1832,1910,2140,2369,2022,1820,1859,1947
697782,51496,15920,48526,15758,-2429,222,870,355,135,189,-284,3358,12,36,908,1832,1910,2140,2369,2022,1820,1859,1947
698783,51504,15952,48591,15823,-2560,662,868,359,147,211,-209,3569,10,39,906,1832,1910,2140,2369,2022,1820,1859,1947
699784,51504,16020,48790,16022,-2218,372,871,354,143,280,-132,3642,-3,31,893,1832,1910,2140,2369,2022,1820,1859,1947
700785,51504,16068,48855,16087,-2140,643,885,366,147,423,-140,3603,6,32,906,1832,1910,2140,2369,2022,1820,1859,1947
701786,51500,16148,48920,16152,-2007,224,918,397,153,437,-92,3860,-6,41,904,1837,1910,2140,2369,2022,1820,1859,1947
702787,51504,16188,48985,16217,-2033,755,966,432,145,483,-84,4055,-6,43,907,1837,1910,2136,2367,2038,1837,1875,1970
703788,51508,16264,49050,16282,-1960,291,1003,462,119,624,-19,3987,11,31,899,1837,1910,2136,2367,2038,1837,1875,1970
704789,51504,16336,49115,16347,-1777,333,1021,455,103,611,-9,3774,-4,32,906,1837,1910,2136,2367,2038,1837,1875,1970
705790,51500,16404,49180,16412,-1694,379,1029,443,108,402,105,3562,-6,47,906,1837,1910,2136,2367,2038,1837,1875,1970
706791,51516,16464,49245,16477,-1885,485,1050,419,106,234,56,3874,-3,35,906,1837,1910,2136,2367,2038,1837,1875,1970
707792,51508,16560,49310,16542,-1496,-2,1078,394,85,385,139,3916,13,35,903,1817,1896,2102,2335,2062,1849,1890,1996
708793,51520,16612,49375,16607,-1682,563,1083,389,76,541,76,3689,1,42,908,1817,1896,2102,2335,2062,1849,1890,1996
709794,51512,16688,49440,16672,-1344,250,1084,405,84,423,85,3652,-1,45,904,1817,1896,2102,2335,2062,1849,1890,1996
710795,51512,16776,49505,16737,-1365,72,1106,406,82,215,-53,4104,3,35,907,1817,1896,2102,2335,2062,1849,1890,1996
711796,51532,16856,49570,16802,-1562,154,1134,412,67,425,16,4022,-5,49,905,1817,1896,2102,2335,2062,1849,1890,1996
712797,51528,16928,49635,16867,-1177,245,1124,392,62,347,-1,3497,-5,45,907,1806,1902,2119,2323,2076,1852,1898,2004
713798,51520,17004,49700,16932,-1039,182,1085,371,63,92,83,3319,-2,33,907,1806,1902,2119,2323,2076,1852,1898,2004
714799,51524,17100,49765,16997,-1116,-106,1042,341,61,-129,174,3581,13,33,907,1806,1902,2119,2323,2076,1852,1898,2004
715800,51532,17156,49830,17062,-1097,405,1011,282,47,41,195,3586,-3,45,905,1806,1902,2119,2323,2076,1852,1898,2004
716801,51532,17220,49895,17127,-918,306,983,214,26,215,153,3650,-6,30,904,1806,1902,2119,2323,2076,1852,1898,2004
717802,51524,17304,49960,17192,-730,33,954,171,20,275,32,3944,15,32,906,1806,1902,2119,2323,2076,1852,1898,2004
718803,51536,17376,50025,17257,-915,174,936,168,18,587,96,4178,-5,33,908,1805,1905,2125,2312,2087,1865,1905,2036
719804,51536,17448,50090,17322,-687,166,917,177,4,598,51,4459,-6,36,906,1805,1905,2125,2312,2087,1865,1905,2036
720805,51536,17508,50155,17387,-608,322,905,196,-16,301,96,4494,-5,29,907,1805,1905,2125,2312,2087,1865,1905,2036
721806,51520,17560,50220,17452,-309,438,903,212,-36,527,124,4568,-4,34,906,1805,1905,2125,2312,2087,1865,1905,2036
722807,51536,17640,50285,17517,-651,69,896,210,-52,535,154,4617,2,26,905,1805,1905,2125,2312,2087,1865,1905,2036
723808,51544,17692,50350,17582,-481,435,883,176,-69,194,249,4516,-6,41,907,1780,1880,2112,2290,2140,1912,2128,2080
724809,51548,17760,50415,17647,-358,232,859,129,-91,38,367,4380,10,35,905,1780,1880,2112,2290,2140,1912,2128,2080
725810,51536,17824,50480,17712,-64,283,831,65,-118,12,398,4282,9,30,906,1780,1880,2112,2290,2140,1912,2128,2080
726811,51544,17904,50545,17777,-244,63,798,5,-142,77,577,4282,0,42,906,1780,1880,2112,2290,2140,1912,2128,2080
727812,51536,17960,50610,17842,44,374,765,-48,-163,-140,565,4193,10,28,907,1780,1880,2112,2290,2140,1912,2128,2080
728813,51536,18028,50675,17907,23,221,732,-82,-182,7,605,4207,14,40,906,1780,1880,2112,2290,2140,1912,2128,2080
729814,51536,18080,50740,17972,103,437,700,-106,-203,74,625,4206,9,40,906,1799,1897,2147,2341,2203,1959,1987,2124
730815,51548,18168,50805,18037,17,-41,662,-123,-218,88,646,4175,8,35,904,1799,1897,2147,2341,2203,1959,1987,2124
731816,51552,18236,50870,18102,191,205,630,-109,-221,140,698,4301,10,28,908,1799,1897,2147,2341,2203,1959,1987,2124
732817,51552,18300,50935,18167,320,256,594,-98,-226,114,682,4284,5,31,906,1799,1897,2147,2341,2203,1959,1987,2124
733818,51560,18352,51000,18232,289,422,545,-77,-240,-32,747,4416,0,34,904,1799,1897,2147,2341,2203,1959,1987,2124
734819,51572,18412,51065,18297,304,328,505,-60,-245,-158,702,4443,11,41,903,1818,1917,2169,2356,2205,1967,1976,2111
735820,51572,18500,51130,18362,533,-50,473,-30,-250,-87,573,4391,8,33,904,1818,1917,2169,2356,2205,1967,1976,2111
736821,51588,18560,51195,18427,393,306,447,-23,-259,-158,453,4374,20,28,904,1818,1917,2169,2356,2205,1967,1976,2111
737822,51596,18636,51260,18492,562,93,433,-1,-276,-82,300,4353,21,43,904,1818,1917,2169,2356,2205,1967,1976,2111
738823,51592,18684,51325,18557,797,463,430,12,-287,34,256,4284,20,27,904,1818,1917,2169,2356,2205,1967,1976,2111
739824,51612,18752,51390,18622,552,210,416,2,-302,-1,361,4207,31,42,900,1818,1917,2169,2356,2205,1967,1976,2111
740825,51652,18812,51455,18687,331,316,393,-6,-319,-430,597,4410,21,33,903,1799,1895,2148,2328,2152,1917,1922,2046
741826,51688,18880,51520,18752,416,212,360,-1,-344,-344,735,4542,25,39,905,1799,1895,2148,2328,2152,1917,1922,2046
742827,51724,18952,51585,18817,452,154,331,-6,-375,-224,928,4451,34,34,904,1799,1895,2148,2328,2152,1917,1922,2046
743828,51768,18996,51650,18882,377,529,295,-3,-407,-258,915,4437,36,39,905,1799,1895,2148,2328,2152,1917,1922,2046
744829,51808,19048,51715,18947,458,445,264,17,-424,-334,870,4457,25,36,903,1799,1895,2148,2328,2152,1917,1922,2046
745830,51856,19108,51780,19012,379,351,240,47,-436,-38,890,4318,40,33,903,1781,1870,2117,2309,2092,1873,1891,2009
746831,51908,19168,51845,19077,345,356,237,93,-465,294,773,4193,38,32,904,1781,1870,2117,2309,2092,1873,1891,2009
747832,51964,19228,51910,19142,306,363,220,123,-484,296,665,4009,38,33,904,1781,1870,2117,2309,2092,1873,1891,2009
748833,51980,19296,51975,19207,865,259,191,162,-486,60,767,4081,43,41,905,1781,1870,2117,2309,2092,1873,1891,2009
749834,52060,19336,52040,19272,47,639,169,210,-492,65,816,3775,25,36,900,1781,1870,2117,2309,2092,1873,1891,2009
750835,52112,19420,52105,19337,413,66,156,213,-503,-32,648,3443,47,34,903,1781,1870,2117,2309,2092,1873,1891,2009
751836,52192,19484,52170,19402,45,317,143,188,-507,-305,480,3363,26,42,905,1799,1884,2132,2339,2094,1884,1906,2018
752837,52244,19548,52235,19467,411,319,132,181,-506,-16,803,3388,30,44,906,1799,1884,2132,2339,2094,1884,1906,2018
753838,52288,19608,52300,19532,536,375,132,164,-501,-100,695,3278,36,29,904,1799,1884,2132,2339,2094,1884,1906,2018
754839,52376,19680,52365,19597,-42,216,137,156,-498,-241,611,3304,31,36,903,1799,1884,2132,2339,2094,1884,1906,2018
755840,52420,19732,52430,19662,534,482,147,124,-491,-266,698,3287,50,33,907,1799,1884,2132,2339,2094,1884,1906,2018
756841,52476,19796,52495,19727,395,333,158,100,-494,-353,773,3368,45,37,902,1807,1890,2136,2336,2090,1874,1893,2003
757842,52536,19868,52560,19792,351,225,168,125,-498,-123,792,3868,47,37,904,1807,1890,2136,2336,2090,1874,1893,2003
758843,52616,19924,52625,19857,82,436,180,157,-498,324,665,3770,42,33,905,1807,1890,2136,2336,2090,1874,1893,2003
759844,52684,19984,52690,19922,229,392,191,172,-498,159,633,3809,39,43,905,1807,1890,2136,2336,2090,1874,1893,2003
760845,52744,20032,52755,19987,335,563,213,185,-502,-152,624,3699,42,32,905,1807,1890,2136,2336,2090,1874,1893,2003
761848,52800,20096,52820,20052,396,364,215,157,-491,-148,437,3582,50,39,903,1807,1890,2136,2336,2090,1874,1893,2003
762847,52876,20152,52885,20117,132,475,202,156,-470,-160,521,3684,36,35,904,1789,1873,2106,2295,2047,1826,1858,1971
763848,52936,20216,52950,20182,339,376,176,135,-475,-184,952,3430,38,33,905,1789,1873,2106,2295,2047,1826,1858,1971
764849,53000,20276,53015,20247,290,432,150,106,-483,-286,692,3327,49,39,904,1789,1873,2106,2295,2047,1826,1858,1971
765850,53080,20320,53080,20312,72,658,114,68,-476,-351,708,3291,47,34,905,1789,1873,2106,2295,2047,1826,1858,1971
766851,53156,20384,53145,20377,108,409,95,17,-469,-121,952,3352,33,37,903,1789,1873,2106,2295,2047,1826,1858,1971
767852,53224,20440,53210,20442,204,520,68,13,-448,-227,427,3479,39,31,904,1793,1879,2107,2298,2039,1821,1861,1985
768853,53284,20532,53275,20507,311,37,39,27,-433,66,453,3365,51,40,904,1793,1879,2107,2298,2039,1821,1861,1985
769854,53356,20576,53340,20572,152,663,29,35,-417,16,457,3273,38,38,907,1793,1879,2107,2298,2039,1821,1861,1985
770855,53424,20648,53405,20637,198,304,23,36,-394,-129,295,3358,51,35,903,1793,1879,2107,2298,2039,1821,1861,1985
771856,53492,20692,53470,20702,195,680,40,43,-377,99,282,3563,35,41,906,1793,1879,2107,2298,2039,1821,1861,1985
772857,53540,20756,53535,20767,465,431,61,30,-348,-44,251,3396,30,35,903,1793,1879,2107,2298,2039,1821,1861,1985
773858,53612,20836,53600,20832,157,213,88,3,-323,-72,225,3114,30,43,903,1787,1875,2110,2290,2090,1866,1896,2025
774859,53668,20884,53665,20897,368,633,107,-21,-317,204,183,3411,47,40,906,1787,1875,2110,2290,2090,1866,1896,2025
775860,53720,20948,53730,20962,434,435,125,-81,-292,-30,309,3058,36,42,902,1787,1875,2110,2290,2090,1866,1896,2025
776861,53792,21020,53795,21027,175,326,141,-132,-269,-106,521,3417,46,32,903,1787,1875,2110,2290,2090,1866,1896,2025
777862,53868,21092,53860,21092,112,318,139,-161,-242,-65,547,3342,37,30,905,1787,1875,2110,2290,2090,1866,1896,2025
778863,53924,21148,53925,21157,373,528,127,-186,-227,212,699,3468,31,43,906,1782,1868,2103,2297,2099,1871,1899,2010
779864,53980,21216,53990,21222,384,375,101,-223,-206,48,735,3492,43,39,903,1782,1868,2103,2297,2099,1871,1899,2010
780865,54028,21272,54055,21287,504,536,78,-245,-178,-117,697,3669,26,41,904,1782,1868,2103,2297,2099,1871,1899,2010
781866,54080,21320,54120,21352,470,657,59,-240,-152,22,630,3815,35,39,902,1782,1868,2103,2297,2099,1871,1899,2010
782867,54136,21400,54185,21417,431,238,36,-246,-121,154,565,3623,47,34,901,1782,1868,2103,2297,2099,1871,1899,2010
783868,54208,21432,54250,21482,223,879,15,-239,-93,125,672,3983,28,40,906,1782,1868,2103,2297,2099,1871,1899,2010
784869,54260,21508,54315,21547,489,315,-3,-219,-67,16,544,3871,31,27,899,1790,1874,2105,2307,2078,1855,1888,2002
785870,54324,21576,54380,21612,340,411,-14,-179,-52,217,595,4029,36,32,904,1790,1874,2105,2307,2078,1855,1888,2002
786871,54388,21640,54445,21677,341,463,-7,-150,-38,273,448,4040,49,38,904,1790,1874,2105,2307,2078,1855,1888,2002
787872,54460,21688,54510,21742,233,683,5,-122,-10,69,192,4138,31,41,904,1790,1874,2105,2307,2078,1855,1888,2002
788873,54524,21752,54575,21807,334,485,22,-111,21,-36,-7,3910,31,28,902,1790,1874,2105,2307,2078,1855,1888,2002
789874,54576,21808,54640,21872,500,596,22,-115,48,-154,144,3878,34,40,903,1803,1887,2131,2334,2094,1874,1896,2016
790875,54644,21868,54705,21937,296,552,32,-95,63,-122,87,4106,27,39,902,1803,1887,2131,2334,2094,1874,1896,2016
791876,54708,21928,54770,22002,347,558,52,-53,82,111,158,4110,46,29,904,1803,1887,2131,2334,2094,1874,1896,2016
792877,54776,21996,54835,22067,294,454,79,-35,82,183,282,4229,47,27,903,1803,1887,2131,2334,2094,1874,1896,2016
793878,54836,22040,54900,22132,400,780,100,1,100,170,273,4263,34,40,904,1803,1887,2131,2334,2094,1874,1896,2016
794879,54892,22112,54965,22197,461,421,112,23,108,339,463,4225,43,27,901,1803,1887,2131,2334,2094,1874,1896,2016
795880,54944,22176,55030,22262,526,522,120,45,106,371,516,4317,41,30,904,1834,1918,2173,2388,2104,1890,1910,2014
796881,54992,22224,55095,22327,597,743,111,56,110,290,593,4208,36,43,902,1834,1918,2173,2388,2104,1890,1910,2014
797882,55056,22288,55160,22392,398,544,103,72,119,208,651,4182,27,41,900,1834,1918,2173,2388,2104,1890,1910,2014
798883,55104,22352,55225,22457,619,546,87,86,113,388,772,4281,26,41,903,1834,1918,2173,2388,2104,1890,1910,2014
799884,55176,22424,55290,22522,311,437,66,91,108,464,765,4264,44,40,901,1834,1918,2173,2388,2104,1890,1910,2014
800885,55228,22488,55355,22587,577,538,56,102,123,436,798,4239,26,30,904,1871,1947,2195,2429,2090,1890,1918,2011
801886,55284,22572,55420,22652,538,265,52,93,138,473,833,4296,26,31,901,1871,1947,2195,2429,2090,1890,1918,2011
802887,55344,22624,55485,22717,495,681,48,111,129,516,812,4350,32,39,904,1871,1947,2195,2429,2090,1890,1918,2011
803888,55380,22696,55550,22782,830,422,45,134,131,694,731,4491,46,31,901,1871,1947,2195,2429,2090,1890,1918,2011
804889,55452,22744,55615,22847,371,743,58,160,130,857,766,4442,42,33,900,1871,1947,2195,2429,2090,1890,1918,2011
805890,55508,22796,55680,22912,582,710,73,164,123,703,578,4572,48,30,902,1871,1947,2195,2429,2090,1890,1918,2011
806891,55560,22852,55745,22977,648,671,116,176,114,553,408,4681,36,31,900,1857,1935,2178,2398,2104,1893,1916,2028
807892,55620,22936,55810,23042,554,298,161,186,108,671,424,4631,30,27,900,1857,1935,2178,2398,2104,1893,1916,2028
808893,55672,22988,55875,23107,670,714,206,212,97,720,441,4624,33,29,903,1857,1935,2178,2398,2104,1893,1916,2028
809896,55716,23052,55940,23172,796,565,235,217,80,612,361,4424,26,26,899,1857,1935,2178,2398,2104,1893,1916,2028
810895,55792,23120,56005,23237,383,511,255,203,73,459,387,4504,30,37,899,1857,1935,2178,2398,2104,1893,1916,2028
811896,55840,23172,56070,23302,753,727,265,205,69,505,445,4453,37,33,903,1831,1929,2175,2375,2104,1883,1908,2028
812897,55896,23240,56135,23367,664,524,279,209,64,509,461,4274,31,32,898,1831,1929,2175,2375,2104,1883,1908,2028
813898,55960,23292,56200,23432,565,739,292,204,52,454,464,4100,40,36,901,1831,1929,2175,2375,2104,1883,1908,2028
814899,56008,23344,56265,23497,786,755,290,191,49,412,643,4171,29,41,900,1831,1929,2175,2375,2104,1883,1908,2028
815900,56072,23404,56330,23562,587,661,272,158,39,413,654,3992,28,33,898,1831,1929,2175,2375,2104,1883,1908,2028
816901,56120,23468,56395,23627,809,613,239,118,26,423,693,3942,40,33,900,1831,1929,2175,2375,2104,1883,1908,2028
817902,56180,23512,56460,23692,665,888,208,85,-3,599,791,3809,46,38,899,1846,1947,2183,2391,2082,1864,1901,2015
818903,56256,23568,56525,23757,452,749,191,80,-22,730,628,3686,34,33,895,1846,1947,2183,2391,2082,1864,1901,2015
819904,56300,23624,56590,23822,878,760,207,52,-23,1061,692,3794,32,33,901,1846,1947,2183,2391,2082,1864,1901,2015
820905,56340,23692,56655,23887,958,607,228,17,-5,888,704,4078,35,31,897,1846,1947,2183,2391,2082,1864,1901,2015
821906,56416,23744,56720,23952,495,822,265,3,19,602,632,4080,35,33,897,1846,1947,2183,2391,2082,1864,1901,2015
822907,56472,23808,56785,24017,756,674,303,6,19,877,618,4034,42,34,899,1842,1932,2160,2360,2080,1862,1896,2008
823908,56516,23852,56850,24082,931,950,342,-11,16,907,575,4066,43,47,899,1842,1932,2160,2360,2080,1862,1896,2008
824909,56572,23932,56915,24147,792,482,377,-26,8,729,560,3999,33,44,894,1842,1932,2160,2360,2080,1862,1896,2008
825910,56632,23984,56980,24212,749,848,399,-21,7,743,407,4022,44,37,900,1842,1932,2160,2360,2080,1862,1896,2008
826911,56692,24064,57045,24277,755,480,421,-12,21,948,600,3817,35,44,897,1842,1932,2160,2360,2080,1862,1896,2008
827912,56748,24132,57110,24342,816,626,443,2,41,689,567,3851,44,49,900,1842,1932,2160,2360,2080,1862,1896,2008
828913,56820,24188,57175,24407,608,787,449,19,60,600,510,3739,29,42,899,1818,1905,2139,2342,2063,1847,1882,1988
829914,56876,24264,57240,24472,819,523,462,23,89,405,496,3730,33,33,899,1818,1905,2139,2342,2063,1847,1882,1988
830915,56928,24344,57305,24537,885,455,468,-2,108,146,496,3637,28,34,899,1818,1905,2139,2342,2063,1847,1882,1988
831916,56980,24404,57370,24602,901,711,453,-36,119,119,490,3562,47,44,899,1818,1905,2139,2342,2063,1847,1882,1988
832917,57036,24472,57435,24667,863,608,436,-81,132,29,433,3569,48,42,897,1818,1905,2139,2342,2063,1847,1882,1988
833918,57084,24536,57500,24732,983,659,409,-104,138,5,381,3641,46,33,898,1828,1908,2149,2365,2048,1839,1869,1972
834919,57172,24608,57565,24797,455,550,397,-94,144,197,348,3679,39,35,896,1828,1908,2149,2365,2048,1839,1869,1972
835920,57220,24676,57630,24862,976,597,396,-82,165,189,292,3841,47,48,901,1828,1908,2149,2365,2048,1839,1869,1972
836921,57276,24736,57695,24927,887,704,404,-51,183,232,183,3907,49,34,898,1828,1908,2149,2365,2048,1839,1869,1972
837922,57344,24792,57760,24992,733,765,427,-15,208,289,193,3895,39,33,897,1828,1908,2149,2365,2048,1839,1869,1972
838923,57404,24852,57825,25057,839,721,445,29,233,187,326,3914,46,31,898,1828,1908,2149,2365,2048,1839,1869,1972
839924,57472,24908,57890,25122,737,782,462,86,246,253,234,3811,36,31,897,1824,1901,2144,2351,2070,1859,1886,1997
840925,57508,24984,57955,25187,1172,518,472,144,277,464,152,3683,30,42,898,1824,1901,2144,2351,2070,1859,1886,1997
841926,57584,25048,58020,25252,659,670,494,177,314,360,196,3916,44,35,895,1824,1901,2144,2351,2070,1859,1886,1997
842927,57640,25100,58085,25317,920,835,505,225,332,219,339,3841,33,49,899,1824,1901,2144,2351,2070,1859,1886,1997
843928,57688,25160,58150,25382,1040,741,521,246,349,111,324,3721,28,31,895,1824,1901,2144,2351,2070,1859,1886,1997
844929,57752,25208,58215,25447,842,912,532,238,375,-32,560,3817,48,45,895,1807,1887,2132,2344,2088,1876,1899,2000
845930,57804,25276,58280,25512,1009,659,539,225,395,-253,454,3800,35,37,895,1807,1887,2132,2344,2088,1876,1899,2000
846931,57856,25332,58345,25577,1024,820,538,230,413,-88,492,3774,32,33,895,1807,1887,2132,2344,2088,1876,1899,2000
847932,57928,25412,58410,25642,766,501,537,215,431,163,483,3593,31,38,895,1807,1887,2132,2344,2088,1876,1899,2000
848933,57988,25496,58475,25707,922,428,536,194,460,23,539,3813,36,48,900,1807,1887,2132,2344,2088,1876,1899,2000
849934,58044,25532,58540,25772,983,1064,533,187,487,-165,584,3605,30,28,899,1807,1887,2132,2344,2088,1876,1899,2000
850935,58096,25600,58605,25837,1050,661,528,186,492,-150,561,3832,34,31,893,1810,1889,2132,2351,2084,1873,1899,1997
851936,58156,25660,58670,25902,956,767,523,202,513,-89,459,3933,49,46,895,1810,1889,2132,2351,2084,1873,1899,1997
852937,58216,25716,58735,25967,962,828,524,242,528,183,398,3920,36,48,895,1810,1889,2132,2351,2084,1873,1899,1997
853938,58260,25776,58800,26032,1188,784,524,254,547,94,301,3923,51,34,895,1810,1889,2132,2351,2084,1873,1899,1997
854939,58320,25868,58865,26097,994,351,518,265,564,9,328,3903,52,33,893,1810,1889,2132,2351,2084,1873,1899,1997
855940,58380,25936,58930,26162,1001,647,522,278,565,130,225,3985,48,50,899,1821,1902,2144,2351,2072,1858,1887,1999
856941,58432,25976,58995,26227,1117,1028,534,296,579,60,106,4045,37,46,896,1821,1902,2144,2351,2072,1858,1887,1999
857942,58504,26056,59060,26292,858,510,544,302,584,22,304,4188,41,49,891,1821,1902,2144,2351,2072,1858,1887,1999
858943,58568,26132,59125,26357,959,546,549,314,579,-75,243,4045,49,47,899,1821,1902,2144,2351,2072,1858,1887,1999
859944,58632,26200,59190,26422,961,642,559,286,583,-129,224,3971,36,49,897,1821,1902,2144,2351,2072,1858,1887,1999
860945,58680,26268,59255,26487,1182,640,559,257,587,-145,458,4082,39,50,897,1821,1902,2144,2351,2072,1858,1887,1999
861946,58756,26320,59320,26552,819,856,557,217,600,-264,279,3878,49,45,895,1826,1912,2154,2353,2077,1861,1893,2009
862947,58820,26388,59385,26617,970,652,549,184,615,-188,450,4103,37,43,896,1826,1912,2154,2353,2077,1861,1893,2009
863948,58868,26488,59450,26682,1191,209,554,184,602,-94,640,4114,39,40,896,1826,1912,2154,2353,2077,1861,1893,2009
864949,58928,26556,59515,26747,1047,606,546,170,606,-4,531,4118,34,44,897,1826,1912,2154,2353,2077,1861,1893,2009
865950,58988,26616,59580,26812,1054,712,542,169,618,-38,609,4112,41,46,896,1826,1912,2154,2353,2077,1861,1893,2009
866951,59036,26680,59645,26877,1225,663,529,138,627,-71,703,4030,37,44,895,1840,1929,2163,2374,2092,1880,1917,2034
867952,59092,26744,59710,26942,1136,664,531,126,640,-198,547,4096,44,42,893,1840,1929,2163,2374,2092,1880,1917,2034
868953,59144,26812,59775,27007,1202,611,519,111,650,-101,640,4018,48,42,895,1840,1929,2163,2374,2092,1880,1917,2034
869954,59196,26888,59840,27072,1219,497,533,100,652,-84,679,4039,48,42,893,1840,1929,2163,2374,2092,1880,1917,2034
870955,59272,26944,59905,27137,905,758,532,77,657,-118,635,4033,33,38,895,1840,1929,2163,2374,2092,1880,1917,2034
871956,59316,27012,59970,27202,1331,604,549,51,657,-117,598,4006,35,49,896,1840,1929,2163,2374,2092,1880,1917,2034
872957,59372,27072,60035,27267,1192,711,550,11,666,-188,602,4076,44,33,893,1845,1935,2172,2379,2116,1900,1931,2047
873958,59420,27140,60100,27332,1314,607,569,-21,662,-224,519,4093,38,37,894,1845,1935,2172,2379,2116,1900,1931,2047
874959,59472,27216,60165,27397,1279,494,571,-26,652,-12,491,4195,40,35,893,1845,1935,2172,2379,2116,1900,1931,2047
875960,59516,27272,60230,27462,1405,755,592,-45,637,114,641,4231,49,42,894,1845,1935,2172,2379,2116,1900,1931,2047
876961,59596,27332,60295,27527,937,712,601,-56,635,-51,651,4286,48,46,891,1845,1935,2172,2379,2116,1900,1931,2047
877962,59664,27384,60360,27592,1084,827,614,-62,621,-34,650,4450,36,38,897,1838,1927,2170,2371,2102,1886,1910,2024
878963,59704,27448,60425,27657,1465,679,620,-62,614,-36,573,4282,48,41,894,1838,1927,2170,2371,2102,1886,1910,2024
879964,59772,27520,60490,27722,1111,570,620,-73,613,-143,558,4445,40,43,891,1838,1927,2170,2371,2102,1886,1910,2024
880965,59824,27576,60555,27787,1327,781,611,-52,602,-49,545,4305,34,47,895,1838,1927,2170,2371,2102,1886,1910,2024
881966,59884,27636,60620,27852,1234,737,601,-53,590,46,635,4355,49,37,891,1838,1927,2170,2371,2102,1886,1910,2024
882967,59928,27672,60685,27917,1460,1073,583,-61,577,-146,646,4297,47,30,893,1838,1927,2170,2371,2102,1886,1910,2024
883968,60000,27740,60750,27982,1101,669,570,-56,568,-263,610,4360,49,40,887,1836,1922,2168,2372,2075,1867,1896,2007
884969,60068,27788,60815,28047,1148,940,547,-62,560,33,645,4238,36,41,895,1836,1922,2168,2372,2075,1867,1896,2007
885970,60120,27860,60880,28112,1364,631,534,-71,559,-50,670,4238,47,41,892,1836,1922,2168,2372,2075,1867,1896,2007
886971,60160,27900,60945,28177,1545,1063,513,-76,550,-181,704,4132,38,37,891,1836,1922,2168,2372,2075,1867,1896,2007
887972,60208,27972,61010,28242,1466,654,494,-62,535,5,681,4176,31,40,886,1836,1922,2168,2372,2075,1867,1896,2007
888973,60276,28056,61075,28307,1213,481,480,-67,524,5,767,4151,34,52,891,1844,1930,2179,2389,2093,1890,1918,2032
889974,60320,28116,61140,28372,1538,787,474,-54,500,3,727,4185,33,50,895,1844,1930,2179,2389,2093,1890,1918,2032
890975,60396,28180,61205,28437,1125,738,477,-49,502,-71,616,4136,34,49,888,1844,1930,2179,2389,2093,1890,1918,2032
891976,60448,28236,61270,28502,1442,849,484,-37,486,73,799,4121,45,40,894,1844,1930,2179,2389,2093,1890,1918,2032
892977,60516,28312,61335,28567,1238,586,493,-12,470,173,762,4238,49,46,889,1844,1930,2179,2389,2093,1890,1918,2032
893978,60552,28388,61400,28632,1674,572,508,2,460,249,708,3959,38,55,894,1844,1930,2179,2389,2093,1890,1918,2032
894979,60608,28460,61465,28697,1436,614,514,9,454,169,794,4144,47,52,889,1831,1920,2173,2376,2133,1921,1938,2051
895980,60692,28512,61530,28762,1062,880,522,12,429,84,756,4027,41,52,892,1831,1920,2173,2376,2133,1921,1938,2051
896981,60732,28588,61595,28827,1643,566,516,1,414,136,759,4028,47,39,894,1831,1920,2173,2376,2133,1921,1938,2051
897982,60788,28672,61660,28892,1455,444,533,21,406,289,881,4250,50,52,889,1831,1920,2173,2376,2133,1921,1938,2051
898983,60840,28760,61725,28957,1521,366,524,26,401,260,655,4023,38,52,893,1831,1920,2173,2376,2133,1921,1938,2051
899984,60876,28824,61790,29022,1756,667,532,44,394,222,862,4300,36,41,892,1814,1902,2155,2359,2115,1901,1916,2024
900985,60940,28900,61855,29087,1408,504,528,58,391,14,860,4234,38,52,887,1814,1902,2155,2359,2115,1901,1916,2024
901986,61020,28956,61920,29152,1190,765,526,90,377,196,891,4336,34,51,893,1814,1902,2155,2359,2115,1901,1916,2024
902987,61084,29040,61985,29217,1391,392,509,113,388,450,695,4271,41,52,893,1814,1902,2155,2359,2115,1901,1916,2024
903988,61132,29084,62050,29282,1613,917,498,113,386,360,887,4276,36,39,893,1814,1902,2155,2359,2115,1901,1916,2024
904989,61188,29160,62115,29347,1524,504,477,130,380,187,705,4192,39,48,887,1814,1902,2155,2359,2115,1901,1916,2024
905990,61256,29228,62180,29412,1370,600,438,114,353,285,867,3897,37,41,891,1811,1899,2151,2362,2078,1868,1889,1995
906991,61320,29292,62245,29477,1423,651,405,110,315,279,909,3794,40,53,892,1811,1899,2151,2362,2078,1868,1889,1995
907992,61396,29352,62310,29542,1259,707,372,84,289,280,1024,3817,37,40,891,1811,1899,2151,2362,2078,1868,1889,1995
908993,61456,29428,62375,29607,1465,494,347,101,271,354,892,3877,38,52,893,1811,1899,2151,2362,2078,1868,1889,1995
909994,61512,29492,62440,29672,1527,645,329,109,245,566,907,3883,35,46,891,1811,1899,2151,2362,2078,1868,1889,1995
910995,61572,29548,62505,29737,1483,756,327,123,227,541,851,3765,50,43,890,1829,1915,2169,2371,2094,1884,1904,2027
911996,61628,29616,62570,29802,1544,604,313,143,213,491,879,3860,52,52,890,1829,1915,2169,2371,2094,1884,1904,2027
912997,61676,29684,62635,29867,1666,600,314,179,183,586,798,3823,46,41,890,1829,1915,2169,2371,2094,1884,1904,2027
913998,61736,29744,62700,29932,1522,706,322,212,163,643,915,3879,38,49,889,1829,1915,2169,2371,2094,1884,1904,2027
914999,61792,29800,62765,29997,1583,767,337,226,162,498,894,3767,52,51,889,1829,1915,2169,2371,2094,1884,1904,2027
916000,61860,29880,62830,30062,1431,449,319,231,151,337,961,3776,47,44,888,1829,1915,2169,2371,2094,1884,1904,2027
917001,61908,29944,62895,30127,1701,650,323,253,138,475,998,3770,34,52,892,1812,1904,2161,2354,2120,1905,1917,2037
918002,61976,30012,62960,30192,1449,596,312,268,144,436,953,3872,47,39,887,1812,1904,2161,2354,2120,1905,1917,2037
919003,62028,30084,63025,30257,1665,538,312,289,137,501,1120,3794,45,55,891,1812,1904,2161,2354,2120,1905,1917,2037
920004,62080,30152,63090,30322,1680,584,299,271,137,290,1146,3661,48,38,889,1812,1904,2161,2354,2120,1905,1917,2037
921005,62132,30224,63155,30387,1697,525,291,258,134,146,1115,3726,45,50,887,1812,1904,2161,2354,2120,1905,1917,2037
922006,62184,30272,63220,30452,1713,846,272,249,132,307,1205,3747,49,42,889,1794,1886,2140,2336,2106,1893,1903,2012
923007,62240,30360,63285,30517,1674,318,263,242,117,509,1309,3709,37,42,886,1794,1886,2140,2336,2106,1893,1903,2012
924008,62312,30408,63350,30582,1467,839,248,231,105,456,1270,3677,50,50,890,1794,1886,2140,2336,2106,1893,1903,2012
925009,62356,30464,63415,30647,1842,750,231,236,87,491,1281,3772,41,50,889,1794,1886,2140,2336,2106,1893,1903,2012
926010,62428,30544,63480,30712,1485,432,218,240,68,575,1238,3846,53,53,885,1794,1886,2140,2336,2106,1893,1903,2012
927011,62488,30600,63545,30777,1641,743,199,279,35,819,1225,3973,37,43,891,1794,1886,2140,2336,2106,1893,1903,2012
928012,62564,30660,63610,30842,1427,700,188,331,0,980,1209,3949,55,43,888,1780,1869,2124,2323,2079,1865,1877,1994
929013,62628,30744,63675,30907,1580,376,173,350,-25,844,1218,3937,37,42,891,1780,1869,2124,2323,2079,1865,1877,1994
930014,62696,30788,63740,30972,1526,902,161,387,-70,725,1216,4055,41,43,891,1780,1869,2124,2323,2079,1865,1877,1994
931015,62768,30868,63805,31037,1468,434,144,413,-91,723,1060,3732,50,44,888,1780,1869,2124,2323,2079,1865,1877,1994
932016,62832,30940,63870,31102,1570,525,134,424,-117,671,1244,3975,56,54,892,1780,1869,2124,2323,2079,1865,1877,1994
933017,62892,31012,63935,31167,1626,517,118,456,-137,576,1027,3767,56,46,890,1792,1881,2143,2339,2084,1876,1888,2009
934018,62956,31076,64000,31232,1578,618,112,459,-145,573,1045,3686,49,55,890,1792,1881,2143,2339,2084,1876,1888,2009
935019,63024,31132,64065,31297,1524,729,102,490,-170,428,1205,3903,54,55,890,1792,1881,2143,2339,2084,1876,1888,2009
936020,63108,31212,64130,31362,1302,411,97,518,-182,409,1015,3879,49,46,889,1792,1881,2143,2339,2084,1876,1888,2009
937024,63164,31280,64195,31427,1663,557,91,559,-188,559,1122,3923,53,42,895,1792,1881,2143,2339,2084,1876,1888,2009
938022,63216,31344,64260,31492,1729,608,74,558,-192,357,1191,3620,36,41,887,1812,1904,2176,2377,2109,1901,1910,2027
939023,63276,31424,64325,31557,1636,390,61,554,-205,170,1232,3652,51,46,888,1812,1904,2176,2377,2109,1901,1910,2027
940024,63344,31480,64390,31622,1532,701,30,530,-210,151,1270,3409,44,52,890,1812,1904,2176,2377,2109,1901,1910,2027
941025,63384,31536,64455,31687,1914,712,6,506,-230,286,1463,3456,50,41,889,1812,1904,2176,2377,2109,1901,1910,2027
942026,63456,31612,64520,31752,1505,448,-9,485,-235,319,1396,3557,46,41,884,1812,1904,2176,2377,2109,1901,1910,2027
943027,63512,31660,64585,31817,1716,819,-35,486,-232,347,1479,3593,44,41,891,1812,1904,2176,2377,2109,1901,1910,2027
944028,63560,31704,64650,31882,1838,895,-49,515,-262,650,1507,3737,39,38,886,1817,1910,2174,2376,2120,1906,1915,2030
945029,63636,31772,64715,31947,1475,592,-57,518,-273,677,1500,3700,52,46,884,1817,1910,2174,2376,2120,1906,1915,2030
946030,63696,31840,64780,32012,1682,588,-68,539,-292,685,1497,3913,40,52,891,1817,1910,2174,2376,2120,1906,1915,2030
947031,63776,31904,64845,32077,1413,640,-72,577,-327,798,1415,4000,55,40,888,1817,1910,2174,2376,2120,1906,1915,2030
948032,63844,31968,64910,32142,1560,641,-75,609,-357,836,1399,3986,55,41,891,1817,1910,2174,2376,2120,1906,1915,2030
949033,63892,32032,64975,32207,1832,642,-82,655,-383,888,1352,4207,41,43,890,1790,1877,2130,2314,2099,1881,1891,2013
950034,63976,32104,65174,32406,1522,697,-87,667,-411,857,1333,4125,36,45,885,1790,1877,2130,2314,2099,1881,1891,2013
951035,64052,32152,65239,32471,1609,1018,-77,667,-440,607,1395,4125,37,54,889,1790,1877,2130,2314,2099,1881,1891,2013
952036,64120,32224,65304,32536,1706,709,-83,659,-461,394,1317,4247,56,52,886,1790,1877,2130,2314,2099,1881,1891,2013
953037,64204,32276,65369,32601,1484,975,-91,654,-463,48,1312,3911,56,46,888,1790,1877,2130,2314,2099,1881,1891,2013
954038,64256,32364,65434,32666,1899,497,-128,665,-488,573,1267,3990,57,45,888,1790,1877,2130,2314,2099,1881,1891,2013
955039,64336,32432,65499,32731,1531,743,-171,666,-453,1476,664,4406,51,51,885,1771,1864,2126,2314,2092,1876,1889,2019
956040,64408,32500,65564,32796,1624,741,-188,599,-458,310,1636,3560,42,57,889,1771,1864,2126,2314,2092,1876,1889,2019
957041,64476,32564,65629,32861,1670,792,-238,533,-487,-724,1192,3791,52,42,887,1771,1864,2126,2314,2092,1876,1889,2019
958042,64556,32632,65694,32926,1503,738,-278,554,-513,236,1282,3992,42,51,886,1771,1864,2126,2314,2092,1876,1889,2019
959043,64640,32708,65759,32991,1429,625,-299,555,-514,862,1544,3395,47,57,889,1771,1864,2126,2314,2092,1876,1889,2019
960044,64728,32772,65824,33056,1352,776,-316,543,-507,262,1376,3570,42,51,892,1808,1907,2176,2370,2133,1915,1929,2063
961045,64784,32844,65889,33121,1763,668,-343,543,-528,31,1576,3647,42,56,892,1808,1907,2176,2370,2133,1915,1929,2063
962046,64860,32916,65954,33186,1501,659,-356,536,-547,331,1300,3581,57,45,887,1808,1907,2176,2370,2133,1915,1929,2063
963047,64920,32996,66019,33251,1707,541,-371,538,-559,497,1326,3670,41,54,890,1808,1907,2176,2370,2133,1915,1929,2063
964048,64988,33068,66084,33316,1603,632,-383,560,-578,616,1524,3858,50,58,889,1808,1907,2176,2370,2133,1915,1929,2063
965049,65068,33152,66149,33381,1436,459,-391,568,-595,549,1393,3747,47,48,888,1808,1907,2176,2370,2133,1915,1929,2063
966050,65152,33228,66214,33446,1363,547,-384,604,-612,617,1567,4057,46,51,892,1819,1915,2175,2359,2150,1922,1930,2060
967051,65216,33312,66279,33511,1615,423,-382,611,-616,527,1590,3912,60,44,893,1819,1915,2175,2359,2150,1922,1930,2060
968052,65316,33364,66344,33576,1122,839,-381,611,-625,373,1507,3922,51,45,891,1819,1915,2175,2359,2150,1922,1930,2060
969053,65396,33436,66409,33641,1354,581,-378,583,-644,504,1582,3889,44,45,893,1819,1915,2175,2359,2150,1922,1930,2060
970054,65456,33524,66474,33706,1611,353,-386,574,-658,257,1549,3987,39,53,892,1819,1915,2175,2359,2150,1922,1930,2060
971055,65528,33604,66539,33771,1453,434,-396,567,-664,285,1405,3886,43,45,890,1796,1885,2144,2330,2104,1882,1890,2008
972056,65592,33676,66604,33836,1555,526,-423,583,-683,521,1457,4020,42,59,891,1796,1885,2144,2330,2104,1882,1890,2008
973057,65668,33748,66669,33901,1391,517,-434,540,-710,561,1913,3860,48,42,890,1796,1885,2144,2330,2104,1882,1890,2008
974058,65736,33812,66734,33966,1488,618,-460,500,-710,26,1502,3829,37,59,893,1796,1885,2144,2330,2104,1882,1890,2008
975059,65816,33868,66799,34031,1320,729,-483,508,-718,162,1525,4022,42,56,891,1796,1885,2144,2330,2104,1882,1890,2008
976060,65876,33948,66864,34096,1577,411,-515,516,-721,491,1518,3842,57,48,892,1796,1885,2144,2330,2104,1882,1890,2008
977061,65948,34032,66929,34161,1418,338,-529,496,-720,334,1469,3594,54,52,891,1787,1873,2134,2326,2065,1856,1869,1991
978062,66012,34108,66994,34226,1520,425,-553,481,-732,142,1559,3662,37,45,893,1787,1873,2134,2326,2065,1856,1869,1991
979063,66092,34184,67059,34291,1302,411,-572,459,-740,-205,1365,3353,43,56,891,1787,1873,2134,2326,2065,1856,1869,1991
980064,66164,34244,67124,34356,1394,617,-592,488,-746,379,1140,3744,38,44,894,1787,1873,2134,2326,2065,1856,1869,1991
981065,66220,34312,67189,34421,1605,514,-616,510,-728,778,1213,3629,50,45,891,1787,1873,2134,2326,2065,1856,1869,1991
982066,66296,34392,67254,34486,1342,345,-627,477,-744,134,1469,3151,47,42,890,1800,1888,2152,2339,2084,1871,1888,2021
983067,66356,34480,67319,34551,1549,217,-631,427,-774,-279,1462,3357,54,61,895,1800,1888,2152,2339,2084,1871,1888,2021
984068,66428,34536,67384,34616,1390,629,-639,413,-779,-81,1418,3255,41,59,893,1800,1888,2152,2339,2084,1871,1888,2021
985069,66496,34612,67449,34681,1437,366,-651,431,-790,307,1317,3276,38,55,892,1800,1888,2152,2339,2084,1871,1888,2021
986070,66580,34692,67514,34746,1215,297,-666,483,-807,578,1367,3454,42,45,893,1800,1888,2152,2339,2084,1871,1888,2021
987072,66656,34768,67579,34811,1301,334,-670,471,-816,254,1498,2900,49,60,896,1800,1888,2152,2339,2084,1871,1888,2021
988072,66728,34844,67644,34876,1343,321,-671,433,-846,-87,1569,3161,53,44,895,1798,1889,2143,2324,2108,1884,1899,2028
989073,66796,34896,67709,34941,1390,636,-671,420,-863,-84,1555,3082,57,56,893,1798,1889,2143,2324,2108,1884,1899,2028
990074,66884,34972,67774,35006,1112,323,-685,458,-871,123,1412,3368,57,56,892,1798,1889,2143,2324,2108,1884,1899,2028
991075,66968,35044,67839,35071,1139,364,-707,490,-864,325,1477,3179,47,45,897,1798,1889,2143,2324,2108,1884,1899,2028
992076,67048,35116,67904,35136,1171,356,-703,497,-894,224,1914,3332,59,57,897,1798,1889,2143,2324,2108,1884,1899,2028
993077,67124,35168,67969,35201,1208,622,-711,455,-891,-236,1461,2913,43,53,897,1768,1856,2103,2282,2077,1853,1867,1985
994078,67200,35252,68034,35266,1195,199,-735,449,-885,-221,1358,3459,47,54,894,1768,1856,2103,2282,2077,1853,1867,1985
995079,67308,35312,68099,35331,743,505,-761,445,-883,287,1423,3390,45,46,897,1768,1856,2103,2282,2077,1853,1867,1985
996080,67384,35380,68164,35396,1130,401,-777,421,-895,69,1361,3057,43,41,900,1768,1856,2103,2282,2077,1853,1867,1985
997081,67452,35448,68229,35461,1226,397,-792,388,-903,-235,1300,3265,56,45,897,1768,1856,2103,2282,2077,1853,1867,1985
998082,67544,35520,68294,35526,894,339,-800,349,-908,-276,1281,3205,48,43,895,1768,1856,2103,2282,2077,1853,1867,1985
999083,67628,35596,68359,35591,971,275,-817,332,-905,-145,1046,3271,46,56,899,1739,1823,2073,2255,2041,1830,1845,1967
1000084,67708,35656,68424,35656,1003,482,-828,310,-914,149,1243,3202,55,41,899,1739,1823,2073,2255,2041,1830,1845,1967
1001085,67784,35736,68489,35721,1039,213,-839,269,-926,-146,1313,3060,51,45,898,1739,1823,2073,2255,2041,1830,1845,1967
1002086,67868,35804,68554,35786,917,360,-850,245,-929,-317,1125,3001,58,51,899,1739,1823,2073,2255,2041,1830,1845,1967
1003087,67936,35864,68619,35851,1113,466,-866,256,-925,92,1153,3170,54,44,899,1739,1823,2073,2255,2041,1830,1845,1967
1004088,68044,35944,68684,35916,561,197,-893,260,-924,287,1122,2928,59,51,897,1752,1840,2097,2280,2050,1838,1860,1992
1005089,68108,36012,68749,35981,1112,344,-914,253,-927,-35,1145,2780,54,44,903,1752,1840,2097,2280,2050,1838,1860,1992
1006090,68188,36088,68814,36046,895,230,-935,245,-940,-183,1153,2820,57,53,897,1752,1840,2097,2280,2050,1838,1860,1992
1007091,68272,36140,68879,36111,821,546,-951,242,-953,-114,1099,2874,57,50,900,1752,1840,2097,2280,2050,1838,1860,1992
1008092,68360,36220,68944,36176,743,178,-971,249,-960,-28,1092,2730,55,54,899,1752,1840,2097,2280,2050,1838,1860,1992
1009093,68448,36284,69009,36241,715,379,-988,220,-965,-94,1224,2631,54,46,902,1752,1840,2097,2280,2050,1838,1860,1992
1010094,68536,36360,69074,36306,688,216,-1003,176,-981,-344,1269,2726,59,54,902,1779,1868,2118,2296,2072,1850,1878,2008
1011095,68624,36436,69139,36371,660,202,-1012,152,-985,-388,1164,2907,48,49,903,1779,1868,2118,2296,2072,1850,1878,2008
1012096,68700,36504,69204,36436,797,297,-1019,120,-986,-233,1172,2949,48,48,903,1779,1868,2118,2296,2072,1850,1878,2008
1013097,68776,36576,69269,36501,783,239,-1033,75,-983,-390,1070,2818,46,48,901,1779,1868,2118,2296,2072,1850,1878,2008
1014098,68872,36648,69334,36566,495,230,-1043,38,-993,-415,1135,2909,55,42,901,1779,1868,2118,2296,2072,1850,1878,2008
1015099,68952,36716,69399,36631,678,277,-1040,12,-995,-546,1125,3081,40,54,904,1767,1856,2092,2267,2063,1837,1865,1991
1016100,69036,36780,69464,36696,605,328,-1040,-12,-992,-273,1106,3088,48,40,902,1767,1856,2092,2267,2063,1837,1865,1991
1017101,69132,36868,69529,36761,417,0,-1046,-40,-987,-336,883,2983,39,43,903,1767,1856,2092,2267,2063,1837,1865,1991
1018102,69220,36948,69594,36826,489,82,-1051,-54,-985,-338,1076,3296,49,45,906,1767,1856,2092,2267,2063,1837,1865,1991
1019103,69296,37012,69659,36891,626,283,-1050,-85,-991,-312,1014,3147,42,55,905,1767,1856,2092,2267,2063,1837,1865,1991
1020104,69364,37088,69724,36956,722,119,-1056,-87,-983,-209,765,3376,44,56,903,1767,1856,2092,2267,2063,1837,1865,1991
1021105,69444,37164,69789,37021,554,106,-1067,-108,-975,-178,818,3390,39,46,903,1742,1832,2064,2240,2038,1817,1849,1973
1022106,69528,37228,69854,37086,481,257,-1076,-108,-966,-357,679,3221,35,46,904,1742,1832,2064,2240,2038,1817,1849,1973
1023107,69600,37336,69919,37151,623,-345,-1086,-127,-972,-266,753,3413,40,40,903,1742,1832,2064,2240,2038,1817,1849,1973
1024108,69664,37420,69984,37216,724,-69,-1100,-151,-979,-181,595,3040,37,44,902,1742,1832,2064,2240,2038,1817,1849,1973
1025109,69788,37484,70049,37281,-98,183,-1118,-141,-973,-225,540,3563,34,41,902,1742,1832,2064,2240,2038,1817,1849,1973
1026110,69848,37556,70114,37346,708,74,-1126,-163,-974,-105,763,3079,36,55,903,1757,1844,2086,2276,2041,1828,1863,1986
1027111,69948,37644,70179,37411,165,-154,-1133,-198,-980,-417,563,3188,42,46,903,1757,1844,2086,2276,2041,1828,1863,1986
1028112,70036,37700,70244,37476,287,257,-1131,-245,-985,-363,636,3107,39,40,906,1757,1844,2086,2276,2041,1828,1863,1986
