%  Data file recorded 2016/9/25  23:44:11
%  Stride Frequency         = [1, 1]
%  Lead In /Lead Out        = 
%  Deltas (Fractional)      = [0.25, 0.25, 0.25],[0.25, 0.25, 0.25]
%  Phase                    = 32768
%  Experiment.py 
%  Motor Gains    = [5000, 400, 200, 0, 300, 5000, 400, 200, 0, 300]
% Columns: 
% time | Right Leg Pos | Left Leg Pos | Commanded Right Leg Pos | Commanded Left Leg Pos | DCR | DCL | GyroX | GyroY | GyroZ | AX | AY | AZ | RBEMF | LBEMF | VBatt | S1 | S2 | S3 | S4 | S5 | S6 | S7 | S8
870,15880,-15748,16438,-16330,-3800,-3800,-1,13,2,-99,90,3917,-3,10,871,1763,1880,2075,2242,2043,1801,1864,1983
1871,15864,-15748,16438,-16330,-3800,-3800,-3,13,0,-101,114,3938,7,8,871,1763,1880,2075,2242,2043,1801,1864,1983
2872,15864,-15740,16438,-16330,-3800,-3800,-4,11,0,-132,84,3932,9,-3,871,1763,1880,2075,2242,2043,1801,1864,1983
3873,15868,-15760,16438,-16330,-3800,-3800,-2,6,-1,-123,90,3961,-8,1,871,1763,1880,2075,2242,2043,1801,1864,1983
4874,15876,-15744,16438,-16330,-3800,-3800,-2,8,-2,-126,86,3930,2,9,871,1765,1881,2075,2239,2041,1799,1865,1986
5875,15876,-15748,16438,-16330,-3800,-3800,-2,9,-4,-118,100,3935,11,-4,871,1765,1881,2075,2239,2041,1799,1865,1986
6876,15868,-15752,16438,-16330,-3800,-3800,-1,8,-2,-129,116,3954,-2,6,871,1765,1881,2075,2239,2041,1799,1865,1986
7877,15860,-15756,16438,-16330,-3800,-3800,-3,8,3,-97,93,3966,-6,9,871,1765,1881,2075,2239,2041,1799,1865,1986
8878,15864,-15748,16438,-16330,-3800,-3800,-4,8,1,-112,72,3979,6,-4,871,1765,1881,2075,2239,2041,1799,1865,1986
9879,15860,-15740,16438,-16330,-3800,-3800,-5,12,-1,-121,82,3934,9,10,871,1765,1881,2075,2239,2041,1799,1865,1986
10880,15876,-15756,16438,-16330,-3800,-3800,-2,14,0,-119,88,3913,3,-3,871,1763,1879,2073,2241,2043,1799,1864,1984
11881,15876,-15752,16438,-16330,-3800,-3800,-2,13,3,-108,90,3931,-5,9,871,1763,1879,2073,2241,2043,1799,1864,1984
12882,15856,-15748,16438,-16330,-3800,-3800,-4,10,3,-131,96,3928,2,-2,871,1763,1879,2073,2241,2043,1799,1864,1984
13885,15868,-15748,16438,-16330,-3800,-3800,-4,9,1,-121,83,3942,12,0,871,1763,1879,2073,2241,2043,1799,1864,1984
14884,15876,-15744,16438,-16330,-3800,-3800,-5,9,0,-115,56,3948,3,9,871,1763,1879,2073,2241,2043,1799,1864,1984
15885,15884,-15740,16438,-16330,-3800,-3800,-5,10,-1,-127,72,3943,-8,-4,871,1766,1882,2076,2241,2044,1800,1864,1984
16886,15876,-15744,16438,-16330,-3800,-3800,-6,13,-1,-100,76,3933,3,7,871,1766,1882,2076,2241,2044,1800,1864,1984
17887,15872,-15748,16438,-16330,-3800,-3800,-6,14,0,-102,98,3946,10,-2,871,1766,1882,2076,2241,2044,1800,1864,1984
18888,15868,-15748,16438,-16330,-3800,-3800,-6,12,2,-106,96,3940,-6,5,871,1766,1882,2076,2241,2044,1800,1864,1984
19889,15860,-15744,16438,-16330,-3800,-3800,-5,9,3,-108,91,3923,11,3,868,1766,1882,2076,2241,2044,1800,1864,1984
20890,15872,-15732,16438,-16330,-3800,-3800,-3,8,0,-123,91,3948,-4,6,870,1766,1882,2076,2241,2044,1800,1864,1984
21891,15892,-15748,16438,-16330,-3800,-3800,-2,10,0,-122,107,3929,9,3,871,1763,1880,2075,2241,2043,1799,1863,1982
22892,15872,-15744,16438,-16330,-3800,-3800,-4,11,2,-123,92,3941,-7,-4,871,1763,1880,2075,2241,2043,1799,1863,1982
23893,15880,-15724,16438,-16330,-3800,-3800,-4,12,1,-130,89,3936,-4,10,871,1763,1880,2075,2241,2043,1799,1863,1982
24894,15868,-15736,16438,-16330,-3800,-3800,-2,13,0,-124,99,3934,10,-2,871,1763,1880,2075,2241,2043,1799,1863,1982
25895,15876,-15772,16438,-16330,-3800,-3800,0,10,1,-109,98,3908,-7,-2,871,1763,1880,2075,2241,2043,1799,1863,1982
26896,15884,-15748,16438,-16330,-3800,-3800,-2,11,0,-109,100,3916,7,10,871,1764,1880,2073,2240,2042,1798,1863,1984
27897,15872,-15744,16438,-16330,-3800,-3800,-5,13,-1,-123,85,3943,-4,-3,871,1764,1880,2073,2240,2042,1798,1863,1984
28898,15868,-15736,16438,-16330,-3800,-3800,-5,9,0,-113,84,3947,-5,-1,871,1764,1880,2073,2240,2042,1798,1863,1984
29899,15872,-15748,16438,-16330,-3800,-3800,-4,9,1,-129,64,3926,9,10,871,1764,1880,2073,2240,2042,1798,1863,1984
30900,15864,-15748,16438,-16330,-3800,-3800,-1,11,1,-154,81,3910,4,-4,871,1764,1880,2073,2240,2042,1798,1863,1984
31901,15872,-15752,16438,-16330,-3800,-3800,-1,10,2,-129,87,3946,-8,-1,871,1764,1880,2073,2240,2042,1798,1863,1984
32902,15868,-15756,16438,-16330,-3800,-3800,-2,11,3,-124,99,3932,1,10,871,1763,1880,2073,2241,2043,1799,1863,1982
33903,15872,-15756,16438,-16330,-3800,-3800,-4,13,1,-154,82,3884,9,-3,871,1763,1880,2073,2241,2043,1799,1863,1982
34904,15868,-15748,16438,-16330,-3800,-3800,-4,11,-1,-144,92,3914,-4,-2,871,1763,1880,2073,2241,2043,1799,1863,1982
35905,15876,-15748,16438,-16330,-3800,-3800,-2,8,0,-112,73,3919,-8,10,871,1763,1880,2073,2241,2043,1799,1863,1982
36906,15872,-15744,16438,-16330,-3800,-3800,-2,8,1,-128,95,3908,8,0,868,1763,1880,2073,2241,2043,1799,1863,1982
37907,15880,-15748,16438,-16330,-3800,-3800,-1,10,0,-117,102,3915,-4,10,870,1764,1881,2076,2241,2044,1800,1863,1984
38908,15876,-15748,16438,-16330,-3800,-3800,-2,11,-1,-121,74,3931,6,-4,871,1764,1881,2076,2241,2044,1800,1863,1984
39909,15876,-15760,16438,-16330,-3800,-3800,-1,12,0,-140,87,3975,11,9,871,1764,1881,2076,2241,2044,1800,1863,1984
40910,15868,-15744,16438,-16330,-3800,-3800,-1,13,1,-129,111,3988,6,5,871,1764,1881,2076,2241,2044,1800,1863,1984
41911,15872,-15760,16438,-16330,-3800,-3800,0,12,0,-137,106,3970,-4,-3,871,1764,1881,2076,2241,2044,1800,1863,1984
42912,15872,-15736,16438,-16330,-3800,-3800,0,10,0,-139,103,3938,1,10,871,1764,1881,2076,2241,2044,1800,1863,1984
43913,15872,-15748,16438,-16330,-3800,-3800,-1,10,0,-121,117,3911,11,4,871,1764,1879,2073,2240,2042,1800,1864,1985
44914,15880,-15744,16438,-16330,-3800,-3800,-1,11,0,-105,128,3930,7,-3,871,1764,1879,2073,2240,2042,1800,1864,1985
45915,15872,-15740,16438,-16330,-3800,-3800,-3,9,-1,-112,94,3951,-8,9,871,1764,1879,2073,2240,2042,1800,1864,1985
46916,15868,-15760,16438,-16330,-3800,-3800,-3,9,1,-96,90,3943,-3,-2,871,1764,1879,2073,2240,2042,1800,1864,1985
47917,15872,-15756,16438,-16330,-3800,-3800,-2,10,2,-117,88,3949,7,7,871,1764,1879,2073,2240,2042,1800,1864,1985
48918,15860,-15744,16438,-16330,-3800,-3800,-3,11,-1,-133,73,3948,9,0,871,1764,1880,2075,2241,2044,1799,1863,1984
49919,15892,-15756,16438,-16330,-3800,-3800,-3,10,-1,-107,78,3923,0,-2,871,1764,1880,2075,2241,2044,1799,1863,1984
50920,15880,-15748,16438,-16330,-3800,-3800,-2,9,0,-101,85,3937,-4,9,871,1764,1880,2075,2241,2044,1799,1863,1984
51921,15868,-15748,16438,-16330,-3800,-3800,-3,11,1,-114,105,3932,-7,-4,871,1764,1880,2075,2241,2044,1799,1863,1984
52922,15868,-15740,16438,-16330,-3800,-3800,-3,12,-2,-118,78,3922,2,3,871,1764,1880,2075,2241,2044,1799,1863,1984
53923,15864,-15748,16438,-16330,-3800,-3800,-5,12,0,-108,71,3956,3,5,869,1764,1880,2075,2241,2044,1799,1863,1984
54924,15860,-15748,16438,-16330,-3800,-3800,-5,9,1,-116,93,3976,11,-3,870,1764,1880,2075,2241,2044,1800,1865,1983
55925,15860,-15744,16438,-16330,-3800,-3800,-4,9,1,-125,109,3974,11,5,871,1764,1880,2075,2241,2044,1800,1865,1983
56926,15868,-15748,16438,-16330,-3800,-3800,-4,11,0,-111,81,3951,-3,9,871,1764,1880,2075,2241,2044,1800,1865,1983
57927,15868,-15744,16438,-16330,-3800,-3800,-3,14,-1,-107,66,3958,-4,-4,871,1764,1880,2075,2241,2044,1800,1865,1983
58928,15872,-15744,16438,-16330,-3800,-3800,-3,14,1,-150,75,3973,9,-2,871,1764,1880,2075,2241,2044,1800,1865,1983
59929,15876,-15752,16438,-16330,-3800,-3800,-4,12,1,-149,84,3973,9,10,871,1764,1879,2074,2240,2043,1800,1863,1984
60930,15876,-15752,16438,-16330,-3800,-3800,-4,12,-1,-151,89,3935,-5,-3,871,1764,1879,2074,2240,2043,1800,1863,1984
61931,15872,-15752,16438,-16330,-3800,-3800,-5,12,-2,-140,60,3931,-7,1,871,1764,1879,2074,2240,2043,1800,1863,1984
62932,15864,-15756,16438,-16330,-3800,-3800,-4,13,2,-128,72,3954,-1,8,871,1764,1879,2074,2240,2043,1800,1863,1984
63933,15868,-15756,16438,-16330,-3800,-3800,-4,12,3,-137,68,3944,12,-4,871,1764,1879,2074,2240,2043,1800,1863,1984
64934,15876,-15748,16438,-16330,-3800,-3800,-3,11,2,-134,88,3961,7,7,871,1764,1879,2074,2240,2043,1800,1863,1984
65935,15872,-15752,16438,-16330,-3800,-3800,-3,11,0,-104,97,3949,-3,5,871,1764,1880,2074,2240,2041,1797,1859,1981
66936,15872,-15760,16438,-16330,-3800,-3800,-4,12,-2,-96,91,3949,0,-3,871,1764,1880,2074,2240,2041,1797,1859,1981
67937,15872,-15760,16438,-16330,-3800,-3800,-4,11,2,-116,81,3960,12,4,871,1764,1880,2074,2240,2041,1797,1859,1981
68938,15876,-15748,16438,-16330,-3800,-3800,-1,11,2,-120,84,3974,4,8,871,1764,1880,2074,2240,2041,1797,1859,1981
69939,15872,-15752,16438,-16330,-3800,-3800,-1,11,1,-110,76,3957,-2,-4,871,1764,1880,2074,2240,2041,1797,1859,1981
70940,15868,-15748,16438,-16330,-3800,-3800,1,11,1,-116,84,3959,2,7,869,1765,1880,2076,2242,2044,1800,1864,1983
71941,15872,-15744,16438,-16330,-3800,-3800,-1,12,2,-130,114,3973,12,1,870,1765,1880,2076,2242,2044,1800,1864,1983
72942,15872,-15748,16438,-16330,-3800,-3800,-2,12,4,-118,91,3931,-7,0,871,1765,1880,2076,2242,2044,1800,1864,1983
73943,15880,-15752,16438,-16330,-3800,-3800,-2,12,4,-124,89,3928,1,10,871,1765,1880,2076,2242,2044,1800,1864,1983
74944,15876,-15744,16438,-16330,-3800,-3800,-3,14,1,-109,80,3950,11,-3,871,1765,1880,2076,2242,2044,1800,1864,1983
75945,15872,-15752,16438,-16330,-3800,-3800,-3,12,0,-121,102,3954,-4,8,871,1765,1880,2076,2242,2044,1800,1864,1983
76946,15880,-15748,16438,-16330,-3800,-3800,0,10,0,-133,101,3925,-6,4,871,1763,1877,2071,2242,2044,1800,1865,1985
77947,15876,-15744,16438,-16330,-3800,-3800,0,8,0,-114,97,3929,6,2,871,1763,1877,2071,2242,2044,1800,1865,1985
78948,15876,-15756,16438,-16330,-3800,-3800,-1,8,2,-129,108,3939,5,4,871,1763,1877,2071,2242,2044,1800,1865,1985
79949,15868,-15748,16438,-16330,-3800,-3800,-1,12,1,-109,109,3933,-7,-4,871,1763,1877,2071,2242,2044,1800,1865,1985
80950,15876,-15748,16438,-16330,-3800,-3800,-1,14,3,-88,85,3937,-6,10,871,1763,1877,2071,2242,2044,1800,1865,1985
81951,15872,-15756,16438,-16330,-3800,-3800,0,13,2,-112,72,3919,10,-2,871,1765,1880,2074,2240,2042,1800,1863,1983
82952,15872,-15748,16438,-16330,-3800,-3800,-2,10,0,-116,85,3935,8,-3,871,1765,1880,2074,2240,2042,1800,1863,1983
83953,15884,-15744,16438,-16330,-3800,-3800,-3,10,0,-116,74,3899,0,10,871,1765,1880,2074,2240,2042,1800,1863,1983
84954,15868,-15748,16438,-16330,-3800,-3800,-3,12,0,-96,82,3916,-3,-3,871,1765,1880,2074,2240,2042,1800,1863,1983
85955,15872,-15744,16438,-16330,-3800,-3800,-1,14,1,-136,84,3952,11,-2,871,1765,1880,2074,2240,2042,1800,1863,1983
86956,15856,-15748,16438,-16330,-3800,-3800,1,12,2,-131,106,3944,10,10,871,1765,1880,2074,2240,2042,1800,1863,1983
87957,15876,-15748,16438,-16330,-3800,-3800,-1,9,0,-89,113,3972,-7,-3,869,1761,1877,2076,2242,2046,1802,1866,1986
88958,15872,-15748,16438,-16330,-3800,-3800,-2,10,0,-90,83,3914,5,9,870,1761,1877,2076,2242,2046,1802,1866,1986
89959,15880,-15748,16438,-16330,-3800,-3800,0,10,2,-82,86,3938,-2,3,871,1761,1877,2076,2242,2046,1802,1866,1986
90960,15872,-15748,16438,-16330,-3800,-3800,-2,11,1,-124,90,3933,-7,-1,871,1761,1877,2076,2242,2046,1802,1866,1986
91961,15876,-15748,16438,-16330,-3800,-3800,-3,12,-1,-138,92,3924,-7,10,871,1761,1877,2076,2242,2046,1802,1866,1986
92962,15872,-15748,16438,-16330,-3800,-3800,-4,13,-1,-130,70,3900,-7,-2,871,1764,1879,2073,2240,2043,1799,1863,1984
93963,15868,-15740,16438,-16330,-3800,-3800,-3,14,2,-111,61,3912,6,0,871,1764,1879,2073,2240,2043,1799,1863,1984
94964,15876,-15748,16438,-16330,-3800,-3800,-2,15,1,-107,60,3902,11,10,871,1764,1879,2073,2240,2043,1799,1863,1984
95965,15872,-15740,16438,-16330,-3800,-3800,-3,14,0,-105,82,3935,4,1,871,1764,1879,2073,2240,2043,1799,1863,1984
96966,15872,-15744,16438,-16330,-3800,-3800,-3,12,0,-96,72,3916,-7,-1,871,1764,1879,2073,2240,2043,1799,1863,1984
97967,15872,-15748,16438,-16330,-3800,-3800,-4,11,1,-105,89,3942,1,8,871,1764,1879,2073,2240,2043,1799,1863,1984
98968,15860,-15744,16438,-16330,-3800,-3800,-5,10,-1,-124,94,3944,12,6,871,1765,1881,2076,2242,2046,1802,1865,1984
99969,15864,-15748,16438,-16330,-3800,-3800,-3,12,0,-140,81,3912,0,-4,871,1765,1881,2076,2242,2046,1802,1865,1984
100970,15880,-15744,16438,-16330,-3800,-3800,-2,13,0,-125,75,3953,-8,2,871,1765,1881,2076,2242,2046,1802,1865,1984
101971,15876,-15744,16438,-16330,-3800,-3800,-3,12,0,-112,85,3960,4,9,871,1765,1881,2076,2242,2046,1802,1865,1984
102972,15868,-15752,16438,-16330,-3800,-3800,-6,12,2,-126,75,3962,8,-4,871,1765,1881,2076,2242,2046,1802,1865,1984
103973,15876,-15748,16438,-16330,-3800,-3800,-5,12,1,-123,74,3933,-4,7,871,1764,1879,2073,2241,2044,1801,1865,1985
104974,15880,-15752,16438,-16330,-3800,-3800,-3,13,1,-114,99,3961,3,-2,869,1764,1879,2073,2241,2044,1801,1865,1985
105975,15872,-15756,16438,-16330,-3800,-3800,-2,12,0,-109,85,3981,-8,9,869,1764,1879,2073,2241,2044,1801,1865,1985
106976,15868,-15748,16438,-16330,-3800,-3800,-2,9,0,-112,74,3953,-4,6,871,1764,1879,2073,2241,2044,1801,1865,1985
107977,15864,-15732,16438,-16330,-3800,-3800,-3,9,0,-116,59,3941,10,-3,871,1764,1879,2073,2241,2044,1801,1865,1985
108978,15880,-15748,16438,-16330,-3800,-3800,-5,10,1,-139,63,3918,5,10,871,1764,1879,2073,2241,2044,1801,1865,1985
109979,15868,-15744,16438,-16330,-3800,-3800,-5,12,4,-135,79,3906,-4,3,871,1766,1880,2074,2241,2042,1799,1863,1984
110980,15868,-15752,16438,-16330,-3800,-3800,-3,11,2,-131,78,3932,-7,-1,871,1766,1880,2074,2241,2042,1799,1863,1984
111981,15872,-15744,16438,-16330,-3800,-3800,-4,10,2,-122,97,3941,0,10,871,1766,1880,2074,2241,2042,1799,1863,1984
112982,15872,-15756,16438,-16330,-3800,-3800,-2,10,1,-130,92,3953,10,6,871,1766,1880,2074,2241,2042,1799,1863,1984
113983,15860,-15744,16438,-16330,-3800,-3800,-3,12,1,-120,88,3896,11,-4,871,1766,1880,2074,2241,2042,1799,1863,1984
114984,15872,-15752,16438,-16330,-3800,-3800,-3,13,1,-109,101,3920,4,9,871,1766,1880,2074,2241,2042,1799,1863,1983
115985,15872,-15752,16438,-16330,-3800,-3800,-2,11,2,-123,94,3938,-1,8,871,1766,1880,2074,2241,2042,1799,1863,1983
116986,15876,-15756,16438,-16330,-3800,-3800,-3,9,3,-110,77,3905,-7,-4,871,1766,1880,2074,2241,2042,1799,1863,1983
117987,15872,-15748,16438,-16330,-3800,-3800,-3,10,4,-110,84,3919,0,10,871,1766,1880,2074,2241,2042,1799,1863,1983
118988,15872,-15756,16438,-16330,-3800,-3800,-3,10,3,-107,110,3921,9,5,871,1766,1880,2074,2241,2042,1799,1863,1983
119989,15872,-15748,16438,-16330,-3800,-3800,-3,11,2,-126,93,3943,11,-3,871,1766,1880,2074,2241,2042,1799,1863,1983
120990,15872,-15748,16438,-16330,-3800,-3800,-4,10,3,-138,87,3936,5,10,871,1765,1880,2075,2241,2042,1799,1863,1983
121991,15872,-15748,16438,-16330,-3800,-3800,-4,10,4,-109,73,3953,-7,-3,869,1765,1880,2075,2241,2042,1799,1863,1983
122992,15872,-15748,16438,-16330,-3800,-3800,-3,9,6,-117,86,3997,3,10,869,1765,1880,2075,2241,2042,1799,1863,1983
123993,15876,-15744,16438,-16330,-3800,-3800,-2,11,4,-128,72,4000,-7,4,871,1765,1880,2075,2241,2042,1799,1863,1983
124994,15880,-15736,16438,-16330,-3800,-3800,0,11,2,-124,61,3954,6,-3,871,1765,1880,2075,2241,2042,1799,1863,1983
125995,15872,-15752,16438,-16330,-3800,-3800,1,11,3,-112,77,3931,10,3,871,1765,1880,2073,2241,2042,1799,1863,1979
126996,15872,-15748,16438,-16330,-3800,-3800,0,12,0,-98,76,3934,-6,8,871,1765,1880,2073,2241,2042,1799,1863,1979
127997,15880,-15752,16438,-16330,-3800,-3800,-1,12,0,-120,56,3945,-8,-2,871,1765,1880,2073,2241,2042,1799,1863,1979
128998,15868,-15756,16438,-16330,-3800,-3800,-1,11,1,-106,77,3942,5,4,871,1765,1880,2073,2241,2042,1799,1863,1979
129999,15872,-15732,16438,-16330,-3800,-3800,-1,11,3,-111,89,3927,7,8,871,1765,1880,2073,2241,2042,1799,1863,1979
131000,15876,-15756,16438,-16330,-3800,-3800,-1,11,2,-127,73,3949,-7,-2,871,1765,1880,2073,2241,2042,1799,1863,1979
132001,15872,-15744,16438,-16330,-3800,-3800,-2,13,1,-113,74,3945,-3,5,871,1765,1880,2074,2240,2043,1800,1864,1983
133002,15868,-15744,16438,-16330,-3800,-3800,-2,13,1,-103,77,3905,11,3,871,1765,1880,2074,2240,2043,1800,1864,1983
134003,15872,-15748,16438,-16330,-3800,-3800,-3,11,0,-124,75,3893,8,-4,871,1765,1880,2074,2240,2043,1800,1864,1983
135004,15856,-15740,16438,-16330,-3800,-3800,-4,9,1,-111,95,3916,-2,6,871,1765,1880,2074,2240,2043,1800,1864,1983
136005,15872,-15752,16438,-16330,-3800,-3800,-2,9,0,-143,98,3933,-4,3,871,1765,1880,2074,2240,2043,1800,1864,1983
137006,15876,-15752,16438,-16330,-3800,-3800,-2,8,0,-154,101,3942,12,-5,871,1765,1880,2075,2241,2043,1799,1862,1983
138007,15872,-15744,16438,-16330,-3800,-3800,-2,9,-1,-132,81,3934,0,7,871,1765,1880,2075,2241,2043,1799,1862,1983
139008,15876,-15732,16438,-16330,-3800,-3800,-3,10,2,-106,82,3913,11,-1,868,1765,1880,2075,2241,2043,1799,1862,1983
140009,15876,-15736,16438,-16330,-3800,-3800,-3,7,2,-109,87,3960,2,-1,869,1765,1880,2075,2241,2043,1799,1862,1983
141010,15868,-15744,16438,-16330,-3800,-3800,-3,8,2,-114,106,3925,11,10,871,1765,1880,2075,2241,2043,1799,1862,1983
142011,15872,-15752,16438,-16330,-3800,-3800,-2,10,0,-135,97,3939,-4,1,871,1765,1880,2075,2241,2043,1799,1862,1983
143012,15876,-15752,16438,-16330,-3800,-3800,-4,13,1,-117,65,3953,-7,-4,871,1765,1880,2074,2240,2043,1800,1863,1984
144013,15872,-15752,16438,-16330,-3800,-3800,-5,11,0,-123,70,3944,7,6,871,1765,1880,2074,2240,2043,1800,1863,1984
145014,15880,-15736,16438,-16330,-3800,-3800,-3,11,0,-109,87,3948,3,6,871,1765,1880,2074,2240,2043,1800,1863,1984
146015,15876,-15748,16438,-16330,-3800,-3800,2,12,-2,-106,98,3943,-5,-3,871,1765,1880,2074,2240,2043,1800,1863,1984
147016,15852,-15748,16438,-16330,-3800,-3800,0,9,-1,-128,105,3920,-7,7,871,1765,1880,2074,2240,2043,1800,1863,1984
148017,15884,-15744,16438,-16330,-3800,-3800,-2,8,-1,-109,120,3922,11,4,871,1765,1879,2073,2239,2042,1802,1866,1986
149018,15876,-15740,16438,-16330,-3800,-3800,-6,11,-1,-102,81,3950,2,-4,871,1765,1879,2073,2239,2042,1802,1866,1986
150019,15880,-15760,16438,-16330,-3800,-3800,-6,12,-1,-129,78,3950,-8,7,871,1765,1879,2073,2239,2042,1802,1866,1986
151020,15868,-15752,16438,-16330,-3800,-3800,-3,12,0,-118,61,3924,2,2,871,1765,1879,2073,2239,2042,1802,1866,1986
152021,15864,-15756,16438,-16330,-3800,-3800,-1,10,-2,-121,65,3945,10,-4,871,1765,1879,2073,2239,2042,1802,1866,1986
153022,15868,-15752,16438,-16330,-3800,-3800,-2,10,-1,-133,92,3928,-5,8,871,1765,1879,2073,2239,2042,1802,1866,1986
154023,15860,-15752,16438,-16330,-3800,-3800,-4,13,4,-92,87,3924,-5,2,871,1766,1880,2075,2241,2044,1801,1864,1984
155024,15876,-15760,16438,-16330,-3800,-3800,-5,12,1,-120,92,3910,-3,-4,871,1766,1880,2075,2241,2044,1801,1864,1984
156025,15880,-15748,16438,-16330,-3800,-3800,-5,13,1,-114,108,3899,11,10,869,1766,1880,2075,2241,2044,1801,1864,1984
157026,15872,-15748,16438,-16330,-3800,-3800,-5,11,0,-123,99,3927,2,-4,869,1766,1880,2075,2241,2044,1801,1864,1984
158027,15880,-15744,16438,-16330,-3800,-3800,-5,13,-1,-125,100,3972,11,4,871,1766,1880,2075,2241,2044,1801,1864,1984
159028,15872,-15744,16438,-16330,-3800,-3800,-5,13,-1,-99,101,3984,-1,7,871,1763,1877,2071,2239,2044,1800,1865,1984
160029,15868,-15744,16438,-16330,-3800,-3800,-5,11,0,-101,80,3983,-8,-4,871,1763,1877,2071,2239,2044,1800,1865,1984
161030,15872,-15744,16438,-16330,-3800,-3800,-4,9,2,-99,77,3954,1,3,871,1763,1877,2071,2239,2044,1800,1865,1984
162031,15876,-15760,16438,-16330,-3800,-3800,-3,9,1,-116,79,3960,11,9,871,1763,1877,2071,2239,2044,1800,1865,1984
163032,15868,-15752,16438,-16330,-3800,-3800,-2,9,3,-103,100,3926,3,-4,871,1763,1877,2071,2239,2044,1800,1865,1984
164034,15868,-15760,16438,-16330,-3800,-3800,-3,10,3,-114,104,3928,-3,0,871,1763,1877,2071,2239,2044,1800,1865,1984
165034,15880,-15752,16438,-16330,-3800,-3800,-4,10,4,-126,120,3947,-8,10,871,1766,1880,2074,2240,2042,1800,1862,1982
166035,15876,-15752,16438,-16330,-3800,-3800,-3,10,4,-124,83,3964,1,-4,871,1766,1880,2074,2240,2042,1800,1862,1982
167036,15880,-15740,16438,-16330,-3800,-3800,-2,12,4,-128,91,3916,7,0,871,1766,1880,2074,2240,2042,1800,1862,1982
168037,15880,-15748,16438,-16330,-3800,-3800,-3,12,2,-120,86,3937,10,10,871,1766,1880,2074,2240,2042,1800,1862,1982
169038,15872,-15744,16438,-16330,-3800,-3800,-3,11,1,-136,62,3946,8,-3,871,1766,1880,2074,2240,2042,1800,1862,1982
170039,15880,-15756,16438,-16330,-3800,-3800,-4,12,1,-136,83,3923,-4,-2,871,1765,1879,2076,2244,2046,1800,1865,1984
171040,15868,-15756,16438,-16330,-3800,-3800,-4,14,3,-155,83,3920,-7,10,871,1765,1879,2076,2244,2046,1800,1865,1984
172041,15868,-15760,16438,-16330,-3800,-3800,-5,13,3,-127,86,3922,5,-4,871,1765,1879,2076,2244,2046,1800,1865,1984
173042,15876,-15748,16438,-16330,-3800,-3800,-3,12,2,-127,75,3924,1,10,868,1765,1879,2076,2244,2046,1800,1865,1984
174043,15872,-15748,16438,-16330,-3800,-3800,-2,12,5,-135,111,3936,8,-4,868,1765,1879,2076,2244,2046,1800,1865,1984
175044,15868,-15748,16438,-16330,-3800,-3800,0,11,4,-118,102,3925,9,10,871,1765,1879,2076,2244,2046,1800,1865,1984
176045,15868,-15748,16438,-16330,-3800,-3800,-1,10,3,-113,80,3909,-6,4,871,1766,1880,2073,2240,2042,1799,1863,1982
177046,15868,-15756,16438,-16330,-3800,-3800,-2,11,2,-104,86,3905,-7,-2,871,1766,1880,2073,2240,2042,1799,1863,1982
178047,15868,-15752,16438,-16330,-3800,-3800,0,8,4,-107,89,3938,11,9,871,1766,1880,2073,2240,2042,1799,1863,1982
179048,15876,-15748,16438,-16330,-3800,-3800,0,8,4,-132,81,3967,9,-3,871,1766,1880,2073,2240,2042,1799,1863,1982
180049,15860,-15756,16438,-16330,-3800,-3800,-3,8,2,-129,94,3962,0,7,871,1766,1880,2073,2240,2042,1799,1863,1982
181050,15876,-15744,16438,-16330,-3800,-3800,-4,9,1,-112,99,3949,-8,3,871,1768,1882,2076,2244,2042,1800,1864,1984
182051,15880,-15748,16438,-16330,-3800,-3800,-2,10,2,-102,108,3903,-6,-4,871,1768,1882,2076,2244,2042,1800,1864,1984
183052,15876,-15748,16438,-16330,-3800,-3800,-1,10,2,-110,100,3940,5,10,871,1768,1882,2076,2244,2042,1800,1864,1984
184053,15868,-15752,16438,-16330,-3800,-3800,-2,9,3,-101,124,3928,11,-4,871,1768,1882,2076,2244,2042,1800,1864,1984
185054,15872,-15756,16438,-16330,-3800,-3800,-2,8,3,-103,100,3922,10,7,871,1768,1882,2076,2244,2042,1800,1864,1984
186055,15876,-15744,16438,-16330,-3800,-3800,-1,9,1,-107,102,3952,11,3,871,1765,1879,2073,2241,2043,1800,1865,1985
187056,15876,-15752,16438,-16330,-3800,-3800,1,11,1,-114,83,3952,4,1,871,1765,1879,2073,2241,2043,1800,1865,1985
188057,15868,-15748,16438,-16330,-3800,-3800,0,10,0,-99,85,3966,-4,10,871,1765,1879,2073,2241,2043,1800,1865,1985
189058,15868,-15740,16438,-16330,-3800,-3800,-2,11,0,-110,95,3966,-6,-4,871,1765,1879,2073,2241,2043,1800,1865,1985
190059,15872,-15748,16438,-16330,-3800,-3800,0,12,1,-109,95,3956,3,9,868,1765,1879,2073,2241,2043,1800,1865,1985
191062,15868,-15748,16438,-16330,-3800,-3800,-1,10,0,-99,92,3969,-5,-4,868,1765,1879,2073,2241,2043,1800,1865,1985
192061,15876,-15740,16438,-16330,-3800,-3800,-1,9,-1,-108,94,3952,-7,10,871,1765,1880,2074,2241,2043,1800,1863,1984
193062,15880,-15744,16438,-16330,-3800,-3800,-2,8,-1,-104,78,3968,-3,-5,871,1765,1880,2074,2241,2043,1800,1863,1984
194063,15872,-15748,16438,-16330,-3800,-3800,-4,9,-1,-124,92,3961,5,7,871,1765,1880,2074,2241,2043,1800,1863,1984
195064,15864,-15756,16438,-16330,-3800,-3800,-4,10,-2,-126,96,3966,10,2,871,1765,1880,2074,2241,2043,1800,1863,1984
196065,15876,-15752,16438,-16330,-3800,-3800,-2,10,-1,-126,98,3958,11,0,871,1765,1880,2074,2241,2043,1800,1863,1984
197066,15872,-15752,16438,-16330,-3800,-3800,0,11,-1,-132,82,3925,9,10,871,1766,1880,2075,2242,2044,1801,1863,1983
198067,15868,-15748,16438,-16330,-3800,-3800,-1,11,-2,-139,70,3934,7,-3,871,1766,1880,2075,2242,2044,1801,1863,1983
199113,15876,-15744,16438,-16330,-3800,-3800,-3,10,-1,-122,100,3941,-3,5,871,1766,1880,2075,2242,2044,1801,1863,1983
200069,15880,-15744,16503,-16265,1135,-211,-2,8,0,-146,82,3937,-1,8,871,1766,1880,2075,2242,2044,1801,1863,1983
201070,15872,-15748,16568,-16200,1374,-78,-3,8,-1,-119,92,3946,11,5,871,1766,1880,2075,2242,2044,1801,1863,1983
202071,15884,-15744,16633,-16135,1189,-104,-4,9,-1,-85,104,3917,13,10,855,1766,1880,2075,2242,2044,1801,1863,1983
203072,15908,-15752,16698,-16070,1089,135,-6,6,2,-146,44,3915,25,20,852,1766,1880,2073,2240,2045,1801,1865,1985
204073,15920,-15748,16763,-16005,1305,60,-11,10,4,-112,8,3942,30,17,855,1766,1880,2073,2240,2045,1801,1865,1985
205074,15972,-15764,16828,-15940,820,409,-16,12,12,-12,16,3953,23,16,857,1766,1880,2073,2240,2045,1801,1865,1985
206075,16024,-15752,16893,-15875,836,123,-21,8,21,-88,-14,3865,50,20,854,1766,1880,2073,2240,2045,1801,1865,1985
207076,16092,-15748,16958,-15810,634,298,-31,-8,26,-330,46,3795,35,6,857,1766,1880,2073,2240,2045,1801,1865,1985
208077,16164,-15752,17023,-15745,575,482,-40,-12,23,-362,74,3822,40,7,860,1765,1877,2071,2239,2047,1802,1868,1988
209078,16260,-15732,17088,-15680,237,237,-36,-30,17,-176,87,3847,42,17,863,1765,1877,2071,2239,2047,1802,1868,1988
210079,16304,-15740,17153,-15615,914,676,-26,-37,18,-39,-56,3944,48,18,861,1765,1877,2071,2239,2047,1802,1868,1988
211080,16388,-15720,17218,-15550,391,381,-17,-21,19,-12,59,4044,45,18,867,1765,1877,2071,2239,2047,1802,1868,1988
212081,16464,-15732,17283,-15485,477,875,-13,3,17,-148,15,4046,56,17,854,1765,1877,2071,2239,2047,1802,1868,1988
213082,16548,-15700,17348,-15420,354,365,-7,21,18,-149,-29,4077,40,11,864,1765,1877,2071,2239,2047,1802,1868,1988
214083,16616,-15668,17413,-15355,551,406,-7,20,24,6,-20,3954,48,14,857,1762,1876,2068,2232,2046,1801,1865,1985
215084,16700,-15656,17478,-15290,328,720,-1,6,33,-55,32,4009,54,29,865,1762,1876,2068,2232,2046,1801,1865,1985
216085,16788,-15632,17543,-15225,250,620,-7,-13,37,-340,39,3816,41,15,863,1762,1876,2068,2232,2046,1801,1865,1985
217086,16856,-15620,17608,-15160,497,835,-6,-22,34,-427,82,4003,49,30,861,1762,1876,2068,2232,2046,1801,1865,1985
218087,16924,-15576,17673,-15095,494,461,-7,-39,35,-291,42,3698,49,20,863,1762,1876,2068,2232,2046,1801,1865,1985
219088,16996,-15548,17738,-15030,435,707,-9,-52,38,-198,89,4017,49,31,858,1766,1882,2076,2244,2044,1800,1866,1986
220089,17068,-15500,17803,-14965,427,478,-10,-68,42,-322,-11,3712,36,25,863,1766,1882,2076,2244,2044,1800,1866,1986
221090,17132,-15456,17868,-14900,529,553,-9,-52,29,-289,162,4154,53,42,861,1766,1882,2076,2244,2044,1800,1866,1986
222091,17216,-15416,17933,-14835,256,634,0,-49,34,-226,-59,3898,41,27,864,1766,1882,2076,2244,2044,1800,1866,1986
223092,17272,-15352,17998,-14770,617,336,3,-26,32,111,1,4243,45,42,861,1766,1882,2076,2244,2044,1800,1866,1986
224093,17332,-15316,18063,-14705,574,721,12,-20,34,303,12,4140,40,34,861,1766,1882,2076,2244,2044,1800,1866,1986
225094,17412,-15276,18128,-14640,306,702,22,-16,33,-233,-1,3925,51,44,860,1771,1886,2077,2246,2031,1794,1861,1979
226095,17476,-15224,18193,-14575,507,568,26,-30,28,-681,22,4103,36,31,859,1771,1886,2077,2246,2031,1794,1861,1979
227096,17528,-15148,18258,-14510,673,254,33,-17,15,-193,-7,3993,31,43,862,1771,1886,2077,2246,2031,1794,1861,1979
228097,17604,-15088,18323,-14445,360,461,43,-34,18,143,-5,3994,51,38,862,1771,1886,2077,2246,2031,1794,1861,1979
229098,17664,-15036,18388,-14380,566,577,47,-49,30,-101,41,3898,52,41,863,1771,1886,2077,2246,2031,1794,1861,1979
230099,17728,-14964,18453,-14315,518,319,33,-76,28,-509,18,3981,49,36,865,1780,1896,2088,2260,2035,1795,1863,1980
231100,17808,-14884,18518,-14250,299,200,23,-66,17,-514,34,4111,47,38,861,1780,1896,2088,2260,2035,1795,1863,1980
232101,17860,-14832,18583,-14185,666,567,23,-76,14,-225,100,4036,47,48,864,1780,1896,2088,2260,2035,1795,1863,1980
233102,17912,-14760,18648,-14120,682,309,28,-79,15,-101,-30,4095,32,47,867,1780,1896,2088,2260,2035,1795,1863,1980
234103,17972,-14704,18713,-14055,588,520,38,-88,6,-114,6,3982,34,37,860,1780,1896,2088,2260,2035,1795,1863,1980
235104,18032,-14648,18778,-13990,595,531,47,-88,-2,-235,-29,4078,46,41,862,1780,1896,2088,2260,2035,1795,1863,1980
236105,18088,-14584,18843,-13925,656,433,45,-73,-2,-337,32,4013,30,49,861,1782,1894,2087,2256,2041,1801,1868,1988
237106,18144,-14520,18908,-13860,667,434,47,-53,-3,-231,7,3955,32,45,861,1782,1894,2087,2256,2041,1801,1868,1988
238107,18208,-14448,18973,-13795,568,326,45,-57,-12,-258,58,4034,45,52,861,1782,1894,2087,2256,2041,1801,1868,1988
239110,18248,-14392,19038,-13730,900,537,54,-68,-5,-272,25,4056,47,40,861,1782,1894,2087,2256,2041,1801,1868,1988
240109,18304,-14340,19103,-13665,711,603,63,-98,3,-370,9,4040,44,44,864,1782,1894,2087,2256,2041,1801,1868,1988
241110,18352,-14276,19168,-13600,832,455,67,-112,-4,-412,33,4099,36,50,854,1772,1888,2076,2244,2044,1801,1868,1987
242111,18424,-14196,19233,-13535,524,236,71,-127,-3,-387,5,4049,36,45,856,1772,1888,2076,2244,2044,1801,1868,1987
243112,18476,-14148,19298,-13470,790,657,80,-126,-8,-254,105,4132,44,51,858,1772,1888,2076,2244,2044,1801,1868,1987
244113,18532,-14080,19363,-13405,751,404,78,-134,-14,-337,5,3960,29,52,865,1772,1888,2076,2244,2044,1801,1868,1987
245114,18576,-14012,19428,-13340,928,401,82,-136,-25,-164,-11,4056,43,38,856,1772,1888,2076,2244,2044,1801,1868,1987
246115,18640,-13940,19493,-13275,679,342,79,-132,-26,-122,44,4007,36,55,860,1772,1888,2076,2244,2044,1801,1868,1987
247116,18696,-13880,19558,-13210,790,498,76,-105,-26,-208,15,4021,46,43,858,1769,1883,2075,2241,2047,1801,1869,1990
248117,18740,-13812,19623,-13145,966,396,66,-103,-37,-202,39,3816,34,46,862,1769,1883,2075,2241,2047,1801,1869,1990
249118,18792,-13764,19688,-13080,882,666,62,-107,-44,-271,55,4003,49,48,858,1769,1883,2075,2241,2047,1801,1869,1990
250119,18868,-13680,19753,-13015,569,193,61,-137,-32,-266,-133,3781,35,46,857,1769,1883,2075,2241,2047,1801,1869,1990
251120,18908,-13608,19818,-12950,1050,335,84,-181,-32,-162,-237,3853,36,51,855,1769,1883,2075,2241,2047,1801,1869,1990
252121,18960,-13564,19883,-12885,916,711,117,-199,-56,-738,-258,3757,31,47,864,1769,1882,2075,2241,2048,1803,1868,1986
253122,19032,-13500,19948,-12820,658,463,148,-174,-92,-983,-115,4076,50,49,856,1769,1882,2075,2241,2048,1803,1868,1986
254123,19100,-13428,20013,-12755,705,354,149,-168,-94,-443,-57,3696,46,45,854,1769,1882,2075,2241,2048,1803,1868,1986
255124,19164,-13352,20078,-12690,756,291,146,-170,-90,-4,50,3840,38,46,860,1769,1882,2075,2241,2048,1803,1868,1986
256125,19232,-13300,20143,-12625,703,607,133,-170,-80,-245,-3,3884,36,38,862,1769,1882,2075,2241,2048,1803,1868,1986
257126,19288,-13236,20208,-12560,865,459,132,-157,-70,-532,-36,4011,34,44,861,1769,1882,2075,2241,2048,1803,1868,1986
258127,19340,-13172,20273,-12495,930,460,132,-151,-72,-587,41,3941,29,49,856,1775,1887,2074,2244,2020,1781,1852,1963
259128,19404,-13108,20338,-12430,782,461,131,-154,-62,-412,0,3981,41,38,856,1775,1887,2074,2244,2020,1781,1852,1963
260129,19456,-13036,20403,-12365,949,354,127,-175,-42,-271,105,3989,36,37,856,1775,1887,2074,2244,2020,1781,1852,1963
261130,19532,-12984,20468,-12300,635,619,124,-192,-21,-306,54,3941,44,46,859,1775,1887,2074,2244,2020,1781,1852,1963
262131,19588,-12916,20533,-12235,896,416,123,-226,-9,-206,-34,3950,37,50,858,1775,1887,2074,2244,2020,1781,1852,1963
263132,19628,-12848,20598,-12170,1128,412,133,-215,-15,-364,-33,3959,43,37,860,1771,1882,2070,2245,2017,1782,1852,1971
264133,19688,-12800,20663,-12105,884,684,141,-197,-25,-312,-103,3958,33,45,858,1771,1882,2070,2245,2017,1782,1852,1971
265134,19768,-12744,20728,-12040,615,595,149,-181,-28,-16,-52,4018,38,50,855,1771,1882,2070,2245,2017,1782,1852,1971
266135,19812,-12672,20793,-11975,1092,386,169,-171,-43,115,23,3939,50,43,855,1771,1882,2070,2245,2017,1782,1852,1971
267136,19868,-12608,20858,-11910,953,489,179,-167,-52,-287,-96,4038,31,49,859,1771,1882,2070,2245,2017,1782,1852,1971
268137,19920,-12548,20923,-11845,1020,545,205,-177,-66,-167,-42,4055,44,40,855,1771,1882,2070,2245,2017,1782,1852,1971
269138,19964,-12500,20988,-11780,1146,715,225,-200,-81,-182,-6,3886,40,43,856,1775,1884,2077,2249,2036,1795,1861,1980
270139,20032,-12424,21053,-11715,842,352,245,-217,-88,-204,-72,3942,34,40,854,1775,1884,2077,2249,2036,1795,1861,1980
271140,20084,-12384,21118,-11650,1059,833,255,-226,-88,-364,38,3871,55,52,851,1775,1884,2077,2249,2036,1795,1861,1980
272141,20156,-12316,21183,-11585,800,480,256,-243,-80,-341,110,3869,37,40,859,1775,1884,2077,2249,2036,1795,1861,1980
273142,20212,-12228,21248,-11520,1012,202,264,-240,-79,-121,30,3972,48,38,850,1775,1884,2077,2249,2036,1795,1861,1980
274143,20264,-12176,21313,-11455,1078,668,271,-243,-80,-187,38,3840,45,47,858,1784,1898,2090,2263,2042,1798,1867,1983
275144,20340,-12112,21378,-11390,765,520,279,-232,-73,-448,-17,4014,50,46,856,1784,1898,2090,2263,2042,1798,1867,1983
276145,20392,-12048,21443,-11325,1081,521,273,-223,-54,-296,8,3978,43,36,849,1784,1898,2090,2263,2042,1798,1867,1983
277146,20460,-12008,21508,-11260,878,852,284,-201,-44,-39,21,3924,44,44,858,1784,1898,2090,2263,2042,1798,1867,1983
278147,20520,-11920,21573,-11195,985,225,281,-189,-26,-139,-24,3998,31,45,853,1784,1898,2090,2263,2042,1798,1867,1983
279148,20576,-11860,21638,-11130,1046,581,285,-185,-13,-131,-16,4025,33,54,853,1784,1898,2090,2263,2042,1798,1867,1983
280149,20632,-11792,21703,-11065,1057,477,290,-179,-3,-158,-67,3993,48,39,858,1785,1900,2085,2255,2031,1791,1862,1978
281150,20688,-11736,21768,-11000,1069,638,296,-176,-7,-233,11,4053,42,41,854,1785,1900,2085,2255,2031,1791,1862,1978
282151,20748,-11672,21833,-10935,1025,540,293,-179,2,-180,-26,3991,48,49,854,1785,1900,2085,2255,2031,1791,1862,1978
283152,20808,-11624,21898,-10870,1032,761,292,-206,13,75,-37,4097,42,47,852,1785,1900,2085,2255,2031,1791,1862,1978
284153,20864,-11556,21963,-10805,1093,507,299,-218,12,9,-62,4046,31,40,854,1785,1900,2085,2255,2031,1791,1862,1978
285154,20924,-11492,22028,-10740,1049,558,309,-233,5,-176,-60,4133,48,40,851,1772,1882,2074,2242,2037,1795,1862,1981
286155,20964,-11420,22093,-10675,1331,451,300,-231,4,-11,-17,4039,37,51,853,1772,1882,2074,2242,2037,1795,1862,1981
287156,21024,-11376,22158,-10610,1087,827,293,-244,3,46,85,3801,34,49,853,1772,1882,2074,2242,2037,1795,1862,1981
288157,21088,-11300,22223,-10545,1039,413,290,-228,-1,101,68,4081,40,47,851,1772,1882,2074,2242,2037,1795,1862,1981
289158,21148,-11244,22288,-10480,1095,675,306,-180,4,-8,-1,4268,40,41,850,1772,1882,2074,2242,2037,1795,1862,1981
290159,21212,-11172,22353,-10415,1046,467,340,-134,10,-130,-51,4345,53,47,856,1772,1882,2074,2242,2037,1795,1862,1981
291160,21256,-11128,22418,-10350,1323,842,378,-87,14,-165,-5,4179,52,37,851,1767,1875,2070,2239,2058,1812,1876,1996
292161,21308,-11056,22483,-10285,1239,484,391,-79,12,-92,142,4050,52,45,852,1767,1875,2070,2239,2058,1812,1876,1996
293162,21372,-11000,22548,-10220,1091,696,396,-65,20,-37,188,4118,40,54,842,1767,1875,2070,2239,2058,1812,1876,1996
294163,21440,-10936,22613,-10155,1037,597,383,-82,35,-416,291,3808,44,52,851,1767,1875,2070,2239,2058,1812,1876,1996
295164,21496,-10868,22678,-10090,1199,543,360,-121,39,-598,168,3748,43,51,851,1767,1875,2070,2239,2058,1812,1876,1996
296165,21564,-10804,22743,-10025,1046,595,345,-178,48,-518,86,3697,39,54,854,1775,1887,2088,2265,2059,1814,1876,1992
297166,21612,-10752,22808,-9960,1317,761,336,-200,50,-322,130,3915,52,49,851,1775,1887,2088,2265,2059,1814,1876,1992
298167,21688,-10680,22873,-9895,954,503,338,-190,50,-230,54,4014,57,43,854,1775,1887,2088,2265,2059,1814,1876,1992
299168,21756,-10612,22938,-9830,1051,550,334,-176,68,-80,166,3989,42,44,847,1775,1887,2088,2265,2059,1814,1876,1992
300169,21824,-10556,23003,-9765,1048,711,323,-161,84,16,-4,3814,46,39,856,1775,1887,2088,2265,2059,1814,1876,1992
301170,21892,-10500,23068,-9700,1044,722,323,-147,82,52,-85,3935,40,45,854,1775,1887,2088,2265,2059,1814,1876,1992
302171,21952,-10436,23133,-9635,1151,623,338,-111,76,56,-106,4042,36,37,851,1780,1892,2079,2255,2052,1806,1868,1992
303172,22024,-10408,23198,-9570,993,1119,336,-89,82,-33,-124,4040,41,48,852,1780,1892,2079,2255,2052,1806,1868,1992
304173,22096,-10332,23263,-9505,985,506,338,-61,97,65,31,4080,45,35,851,1780,1892,2079,2255,2052,1806,1868,1992
305174,22156,-10292,23328,-9440,1141,987,335,-55,102,62,29,3949,37,41,847,1780,1892,2079,2255,2052,1806,1868,1992
306175,22220,-10228,23393,-9375,1093,689,345,-72,109,-43,30,4082,39,34,855,1780,1892,2079,2255,2052,1806,1868,1992
307176,22272,-10152,23458,-9310,1259,525,351,-89,119,-106,34,4135,38,43,846,1769,1880,2072,2233,2045,1792,1857,1983
308177,22336,-10096,23523,-9245,1111,786,358,-107,126,-252,141,4058,47,47,851,1769,1880,2072,2233,2045,1792,1857,1983
309178,22388,-10052,23588,-9180,1277,963,351,-100,128,-319,209,4006,50,36,848,1769,1880,2072,2233,2045,1792,1857,1983
310179,22468,-9988,23653,-9115,909,714,342,-118,114,-325,291,3940,53,45,847,1769,1880,2072,2233,2045,1792,1857,1983
311180,22504,-9924,23718,-9050,1495,715,339,-127,108,-254,282,3974,39,37,844,1769,1880,2072,2233,2045,1792,1857,1983
312181,22584,-9860,23783,-8985,927,718,337,-143,112,-150,270,3973,47,38,853,1769,1880,2072,2233,2045,1792,1857,1983
313182,22628,-9792,23848,-8920,1404,664,343,-150,113,-175,287,3974,60,36,844,1759,1874,2066,2233,2043,1797,1869,1987
314183,22676,-9752,23913,-8855,1375,1044,338,-183,112,-210,318,3797,38,44,853,1759,1874,2066,2233,2043,1797,1869,1987
315184,22748,-9688,23978,-8790,1067,747,334,-189,89,-189,377,3722,47,52,847,1759,1874,2066,2233,2043,1797,1869,1987
316185,22804,-9620,24043,-8725,1278,693,312,-190,94,-150,156,3710,61,43,841,1759,1874,2066,2233,2043,1797,1869,1987
317186,22888,-9552,24108,-8660,906,689,322,-184,94,225,107,3881,39,50,850,1759,1874,2066,2233,2043,1797,1869,1987
318187,22964,-9520,24173,-8595,992,1181,341,-202,108,-88,-29,3724,48,47,847,1766,1879,2074,2230,2052,1807,1873,1999
319188,23024,-9444,24238,-8530,1199,617,355,-228,120,-276,-79,3651,38,46,854,1766,1879,2074,2230,2052,1807,1873,1999
320189,23076,-9396,24303,-8465,1315,988,367,-233,125,-81,-6,3810,38,46,845,1766,1879,2074,2230,2052,1807,1873,1999
321190,23156,-9340,24368,-8400,947,900,358,-250,137,51,-171,3660,52,53,850,1766,1879,2074,2230,2052,1807,1873,1999
322191,23216,-9272,24433,-8335,1204,746,362,-242,143,280,70,3968,57,51,843,1766,1879,2074,2230,2052,1807,1873,1999
323192,23280,-9200,24498,-8270,1155,688,363,-248,149,21,-44,3883,36,52,851,1766,1879,2074,2230,2052,1807,1873,1999
324193,23352,-9128,24563,-8205,1048,680,364,-243,145,-96,80,3990,50,37,848,1763,1876,2073,2232,2038,1790,1858,1981
325194,23408,-9084,24628,-8140,1259,1056,363,-244,153,-39,157,3949,39,36,850,1763,1876,2073,2232,2038,1790,1858,1981
326195,23472,-9044,24693,-8075,1161,1136,350,-239,159,209,159,3875,34,35,849,1763,1876,2073,2232,2038,1790,1858,1981
327196,23520,-8992,24758,-8010,1382,1003,339,-224,143,271,131,3900,41,42,840,1763,1876,2073,2232,2038,1790,1858,1981
328197,23584,-8908,24823,-7945,1184,580,317,-191,133,-77,305,4207,47,39,843,1763,1876,2073,2232,2038,1790,1858,1981
329198,23652,-8852,24888,-7880,1130,942,307,-198,130,-188,339,3810,53,51,841,1764,1880,2068,2228,2028,1784,1852,1974
330199,23704,-8804,24953,-7815,1347,1063,291,-226,125,-253,337,3973,54,47,851,1764,1880,2068,2228,2028,1784,1852,1974
331200,23764,-8740,25018,-7750,1253,864,281,-272,134,-276,163,3963,40,50,846,1764,1880,2068,2228,2028,1784,1852,1974
332201,23824,-8684,25083,-7685,1260,976,274,-287,137,103,306,3958,56,53,841,1764,1880,2068,2228,2028,1784,1852,1974
333202,23880,-8628,25148,-7620,1321,987,281,-298,138,-102,177,3809,55,50,846,1764,1880,2068,2228,2028,1784,1852,1974
334203,23952,-8572,25213,-7555,1114,998,292,-268,119,-138,293,4110,58,47,844,1764,1880,2068,2228,2028,1784,1852,1974
335204,24000,-8512,25278,-7490,1435,955,311,-253,123,-118,161,3869,60,38,843,1757,1870,2063,2231,2061,1814,1875,2001
336205,24060,-8444,25343,-7425,1292,851,323,-237,128,267,93,3936,54,39,846,1757,1870,2063,2231,2061,1814,1875,2001
337206,24148,-8384,25408,-7360,914,959,336,-227,118,328,314,4111,61,51,841,1757,1870,2063,2231,2061,1814,1875,2001
338207,24192,-8344,25473,-7295,1490,1239,354,-177,109,182,221,4068,52,49,845,1757,1870,2063,2231,2061,1814,1875,2001
339208,24260,-8276,25538,-7230,1187,885,382,-149,99,144,132,4055,40,38,850,1757,1870,2063,2231,2061,1814,1875,2001
340209,24360,-8216,25603,-7165,744,992,393,-151,90,106,166,3917,56,52,835,1737,1856,2056,2231,2049,1819,1875,2008
341210,24420,-8164,25668,-7100,1251,1108,403,-178,100,3,62,3744,56,51,847,1737,1856,2056,2231,2049,1819,1875,2008
342211,24480,-8108,25733,-7035,1257,1070,387,-207,115,9,145,3808,40,46,852,1737,1856,2056,2231,2049,1819,1875,2008
343212,24544,-8044,25798,-6970,1209,972,373,-225,120,137,267,3881,44,39,839,1737,1856,2056,2231,2049,1819,1875,2008
344213,24600,-7992,25863,-6905,1320,1137,353,-237,135,107,264,3909,51,41,839,1737,1856,2056,2231,2049,1819,1875,2008
345214,24692,-7940,25928,-6840,838,1154,349,-224,119,302,375,4054,45,50,844,1737,1856,2056,2231,2049,1819,1875,2008
346215,24732,-7876,25993,-6775,1519,1005,323,-213,118,-25,272,3937,37,50,839,1773,1888,2111,2271,2047,1813,1877,1997
347216,24780,-7808,26058,-6710,1441,953,312,-182,115,288,337,4024,40,39,847,1773,1888,2111,2271,2047,1813,1877,1997
348217,24856,-7764,26123,-6645,1077,1278,298,-140,101,401,347,4171,39,51,838,1773,1888,2111,2271,2047,1813,1877,1997
349218,24908,-7720,26188,-6580,1394,1304,299,-110,85,119,333,4175,55,33,840,1773,1888,2111,2271,2047,1813,1877,1997
350219,24968,-7672,26253,-6515,1300,1276,292,-99,67,68,287,4204,36,46,840,1773,1888,2111,2271,2047,1813,1877,1997
351220,25028,-7628,26318,-6450,1307,1351,305,-80,36,346,498,4116,47,36,835,1770,1878,2070,2240,2035,1789,1856,1970
352221,25092,-7564,26383,-6385,1258,1104,300,-75,41,29,225,4042,48,38,838,1770,1878,2070,2240,2035,1789,1856,1970
353222,25140,-7504,26448,-6320,1480,1160,311,-72,39,133,312,4079,40,50,837,1770,1878,2070,2240,2035,1789,1856,1970
354223,25196,-7448,26513,-6255,1391,1222,329,-80,26,48,358,4102,49,40,841,1770,1878,2070,2240,2035,1789,1856,1970
355224,25276,-7384,26578,-6190,1074,1123,357,-109,15,-70,292,3917,58,51,836,1770,1878,2070,2240,2035,1789,1856,1970
356225,25316,-7332,26643,-6125,1604,1290,381,-120,-3,87,394,4129,51,52,836,1770,1878,2070,2240,2035,1789,1856,1970
357226,25400,-7280,26708,-6060,1032,1306,400,-160,10,-151,176,3760,56,41,844,1747,1861,2067,2232,2050,1804,1862,1985
358227,25444,-7208,26773,-5995,1558,1048,419,-157,6,115,428,4133,63,54,833,1747,1861,2067,2232,2050,1804,1862,1985
359228,25524,-7144,26838,-5930,1091,1149,441,-165,-2,238,456,3953,55,56,842,1747,1861,2067,2232,2050,1804,1862,1985
360229,25608,-7100,26903,-5865,1017,1425,447,-168,2,232,291,3907,45,47,841,1747,1861,2067,2232,2050,1804,1862,1985
361230,25680,-7032,26968,-5800,1160,1122,448,-156,8,177,266,3863,43,51,840,1747,1861,2067,2232,2050,1804,1862,1985
362231,25736,-6952,27033,-5735,1371,954,439,-124,18,-190,332,3914,46,47,842,1756,1884,2087,2253,2039,1797,1861,1984
363232,25808,-6900,27098,-5670,1163,1321,436,-94,9,222,524,4101,41,55,841,1756,1884,2087,2253,2039,1797,1861,1984
364233,25872,-6856,27163,-5605,1264,1447,429,-78,-2,829,550,3990,51,50,840,1756,1884,2087,2253,2039,1797,1861,1984
365234,25944,-6792,27228,-5540,1157,1199,419,-101,-13,360,529,3870,46,53,835,1756,1884,2087,2253,2039,1797,1861,1984
366235,26000,-6720,27293,-5475,1368,1090,411,-101,-35,-221,582,4093,50,42,841,1756,1884,2087,2253,2039,1797,1861,1984
367236,26064,-6660,27358,-5410,1270,1247,399,-94,-59,67,602,4071,39,47,839,1756,1884,2087,2253,2039,1797,1861,1984
368237,26120,-6588,27423,-5345,1381,1089,404,-97,-77,428,573,4149,57,41,838,1784,1894,2084,2252,2024,1775,1846,1969
369238,26184,-6536,27488,-5280,1283,1356,400,-100,-98,270,524,4072,52,51,839,1784,1894,2084,2252,2024,1775,1846,1969
370239,26248,-6476,27553,-5215,1285,1262,412,-115,-115,-163,500,4177,40,42,836,1784,1894,2084,2252,2024,1775,1846,1969
371240,26312,-6416,27618,-5150,1287,1269,410,-131,-134,-180,425,4054,44,39,838,1784,1894,2084,2252,2024,1775,1846,1969
372241,26368,-6356,27683,-5085,1398,1275,431,-139,-154,169,310,4039,42,51,838,1784,1894,2084,2252,2024,1775,1846,1969
373242,26432,-6296,27748,-5020,1300,1282,452,-147,-154,108,350,4153,49,48,836,1764,1879,2075,2235,2031,1790,1850,1976
374243,26500,-6248,27813,-4955,1246,1453,477,-151,-161,-71,448,4157,57,40,836,1764,1879,2075,2235,2031,1790,1850,1976
375244,26572,-6228,27878,-4890,1189,1859,495,-154,-172,3,355,3998,58,35,835,1764,1879,2075,2235,2031,1790,1850,1976
376245,26632,-6152,27943,-4825,1345,1145,518,-161,-171,7,360,4039,45,33,825,1764,1879,2075,2235,2031,1790,1850,1976
377246,26688,-6100,28008,-4760,1407,1462,530,-178,-154,-6,365,3968,45,45,837,1764,1879,2075,2235,2031,1790,1850,1976
378247,26756,-6048,28073,-4695,1253,1478,549,-183,-157,237,502,4044,47,45,832,1764,1879,2075,2235,2031,1790,1850,1976
379248,26852,-5992,28138,-4630,866,1440,569,-197,-169,152,618,4023,51,47,835,1731,1843,2049,2191,2024,1776,1835,1955
380249,26908,-5964,28203,-4565,1377,1835,587,-203,-149,-338,466,3831,47,44,842,1731,1843,2049,2191,2024,1776,1835,1955
381250,26992,-5908,28268,-4500,1005,1497,584,-194,-135,-350,497,4004,58,39,824,1731,1843,2049,2191,2024,1776,1835,1955
382251,27064,-5852,28333,-4435,1147,1508,569,-149,-135,29,545,4020,44,45,837,1731,1843,2049,2191,2024,1776,1835,1955
383252,27116,-5808,28398,-4370,1413,1685,561,-103,-131,85,632,4070,40,42,835,1731,1843,2049,2191,2024,1776,1835,1955
384253,27192,-5776,28463,-4305,1100,1875,551,-100,-143,210,768,4090,40,41,826,1815,1888,2084,2303,2047,1808,1880,2015
385254,27248,-5724,28528,-4240,1362,1642,562,-155,-156,417,676,3796,45,43,828,1815,1888,2084,2303,2047,1808,1880,2015
386255,27328,-5668,28593,-4175,1044,1603,553,-222,-165,313,687,3775,53,34,829,1815,1888,2084,2303,2047,1808,1880,2015
387256,27392,-5608,28658,-4110,1245,1560,554,-242,-162,-140,536,4033,42,43,835,1815,1888,2084,2303,2047,1808,1880,2015
388257,27456,-5556,28723,-4045,1247,1677,538,-222,-167,89,563,3968,44,41,833,1815,1888,2084,2303,2047,1808,1880,2015
389258,27520,-5536,28788,-3980,1248,2132,535,-182,-180,114,536,4161,39,40,830,1815,1888,2084,2303,2047,1808,1880,2015
390259,27576,-5468,28853,-3915,1360,1529,533,-183,-182,116,445,3939,53,41,821,1773,1881,2067,2231,2037,1793,1849,1973
391260,27636,-5428,28918,-3850,1316,1910,544,-223,-174,105,367,4061,49,55,832,1773,1881,2067,2231,2037,1793,1849,1973
392261,27716,-5352,28983,-3785,1049,1447,551,-251,-164,72,390,4096,58,37,824,1773,1881,2067,2231,2037,1793,1849,1973
393262,27756,-5280,29048,-3720,1580,1489,558,-248,-160,64,292,4085,42,41,835,1773,1881,2067,2231,2037,1793,1849,1973
394263,27804,-5228,29113,-3655,1501,1756,559,-216,-152,-108,285,4302,49,40,826,1773,1881,2067,2231,2037,1793,1849,1973
395264,27872,-5176,29178,-3590,1248,1773,574,-221,-145,11,297,4284,57,55,824,1749,1856,2061,2218,2051,1809,1867,1985
396265,27936,-5124,29243,-3525,1300,1788,597,-254,-137,234,255,4079,59,57,829,1749,1856,2061,2218,2051,1809,1867,1985
397266,27996,-5040,29308,-3460,1356,1366,605,-312,-124,220,269,4115,56,55,828,1749,1856,2061,2218,2051,1809,1867,1985
398267,28064,-4964,29373,-3395,1253,1453,614,-338,-106,-320,291,4184,48,57,835,1749,1856,2061,2218,2051,1809,1867,1985
399268,28152,-4888,29438,-3330,975,1440,616,-341,-88,-586,281,4200,48,44,835,1749,1856,2061,2218,2051,1809,1867,1985
400269,28240,-4828,29503,-3265,948,1647,620,-322,-80,-255,294,4318,44,40,839,1751,1866,2067,2231,2066,1811,1878,2005
401270,28292,-4768,29568,-3200,1414,1654,609,-300,-81,62,290,4197,40,52,837,1751,1866,2067,2231,2066,1811,1878,2005
402271,28368,-4708,29633,-3135,1102,1661,608,-300,-68,-411,173,4117,44,42,828,1751,1866,2067,2231,2066,1811,1878,2005
403272,28436,-4632,29698,-3070,1198,1447,574,-349,-72,-228,631,3886,56,55,834,1751,1866,2067,2231,2066,1811,1878,2005
404273,28524,-4568,29763,-3005,921,1599,533,-333,-102,35,563,4621,47,46,835,1751,1866,2067,2231,2066,1811,1878,2005
405274,28592,-4492,29828,-2940,1167,1437,525,-277,-121,-64,464,4706,40,52,837,1751,1866,2067,2231,2066,1811,1878,2005
406275,28652,-4424,29893,-2875,1274,1533,508,-306,-94,278,971,3498,38,51,837,1790,1885,2076,2252,2074,1818,1884,2018
407276,28716,-4364,29958,-2810,1226,1640,485,-300,-74,298,523,4058,51,43,833,1790,1885,2076,2252,2074,1818,1884,2018
408277,28788,-4312,30023,-2745,1118,1756,470,-297,-108,-307,678,3912,39,54,831,1790,1885,2076,2252,2074,1818,1884,2018
409278,28836,-4240,30088,-2680,1439,1499,456,-292,-108,-228,403,4276,49,47,831,1790,1885,2076,2252,2074,1818,1884,2018
410279,28912,-4168,30153,-2615,1076,1491,460,-315,-82,194,339,3485,44,50,828,1790,1885,2076,2252,2074,1818,1884,2018
411280,28988,-4120,30218,-2550,1063,1812,467,-359,-58,-306,332,4181,46,51,833,1768,1871,2073,2229,2076,1824,1870,1983
412281,29028,-4044,30283,-2485,1544,1450,482,-366,-43,-349,292,4344,57,50,831,1768,1871,2073,2229,2076,1824,1870,1983
413282,29084,-3992,30348,-2420,1355,1765,488,-391,-19,-50,142,3844,53,44,828,1768,1871,2073,2229,2076,1824,1870,1983
414283,29156,-3916,30413,-2355,1147,1453,495,-427,2,-82,314,4220,49,42,827,1768,1871,2073,2229,2076,1824,1870,1983
415284,29216,-3864,30478,-2290,1304,1770,502,-462,17,-368,290,4188,50,50,836,1768,1871,2073,2229,2076,1824,1870,1983
416286,29280,-3792,30543,-2225,1255,1511,503,-468,17,-105,336,4342,41,53,828,1768,1871,2073,2229,2076,1824,1870,1983
417286,29392,-3736,30608,-2160,599,1723,522,-481,15,138,452,4281,46,55,833,1736,1818,2016,2176,2003,1787,1838,1952
418287,29456,-3680,30673,-2095,1200,1734,523,-516,37,12,318,3990,56,45,839,1736,1818,2016,2176,2003,1787,1838,1952
419288,29524,-3604,30738,-2030,1147,1472,503,-550,58,-461,325,4037,41,39,831,1736,1818,2016,2176,2003,1787,1838,1952
420289,29592,-3556,30803,-1965,1144,1844,470,-565,71,-829,497,4119,35,47,835,1736,1818,2016,2176,2003,1787,1838,1952
421290,29648,-3472,30868,-1900,1306,1370,450,-546,63,-264,692,4080,34,51,828,1736,1818,2016,2176,2003,1787,1838,1952
422291,29712,-3424,30933,-1835,1207,1842,441,-564,47,289,812,4001,33,53,835,1750,1869,2096,2248,2048,1792,1856,1988
423292,29772,-3352,30998,-1770,1264,1534,425,-607,54,377,766,3832,52,51,827,1750,1869,2096,2248,2048,1792,1856,1988
424293,29840,-3308,31063,-1705,1160,1910,393,-623,48,2,895,3993,35,40,832,1750,1869,2096,2248,2048,1792,1856,1988
425294,29884,-3244,31128,-1640,1487,1663,362,-612,42,-349,932,3872,36,38,827,1750,1869,2096,2248,2048,1792,1856,1988
426295,29964,-3168,31193,-1575,1019,1499,346,-572,43,176,913,3936,39,49,826,1750,1869,2096,2248,2048,1792,1856,1988
427296,30036,-3116,31258,-1510,1111,1816,333,-542,54,391,778,3757,58,41,836,1750,1869,2096,2248,2048,1792,1856,1988
428297,30092,-3060,31323,-1445,1322,1777,339,-532,72,-35,785,3810,41,47,827,1783,1895,2087,2247,2087,1823,1883,2015
429298,30144,-2996,31388,-1380,1388,1679,348,-562,101,-302,620,3685,37,50,825,1783,1895,2087,2247,2087,1823,1883,2015
430299,30228,-2936,31453,-1315,966,1736,364,-592,113,-44,556,3638,56,56,826,1783,1895,2087,2247,2087,1823,1883,2015
431300,30284,-2860,31518,-1250,1327,1523,383,-619,139,-249,663,3805,51,47,834,1783,1895,2087,2247,2087,1823,1883,2015
432301,30336,-2804,31583,-1185,1394,1785,403,-641,177,-352,640,3756,36,43,832,1783,1895,2087,2247,2087,1823,1883,2015
433302,30412,-2732,31648,-1120,1080,1576,416,-667,198,-63,731,3888,40,42,826,1750,1854,2058,2209,2060,1816,1864,1980
434303,30468,-2648,31713,-1055,1342,1404,432,-682,220,-213,671,3820,47,55,835,1750,1854,2058,2209,2060,1816,1864,1980
435304,30520,-2596,31778,-990,1408,1821,437,-703,245,-87,677,3859,47,45,833,1750,1854,2058,2209,2060,1816,1864,1980
436305,30596,-2524,31843,-925,1096,1562,449,-731,265,237,727,3863,47,49,824,1750,1854,2058,2209,2060,1816,1864,1980
437306,30648,-2468,31908,-860,1412,1774,453,-779,302,186,667,3714,49,56,834,1750,1854,2058,2209,2060,1816,1864,1980
438307,30740,-2388,31973,-795,880,1456,460,-788,315,-96,714,3985,41,47,825,1750,1854,2058,2209,2060,1816,1864,1980
439308,30788,-2332,32038,-730,1450,1768,467,-803,327,-358,785,4225,47,46,841,1751,1851,2051,2214,2011,1767,1830,1951
440309,30848,-2264,32103,-665,1307,1615,474,-786,341,-105,719,4300,58,47,823,1751,1851,2051,2214,2011,1767,1830,1951
441310,30912,-2212,32168,-600,1259,1831,460,-729,349,193,774,4357,49,43,831,1751,1851,2051,2214,2011,1767,1830,1951
442311,30988,-2152,32233,-535,1096,1738,436,-651,349,316,942,4396,53,44,826,1751,1851,2051,2214,2011,1767,1830,1951
443312,31072,-2080,32298,-470,973,1581,398,-597,369,88,838,3937,52,40,829,1751,1851,2051,2214,2011,1767,1830,1951
444313,31164,-2028,32363,-405,841,1847,359,-591,377,253,961,3895,57,50,835,1775,1852,2058,2237,2004,1769,1832,1960
445314,31236,-1960,32428,-340,1083,1644,325,-638,378,387,967,3782,46,35,831,1775,1852,2058,2237,2004,1769,1832,1960
446315,31296,-1892,32493,-275,1239,1640,298,-656,374,105,996,3784,40,38,833,1775,1852,2058,2237,2004,1769,1832,1960
447316,31376,-1852,32558,-210,971,2022,281,-659,379,-337,878,3677,48,50,830,1775,1852,2058,2237,2004,1769,1832,1960
448317,31448,-1768,32623,-145,1063,1450,267,-639,389,-56,938,3758,41,43,827,1775,1852,2058,2237,2004,1769,1832,1960
449318,31512,-1716,32822,54,2016,2716,261,-616,400,158,895,3652,50,36,836,1775,1852,2058,2237,2004,1769,1832,1960
450319,31560,-1656,32887,119,2236,2623,267,-597,413,14,910,3781,56,34,791,1777,1878,2080,2239,2057,1816,1878,2015
451320,31652,-1584,32952,184,1654,2466,289,-602,431,-91,887,3799,62,42,789,1777,1878,2080,2239,2057,1816,1878,2015
452321,31724,-1520,33017,249,1896,2567,318,-603,443,23,713,3697,76,54,803,1777,1878,2080,2239,2057,1816,1878,2015
453322,31816,-1436,33082,314,1614,2295,344,-616,477,-148,506,3891,78,55,799,1777,1878,2080,2239,2057,1816,1878,2015
454323,31884,-1340,33147,379,1910,2108,384,-621,528,-80,615,4075,73,56,811,1777,1878,2080,2239,2057,1816,1878,2015
455324,31996,-1256,33212,444,1304,2235,417,-649,543,126,781,4026,79,60,810,1728,1840,2061,2176,2056,1800,1840,1964
456325,32100,-1176,33277,509,1356,2267,450,-646,550,-196,786,4231,88,72,818,1728,1840,2061,2176,2056,1800,1840,1964
457326,32216,-1056,33342,574,1145,1701,479,-644,574,-293,585,4268,71,56,816,1728,1840,2061,2176,2056,1800,1840,1964
458327,32320,-972,33407,639,1247,2128,499,-667,619,-285,685,4350,66,62,830,1728,1840,2061,2176,2056,1800,1840,1964
459328,32428,-876,33472,704,1145,1941,486,-577,603,-425,738,4967,63,60,822,1728,1840,2061,2176,2056,1800,1840,1964
460329,32544,-796,33537,769,984,2123,468,-498,589,124,1189,4546,76,68,827,1728,1840,2061,2176,2056,1800,1840,1964
461330,32636,-704,33602,834,1251,1941,457,-554,613,931,1197,4413,75,55,827,1732,1840,2056,2224,2028,1776,1836,1956
462331,32720,-600,33667,899,1329,1744,416,-623,590,539,1407,4361,67,55,824,1732,1840,2056,2224,2028,1776,1836,1956
463332,32836,-512,33732,964,866,1916,392,-607,561,-258,1372,4399,59,72,828,1732,1840,2056,2224,2028,1776,1836,1956
464334,32912,-424,33797,1029,1353,1889,353,-610,548,286,1431,4544,58,70,832,1732,1840,2056,2224,2028,1776,1836,1956
465334,32988,-336,33862,1094,1340,1861,324,-573,527,466,1131,4332,57,51,825,1732,1840,2056,2224,2028,1776,1836,1956
466335,33056,-244,33927,1159,1437,1779,303,-542,516,186,1223,4652,56,66,825,1828,1939,2143,2319,2071,1810,1872,2027
467336,33132,-160,33992,1224,1323,1856,297,-572,513,402,1182,4458,65,65,826,1828,1939,2143,2319,2071,1810,1872,2027
468337,33240,-64,34057,1289,872,1669,295,-580,535,694,1007,4503,72,61,826,1828,1939,2143,2319,2071,1810,1872,2027
469338,33324,8,34122,1354,1149,1961,290,-576,529,451,1026,4115,53,61,837,1828,1939,2143,2319,2071,1810,1872,2027
470339,33428,96,34187,1419,851,1733,305,-575,518,-408,915,4430,58,47,825,1828,1939,2143,2319,2071,1810,1872,2027
471340,33496,164,34252,1484,1298,1980,332,-572,547,-609,441,4556,64,57,836,1828,1939,2143,2319,2071,1810,1872,2027
472341,33572,248,34317,1549,1185,1758,330,-532,591,-453,346,4358,54,45,823,1810,1923,2143,2299,2111,1857,1895,2041
473342,33656,308,34382,1614,1062,2064,354,-510,607,-325,799,4506,53,61,830,1810,1923,2143,2299,2111,1857,1895,2041
474343,33728,396,34447,1679,1203,1687,370,-555,609,-47,975,4381,53,52,826,1810,1923,2143,2299,2111,1857,1895,2041
475344,33788,472,34512,1744,1360,1823,393,-680,612,871,980,4071,58,62,831,1810,1923,2143,2299,2111,1857,1895,2041
476345,33876,560,34577,1809,982,1646,411,-784,622,78,1185,3957,52,63,824,1810,1923,2143,2299,2111,1857,1895,2041
477346,33940,624,34642,1874,1283,1947,418,-798,611,-933,1295,4511,45,63,835,1786,1899,2117,2277,2105,1839,1880,2007
478347,33988,700,34707,1939,1504,1785,406,-752,589,159,1368,4480,56,59,823,1786,1899,2117,2277,2105,1839,1880,2007
479348,34064,800,34772,2004,1142,1442,378,-743,585,945,1359,4383,60,53,821,1786,1899,2117,2277,2105,1839,1880,2007
480349,34140,852,34837,2069,1128,2059,363,-739,574,607,1622,4549,59,49,837,1786,1899,2117,2277,2105,1839,1880,2007
481350,34208,928,34902,2134,1225,1746,328,-756,567,-228,1472,4448,52,49,824,1786,1899,2117,2277,2105,1839,1880,2007
482351,34284,1004,34967,2199,1111,1733,294,-748,554,470,1487,4309,47,54,828,1786,1899,2117,2277,2105,1839,1880,2007
483352,34332,1080,35032,2264,1483,1720,262,-711,540,866,1619,4692,55,49,831,1755,1860,2047,2197,2062,1802,1857,1993
484353,34408,1164,35097,2329,1120,1597,252,-652,529,527,1589,4653,57,47,825,1755,1860,2047,2197,2062,1802,1857,1993
485354,34472,1232,35162,2394,1271,1794,244,-613,504,864,1657,4685,48,58,834,1755,1860,2047,2197,2062,1802,1857,1993
486355,34528,1296,35227,2459,1383,1845,244,-586,484,805,1521,4455,43,57,827,1755,1860,2047,2197,2062,1802,1857,1993
487356,34624,1364,35292,2524,845,1793,229,-578,467,548,1330,4347,62,42,824,1755,1860,2047,2197,2062,1802,1857,1993
488357,34688,1444,35357,2589,1246,1624,234,-574,445,145,1387,4364,64,49,835,1728,1825,2034,2201,2075,1813,1856,1992
489358,34752,1528,35422,2654,1247,1552,237,-573,456,-70,1331,4306,55,55,830,1728,1825,2034,2201,2075,1813,1856,1992
490359,34812,1612,35487,2719,1304,1529,295,-608,475,75,774,4595,49,51,832,1728,1825,2034,2201,2075,1813,1856,1992
491360,34884,1684,35552,2784,1146,1671,408,-783,545,-148,479,4471,41,51,831,1728,1825,2034,2201,2075,1813,1856,1992
492361,34952,1744,35617,2849,1192,1827,429,-859,540,-1203,398,4702,47,54,830,1728,1825,2034,2201,2075,1813,1856,1992
493362,35044,1820,35682,2914,859,1614,298,-626,451,-1181,843,4471,61,62,828,1728,1825,2034,2201,2075,1813,1856,1992
494363,35100,1904,35747,2979,1321,1492,127,-400,483,287,1269,3279,59,50,839,1741,1859,2096,2256,2072,1829,1871,2009
495364,35184,1988,35812,3044,948,1469,50,-449,623,634,1140,3673,54,48,832,1741,1859,2096,2256,2072,1829,1871,2009
496365,35256,2068,35877,3109,1090,1501,98,-588,659,-195,1072,4027,53,60,836,1741,1859,2096,2256,2072,1829,1871,2009
497366,35316,2156,35942,3174,1246,1373,190,-669,598,-518,1289,4230,56,53,836,1741,1859,2096,2256,2072,1829,1871,2009
498367,35384,2228,36007,3239,1142,1565,236,-735,550,84,1361,3246,58,47,836,1741,1859,2096,2256,2072,1829,1871,2009
499368,35468,2280,36072,3304,920,1832,205,-667,518,399,1275,3678,58,54,835,1791,1864,2083,2287,2100,1838,1863,1983
500369,35524,2352,36137,3369,1281,1573,132,-506,497,658,1344,4014,51,58,833,1791,1864,2083,2287,2100,1838,1863,1983
501370,35592,2432,36202,3434,1127,1456,39,-399,491,989,1438,3929,42,51,832,1791,1864,2083,2287,2100,1838,1863,1983
502371,35668,2516,36267,3499,1014,1382,-16,-348,491,777,1674,3784,58,69,838,1791,1864,2083,2287,2100,1838,1863,1983
503372,35736,2604,36332,3564,1111,1304,-26,-332,485,269,1585,3683,44,50,840,1791,1864,2083,2287,2100,1838,1863,1983
504373,35808,2704,36397,3629,1052,1113,5,-356,454,319,1514,4024,44,49,840,1791,1864,2083,2287,2100,1838,1863,1983
505374,35872,2792,36462,3694,1154,1235,68,-394,449,574,1427,3758,46,49,843,1752,1844,2098,2264,2080,1824,1840,1960
506375,35952,2868,36527,3759,935,1371,131,-421,453,356,1548,3989,39,58,840,1752,1844,2098,2264,2080,1824,1840,1960
507376,36000,2956,36592,3824,1357,1194,164,-410,439,-159,1182,4037,40,56,842,1752,1844,2098,2264,2080,1824,1840,1960
508377,36064,3032,36657,3889,1158,1331,185,-391,420,7,1225,4215,41,50,838,1752,1844,2098,2264,2080,1824,1840,1960
509378,36152,3112,36722,3954,830,1262,186,-391,429,130,1305,4044,56,62,839,1752,1844,2098,2264,2080,1824,1840,1960
510379,36208,3188,36787,4019,1241,1300,197,-377,452,14,1370,4014,48,48,845,1707,1811,2023,2175,2015,1759,1803,1931
511380,36292,3244,36852,4084,868,1561,189,-413,477,60,1234,3721,56,54,837,1707,1811,2023,2175,2015,1759,1803,1931
512381,36372,3324,36917,4149,901,1243,201,-454,480,-13,1290,3892,40,51,841,1707,1811,2023,2175,2015,1759,1803,1931
513382,36436,3388,36982,4214,1102,1445,205,-484,491,-192,1348,3598,53,60,842,1707,1811,2023,2175,2015,1759,1803,1931
514383,36528,3452,37047,4279,719,1446,221,-489,505,-83,1283,3574,52,47,838,1707,1811,2023,2175,2015,1759,1803,1931
515384,36564,3532,37112,4344,1454,1228,223,-476,506,262,1339,3535,43,55,844,1707,1811,2023,2175,2015,1759,1803,1931
516385,36636,3612,37177,4409,996,1210,236,-435,505,280,1407,3358,40,52,835,1725,1846,2066,2224,1998,1756,1813,1944
517386,36716,3688,37242,4474,879,1247,234,-406,517,421,1516,3176,56,53,844,1725,1846,2066,2224,1998,1756,1813,1944
518387,36772,3744,37307,4539,1190,1508,230,-380,515,601,1467,3046,40,65,845,1725,1846,2066,2224,1998,1756,1813,1944
519388,36832,3828,37372,4604,1146,1135,214,-370,516,568,1468,2951,54,60,835,1725,1846,2066,2224,1998,1756,1813,1944
520389,36916,3928,37437,4669,822,893,203,-372,503,495,1492,2898,51,65,843,1725,1846,2066,2224,1998,1756,1813,1944
521390,36976,4008,37502,4734,1129,1125,176,-385,492,391,1480,2745,40,53,852,1797,1915,2122,2283,2014,1764,1824,1948
522391,37048,4104,37567,4799,971,887,181,-384,499,534,1730,2907,41,62,842,1797,1915,2122,2283,2014,1764,1824,1948
523392,37104,4176,37632,4864,1182,1179,187,-411,491,701,1625,2666,38,52,850,1797,1915,2122,2283,2014,1764,1824,1948
524393,37164,4248,37697,4929,1138,1171,213,-459,456,352,1467,2799,39,50,842,1797,1915,2122,2283,2014,1764,1824,1948
525394,37240,4332,37762,4994,925,998,241,-498,426,65,1606,3132,53,52,842,1797,1915,2122,2283,2014,1764,1824,1948
526395,37300,4400,37827,5059,1131,1194,273,-519,404,403,1615,3129,42,52,847,1797,1915,2122,2283,2014,1764,1824,1948
527396,37368,4480,37892,5124,1028,1027,300,-508,400,759,1498,3353,41,49,842,1753,1854,2052,2186,1999,1751,1801,1927
528397,37432,4576,37957,5189,1079,789,327,-528,408,653,1546,3420,38,55,847,1753,1854,2052,2186,1999,1751,1801,1927
529398,37508,4648,38022,5254,916,1080,358,-566,418,231,1440,3428,38,58,849,1753,1854,2052,2186,1999,1751,1801,1927
530399,37572,4716,38087,5319,1067,1127,397,-588,427,108,1437,3590,39,46,846,1753,1854,2052,2186,1999,1751,1801,1927
531400,37640,4772,38152,5384,1014,1288,439,-594,435,242,1378,3721,39,58,845,1753,1854,2052,2186,1999,1751,1801,1927
532401,37700,4852,38217,5449,1121,970,483,-591,457,429,1400,3766,42,63,843,1661,1779,1967,2093,1981,1727,1785,1917
533402,37780,4928,38282,5514,852,1007,525,-595,477,437,1510,3602,51,48,846,1661,1779,1967,2093,1981,1727,1785,1917
534403,37856,5000,38347,5579,889,1048,554,-603,499,240,1579,3484,49,57,849,1661,1779,1967,2093,1981,1727,1785,1917
535404,37924,5092,38412,5644,985,765,583,-598,521,393,1565,3493,45,60,848,1661,1779,1967,2093,1981,1727,1785,1917
536405,38008,5172,38477,5709,762,898,581,-591,542,449,1397,3418,39,57,850,1661,1779,1967,2093,1981,1727,1785,1917
537406,38060,5252,38542,5774,1179,880,586,-549,563,439,1570,3319,37,47,852,1661,1779,1967,2093,1981,1727,1785,1917
538407,38136,5328,38607,5839,865,916,577,-498,580,500,1786,3147,42,52,847,1667,1807,1996,2130,1994,1742,1810,1947
539408,38208,5396,38672,5904,907,1013,568,-452,571,742,1605,2948,60,51,850,1667,1807,1996,2130,1994,1742,1810,1947
540409,38276,5488,38737,5969,953,680,544,-450,569,602,1466,2948,44,61,849,1667,1807,1996,2130,1994,1742,1810,1947
541410,38360,5568,38802,6034,730,812,517,-466,559,125,1700,2866,41,50,853,1667,1807,1996,2130,1994,1742,1810,1947
542411,38420,5636,38867,6099,1036,959,477,-451,526,718,1504,2850,57,51,855,1667,1807,1996,2130,1994,1742,1810,1947
543412,38496,5704,38932,6164,824,955,469,-453,504,644,1524,2673,54,47,847,1735,1866,2058,2190,2047,1792,1844,1989
544413,38568,5764,38997,6229,865,1061,473,-449,469,233,1427,2863,47,59,850,1735,1866,2058,2190,2047,1792,1844,1989
545414,38636,5848,39062,6294,912,738,481,-451,449,401,1367,2918,39,47,849,1735,1866,2058,2190,2047,1792,1844,1989
546415,38708,5924,39127,6359,853,825,495,-444,438,563,1285,3060,41,60,853,1735,1866,2058,2190,2047,1792,1844,1989
547416,38776,6008,39192,6424,899,702,513,-431,426,234,1256,3001,40,62,849,1735,1866,2058,2190,2047,1792,1844,1989
548417,38832,6068,39257,6489,1060,1008,535,-411,415,540,1227,3310,48,51,854,1735,1866,2058,2190,2047,1792,1844,1989
549418,38904,6144,39322,6554,852,795,555,-414,427,658,1160,3190,44,49,846,1704,1824,2032,2144,2048,1792,1824,1968
550419,38992,6216,39387,6619,625,836,577,-389,458,413,1215,3322,42,60,853,1704,1824,2032,2144,2048,1792,1824,1968
551420,39056,6276,39452,6684,926,993,595,-370,474,243,1311,3301,54,47,856,1704,1824,2032,2144,2048,1792,1824,1968
552421,39140,6356,39517,6749,653,724,611,-344,492,364,1314,3339,40,48,849,1704,1824,2032,2144,2048,1792,1824,1968
553422,39216,6444,39582,6814,739,596,612,-336,515,434,1372,3356,60,51,857,1704,1824,2032,2144,2048,1792,1824,1968
554423,39296,6524,39647,6879,671,679,601,-315,554,344,1481,3383,57,64,858,1636,1761,1954,2068,2015,1757,1801,1933
555424,39380,6616,39712,6944,598,496,579,-273,593,667,1781,3363,57,58,857,1636,1761,1954,2068,2015,1757,1801,1933
556425,39448,6684,39777,7009,794,792,549,-211,611,756,1637,3315,47,45,861,1636,1761,1954,2068,2015,1757,1801,1933
557426,39512,6768,39842,7074,846,569,522,-163,614,578,1665,3348,52,46,854,1636,1761,1954,2068,2015,1757,1801,1933
558427,39596,6836,39907,7139,573,765,470,-123,605,400,1742,3414,46,48,856,1636,1761,1954,2068,2015,1757,1801,1933
559428,39672,6928,39972,7204,660,432,398,-53,603,320,1753,3290,45,54,858,1636,1761,1954,2068,2015,1757,1801,1933
560429,39744,7004,40037,7269,701,619,335,-40,606,855,1658,2880,49,55,860,1631,1761,1946,2076,2007,1754,1812,1951
561430,39824,7088,40102,7334,583,496,296,-39,583,661,1541,2990,43,47,858,1631,1761,1946,2076,2007,1754,1812,1951
562431,39900,7164,40167,7399,619,583,272,-62,559,211,1259,2527,55,55,861,1631,1761,1946,2076,2007,1754,1812,1951
563432,39964,7224,40232,7464,771,789,273,-61,531,332,938,2518,36,45,859,1631,1761,1946,2076,2007,1754,1812,1951
564433,40036,7296,40297,7529,662,631,259,-63,520,443,738,2398,53,52,852,1631,1761,1946,2076,2007,1754,1812,1951
565434,40092,7360,40362,7594,873,732,261,-21,519,336,677,2586,51,54,858,1660,1789,1989,2102,2092,1821,1859,2023
566435,40184,7460,40427,7659,391,239,256,38,524,476,684,2703,48,47,854,1660,1789,1989,2102,2092,1821,1859,2023
567436,40244,7516,40492,7724,797,800,251,109,536,584,645,2559,46,60,865,1660,1789,1989,2102,2092,1821,1859,2023
568437,40328,7608,40557,7789,474,317,233,196,532,774,762,3056,44,45,854,1660,1789,1989,2102,2092,1821,1859,2023
569438,40408,7676,40622,7854,506,614,197,276,546,807,632,2789,59,49,864,1660,1789,1989,2102,2092,1821,1859,2023
570439,40468,7792,40687,7919,762,-48,170,389,578,1123,749,3018,37,60,860,1660,1789,1989,2102,2092,1821,1859,2023
571440,40544,7872,40752,7984,548,383,133,477,599,932,869,2902,53,59,862,1648,1780,1985,2084,2102,1821,1852,2000
572441,40620,7952,40817,8049,535,365,84,581,595,449,909,3124,55,57,862,1648,1780,1985,2084,2102,1821,1852,2000
573442,40696,8020,40882,8114,522,511,33,673,571,678,1032,2941,38,55,863,1648,1780,1985,2084,2102,1821,1852,2000
574443,40792,8124,40947,8179,234,14,-50,695,562,895,1322,2993,39,47,861,1648,1780,1985,2084,2102,1821,1852,2000
575444,40860,8216,41012,8244,580,131,-142,685,563,643,1259,2861,47,46,868,1648,1780,1985,2084,2102,1821,1852,2000
576445,40932,8288,41077,8309,522,372,-253,660,576,271,1187,2684,39,55,864,1617,1739,1933,2059,2051,1793,1827,1950
577446,41004,8364,41142,8374,513,309,-352,647,572,108,1042,2861,40,56,863,1617,1739,1933,2059,2051,1793,1827,1950
578447,41076,8456,41207,8439,504,76,-423,627,585,213,824,2632,52,52,864,1617,1739,1933,2059,2051,1793,1827,1950
579448,41160,8528,41272,8504,331,317,-479,615,602,628,780,2718,36,55,865,1617,1739,1933,2059,2051,1793,1827,1950
580449,41212,8584,41337,8569,748,528,-523,628,611,492,616,2763,49,47,866,1617,1739,1933,2059,2051,1793,1827,1950
581450,41292,8668,41402,8634,380,155,-557,658,610,565,651,2751,52,47,857,1617,1739,1933,2059,2051,1793,1827,1950
582451,41384,8776,41467,8699,197,-197,-560,731,616,1065,418,2973,58,62,866,1584,1704,1904,2028,2082,1824,1850,2000
583452,41440,8900,41532,8764,658,-470,-572,809,640,1364,280,2828,58,49,867,1584,1704,1904,2028,2082,1824,1850,2000
584453,41512,8988,41597,8829,449,-48,-573,909,653,1709,430,3052,43,43,860,1584,1704,1904,2028,2082,1824,1850,2000
585454,41600,9096,41662,8894,221,-350,-610,1044,653,1337,182,2884,54,47,866,1584,1704,1904,2028,2082,1824,1850,2000
586455,41676,9192,41727,8959,358,-238,-656,1202,662,951,94,3134,48,42,866,1584,1704,1904,2028,2082,1824,1850,2000
587456,41764,9276,41792,9024,180,-111,-720,1320,676,1077,213,2802,47,36,866,1578,1712,1921,2030,2121,1839,1869,2025
588457,41840,9348,41857,9089,316,30,-809,1398,664,849,358,2787,48,50,868,1578,1712,1921,2030,2121,1839,1869,2025
589458,41936,9420,41922,9154,28,22,-913,1439,666,643,519,2501,52,44,868,1578,1712,1921,2030,2121,1839,1869,2025
590459,42020,9480,41987,9219,155,178,-1026,1458,660,757,736,2369,53,40,870,1578,1712,1921,2030,2121,1839,1869,2025
591462,42088,9548,42052,9284,352,74,-1142,1441,644,418,555,2090,37,40,868,1578,1712,1921,2030,2121,1839,1869,2025
592461,42156,9604,42117,9349,348,234,-1246,1447,608,489,698,2397,51,51,867,1578,1712,1921,2030,2121,1839,1869,2025
593462,42236,9664,42182,9414,180,190,-1335,1487,562,254,751,2408,53,51,866,1625,1760,1963,2088,2109,1833,1869,2008
594463,42316,9720,42247,9479,161,251,-1422,1526,532,160,844,2436,53,39,868,1625,1760,1963,2088,2109,1833,1869,2008
595464,42396,9784,42312,9544,143,153,-1491,1533,499,816,935,2266,51,39,867,1625,1760,1963,2088,2109,1833,1869,2008
596465,42472,9856,42377,9609,180,44,-1571,1526,483,778,663,2399,54,52,869,1625,1760,1963,2088,2109,1833,1869,2008
597466,42544,9912,42442,9674,221,255,-1637,1569,502,643,207,2700,52,45,869,1625,1760,1963,2088,2109,1833,1869,2008
598467,42632,9976,42507,9739,-8,156,-1687,1650,532,600,127,2636,52,46,864,1618,1744,1945,2061,2108,1834,1861,2002
599468,42692,10068,42572,9804,348,-227,-1753,1783,569,781,118,3105,38,36,869,1618,1744,1945,2061,2108,1834,1861,2002
600469,42764,10132,42637,9869,189,124,-1811,1902,595,1168,57,2953,37,47,866,1618,1744,1945,2061,2108,1834,1861,2002
601470,42840,10192,42702,9934,126,181,-1859,1994,620,1226,-38,2839,53,52,868,1618,1744,1945,2061,2108,1834,1861,2002
602471,42920,10248,42767,9999,58,241,-1916,2069,635,1200,59,3174,51,43,868,1618,1744,1945,2061,2108,1834,1861,2002
603472,43016,10304,42832,10064,-180,252,-1987,2119,641,1078,259,2875,42,46,868,1618,1744,1945,2061,2108,1834,1861,2002
604473,43164,10384,42897,10129,-931,-67,-2049,2179,645,1228,224,3016,52,45,850,1574,1697,1906,2021,2087,1825,1846,1982
605474,43308,10448,42962,10194,-978,134,-2113,2223,644,1453,316,2723,54,40,868,1574,1697,1906,2021,2087,1825,1846,1982
606475,43440,10496,43027,10259,-910,355,-2186,2243,636,944,190,2624,35,42,868,1574,1697,1906,2021,2087,1825,1846,1982
607476,43516,10560,43092,10324,-223,156,-2232,2189,665,89,453,2690,37,51,867,1574,1697,1906,2021,2087,1825,1846,1982
608477,43596,10632,43157,10389,-291,48,-2261,2082,652,-491,645,2478,51,53,847,1574,1697,1906,2021,2087,1825,1846,1982
609478,43664,10704,43222,10454,-146,39,-2256,1971,586,-214,566,3017,45,41,869,1557,1684,1897,2045,2089,1830,1854,1983
610479,43720,10776,43287,10519,15,31,-2215,1793,569,105,245,2893,54,45,869,1557,1684,1897,2045,2089,1830,1854,1983
611480,43800,10840,43352,10584,-303,132,-2139,1535,569,121,386,3192,35,44,869,1557,1684,1897,2045,2089,1830,1854,1983
612481,43868,10892,43417,10649,-157,298,-2048,1320,552,-25,613,3344,44,44,868,1557,1684,1897,2045,2089,1830,1854,1983
613482,43952,10968,43482,10714,-380,-17,-1949,1181,514,552,585,3795,52,49,867,1557,1684,1897,2045,2089,1830,1854,1983
614483,44024,11036,43547,10779,-239,80,-1879,1089,511,1132,217,3801,40,38,869,1557,1684,1897,2045,2089,1830,1854,1983
615484,44104,11104,43612,10844,-358,76,-1843,1060,546,1316,194,4021,38,50,866,1647,1787,1990,2142,2026,1771,1852,1970
616485,44156,11176,43677,10909,8,18,-1827,1093,595,1133,379,4251,36,38,869,1647,1787,1990,2142,2026,1771,1852,1970
617486,44252,11236,43742,10974,-580,174,-1837,1164,633,1215,557,4355,45,52,870,1647,1787,1990,2142,2026,1771,1852,1970
618487,44312,11292,43807,11039,-124,235,-1853,1198,672,1430,343,4292,35,52,868,1647,1787,1990,2142,2026,1771,1852,1970
619488,44384,11380,43872,11104,-282,-193,-1843,1091,726,1011,251,4063,33,54,868,1647,1787,1990,2142,2026,1771,1852,1970
620489,44440,11456,43937,11169,-73,-57,-1824,910,765,241,394,4529,35,53,868,1885,2048,2187,2359,1935,1681,1828,1949
621490,44520,11524,44002,11234,-391,39,-1812,670,781,-192,408,4255,33,55,868,1885,2048,2187,2359,1935,1681,1828,1949
622491,44596,11600,44067,11299,-354,-75,-1785,413,785,-231,169,4611,34,54,869,1885,2048,2187,2359,1935,1681,1828,1949
623492,44680,11672,44132,11364,-477,-33,-1719,187,798,-391,4,4850,38,43,869,1885,2048,2187,2359,1935,1681,1828,1949
624493,44748,11740,44197,11429,-281,13,-1622,-69,811,-917,-104,4910,55,43,869,1885,2048,2187,2359,1935,1681,1828,1949
625494,44824,11824,44262,11494,-396,-210,-1520,-331,806,-1079,-137,5291,45,55,863,2069,2212,2302,2511,1950,1720,1838,1979
626495,44916,11884,44327,11559,-628,96,-1401,-589,784,-876,-182,5410,38,53,868,2069,2212,2302,2511,1950,1720,1838,1979
627496,44968,11976,44392,11624,-113,-337,-1267,-847,786,-692,-356,5310,50,54,869,2069,2212,2302,2511,1950,1720,1838,1979
628497,45052,12060,44457,11689,-536,-260,-1113,-1024,783,-275,-222,5670,50,43,858,2069,2212,2302,2511,1950,1720,1838,1979
629498,45124,12136,44522,11754,-395,-174,-965,-1146,776,-171,-362,5457,48,46,865,2069,2212,2302,2511,1950,1720,1838,1979
630499,45212,12216,44587,11819,-623,-243,-817,-1261,789,159,-251,5417,55,47,868,2069,2212,2302,2511,1950,1720,1838,1979
631500,45292,12292,44652,11884,-542,-207,-689,-1338,824,641,-271,5461,40,39,868,2097,2215,2342,2534,2012,1759,1902,2020
632501,45364,12376,44717,11949,-450,-330,-562,-1360,842,675,-90,5385,51,52,866,2097,2215,2342,2534,2012,1759,1902,2020
633502,45448,12456,44782,12014,-623,-298,-484,-1317,844,164,200,5314,45,39,865,2097,2215,2342,2534,2012,1759,1902,2020
634503,45536,12520,44847,12079,-703,-97,-465,-1231,841,780,242,5468,38,35,867,2097,2215,2342,2534,2012,1759,1902,2020
635504,45616,12588,44912,12144,-621,-150,-474,-1175,862,1131,266,5454,54,37,868,2097,2215,2342,2534,2012,1759,1902,2020
636505,45716,12648,44977,12209,-914,-45,-494,-1163,877,591,217,5451,56,39,868,2050,2154,2277,2488,1996,1783,1886,1963
637506,45800,12724,45042,12274,-738,-259,-517,-1102,866,80,135,5294,59,41,868,2050,2154,2277,2488,1996,1783,1886,1963
638507,45896,12784,45107,12339,-926,-53,-506,-1105,858,-26,91,5440,61,43,867,2050,2154,2277,2488,1996,1783,1886,1963
639508,45980,12856,45172,12404,-799,-211,-480,-1150,884,-364,-146,5260,48,44,870,2050,2154,2277,2488,1996,1783,1886,1963
640509,46072,12940,45237,12469,-932,-384,-415,-1198,930,-1106,-358,5230,58,33,868,2050,2154,2277,2488,1996,1783,1886,1963
641510,46160,12988,45302,12534,-911,86,-352,-1149,974,-1541,-377,5495,58,46,866,2050,2154,2277,2488,1996,1783,1886,1963
642511,46272,13044,45367,12599,-1268,-4,-271,-1049,1016,-1441,-723,5007,48,32,870,1890,1962,2140,2352,2053,1846,1883,1963
643512,46356,13116,45432,12664,-941,-212,-191,-988,1031,-944,-726,5234,55,42,870,1890,1962,2140,2352,2053,1846,1883,1963
644513,46464,13192,45497,12729,-1295,-276,-125,-973,1032,-679,-838,4697,48,54,868,1890,1962,2140,2352,2053,1846,1883,1963
645514,46560,13252,45562,12794,-1183,-70,-47,-912,1002,-592,-842,4902,57,34,867,1890,1962,2140,2352,2053,1846,1883,1963
646515,46644,13296,45627,12859,-1057,156,-4,-847,981,-728,-765,4511,60,49,869,1890,1962,2140,2352,2053,1846,1883,1963
647516,46756,13364,45692,12924,-1464,-148,21,-717,950,-484,-912,4581,58,47,869,1744,1828,2065,2265,2102,1882,1884,1960
648517,46836,13440,45757,12989,-1083,-262,34,-539,923,-381,-801,4782,69,42,869,1744,1828,2065,2265,2102,1882,1884,1960
649518,46952,13492,45822,13054,-1596,54,13,-349,893,-134,-693,4317,61,38,865,1744,1828,2065,2265,2102,1882,1884,1960
650519,47068,13568,45887,13119,-1658,-260,-33,-131,845,409,-729,4504,64,40,855,1744,1828,2065,2265,2102,1882,1884,1960
651520,47164,13632,45952,13184,-1447,-108,-89,45,842,786,-618,3747,53,44,868,1744,1828,2065,2265,2102,1882,1884,1960
652521,47284,13672,46017,13249,-1814,222,-143,179,832,890,-424,3651,72,37,869,1744,1828,2065,2265,2102,1882,1884,1960
653522,47396,13732,46082,13314,-1773,-23,-195,361,841,324,-475,3884,64,44,868,1746,1832,2064,2272,2067,1857,1883,1960
654523,47504,13784,46147,13379,-1775,93,-260,550,848,321,-199,3618,63,49,856,1746,1832,2064,2272,2067,1857,1883,1960
655524,47648,13860,46212,13444,-2322,-220,-349,724,866,116,-156,3848,73,51,869,1746,1832,2064,2272,2067,1857,1883,1960
656525,47740,13920,46277,13509,-1705,-14,-448,843,881,-22,-328,3455,62,38,868,1746,1832,2064,2272,2067,1857,1883,1960
657526,47864,13984,46342,13574,-2178,-63,-526,842,899,173,-284,3496,68,38,869,1746,1832,2064,2272,2067,1857,1883,1960
658527,47988,14048,46407,13639,-2250,-62,-563,822,881,224,-537,3478,77,38,863,1755,1835,2043,2241,2059,1842,1835,1971
659528,48108,14100,46472,13704,-2269,104,-591,800,895,-882,-1224,3414,60,50,869,1755,1835,2043,2241,2059,1842,1835,1971
660529,48204,14168,46537,13769,-2007,-101,-637,839,891,-858,-1249,3753,77,50,869,1755,1835,2043,2241,2059,1842,1835,1971
661530,48348,14232,46602,13834,-2704,-49,-665,868,858,21,-1156,3480,76,41,868,1755,1835,2043,2241,2059,1842,1835,1971
662531,48448,14308,46667,13899,-2198,-213,-673,872,834,-28,-1409,3485,75,42,866,1755,1835,2043,2241,2059,1842,1835,1971
663532,48568,14384,46732,13964,-2516,-226,-676,858,813,-477,-1520,3643,78,39,868,1755,1835,2043,2241,2059,1842,1835,1971
664533,48672,14432,46797,14029,-2363,145,-674,851,783,-620,-1455,3288,62,49,868,1689,1793,1995,2112,2095,1844,1883,2014
665534,48784,14480,46862,14094,-2522,165,-660,815,746,-321,-1379,3508,66,44,868,1689,1793,1995,2112,2095,1844,1883,2014
666535,48912,14536,46927,14159,-2800,75,-653,761,695,38,-1383,3831,64,41,864,1689,1793,1995,2112,2095,1844,1883,2014
667536,49040,14596,46992,14224,-2877,31,-644,751,652,30,-1449,3733,61,48,869,1689,1793,1995,2112,2095,1844,1883,2014
668537,49156,14660,47057,14289,-2790,-17,-670,721,646,52,-1328,3549,67,37,869,1689,1793,1995,2112,2095,1844,1883,2014
669538,49292,14724,47122,14354,-3127,-16,-694,716,618,170,-1047,3606,81,46,869,1666,1807,1993,2133,2072,1810,1886,2017
670539,49396,14772,47187,14419,-2776,205,-744,627,600,174,-901,3226,75,36,868,1666,1807,1993,2133,2072,1810,1886,2017
671540,49528,14828,47252,14484,-3209,116,-803,525,585,-142,-1103,3271,65,49,868,1666,1807,1993,2133,2072,1810,1886,2017
672541,49636,14900,47317,14549,-2962,-93,-861,424,573,331,-834,3477,62,34,868,1666,1807,1993,2133,2072,1810,1886,2017
673542,49752,14952,47382,14614,-3126,172,-905,288,559,437,-792,2982,61,36,869,1666,1807,1993,2133,2072,1810,1886,2017
674543,49884,15016,47447,14679,-3407,23,-958,171,555,-106,-1180,3266,79,40,867,1666,1807,1993,2133,2072,1810,1886,2017
675544,49996,15072,47512,14744,-3216,134,-1014,70,570,-359,-1092,3233,74,45,869,1749,1888,2040,2203,2035,1783,1891,2012
676545,50108,15112,47577,14809,-3274,365,-1059,10,558,-416,-1136,3610,73,46,868,1749,1888,2040,2203,2035,1783,1891,2012
677546,50212,15184,47642,14874,-3223,-44,-1122,-61,558,-764,-1474,3507,69,44,866,1749,1888,2040,2203,2035,1783,1891,2012
678547,50300,15240,47707,14939,-3052,167,-1165,-205,548,84,-1330,3546,69,47,869,1749,1888,2040,2203,2035,1783,1891,2012
679548,50404,15296,47772,15004,-3300,178,-1181,-427,533,47,-1479,3161,79,46,868,1749,1888,2040,2203,2035,1783,1891,2012
680549,50516,15376,47837,15069,-3459,-140,-1189,-635,504,-728,-1735,3725,65,39,868,1799,1933,2076,2237,2051,1807,1900,2002
681550,50636,15404,47902,15134,-3627,554,-1180,-835,476,-452,-1710,3544,62,39,868,1799,1933,2076,2237,2051,1807,1900,2002
682551,50764,15484,47967,15199,-3800,-114,-1137,-979,421,70,-1735,4048,70,33,864,1799,1933,2076,2237,2051,1807,1900,2002
683552,50880,15524,48032,15264,-3718,416,-1093,-1062,397,-498,-2046,3986,66,51,854,1799,1933,2076,2237,2051,1807,1900,2002
684553,50976,15584,48097,15329,-3508,172,-1064,-1123,380,-427,-1901,4462,60,42,866,1799,1933,2076,2237,2051,1807,1900,2002
685554,51116,15668,48162,15394,-3800,-151,-1047,-1174,352,-369,-1898,4094,58,40,868,1799,1933,2076,2237,2051,1807,1900,2002
686555,51220,15724,48227,15459,-3749,210,-1054,-1220,317,-114,-1811,4340,72,46,868,1790,1918,2084,2234,2060,1824,1906,2036
687556,51328,15808,48292,15524,-3800,-163,-1081,-1313,299,-92,-1706,3696,77,40,856,1790,1918,2084,2234,2060,1824,1906,2036
688557,51464,15860,48357,15589,-3800,253,-1114,-1381,294,-272,-1589,3780,78,50,868,1790,1918,2084,2234,2060,1824,1906,2036
689558,51552,15916,48422,15654,-3719,214,-1155,-1424,287,-138,-1358,4216,62,35,867,1790,1918,2084,2234,2060,1824,1906,2036
690559,51656,15972,48487,15719,-3800,225,-1182,-1501,296,-252,-1477,3788,70,34,868,1790,1918,2084,2234,2060,1824,1906,2036
691560,51768,16004,48552,15784,-3800,564,-1203,-1547,305,-363,-1386,4264,56,51,861,1815,1928,2096,2272,2061,1821,1908,2010
692561,51876,16032,48617,15849,-3800,659,-1192,-1497,302,-192,-1352,5200,65,46,864,1815,1928,2096,2272,2061,1821,1908,2010
693562,51944,16096,48682,15914,-3635,210,-1143,-1383,298,-128,-1427,5547,72,45,863,1815,1928,2096,2272,2061,1821,1908,2010
694563,52032,16152,48747,15979,-3800,321,-1071,-1262,297,252,-1556,6089,70,46,868,1815,1928,2096,2272,2061,1821,1908,2010
695564,52124,16212,48812,16044,-3800,277,-983,-1179,301,737,-1394,6291,55,53,864,1815,1928,2096,2272,2061,1821,1908,2010
696565,52244,16300,48877,16109,-3800,-101,-884,-1128,311,565,-1781,6482,68,55,868,1815,1928,2096,2272,2061,1821,1908,2010
697566,52320,16364,48942,16174,-3800,201,-795,-1089,335,-43,-1839,6350,81,46,869,1807,1915,2091,2309,2066,1842,1912,1984
698567,52404,16440,49007,16239,-3800,37,-739,-1027,341,-564,-1648,6035,59,46,868,1807,1915,2091,2309,2066,1842,1912,1984
699568,52516,16500,49206,16438,-3800,407,-722,-946,318,-264,-1455,5868,66,41,867,1807,1915,2091,2309,2066,1842,1912,1984
700569,52616,16580,49271,16503,-3800,139,-734,-885,298,-217,-1592,5527,64,45,864,1807,1915,2091,2309,2066,1842,1912,1984
701570,52692,16652,49336,16568,-3800,230,-740,-821,292,135,-1561,5083,58,55,868,1807,1915,2091,2309,2066,1842,1912,1984
702571,52784,16716,49401,16633,-3800,331,-726,-732,277,78,-1782,5359,64,38,868,1886,2003,2222,2525,2071,1881,1935,1974
703572,52868,16780,49466,16698,-3800,332,-700,-582,256,-43,-1876,5367,54,53,866,1886,2003,2222,2525,2071,1881,1935,1974
704573,52960,16836,49531,16763,-3800,443,-665,-422,241,350,-1973,5357,48,47,867,1886,2003,2222,2525,2071,1881,1935,1974
705574,53028,16928,49596,16828,-3800,-40,-641,-269,220,485,-2076,5193,41,42,866,1886,2003,2222,2525,2071,1881,1935,1974
706575,53100,17008,49661,16893,-3800,92,-628,-123,220,445,-2176,5061,53,45,869,1886,2003,2222,2525,2071,1881,1935,1974
707576,53180,17088,49726,16958,-3800,74,-606,10,202,730,-2013,5300,54,49,868,1886,2003,2222,2525,2071,1881,1935,1974
708577,53244,17160,49791,17023,-3800,164,-585,115,195,318,-2263,5090,48,42,869,2033,2097,2329,2652,2066,1872,1925,1955
709578,53312,17216,49856,17088,-3800,375,-559,191,190,614,-2116,5240,35,50,868,2033,2097,2329,2652,2066,1872,1925,1955
710579,53372,17292,49921,17153,-3788,112,-520,264,189,600,-2068,5401,29,-16,867,2033,2097,2329,2652,2066,1872,1925,1955
711580,53424,17348,49986,17218,-3673,373,-464,303,187,542,-1943,5501,25,42,869,2033,2097,2329,2652,2066,1872,1925,1955
712581,53492,17404,50051,17283,-3800,384,-391,355,174,810,-1888,5709,30,37,867,2033,2097,2329,2652,2066,1872,1925,1955
713582,53536,17480,50116,17348,-3554,120,-311,440,166,879,-1902,5574,23,38,867,1969,2025,2209,2493,2021,1821,1880,1930
714583,53572,17548,50181,17413,-3420,217,-255,531,147,1205,-1682,5648,20,53,869,1969,2025,2209,2493,2021,1821,1880,1930
715584,53624,17608,50246,17478,-3606,323,-201,645,127,1318,-1548,5394,16,34,868,1969,2025,2209,2493,2021,1821,1880,1930
716585,53668,17672,50311,17543,-3481,274,-160,735,114,1220,-1548,5195,31,48,867,1969,2025,2209,2493,2021,1821,1880,1930
717586,53704,17744,50376,17608,-3347,165,-105,833,90,1119,-1461,5266,21,39,865,1969,2025,2209,2493,2021,1821,1880,1930
718587,53712,17804,50441,17673,-2928,322,-51,877,68,972,-1386,4918,16,38,869,1969,2025,2209,2493,2021,1821,1880,1930
719588,53756,17860,50506,17738,-3355,383,3,890,50,838,-1346,4744,26,35,868,1837,1931,2090,2312,2239,1762,1856,1929
720589,53788,17928,50571,17803,-3166,229,42,865,26,820,-1358,4322,19,32,853,1837,1931,2090,2312,2239,1762,1856,1929
721590,53804,17988,50636,17868,-2907,335,73,850,-4,691,-1308,4090,24,43,869,1837,1931,2090,2312,2239,1762,1856,1929
722591,53812,18064,50701,17933,-2738,122,93,819,-34,782,-1256,3746,6,34,868,1837,1931,2090,2312,2239,1762,1856,1929
723592,53816,18112,50766,17998,-2616,492,111,772,-58,636,-1329,3551,1,32,869,1837,1931,2090,2312,2239,1762,1856,1929
724593,53832,18192,50831,18063,-2707,74,130,717,-84,695,-1377,3132,15,34,857,1812,1910,2086,2294,1994,1762,1861,1958
725594,53852,18236,50896,18128,-2703,550,151,668,-113,798,-1395,3184,-1,38,870,1812,1910,2086,2294,1994,1762,1861,1958
726595,53848,18300,50961,18193,-2320,301,171,624,-144,645,-1391,3037,5,34,865,1812,1910,2086,2294,1994,1762,1861,1958
727596,53852,18352,51026,18258,-2346,466,202,580,-170,605,-1488,2857,12,38,868,1812,1910,2086,2294,1994,1762,1861,1958
728597,53848,18400,51091,18323,-2163,537,221,536,-186,830,-1517,2855,7,30,861,1812,1910,2086,2294,1994,1762,1861,1958
729598,53864,18464,51156,18388,-2354,338,237,480,-206,958,-1420,2728,3,40,866,1812,1910,2086,2294,1994,1762,1861,1958
730599,53848,18528,51221,18453,-1856,339,252,394,-220,955,-1414,2613,4,30,867,1836,1959,2119,2303,1990,1757,1831,1944
731600,53836,18596,51286,18518,-1813,285,269,315,-236,905,-1420,2564,-7,30,867,1836,1959,2119,2303,1990,1757,1831,1944
732601,53832,18660,51351,18583,-1830,337,290,245,-245,931,-1332,2625,1,30,865,1836,1959,2119,2303,1990,1757,1831,1944
733602,53852,18720,51416,18648,-2076,393,302,156,-258,901,-1231,2603,-3,26,867,1836,1959,2119,2303,1990,1757,1831,1944
734603,53836,18768,51481,18713,-1528,563,310,60,-270,864,-1089,2666,12,28,864,1836,1959,2119,2303,1990,1757,1831,1944
735604,53828,18832,51546,18778,-1540,365,322,-10,-277,763,-940,2839,1,40,865,1803,1908,2072,2235,1945,1721,1797,1893
736605,53832,18892,51611,18843,-1617,421,336,-76,-280,759,-855,2848,-2,41,865,1803,1908,2072,2235,1945,1721,1797,1893
737606,53836,18948,51676,18908,-1543,482,356,-145,-278,719,-741,2964,11,35,867,1803,1908,2072,2235,1945,1721,1797,1893
738607,53832,19016,51741,18973,-1360,328,368,-219,-289,707,-560,3014,11,31,866,1803,1908,2072,2235,1945,1721,1797,1893
739608,53832,19064,51806,19038,-1331,599,385,-292,-299,610,-462,3017,-5,41,867,1803,1908,2072,2235,1945,1721,1797,1893
740609,53836,19120,51871,19103,-1307,510,404,-354,-303,534,-312,3125,10,28,864,1803,1908,2072,2235,1945,1721,1797,1893
741610,53820,19196,51936,19168,-959,246,431,-401,-305,438,-267,3107,11,37,866,1730,1832,1994,2166,1923,1672,1783,1879
742611,53824,19244,52001,19233,-1136,617,459,-417,-309,439,-241,3194,0,34,868,1730,1832,1994,2166,1923,1672,1783,1879
743612,53836,19308,52066,19298,-1171,418,490,-437,-315,416,-208,3075,13,29,864,1730,1832,1994,2166,1923,1672,1783,1879
744613,53824,19364,52131,19363,-778,529,520,-456,-324,278,-195,3104,12,42,866,1730,1832,1994,2166,1923,1672,1783,1879
745614,53832,19432,52196,19428,-960,376,549,-473,-331,57,-226,3109,12,37,866,1730,1832,1994,2166,1923,1672,1783,1879
746615,53828,19512,52261,19493,-725,207,581,-471,-330,263,-150,2968,15,44,867,1719,1831,1968,2187,1975,1745,1823,1928
747616,53836,19596,52326,19558,-807,134,608,-467,-324,423,-149,2848,7,42,868,1719,1831,1968,2187,1975,1745,1823,1928
748617,53832,19648,52391,19623,-574,550,628,-437,-329,211,-161,2817,5,44,869,1719,1831,1968,2187,1975,1745,1823,1928
749618,53820,19692,52456,19688,-380,676,647,-401,-332,54,-228,2801,13,31,865,1719,1831,1968,2187,1975,1745,1823,1928
750619,53832,19764,52521,19753,-616,317,663,-369,-318,169,-297,2820,-3,32,864,1719,1831,1968,2187,1975,1745,1823,1928
751620,53836,19820,52586,19818,-441,528,685,-335,-304,288,-329,2959,-1,34,867,1719,1831,1968,2187,1975,1745,1823,1928
752621,53836,19880,52651,19883,-313,484,707,-294,-288,189,-299,2927,10,30,865,1788,1901,2102,2296,2013,1788,1842,1937
753622,53832,19976,52716,19948,-179,-4,729,-264,-271,118,-341,3005,12,40,865,1788,1901,2102,2296,2013,1788,1842,1937
754623,53832,20032,52781,20013,-149,507,747,-233,-253,131,-392,3138,-4,40,870,1788,1901,2102,2296,2013,1788,1842,1937
755624,53844,20088,52846,20078,-236,518,758,-188,-228,86,-314,3287,12,30,853,1788,1901,2102,2296,2013,1788,1842,1937
756625,53840,20176,52911,20143,48,90,769,-144,-208,127,-235,3300,3,31,843,1788,1901,2102,2296,2013,1788,1842,1937
757626,53832,20220,52976,20208,187,666,770,-127,-181,93,-148,3353,4,42,869,1834,1921,2137,2343,1920,1736,1792,1920
758627,53844,20276,53041,20273,1,527,779,-109,-155,216,-41,3583,6,28,862,1834,1921,2137,2343,1920,1736,1792,1920
759628,53840,20344,53106,20338,286,373,797,-39,-140,385,47,3946,14,31,865,1834,1921,2137,2343,1920,1736,1792,1920
760629,53832,20396,53171,20403,424,589,817,40,-124,411,180,4106,12,43,865,1834,1921,2137,2343,1920,1736,1792,1920
761630,53840,20452,53236,20468,293,550,837,109,-112,408,357,4146,15,37,861,1834,1921,2137,2343,1920,1736,1792,1920
762631,53832,20532,53301,20533,582,232,851,152,-102,447,391,4205,11,30,863,1834,1921,2137,2343,1920,1736,1792,1920
763632,53840,20580,53366,20598,452,652,869,205,-97,550,536,4299,16,38,863,1811,1880,2091,2303,1958,1757,1801,1880
764633,53852,20652,53431,20663,467,344,889,254,-78,358,529,4322,14,33,860,1811,1880,2091,2303,1958,1757,1801,1880
765634,53852,20712,53496,20728,695,500,916,316,-64,314,528,4441,11,47,863,1811,1880,2091,2303,1958,1757,1801,1880
766635,53872,20784,53561,20793,500,341,947,367,-56,290,533,4319,24,41,859,1811,1880,2091,2303,1958,1757,1801,1880
767636,53896,20840,53626,20858,500,552,982,407,-47,262,561,4367,28,39,863,1811,1880,2091,2303,1958,1757,1801,1880
768637,53920,20892,53691,20923,550,618,1014,448,-31,65,524,4196,12,32,857,1788,1867,2080,2289,2009,1797,1849,1949
769638,53948,20976,53756,20988,545,195,1039,489,-10,18,494,4164,29,32,859,1788,1867,2080,2289,2009,1797,1849,1949
770639,53980,21056,53821,21053,535,227,1067,518,19,72,375,3878,16,38,863,1788,1867,2080,2289,2009,1797,1849,1949
771640,54016,21104,53886,21118,521,648,1099,559,53,167,344,3867,28,46,864,1788,1867,2080,2289,2009,1797,1849,1949
772641,54044,21168,53951,21183,666,449,1128,639,76,242,403,4079,15,44,859,1788,1867,2080,2289,2009,1797,1849,1949
773642,54072,21232,54016,21248,711,450,1153,707,103,159,246,3874,24,33,860,1788,1867,2080,2289,2009,1797,1849,1949
774643,54132,21292,54081,21313,317,506,1175,748,132,80,239,3884,33,30,859,1830,1936,2157,2352,2077,1842,1889,2009
775644,54164,21348,54146,21378,708,567,1194,760,156,104,288,3700,37,41,863,1830,1936,2157,2352,2077,1842,1889,2009
776645,54212,21396,54211,21443,528,688,1216,784,161,302,345,4065,28,41,857,1830,1936,2157,2352,2077,1842,1889,2009
777646,54276,21460,54276,21508,330,489,1227,802,165,393,363,3881,36,41,858,1830,1936,2157,2352,2077,1842,1889,2009
778647,54320,21504,54341,21573,605,765,1236,825,162,441,513,4207,45,44,863,1830,1936,2157,2352,2077,1842,1889,2009
779648,54380,21568,54406,21638,411,516,1225,810,166,491,495,3903,34,39,856,1869,1975,2191,2370,2065,1825,1870,1980
780649,54440,21612,54471,21703,417,792,1221,795,164,629,584,4189,27,44,862,1869,1975,2191,2370,2065,1825,1870,1980
781650,54496,21684,54536,21768,478,433,1204,801,163,616,601,4172,26,43,859,1869,1975,2191,2370,2065,1825,1870,1980
782651,54552,21744,54601,21833,489,589,1187,796,161,623,681,4348,26,31,862,1869,1975,2191,2370,2065,1825,1870,1980
783652,54600,21808,54666,21898,610,540,1184,769,155,659,663,4476,43,43,860,1869,1975,2191,2370,2065,1825,1870,1980
784653,54668,21856,54731,21963,356,761,1197,737,151,760,652,4660,44,32,859,1869,1975,2191,2370,2065,1825,1870,1980
785654,54724,21916,54796,22028,517,617,1209,713,144,950,594,4847,32,34,857,1840,1933,2137,2310,2014,1788,1839,1950
786655,54784,21980,54861,22093,473,568,1247,708,139,980,546,5042,37,31,859,1840,1933,2137,2310,2014,1788,1839,1950
787656,54852,22044,54926,22158,370,570,1302,750,130,785,614,5508,36,39,860,1840,1933,2137,2310,2014,1788,1839,1950
788657,54916,22120,54991,22223,421,406,1360,828,114,715,471,5682,34,32,862,1840,1933,2137,2310,2014,1788,1839,1950
789658,54964,22184,55056,22288,642,557,1351,789,137,1269,422,4649,27,34,863,1840,1933,2137,2310,2014,1788,1839,1950
790659,55024,22224,55121,22353,498,888,1312,582,175,1130,773,3978,27,44,859,1793,1898,2108,2290,2043,1820,1876,1993
791660,55084,22288,55186,22418,504,590,1267,356,190,-145,977,4155,39,30,856,1793,1898,2108,2290,2043,1820,1876,1993
792661,55152,22316,55251,22483,400,1085,1220,224,180,-396,805,4582,46,43,860,1793,1898,2108,2290,2043,1820,1876,1993
793662,55192,22396,55316,22548,781,417,1182,192,173,712,808,4555,30,38,854,1793,1898,2108,2290,2043,1820,1876,1993
794663,55272,22464,55381,22613,263,563,1153,196,171,1177,937,4378,43,36,857,1793,1898,2108,2290,2043,1820,1876,1993
795664,55312,22528,55446,22678,793,615,1120,214,165,647,950,4240,47,41,863,1793,1898,2108,2290,2043,1820,1876,1993
796665,55380,22592,55511,22743,439,616,1093,225,171,431,811,4346,48,40,856,1842,1967,2180,2356,2152,1904,1962,2120
797666,55436,22652,55576,22808,600,672,1059,211,163,870,757,4193,36,49,860,1842,1967,2180,2356,2152,1904,1962,2120
798667,55492,22716,55641,22873,611,623,1041,185,139,959,669,4208,40,46,858,1842,1967,2180,2356,2152,1904,1962,2120
799668,55560,22788,55706,22938,458,515,1014,166,102,766,693,4363,44,47,858,1842,1967,2180,2356,2152,1904,1962,2120
800669,55620,22852,55771,23003,564,616,995,169,51,761,648,4446,41,39,861,1842,1967,2180,2356,2152,1904,1962,2120
801670,55672,22924,55836,23068,680,507,971,166,17,659,508,4545,30,41,859,1848,1984,2199,2328,2226,1945,1980,2151
802671,55732,22988,55901,23133,586,609,969,150,-16,483,591,4655,32,34,857,1848,1984,2199,2328,2226,1945,1980,2151
803672,55796,23028,55966,23198,538,939,961,104,-41,325,551,4630,50,33,859,1848,1984,2199,2328,2226,1945,1980,2151
804673,55856,23132,56031,23263,594,91,951,68,-71,462,591,4810,49,47,855,1848,1984,2199,2328,2226,1945,1980,2151
805674,55916,23184,56096,23328,600,757,913,44,-100,476,762,4794,41,38,863,1848,1984,2199,2328,2226,1945,1980,2151
806675,55976,23240,56161,23393,606,718,875,34,-142,124,815,4838,31,37,857,1848,1984,2199,2328,2226,1945,1980,2151
807676,56040,23300,56226,23458,558,674,810,-3,-171,-144,841,4717,45,33,857,1776,1901,2124,2249,2160,1892,1911,2048
808677,56108,23372,56291,23523,504,516,746,-33,-197,150,965,4789,39,48,858,1776,1901,2124,2249,2160,1892,1911,2048
809678,56164,23436,56356,23588,665,617,670,-70,-207,231,840,4771,45,39,861,1776,1901,2124,2249,2160,1892,1911,2048
810679,56220,23500,56421,23653,676,619,593,-85,-199,325,847,4550,41,39,858,1776,1901,2124,2249,2160,1892,1911,2048
811680,56268,23564,56486,23718,797,620,506,-102,-195,347,978,4595,31,37,858,1776,1901,2124,2249,2160,1892,1911,2048
812681,56332,23624,56551,23783,598,677,430,-107,-187,226,929,4365,37,42,856,1731,1843,2071,2236,2100,1870,1896,2020
813682,56392,23692,56616,23848,654,573,358,-98,-170,443,971,4341,30,47,858,1731,1843,2071,2236,2100,1870,1896,2020
814683,56448,23724,56681,23913,715,1063,294,-79,-172,621,944,4093,44,37,858,1731,1843,2071,2236,2100,1870,1896,2020
815684,56508,23808,56746,23978,671,390,219,-51,-180,495,757,3907,35,34,850,1731,1843,2071,2236,2100,1870,1896,2020
816686,56572,23872,56811,24043,622,641,163,-42,-182,558,679,3680,34,45,859,1731,1843,2071,2236,2100,1870,1896,2020
817686,56632,23920,56876,24108,679,862,121,-48,-194,485,621,3610,32,47,857,1731,1843,2071,2236,2100,1870,1896,2020
818687,56700,23992,56941,24173,576,553,98,-23,-213,357,499,3624,39,49,855,1742,1849,2089,2253,2151,1918,1933,2070
819688,56748,24048,57006,24238,846,764,98,-10,-234,457,496,3324,44,47,856,1742,1849,2089,2253,2151,1918,1933,2070
820689,56796,24120,57071,24303,867,556,103,-5,-243,442,530,3407,41,41,853,1742,1849,2089,2253,2151,1918,1933,2070
821690,56860,24184,57136,24368,668,657,104,10,-249,223,500,3333,45,40,855,1742,1849,2089,2253,2151,1918,1933,2070
822691,56924,24268,57201,24433,670,384,108,34,-260,-18,473,3372,51,44,857,1742,1849,2089,2253,2151,1918,1933,2070
823692,56988,24344,57266,24498,671,470,118,63,-263,19,388,3319,29,41,859,1738,1849,2091,2235,2160,1896,1907,2035
824693,57040,24404,57331,24563,837,677,119,74,-271,-43,457,3450,39,45,859,1738,1849,2091,2235,2160,1896,1907,2035
825694,57100,24484,57396,24628,743,408,94,100,-275,-153,575,3464,32,49,854,1738,1849,2091,2235,2160,1896,1907,2035
826695,57160,24540,57461,24693,749,720,33,113,-290,-20,617,3346,31,50,859,1738,1849,2091,2235,2160,1896,1907,2035
827696,57224,24616,57526,24758,701,457,-21,157,-297,3,703,3436,50,36,855,1738,1849,2091,2235,2160,1896,1907,2035
828697,57280,24680,57591,24823,812,608,-73,179,-293,-93,761,3550,34,49,859,1738,1849,2091,2235,2160,1896,1907,2035
829698,57344,24752,57656,24888,713,500,-123,219,-285,-38,634,3537,34,33,855,1737,1849,2063,2220,2030,1782,1824,1928
830699,57404,24804,57721,24953,769,765,-195,239,-250,-69,887,3612,30,43,857,1737,1849,2063,2220,2030,1782,1824,1928
831700,57456,24896,57786,25018,885,232,-252,264,-224,-237,940,3491,36,35,854,1737,1849,2063,2220,2030,1782,1824,1928
832701,57528,24948,57851,25083,627,748,-314,295,-200,-141,646,3615,32,50,858,1737,1849,2063,2220,2030,1782,1824,1928
833702,57584,25004,57916,25148,838,709,-346,308,-177,347,634,3416,32,39,856,1737,1849,2063,2220,2030,1782,1824,1928
834703,57640,25072,57981,25213,849,556,-368,314,-145,377,635,3569,32,47,853,1740,1840,2043,2191,1959,1760,1808,1924
835704,57684,25140,58046,25278,1025,552,-364,342,-115,195,447,3663,32,43,856,1740,1840,2043,2191,1959,1760,1808,1924
836705,57756,25180,58111,25343,667,932,-349,384,-96,372,424,3547,35,36,850,1740,1840,2043,2191,1959,1760,1808,1924
837706,57812,25244,58176,25408,878,634,-300,409,-86,366,390,3608,43,35,852,1740,1840,2043,2191,1959,1760,1808,1924
838707,57872,25304,58241,25473,834,690,-249,442,-65,179,256,3550,43,35,854,1740,1840,2043,2191,1959,1760,1808,1924
839708,57920,25388,58306,25538,1005,367,-187,467,-44,369,177,3355,37,45,854,1740,1840,2043,2191,1959,1760,1808,1924
840709,58000,25448,58371,25603,586,673,-130,461,-29,394,339,3167,30,45,855,1749,1842,2070,2247,2048,1832,1863,1977
841710,58040,25496,58436,25668,1117,843,-81,428,-20,-87,442,3191,48,33,857,1749,1842,2070,2247,2048,1832,1863,1977
842711,58100,25528,58501,25733,874,1084,-53,394,-11,-400,528,3145,46,30,846,1749,1842,2070,2247,2048,1832,1863,1977
843712,58156,25584,58566,25798,935,795,-19,361,4,-257,637,3128,38,32,847,1749,1842,2070,2247,2048,1832,1863,1977
844713,58212,25644,58631,25863,946,752,7,320,15,-320,768,3057,52,42,850,1749,1842,2070,2247,2048,1832,1863,1977
845714,58256,25700,58696,25928,1122,813,16,305,25,-402,743,3202,36,42,851,1796,1890,2123,2319,2044,1819,1857,1947
846715,58312,25756,58761,25993,983,824,20,303,38,-249,846,3244,37,47,847,1796,1890,2123,2319,2044,1819,1857,1947
847716,58376,25844,58826,26058,884,396,8,291,61,-161,962,3395,34,45,849,1796,1890,2123,2319,2044,1819,1857,1947
848717,58444,25872,58891,26123,830,1191,7,307,90,-564,921,3515,46,38,856,1796,1890,2123,2319,2044,1819,1857,1947
849718,58504,25940,58956,26188,937,687,-9,304,109,-435,995,3657,47,48,846,1796,1890,2123,2319,2044,1819,1857,1947
850719,58568,26000,59021,26253,888,793,-6,325,128,-315,898,3827,50,47,851,1796,1890,2123,2319,2044,1819,1857,1947
851720,58612,26072,59086,26318,1164,635,-14,332,153,-267,778,3904,44,50,851,1839,1931,2129,2322,1963,1742,1807,1903
852721,58684,26144,59151,26383,806,626,2,382,158,-53,754,4153,40,39,849,1839,1931,2129,2322,1963,1742,1807,1903
853722,58752,26200,59216,26448,852,837,30,395,185,-133,467,4028,45,40,853,1839,1931,2129,2322,1963,1742,1807,1903
854723,58816,26260,59281,26513,904,793,69,437,196,-250,423,4590,34,44,851,1839,1931,2129,2322,1963,1742,1807,1903
855724,58868,26328,59346,26578,1070,690,128,474,212,-135,396,4253,33,37,851,1839,1931,2129,2322,1963,1742,1807,1903
856725,58916,26388,59411,26643,1141,797,193,507,230,130,398,4489,32,37,849,1826,1924,2118,2290,1964,1748,1811,1926
857726,58968,26464,59476,26708,1107,583,258,498,236,-149,293,4229,30,49,847,1826,1924,2118,2290,1964,1748,1811,1926
858727,59036,26516,59541,26773,903,899,324,480,243,-395,323,4363,46,51,850,1826,1924,2118,2290,1964,1748,1811,1926
859728,59088,26572,59606,26838,1119,860,396,442,273,-372,370,4109,31,39,849,1826,1924,2118,2290,1964,1748,1811,1926
860729,59120,26624,59671,26903,1410,926,457,394,279,-289,554,4072,30,47,846,1826,1924,2118,2290,1964,1748,1811,1926
861730,59192,26696,59736,26968,902,668,511,360,288,-267,661,4035,42,33,840,1837,1935,2155,2350,2020,1809,1863,1964
862731,59220,26768,59801,27033,1497,659,552,300,308,-273,874,3812,34,47,851,1837,1935,2155,2350,2020,1809,1863,1964
863732,59292,26812,59866,27098,938,1035,584,229,317,-427,816,3698,31,44,843,1837,1935,2155,2350,2020,1809,1863,1964
864733,59356,26884,59931,27163,1039,676,601,157,333,-146,912,3664,45,54,845,1837,1935,2155,2350,2020,1809,1863,1964
865734,59408,26928,59996,27228,1206,1052,603,116,343,-62,1033,3558,34,35,849,1837,1935,2155,2350,2020,1809,1863,1964
866735,59444,26992,60061,27293,1442,804,605,99,353,-245,920,3677,31,42,841,1837,1935,2155,2350,2020,1809,1863,1964
867736,59500,27040,60126,27358,1203,1025,598,87,373,-123,928,3695,33,50,840,1900,1992,2208,2425,2032,1824,1882,1972
868737,59564,27092,60191,27423,1104,991,606,80,383,174,1083,3867,34,47,841,1900,1992,2208,2425,2032,1824,1882,1972
869738,59608,27180,60256,27488,1381,512,626,94,381,153,901,4056,48,39,844,1900,1992,2208,2425,2032,1824,1882,1972
870739,59676,27244,60321,27553,1077,814,658,112,388,108,794,4189,42,37,843,1900,1992,2208,2425,2032,1824,1882,1972
871740,59744,27308,60386,27618,1073,815,691,142,399,243,778,4473,34,50,847,1900,1992,2208,2425,2032,1824,1882,1972
872741,59784,27372,60451,27683,1454,816,734,171,412,61,731,4628,37,47,847,1888,1968,2144,2336,2018,1800,1839,1943
873742,59848,27464,60516,27748,1156,433,774,204,422,-124,563,4756,41,48,841,1888,1968,2144,2336,2018,1800,1839,1943
874743,59912,27504,60581,27813,1157,1114,822,214,437,-174,554,4799,44,48,851,1888,1968,2144,2336,2018,1800,1839,1943
875744,59952,27568,60646,27878,1488,816,860,201,441,-261,525,4636,36,46,841,1888,1968,2144,2336,2018,1800,1839,1943
876745,60008,27632,60711,27943,1299,817,896,182,444,-366,554,4761,46,46,839,1888,1968,2144,2336,2018,1800,1839,1943
877746,60076,27676,60776,28008,1146,1093,927,180,446,-412,488,4729,42,49,843,1888,1968,2144,2336,2018,1800,1839,1943
878747,60128,27740,60841,28073,1362,844,949,185,448,-435,503,4686,49,37,842,1823,1915,2131,2319,2023,1803,1851,1967
879748,60188,27788,60906,28138,1268,1065,961,176,453,-324,446,4469,34,40,841,1823,1915,2131,2319,2023,1803,1851,1967
880749,60248,27864,60971,28203,1274,701,965,154,459,-298,566,4266,41,46,841,1823,1915,2131,2319,2023,1803,1851,1967
881750,60320,27940,61036,28268,1117,688,957,142,460,-246,711,4301,51,49,845,1823,1915,2131,2319,2023,1803,1851,1967
882751,60348,27988,61101,28333,1712,1059,939,145,454,-224,737,4037,48,52,848,1823,1915,2131,2319,2023,1803,1851,1967
883752,60408,28044,61166,28398,1318,971,920,154,454,-36,885,4120,48,50,832,1825,1930,2161,2345,2048,1836,1884,1996
884753,60468,28108,61231,28463,1325,872,892,166,455,214,867,3946,50,53,840,1825,1930,2161,2345,2048,1836,1884,1996
885754,60520,28176,61296,28528,1441,818,879,181,457,275,890,4032,34,48,842,1825,1930,2161,2345,2048,1836,1884,1996
886755,60572,28248,61361,28593,1457,760,861,181,461,242,913,4004,45,42,840,1825,1930,2161,2345,2048,1836,1884,1996
887756,60640,28328,61426,28658,1253,641,845,174,464,169,876,4011,36,44,839,1825,1930,2161,2345,2048,1836,1884,1996
888757,60692,28384,61491,28723,1470,952,831,162,464,231,828,4066,54,45,847,1825,1930,2161,2345,2048,1836,1884,1996
889758,60740,28468,61556,28788,1541,579,818,143,464,192,858,4125,50,59,839,1845,1939,2171,2358,2105,1885,1921,2035
890759,60804,28548,61621,28853,1342,611,822,146,465,218,744,4282,42,45,842,1845,1939,2171,2358,2105,1885,1921,2035
891760,60844,28612,61686,28918,1673,813,822,135,472,284,761,4269,35,59,846,1845,1939,2171,2358,2105,1885,1921,2035
892761,60916,28692,61751,28983,1265,595,837,118,488,119,705,4368,39,52,837,1845,1939,2171,2358,2105,1885,1921,2035
893762,60972,28748,61816,29048,1476,906,830,93,501,79,651,4323,52,53,846,1845,1939,2171,2358,2105,1885,1921,2035
894763,61036,28824,61881,29113,1378,642,844,80,488,17,720,4473,48,53,839,1804,1902,2134,2300,2120,1883,1909,2033
895764,61100,28920,61946,29178,1379,354,836,52,491,-53,617,4427,37,55,843,1804,1902,2134,2300,2120,1883,1909,2033
896765,61156,28976,62011,29243,1490,865,824,41,488,-80,691,4442,45,41,847,1804,1902,2134,2300,2120,1883,1909,2033
897766,61224,29056,62076,29308,1338,547,811,38,482,-16,773,4560,43,56,840,1804,1902,2134,2300,2120,1883,1909,2033
898767,61280,29112,62141,29373,1499,858,782,47,481,-83,729,4457,39,57,847,1804,1902,2134,2300,2120,1883,1909,2033
899768,61340,29176,62206,29438,1455,759,761,82,468,155,650,4478,37,52,839,1804,1902,2134,2300,2120,1883,1909,2033
900769,61408,29244,62271,29503,1352,707,719,83,460,82,572,4281,43,56,841,1781,1894,2123,2282,2090,1848,1884,2013
901770,61468,29336,62336,29568,1458,374,692,88,461,-18,854,4235,52,41,844,1781,1894,2123,2282,2090,1848,1884,2013
902771,61528,29380,62401,29633,1464,999,640,95,475,-15,960,4226,49,43,845,1781,1894,2123,2282,2090,1848,1884,2013
903772,61580,29452,62466,29698,1581,641,593,134,456,116,976,4447,39,44,838,1781,1894,2123,2282,2090,1848,1884,2013
904773,61652,29516,62531,29763,1322,742,537,178,439,-83,960,4142,39,55,838,1781,1894,2123,2282,2090,1848,1884,2013
905774,61708,29576,62596,29828,1533,798,494,191,425,147,935,4099,50,47,843,1808,1920,2147,2312,2091,1850,1888,2022
906775,61752,29640,62661,29893,1710,749,457,185,400,236,768,4111,38,44,840,1808,1920,2147,2312,2091,1850,1888,2022
907776,61824,29728,62726,29958,1352,421,418,149,371,-22,776,3879,49,52,837,1808,1920,2147,2312,2091,1850,1888,2022
908777,61876,29776,62791,30023,1617,942,378,126,352,11,882,4044,49,44,846,1808,1920,2147,2312,2091,1850,1888,2022
909778,61932,29832,62856,30088,1579,853,357,117,323,102,959,4062,51,46,837,1808,1920,2147,2312,2091,1850,1888,2022
910779,62004,29904,62921,30153,1371,644,315,99,305,19,877,4086,35,55,837,1808,1920,2147,2312,2091,1850,1888,2022
911780,62040,29988,62986,30218,1856,472,305,94,292,200,840,4030,44,57,843,1801,1903,2144,2312,2119,1894,1898,2020
912781,62088,30064,63051,30283,1728,559,281,77,300,122,769,4112,44,57,838,1801,1903,2144,2312,2119,1894,1898,2020
913782,62160,30120,63116,30348,1419,820,277,70,311,41,773,4027,36,57,839,1801,1903,2144,2312,2119,1894,1898,2020
914783,62208,30172,63181,30413,1740,886,259,56,333,209,832,4127,35,57,841,1801,1903,2144,2312,2119,1894,1898,2020
915784,62272,30248,63246,30478,1542,572,260,55,347,407,911,4099,36,53,835,1801,1903,2144,2312,2119,1894,1898,2020
916785,62328,30304,63311,30543,1653,833,240,75,349,198,984,4104,50,56,841,1767,1876,2120,2280,2128,1904,1920,2060
917786,62392,30384,63376,30608,1555,515,219,91,364,90,975,3982,38,47,836,1767,1876,2120,2280,2128,1904,1920,2060
918787,62448,30444,63441,30673,1667,771,193,134,372,267,1062,4158,55,43,842,1767,1876,2120,2280,2128,1904,1920,2060
919788,62512,30508,63506,30738,1568,722,164,178,357,398,1197,4074,39,55,838,1767,1876,2120,2280,2128,1904,1920,2060
920789,62588,30544,63571,30803,1405,1108,131,211,330,403,1027,4106,41,46,840,1767,1876,2120,2280,2128,1904,1920,2060
921790,62644,30640,63636,30868,1666,320,103,232,298,211,1162,4124,45,42,835,1767,1876,2120,2280,2128,1904,1920,2060
922791,62700,30696,63701,30933,1677,831,82,268,260,51,1268,4201,47,50,843,1763,1870,2107,2273,2089,1854,1878,1997
923792,62780,30768,63766,30998,1360,623,53,300,230,-37,972,3997,42,45,838,1763,1870,2107,2273,2089,1854,1878,1997
924793,62864,30840,63831,31063,1287,615,19,327,202,297,997,4410,57,52,844,1763,1870,2107,2273,2089,1854,1878,1997
925794,62916,30916,63896,31128,1703,551,6,326,178,145,1183,4017,42,42,846,1763,1870,2107,2273,2089,1854,1878,1997
926795,62996,30980,63961,31193,1335,703,-27,294,137,-421,1179,3928,46,51,840,1763,1870,2107,2273,2089,1854,1878,1997
927796,63056,31044,64026,31258,1592,704,-64,262,90,-379,1106,3949,48,56,844,1778,1884,2122,2294,2063,1836,1864,1980
928797,63116,31124,64091,31323,1599,485,-100,228,65,-88,1137,3670,38,51,840,1778,1884,2122,2294,2063,1836,1864,1980
929798,63172,31168,64156,31388,1660,961,-119,225,46,40,1063,3948,43,44,842,1778,1884,2122,2294,2063,1836,1864,1980
930799,63228,31244,64221,31453,1671,548,-145,257,35,113,1111,3921,55,54,835,1778,1884,2122,2294,2063,1836,1864,1980
931800,63316,31308,64286,31518,1244,699,-151,292,31,248,1066,3773,42,53,840,1778,1884,2122,2294,2063,1836,1864,1980
932801,63376,31388,64351,31583,1600,481,-169,355,37,378,1074,3649,38,51,845,1778,1884,2122,2294,2063,1836,1864,1980
933802,63436,31456,64416,31648,1606,627,-165,425,57,427,902,3818,46,50,842,1794,1901,2141,2310,2063,1841,1873,1995
934803,63476,31516,64481,31713,1887,733,-182,501,70,593,1002,3798,47,42,840,1794,1901,2141,2310,2063,1841,1873,1995
935804,63560,31572,64546,31778,1314,795,-186,591,79,274,1180,3580,37,43,834,1794,1901,2141,2310,2063,1841,1873,1995
936805,63628,31656,64611,31843,1511,422,-221,671,113,89,1096,3777,34,55,842,1794,1901,2141,2310,2063,1841,1873,1995
937806,63692,31720,64676,31908,1563,673,-238,729,128,36,984,3559,46,42,844,1794,1901,2141,2310,2063,1841,1873,1995
938807,63752,31776,64741,31973,1619,784,-292,731,160,580,586,3749,52,46,839,1800,1898,2136,2312,2065,1848,1869,1975
939808,63816,31856,64806,32038,1571,466,-366,593,202,1126,793,2926,46,42,839,1800,1898,2136,2312,2065,1848,1869,1975
940809,63876,31908,64871,32103,1627,832,-449,430,211,612,1133,2898,58,54,843,1800,1898,2136,2312,2065,1848,1869,1975
941810,63956,31960,64936,32168,1359,847,-498,308,139,-542,1595,3100,59,43,838,1800,1898,2136,2312,2065,1848,1869,1975
942811,64032,32036,65001,32233,1396,534,-507,293,45,-537,1345,3790,46,46,842,1800,1898,2136,2312,2065,1848,1869,1975
943812,64104,32104,65066,32298,1438,630,-466,338,-14,515,884,3777,44,54,845,1800,1898,2136,2312,2065,1848,1869,1975
944813,64168,32176,65131,32363,1539,572,-425,356,-37,818,850,3810,42,54,844,1768,1853,2091,2258,2082,1851,1871,1993
945814,64248,32232,65196,32428,1322,783,-365,364,-72,371,1098,3902,43,42,843,1768,1853,2091,2258,2082,1851,1871,1993
946815,64308,32276,65261,32493,1578,958,-347,371,-117,73,1239,3958,43,47,844,1768,1853,2091,2258,2082,1851,1871,1993
947816,64380,32360,65326,32558,1420,435,-338,412,-148,475,1220,4213,47,50,838,1768,1853,2091,2258,2082,1851,1871,1993
948817,64436,32420,65391,32623,1631,741,-345,458,-176,882,1350,3867,51,58,845,1768,1853,2091,2258,2082,1851,1871,1993
949818,64520,32492,65590,32822,1422,747,-340,517,-178,563,1214,3792,44,53,839,1732,1840,2063,2225,2064,1794,1846,1986
950819,64596,32560,65655,32887,1509,794,-351,565,-164,237,1300,3824,51,44,841,1732,1840,2063,2225,2064,1794,1846,1986
951820,64656,32620,65720,32952,1715,900,-365,625,-159,156,1324,3832,45,44,840,1732,1840,2063,2225,2064,1794,1846,1986
952821,64720,32668,65785,33017,1667,1071,-381,673,-148,285,1245,3566,47,47,835,1732,1840,2063,2225,2064,1794,1846,1986
953822,64788,32760,65850,33082,1614,488,-398,683,-144,256,1359,3577,54,60,833,1732,1840,2063,2225,2064,1794,1846,1986
954823,64876,32832,65915,33147,1336,729,-427,683,-133,14,1182,3277,49,59,841,1732,1840,2063,2225,2064,1794,1846,1986
955824,64944,32900,65980,33212,1583,775,-462,652,-136,68,1157,3403,60,59,841,1760,1881,2104,2276,2016,1792,1860,1976
956825,65024,32972,66045,33277,1415,717,-481,616,-143,19,1177,3397,46,61,841,1760,1881,2104,2276,2016,1792,1860,1976
957826,65088,33052,66110,33342,1616,599,-506,551,-129,-104,1187,3305,55,57,842,1760,1881,2104,2276,2016,1792,1860,1976
958827,65164,33128,66175,33407,1454,636,-503,494,-140,-38,1297,3352,57,47,841,1760,1881,2104,2276,2016,1792,1860,1976
959828,65236,33204,66240,33472,1495,623,-515,451,-158,40,1104,3445,61,64,844,1760,1881,2104,2276,2016,1792,1860,1976
960829,65316,33276,66305,33537,1378,664,-510,419,-170,316,1221,3537,50,46,842,1821,1927,2167,2351,2031,1818,1848,1960
961830,65396,33360,66370,33602,1359,491,-495,393,-199,599,1333,3533,50,54,844,1821,1927,2167,2351,2031,1818,1848,1960
962831,65464,33416,66435,33667,1506,852,-482,369,-227,438,1285,3534,46,49,847,1821,1927,2167,2351,2031,1818,1848,1960
963832,65544,33500,66500,33732,1338,479,-476,378,-265,645,1318,3701,61,60,841,1821,1927,2167,2351,2031,1818,1848,1960
964833,65632,33580,66565,33797,1210,510,-466,423,-310,952,1415,3793,49,52,846,1821,1927,2167,2351,2031,1818,1848,1960
965834,65752,33676,66630,33862,743,273,-478,441,-396,1972,2319,3600,58,49,849,1821,1927,2167,2351,2031,1818,1848,1960
966835,65848,33760,66695,33927,1006,399,-451,308,-460,2146,1721,2570,57,54,857,1810,1898,2140,2312,2029,1813,1842,1956
967836,65916,33808,66760,33992,1353,870,-416,160,-488,130,875,2694,39,57,855,1810,1898,2140,2312,2029,1813,1842,1956
968837,66028,33856,66825,34057,745,891,-383,217,-528,-1186,572,3820,53,54,844,1810,1898,2140,2312,2029,1813,1842,1956
969838,66100,33932,66890,34122,1238,528,-336,334,-581,-738,609,3691,56,44,850,1810,1898,2140,2312,2029,1813,1842,1956
970839,66164,34020,66955,34187,1339,350,-307,375,-571,-640,380,3548,41,60,849,1810,1898,2140,2312,2029,1813,1842,1956
971840,66244,34096,67020,34252,1121,487,-303,489,-502,-734,407,4153,42,58,849,1790,1892,2108,2270,1988,1768,1816,1926
972841,66312,34176,67085,34317,1268,419,-323,598,-475,591,1556,4385,57,46,848,1790,1892,2108,2270,1988,1768,1816,1926
973842,66400,34244,67150,34382,990,565,-342,524,-451,83,1171,3029,58,58,850,1790,1892,2108,2270,1988,1768,1816,1926
974843,66456,34324,67215,34447,1401,397,-401,405,-449,-1029,1395,3399,59,59,852,1790,1892,2108,2270,1988,1768,1816,1926
975844,66536,34400,67280,34512,1083,433,-453,328,-471,-935,1575,3265,62,52,849,1790,1892,2108,2270,1988,1768,1816,1926
976845,66620,34460,67345,34577,1011,639,-486,232,-497,-587,1497,2984,66,45,851,1790,1892,2108,2270,1988,1768,1816,1926
977846,66704,34548,67410,34642,987,261,-504,145,-496,-478,1156,3205,49,61,852,1771,1879,2083,2264,1986,1773,1829,1943
978847,66788,34628,67475,34707,964,343,-499,95,-502,-471,1088,3238,61,60,854,1771,1879,2083,2264,1986,1773,1829,1943
979848,66876,34712,67540,34772,887,270,-456,71,-551,-138,1119,3283,49,46,856,1771,1879,2083,2264,1986,1773,1829,1943
980849,66956,34772,67605,34837,969,576,-411,79,-584,59,736,3562,65,54,857,1771,1879,2083,2264,1986,1773,1829,1943
981850,67036,34840,67670,34902,950,472,-368,127,-609,458,735,3633,50,55,854,1771,1879,2083,2264,1986,1773,1829,1943
982851,67120,34920,67735,34967,877,304,-322,191,-662,740,1083,3774,63,45,854,1765,1869,2096,2255,2059,1828,1863,1998
983852,67212,34992,67800,35032,744,395,-273,195,-722,589,949,3286,55,44,857,1765,1869,2096,2255,2059,1828,1863,1998
984853,67296,35052,67865,35097,822,551,-232,234,-756,317,629,3592,46,55,858,1765,1869,2096,2255,2059,1828,1863,1998
985854,67388,35112,67930,35162,689,558,-232,253,-770,430,791,3580,60,46,856,1765,1869,2096,2255,2059,1828,1863,1998
986855,67476,35176,67995,35227,711,509,-217,240,-790,203,1002,3147,53,44,857,1765,1869,2096,2255,2059,1828,1863,1998
987856,67560,35244,68060,35292,738,455,-232,195,-813,-138,924,3168,63,44,858,1765,1869,2096,2255,2059,1828,1863,1998
988857,67640,35328,68125,35357,771,232,-252,187,-798,-292,825,3358,56,49,857,1789,1886,2130,2299,2043,1817,1845,1958
989858,67724,35396,68190,35422,697,428,-295,165,-773,-237,1031,3254,42,54,856,1789,1886,2130,2299,2043,1817,1845,1958
990859,67808,35460,68255,35487,674,479,-342,125,-765,-275,1142,3080,54,52,858,1789,1886,2130,2299,2043,1817,1845,1958
991860,67884,35520,68320,35552,761,536,-387,45,-752,-603,1080,3147,44,50,858,1789,1886,2130,2299,2043,1817,1845,1958
992861,67956,35592,68385,35617,802,377,-437,-13,-719,-543,1041,3470,45,42,857,1789,1886,2130,2299,2043,1817,1845,1958
993862,68048,35672,68450,35682,519,259,-482,-55,-704,-232,1128,3518,44,54,857,1809,1900,2130,2313,1999,1787,1826,1933
994863,68124,35736,68515,35747,707,460,-511,-81,-691,-366,912,3551,41,39,861,1809,1900,2130,2313,1999,1787,1826,1933
995864,68200,35796,68580,35812,693,516,-534,-88,-683,-374,947,3683,42,47,859,1809,1900,2130,2313,1999,1787,1826,1933
996865,68272,35864,68645,35877,735,412,-545,-66,-658,-176,897,3743,58,47,858,1809,1900,2130,2313,1999,1787,1826,1933
997866,68348,35928,68710,35942,671,464,-549,-32,-664,4,916,3900,56,41,858,1809,1900,2130,2313,1999,1787,1826,1933
998867,68416,35992,68775,36007,768,465,-540,-6,-666,52,861,3727,47,41,859,1809,1900,2130,2313,1999,1787,1826,1933
999868,68520,36064,68840,36072,270,356,-521,15,-672,107,779,3781,49,43,857,1766,1863,2086,2244,2032,1804,1844,1978
1000869,68576,36144,68905,36137,881,238,-502,29,-683,188,902,3873,44,48,863,1766,1863,2086,2244,2032,1804,1844,1978
1001870,68684,36192,68970,36202,179,659,-475,92,-719,344,918,4098,52,50,859,1766,1863,2086,2244,2032,1804,1844,1978
1002871,68764,36260,69035,36267,511,405,-449,141,-741,337,908,3778,38,49,862,1766,1863,2086,2244,2032,1804,1844,1978
1003872,68840,36328,69100,36332,548,401,-429,182,-762,161,814,3743,46,43,860,1766,1863,2086,2244,2032,1804,1844,1978
1004873,68912,36392,69165,36397,589,453,-429,199,-786,109,823,3642,54,41,861,1744,1847,2080,2233,2083,1840,1874,2006
1005874,68992,36480,69230,36462,471,125,-424,201,-816,154,911,3494,42,49,861,1744,1847,2080,2233,2083,1840,1874,2006
1006875,69060,36548,69295,36527,617,371,-435,169,-828,-125,1024,3399,39,46,860,1744,1847,2080,2233,2083,1840,1874,2006
1007876,69160,36632,69360,36592,175,148,-466,115,-828,-384,787,3160,40,49,862,1744,1847,2080,2233,2083,1840,1874,2006
1008877,69244,36700,69425,36657,351,344,-495,80,-824,-376,847,3358,46,46,864,1744,1847,2080,2233,2083,1840,1874,2006
1009878,69320,36768,69490,36722,438,340,-531,31,-807,-203,933,3241,52,41,865,1744,1847,2080,2233,2083,1840,1874,2006
1010879,69388,36840,69555,36787,534,282,-567,-12,-779,-188,897,3351,36,47,863,1780,1880,2121,2302,2066,1835,1865,1975
1011880,69456,36920,69620,36852,531,163,-610,-61,-735,-300,805,3194,49,47,863,1780,1880,2121,2302,2066,1835,1865,1975
1012881,69536,36976,69685,36917,362,474,-641,-81,-698,-306,657,3359,54,47,863,1780,1880,2121,2302,2066,1835,1865,1975
1013882,69612,37060,69750,36982,399,101,-676,-85,-659,-45,749,3447,53,56,863,1780,1880,2121,2302,2066,1835,1865,1975
1014883,69676,37132,69815,37047,550,243,-707,-78,-620,121,631,3488,51,43,864,1780,1880,2121,2302,2066,1835,1865,1975
1015884,69772,37204,69880,37112,112,234,-736,-45,-602,131,610,3769,45,48,864,1798,1887,2121,2295,2029,1806,1837,1957
1016885,69844,37284,69945,37177,405,116,-755,-7,-596,354,553,3760,42,39,865,1798,1887,2121,2295,2029,1806,1837,1957
1017886,69920,37356,70010,37242,341,207,-767,2,-583,164,544,3590,40,43,865,1798,1887,2121,2295,2029,1806,1837,1957
1018887,70000,37436,70075,37307,273,89,-765,25,-594,363,465,3787,50,56,865,1798,1887,2121,2295,2029,1806,1837,1957
1019888,70060,37508,70140,37372,529,180,-776,45,-602,249,512,3962,47,42,865,1798,1887,2121,2295,2029,1806,1837,1957
1020889,70124,37592,70205,37437,480,7,-760,79,-621,328,569,4014,49,58,865,1798,1887,2121,2295,2029,1806,1837,1957
1021890,70208,37660,70270,37502,207,204,-760,80,-633,278,757,3794,39,47,864,1766,1857,2086,2242,2036,1802,1837,1967
1022891,70288,37724,70335,37567,239,255,-743,82,-653,-144,643,3832,50,42,866,1766,1857,2086,2242,2036,1802,1837,1967
1023892,70376,37784,70400,37632,111,311,-746,80,-658,-230,698,3542,33,41,864,1766,1857,2086,2242,2036,1802,1837,1967
1024893,70436,37872,70465,37697,467,-68,-737,65,-656,-99,871,3702,46,41,865,1766,1857,2086,2242,2036,1802,1837,1967
1025894,70504,37940,70530,37762,363,178,-743,41,-656,-87,960,3468,38,47,865,1766,1857,2086,2242,2036,1802,1837,1967
1026895,70584,38012,70595,37827,195,120,-746,15,-664,-273,795,3368,34,45,865,1758,1854,2086,2254,2058,1820,1860,1984
1027896,70664,38068,70660,37892,177,331,-766,-14,-642,-296,781,3271,30,40,866,1758,1854,2086,2254,2058,1820,1860,1984
1028897,70748,38148,70725,37957,103,12,-782,-32,-613,-257,750,2997,40,43,866,1758,1854,2086,2254,2058,1820,1860,1984
1029898,70820,38220,70790,38022,245,104,-814,-62,-602,-276,725,3119,47,55,867,1758,1854,2086,2254,2058,1820,1860,1984
1030899,70888,38316,70855,38087,291,-234,-833,-48,-602,-121,596,3241,32,43,867,1758,1854,2086,2254,2058,1820,1860,1984
