%  Data file recorded 2016/9/14  14:41:44
%  Stride Frequency         = [1, 1]
%  Lead In /Lead Out        = 
%  Deltas (Fractional)      = [0.25, 0.25, 0.25],[0.25, 0.25, 0.25]
%  Phase                    = 32768
%  Experiment.py 
%  Motor Gains    = [5000, 400, 200, 0, 300, 5000, 400, 200, 0, 300]
% Columns: 
% time | Right Leg Pos | Left Leg Pos | Commanded Right Leg Pos | Commanded Left Leg Pos | DCR | DCL | GyroX | GyroY | GyroZ | AX | AY | AZ | RBEMF | LBEMF | VBatt | S1 | S2 | S3 | S4 | S5 | S6 | S7 | S8
248,-15960,-47772,-48254,-15486,-3800,3800,51,-88,-4,457,172,3868,-6,5,920,1819,1912,2113,2279,2071,1803,1882,2028
1249,-15972,-47776,-48254,-15486,-3800,3800,51,-89,-2,448,145,3884,5,-1,920,1819,1912,2113,2279,2071,1803,1882,2028
2250,-15976,-47780,-48254,-15486,-3800,3800,51,-87,-5,444,148,3915,6,7,921,1819,1912,2113,2279,2071,1803,1882,2028
3251,-15960,-47780,-48254,-15486,-3800,3800,51,-86,-5,440,143,3902,9,-4,921,1819,1912,2113,2279,2071,1803,1882,2028
4252,-15964,-47776,-48254,-15486,-3800,3800,52,-87,-5,461,143,3914,7,7,920,1819,1912,2113,2279,2071,1803,1882,2028
5253,-15964,-47788,-48254,-15486,-3800,3800,52,-87,-8,472,153,3903,7,-7,921,1820,1914,2113,2282,2074,1802,1881,2027
6254,-15968,-47764,-48254,-15486,-3800,3800,50,-86,-6,465,153,3925,9,6,921,1820,1914,2113,2282,2074,1802,1881,2027
7255,-15964,-47772,-48254,-15486,-3800,3800,51,-90,-3,459,133,3901,7,2,921,1820,1914,2113,2282,2074,1802,1881,2027
8256,-15960,-47776,-48254,-15486,-3800,3800,53,-90,-5,452,157,3887,9,-7,921,1820,1914,2113,2282,2074,1802,1881,2027
9257,-15968,-47780,-48254,-15486,-3800,3800,53,-87,-7,423,135,3886,9,-4,920,1820,1914,2113,2282,2074,1802,1881,2027
10258,-15980,-47776,-48254,-15486,-3800,3800,52,-85,-7,439,142,3917,-1,7,920,1820,1914,2113,2282,2074,1802,1881,2027
11259,-15980,-47788,-48254,-15486,-3800,3800,53,-85,-5,459,152,3892,-6,-7,921,1822,1914,2116,2284,2076,1804,1881,2028
12260,-15960,-47780,-48254,-15486,-3800,3800,54,-86,-7,453,144,3901,-8,3,920,1822,1914,2116,2284,2076,1804,1881,2028
13261,-15968,-47776,-48254,-15486,-3800,3800,51,-88,-6,456,146,3887,-4,5,920,1822,1914,2116,2284,2076,1804,1881,2028
14262,-15964,-47780,-48254,-15486,-3800,3800,50,-86,-5,456,157,3902,-6,-7,921,1822,1914,2116,2284,2076,1804,1881,2028
15263,-15964,-47784,-48254,-15486,-3800,3800,50,-85,-4,472,160,3879,2,6,920,1822,1914,2116,2284,2076,1804,1881,2028
16264,-15960,-47772,-48254,-15486,-3800,3800,50,-83,-5,439,138,3864,6,-7,920,1820,1913,2113,2282,2073,1804,1881,2026
17265,-15972,-47784,-48254,-15486,-3800,3800,50,-84,-5,417,149,3882,6,-5,920,1820,1913,2113,2282,2073,1804,1881,2026
18266,-15972,-47784,-48254,-15486,-3800,3800,51,-85,-6,422,190,3883,10,1,921,1820,1913,2113,2282,2073,1804,1881,2026
19267,-15968,-47768,-48254,-15486,-3800,3800,51,-86,-6,442,171,3862,-2,-6,919,1820,1913,2113,2282,2073,1804,1881,2026
20268,-15968,-47780,-48254,-15486,-3800,3800,50,-86,-6,456,159,3888,-6,-6,921,1820,1913,2113,2282,2073,1804,1881,2026
21269,-15980,-47780,-48254,-15486,-3800,3800,52,-85,-6,447,157,3918,-9,3,920,1820,1913,2113,2282,2073,1804,1881,2026
22270,-15968,-47780,-48254,-15486,-3800,3800,53,-86,-5,439,159,3900,-8,6,921,1820,1913,2113,2281,2073,1803,1880,2027
23271,-15972,-47780,-48254,-15486,-3800,3800,52,-85,-7,450,146,3894,-9,-4,921,1820,1913,2113,2281,2073,1803,1880,2027
24272,-15972,-47784,-48254,-15486,-3800,3800,52,-86,-8,431,181,3893,-7,5,920,1820,1913,2113,2281,2073,1803,1880,2027
25273,-15972,-47776,-48254,-15486,-3800,3800,53,-84,-8,454,188,3887,-6,-7,921,1820,1913,2113,2281,2073,1803,1880,2027
26274,-15968,-47784,-48254,-15486,-3800,3800,51,-84,-7,447,179,3889,-9,5,921,1820,1913,2113,2281,2073,1803,1880,2027
27275,-15956,-47792,-48254,-15486,-3800,3800,50,-86,-5,447,141,3881,-9,-3,921,1818,1911,2111,2280,2073,1802,1882,2027
28276,-15956,-47772,-48254,-15486,-3800,3800,52,-85,-7,450,141,3897,-7,1,920,1818,1911,2111,2280,2073,1802,1882,2027
29277,-15964,-47784,-48254,-15486,-3800,3800,51,-86,-7,479,143,3887,-9,6,921,1818,1911,2111,2280,2073,1802,1882,2027
30278,-15960,-47792,-48254,-15486,-3800,3800,48,-87,-8,467,147,3892,-9,-7,920,1818,1911,2111,2280,2073,1802,1882,2027
31279,-15968,-47784,-48254,-15486,-3800,3800,48,-89,-5,470,165,3889,-7,0,921,1818,1911,2111,2280,2073,1802,1882,2027
32280,-15972,-47788,-48254,-15486,-3800,3800,51,-87,-7,454,134,3865,-8,6,921,1818,1911,2111,2280,2073,1802,1882,2027
33281,-15968,-47776,-48254,-15486,-3800,3800,52,-86,-8,456,153,3876,-9,-6,921,1819,1912,2112,2281,2073,1803,1880,2025
34282,-15964,-47788,-48254,-15486,-3800,3800,51,-87,-7,449,149,3873,-8,2,920,1819,1912,2112,2281,2073,1803,1880,2025
35283,-15972,-47768,-48254,-15486,-3800,3800,50,-87,-7,434,153,3877,-1,7,921,1819,1912,2112,2281,2073,1803,1880,2025
36284,-15964,-47780,-48254,-15486,-3800,3800,50,-86,-8,448,164,3864,-6,-7,920,1819,1912,2112,2281,2073,1803,1880,2025
37285,-15968,-47776,-48254,-15486,-3800,3800,50,-86,-8,413,168,3865,1,-7,921,1819,1912,2112,2281,2073,1803,1880,2025
38286,-15976,-47784,-48254,-15486,-3800,3800,50,-87,-7,457,162,3876,8,-2,920,1819,1913,2111,2281,2072,1801,1877,2023
39287,-15964,-47780,-48254,-15486,-3800,3800,51,-87,-5,449,177,3898,6,-1,921,1819,1913,2111,2281,2072,1801,1877,2023
40288,-15968,-47780,-48254,-15486,-3800,3800,51,-90,-8,454,161,3921,7,-7,921,1819,1913,2111,2281,2072,1801,1877,2023
41289,-15968,-47784,-48254,-15486,-3800,3800,51,-91,-7,431,159,3880,6,0,921,1819,1913,2111,2281,2072,1801,1877,2023
42290,-15980,-47776,-48254,-15486,-3800,3800,53,-88,-6,419,141,3897,9,-5,921,1819,1913,2111,2281,2072,1801,1877,2023
43291,-15972,-47776,-48254,-15486,-3800,3800,54,-87,-5,443,155,3911,10,6,921,1819,1913,2111,2281,2072,1801,1877,2023
44292,-15960,-47788,-48254,-15486,-3800,3800,53,-88,-8,447,134,3902,9,-4,920,1819,1911,2111,2281,2073,1803,1880,2027
45293,-15960,-47780,-48254,-15486,-3800,3800,52,-88,-10,430,171,3908,10,-5,920,1819,1911,2111,2281,2073,1803,1880,2027
46294,-15976,-47788,-48254,-15486,-3800,3800,51,-87,-7,431,162,3893,9,6,920,1819,1911,2111,2281,2073,1803,1880,2027
47296,-15968,-47780,-48254,-15486,-3800,3800,52,-86,-7,433,159,3857,1,1,921,1819,1911,2111,2281,2073,1803,1880,2027
48296,-15960,-47772,-48254,-15486,-3800,3800,50,-89,-6,443,151,3847,-3,7,920,1819,1911,2111,2281,2073,1803,1880,2027
49297,-15976,-47780,-48254,-15486,-3800,3800,50,-89,-6,442,140,3864,-6,-7,921,1817,1909,2110,2279,2074,1804,1880,2028
50298,-15968,-47784,-48254,-15486,-3800,3800,51,-88,-6,453,160,3864,-8,5,920,1817,1909,2110,2279,2074,1804,1880,2028
51299,-15968,-47764,-48254,-15486,-3800,3800,50,-85,-6,411,135,3898,-9,7,921,1817,1909,2110,2279,2074,1804,1880,2028
52300,-15960,-47780,-48254,-15486,-3800,3800,51,-84,-8,423,163,3868,-9,-4,920,1817,1909,2110,2279,2074,1804,1880,2028
53301,-15964,-47772,-48254,-15486,-3800,3800,51,-85,-9,451,156,3895,-7,7,919,1817,1909,2110,2279,2074,1804,1880,2028
54302,-15968,-47784,-48254,-15486,-3800,3800,50,-87,-8,445,166,3913,-7,-5,921,1817,1909,2110,2279,2074,1804,1880,2028
55303,-15968,-47788,-48254,-15486,-3800,3800,51,-88,-9,442,161,3882,0,7,921,1819,1913,2113,2281,2072,1803,1880,2025
56304,-15964,-47780,-48254,-15486,-3800,3800,54,-88,-10,472,172,3864,9,-7,921,1819,1913,2113,2281,2072,1803,1880,2025
57305,-15964,-47776,-48254,-15486,-3800,3800,56,-86,-9,455,179,3877,8,-6,921,1819,1913,2113,2281,2072,1803,1880,2025
58306,-15972,-47776,-48254,-15486,-3800,3800,54,-85,-7,441,165,3844,6,6,921,1819,1913,2113,2281,2072,1803,1880,2025
59307,-15972,-47792,-48254,-15486,-3800,3800,54,-84,-8,439,166,3873,10,-6,921,1819,1913,2113,2281,2072,1803,1880,2025
60308,-15968,-47772,-48254,-15486,-3800,3800,53,-87,-10,464,171,3888,6,3,921,1821,1912,2114,2282,2073,1803,1880,2027
61309,-15968,-47772,-48254,-15486,-3800,3800,53,-86,-9,457,154,3891,0,7,920,1821,1912,2114,2282,2073,1803,1880,2027
62310,-15968,-47784,-48254,-15486,-3800,3800,54,-86,-8,441,182,3896,9,-1,920,1821,1912,2114,2282,2073,1803,1880,2027
63311,-15956,-47780,-48254,-15486,-3800,3800,53,-88,-8,435,181,3880,10,2,921,1821,1912,2114,2282,2073,1803,1880,2027
64312,-15956,-47776,-48254,-15486,-3800,3800,51,-88,-8,421,166,3892,10,0,920,1821,1912,2114,2282,2073,1803,1880,2027
65313,-15960,-47788,-48254,-15486,-3800,3800,54,-88,-9,443,146,3935,8,1,921,1821,1912,2114,2282,2073,1803,1880,2027
66314,-15956,-47776,-48254,-15486,-3800,3800,55,-90,-8,461,157,3913,2,2,921,1817,1912,2112,2281,2073,1803,1880,2025
67315,-15976,-47780,-48254,-15486,-3800,3800,54,-90,-6,450,142,3933,8,-7,921,1817,1912,2112,2281,2073,1803,1880,2025
68316,-15972,-47776,-48254,-15486,-3800,3800,53,-89,-6,458,132,3928,10,6,921,1817,1912,2112,2281,2073,1803,1880,2025
69317,-15964,-47792,-48254,-15486,-3800,3800,51,-93,-8,448,156,3876,6,0,921,1817,1912,2112,2281,2073,1803,1880,2025
70318,-15964,-47788,-48254,-15486,-3800,3800,51,-91,-9,439,148,3889,0,1,919,1817,1912,2112,2281,2073,1803,1880,2025
71319,-15976,-47780,-48254,-15486,-3800,3800,52,-89,-9,436,154,3856,-2,6,920,1820,1913,2113,2282,2074,1804,1881,2027
72320,-15968,-47792,-48254,-15486,-3800,3800,51,-86,-7,425,137,3866,-7,-6,921,1820,1913,2113,2282,2074,1804,1881,2027
73321,-15972,-47776,-48254,-15486,-3800,3800,53,-83,-7,448,153,3900,-9,0,920,1820,1913,2113,2282,2074,1804,1881,2027
74322,-15972,-47768,-48254,-15486,-3800,3800,54,-84,-5,453,157,3909,-9,6,920,1820,1913,2113,2282,2074,1804,1881,2027
75323,-15972,-47780,-48254,-15486,-3800,3800,52,-88,-7,450,162,3937,-9,4,921,1820,1913,2113,2282,2074,1804,1881,2027
76324,-15960,-47776,-48254,-15486,-3800,3800,52,-89,-6,462,161,3926,-8,-7,921,1820,1913,2113,2282,2074,1804,1881,2027
77325,-15968,-47780,-48254,-15486,-3800,3800,51,-89,-7,476,161,3890,-8,3,920,1818,1912,2112,2280,2073,1805,1881,2028
78326,-15968,-47784,-48254,-15486,-3800,3800,51,-89,-6,469,152,3878,-3,-4,921,1818,1912,2112,2280,2073,1805,1881,2028
79327,-15972,-47776,-48254,-15486,-3800,3800,50,-87,-6,485,140,3896,-4,6,921,1818,1912,2112,2280,2073,1805,1881,2028
80328,-15968,-47780,-48254,-15486,-3800,3800,51,-86,-7,455,152,3913,-9,-6,921,1818,1912,2112,2280,2073,1805,1881,2028
81329,-15964,-47772,-48254,-15486,-3800,3800,52,-88,-4,470,163,3855,-7,-7,920,1818,1912,2112,2280,2073,1805,1881,2028
82330,-15964,-47772,-48254,-15486,-3800,3800,52,-87,-5,479,134,3886,-7,6,921,1820,1913,2112,2282,2074,1805,1881,2026
83331,-15968,-47788,-48254,-15486,-3800,3800,49,-87,-7,461,136,3887,4,-7,921,1820,1913,2112,2282,2074,1805,1881,2026
84332,-15972,-47776,-48254,-15486,-3800,3800,49,-87,-4,447,156,3876,7,4,921,1820,1913,2112,2282,2074,1805,1881,2026
85333,-15972,-47776,-48254,-15486,-3800,3800,51,-85,-4,440,157,3886,8,5,920,1820,1913,2112,2282,2074,1805,1881,2026
86334,-15984,-47792,-48254,-15486,-3800,3800,51,-85,-4,454,125,3874,8,0,921,1820,1913,2112,2282,2074,1805,1881,2026
87335,-15968,-47776,-48254,-15486,-3800,3800,52,-83,-5,462,115,3871,4,2,920,1820,1913,2112,2282,2074,1805,1881,2026
88336,-15956,-47784,-48254,-15486,-3800,3800,50,-83,-6,466,134,3894,3,-2,921,1818,1912,2113,2282,2074,1805,1880,2026
89337,-15960,-47780,-48254,-15486,-3800,3800,49,-88,-7,457,152,3912,-6,7,921,1818,1912,2113,2282,2074,1805,1880,2026
90338,-15960,-47780,-48254,-15486,-3800,3800,50,-88,-3,452,165,3912,-5,-7,920,1818,1912,2113,2282,2074,1805,1880,2026
91339,-15972,-47776,-48254,-15486,-3800,3800,49,-86,-3,447,162,3879,-5,-3,920,1818,1912,2113,2282,2074,1805,1880,2026
92340,-15976,-47780,-48254,-15486,-3800,3800,50,-85,-4,464,173,3883,-9,-5,921,1818,1912,2113,2282,2074,1805,1880,2026
93341,-15968,-47780,-48254,-15486,-3800,3800,52,-84,-4,483,161,3878,-9,1,921,1818,1912,2112,2281,2073,1804,1881,2027
94342,-15964,-47788,-48254,-15486,-3800,3800,51,-85,-1,450,141,3859,-6,7,920,1818,1912,2112,2281,2073,1804,1881,2027
95343,-15960,-47792,-48254,-15486,-3800,3800,51,-84,-3,457,125,3865,-9,1,921,1818,1912,2112,2281,2073,1804,1881,2027
96344,-15968,-47796,-48254,-15486,-3800,3800,51,-84,-7,466,146,3878,-7,-6,921,1818,1912,2112,2281,2073,1804,1881,2027
97345,-15972,-47776,-48254,-15486,-3800,3800,50,-85,-7,476,163,3867,-7,-3,920,1818,1912,2112,2281,2073,1804,1881,2027
98346,-15968,-47776,-48254,-15486,-3800,3800,49,-85,-6,461,168,3884,-9,7,921,1818,1912,2112,2281,2073,1804,1881,2027
99347,-15976,-47768,-48254,-15486,-3800,3800,50,-84,-6,462,157,3876,-8,5,921,1818,1912,2112,2281,2073,1804,1880,2026
100348,-15964,-47780,-48254,-15486,-3800,3800,51,-87,-3,461,158,3889,-7,-1,921,1818,1912,2112,2281,2073,1804,1880,2026
101349,-15972,-47788,-48254,-15486,-3800,3800,50,-86,-4,443,164,3878,-4,2,920,1818,1912,2112,2281,2073,1804,1880,2026
102350,-15972,-47776,-48254,-15486,-3800,3800,49,-84,-5,466,152,3855,1,-6,920,1818,1912,2112,2281,2073,1804,1880,2026
103351,-15972,-47780,-48254,-15486,-3800,3800,50,-84,-6,498,133,3878,5,1,921,1818,1912,2112,2281,2073,1804,1880,2026
104352,-15972,-47776,-48254,-15486,-3800,3800,52,-84,-4,467,173,3884,10,3,919,1819,1912,2112,2281,2074,1804,1881,2026
105353,-15976,-47772,-48254,-15486,-3800,3800,50,-85,-5,443,164,3906,8,-5,920,1819,1912,2112,2281,2074,1804,1881,2026
106354,-15972,-47776,-48254,-15486,-3800,3800,51,-87,-7,448,173,3882,2,-8,920,1819,1912,2112,2281,2074,1804,1881,2026
107355,-15960,-47788,-48254,-15486,-3800,3800,50,-88,-7,457,168,3871,0,1,921,1819,1912,2112,2281,2074,1804,1881,2026
108356,-15968,-47776,-48254,-15486,-3800,3800,49,-88,-5,445,162,3914,10,1,920,1819,1912,2112,2281,2074,1804,1881,2026
109357,-15960,-47780,-48254,-15486,-3800,3800,50,-85,-5,469,147,3923,10,4,920,1819,1912,2112,2281,2074,1804,1881,2026
110358,-15968,-47788,-48254,-15486,-3800,3800,51,-86,-7,445,160,3893,10,-7,921,1818,1912,2112,2282,2073,1803,1877,2023
111359,-15972,-47776,-48254,-15486,-3800,3800,53,-88,-7,437,146,3883,7,6,920,1818,1912,2112,2282,2073,1803,1877,2023
112360,-15968,-47780,-48254,-15486,-3800,3800,53,-89,-8,428,141,3872,3,-5,920,1818,1912,2112,2282,2073,1803,1877,2023
113361,-15968,-47780,-48254,-15486,-3800,3800,53,-86,-7,434,174,3886,-3,-4,921,1818,1912,2112,2282,2073,1803,1877,2023
114362,-15960,-47772,-48254,-15486,-3800,3800,52,-86,-6,440,164,3875,-9,7,920,1818,1912,2112,2282,2073,1803,1877,2023
115363,-15976,-47780,-48254,-15486,-3800,3800,51,-87,-6,435,156,3864,-6,-7,921,1819,1912,2112,2282,2073,1804,1880,2025
116364,-15964,-47788,-48254,-15486,-3800,3800,50,-86,-9,455,139,3873,2,0,921,1819,1912,2112,2282,2073,1804,1880,2025
117365,-15976,-47780,-48254,-15486,-3800,3800,51,-86,-8,451,146,3913,9,3,921,1819,1912,2112,2282,2073,1804,1880,2025
118366,-15968,-47784,-48254,-15486,-3800,3800,52,-88,-7,417,159,3857,-2,7,921,1819,1912,2112,2282,2073,1804,1880,2025
119367,-15976,-47776,-48254,-15486,-3800,3800,51,-87,-6,425,171,3914,-8,-2,920,1819,1912,2112,2282,2073,1804,1880,2025
120368,-15972,-47788,-48254,-15486,-3800,3800,53,-87,-6,433,169,3907,-7,-7,920,1819,1912,2112,2282,2073,1804,1880,2025
121369,-15964,-47784,-48254,-15486,-3800,3800,53,-87,-6,444,141,3896,5,-3,919,1815,1911,2111,2283,2076,1806,1881,2026
122370,-15972,-47776,-48254,-15486,-3800,3800,51,-88,-6,432,145,3895,9,1,920,1815,1911,2111,2283,2076,1806,1881,2026
123371,-15960,-47768,-48254,-15486,-3800,3800,49,-86,-6,440,156,3884,8,-7,921,1815,1911,2111,2283,2076,1806,1881,2026
124372,-15956,-47776,-48254,-15486,-3800,3800,49,-85,-8,438,174,3861,-1,3,921,1815,1911,2111,2283,2076,1806,1881,2026
125373,-15976,-47780,-48254,-15486,-3800,3800,50,-85,-10,457,165,3896,-2,6,921,1815,1911,2111,2283,2076,1806,1881,2026
126374,-15960,-47788,-48254,-15486,-3800,3800,53,-85,-7,452,162,3903,-9,3,920,1819,1912,2112,2281,2072,1804,1880,2026
127375,-15972,-47776,-48254,-15486,-3800,3800,54,-88,-5,440,173,3884,-8,5,921,1819,1912,2112,2281,2072,1804,1880,2026
128376,-15964,-47784,-48254,-15486,-3800,3800,53,-88,-7,423,164,3871,-9,-7,921,1819,1912,2112,2281,2072,1804,1880,2026
129377,-15968,-47784,-48254,-15486,-3800,3800,53,-90,-8,438,141,3897,-1,0,921,1819,1912,2112,2281,2072,1804,1880,2026
130378,-15968,-47780,-48254,-15486,-3800,3800,53,-89,-10,452,129,3867,9,-7,920,1819,1912,2112,2281,2072,1804,1880,2026
131379,-15972,-47780,-48254,-15486,-3800,3800,56,-88,-9,458,179,3867,8,4,921,1820,1914,2112,2282,2073,1805,1881,2026
132380,-15956,-47772,-48254,-15486,-3800,3800,56,-87,-9,449,165,3877,10,-3,920,1820,1914,2112,2282,2073,1805,1881,2026
133381,-15964,-47784,-48254,-15486,-3800,3800,54,-89,-10,468,166,3896,8,5,921,1820,1914,2112,2282,2073,1805,1881,2026
134382,-15968,-47776,-48254,-15486,-3800,3800,53,-89,-11,483,171,3890,7,3,921,1820,1914,2112,2282,2073,1805,1881,2026
135383,-15964,-47780,-48254,-15486,-3800,3800,53,-90,-10,452,148,3899,1,0,921,1820,1914,2112,2282,2073,1805,1881,2026
136384,-15976,-47780,-48254,-15486,-3800,3800,53,-88,-9,447,140,3886,-3,-3,920,1820,1914,2112,2282,2073,1805,1881,2026
137385,-15968,-47784,-48254,-15486,-3800,3800,51,-85,-8,470,148,3899,-2,6,921,1817,1912,2112,2281,2074,1805,1881,2027
138386,-15976,-47776,-48254,-15486,-3800,3800,50,-87,-7,457,144,3923,-8,-3,920,1817,1912,2112,2281,2074,1805,1881,2027
139387,-15980,-47780,-48254,-15486,-3800,3800,51,-88,-7,450,146,3927,-9,-7,920,1817,1912,2112,2281,2074,1805,1881,2027
140388,-15968,-47780,-48254,-15486,-3800,3800,51,-87,-8,464,166,3909,-3,7,920,1817,1912,2112,2281,2074,1805,1881,2027
141389,-15972,-47780,-48254,-15486,-3800,3800,51,-87,-8,456,162,3870,-8,-4,921,1817,1912,2112,2281,2074,1805,1881,2027
142390,-15972,-47780,-48254,-15486,-3800,3800,52,-86,-8,452,173,3873,-7,-6,921,1820,1912,2112,2280,2073,1805,1881,2027
143391,-15964,-47788,-48254,-15486,-3800,3800,52,-87,-8,463,187,3894,-6,-1,921,1820,1912,2112,2280,2073,1805,1881,2027
144392,-15960,-47776,-48254,-15486,-3800,3800,53,-88,-8,454,140,3885,5,3,921,1820,1912,2112,2280,2073,1805,1881,2027
145393,-15964,-47776,-48254,-15486,-3800,3800,51,-91,-8,451,122,3924,8,6,920,1820,1912,2112,2280,2073,1805,1881,2027
146394,-15968,-47796,-48254,-15486,-3800,3800,51,-89,-6,462,148,3918,4,0,921,1820,1912,2112,2280,2073,1805,1881,2027
147395,-15976,-47776,-48254,-15486,-3800,3800,50,-86,-9,450,172,3900,1,-6,920,1820,1912,2112,2280,2073,1805,1881,2027
148396,-15968,-47780,-48254,-15486,-3800,3800,51,-86,-9,454,171,3907,4,5,921,1818,1912,2112,2280,2073,1806,1881,2027
149397,-15972,-47780,-48254,-15486,-3800,3800,49,-88,-9,448,151,3897,1,-8,921,1818,1912,2112,2280,2073,1806,1881,2027
150398,-15964,-47784,-48254,-15486,-3800,3800,51,-88,-8,452,164,3913,5,-3,921,1818,1912,2112,2280,2073,1806,1881,2027
151399,-15968,-47776,-48254,-15486,-3800,3800,50,-88,-7,477,161,3916,9,7,921,1818,1912,2112,2280,2073,1806,1881,2027
152400,-15972,-47780,-48254,-15486,-3800,3800,50,-87,-8,481,161,3919,10,2,921,1818,1912,2112,2280,2073,1806,1881,2027
153401,-15968,-47780,-48254,-15486,-3800,3800,51,-86,-9,443,149,3864,7,-3,921,1818,1912,2112,2282,2074,1806,1881,2027
154402,-15972,-47784,-48254,-15486,-3800,3800,49,-86,-7,464,166,3876,-1,-7,921,1818,1912,2112,2282,2074,1806,1881,2027
155403,-15960,-47784,-48254,-15486,-3800,3800,50,-87,-8,477,142,3920,-3,-3,919,1818,1912,2112,2282,2074,1806,1881,2027
156404,-15976,-47776,-48254,-15486,-3800,3800,52,-87,-8,450,161,3869,-9,5,920,1818,1912,2112,2282,2074,1806,1881,2027
157405,-15976,-47780,-48254,-15486,-3800,3800,50,-86,-8,447,141,3873,-9,7,921,1818,1912,2112,2282,2074,1806,1881,2027
158406,-15976,-47768,-48254,-15486,-3800,3800,49,-86,-8,477,156,3886,-9,3,921,1818,1912,2112,2282,2074,1806,1881,2027
159407,-15968,-47768,-48254,-15486,-3800,3800,49,-85,-8,465,145,3869,-6,7,921,1818,1912,2112,2281,2073,1804,1880,2026
160408,-15960,-47792,-48254,-15486,-3800,3800,52,-86,-8,458,166,3878,4,1,920,1818,1912,2112,2281,2073,1804,1880,2026
161409,-15956,-47788,-48254,-15486,-3800,3800,54,-86,-7,467,190,3870,4,6,921,1818,1912,2112,2281,2073,1804,1880,2026
162410,-15980,-47776,-48254,-15486,-3800,3800,53,-85,-7,461,171,3885,7,-6,921,1818,1912,2112,2281,2073,1804,1880,2026
163411,-15960,-47776,-48254,-15486,-3800,3800,52,-84,-9,458,143,3903,9,-1,921,1818,1912,2112,2281,2073,1804,1880,2026
164412,-15968,-47788,-48254,-15486,-3800,3800,50,-87,-9,451,148,3883,8,3,920,1818,1912,2112,2280,2072,1806,1880,2027
165413,-15972,-47784,-48254,-15486,-3800,3800,49,-90,-8,451,151,3870,9,-7,920,1818,1912,2112,2280,2072,1806,1880,2027
166414,-15960,-47776,-48254,-15486,-3800,3800,51,-87,-10,451,151,3885,-5,-3,920,1818,1912,2112,2280,2072,1806,1880,2027
167415,-15976,-47776,-48254,-15486,-3800,3800,50,-86,-7,428,143,3910,-5,-8,920,1818,1912,2112,2280,2072,1806,1880,2027
168416,-15960,-47788,-48254,-15486,-3800,3800,49,-86,-6,456,147,3903,-7,7,921,1818,1912,2112,2280,2072,1806,1880,2027
169417,-15968,-47776,-48254,-15486,-3800,3800,49,-88,-7,455,169,3908,-6,1,921,1818,1912,2112,2280,2072,1806,1880,2027
170418,-15968,-47788,-48254,-15486,-3800,3800,53,-88,-8,451,170,3899,6,1,921,1818,1911,2112,2280,2074,1806,1880,2026
171419,-15968,-47784,-48254,-15486,-3800,3800,54,-85,-4,453,180,3898,4,5,920,1818,1911,2112,2280,2074,1806,1880,2026
172420,-15980,-47772,-48254,-15486,-3800,3800,52,-85,-3,459,146,3930,-6,-2,919,1818,1911,2112,2280,2074,1806,1880,2026
173421,-15972,-47772,-48254,-15486,-3800,3800,51,-85,-3,435,151,3884,0,-5,920,1818,1911,2112,2280,2074,1806,1880,2026
174425,-15968,-47780,-48254,-15486,-3800,3800,51,-86,-7,446,154,3890,6,-5,921,1818,1911,2112,2280,2074,1806,1880,2026
175423,-15968,-47772,-48254,-15486,-3800,3800,51,-87,-6,456,139,3882,5,6,921,1818,1912,2112,2281,2072,1805,1880,2025
176424,-15956,-47784,-48254,-15486,-3800,3800,53,-88,-6,457,162,3870,9,0,921,1818,1912,2112,2281,2072,1805,1880,2025
177425,-15960,-47776,-48254,-15486,-3800,3800,50,-86,-3,455,177,3878,6,-6,921,1818,1912,2112,2281,2072,1805,1880,2025
178426,-15968,-47788,-48254,-15486,-3800,3800,49,-87,-3,465,158,3889,0,5,920,1818,1912,2112,2281,2072,1805,1880,2025
179427,-15968,-47772,-48254,-15486,-3800,3800,51,-88,-6,461,142,3913,6,7,921,1818,1912,2112,2281,2072,1805,1880,2025
180428,-15964,-47776,-48254,-15486,-3800,3800,51,-86,-6,466,159,3865,2,7,921,1818,1912,2112,2281,2072,1805,1880,2025
181429,-15964,-47780,-48254,-15486,-3800,3800,50,-84,-5,429,152,3879,7,7,921,1818,1912,2112,2281,2073,1805,1879,2023
182430,-15976,-47788,-48254,-15486,-3800,3800,53,-87,-4,459,147,3872,2,5,921,1818,1912,2112,2281,2073,1805,1879,2023
183431,-15976,-47772,-48254,-15486,-3800,3800,53,-87,-4,450,153,3907,1,-5,921,1818,1912,2112,2281,2073,1805,1879,2023
184432,-15960,-47780,-48254,-15486,-3800,3800,52,-86,-4,456,150,3908,9,-7,921,1818,1912,2112,2281,2073,1805,1879,2023
185433,-15964,-47776,-48254,-15486,-3800,3800,52,-84,-5,485,116,3867,7,6,921,1818,1912,2112,2281,2073,1805,1879,2023
186434,-15968,-47784,-48254,-15486,-3800,3800,52,-83,-6,466,154,3884,2,4,921,1818,1912,2112,2282,2073,1806,1881,2027
187435,-15972,-47784,-48254,-15486,-3800,3800,53,-85,-5,457,154,3879,5,7,921,1818,1912,2112,2282,2073,1806,1881,2027
188436,-15972,-47780,-48254,-15486,-3800,3800,51,-86,-3,463,156,3909,-3,-4,921,1818,1912,2112,2282,2073,1806,1881,2027
189437,-15976,-47792,-48254,-15486,-3800,3800,51,-88,-5,433,171,3891,-7,-7,920,1818,1912,2112,2282,2073,1806,1881,2027
190438,-15972,-47780,-48254,-15486,-3800,3800,49,-88,-4,467,169,3876,4,7,920,1818,1912,2112,2282,2073,1806,1881,2027
191439,-15976,-47780,-48254,-15486,-3800,3800,51,-86,-4,452,165,3871,-4,-5,921,1818,1912,2112,2282,2073,1806,1881,2027
192440,-15960,-47784,-48254,-15486,-3800,3800,52,-85,-6,443,165,3892,-8,6,920,1818,1912,2112,2283,2073,1803,1879,2023
193441,-15964,-47788,-48254,-15486,-3800,3800,49,-85,-5,445,172,3897,-3,0,921,1818,1912,2112,2283,2073,1803,1879,2023
194442,-15972,-47776,-48254,-15486,-3800,3800,50,-85,-4,455,175,3884,5,-5,921,1818,1912,2112,2283,2073,1803,1879,2023
195443,-15960,-47768,-48254,-15486,-3800,3800,53,-86,-3,431,149,3892,10,-7,921,1818,1912,2112,2283,2073,1803,1879,2023
196444,-15964,-47784,-48254,-15486,-3800,3800,53,-88,-4,446,158,3866,9,4,920,1818,1912,2112,2283,2073,1803,1879,2023
197445,-15972,-47780,-48254,-15486,-3800,3800,53,-88,-6,439,148,3837,-1,-6,921,1818,1913,2112,2281,2073,1806,1880,2026
198446,-15960,-47788,-48254,-15486,-3800,3800,53,-88,-6,440,152,3865,-8,-4,921,1818,1913,2112,2281,2073,1806,1880,2026
199447,-15972,-47776,-48254,-15486,-3800,3800,51,-85,-8,427,154,3864,-6,6,921,1818,1913,2112,2281,2073,1806,1880,2026
200448,-15968,-47772,-48254,-15486,-3800,3800,49,-87,-6,435,169,3915,10,-1,920,1818,1913,2112,2281,2073,1806,1880,2026
201449,-15976,-47776,-48189,-15486,-3800,3800,49,-86,-6,451,163,3907,-2,-7,921,1818,1913,2112,2281,2073,1806,1880,2026
202450,-15960,-47780,-48124,-15421,-3800,3800,50,-85,-7,450,154,3889,-9,-4,921,1818,1913,2112,2281,2073,1806,1880,2026
203451,-15968,-47776,-48059,-15356,-3800,3800,51,-86,-8,462,155,3905,8,291,879,1818,1911,2111,2279,2071,1807,1884,2028
204452,-15964,-47776,-47994,-15291,-3800,3800,51,-73,-4,486,167,3876,12,286,867,1818,1911,2111,2279,2071,1807,1884,2028
205453,-15976,-47692,-47929,-15226,-3800,3800,46,-93,-7,430,213,3878,7,302,869,1818,1911,2111,2279,2071,1807,1884,2028
206454,-15964,-47528,-47864,-15161,-3800,3800,37,-71,-18,604,117,3869,15,282,872,1818,1911,2111,2279,2071,1807,1884,2028
207455,-15976,-47288,-47799,-15096,-3800,3800,39,0,-21,812,40,3652,22,318,877,1818,1911,2111,2279,2071,1807,1884,2028
208456,-15968,-47028,-47734,-15031,-3800,3800,47,81,-28,928,7,3632,21,325,881,1818,1910,2108,2280,2074,1806,1879,2023
209457,-15972,-46660,-47669,-14966,-3800,3800,60,148,-44,1120,-180,3111,11,322,882,1818,1910,2108,2280,2074,1806,1879,2023
210458,-15976,-46336,-47604,-14901,-3800,3800,47,191,-72,920,-114,3321,5,315,880,1818,1910,2108,2280,2074,1806,1879,2023
211459,-15964,-45952,-47539,-14836,-3800,3800,34,278,-91,1083,-205,3064,21,318,888,1818,1910,2108,2280,2074,1806,1879,2023
212460,-15964,-45552,-47474,-14771,-3800,3800,-1,283,-142,659,-214,3387,7,335,890,1818,1910,2108,2280,2074,1806,1879,2023
213461,-15980,-45104,-47409,-14706,-3800,3800,-21,339,-200,990,-334,2667,6,316,892,1818,1910,2108,2280,2074,1806,1879,2023
214462,-15964,-44628,-47344,-14641,-3800,3800,-48,339,-225,1127,-137,3551,20,343,885,1806,1893,2091,2263,2051,1789,1853,1980
215463,-15976,-44112,-47279,-14576,-3800,3800,-59,308,-256,188,-337,2625,11,350,897,1806,1893,2091,2263,2051,1789,1853,1980
216464,-15968,-43604,-47214,-14511,-3800,3800,-92,280,-307,852,-360,3835,6,326,898,1806,1893,2091,2263,2051,1789,1853,1980
217465,-15968,-43092,-47149,-14446,-3800,3800,-85,191,-257,-258,-137,3725,5,334,898,1806,1893,2091,2263,2051,1789,1853,1980
218466,-15976,-42548,-47084,-14381,-3800,3800,-46,89,-240,982,222,3693,22,331,895,1806,1893,2091,2263,2051,1789,1853,1980
219467,-15980,-41908,-47019,-14316,-3800,3800,-20,35,-294,-665,-384,4779,6,358,900,1745,1816,2029,2204,2028,1775,1845,1976
220468,-15972,-41352,-46954,-14251,-3800,3800,38,-127,-205,884,-183,3245,6,361,901,1745,1816,2029,2204,2028,1775,1845,1976
221469,-15976,-40756,-46889,-14186,-3800,3800,63,-304,-146,-26,-404,4459,23,326,900,1745,1816,2029,2204,2028,1775,1845,1976
222470,-15980,-40176,-46824,-14121,-3800,3800,81,-359,-126,201,127,3870,21,358,901,1745,1816,2029,2204,2028,1775,1845,1976
223471,-15980,-39584,-46759,-14056,-3800,3800,142,-347,-83,1204,244,5029,23,333,903,1745,1816,2029,2204,2028,1775,1845,1976
224473,-15980,-38960,-46694,-13991,-3800,3800,130,-499,-97,1886,105,3968,20,327,905,1745,1816,2029,2204,2028,1775,1845,1976
225473,-15980,-38328,-46629,-13926,-3800,3800,215,-447,-36,645,292,5563,14,355,906,1759,1875,2064,2230,2050,1781,1881,2056
226474,-15976,-37668,-46564,-13861,-3800,3800,257,-504,31,2106,917,4284,23,334,903,1759,1875,2064,2230,2050,1781,1881,2056
227475,-15984,-37060,-46499,-13796,-3800,3800,333,-557,1,859,361,4341,24,354,905,1759,1875,2064,2230,2050,1781,1881,2056
228476,-15984,-36412,-46434,-13731,-3800,3800,316,-572,52,1920,942,5517,15,343,906,1759,1875,2064,2230,2050,1781,1881,2056
229477,-15976,-35800,-46369,-13666,-3800,3800,353,-669,102,655,903,3685,20,353,905,1759,1875,2064,2230,2050,1781,1881,2056
230478,-15992,-35100,-46304,-13601,-3800,3800,337,-679,69,835,866,4869,8,351,904,1923,2059,2233,2400,2103,1811,1935,2120
231479,-15988,-34520,-46239,-13536,-3800,3800,318,-895,85,191,953,4259,24,329,907,1923,2059,2233,2400,2103,1811,1935,2120
232480,-15980,-33892,-46174,-13471,-3800,3800,304,-918,72,-348,889,5271,13,344,907,1923,2059,2233,2400,2103,1811,1935,2120
233481,-15996,-33260,-46109,-13406,-3800,3800,229,-1119,23,309,1086,4263,7,359,906,1923,2059,2233,2400,2103,1811,1935,2120
234482,-15992,-32708,-46044,-13341,-3800,3800,243,-1330,39,-1777,808,4298,17,354,907,1923,2059,2233,2400,2103,1811,1935,2120
235483,-15988,-32096,-45979,-13276,-3800,3800,215,-1472,35,246,1354,5452,23,368,905,1923,2059,2233,2400,2103,1811,1935,2120
236484,-15996,-31452,-45914,-13211,-3800,3800,313,-1620,95,-1747,512,4647,8,347,905,2070,2186,2365,2511,2150,1851,1951,2150
237485,-15992,-30876,-45849,-13146,-3800,3800,417,-1533,160,1019,415,6277,23,365,906,2070,2186,2365,2511,2150,1851,1951,2150
238486,-15996,-30308,-45784,-13081,-3800,3800,595,-1605,306,-832,456,4897,18,354,905,2070,2186,2365,2511,2150,1851,1951,2150
239487,-16000,-29732,-45719,-13016,-3800,3800,743,-1455,405,-69,578,6481,20,350,907,2070,2186,2365,2511,2150,1851,1951,2150
240488,-16000,-29192,-45654,-12951,-3800,3800,865,-1456,545,-315,895,5417,18,351,905,2070,2186,2365,2511,2150,1851,1951,2150
241489,-15996,-28588,-45589,-12886,-3800,3800,1033,-1403,731,-1464,864,5834,16,345,906,2012,2109,2293,2452,2118,1838,1903,2039
242490,-16004,-28008,-45524,-12821,-3800,3800,1091,-1390,860,746,1626,5846,13,330,905,2012,2109,2293,2452,2118,1838,1903,2039
243491,-16004,-27496,-45459,-12756,-3800,3800,1216,-1453,1030,-1959,1021,4880,8,367,905,2012,2109,2293,2452,2118,1838,1903,2039
244492,-16000,-26904,-45394,-12691,-3800,3800,1217,-1347,1098,196,1875,5943,17,373,906,2012,2109,2293,2452,2118,1838,1903,2039
245493,-15992,-26384,-45329,-12626,-3800,3800,1172,-1471,1145,-1258,1512,4104,11,329,906,2012,2109,2293,2452,2118,1838,1903,2039
246494,-16004,-25824,-45264,-12561,-3800,3800,1138,-1411,1245,-541,1962,5492,14,340,909,2012,2109,2293,2452,2118,1838,1903,2039
247495,-16000,-25208,-45199,-12496,-3800,3800,1058,-1618,1375,164,2008,3992,23,362,932,1990,2031,2246,2481,1988,1766,1826,1903
248496,-16004,-24644,-45134,-12431,-3800,3800,1068,-1739,1440,-1730,1319,4628,24,345,908,1990,2031,2246,2481,1988,1766,1826,1903
249497,-15992,-24112,-45069,-12366,-3800,3800,969,-1670,1454,971,2056,5291,23,350,908,1990,2031,2246,2481,1988,1766,1826,1903
250498,-16004,-23568,-45004,-12301,-3800,3800,858,-1532,1421,621,1109,2595,20,364,910,1990,2031,2246,2481,1988,1766,1826,1903
251499,-16012,-23044,-44939,-12236,-3800,3800,613,-1087,1250,2084,740,4951,16,353,902,1990,2031,2246,2481,1988,1766,1826,1903
252500,-16004,-22440,-44874,-12171,-3800,3800,421,-785,1177,339,-500,2072,13,351,911,1960,1964,2194,2406,2040,1817,1865,2016
253501,-16000,-21916,-44809,-12106,-3800,3800,280,-247,1087,1689,-969,3175,18,345,908,1960,1964,2194,2406,2040,1817,1865,2016
254502,-16012,-21296,-44744,-12041,-3800,3800,149,94,984,727,-1176,1034,16,356,910,1960,1964,2194,2406,2040,1817,1865,2016
255503,-15992,-20732,-44679,-11976,-3800,3800,125,489,970,-1648,-941,2689,7,374,906,1960,1964,2194,2406,2040,1817,1865,2016
256504,-15992,-20124,-44614,-11911,-3800,3304,140,1166,992,495,-588,3485,5,350,911,1960,1964,2194,2406,2040,1817,1865,2016
257505,-16004,-19492,-44549,-11846,-3800,2315,239,1550,1086,1868,-1878,680,5,322,911,1960,1964,2194,2406,2040,1817,1865,2016
258506,-15992,-18880,-44484,-11781,-3800,1900,402,1755,1219,-1273,-1824,2257,9,346,913,1691,1735,1979,2086,2260,1970,2048,2073
259507,-16000,-18280,-44419,-11716,-3800,1400,566,1475,1399,-2902,-1222,110,25,344,913,1691,1735,1979,2086,2260,1970,2048,2073
260508,-15980,-17668,-44354,-11651,-3800,584,781,1001,1588,-5727,-1144,1634,7,339,917,1691,1735,1979,2086,2260,1970,2048,2073
261509,-15980,-17032,-44289,-11586,-3800,-410,901,544,1717,-4720,-116,1737,25,328,918,1691,1735,1979,2086,2260,1970,2048,2073
262510,-15988,-16392,-44224,-11521,-3800,-1159,984,581,1804,-1872,638,4062,22,342,919,1691,1735,1979,2086,2260,1970,2048,2073
263511,-15988,-15728,-44159,-11456,-3800,-2189,973,742,1919,280,915,1754,6,319,915,1424,1518,1760,1909,2068,1792,1789,1854
264512,-15996,-15116,-44094,-11391,-3800,-2205,921,1004,1934,-72,1182,3712,8,314,904,1424,1518,1760,1909,2068,1792,1789,1854
265513,-15980,-14596,-44029,-11326,-3800,-1609,813,1162,1911,433,1325,2248,5,299,879,1424,1518,1760,1909,2068,1792,1789,1854
266514,-15992,-14112,-43964,-11261,-3800,-1669,726,1453,1866,2866,1379,1592,9,238,880,1424,1518,1760,1909,2068,1792,1789,1854
267515,-15992,-13696,-43899,-11196,-3800,-1247,497,1862,1688,3688,1357,2013,-7,228,893,1424,1518,1760,1909,2068,1792,1789,1854
268516,-15984,-13268,-43834,-11131,-3800,-1839,250,2215,1539,3401,1668,-123,-4,198,894,1424,1518,1760,1909,2068,1792,1789,1854
269517,-15988,-12920,-43769,-11066,-3800,-1183,-73,2688,1468,4326,1398,2212,-2,182,903,1578,1674,1861,2083,1815,1598,1694,1789
270518,-15992,-12584,-43704,-11001,-3800,-1364,-423,3047,1359,3573,1315,-366,3,179,892,1578,1674,1861,2083,1815,1598,1694,1789
271519,-15984,-12296,-43639,-10936,-3800,-1035,-774,3275,1304,2857,151,537,-5,151,904,1578,1674,1861,2083,1815,1598,1694,1789
272520,-15984,-12016,-43574,-10871,-3800,-1197,-1021,3241,1223,152,-724,1247,4,141,902,1578,1674,1861,2083,1815,1598,1694,1789
273521,-15980,-11764,-43509,-10806,-3800,-1075,-1128,3164,1150,89,-1320,669,-2,123,908,1578,1674,1861,2083,1815,1598,1694,1789
274522,-15988,-11516,-43444,-10741,-3800,-1248,-1212,3049,1087,-20,-1328,1341,-6,113,905,1769,1809,2022,2170,1969,1736,1782,1993
275523,-15984,-11308,-43379,-10676,-3800,-922,-1303,2877,1109,-775,-2074,543,-7,100,906,1769,1809,2022,2170,1969,1736,1782,1993
276524,-15984,-11144,-43314,-10611,-3800,-493,-1332,2622,1181,-2016,-2654,941,-1,94,906,1769,1809,2022,2170,1969,1736,1782,1993
277525,-15980,-10976,-43249,-10546,-3800,-669,-1257,2409,1234,-2208,-2963,1079,10,102,910,1769,1809,2022,2170,1969,1736,1782,1993
278526,-15980,-10824,-43184,-10481,-3800,-575,-1109,2371,1226,-2017,-2921,1986,-4,74,916,1769,1809,2022,2170,1969,1736,1782,1993
279527,-15976,-10660,-43119,-10416,-3800,-846,-958,2303,1221,-1411,-2469,1747,3,75,914,1769,1809,2022,2170,1969,1736,1782,1993
280528,-15984,-10504,-43054,-10351,-3800,-857,-816,2068,1271,-994,-1484,2393,-1,61,915,1597,1713,1974,2023,2317,1964,1973,2228
281529,-15976,-10380,-42989,-10286,-3800,-529,-670,1717,1361,-1709,-856,2271,0,50,912,1597,1713,1974,2023,2317,1964,1973,2228
282530,-15992,-10300,-42924,-10221,-3800,4,-557,1326,1366,-1713,-153,2507,-4,49,912,1597,1713,1974,2023,2317,1964,1973,2228
283531,-15988,-10196,-42859,-10156,-3800,-344,-515,989,1304,-1060,590,2695,-6,50,916,1597,1713,1974,2023,2317,1964,1973,2228
284532,-15992,-10100,-42794,-10091,-3800,-282,-554,740,1276,626,1460,3198,6,46,920,1597,1713,1974,2023,2317,1964,1973,2228
285533,-15996,-10048,-42729,-10026,-3800,284,-654,648,1256,2089,2310,3787,-6,33,918,1582,1746,1906,2032,2143,1800,1960,2118
286534,-16004,-9964,-42664,-9961,-3800,-139,-819,653,1199,2738,2818,4276,-6,43,919,1582,1746,1906,2032,2143,1800,1960,2118
287535,-15996,-9908,-42599,-9896,-3800,222,-1008,720,1118,3137,2879,4774,-1,24,919,1582,1746,1906,2032,2143,1800,1960,2118
288536,-15992,-9844,-42534,-9831,-3800,123,-1194,768,1028,3507,2685,4961,6,29,909,1582,1746,1906,2032,2143,1800,1960,2118
289537,-16008,-9808,-42469,-9766,-3800,509,-1336,821,926,3579,2121,5626,7,31,919,1582,1746,1906,2032,2143,1800,1960,2118
290538,-16004,-9764,-42404,-9701,-3800,434,-1429,865,810,3532,1356,5836,-3,25,920,1582,1746,1906,2032,2143,1800,1960,2118
291539,-16004,-9728,-42339,-9636,-3800,570,-1456,793,698,3112,557,6103,-1,24,916,1812,1965,2027,2197,1981,1700,1896,2077
292540,-16008,-9692,-42274,-9571,-3800,605,-1422,550,587,1927,-123,6093,10,25,911,1812,1965,2027,2197,1981,1700,1896,2077
293541,-16008,-9668,-42209,-9506,-3800,805,-1332,121,480,381,-1135,5795,3,12,916,1812,1965,2027,2197,1981,1700,1896,2077
294542,-16008,-9636,-42144,-9441,-3800,746,-1199,-414,381,-765,-2026,5713,9,25,916,1812,1965,2027,2197,1981,1700,1896,2077
295543,-16016,-9600,-42079,-9376,-3800,731,-1030,-886,294,-957,-2551,5840,-3,11,914,1812,1965,2027,2197,1981,1700,1896,2077
296544,-16008,-9560,-42014,-9311,-3800,711,-854,-1255,225,-640,-2885,5849,-7,24,911,1983,2146,2351,2510,2142,1868,1960,2191
297545,-16004,-9532,-41949,-9246,-3800,907,-683,-1598,173,-814,-2951,5717,-1,24,915,1983,2146,2351,2510,2142,1868,1960,2191
298546,-16028,-9504,-41884,-9181,-3800,952,-531,-1924,133,-1021,-2800,5922,-7,19,915,1983,2146,2351,2510,2142,1868,1960,2191
299547,-16024,-9460,-41819,-9116,-3800,777,-405,-2172,105,-826,-2453,6099,-1,24,913,1983,2146,2351,2510,2142,1868,1960,2191
300548,-16028,-9448,-41754,-9051,-3800,1242,-327,-2272,83,-63,-1897,6300,7,12,910,1983,2146,2351,2510,2142,1868,1960,2191
301549,-16032,-9412,-41689,-8986,-3800,978,-302,-2192,57,841,-1063,6691,11,27,914,1983,2146,2351,2510,2142,1868,1960,2191
302550,-16024,-9352,-41624,-8921,-3800,685,-321,-1998,31,1511,-223,6985,-7,20,909,2224,2419,2652,2847,2154,1888,2022,2168
303551,-16024,-9300,-41559,-8856,-3800,800,-385,-1775,-4,1727,486,6894,3,18,912,2224,2419,2652,2847,2154,1888,2022,2168
304552,-16020,-9276,-41494,-8791,-3800,1201,-479,-1546,-58,1670,1300,7140,11,17,914,2224,2419,2652,2847,2154,1888,2022,2168
305553,-16016,-9208,-41429,-8726,-3800,647,-566,-1287,-132,1896,1893,7423,-5,32,914,2224,2419,2652,2847,2154,1888,2022,2168
306554,-16028,-9172,-41364,-8661,-3800,1082,-628,-1074,-217,2061,2009,7261,-1,17,910,2224,2419,2652,2847,2154,1888,2022,2168
307555,-16028,-9104,-41299,-8596,-3800,679,-660,-942,-317,1657,2073,7246,-7,27,915,2337,2429,2507,2815,2090,1861,2024,2070
308556,-16036,-9072,-41234,-8531,-3800,1170,-645,-851,-430,1193,2018,7519,2,19,908,2337,2429,2507,2815,2090,1861,2024,2070
309557,-16028,-9024,-41169,-8466,-3800,991,-555,-813,-545,1024,1554,7481,-1,22,914,2337,2429,2507,2815,2090,1861,2024,2070
310558,-16028,-8992,-41104,-8401,-3800,1231,-404,-876,-661,643,909,7220,11,20,910,2337,2429,2507,2815,2090,1861,2024,2070
311559,-16028,-8920,-41039,-8336,-3800,722,-198,-1025,-756,-117,70,7163,5,22,911,2337,2429,2507,2815,2090,1861,2024,2070
312560,-16028,-8856,-40974,-8271,-3800,825,41,-1168,-818,-367,-676,6950,-2,30,909,2337,2429,2507,2815,2090,1861,2024,2070
313561,-16028,-8796,-40909,-8206,-3800,881,291,-1311,-851,-189,-1436,6768,4,37,915,1962,1982,2161,2448,2171,1948,1968,2036
314562,-16020,-8732,-40844,-8141,-3800,832,535,-1395,-866,-75,-1974,6642,-6,6,914,1962,1982,2161,2448,2171,1948,1968,2036
315563,-16024,-8668,-40779,-8076,-3800,833,751,-1447,-849,-9,-2323,6475,-7,40,913,1962,1982,2161,2448,2171,1948,1968,2036
316564,-16024,-8604,-40714,-8011,-3800,834,930,-1406,-811,404,-2393,6283,-6,26,914,1962,1982,2161,2448,2171,1948,1968,2036
317565,-16016,-8524,-40649,-7946,-3800,617,1061,-1299,-777,821,-2317,6012,12,38,914,1962,1982,2161,2448,2171,1948,1968,2036
318566,-16024,-8460,-40584,-7881,-3800,818,1118,-1104,-723,1197,-2107,5651,-7,27,914,1795,1866,2133,2358,2058,1810,1849,1960
319567,-16012,-8380,-40519,-7816,-3800,600,1107,-876,-660,1509,-1687,4994,11,35,916,1795,1866,2133,2358,2058,1810,1849,1960
320568,-16020,-8320,-40454,-7751,-3800,856,1014,-632,-602,1440,-1216,4632,-6,38,914,1795,1866,2133,2358,2058,1810,1849,1960
321569,-16020,-8264,-40389,-7686,-3800,918,880,-381,-568,1387,-683,4018,-5,40,916,1795,1866,2133,2358,2058,1810,1849,1960
322570,-16016,-8188,-40324,-7621,-3800,655,707,-171,-549,1268,-233,3582,-4,29,913,1795,1866,2133,2358,2058,1810,1849,1960
323571,-16008,-8132,-40259,-7556,-3800,916,542,-28,-542,720,79,3273,-3,29,913,1795,1866,2133,2358,2058,1810,1849,1960
324572,-16008,-8068,-40194,-7491,-3800,817,369,59,-548,315,339,2768,13,29,915,1987,2077,2257,2474,1930,1688,1817,1939
325573,-16012,-7984,-40129,-7426,-3800,544,226,100,-569,93,502,2483,-5,29,900,1987,2077,2257,2474,1930,1688,1817,1939
326574,-16012,-7944,-40064,-7361,-3800,1125,118,71,-596,-249,444,2263,11,43,913,1987,2077,2257,2474,1930,1688,1817,1939
327575,-16008,-7888,-39999,-7296,-3800,936,70,7,-639,-477,306,2068,-6,41,917,1987,2077,2257,2474,1930,1688,1817,1939
328576,-16012,-7788,-39934,-7231,-3800,343,82,-100,-681,-589,174,2106,2,37,911,1987,2077,2257,2474,1930,1688,1817,1939
329577,-16000,-7712,-39869,-7166,-3800,630,156,-212,-704,-630,-18,2260,13,39,906,1925,1997,2136,2285,2063,1779,1867,2047
330578,-16008,-7648,-39804,-7101,-3800,781,278,-346,-711,-536,-116,2440,-3,30,918,1925,1997,2136,2285,2063,1779,1867,2047
331579,-16004,-7588,-39739,-7036,-3800,838,442,-418,-715,-180,-321,2537,-7,23,916,1925,1997,2136,2285,2063,1779,1867,2047
332580,-16012,-7556,-39674,-6971,-3800,1229,604,-518,-692,190,-500,2624,11,32,914,1925,1997,2136,2285,2063,1779,1867,2047
333581,-16004,-7464,-39609,-6906,-3800,446,778,-552,-644,467,-532,2804,11,39,910,1925,1997,2136,2285,2063,1779,1867,2047
334582,-16008,-7412,-39544,-6841,-3800,962,929,-555,-562,750,-539,3065,7,38,909,1925,1997,2136,2285,2063,1779,1867,2047
335583,-16008,-7344,-39479,-6776,-3800,759,1064,-504,-490,1224,-284,3023,3,27,917,1634,1727,1906,2002,2106,1792,1844,2005
336584,-16004,-7288,-39414,-6711,-3800,920,1145,-438,-414,1523,-89,2955,-2,27,913,1634,1727,1906,2002,2106,1792,1844,2005
337585,-15992,-7224,-39349,-6646,-3800,821,1173,-405,-315,1530,205,2834,-4,35,913,1634,1727,1906,2002,2106,1792,1844,2005
338586,-16000,-7140,-39284,-6581,-3800,548,1139,-372,-220,1505,494,2625,4,34,913,1634,1727,1906,2002,2106,1792,1844,2005
339587,-16012,-7072,-39219,-6516,-3800,744,1058,-382,-143,1289,703,2413,8,42,914,1634,1727,1906,2002,2106,1792,1844,2005
340588,-16000,-7000,-39154,-6451,-3800,687,926,-400,-88,975,930,2252,12,31,917,1607,1707,1894,2055,1912,1662,1740,1852
341589,-16008,-6940,-39089,-6386,-3800,843,758,-422,-47,682,1021,1972,-5,32,914,1607,1707,1894,2055,1912,1662,1740,1852
342590,-16004,-6868,-39024,-6321,-3800,684,583,-437,-26,435,899,2192,-4,33,914,1607,1707,1894,2055,1912,1662,1740,1852
343591,-16016,-6800,-38959,-6256,-3800,731,444,-513,3,629,1123,1737,11,30,913,1607,1707,1894,2055,1912,1662,1740,1852
344592,-16000,-6712,-38894,-6191,-3800,452,319,-586,0,336,951,1698,-6,45,915,1607,1707,1894,2055,1912,1662,1740,1852
345593,-16004,-6628,-38829,-6126,-3800,480,222,-668,-52,-201,650,1855,5,44,914,1607,1707,1894,2055,1912,1662,1740,1852
346594,-16008,-6588,-38764,-6061,-3800,1061,171,-705,-98,-176,537,1960,0,33,917,1750,1829,2032,2217,1941,1703,1779,1938
347595,-16008,-6516,-38699,-5996,-3800,652,154,-716,-133,134,353,2111,-5,34,917,1750,1829,2032,2217,1941,1703,1779,1938
348596,-15996,-6452,-38634,-5931,-3800,753,168,-671,-176,260,95,2071,3,33,912,1750,1829,2032,2217,1941,1703,1779,1938
349597,-16000,-6384,-38569,-5866,-3800,700,198,-644,-213,84,63,2274,11,37,915,1750,1829,2032,2217,1941,1703,1779,1938
350598,-16004,-6308,-38504,-5801,-3800,587,255,-591,-226,-55,71,2222,-4,33,915,1750,1829,2032,2217,1941,1703,1779,1938
351599,-16008,-6256,-38439,-5736,-3800,903,313,-531,-223,197,125,2391,8,37,915,1780,1874,2112,2233,2140,1846,1893,2089
352600,-16008,-6188,-38374,-5671,-3800,700,388,-434,-214,395,252,2680,12,32,916,1780,1874,2112,2233,2140,1846,1893,2089
353601,-16004,-6120,-38309,-5606,-3800,696,445,-326,-192,662,479,2749,-5,34,913,1780,1874,2112,2233,2140,1846,1893,2089
354602,-16012,-6064,-38244,-5541,-3800,857,481,-206,-149,675,734,3004,11,26,915,1780,1874,2112,2233,2140,1846,1893,2089
355603,-16000,-6008,-38179,-5476,-3800,869,477,-90,-96,590,1137,3205,-6,28,915,1780,1874,2112,2233,2140,1846,1893,2089
356604,-16004,-5952,-38114,-5411,-3800,880,450,21,-43,687,1428,3213,-7,21,914,1740,1852,2068,2200,2112,1846,1893,2089
357605,-16000,-5896,-38049,-5346,-3800,891,406,107,13,741,1796,3471,-3,25,914,1740,1852,2068,2200,2112,1830,1881,2019
358606,-16004,-5844,-37984,-5281,-3800,957,346,166,67,680,1997,3647,6,26,913,1740,1852,2068,2200,2112,1830,1881,2019
359607,-16004,-5796,-37919,-5216,-3800,1028,284,236,100,748,2085,3963,5,19,912,1740,1852,2068,2200,2112,1830,1881,2019
360608,-16008,-5748,-37854,-5151,-3800,1049,208,234,123,648,1991,3879,-6,17,911,1740,1852,2068,2200,2112,1830,1881,2019
361609,-16000,-5692,-37789,-5086,-3800,960,136,211,145,450,2059,4155,8,17,911,1740,1852,2068,2200,2112,1830,1881,2019
362610,-16012,-5664,-37724,-5021,-3800,1355,76,206,151,571,1901,4360,12,24,898,1723,1800,2004,2192,2024,1779,1831,1950
363611,-16004,-5616,-37659,-4956,-3800,1126,45,189,123,815,1599,4446,-6,19,913,1723,1800,2004,2192,2024,1779,1831,1950
364612,-15996,-5572,-37594,-4891,-3800,1203,38,151,97,749,1322,4475,11,22,908,1723,1800,2004,2192,2024,1779,1831,1950
365613,-16004,-5524,-37529,-4826,-3800,1174,41,100,68,680,1028,4474,-5,30,910,1723,1800,2004,2192,2024,1779,1831,1950
366614,-16004,-5460,-37464,-4761,-3800,975,61,84,34,760,691,4537,8,20,902,1723,1800,2004,2192,2024,1779,1831,1950
367615,-16012,-5416,-37399,-4696,-3800,1250,90,80,-1,953,331,4282,-6,23,910,1728,1805,2053,2224,2093,1832,1871,2054
368616,-16004,-5372,-37334,-4631,-3800,1277,123,81,-23,946,78,4302,5,34,912,1728,1805,2053,2224,2093,1832,1871,2054
369617,-16004,-5304,-37269,-4566,-3800,973,155,89,-37,793,-121,4070,9,26,909,1728,1805,2053,2224,2093,1832,1871,2054
370618,-16016,-5256,-37204,-4501,-3800,1244,173,112,-47,785,-222,3909,-4,37,904,1728,1805,2053,2224,2093,1832,1871,2054
371619,-15996,-5196,-37139,-4436,-3800,1100,182,134,-30,762,-185,3877,9,22,912,1728,1805,2053,2224,2093,1832,1871,2054
372620,-16008,-5148,-37074,-4371,-3800,1272,169,176,0,759,-122,3645,10,23,909,1728,1805,2053,2224,2093,1832,1871,2054
373621,-16000,-5084,-37009,-4306,-3800,1073,138,206,28,677,53,3681,-3,33,911,1834,1963,2216,2355,2168,1871,1942,2142
374622,-16008,-5044,-36944,-4241,-3800,1404,95,221,63,466,304,3650,4,25,906,1834,1963,2216,2355,2168,1871,1942,2142
375623,-15996,-4988,-36879,-4176,-3800,1216,46,230,104,349,606,3707,43,39,910,1834,1963,2216,2355,2168,1871,1942,2142
376624,-16008,-4908,-36814,-4111,-3800,897,-16,231,144,259,828,3811,13,41,906,1834,1963,2216,2355,2168,1871,1942,2142
377625,-16004,-4852,-36749,-4046,-3800,1208,-83,193,171,141,1033,3906,13,39,908,1834,1963,2216,2355,2168,1871,1942,2142
378626,-16000,-4792,-36684,-3981,-3800,1165,-144,141,195,50,1224,4080,0,25,911,1932,2057,2232,2380,2135,1828,1942,2103
379627,-16000,-4740,-36619,-3916,-3800,1281,-206,65,207,116,1209,4218,-2,25,909,1932,2057,2232,2380,2135,1828,1942,2103
380628,-16012,-4680,-36554,-3851,-3800,1187,-242,-9,213,120,1165,4553,-6,37,910,1932,2057,2232,2380,2135,1828,1942,2103
381629,-16008,-4620,-36489,-3786,-3800,1194,-249,-110,218,153,1109,4786,9,29,909,1932,2057,2232,2380,2135,1828,1942,2103
382630,-16008,-4548,-36424,-3721,-3800,1036,-226,-190,218,281,899,4973,9,30,909,1932,2057,2232,2380,2135,1828,1942,2103
383631,-16004,-4508,-36359,-3656,-3800,1467,-182,-284,219,331,621,5370,-3,21,909,1932,2057,2232,2380,2135,1828,1942,2103
384632,-16020,-4448,-36294,-3591,-3800,1223,-119,-371,220,485,388,5441,-5,34,912,1826,1928,2081,2223,2113,1815,1903,2076
385633,-15996,-4392,-36229,-3526,-3800,1285,-43,-463,214,638,73,5444,-2,33,906,1826,1928,2081,2223,2113,1815,1903,2076
386634,-15996,-4336,-36164,-3461,-3800,1296,43,-541,223,625,-83,5583,-4,25,909,1826,1928,2081,2223,2113,1815,1903,2076
387635,-16000,-4268,-36099,-3396,-3800,1142,128,-606,239,725,-243,5416,11,32,909,1826,1928,2081,2223,2113,1815,1903,2076
388636,-16004,-4208,-36034,-3331,-3800,1249,195,-674,252,757,-374,5385,8,22,908,1826,1928,2081,2223,2113,1815,1903,2076
389637,-16004,-4160,-35969,-3266,-3800,1420,240,-733,278,717,-410,5263,3,32,909,1761,1866,2068,2220,2102,1821,1898,2065
390638,-16000,-4100,-35904,-3201,-3800,1276,267,-786,317,699,-378,4978,5,33,909,1761,1866,2068,2220,2102,1821,1898,2065
391639,-16004,-4048,-35839,-3136,-3800,1393,271,-822,338,692,-302,4669,3,35,906,1761,1866,2068,2220,2102,1821,1898,2065
392640,-16004,-3992,-35774,-3071,-3800,1354,251,-874,368,491,-171,4528,9,26,908,1761,1866,2068,2220,2102,1821,1898,2065
393641,-16008,-3924,-35709,-3006,-3800,1200,207,-903,405,316,-4,4248,6,32,906,1761,1866,2068,2220,2102,1821,1898,2065
394642,-16008,-3876,-35644,-2941,-3800,1472,146,-930,434,129,105,4059,2,39,906,1761,1866,2068,2220,2102,1821,1898,2065
395643,-16008,-3800,-35579,-2876,-3800,1108,71,-977,451,-57,211,3916,-3,28,910,1909,2000,2231,2423,2096,1831,1927,2078
396644,-16008,-3760,-35514,-2811,-3800,1589,-7,-1023,473,-309,324,3915,-6,27,906,1909,2000,2231,2423,2096,1831,1927,2078
397645,-16004,-3688,-35449,-2746,-3800,1181,-65,-1050,489,-320,360,3872,-6,24,910,1909,2000,2231,2423,2096,1831,1927,2078
398646,-16008,-3628,-35384,-2681,-3800,1338,-113,-1091,488,-431,395,3849,5,30,904,1909,2000,2231,2423,2096,1831,1927,2078
399649,-16004,-3580,-35319,-2616,-3800,1509,-136,-1135,484,-654,385,4057,4,28,904,1909,2000,2231,2423,2096,1831,1927,2078
400648,-16008,-3508,-35254,-2551,-3800,1201,-137,-1144,487,-638,328,4302,8,26,908,1994,2085,2273,2445,2125,1850,1934,2097
401649,-16004,-3452,-35189,-2486,-3800,1412,-115,-1142,479,-515,200,4485,8,28,906,1994,2085,2273,2445,2125,1850,1934,2097
402650,-16004,-3388,-35124,-2421,-3800,1314,-68,-1135,471,-472,134,4706,8,37,909,1994,2085,2273,2445,2125,1850,1934,2097
403651,-16004,-3320,-35059,-2356,-3800,1260,-4,-1122,470,-390,67,4758,13,30,897,1994,2085,2273,2445,2125,1850,1934,2097
404652,-16012,-3256,-34994,-2291,-3800,1311,70,-1100,472,-363,-36,4959,7,26,909,1994,2085,2273,2445,2125,1850,1934,2097
405653,-16004,-3204,-34929,-2226,-3800,1478,146,-1080,487,-342,1,5072,-5,32,908,1994,2085,2273,2445,2125,1850,1934,2097
406654,-16012,-3144,-34864,-2161,-3800,1384,221,-1044,507,-152,15,4971,13,23,908,1846,1935,2122,2257,2107,1822,1889,2037
407655,-16008,-3084,-34799,-2096,-3800,1391,280,-1012,536,-36,136,5060,0,32,901,1846,1935,2122,2257,2107,1822,1889,2037
408656,-15996,-3020,-34734,-2031,-3800,1343,335,-968,561,2,322,5045,13,24,907,1846,1935,2122,2257,2107,1822,1889,2037
409657,-16000,-2944,-34669,-1966,-3800,1179,369,-943,570,104,394,4850,13,28,907,1846,1935,2122,2257,2107,1822,1889,2037
410658,-16000,-2888,-34604,-1901,-3800,1441,386,-947,592,30,439,4665,-5,40,906,1846,1935,2122,2257,2107,1822,1889,2037
411659,-15992,-2812,-34539,-1836,-3800,1178,373,-965,625,-58,573,4331,7,34,906,1761,1850,2048,2222,2027,1980,1845,1970
412660,-16004,-2728,-34474,-1771,-3800,1055,341,-957,640,53,655,4186,9,31,906,1761,1850,2048,2222,2027,1980,1845,1970
413661,-15984,-2668,-34409,-1706,-3800,1362,304,-947,649,160,710,3980,-5,26,910,1761,1850,2048,2222,2027,1980,1845,1970
414662,-16000,-2616,-34344,-1641,-3800,1478,269,-991,667,79,733,3513,1,39,911,1761,1850,2048,2222,2027,1980,1845,1970
415663,-15992,-2528,-34279,-1576,-3800,1000,230,-1050,677,-163,739,3404,-5,26,906,1761,1850,2048,2222,2027,1980,1845,1970
416664,-16000,-2460,-34214,-1511,-3800,1247,195,-1110,668,-184,709,3301,-1,40,906,1761,1850,2048,2222,2027,1980,1845,1970
417665,-15996,-2396,-34149,-1446,-3800,1298,161,-1120,667,25,633,3164,-6,35,912,1823,1904,2102,2308,2034,1790,1864,2008
418666,-15984,-2344,-34084,-1381,-3800,1465,136,-1143,674,-15,466,3066,-2,22,908,1823,1904,2102,2308,2034,1790,1864,2008
419667,-15996,-2292,-34019,-1316,-3800,1481,122,-1157,670,-194,278,3014,11,27,908,1823,1904,2102,2308,2034,1790,1864,2008
420668,-16004,-2204,-33954,-1251,-3800,1003,127,-1165,661,-131,227,3060,14,41,906,1823,1904,2102,2308,2034,1790,1864,2008
421669,-15992,-2148,-33889,-1186,-3800,1415,143,-1124,664,0,116,3040,1,30,906,1823,1904,2102,2308,2034,1790,1864,2008
422670,-16004,-2088,-33824,-1121,-3800,1371,174,-1091,667,33,82,3034,10,35,912,1849,1940,2149,2291,2084,1807,1874,2041
423671,-15988,-2004,-33759,-1056,-3800,1048,200,-1049,665,-138,96,3093,2,38,906,1849,1940,2149,2291,2084,1807,1874,2041
424672,-16000,-1948,-33694,-991,-3800,1410,218,-1028,673,-194,85,3216,8,28,907,1849,1940,2149,2291,2084,1807,1874,2041
425673,-15996,-1888,-33629,-926,-3800,1366,234,-980,682,-83,197,3355,4,25,911,1849,1940,2149,2291,2084,1807,1874,2041
426674,-16008,-1824,-33564,-861,-3800,1317,255,-950,686,-109,350,3368,13,36,907,1849,1940,2149,2291,2084,1807,1874,2041
427675,-15992,-1776,-33499,-796,-3800,1539,265,-927,696,-139,570,3395,13,35,905,1849,1940,2149,2291,2084,1807,1874,2041
428676,-16000,-1708,-33434,-731,-3800,1285,263,-920,721,-169,696,3396,0,37,907,1784,1884,2074,2196,2045,1763,1836,1990
429677,-15996,-1644,-33369,-666,-3800,1337,254,-925,738,-172,879,3487,0,35,905,1784,1884,2074,2196,2045,1763,1836,1990
430678,-15996,-1580,-33304,-601,-3800,1339,229,-959,740,-165,996,3485,3,22,908,1784,1884,2074,2196,2045,1763,1836,1990
431679,-16004,-1508,-33239,-536,-3800,1230,201,-984,747,19,1002,3577,10,31,907,1784,1884,2074,2196,2045,1763,1836,1990
432680,-15996,-1464,-33174,-471,-3800,1607,173,-1000,754,242,993,3586,-5,25,908,1784,1884,2074,2196,2045,1763,1836,1990
433681,-15996,-1400,-33109,-406,-3800,1358,151,-1026,770,261,1133,3590,-4,31,909,1723,1818,2001,2155,2003,1743,1811,1961
434682,-15996,-1352,-33044,-341,-3800,1579,126,-1037,772,488,1052,3357,-3,24,904,1723,1818,2001,2155,2003,1743,1811,1961
435683,-15996,-1304,-32979,-276,-3800,1600,109,-1057,783,470,887,3572,2,19,907,1723,1818,2001,2155,2003,1743,1811,1961
436684,-15992,-1236,-32914,-211,-3800,1347,96,-1069,790,714,828,3336,3,33,887,1723,1818,2001,2155,2003,1743,1811,1961
437685,-15992,-1192,-32849,-146,-3800,1673,103,-1075,792,873,684,3431,12,24,904,1723,1818,2001,2155,2003,1743,1811,1961
438686,-16000,-1140,-32784,-81,-3800,1589,120,-1060,803,965,529,3279,-4,20,908,1723,1818,2001,2155,2003,1743,1811,1961
439687,-15988,-1064,-32719,-16,-3800,1276,133,-1050,811,1020,457,3249,14,24,903,1737,1829,2039,2187,2066,1809,1869,2027
440688,-15988,-1012,-32654,49,-3800,1593,146,-1026,815,891,215,3090,8,39,896,1737,1829,2039,2187,2066,1809,1869,2027
441689,-15996,-948,-32589,114,-3800,1444,160,-1030,811,939,268,3116,8,28,909,1737,1829,2039,2187,2066,1809,1869,2027
442690,-15988,-892,-32524,179,-3800,1556,173,-1021,810,827,167,3029,-2,40,904,1737,1829,2039,2187,2066,1809,1869,2027
443691,-15988,-832,-32459,244,-3800,1512,178,-1020,812,792,198,3003,-1,26,906,1737,1829,2039,2187,2066,1809,1869,2027
444692,-15996,-764,-32394,309,-3800,1408,173,-1022,809,634,415,2983,-4,29,899,1788,1894,2125,2283,2101,1829,1885,2042
445693,-15996,-688,-32329,374,-3800,1296,134,-1027,825,394,441,2907,0,42,904,1788,1894,2125,2283,2101,1829,1885,2042
446694,-16000,-616,-32264,439,-3800,1337,100,-1027,855,285,277,3153,-1,33,907,1788,1894,2125,2283,2101,1829,1885,2042
447695,-15996,-540,-32199,504,-3800,1275,76,-1032,864,389,577,3473,-5,32,908,1788,1894,2125,2283,2101,1829,1885,2042
448696,-15988,-484,-32134,569,-3800,1536,55,-1004,853,418,541,3414,0,41,904,1788,1894,2125,2283,2101,1829,1885,2042
449697,-15996,-424,-32069,634,-3800,1492,21,-990,853,785,563,3781,-4,38,908,1788,1894,2125,2283,2101,1829,1885,2042
450698,-16000,-360,-32004,699,-3800,1444,-2,-986,868,434,618,4017,1,30,905,1818,1927,2130,2275,2063,1783,1860,2010
451699,-16000,-300,-31870,898,-3800,2351,-30,-982,876,480,760,4038,12,42,906,1818,1927,2130,2275,2063,1783,1860,2010
452700,-15992,-216,-31805,963,-3800,2029,-52,-957,880,826,847,4130,2,31,904,1818,1927,2130,2275,2063,1783,1860,2010
453701,-15984,-128,-31740,1028,-3800,1951,-60,-914,905,984,695,4143,4,34,893,1818,1927,2130,2275,2063,1783,1860,2010
454702,-16008,-56,-31675,1093,-3800,2143,-50,-892,902,963,732,4424,0,41,899,1818,1927,2130,2275,2063,1783,1860,2010
455703,-15988,48,-31610,1158,-3800,1695,-26,-866,895,932,745,4462,11,45,900,1778,1885,2068,2215,2058,1785,1865,2010
456704,-16004,160,-31545,1223,-3800,1538,8,-872,913,1115,742,4489,3,50,895,1778,1885,2068,2215,2058,1785,1865,2010
457705,-16000,260,-31480,1288,-3800,1646,34,-877,929,1108,642,4402,16,59,903,1778,1885,2068,2215,2058,1785,1865,2010
458706,-16000,372,-31415,1353,-3800,1439,61,-909,957,1025,577,4162,11,53,906,1778,1885,2068,2215,2058,1785,1865,2010
459707,-15992,488,-31350,1418,-3800,1328,95,-943,997,1104,437,4249,3,64,905,1778,1885,2068,2215,2058,1785,1865,2010
460708,-16004,604,-31285,1483,-3800,1265,159,-980,1017,1080,383,4436,-1,65,907,1778,1885,2068,2215,2058,1785,1865,2010
461709,-15996,700,-31220,1548,-3800,1478,236,-981,1021,1347,678,4607,5,50,907,1775,1882,2088,2250,2092,1836,1904,2059
462710,-15992,796,-31155,1613,-3800,1441,262,-997,1021,1650,627,4142,0,60,907,1775,1882,2088,2250,2092,1836,1904,2059
463711,-16004,892,-31090,1678,-3800,1403,272,-1038,1052,1301,390,4334,2,48,907,1775,1882,2088,2250,2092,1836,1904,2059
464712,-16004,984,-31025,1743,-3800,1420,270,-1088,1065,1129,562,4045,4,52,907,1775,1882,2088,2250,2092,1836,1904,2059
465713,-16004,1080,-30960,1808,-3800,1332,256,-1125,1064,1250,538,3787,0,50,908,1775,1882,2088,2250,2092,1836,1904,2059
466714,-15992,1180,-30895,1873,-3800,1240,247,-1106,1067,1432,608,4010,7,38,907,1871,1972,2198,2379,2102,1834,1909,2056
467715,-15992,1268,-30830,1938,-3800,1362,233,-1088,1095,1365,583,3816,-1,44,908,1871,1972,2198,2379,2102,1834,1909,2056
468716,-16000,1352,-30765,2003,-3800,1389,201,-1091,1087,1398,572,3885,-4,41,909,1871,1972,2198,2379,2102,1834,1909,2056
469717,-16000,1460,-30700,2068,-3800,1037,173,-1112,1076,997,564,4020,-2,50,908,1871,1972,2198,2379,2102,1834,1909,2056
470718,-15996,1516,-30635,2133,-3800,1699,140,-1107,1082,949,578,4019,-1,51,907,1871,1972,2198,2379,2102,1834,1909,2056
471719,-16004,1604,-30570,2198,-3800,1271,109,-1096,1089,993,293,3966,-2,37,911,1871,1972,2198,2379,2102,1834,1909,2056
472720,-15988,1680,-30505,2263,-3800,1407,109,-1077,1094,1100,303,4383,-4,41,903,1931,2030,2229,2393,2081,1808,1885,2037
473721,-16004,1744,-30440,2328,-3800,1558,128,-1061,1105,931,340,4386,13,46,912,1931,2030,2229,2393,2081,1808,1885,2037
474722,-16000,1836,-30375,2393,-3800,1176,153,-1026,1123,914,307,4486,11,46,907,1931,2030,2229,2393,2081,1808,1885,2037
475723,-16000,1920,-30310,2458,-3800,1253,171,-1034,1134,890,249,4510,-1,36,905,1931,2030,2229,2393,2081,1808,1885,2037
476724,-16000,2000,-30245,2523,-3800,1285,205,-1018,1138,653,239,4680,-5,49,910,1931,2030,2229,2393,2081,1808,1885,2037
477725,-15992,2060,-30180,2588,-3800,1541,234,-993,1148,1119,264,4552,-5,41,900,1840,1944,2134,2276,2076,1801,1873,2023
478726,-16000,2124,-30115,2653,-3800,1492,272,-966,1162,1307,401,4873,13,41,907,1840,1944,2134,2276,2076,1801,1873,2023
479727,-16000,2216,-30050,2718,-3800,1110,303,-951,1173,1311,499,4591,5,43,904,1840,1944,2134,2276,2076,1801,1873,2023
480728,-16000,2292,-29985,2783,-3800,1297,327,-953,1201,1134,474,4417,14,43,906,1840,1944,2134,2276,2076,1801,1873,2023
481729,-15996,2392,-29920,2848,-3800,954,354,-917,1244,943,652,4466,13,50,905,1840,1944,2134,2276,2076,1801,1873,2023
482730,-15996,2488,-29855,2913,-3800,966,413,-825,1264,966,454,4319,5,47,909,1840,1944,2134,2276,2076,1801,1873,2023
483731,-15988,2552,-29790,2978,-3800,1368,505,-714,1271,1950,-527,3797,2,44,913,1771,1875,2075,2239,2087,1813,1889,2019
484732,-16004,2636,-29725,3043,-3800,1094,665,-681,1204,3818,-1632,3516,-1,40,913,1771,1875,2075,2239,2087,1813,1889,2019
485733,-15996,2764,-29660,3108,-3800,468,758,-824,1217,2795,21,2920,2,45,905,1771,1875,2075,2239,2087,1813,1889,2019
486734,-15996,2860,-29595,3173,-3800,831,726,-896,1262,-695,1229,4098,10,46,911,1771,1875,2075,2239,2087,1813,1889,2019
487735,-15984,2944,-29530,3238,-3800,957,712,-608,1211,2920,263,2952,-3,39,917,1771,1875,2075,2239,2087,1813,1889,2019
488736,-15996,3040,-29465,3303,-3800,770,683,-612,1233,3567,-23,2805,-3,40,914,1823,1917,2112,2327,2022,1771,1850,1948
489737,-15976,3156,-29400,3368,-3800,457,597,-787,1248,-293,530,3502,-3,39,911,1823,1917,2112,2327,2022,1771,1850,1948
490738,-15992,3252,-29335,3433,-3800,669,555,-658,1226,1572,703,3610,-6,52,914,1823,1917,2112,2327,2022,1771,1850,1948
491739,-15992,3316,-29270,3498,-3800,1071,442,-366,1260,1303,-870,3996,-2,39,917,1823,1917,2112,2327,2022,1771,1850,1948
492740,-16000,3392,-29205,3563,-3800,907,178,-54,1244,-1764,-1100,3438,-3,39,915,1823,1917,2112,2327,2022,1771,1850,1948
493741,-15996,3472,-29140,3628,-3800,839,-139,169,1305,-602,407,2813,14,57,910,1823,1917,2112,2327,2022,1771,1850,1948
494742,-15984,3560,-29075,3693,-3800,711,-273,173,1465,2093,-400,2503,12,54,913,1863,1944,2131,2329,2009,1773,1846,1980
495743,-15988,3664,-29010,3758,-3800,463,-113,23,1480,1307,-1494,3496,-4,57,913,1863,1944,2131,2329,2009,1773,1846,1980
496744,-15988,3736,-28945,3823,-3800,856,154,-46,1380,-812,-2327,4156,13,48,913,1863,1944,2131,2329,2009,1773,1846,1980
497745,-15980,3828,-28880,3888,-3800,573,360,-42,1325,-265,-1398,3458,1,49,916,1863,1944,2131,2329,2009,1773,1846,1980
498746,-15984,3932,-28815,3953,-3800,375,457,60,1315,941,-991,3986,3,57,914,1863,1944,2131,2329,2009,1773,1846,1980
499747,-15980,4048,-28750,4018,-3800,163,481,149,1310,1867,-1003,3148,13,55,916,1704,1793,2019,2157,2135,1853,1887,2039
500748,-15980,4148,-28685,4083,-3800,320,480,167,1323,1268,-615,3253,10,58,918,1704,1793,2019,2157,2135,1853,1887,2039
501749,-15984,4244,-28620,4148,-3800,332,536,176,1326,763,-535,2901,2,54,919,1704,1793,2019,2157,2135,1853,1887,2039
502750,-15980,4340,-28555,4213,-3800,293,634,234,1280,1594,-682,3285,7,53,918,1704,1793,2019,2157,2135,1853,1887,2039
503751,-15984,4408,-28490,4278,-3800,640,743,279,1213,2795,-772,2731,5,31,918,1704,1793,2019,2157,2135,1853,1887,2039
504752,-15988,4500,-28425,4343,-3800,307,771,322,1161,2639,-169,2819,-3,44,919,1704,1793,2019,2157,2135,1853,1887,2039
505753,-15976,4596,-28360,4408,-3800,219,727,381,1136,1671,490,2855,-5,47,916,1691,1796,1992,2165,2040,1769,1844,1951
506754,-15972,4668,-28295,4473,-3800,510,609,458,1124,1875,719,2693,-1,41,918,1691,1796,1992,2165,2040,1769,1844,1951
507755,-15976,4760,-28230,4538,-3800,228,448,469,1119,2124,955,2598,-3,42,919,1691,1796,1992,2165,2040,1769,1844,1951
508756,-15964,4840,-28165,4603,-3800,359,277,469,1124,1512,1001,2543,11,39,917,1691,1796,1992,2165,2040,1769,1844,1951
509757,-15980,4912,-28100,4668,-3800,451,125,475,1135,1278,656,2602,-5,40,919,1691,1796,1992,2165,2040,1769,1844,1951
510758,-15968,4976,-28035,4733,-3800,552,7,441,1145,1306,286,2339,10,42,918,1784,1889,2038,2231,1935,1699,1807,1931
511759,-15972,5068,-27970,4798,-3800,169,-60,385,1137,1057,-188,2614,10,47,917,1784,1889,2038,2231,1935,1699,1807,1931
512760,-15976,5140,-27905,4863,-3800,410,-69,314,1119,753,-565,2779,-1,50,915,1784,1889,2038,2231,1935,1699,1807,1931
513761,-15972,5240,-27840,4928,-3800,18,-28,233,1117,910,-1012,3025,14,45,917,1784,1889,2038,2231,1935,1699,1807,1931
514762,-15976,5316,-27775,4993,-3800,303,46,154,1113,913,-1225,3091,11,37,908,1784,1889,2038,2231,1935,1699,1807,1931
515763,-15980,5384,-27710,5058,-3800,400,135,105,1069,758,-1503,3322,0,47,920,1784,1889,2038,2231,1935,1699,1807,1931
516764,-15972,5448,-27645,5123,-3800,451,250,94,1012,1129,-1799,3424,5,35,918,1741,1867,2056,2177,2055,1784,1851,2038
517765,-15976,5528,-27580,5188,-3800,232,366,67,953,1684,-1783,3334,9,48,918,1741,1867,2056,2177,2055,1784,1851,2038
518766,-15980,5600,-27515,5253,-3800,324,468,33,890,1640,-1470,3376,5,36,911,1741,1867,2056,2177,2055,1784,1851,2038
519767,-15976,5660,-27450,5318,-3800,480,537,31,814,1253,-1035,3388,11,46,919,1741,1867,2056,2177,2055,1784,1851,2038
520768,-15976,5728,-27385,5383,-3800,376,571,28,744,1572,-658,3199,-1,33,918,1741,1867,2056,2177,2055,1784,1851,2038
521769,-15984,5796,-27320,5448,-3800,373,559,49,677,1870,-236,3231,10,32,917,1750,1888,2093,2227,2073,1793,1879,2023
522770,-15976,5872,-27255,5513,-3800,258,504,59,609,1702,169,3142,-3,35,914,1750,1888,2093,2227,2073,1793,1879,2023
523771,-15976,5932,-27190,5578,-3800,464,416,107,547,1628,614,3309,12,35,918,1750,1888,2093,2227,2073,1793,1879,2023
524772,-15976,5992,-27125,5643,-3800,470,311,132,496,1901,905,3269,12,45,919,1750,1888,2093,2227,2073,1793,1879,2023
525773,-15988,6060,-27060,5708,-3800,367,198,156,448,1810,1017,3325,-2,38,918,1750,1888,2093,2227,2073,1793,1879,2023
526774,-15980,6120,-26995,5773,-3800,473,94,150,413,1391,994,3388,-4,36,915,1750,1888,2093,2227,2073,1793,1879,2023
527775,-15980,6188,-26930,5838,-3800,369,2,131,385,1382,933,3449,1,43,918,1838,1946,2103,2308,2029,1789,1895,1992
528776,-15988,6260,-26865,5903,-3800,311,-61,88,371,1329,764,3641,4,41,917,1838,1946,2103,2308,2029,1789,1895,1992
529777,-15980,6324,-26800,5968,-3800,411,-112,70,354,1182,285,3726,-4,36,916,1838,1946,2103,2308,2029,1789,1895,1992
530778,-15984,6380,-26735,6033,-3800,522,-136,53,340,992,-249,3910,7,29,916,1838,1946,2103,2308,2029,1789,1895,1992
531779,-15980,6440,-26670,6098,-3800,478,-116,43,340,806,-440,4357,-1,31,918,1838,1946,2103,2308,2029,1789,1895,1992
532780,-15984,6516,-26605,6163,-3800,265,-46,38,336,795,-795,4532,5,29,917,1784,1881,2069,2242,2109,1863,1915,2067
533781,-15988,6584,-26540,6228,-3800,361,63,41,317,800,-1106,4774,5,31,917,1784,1881,2069,2242,2109,1863,1915,2067
534782,-15988,6644,-26475,6293,-3800,467,195,32,308,779,-1347,4881,-6,30,918,1784,1881,2069,2242,2109,1863,1915,2067
535783,-15980,6696,-26410,6358,-3800,583,327,39,293,854,-1479,4869,9,43,918,1784,1881,2069,2242,2109,1863,1915,2067
536784,-15980,6772,-26345,6423,-3800,268,432,105,248,1169,-1302,4875,-4,40,917,1784,1881,2069,2242,2109,1863,1915,2067
537785,-15988,6840,-26280,6488,-3800,365,498,149,207,1305,-1129,4659,-2,44,917,1784,1881,2069,2242,2109,1863,1915,2067
538786,-15992,6908,-26215,6553,-3800,361,494,230,146,1117,-739,4478,2,39,918,1728,1849,2091,2243,2147,1868,1913,2064
539787,-15988,6964,-26150,6618,-3800,522,442,307,80,1060,-505,4362,10,31,918,1728,1849,2091,2243,2147,1868,1913,2064
540788,-15976,7028,-26085,6683,-3800,423,365,400,4,1440,-289,4021,-3,30,918,1728,1849,2091,2243,2147,1868,1913,2064
541789,-15976,7100,-26020,6748,-3800,315,259,403,-62,1129,125,3884,-3,43,917,1728,1849,2091,2243,2147,1868,1913,2064
542790,-15988,7168,-25955,6813,-3800,361,128,424,-103,645,605,4038,6,39,917,1728,1849,2091,2243,2147,1868,1913,2064
543791,-15976,7228,-25890,6878,-3800,467,-13,478,-151,1146,615,3837,-1,43,919,1880,1995,2201,2407,2067,1811,1910,2034
544792,-15980,7292,-25825,6943,-3800,417,-144,507,-210,1354,392,3835,-6,43,918,1880,1995,2201,2407,2067,1811,1910,2034
545793,-15972,7356,-25760,7008,-3800,419,-266,459,-232,665,401,3752,8,41,917,1880,1995,2201,2407,2067,1811,1910,2034
546794,-15984,7424,-25695,7073,-3800,365,-338,452,-243,370,423,4047,-1,39,916,1880,1995,2201,2407,2067,1811,1910,2034
547795,-15960,7492,-25630,7138,-3800,361,-363,503,-258,1104,28,4010,-5,38,916,1880,1995,2201,2407,2067,1811,1910,2034
548796,-15992,7544,-25565,7203,-3800,577,-343,530,-267,1402,-338,4102,4,32,918,1880,1995,2201,2407,2067,1811,1910,2034
549797,-15980,7624,-25500,7268,-3800,209,-300,511,-269,849,-614,4380,-2,44,918,1873,1983,2159,2331,2124,1863,1942,2095
550798,-15968,7692,-25435,7333,-3800,355,-233,499,-279,617,-661,4504,-4,34,916,1873,1983,2159,2331,2124,1863,1942,2095
551799,-15968,7772,-25370,7398,-3800,186,-145,493,-279,1094,-896,4514,-5,36,907,1873,1983,2159,2331,2124,1863,1942,2095
552800,-15976,7824,-25305,7463,-3800,552,-40,473,-274,1121,-931,4516,-2,45,918,1873,1983,2159,2331,2124,1863,1942,2095
553801,-15968,7876,-25240,7528,-3800,568,69,456,-260,720,-821,4934,7,45,919,1873,1983,2159,2331,2124,1863,1942,2095
554802,-15976,7960,-25175,7593,-3800,145,156,402,-247,941,-646,4641,8,44,917,1749,1860,2061,2199,2153,1861,1923,2075
555803,-15976,8028,-25110,7658,-3800,341,226,359,-232,896,-446,4748,13,33,910,1749,1860,2061,2199,2153,1861,1923,2075
556804,-15992,8124,-25045,7723,-3800,-47,254,341,-244,834,-173,4458,8,41,919,1749,1860,2061,2199,2153,1861,1923,2075
557805,-15984,8196,-24980,7788,-3800,244,262,375,-285,1162,-367,4301,6,45,918,1749,1860,2061,2199,2153,1861,1923,2075
558806,-15968,8252,-24915,7853,-3800,454,255,378,-318,1374,-196,3748,-1,41,920,1749,1860,2061,2199,2153,1861,1923,2075
559807,-15980,8320,-24850,7918,-3800,301,218,364,-375,1211,-47,3560,4,43,915,1749,1860,2061,2199,2153,1861,1923,2075
560808,-15988,8404,-24785,7983,-3800,78,148,360,-434,861,-38,3430,9,44,917,1777,1895,2087,2272,2047,1779,1870,1993
561809,-15980,8468,-24720,8048,-3800,329,31,361,-493,980,288,3371,-1,43,919,1777,1895,2087,2272,2047,1779,1870,1993
562810,-15964,8512,-24655,8113,-3800,604,-85,379,-523,1154,219,3524,9,33,919,1777,1895,2087,2272,2047,1779,1870,1993
563811,-15980,8572,-24590,8178,-3800,411,-176,361,-542,1076,118,3321,0,32,915,1777,1895,2087,2272,2047,1779,1870,1993
564812,-15972,8628,-24525,8243,-3800,471,-240,328,-563,383,-18,3387,-12,46,914,1777,1895,2087,2272,2047,1779,1870,1993
565813,-15964,8696,-24460,8308,-3800,317,-275,283,-562,221,-246,3289,5,39,918,1886,1985,2156,2347,2048,1767,1862,1999
566814,-15980,8760,-24395,8373,-3800,368,-271,298,-547,587,-348,3451,11,46,917,1886,1985,2156,2347,2048,1767,1862,1999
567815,-15988,8828,-24330,8438,-3800,314,-241,316,-522,690,-556,3582,-3,36,917,1886,1985,2156,2347,2048,1767,1862,1999
568816,-15972,8880,-24265,8503,-3800,530,-191,305,-499,287,-889,3756,3,34,918,1886,1985,2156,2347,2048,1767,1862,1999
569817,-15976,8944,-24200,8568,-3800,382,-94,252,-460,232,-1043,3847,11,32,918,1886,1985,2156,2347,2048,1767,1862,1999
570818,-15980,9024,-24135,8633,-3800,163,16,220,-403,494,-851,3869,1,32,917,1818,1906,2156,2347,2048,1767,1862,1999
571819,-15976,9100,-24070,8698,-3800,199,129,235,-374,801,-757,3901,-3,46,917,1818,1906,2112,2262,2073,1809,1876,2025
572820,-15976,9164,-24005,8763,-3800,350,215,268,-361,768,-634,3860,-2,41,919,1818,1906,2112,2262,2073,1809,1876,2025
573821,-15976,9232,-23940,8828,-3800,296,283,296,-348,659,-423,3902,8,32,919,1818,1906,2112,2262,2073,1809,1876,2025
574825,-15960,9304,-23875,8893,-3800,238,307,327,-363,883,-247,3731,-6,46,918,1818,1906,2112,2262,2073,1809,1876,2025
575823,-15972,9364,-23810,8958,-3800,394,313,362,-385,887,180,3761,1,36,918,1818,1906,2112,2262,2073,1809,1876,2025
576824,-15964,9416,-23745,9023,-3800,510,291,377,-404,820,397,3482,8,33,919,1788,1885,2079,2258,2027,1771,1849,1967
577825,-15980,9488,-23680,9088,-3800,250,273,386,-433,782,524,3567,-2,37,918,1788,1885,2079,2258,2027,1771,1849,1967
578826,-15960,9556,-23615,9153,-3800,297,236,360,-448,482,759,3555,2,48,917,1788,1885,2079,2258,2027,1771,1849,1967
579827,-15968,9616,-23550,9218,-3800,403,195,347,-459,517,790,3430,-3,43,919,1788,1885,2079,2258,2027,1771,1849,1967
580829,-15972,9692,-23485,9283,-3800,189,151,335,-467,562,748,3550,5,38,917,1788,1885,2079,2258,2027,1771,1849,1967
581829,-15976,9752,-23420,9348,-3800,395,110,321,-460,406,690,3531,12,36,919,1830,1910,2096,2298,2002,1761,1846,1968
582830,-15972,9824,-23355,9413,-3800,237,97,329,-440,351,429,3566,12,34,918,1830,1910,2096,2298,2002,1761,1846,1968
583831,-15972,9904,-23290,9478,-3800,118,105,321,-424,503,114,3532,5,36,919,1830,1910,2096,2298,2002,1761,1846,1968
584832,-15972,9972,-23225,9543,-3800,264,133,308,-391,356,-110,3601,11,38,919,1830,1910,2096,2298,2002,1761,1846,1968
585833,-15976,10028,-23160,9608,-3800,425,171,332,-350,330,-194,3648,13,45,919,1830,1910,2096,2298,2002,1761,1846,1968
586834,-15968,10088,-23095,9673,-3800,381,221,364,-312,521,-317,3686,-3,46,917,1830,1910,2096,2298,2002,1761,1846,1968
587835,-15976,10188,-23030,9738,-3800,-162,278,387,-273,384,-459,3943,7,35,908,1823,1913,2118,2281,2063,1795,1867,2028
588836,-15980,10256,-22965,9803,-3800,235,347,432,-231,351,-443,3965,-5,42,919,1823,1913,2118,2281,2063,1795,1867,2028
589837,-15972,10328,-22900,9868,-3800,176,413,475,-200,488,-351,3752,-2,42,919,1823,1913,2118,2281,2063,1795,1867,2028
590838,-15968,10400,-22835,9933,-3800,166,464,510,-176,589,-221,3753,-6,43,919,1823,1913,2118,2281,2063,1795,1867,2028
591839,-15972,10476,-22770,9998,-3800,103,494,513,-148,306,-32,3679,-5,43,912,1823,1913,2118,2281,2063,1795,1867,2028
592840,-15964,10536,-22705,10063,-3800,309,503,507,-140,186,250,3745,-2,36,920,1820,1922,2120,2291,2064,1795,1865,2011
593841,-15972,10608,-22640,10128,-3800,151,496,488,-130,304,612,3658,8,39,918,1820,1922,2120,2291,2064,1795,1865,2011
594842,-15968,10668,-22575,10193,-3800,307,469,454,-107,241,948,3680,11,38,919,1820,1922,2120,2291,2064,1795,1865,2011
595843,-15976,10720,-22510,10258,-3800,422,418,444,-113,267,1042,3678,7,37,914,1820,1922,2120,2291,2064,1795,1865,2011
596844,-15968,10768,-22445,10323,-3800,492,358,439,-121,246,1176,3792,6,41,917,1820,1922,2120,2291,2064,1795,1865,2011
597845,-15964,10840,-22380,10388,-3800,184,314,435,-115,438,1217,3775,11,29,915,1820,1922,2120,2291,2064,1795,1865,2011
598846,-15972,10908,-22315,10453,-3800,230,298,439,-114,876,1077,3720,12,28,919,1851,1939,2130,2307,2050,1790,1871,2011
599847,-15980,10956,-22250,10518,-3800,501,291,392,-121,524,1104,3736,7,32,916,1851,1939,2130,2307,2050,1790,1871,2011
600848,-15968,11000,-22185,10583,-3800,576,286,389,-108,215,1050,3937,4,33,917,1851,1939,2130,2307,2050,1790,1871,2011
601849,-15968,11076,-22120,10648,-3800,162,277,399,-96,468,906,4088,-19,44,916,1851,1939,2130,2307,2050,1790,1871,2011
602850,-15968,11136,-22055,10713,-3800,368,284,421,-69,730,718,4013,-3,46,919,1851,1939,2130,2307,2050,1790,1871,2011
603851,-15972,11200,-21990,10778,-3800,319,301,390,-23,718,632,3816,-4,39,917,1818,1906,2112,2266,2094,1828,1890,2057
604852,-15976,11272,-21925,10843,-3800,211,324,350,18,384,512,3920,2,46,918,1818,1906,2112,2266,2094,1828,1890,2057
605853,-15972,11336,-21860,10908,-3800,312,353,347,48,440,377,3968,-5,36,919,1818,1906,2112,2266,2094,1828,1890,2057
606854,-15968,11400,-21795,10973,-3800,313,388,367,75,687,288,3875,-6,38,918,1818,1906,2112,2266,2094,1828,1890,2057
607855,-15968,11464,-21730,11038,-3800,313,420,389,99,726,203,4006,10,36,917,1818,1906,2112,2266,2094,1828,1890,2057
608856,-15976,11528,-21665,11103,-3800,315,440,374,132,543,241,3895,2,35,919,1818,1906,2112,2266,2094,1828,1890,2057
609857,-15972,11608,-21600,11168,-3800,96,443,347,159,327,392,3865,-1,35,918,1786,1885,2107,2246,2116,1837,1874,2059
610858,-15976,11704,-21535,11233,-3800,-141,434,348,169,457,586,3909,5,45,919,1786,1885,2107,2246,2116,1837,1874,2059
611859,-15972,11776,-21470,11298,-3800,150,419,367,175,634,754,3858,1,51,919,1786,1885,2107,2246,2116,1837,1874,2059
612860,-15968,11840,-21405,11363,-3800,251,379,380,178,529,797,3607,1,42,919,1786,1885,2107,2246,2116,1837,1874,2059
613861,-15980,11916,-21340,11428,-3800,87,332,376,178,96,935,3954,-3,41,918,1786,1885,2107,2246,2116,1837,1874,2059
614862,-15968,11996,-21275,11493,-3800,18,272,332,187,122,1052,3545,-5,39,918,1806,1908,2120,2262,2088,1814,1880,2036
615863,-15968,12084,-21210,11558,-3800,-110,211,316,185,419,1181,3759,-1,40,920,1806,1908,2120,2262,2088,1814,1880,2036
616864,-15980,12188,-21145,11623,-3800,-357,142,307,178,360,1152,3679,12,32,919,1806,1908,2120,2262,2088,1814,1880,2036
617865,-15964,12280,-21080,11688,-3800,-240,94,328,183,452,1046,3699,4,35,918,1806,1908,2120,2262,2088,1814,1880,2036
618866,-15968,12324,-21015,11753,-3800,384,65,324,191,818,862,3421,-7,31,918,1806,1908,2120,2262,2088,1814,1880,2036
619867,-15976,12384,-20950,11818,-3800,191,51,265,206,486,850,3497,7,28,917,1806,1908,2120,2262,2088,1814,1880,2036
620868,-15984,12476,-20885,11883,-3800,-242,32,239,203,105,802,3786,-6,30,919,1803,1903,2106,2255,2108,1834,1898,2064
621869,-15968,12580,-20820,11948,-3800,-440,9,293,206,722,809,3700,-5,34,918,1803,1903,2106,2255,2108,1834,1898,2064
622870,-15976,12692,-20755,12013,-3800,-598,-21,390,220,1449,617,3709,1,27,917,1803,1903,2106,2255,2108,1834,1898,2064
623871,-15968,12760,-20690,12078,-3800,-52,-52,461,225,1248,395,3383,-3,33,915,1803,1903,2106,2255,2108,1834,1898,2064
624873,-15976,12820,-20625,12143,-3800,54,-73,477,236,498,316,3640,8,20,911,1803,1903,2106,2255,2108,1834,1898,2064
625873,-15968,12876,-20560,12208,-3800,115,-83,490,239,424,80,3479,9,30,919,1767,1865,2078,2214,2130,1848,1896,2064
626874,-15976,12924,-20495,12273,-3800,235,-79,489,245,694,-19,3603,10,29,919,1767,1865,2078,2214,2130,1848,1896,2064
627875,-15972,12972,-20430,12338,-3800,256,-65,512,260,909,-83,3645,-5,22,919,1767,1865,2078,2214,2130,1848,1896,2064
628876,-15976,13036,-20365,12403,-3800,57,-45,492,258,820,-127,3382,-7,33,911,1767,1865,2078,2214,2130,1848,1896,2064
629877,-15968,13092,-20300,12468,-3800,168,-36,432,246,340,-27,3599,2,37,920,1767,1865,2078,2214,2130,1848,1896,2064
630878,-15968,13132,-20235,12533,-3800,397,-50,383,262,151,412,3414,0,33,918,1767,1865,2078,2214,2130,1848,1896,2064
631879,-15972,13188,-20170,12598,-3800,208,-79,375,276,444,632,3637,12,23,917,1730,1830,2047,2200,2100,1821,1876,2008
632880,-15984,13236,-20105,12663,-3800,329,-114,373,275,652,733,3671,8,28,914,1730,1830,2047,2200,2100,1821,1876,2008
633881,-15976,13284,-20040,12728,-3800,350,-156,353,291,506,826,3689,12,36,918,1730,1830,2047,2200,2100,1821,1876,2008
634882,-15980,13348,-19975,12793,-3800,150,-198,324,304,403,881,3761,5,34,918,1730,1830,2047,2200,2100,1821,1876,2008
635883,-15968,13392,-19910,12858,-3800,426,-244,325,297,610,947,3882,11,42,919,1730,1830,2047,2200,2100,1821,1876,2008
636884,-15976,13472,-19845,12923,-3800,-43,-271,354,291,841,909,3958,6,39,915,1759,1864,2062,2233,2049,1793,1870,2018
637885,-15980,13536,-19780,12988,-3800,159,-287,398,290,976,775,3943,0,40,919,1759,1864,2062,2233,2049,1793,1870,2018
638886,-15988,13588,-19715,13053,-3800,324,-290,444,293,927,615,3962,12,39,919,1759,1864,2062,2233,2049,1793,1870,2018
639887,-15984,13668,-19650,13118,-3800,-45,-290,476,299,830,479,3755,-5,41,918,1759,1864,2062,2233,2049,1793,1870,2018
640888,-15972,13736,-19585,13183,-3800,101,-295,495,300,856,330,3688,10,32,918,1759,1864,2062,2233,2049,1793,1870,2018
641889,-15972,13800,-19520,13248,-3800,153,-289,534,301,791,120,3742,0,33,919,1759,1864,2062,2233,2049,1793,1870,2018
642890,-15980,13868,-19455,13313,-3800,99,-260,585,296,1048,-210,3554,-6,45,919,1817,1920,2130,2296,2086,1819,1889,2046
643891,-15976,13932,-19390,13378,-3800,150,-216,574,295,1038,-345,3413,-4,33,919,1817,1920,2130,2296,2086,1819,1889,2046
644892,-15976,14000,-19325,13443,-3800,96,-174,521,289,645,-263,3410,0,44,918,1817,1920,2130,2296,2086,1819,1889,2046
645893,-15980,14084,-19260,13508,-3800,-128,-148,502,276,353,-121,3650,11,32,920,1817,1920,2130,2296,2086,1819,1889,2046
646894,-15980,14160,-19195,13573,-3800,-41,-146,488,260,832,-12,3409,12,43,919,1817,1920,2130,2296,2086,1819,1889,2046
647895,-15984,14224,-19130,13638,-3800,110,-157,461,255,850,112,3584,-5,38,919,1862,1961,2170,2341,2060,1798,1866,2000
648896,-15988,14276,-19065,13703,-3800,275,-180,408,256,555,216,3609,11,44,917,1862,1961,2170,2341,2060,1798,1866,2000
649897,-15976,14348,-19000,13768,-3800,16,-195,366,243,408,317,3814,12,45,918,1862,1961,2170,2341,2060,1798,1866,2000
650898,-15976,14416,-18935,13833,-3800,63,-201,337,239,587,413,4082,0,42,920,1862,1961,2170,2341,2060,1798,1866,2000
651899,-15972,14488,-18870,13898,-3800,4,-197,326,244,855,476,4197,13,33,919,1862,1961,2170,2341,2060,1798,1866,2000
652900,-15976,14548,-18805,13963,-3800,160,-193,326,239,916,401,4366,10,46,919,1862,1961,2170,2341,2060,1798,1866,2000
653901,-15972,14624,-18740,14028,-3800,-54,-188,327,237,819,489,4444,8,44,919,1848,1938,2121,2299,2022,1770,1855,1988
654902,-15980,14696,-18675,14093,-3800,-13,-184,345,242,808,431,4544,3,41,920,1848,1938,2121,2299,2022,1770,1855,1988
655903,-15988,14776,-18610,14158,-3800,-131,-166,382,247,1096,328,4452,2,43,920,1848,1938,2121,2299,2022,1770,1855,1988
656904,-15980,14828,-18545,14223,-3800,235,-144,394,254,1000,234,4481,12,45,919,1848,1938,2121,2299,2022,1770,1855,1988
657905,-15976,14896,-18480,14288,-3800,30,-106,387,274,748,61,4291,11,37,919,1848,1938,2121,2299,2022,1770,1855,1988
658906,-15976,14976,-18415,14353,-3800,-138,-58,385,289,745,-132,4470,12,31,920,1816,1916,2101,2279,2060,1793,1889,2035
659907,-15988,15048,-18350,14418,-3800,-47,-7,368,291,712,-266,4176,-4,30,919,1816,1916,2101,2279,2060,1793,1889,2035
660908,-15984,15120,-18285,14483,-3800,-55,52,360,288,828,-399,4261,2,34,919,1816,1916,2101,2279,2060,1793,1889,2035
661909,-15984,15192,-18220,14548,-3800,-65,111,327,287,797,-397,3856,-5,43,912,1816,1916,2101,2279,2060,1793,1889,2035
662910,-15980,15236,-18155,14613,-3800,311,151,292,287,482,-351,3992,2,36,919,1816,1916,2101,2279,2060,1793,1889,2035
663911,-15980,15308,-18090,14678,-3800,-48,172,281,271,489,-321,3813,8,29,918,1816,1916,2101,2279,2060,1793,1889,2035
664912,-15984,15368,-18025,14743,-3800,109,173,242,250,544,-235,3833,12,35,919,1844,1953,2146,2334,2091,1825,1905,2045
665913,-15968,15436,-17960,14808,-3800,4,173,221,233,748,-218,3717,-6,38,905,1844,1953,2146,2334,2091,1825,1905,2045
666914,-15976,15504,-17895,14873,-3800,0,163,215,212,675,-174,3866,-2,31,919,1844,1953,2146,2334,2091,1825,1905,2045
667915,-15972,15580,-17830,14938,-3800,-113,158,233,183,736,-223,3801,-6,38,919,1844,1953,2146,2334,2091,1825,1905,2045
668916,-15980,15648,-17765,15003,-3800,-17,143,240,161,834,-269,3879,4,36,919,1844,1953,2146,2334,2091,1825,1905,2045
669917,-15976,15708,-17700,15068,-3800,88,131,259,154,629,-193,4068,12,27,915,1894,1992,2175,2361,2054,1796,1881,2010
670918,-15988,15772,-17635,15133,-3784,39,111,270,144,585,-155,4144,-6,27,920,1894,1992,2175,2361,2054,1796,1881,2010
671919,-15980,15856,-17570,15198,-3800,-234,96,274,133,547,-141,4353,7,28,919,1894,1992,2175,2361,2054,1796,1881,2010
672920,-15984,15916,-17505,15263,-3732,72,90,259,140,581,-204,4342,-4,41,918,1894,1992,2175,2361,2054,1796,1881,2010
673921,-15984,15984,-17440,15328,-3703,-31,89,260,148,751,-179,4493,9,26,916,1894,1992,2175,2361,2054,1796,1881,2010
674922,-15980,16032,-17375,15393,-3679,238,96,257,143,456,-263,4524,-1,31,920,1894,1992,2175,2361,2054,1796,1881,2010
675923,-15968,16100,-17310,15458,-3715,-15,108,240,145,427,-267,4544,-5,39,918,1849,2047,2120,2296,2048,1795,1876,2016
676924,-15984,16164,-17245,15523,-3267,36,139,233,154,520,-334,4642,9,29,919,1849,2047,2120,2296,2048,1795,1876,2016
677925,-15980,16208,-17180,15588,-3442,312,176,226,155,601,-366,4521,-7,25,916,1849,2047,2120,2296,2048,1795,1876,2016
678926,-15976,16288,-17115,15653,-3369,-158,219,214,142,551,-343,4545,9,37,918,1849,2047,2120,2296,2048,1795,1876,2016
679927,-15984,16328,-17050,15718,-3130,373,245,198,135,608,-305,4330,13,29,918,1849,2047,2120,2296,2048,1795,1876,2016
680928,-15976,16388,-16985,15783,-3261,129,264,185,127,590,-217,4280,-3,33,917,1808,1907,2104,2279,2092,1832,1903,2055
681929,-15976,16436,-16920,15848,-3082,300,269,188,101,601,-146,4071,9,40,917,1808,1907,2104,2279,2092,1832,1903,2055
682930,-15976,16492,-16855,15913,-3002,210,276,185,74,638,-148,4062,7,37,918,1808,1907,2104,2279,2092,1832,1903,2055
683931,-15980,16548,-16790,15978,-2869,221,283,177,52,723,-143,3884,-2,39,919,1808,1907,2104,2279,2092,1832,1903,2055
684932,-15972,16632,-16725,16043,-2950,-152,283,177,23,566,-95,3879,0,34,918,1808,1907,2104,2279,2092,1832,1903,2055
685933,-15980,16700,-16660,16108,-2661,44,278,196,-7,711,-139,3771,2,41,918,1808,1907,2104,2279,2092,1832,1903,2055
686934,-15980,16760,-16595,16173,-2682,149,275,208,-20,726,-269,3518,2,27,920,1833,1937,2134,2310,2107,1841,1917,2057
687935,-15972,16800,-16530,16238,-2713,429,267,194,-40,577,-181,3769,11,42,919,1833,1937,2134,2310,2107,1841,1917,2057
688936,-15972,16832,-16465,16303,-2533,570,257,192,-68,471,-232,3598,3,40,917,1833,1937,2134,2310,2107,1841,1917,2057
689937,-15972,16864,-16400,16368,-2454,610,236,165,-81,250,-75,3936,12,41,916,1833,1937,2134,2310,2107,1841,1917,2057
690938,-15992,16904,-16335,16433,-2100,541,213,164,-86,459,-13,3805,4,41,916,1833,1937,2134,2310,2107,1841,1917,2057
691939,-15976,16964,-16270,16498,-2491,296,197,151,-104,523,-88,3922,13,37,916,1840,1944,2128,2301,2065,1803,1879,2018
692940,-15968,17036,-16205,16563,-2322,137,183,143,-135,359,-18,4112,9,49,918,1840,1944,2128,2301,2065,1803,1879,2018
693941,-15968,17124,-16140,16628,-2142,-91,175,162,-144,556,-137,3950,-6,49,919,1840,1944,2128,2301,2065,1803,1879,2018
694942,-15988,17192,-16075,16693,-1789,155,173,198,-150,816,-49,4289,5,44,920,1840,1944,2128,2301,2065,1803,1879,2018
695943,-15976,17296,-16010,16758,-2124,-342,183,222,-176,644,-60,4003,5,34,919,1840,1944,2128,2301,2065,1803,1879,2018
696944,-15976,17376,-15945,16823,-1895,-62,182,234,-191,239,-75,4282,-5,49,917,1840,1944,2128,2301,2065,1803,1879,2018
697945,-15980,17460,-15880,16888,-1760,-135,192,230,-206,417,-16,4221,-7,45,920,1800,1901,2068,2251,2046,1788,1863,2008
698946,-15980,17524,-15815,16953,-1731,116,193,202,-237,545,-92,4285,9,33,919,1800,1901,2068,2251,2046,1788,1863,2008
699947,-15984,17608,-15750,17018,-1597,-157,204,184,-257,635,-63,4139,0,39,918,1800,1901,2068,2251,2046,1788,1863,2008
700948,-15980,17688,-15685,17083,-1622,-125,211,167,-276,554,-30,4121,9,43,919,1800,1901,2068,2251,2046,1788,1863,2008
701949,-15984,17744,-15486,17282,-1275,349,218,137,-302,487,18,3884,6,31,919,1800,1901,2068,2251,2046,1788,1863,2008
702950,-15972,17812,-15421,17347,-1409,195,228,165,-332,808,34,3793,1,38,909,1792,1893,2095,2268,2071,1817,1888,2022
703951,-15976,17884,-15356,17412,-1125,136,231,174,-357,941,-47,3474,0,37,919,1792,1893,2095,2268,2071,1817,1888,2022
704952,-15976,17948,-15291,17477,-1095,238,228,179,-378,868,-35,3417,9,30,919,1792,1893,2095,2268,2071,1817,1888,2022
705953,-15980,18024,-15226,17542,-961,74,231,177,-399,746,21,3379,9,42,919,1792,1893,2095,2268,2071,1817,1888,2022
706954,-15984,18104,-15161,17607,-876,5,224,188,-430,883,149,3287,5,39,909,1792,1893,2095,2268,2071,1817,1888,2022
707955,-15972,18164,-15096,17672,-1011,261,214,176,-458,780,168,3308,-6,37,920,1792,1893,2095,2268,2071,1817,1888,2022
708956,-15976,18232,-15031,17737,-727,157,203,161,-463,473,376,3544,12,39,919,1824,1924,2123,2303,2073,1819,1891,2027
709957,-15976,18292,-14966,17802,-697,263,197,136,-462,329,486,3666,10,42,919,1824,1924,2123,2303,2073,1819,1891,2027
710958,-15976,18376,-14901,17867,-617,-60,189,137,-471,382,469,3799,-6,44,915,1824,1924,2123,2303,2073,1819,1891,2027
711959,-15980,18444,-14836,17932,-483,136,188,132,-479,324,457,4020,-1,43,920,1824,1924,2123,2303,2073,1819,1891,2027
712960,-15972,18520,-14771,17997,-562,22,191,115,-471,389,427,4022,-5,42,920,1824,1924,2123,2303,2073,1819,1891,2027
713961,-15984,18600,-14706,18062,-218,-46,202,101,-477,337,411,4159,7,41,920,1815,1912,2104,2273,2056,1794,1867,2012
714962,-15976,18664,-14641,18127,-398,155,211,115,-484,451,419,4218,-6,29,908,1815,1912,2104,2273,2056,1794,1867,2012
715963,-15976,18736,-14576,18192,-219,46,227,155,-493,556,274,4189,7,29,919,1815,1912,2104,2273,2056,1794,1867,2012
716964,-15976,18792,-14511,18257,-138,256,236,183,-503,710,245,3962,12,28,918,1815,1912,2104,2273,2056,1794,1867,2012
717965,-15976,18872,-14446,18322,-59,-62,232,200,-506,402,108,3942,-6,40,910,1815,1912,2104,2273,2056,1794,1867,2012
718966,-15992,18936,-14381,18387,241,139,228,252,-521,229,248,4097,5,39,920,1815,1912,2104,2273,2056,1794,1867,2012
719967,-15972,18988,-14316,18452,-154,305,223,299,-529,451,140,3826,-3,28,918,1804,1894,2104,2266,2054,1793,1861,2012
720968,-15984,19056,-14251,18517,341,102,228,293,-519,528,111,3866,-5,34,909,1804,1894,2104,2266,2054,1793,1861,2012
721969,-15968,19132,-14186,18582,52,-13,245,245,-521,204,308,3906,11,40,917,1804,1894,2104,2266,2054,1793,1861,2012
722970,-15984,19180,-14121,18647,551,358,250,203,-510,-48,187,3688,-2,26,920,1804,1894,2104,2266,2054,1793,1861,2012
723971,-15972,19232,-14056,18712,266,324,247,158,-502,541,220,3637,-4,35,915,1804,1894,2104,2266,2054,1793,1861,2012
724972,-15972,19300,-13991,18777,497,120,225,82,-488,260,239,3356,7,27,917,1826,1913,2127,2301,2069,1809,1875,2027
725973,-15976,19380,-13926,18842,632,-48,201,27,-477,109,395,3506,15,42,916,1826,1913,2127,2301,2069,1809,1875,2027
726974,-15964,19436,-13861,18907,497,262,176,4,-470,563,370,3432,4,43,916,1826,1913,2127,2301,2069,1809,1875,2027
727975,-15924,19500,-13796,18972,178,163,163,14,-460,897,552,3515,10,33,915,1826,1913,2127,2301,2069,1809,1875,2027
728976,-15916,19580,-13731,19037,649,-55,148,26,-450,745,529,3744,8,30,918,1826,1913,2127,2301,2069,1809,1875,2027
729977,-15892,19648,-13666,19102,500,91,141,70,-440,697,681,3866,24,39,916,1826,1913,2127,2301,2069,1809,1875,2027
730978,-15876,19708,-13601,19167,661,197,137,104,-433,756,700,3932,11,30,917,1832,1921,2119,2280,2085,1818,1890,2045
731979,-15844,19744,-13536,19232,502,532,147,129,-424,719,460,3995,13,30,915,1832,1921,2119,2280,2085,1818,1890,2045
732980,-15820,19836,-13471,19297,652,-201,159,124,-400,473,463,4063,21,27,916,1832,1921,2119,2280,2085,1818,1890,2045
733981,-15784,19908,-13406,19362,538,40,175,107,-375,363,465,4013,22,28,913,1832,1921,2119,2280,2085,1818,1890,2045
734982,-15744,19948,-13341,19427,520,471,186,77,-355,261,366,4055,21,31,916,1832,1921,2119,2280,2085,1818,1890,2045
735983,-15696,19984,-13276,19492,442,556,203,50,-323,137,338,4109,29,29,914,1797,1894,2092,2248,2096,1820,1888,2045
736984,-15656,20060,-13211,19557,573,41,222,25,-292,-7,492,4257,35,37,914,1797,1894,2092,2248,2096,1820,1888,2045
737985,-15616,20116,-13146,19622,605,302,231,-6,-260,-41,358,4111,37,29,916,1797,1894,2092,2248,2096,1820,1888,2045
738986,-15592,20164,-13081,19687,856,423,230,-32,-231,124,370,4023,31,29,914,1797,1894,2092,2248,2096,1820,1888,2045
739987,-15528,20236,-13016,19752,358,115,226,-52,-214,86,440,4077,33,41,911,1797,1894,2092,2248,2096,1820,1888,2045
740988,-15500,20312,-12951,19817,854,51,215,-63,-198,163,338,4021,44,46,918,1797,1894,2092,2248,2096,1820,1888,2045
741989,-15440,20360,-12886,19882,461,421,198,-30,-176,429,382,4113,26,33,914,1798,1903,2110,2271,2084,1810,1880,2036
742990,-15384,20408,-12821,19947,523,442,181,11,-171,651,425,3914,36,41,915,1798,1903,2110,2271,2084,1810,1880,2036
743991,-15340,20472,-12756,20012,700,243,159,39,-167,619,408,3985,46,44,915,1798,1903,2110,2271,2084,1810,1880,2036
744992,-15272,20540,-12691,20077,397,189,137,74,-160,525,394,4001,43,46,915,1798,1903,2110,2271,2084,1810,1880,2036
745993,-15224,20604,-12626,20142,669,241,103,106,-143,603,312,3789,46,41,917,1798,1903,2110,2271,2084,1810,1880,2036
746994,-15172,20660,-12561,20207,636,351,82,115,-134,720,392,3940,42,36,915,1849,1945,2154,2322,2090,1826,1891,2043
747995,-15108,20732,-12496,20272,488,142,63,110,-120,531,361,3726,47,31,914,1849,1945,2154,2322,2090,1826,1891,2043
748996,-15040,20788,-12431,20337,435,353,48,93,-98,489,329,3894,35,37,917,1849,1945,2154,2322,2090,1826,1891,2043
749997,-14980,20856,-12366,20402,542,199,48,91,-81,563,380,4035,44,42,915,1849,1945,2154,2322,2090,1826,1891,2043
750998,-14916,20940,-12301,20467,495,-24,48,84,-64,547,353,3977,38,39,915,1849,1945,2154,2322,2090,1826,1891,2043
752001,-14844,20988,-12236,20532,387,447,53,71,-36,487,301,4064,38,33,917,1849,1945,2154,2322,2090,1826,1891,2043
753000,-14768,21068,-12171,20597,325,28,69,61,-11,542,419,4096,44,40,916,1837,1921,2134,2302,2103,1839,1895,2041
754001,-14716,21124,-12106,20662,642,339,81,57,7,549,415,4161,33,39,919,1837,1921,2134,2302,2103,1839,1895,2041
755002,-14640,21188,-12041,20727,329,240,89,59,31,488,332,4192,44,30,914,1837,1921,2134,2302,2103,1839,1895,2041
756003,-14572,21264,-11976,20792,426,76,97,70,53,544,386,4189,38,42,917,1837,1921,2134,2302,2103,1839,1895,2041
757004,-14504,21312,-11911,20857,424,447,95,62,87,466,294,4032,39,25,917,1837,1921,2134,2302,2103,1839,1895,2041
758005,-14440,21356,-11846,20922,476,523,94,65,100,561,466,4143,39,31,915,1804,1896,2102,2268,2093,1825,1889,2036
759006,-14356,21420,-11781,20987,204,273,93,81,100,545,471,4115,48,35,914,1804,1896,2102,2268,2093,1825,1889,2036
760007,-14300,21476,-11716,21052,566,384,84,121,109,602,455,4098,52,27,918,1804,1896,2102,2268,2093,1825,1889,2036
761008,-14236,21528,-11651,21117,468,450,75,158,113,725,431,4059,31,33,915,1804,1896,2102,2268,2093,1825,1889,2036
762009,-14164,21588,-11586,21182,360,356,66,206,113,679,365,3996,41,43,915,1804,1896,2102,2268,2093,1825,1889,2036
763010,-14088,21668,-11521,21247,298,88,50,232,112,680,415,3924,32,39,916,1804,1896,2102,2268,2093,1825,1889,2036
764011,-14008,21720,-11456,21312,231,453,44,265,113,573,322,3986,48,28,918,1805,1907,2107,2271,2079,1815,1884,2036
765012,-13972,21772,-11391,21377,817,468,30,291,111,613,220,3866,46,30,916,1805,1907,2107,2271,2079,1815,1884,2036
766013,-13908,21816,-11326,21442,468,594,29,305,108,579,205,3862,28,39,911,1805,1907,2107,2271,2079,1815,1884,2036
767014,-13844,21880,-11261,21507,471,345,23,311,110,465,0,3756,32,41,914,1805,1907,2107,2271,2079,1815,1884,2036
768015,-13796,21960,-11196,21572,692,127,21,300,107,496,83,3857,34,31,914,1805,1907,2107,2271,2079,1815,1884,2036
769016,-13736,22016,-11131,21637,549,438,22,295,109,452,19,3721,30,35,914,1818,1919,2122,2286,2079,1814,1879,2025
770017,-13660,22076,-11066,21702,337,394,30,285,116,520,-64,3753,47,42,914,1818,1919,2122,2286,2079,1814,1879,2025
771018,-13600,22132,-11001,21767,544,454,39,289,114,684,64,3808,49,43,916,1818,1919,2122,2286,2079,1814,1879,2025
772019,-13532,22192,-10936,21832,441,410,45,272,114,642,40,3747,47,32,914,1818,1919,2122,2286,2079,1814,1879,2025
773020,-13488,22264,-10871,21897,768,252,47,284,113,683,100,3871,47,43,915,1818,1919,2122,2286,2079,1814,1879,2025
774021,-13424,22304,-10806,21962,520,682,39,267,117,649,131,3653,34,28,914,1818,1919,2122,2286,2079,1814,1879,2025
775022,-13364,22376,-10741,22027,577,273,34,276,114,701,149,3933,51,44,913,1820,1916,2118,2290,2064,1806,1872,2009
776023,-13292,22432,-10676,22092,420,484,26,275,105,875,188,3872,39,30,915,1820,1916,2118,2290,2064,1806,1872,2009
777024,-13244,22520,-10611,22157,742,56,26,316,94,1123,382,3995,31,40,914,1820,1916,2118,2290,2064,1806,1872,2009
778025,-13180,22568,-10546,22222,544,577,25,340,95,1009,210,3890,30,28,915,1820,1916,2118,2290,2064,1806,1872,2009
779026,-13112,22640,-10481,22287,491,268,22,340,93,907,352,3686,36,39,913,1820,1916,2118,2290,2064,1806,1872,2009
780027,-13064,22692,-10416,22352,763,533,35,328,87,723,279,3935,46,29,916,1813,1908,2103,2277,2051,1801,1874,2008
781028,-13004,22744,-10351,22417,620,549,40,309,84,627,238,3725,47,27,912,1813,1908,2103,2277,2051,1801,1874,2008
782029,-12940,22804,-10286,22482,572,455,54,286,66,636,251,3745,46,29,913,1813,1908,2103,2277,2051,1801,1874,2008
783030,-12872,22876,-10221,22547,520,297,57,258,63,559,175,3787,40,28,914,1813,1908,2103,2277,2051,1801,1874,2008
784031,-12804,22944,-10156,22612,517,343,69,220,44,573,163,3860,34,42,915,1813,1908,2103,2277,2051,1801,1874,2008
785032,-12748,22996,-10091,22677,679,559,82,204,30,577,228,3983,35,37,914,1813,1908,2103,2277,2051,1801,1874,2008
786033,-12684,23056,-10026,22742,581,464,96,211,8,684,164,4009,29,40,912,1814,1914,2109,2281,2061,1803,1879,2023
787034,-12644,23112,-9961,22807,913,525,111,224,4,600,100,3978,33,28,913,1814,1914,2109,2281,2061,1803,1879,2023
788035,-12556,23176,-9896,22872,286,426,120,233,-19,677,98,3954,29,40,910,1814,1914,2109,2281,2061,1803,1879,2023
789036,-12508,23224,-9831,22937,807,647,137,235,-32,546,24,3965,50,29,916,1814,1914,2109,2281,2061,1803,1879,2023
790037,-12444,23284,-9766,23002,611,503,141,223,-42,579,56,3892,46,36,910,1814,1914,2109,2281,2061,1803,1879,2023
791038,-12396,23340,-9701,23067,832,564,155,217,-54,529,66,3927,34,29,913,1828,1936,2130,2295,2062,1801,1879,2027
792039,-12320,23412,-9636,23132,470,356,157,212,-66,539,50,3829,32,40,910,1828,1936,2130,2295,2062,1801,1879,2027
793040,-12268,23468,-9571,23197,787,567,162,215,-87,691,48,3935,31,36,915,1828,1936,2130,2295,2062,1801,1879,2027
794041,-12212,23520,-9506,23262,749,633,158,195,-94,599,78,3794,33,26,911,1828,1936,2130,2295,2062,1801,1879,2027
795042,-12152,23580,-9441,23327,706,538,154,177,-114,648,175,3857,35,27,911,1828,1936,2130,2295,2062,1801,1879,2027
796043,-12076,23648,-9376,23392,493,434,152,167,-128,602,241,3942,41,29,911,1828,1936,2130,2295,2062,1801,1879,2027
797044,-12036,23700,-9311,23457,975,650,143,146,-138,574,228,3861,49,34,914,1844,1949,2140,2310,2059,1804,1879,2020
798045,-11968,23756,-9246,23522,622,611,145,128,-153,719,292,3933,40,41,909,1844,1949,2140,2310,2059,1804,1879,2020
799046,-11908,23820,-9181,23587,729,512,139,109,-174,769,317,3927,39,31,912,1844,1949,2140,2310,2059,1804,1879,2020
800049,-11844,23888,-9116,23652,682,458,142,110,-185,665,204,4040,31,44,912,1844,1949,2140,2310,2059,1804,1879,2020
801048,-11784,23932,-9051,23717,739,784,142,96,-205,767,264,4020,49,42,912,1844,1949,2140,2310,2059,1804,1879,2020
802049,-11740,23984,-8986,23782,965,700,145,79,-222,596,141,4036,48,43,908,1838,1934,2126,2300,2068,1816,1888,2028
803050,-11652,24060,-8921,23847,388,386,160,49,-232,699,216,4025,45,44,908,1838,1934,2126,2300,2068,1816,1888,2028
804051,-11612,24120,-8856,23912,1020,593,171,27,-235,591,269,4016,50,38,915,1838,1934,2126,2300,2068,1816,1888,2028
805052,-11560,24188,-8791,23977,887,489,178,16,-247,627,149,3908,43,36,909,1838,1934,2126,2300,2068,1816,1888,2028
806053,-11504,24260,-8726,24042,849,429,183,23,-252,643,112,4041,33,45,910,1838,1934,2126,2300,2068,1816,1888,2028
807054,-11424,24332,-8661,24107,531,421,187,27,-257,536,69,3841,44,30,911,1819,1916,2116,2286,2083,1824,1891,2035
808055,-11356,24356,-8596,24172,679,1071,202,30,-263,518,117,4137,36,42,914,1819,1916,2116,2286,2083,1824,1891,2035
809056,-11292,24432,-8531,24237,731,407,218,32,-278,500,273,4077,48,38,907,1819,1916,2116,2286,2083,1824,1891,2035
810057,-11232,24504,-8466,24302,788,449,237,34,-287,319,228,4169,35,29,913,1819,1916,2116,2286,2083,1824,1891,2035
811058,-11164,24548,-8401,24367,685,825,233,46,-300,395,108,4100,40,32,912,1819,1916,2116,2286,2083,1824,1891,2035
812059,-11088,24612,-8336,24432,573,576,223,49,-307,404,154,3916,34,41,909,1819,1916,2116,2286,2083,1824,1891,2035
813060,-11024,24684,-8271,24497,725,467,214,54,-316,288,245,4104,42,32,912,1817,1922,2123,2290,2080,1819,1888,2032
814061,-10964,24736,-8206,24562,782,733,208,61,-321,255,150,3963,31,37,912,1817,1922,2123,2290,2080,1819,1888,2032
815062,-10892,24808,-8141,24627,626,475,197,64,-335,336,119,4041,51,42,909,1817,1922,2123,2290,2080,1819,1888,2032
816063,-10828,24860,-8076,24692,728,740,192,64,-326,256,233,3999,51,37,913,1817,1922,2123,2290,2080,1819,1888,2032
817064,-10772,24916,-8011,24757,840,701,171,75,-331,293,251,3938,31,39,909,1817,1922,2123,2290,2080,1819,1888,2032
818065,-10696,24960,-7946,24822,577,877,160,101,-345,469,182,3929,43,44,909,1826,1925,2123,2293,2075,1819,1883,2025
819066,-10656,25032,-7881,24887,1059,518,152,116,-353,530,185,3999,47,42,908,1826,1925,2123,2293,2075,1819,1883,2025
820067,-10584,25092,-7816,24952,651,674,159,151,-349,370,153,4018,29,38,908,1826,1925,2123,2293,2075,1819,1883,2025
821068,-10524,25152,-7751,25017,809,680,157,187,-357,449,187,4004,40,36,911,1826,1925,2123,2293,2075,1819,1883,2025
822069,-10472,25192,-7686,25082,925,960,163,209,-363,503,229,3994,30,36,910,1826,1925,2123,2293,2075,1819,1883,2025
823070,-10408,25260,-7621,25147,778,607,168,194,-363,270,326,4019,36,32,906,1826,1925,2123,2293,2075,1819,1883,2025
824071,-10336,25344,-7556,25212,670,383,176,174,-363,30,199,4120,34,36,910,1824,1917,2122,2292,2081,1826,1888,2028
825072,-10284,25404,-7491,25277,937,689,177,163,-366,357,268,4008,47,34,913,1824,1917,2122,2292,2081,1826,1888,2028
826073,-10228,25452,-7426,25342,899,860,184,134,-369,519,225,3823,46,27,908,1824,1917,2122,2292,2081,1826,1888,2028
827074,-10176,25512,-7361,25407,966,716,177,109,-364,400,291,3881,50,26,907,1824,1917,2122,2292,2081,1826,1888,2028
828075,-10116,25540,-7296,25472,873,1161,178,90,-362,177,355,3878,36,36,907,1824,1917,2122,2292,2081,1826,1888,2028
829076,-10044,25604,-7231,25537,715,713,174,92,-355,387,442,4069,42,39,903,1822,1917,2126,2300,2079,1824,1888,2029
830077,-10000,25652,-7166,25602,1092,933,177,85,-356,522,434,3956,34,42,910,1822,1917,2126,2300,2079,1824,1888,2029
831078,-9928,25724,-7101,25667,734,625,174,77,-355,459,325,3984,35,43,904,1822,1917,2126,2300,2079,1824,1888,2029
832079,-9856,25796,-7036,25732,728,616,173,95,-363,485,326,4009,37,38,911,1822,1917,2126,2300,2079,1824,1888,2029
833080,-9792,25856,-6971,25797,830,772,173,117,-360,673,354,3976,53,40,910,1822,1917,2126,2300,2079,1824,1888,2029
834081,-9732,25916,-6906,25862,887,779,175,161,-358,603,355,4101,37,45,908,1822,1917,2126,2300,2079,1824,1888,2029
835082,-9672,25988,-6841,25927,894,620,174,195,-354,466,271,4116,35,45,908,1824,1923,2122,2285,2071,1812,1882,2031
836083,-9620,26036,-6776,25992,1011,941,182,245,-348,508,304,4029,34,43,908,1824,1923,2122,2285,2071,1812,1882,2031
837084,-9560,26112,-6711,26057,918,577,197,258,-333,437,254,3932,36,44,905,1824,1923,2122,2285,2071,1812,1882,2031
838085,-9496,26180,-6646,26122,871,674,225,273,-322,211,254,3949,42,38,909,1824,1923,2122,2285,2071,1812,1882,2031
839086,-9424,26256,-6581,26187,763,560,247,260,-299,227,229,3957,43,51,909,1824,1923,2122,2285,2071,1812,1882,2031
840087,-9364,26320,-6516,26252,920,711,291,260,-266,390,153,3984,33,43,911,1824,1924,2128,2292,2065,1805,1872,2010
841088,-9308,26380,-6451,26317,982,768,312,226,-224,525,467,3959,33,37,908,1824,1924,2128,2292,2065,1805,1872,2010
842089,-9252,26460,-6386,26382,994,499,349,202,-185,-138,539,4047,36,48,907,1824,1924,2128,2292,2065,1805,1872,2010
843090,-9200,26536,-6321,26447,1061,536,366,198,-162,-143,455,3881,43,50,909,1824,1924,2128,2292,2065,1805,1872,2010
844091,-9132,26608,-6256,26512,859,577,381,158,-146,384,564,3806,34,39,908,1824,1924,2128,2292,2065,1805,1872,2010
845092,-9072,26684,-6191,26577,966,514,388,140,-123,418,621,3727,33,51,910,1824,1924,2128,2292,2065,1805,1872,2010
846093,-9016,26748,-6126,26642,1028,665,396,114,-105,405,677,3816,32,42,909,1845,1939,2143,2327,2042,1789,1861,1993
847094,-8960,26804,-6061,26707,1040,776,393,116,-80,577,689,3794,38,46,907,1845,1939,2143,2327,2042,1789,1861,1993
848095,-8912,26872,-5996,26772,1162,621,405,141,-72,817,640,3957,34,36,906,1845,1939,2143,2327,2042,1789,1861,1993
849096,-8856,26944,-5931,26837,1074,563,398,216,-69,1022,652,3996,35,37,906,1845,1939,2143,2327,2042,1789,1861,1993
850097,-8776,27000,-5866,26902,757,774,406,255,-60,826,522,3810,39,37,908,1845,1939,2143,2327,2042,1789,1861,1993
851098,-8732,27060,-5801,26967,1233,730,411,315,-56,888,592,4078,37,40,909,1878,1960,2161,2341,2037,1790,1861,1998
852099,-8680,27128,-5736,27032,1150,626,444,342,-47,750,464,3999,39,45,904,1878,1960,2161,2341,2037,1790,1861,1998
853100,-8596,27196,-5671,27097,728,623,463,364,-37,616,386,4047,33,46,905,1878,1960,2161,2341,2037,1790,1861,1998
854101,-8544,27276,-5606,27162,1146,454,499,383,-20,627,320,3933,54,42,910,1878,1960,2161,2341,2037,1790,1861,1998
855102,-8484,27336,-5541,27227,1053,710,551,377,8,570,395,4055,37,43,908,1878,1960,2161,2341,2037,1790,1861,1998
856103,-8420,27376,-5476,27292,1005,991,590,352,48,47,322,3936,40,43,906,1878,1960,2161,2341,2037,1790,1861,1998
857104,-8352,27440,-5411,27357,953,692,632,325,83,59,339,4163,36,43,905,1856,1937,2143,2319,2054,1805,1866,2004
858105,-8304,27500,-5346,27422,1224,748,676,292,140,56,395,3985,48,35,908,1856,1937,2143,2319,2054,1805,1866,2004
859106,-8236,27564,-5281,27487,972,700,708,238,188,50,473,4061,50,29,904,1856,1937,2143,2319,2054,1805,1866,2004
860107,-8176,27604,-5216,27552,1079,1030,731,230,231,-45,477,4015,38,40,907,1856,1937,2143,2319,2054,1805,1866,2004
861108,-8120,27668,-5151,27617,1141,731,740,207,271,169,618,4008,49,36,903,1856,1937,2143,2319,2054,1805,1866,2004
862109,-8056,27720,-5086,27682,1044,897,754,222,304,208,664,4074,45,43,905,1840,1938,2140,2316,2048,1796,1869,2008
863110,-7996,27784,-5021,27747,1101,748,754,232,339,358,698,4046,48,42,905,1840,1938,2140,2316,2048,1796,1869,2008
864111,-7944,27844,-4956,27812,1218,804,760,272,368,398,689,4058,33,44,906,1840,1938,2140,2316,2048,1796,1869,2008
865112,-7884,27904,-4891,27877,1125,811,751,312,394,464,755,3932,45,44,904,1840,1938,2140,2316,2048,1796,1869,2008
866113,-7820,27968,-4826,27942,1077,762,754,365,401,569,717,4141,39,36,905,1840,1938,2140,2316,2048,1796,1869,2008
867114,-7768,28024,-4761,28007,1244,873,762,447,404,697,646,4134,39,32,905,1840,1938,2140,2316,2048,1796,1869,2008
868115,-7688,28092,-4696,28072,877,719,784,521,404,854,532,4309,40,40,902,1860,1956,2152,2321,2066,1811,1883,2029
869116,-7648,28156,-4631,28137,1409,770,812,554,400,661,531,4094,34,48,908,1860,1956,2152,2321,2066,1811,1883,2029
870117,-7568,28236,-4566,28202,892,552,837,539,396,330,522,4159,31,39,900,1860,1956,2152,2321,2066,1811,1883,2029
871118,-7516,28280,-4501,28267,1259,1028,864,517,402,212,449,3980,37,39,909,1860,1956,2152,2321,2066,1811,1883,2029
872119,-7452,28368,-4436,28332,1111,450,898,486,393,327,480,4053,41,36,902,1860,1956,2152,2321,2066,1811,1883,2029
873120,-7388,28452,-4371,28397,1113,476,917,449,403,99,429,3899,40,56,908,1852,1940,2152,2324,2077,1825,1881,2017
874121,-7332,28512,-4306,28462,1225,782,947,415,414,62,494,4009,47,53,908,1852,1940,2152,2324,2077,1825,1881,2017
875122,-7276,28588,-4241,28527,1237,569,954,393,418,227,444,3934,54,37,904,1852,1940,2152,2324,2077,1825,1881,2017
876123,-7184,28656,-4176,28592,756,665,970,361,459,-10,453,3832,38,41,906,1852,1940,2152,2324,2077,1825,1881,2017
877124,-7144,28736,-4111,28657,1438,497,953,352,487,153,692,3966,40,49,910,1852,1940,2152,2324,2077,1825,1881,2017
878125,-7056,28804,-4046,28722,811,643,951,373,508,224,579,3977,54,32,904,1852,1940,2152,2324,2077,1825,1881,2017
879126,-6980,28860,-3981,28787,948,804,912,389,548,360,463,3896,53,42,910,1847,1937,2148,2319,2059,1809,1872,2013
880127,-6912,28936,-3916,28852,1046,541,900,393,579,662,524,4150,47,35,907,1847,1937,2148,2319,2059,1809,1872,2013
881128,-6840,29000,-3851,28917,988,692,876,379,623,390,608,3910,55,35,908,1847,1937,2148,2319,2059,1809,1872,2013
882129,-6768,29056,-3786,28982,981,803,872,366,652,-74,632,4246,38,40,907,1847,1937,2148,2319,2059,1809,1872,2013
883130,-6708,29120,-3721,29047,1139,704,849,377,681,109,656,4120,41,36,906,1847,1937,2148,2319,2059,1809,1872,2013
884131,-6660,29172,-3656,29112,1310,869,850,360,695,587,766,3957,51,32,905,1827,1926,2127,2284,2076,1820,1888,2046
885132,-6584,29244,-3591,29177,948,611,841,343,694,480,650,4041,48,46,902,1827,1926,2127,2284,2076,1820,1888,2046
886133,-6544,29308,-3526,29242,1430,712,833,323,696,111,473,3981,44,49,909,1827,1926,2127,2284,2076,1820,1888,2046
887134,-6480,29360,-3461,29307,1132,878,829,298,683,168,749,3949,51,41,900,1827,1926,2127,2284,2076,1820,1888,2046
888135,-6412,29412,-3396,29372,1079,894,845,285,662,261,771,3976,36,49,904,1827,1926,2127,2284,2076,1820,1888,2046
889136,-6348,29488,-3331,29437,1131,580,849,291,630,396,692,3948,47,42,904,1827,1926,2127,2284,2076,1820,1888,2046
890137,-6284,29544,-3266,29502,1135,841,870,287,601,391,645,3820,33,48,906,1810,1915,2117,2259,2125,1851,1913,2083
891138,-6236,29616,-3201,29567,1356,633,859,266,590,245,569,3792,51,45,904,1810,1915,2117,2259,2125,1851,1913,2083
892139,-6176,29672,-3136,29632,1213,844,860,261,565,235,635,3688,37,35,903,1810,1915,2117,2259,2125,1851,1913,2083
893140,-6108,29736,-3071,29697,1111,745,850,241,560,70,672,3575,53,43,903,1810,1915,2117,2259,2125,1851,1913,2083
894141,-6056,29788,-3006,29762,1328,911,843,202,559,140,868,3710,47,36,905,1810,1915,2117,2259,2125,1851,1913,2083
895142,-5984,29868,-2941,29827,1070,542,826,173,561,44,981,3726,52,51,902,1808,1918,2125,2270,2112,1843,1903,2059
896143,-5920,29956,-2876,29892,1173,414,803,151,567,8,802,3690,44,49,907,1808,1918,2125,2270,2112,1843,1903,2059
897144,-5864,30008,-2811,29957,1285,880,765,142,593,29,708,3672,38,50,907,1808,1918,2125,2270,2112,1843,1903,2059
898145,-5800,30060,-2746,30022,1188,896,740,109,601,131,879,3724,33,47,902,1808,1918,2125,2270,2112,1843,1903,2059
899146,-5740,30132,-2681,30087,1245,638,709,77,629,-177,798,3883,38,41,903,1808,1918,2125,2270,2112,1843,1903,2059
900147,-5672,30180,-2616,30152,1142,958,675,56,637,93,980,3983,49,36,904,1808,1918,2125,2270,2112,1843,1903,2059
901148,-5624,30252,-2551,30217,1414,650,632,44,638,143,807,3768,38,42,903,1802,1907,2115,2264,2071,1815,1871,2027
902149,-5552,30324,-2486,30282,1107,641,595,50,629,103,651,3942,39,36,902,1802,1907,2115,2264,2071,1815,1871,2027
903150,-5496,30384,-2421,30347,1319,797,572,38,626,216,647,3762,34,38,906,1802,1907,2115,2264,2071,1815,1871,2027
904151,-5440,30440,-2356,30412,1331,858,541,34,609,297,715,3887,50,37,901,1802,1907,2115,2264,2071,1815,1871,2027
905152,-5372,30500,-2291,30477,1178,814,523,41,587,208,785,3893,44,42,902,1802,1907,2115,2264,2071,1815,1871,2027
906153,-5308,30568,-2226,30542,1231,711,508,47,555,382,767,4024,52,42,904,1794,1892,2108,2256,2088,1834,1885,2045
907154,-5256,30640,-2161,30607,1398,652,497,58,512,410,801,3956,32,39,904,1794,1892,2108,2256,2088,1834,1885,2045
908155,-5192,30728,-2096,30672,1251,424,489,66,482,156,822,3832,48,53,903,1794,1892,2108,2256,2088,1834,1885,2045
909156,-5160,30780,-2031,30737,1692,890,475,55,447,188,904,3890,31,41,906,1794,1892,2108,2256,2088,1834,1885,2045
910157,-5100,30840,-1966,30802,1349,796,468,68,407,130,1049,3846,48,45,897,1794,1892,2108,2256,2088,1834,1885,2045
911158,-5052,30932,-1901,30867,1521,363,451,73,387,146,1086,3956,34,48,902,1794,1892,2108,2256,2088,1834,1885,2045
912159,-4992,30980,-1836,30932,1378,934,439,81,344,105,1036,3787,50,49,903,1794,1894,2116,2268,2120,1860,1910,2067
913160,-4932,31056,-1771,30997,1385,570,420,93,302,-46,932,3732,53,43,900,1794,1894,2116,2268,2120,1860,1910,2067
914161,-4860,31128,-1706,31062,1229,612,398,111,293,170,1181,3986,47,44,903,1794,1894,2116,2268,2120,1860,1910,2067
915162,-4800,31192,-1641,31127,1386,713,385,141,278,6,1165,3947,37,53,905,1794,1894,2116,2268,2120,1860,1910,2067
916163,-4736,31252,-1576,31192,1338,769,356,186,276,-6,936,4163,35,39,903,1794,1894,2116,2268,2120,1860,1910,2067
917164,-4692,31312,-1511,31257,1615,775,348,225,284,137,1084,3945,34,46,902,1805,1913,2131,2289,2110,1853,1905,2055
918165,-4624,31392,-1446,31322,1313,507,337,244,277,34,1213,4132,51,52,898,1805,1913,2131,2289,2110,1853,1905,2055
919166,-4572,31452,-1381,31387,1530,763,323,301,277,-148,886,4144,35,45,905,1805,1913,2131,2289,2110,1853,1905,2055
920167,-4508,31516,-1316,31452,1382,714,316,288,282,143,977,3912,44,48,900,1805,1913,2131,2289,2110,1853,1905,2055
921168,-4452,31580,-1251,31517,1494,716,311,293,290,25,1083,3968,51,42,901,1805,1913,2131,2289,2110,1853,1905,2055
922169,-4388,31644,-1186,31582,1396,717,303,313,256,77,1190,4137,35,37,901,1805,1913,2131,2289,2110,1853,1905,2055
923170,-4316,31712,-1121,31647,1290,663,293,393,227,128,985,4309,53,51,901,1814,1920,2141,2301,2088,1836,1884,2029
924171,-4264,31776,-1056,31712,1557,714,285,415,201,422,1182,3974,38,51,904,1814,1920,2141,2301,2088,1836,1884,2029
925172,-4200,31828,-991,31777,1409,880,280,439,172,375,945,4116,50,49,900,1814,1920,2141,2301,2088,1836,1884,2029
926173,-4136,31892,-926,31842,1411,731,266,430,132,453,1052,3888,39,36,900,1814,1920,2141,2301,2088,1836,1884,2029
927174,-4068,31948,-861,31907,1358,842,253,442,83,412,1070,4131,40,51,902,1814,1920,2141,2301,2088,1836,1884,2029
928175,-4008,32032,-796,31972,1466,469,229,482,31,429,1049,4172,36,49,901,1829,1921,2147,2314,2074,1830,1876,2020
929176,-3948,32092,-731,32037,1474,774,212,506,-4,606,1148,4149,53,41,903,1829,1921,2147,2314,2074,1830,1876,2020
930177,-3896,32156,-666,32102,1590,726,206,527,-24,435,1185,4069,48,48,901,1829,1921,2147,2314,2074,1830,1876,2020
931178,-3828,32204,-601,32167,1388,946,198,521,-34,373,1177,4120,40,39,899,1829,1921,2147,2314,2074,1830,1876,2020
932179,-3768,32264,-536,32232,1496,802,203,511,-47,281,1316,3925,34,47,900,1829,1921,2147,2314,2074,1830,1876,2020
933180,-3716,32336,-471,32297,1613,644,196,505,-53,343,1176,4084,47,37,899,1829,1921,2147,2314,2074,1830,1876,2020
934181,-3656,32412,-406,32362,1520,580,187,509,-52,359,1140,3998,46,41,900,1831,1924,2150,2314,2081,1836,1891,2040
935182,-3608,32460,-341,32427,1692,951,198,532,-64,333,1348,3982,47,39,901,1831,1924,2150,2314,2081,1836,1891,2040
936183,-3564,32516,-276,32492,1769,862,209,546,-63,229,1212,3927,37,42,896,1831,1924,2150,2314,2081,1836,1891,2040
937184,-3492,32568,-211,32557,1412,928,211,562,-61,354,1269,4013,31,46,895,1831,1924,2150,2314,2081,1836,1891,2040
938185,-3448,32636,-146,32622,1788,724,220,570,-73,250,1317,3961,37,51,898,1831,1924,2150,2314,2081,1836,1891,2040
939186,-3388,32700,-81,32687,1595,776,225,587,-89,337,1310,3901,36,43,897,1828,1933,2149,2304,2095,1839,1897,2050
940187,-3324,32768,-16,32752,1549,722,222,571,-98,404,1297,3878,35,45,899,1828,1933,2149,2304,2095,1839,1897,2050
941188,-3260,32828,49,32817,1551,828,225,573,-129,237,1394,4018,50,46,900,1828,1933,2149,2304,2095,1839,1897,2050
942189,-3188,32908,114,32882,1443,560,222,564,-148,40,1205,3957,39,46,899,1828,1933,2149,2304,2095,1839,1897,2050
943190,-3128,32956,179,32947,1600,981,225,578,-162,472,1357,4179,45,53,902,1828,1933,2149,2304,2095,1839,1897,2050
944191,-3048,33016,244,33012,1334,837,235,586,-183,562,1347,3930,40,51,897,1828,1933,2149,2304,2095,1839,1897,2050
945192,-2988,33088,309,33077,1591,678,232,578,-212,474,1301,4059,48,46,901,1816,1924,2137,2285,2080,1821,1875,2031
946193,-2924,33156,374,33142,1543,724,229,591,-243,318,1342,4160,54,50,900,1816,1924,2137,2285,2080,1821,1875,2031
947194,-2852,33228,439,33207,1436,666,219,598,-256,458,1144,4061,56,46,900,1816,1924,2137,2285,2080,1821,1875,2031
948195,-2764,33296,504,33272,1210,712,219,595,-276,599,1247,4081,48,45,902,1816,1924,2137,2285,2080,1821,1875,2031
949196,-2700,33364,569,33337,1512,709,217,597,-304,529,1300,4031,47,53,905,1816,1924,2137,2285,2080,1821,1875,2031
950197,-2632,33412,634,33402,1459,979,217,598,-327,534,1256,4175,43,50,901,1819,1923,2143,2295,2066,1815,1868,2022
951198,-2580,33508,699,33467,1676,341,205,621,-349,559,1305,4089,48,52,898,1819,1923,2143,2295,2066,1815,1868,2022
952199,-2500,33576,898,33666,1473,851,196,639,-364,574,1208,4011,36,43,901,1819,1923,2143,2295,2066,1815,1868,2022
953200,-2428,33636,963,33731,1566,957,189,627,-373,576,1357,3935,51,50,900,1819,1923,2143,2295,2066,1815,1868,2022
954201,-2380,33676,1028,33796,1888,1238,191,606,-366,328,1415,3824,44,44,898,1819,1923,2143,2295,2066,1815,1868,2022
955202,-2304,33760,1093,33861,1525,665,182,593,-372,447,1466,3918,54,56,890,1819,1923,2143,2295,2066,1815,1868,2022
956203,-2216,33832,1158,33926,1349,806,181,587,-389,425,1360,3732,39,51,900,1831,1933,2159,2322,2079,1836,1885,2034
957204,-2168,33920,1223,33991,1871,578,169,583,-394,421,1391,3762,54,58,902,1831,1933,2159,2322,2079,1836,1885,2034
958205,-2100,33988,1288,34056,1618,825,169,573,-408,499,1328,3689,55,48,897,1831,1933,2159,2322,2079,1836,1885,2034
959206,-2016,34060,1353,34121,1397,766,160,567,-418,393,1353,3705,56,63,898,1831,1933,2159,2322,2079,1836,1885,2034
960207,-1948,34148,1418,34186,1594,538,171,566,-425,520,1684,3822,41,61,901,1831,1933,2159,2322,2079,1836,1885,2034
961208,-1868,34240,1483,34251,1427,455,179,593,-443,502,1681,3850,43,60,901,1835,1931,2158,2317,2095,1842,1892,2045
962209,-1808,34312,1548,34316,1684,696,189,621,-455,399,1503,4085,42,63,904,1835,1931,2158,2317,2095,1842,1892,2045
963210,-1732,34388,1613,34381,1473,633,205,662,-455,446,1613,3998,41,51,899,1835,1931,2158,2317,2095,1842,1892,2045
964211,-1660,34452,1678,34446,1515,784,229,700,-449,413,1623,4043,56,58,902,1835,1931,2158,2317,2095,1842,1892,2045
965212,-1588,34532,1743,34511,1508,566,235,725,-474,463,1534,4125,50,49,900,1835,1931,2158,2317,2095,1842,1892,2045
966213,-1508,34620,1808,34576,1391,438,234,746,-494,395,1425,3972,56,51,902,1835,1931,2158,2317,2095,1842,1892,2045
967214,-1436,34700,1873,34641,1484,519,230,759,-506,393,1401,3898,56,60,904,1812,1913,2135,2287,2078,1821,1871,2022
968215,-1360,34780,1938,34706,1421,501,221,781,-521,437,1370,3775,54,45,903,1812,1913,2135,2287,2078,1821,1871,2022
969216,-1288,34852,2003,34771,1464,593,211,812,-533,435,1410,3979,57,45,904,1812,1913,2135,2287,2078,1821,1871,2022
970217,-1216,34932,2068,34836,1457,474,188,849,-552,536,1532,3930,43,44,903,1812,1913,2135,2287,2078,1821,1871,2022
971218,-1124,34992,2133,34901,1175,730,169,851,-570,377,1674,3873,54,48,904,1812,1913,2135,2287,2078,1821,1871,2022
972219,-1064,35052,2198,34966,1582,737,137,851,-579,129,1467,3703,56,50,903,1810,1910,2134,2289,2061,1809,1859,2011
973220,-1012,35140,2263,35031,1699,358,117,844,-583,307,1515,3698,48,54,900,1810,1910,2134,2289,2061,1809,1859,2011
974221,-940,35204,2328,35096,1443,660,83,857,-600,418,1464,3617,43,57,901,1810,1910,2134,2289,2061,1809,1859,2011
975222,-880,35284,2393,35161,1600,441,51,875,-628,442,1384,3619,40,46,902,1810,1910,2134,2289,2061,1809,1859,2011
976223,-796,35340,2458,35226,1278,752,28,883,-653,512,1469,3530,53,55,902,1810,1910,2134,2289,2061,1809,1859,2011
977226,-728,35400,2523,35291,1475,708,9,882,-668,382,1386,3405,40,45,904,1810,1910,2134,2289,2061,1809,1859,2011
978225,-660,35496,2588,35356,1473,221,6,892,-686,380,1483,3592,40,57,901,1809,1903,2134,2286,2084,1836,1878,2040
979226,-592,35556,2653,35421,1471,677,7,893,-701,382,1391,3466,49,61,905,1809,1903,2134,2286,2084,1836,1878,2040
980227,-512,35624,2718,35486,1303,573,10,885,-690,454,1387,3534,60,44,902,1809,1903,2134,2286,2084,1836,1878,2040
981228,-432,35696,2783,35551,1286,514,23,860,-674,466,1409,3553,60,46,904,1809,1903,2134,2286,2084,1836,1878,2040
982229,-348,35752,2848,35616,1214,725,19,843,-676,339,1380,3356,48,56,905,1809,1903,2134,2286,2084,1836,1878,2040
983230,-280,35836,2913,35681,1412,352,21,822,-674,297,1444,3369,43,43,905,1783,1883,2114,2254,2104,1844,1888,2049
984231,-200,35904,2978,35746,1245,549,4,821,-678,412,1442,3317,49,56,905,1783,1883,2114,2254,2104,1844,1888,2049
985232,-128,35972,3043,35811,1337,545,-16,849,-682,507,1528,3606,42,44,905,1783,1883,2114,2254,2104,1844,1888,2049
986233,-48,36028,3108,35876,1220,706,-31,865,-688,477,1616,3238,38,54,905,1783,1883,2114,2254,2104,1844,1888,2049
987234,36,36096,3173,35941,1148,551,-55,866,-696,263,1538,3521,59,58,904,1783,1883,2114,2254,2104,1844,1888,2049
988235,116,36180,3238,36006,1182,328,-84,874,-710,280,1610,3585,42,57,906,1783,1883,2114,2254,2104,1844,1888,2049
989236,188,36248,3303,36071,1274,524,-110,854,-740,307,1649,3399,47,58,906,1766,1869,2087,2225,2082,1813,1866,2029
990237,264,36324,3368,36136,1212,411,-134,855,-762,199,1522,3582,39,43,906,1766,1869,2087,2225,2082,1813,1866,2029
991238,324,36384,3433,36201,1419,617,-157,848,-778,137,1416,3428,45,44,907,1766,1869,2087,2225,2082,1813,1866,2029
992239,408,36460,3498,36266,1096,404,-184,848,-794,230,1397,3555,41,60,903,1766,1869,2087,2225,2082,1813,1866,2029
993240,488,36544,3563,36331,1130,280,-206,831,-832,214,1501,3379,42,60,908,1766,1869,2087,2225,2082,1813,1866,2029
994241,572,36620,3628,36396,1058,367,-226,788,-852,-244,1278,3186,58,57,908,1764,1869,2085,2225,2066,1802,1858,2023
995242,648,36696,3693,36461,1146,354,-250,780,-850,-49,1081,3611,49,56,909,1764,1869,2085,2225,2066,1802,1858,2023
996243,708,36768,3758,36526,1353,395,-267,777,-848,515,1106,3377,47,48,908,1764,1869,2085,2225,2066,1802,1858,2023
997244,800,36836,3823,36591,921,441,-291,767,-862,231,1213,3304,43,45,906,1764,1869,2085,2225,2066,1802,1858,2023
998245,884,36912,3888,36656,998,328,-309,738,-876,-105,1186,3241,50,51,910,1764,1869,2085,2225,2066,1802,1858,2023
999246,936,36988,3953,36721,1416,314,-331,740,-870,-13,1034,3267,53,47,910,1764,1869,2085,2225,2066,1802,1858,2023
1000247,1004,37068,4018,36786,1214,245,-348,775,-848,464,971,3440,54,46,905,1775,1879,2107,2251,2078,1818,1870,2037
1001248,1096,37136,4083,36851,882,392,-358,801,-830,563,1008,3385,43,57,908,1775,1879,2107,2251,2078,1818,1870,2037
1002249,1176,37220,4148,36916,1014,168,-364,814,-823,115,1162,3302,46,59,911,1775,1879,2107,2251,2078,1818,1870,2037
1003250,1268,37288,4213,36981,832,365,-373,795,-824,-101,1267,3235,50,42,910,1775,1879,2107,2251,2078,1818,1870,2037
1004251,1336,37356,4278,37046,1130,361,-389,798,-811,8,977,3473,44,54,911,1775,1879,2107,2251,2078,1818,1870,2037
1005252,1420,37444,4343,37111,908,83,-411,801,-804,396,990,3526,43,43,909,1788,1884,2109,2259,2085,1829,1878,2032
1006253,1504,37512,4408,37176,885,329,-426,782,-813,215,1318,3392,52,46,911,1788,1884,2109,2259,2085,1829,1878,2032
1007254,1580,37584,4473,37241,974,271,-438,715,-824,-337,1284,3367,61,58,911,1788,1884,2109,2259,2085,1829,1878,2032
1008255,1664,37652,4538,37306,852,316,-449,679,-841,-344,1199,3615,48,45,910,1788,1884,2109,2259,2085,1829,1878,2032
1009256,1736,37728,4603,37371,994,203,-476,664,-839,24,1080,3688,40,58,911,1788,1884,2109,2259,2085,1829,1878,2032
1010257,1828,37796,4668,37436,712,299,-486,645,-841,189,1231,3556,47,45,911,1788,1884,2109,2259,2085,1829,1878,2032
1011258,1896,37868,4733,37501,1010,241,-502,605,-860,-237,1200,3472,43,43,913,1781,1870,2090,2250,2078,1818,1874,2027
1012259,1980,37940,4798,37566,787,232,-523,577,-878,-462,1164,3642,59,57,911,1781,1870,2090,2250,2078,1818,1874,2027
1013260,2072,38000,4863,37631,655,388,-540,589,-875,-124,912,3715,41,51,913,1781,1870,2090,2250,2078,1818,1874,2027
